##NAMES=Scorodite
##RRUFFID=R050465
##IDEAL CHEMISTRY=Fe^3+^As^5+^O_4_&#183;2H_2_O
##LOCALITY=Minas Gerais, Brazil
##OWNER=RRUFF
##SOURCE=University of Arizona Mineral Museum
##DESCRIPTION=Group of blue prismatic to tabular crystals displaying many modifying forms
##STATUS=The identification of this mineral has been confirmed by X-ray diffraction and chemical analysis
##URL=rruff.info/R050465
##MEASURED CHEMISTRY=Fe^3+^_1.00_As_1.00_O_4_Â·2H_2_O
91.00781, 23.19701
91.48993, 23.67372
91.97205, 23.86505
92.45416, 23.50501
92.93628, 22.87130
93.41840, 22.53803
93.90051, 22.55637
94.38263, 22.97158
94.86475, 23.94083
95.34686, 25.46120
95.82898, 27.25785
96.31110, 29.04095
96.79321, 30.84777
97.27533, 33.05462
97.75745, 35.80599
98.23956, 38.98457
98.72168, 41.96165
99.20380, 44.62135
99.68591, 47.34846
100.1680, 50.52932
100.6501, 54.14703
101.1323, 58.17039
101.6144, 62.59708
102.0965, 67.44196
102.5786, 72.40201
103.0607, 77.23230
103.5428, 82.42716
104.0250, 88.87515
104.5071, 96.44789
104.9892, 105.4093
105.4713, 116.0215
105.9534, 129.3936
106.4355, 142.0223
106.9177, 154.7588
107.3998, 166.7983
107.8819, 175.9814
108.3640, 180.8206
108.8461, 183.8948
109.3282, 186.4121
109.8104, 186.7204
110.2925, 188.2999
110.7746, 190.9792
111.2567, 194.8534
111.7388, 200.8376
112.2209, 209.2205
112.7031, 219.5774
113.1852, 231.7277
113.6673, 247.1637
114.1494, 262.8536
114.6315, 277.1826
115.1136, 290.1189
115.5958, 305.7435
116.0779, 326.9506
116.5600, 351.0560
117.0421, 374.9463
117.5242, 400.0835
118.0063, 423.1314
118.4885, 442.8745
118.9706, 459.2710
119.4527, 471.8982
119.9348, 478.1373
120.4169, 480.4661
120.8990, 483.5195
121.3812, 488.8044
121.8633, 496.2388
122.3454, 505.8627
122.8275, 518.0751
123.3096, 531.5981
123.7917, 545.0839
124.2739, 558.8466
124.7560, 574.0392
125.2381, 590.6307
125.7202, 609.3434
126.2023, 631.0959
126.6844, 656.2728
127.1666, 684.5675
127.6487, 715.9119
128.1308, 750.4025
128.6129, 786.8788
129.0950, 825.3617
129.5771, 865.5408
130.0593, 907.1771
130.5414, 953.9246
131.0235, 1000.274
131.5056, 1030.590
131.9877, 1040.368
132.4698, 1034.395
132.9520, 1020.115
133.4341, 998.0316
133.9162, 975.6247
134.3983, 953.1740
134.8804, 931.6735
135.3625, 921.3260
135.8447, 925.1028
136.3268, 932.1759
136.8089, 927.6898
137.2910, 910.6940
137.7731, 888.6964
138.2552, 861.6437
138.7374, 827.9100
139.2195, 803.4994
139.7016, 789.3686
140.1837, 782.9088
140.6658, 779.6453
141.1479, 780.4794
141.6301, 782.1718
142.1122, 784.4030
142.5943, 790.3895
143.0764, 787.9843
143.5585, 775.4282
144.0406, 754.6168
144.5228, 730.9131
145.0049, 701.7891
145.4870, 673.1664
145.9691, 648.4138
146.4512, 626.6172
146.9333, 609.5479
147.4155, 597.0239
147.8976, 588.9662
148.3797, 585.9467
148.8618, 587.8140
149.3439, 594.6940
149.8260, 606.5874
150.3082, 628.5723
150.7903, 650.0063
151.2724, 669.2714
151.7545, 686.1569
152.2366, 705.9876
152.7188, 735.2693
153.2009, 764.5043
153.6830, 785.7250
154.1651, 793.5166
154.6472, 797.9521
155.1293, 800.1412
155.6115, 799.8503
156.0936, 800.3557
156.5757, 798.1526
157.0578, 798.3253
157.5399, 806.5071
158.0220, 825.7769
158.5042, 851.6971
158.9863, 882.9235
159.4684, 919.6246
159.9505, 960.0543
160.4326, 1004.049
160.9147, 1051.145
161.3969, 1100.646
161.8790, 1152.912
162.3611, 1207.113
162.8432, 1263.040
163.3253, 1320.104
163.8074, 1378.851
164.2896, 1437.786
164.7717, 1498.465
165.2538, 1564.009
165.7359, 1636.036
166.2180, 1713.255
166.7001, 1796.642
167.1823, 1889.399
167.6644, 1979.224
168.1465, 2062.320
168.6286, 2136.986
169.1107, 2198.379
169.5928, 2237.005
170.0750, 2263.775
170.5571, 2289.718
171.0392, 2314.784
171.5213, 2343.159
172.0034, 2376.446
172.4855, 2415.449
172.9677, 2462.612
173.4498, 2517.481
173.9319, 2582.275
174.4140, 2660.236
174.8961, 2753.596
175.3782, 2858.982
175.8604, 2977.606
176.3425, 3109.268
176.8246, 3246.728
177.3067, 3398.243
177.7888, 3552.978
178.2709, 3688.180
178.7531, 3809.393
179.2352, 3900.206
179.7173, 3936.979
180.1994, 3920.700
180.6815, 3860.732
181.1636, 3754.977
181.6458, 3610.193
182.1279, 3448.870
182.6100, 3264.709
183.0921, 3073.590
183.5742, 2902.452
184.0563, 2754.518
184.5385, 2619.830
185.0206, 2497.277
185.5027, 2383.425
185.9848, 2267.972
186.4669, 2145.416
186.9490, 2018.401
187.4312, 1888.029
187.9133, 1755.666
188.3954, 1626.115
188.8775, 1504.951
189.3596, 1392.977
189.8417, 1292.997
190.3239, 1208.676
190.8060, 1137.981
191.2881, 1074.770
191.7702, 1019.605
192.2523, 972.1520
192.7344, 932.7868
193.2166, 901.6931
193.6987, 875.0526
194.1808, 851.7853
194.6629, 831.8519
195.1450, 813.7537
195.6271, 797.7438
196.1093, 782.9048
196.5914, 767.8790
197.0735, 752.6024
197.5556, 737.8502
198.0377, 724.0275
198.5198, 711.0128
199.0020, 698.3546
199.4841, 685.8251
199.9662, 673.9944
200.4483, 663.7389
200.9304, 655.2264
201.4125, 647.2323
201.8947, 639.3752
202.3768, 631.6877
202.8589, 623.6207
203.3410, 614.9457
203.8231, 606.1604
204.3052, 598.2084
204.7874, 591.0095
205.2695, 584.7825
205.7516, 579.7615
206.2337, 576.0760
206.7158, 572.6675
207.1979, 569.3800
207.6801, 566.4984
208.1622, 564.2606
208.6443, 562.0807
209.1264, 562.2534
209.6085, 566.2303
210.0906, 574.7603
210.5728, 583.7898
211.0549, 593.3859
211.5370, 603.3126
212.0191, 612.9117
212.5012, 622.4591
212.9833, 631.2104
213.4655, 639.1456
213.9476, 647.0377
214.4297, 651.4032
214.9118, 651.6951
215.3939, 648.6793
215.8760, 644.1040
216.3581, 637.9105
216.8403, 630.3501
217.3224, 621.0624
217.8045, 608.5753
218.2866, 598.6761
218.7687, 591.8043
219.2508, 587.4920
219.7330, 584.6859
220.2151, 583.3021
220.6972, 583.5391
221.1793, 585.6556
221.6614, 590.2427
222.1435, 595.0084
222.6257, 599.3311
223.1078, 603.9785
223.5899, 611.3516
224.0720, 622.3726
224.5541, 634.7048
225.0362, 647.8464
225.5184, 662.7570
226.0005, 675.8240
226.4826, 686.6920
226.9647, 695.8154
227.4468, 704.5692
227.9289, 712.1358
228.4111, 720.5330
228.8932, 730.7174
229.3753, 743.0386
229.8574, 756.2687
230.3395, 770.3040
230.8216, 785.1348
231.3038, 801.1431
231.7859, 818.8030
232.2680, 836.7791
232.7501, 854.8998
233.2322, 874.9717
233.7143, 891.1191
234.1965, 903.5751
234.6786, 912.1093
235.1607, 915.8883
235.6428, 912.6914
236.1249, 907.9395
236.6070, 903.9274
237.0892, 901.0282
237.5713, 897.9277
238.0534, 894.0438
238.5355, 890.0978
239.0176, 887.8981
239.4997, 887.4095
239.9819, 888.7045
240.4640, 892.1298
240.9461, 899.2112
241.4282, 904.7484
241.9103, 907.8151
242.3924, 909.6385
242.8746, 913.3168
243.3567, 920.1984
243.8388, 926.8873
244.3209, 931.3960
244.8030, 930.9546
245.2851, 935.8143
245.7673, 947.7728
246.2494, 964.3065
246.7315, 979.9850
247.2136, 994.0175
247.6957, 1008.498
248.1778, 1025.061
248.6600, 1046.061
249.1421, 1061.548
249.6242, 1070.454
250.1063, 1074.552
250.5884, 1077.622
251.0705, 1081.784
251.5527, 1081.220
252.0348, 1072.900
252.5169, 1054.107
252.9990, 1037.624
253.4811, 1026.272
253.9632, 1015.196
254.4454, 994.8192
254.9275, 958.6866
255.4096, 925.3002
255.8917, 900.9061
256.3738, 887.0555
256.8560, 875.8455
257.3381, 866.9926
257.8202, 860.9202
258.3023, 858.2130
258.7844, 859.2228
259.2665, 862.8776
259.7487, 868.9535
260.2308, 877.4603
260.7129, 888.3068
261.1950, 901.7765
261.6771, 917.1887
262.1592, 933.6722
262.6414, 951.0414
263.1235, 969.5747
263.6056, 989.0256
264.0877, 1009.512
264.5698, 1031.850
265.0519, 1056.306
265.5341, 1082.139
266.0162, 1108.596
266.4983, 1134.993
266.9804, 1163.696
267.4625, 1196.404
267.9446, 1232.756
268.4268, 1267.271
268.9089, 1298.920
269.3910, 1329.352
269.8731, 1360.495
270.3552, 1392.387
270.8373, 1424.116
271.3195, 1456.252
271.8016, 1488.405
272.2837, 1517.922
272.7658, 1545.043
273.2479, 1569.761
273.7300, 1593.543
274.2122, 1617.229
274.6943, 1634.416
275.1764, 1643.403
275.6585, 1644.795
276.1406, 1641.622
276.6227, 1633.951
277.1049, 1621.577
277.5870, 1602.786
278.0691, 1576.910
278.5512, 1552.288
279.0333, 1529.959
279.5154, 1509.931
279.9976, 1491.994
280.4797, 1475.897
280.9618, 1462.964
281.4439, 1453.880
281.9260, 1448.701
282.4081, 1446.565
282.8903, 1447.274
283.3724, 1451.043
283.8545, 1459.137
284.3366, 1471.833
284.8187, 1485.940
285.3008, 1499.251
285.7830, 1512.010
286.2651, 1525.530
286.7472, 1539.872
287.2293, 1555.303
287.7114, 1573.660
288.1935, 1594.893
288.6757, 1613.969
289.1578, 1627.337
289.6399, 1635.858
290.1220, 1643.590
290.6041, 1651.205
291.0862, 1656.790
291.5684, 1658.074
292.0505, 1655.030
292.5326, 1647.651
293.0147, 1636.444
293.4968, 1620.962
293.9789, 1598.572
294.4611, 1568.922
294.9432, 1535.512
295.4253, 1501.691
295.9074, 1467.309
296.3895, 1432.589
296.8716, 1395.310
297.3538, 1357.972
297.8359, 1325.346
298.3180, 1297.192
298.8001, 1272.809
299.2822, 1251.540
299.7643, 1233.174
300.2465, 1217.460
300.7286, 1204.362
301.2107, 1193.828
301.6928, 1185.773
302.1749, 1180.241
302.6570, 1176.826
303.1392, 1175.527
303.6213, 1176.134
304.1034, 1178.255
304.5855, 1181.465
305.0676, 1186.535
305.5497, 1195.810
306.0319, 1208.376
306.5140, 1219.972
306.9961, 1225.546
307.4782, 1229.243
307.9603, 1236.342
308.4424, 1249.199
308.9246, 1263.420
309.4067, 1276.371
309.8888, 1288.005
310.3709, 1298.441
310.8530, 1306.556
311.3351, 1314.013
311.8173, 1322.704
312.2994, 1333.988
312.7815, 1343.509
313.2636, 1347.343
313.7457, 1347.677
314.2278, 1348.446
314.7100, 1353.915
315.1921, 1358.445
315.6742, 1357.988
316.1563, 1351.434
316.6384, 1344.539
317.1205, 1338.946
317.6027, 1334.745
318.0848, 1332.093
318.5669, 1330.960
319.0490, 1331.444
319.5311, 1333.149
320.0132, 1335.995
320.4954, 1341.904
320.9775, 1351.835
321.4596, 1364.791
321.9417, 1379.808
322.4238, 1396.483
322.9059, 1415.404
323.3881, 1436.638
323.8702, 1460.054
324.3523, 1486.170
324.8344, 1514.910
325.3165, 1546.436
325.7986, 1581.092
326.2808, 1620.178
326.7629, 1660.913
327.2450, 1703.702
327.7271, 1748.159
328.2092, 1792.849
328.6913, 1837.140
329.1735, 1882.138
329.6556, 1928.936
330.1377, 1977.760
330.6198, 2028.074
331.1019, 2081.956
331.5840, 2136.525
332.0662, 2187.661
332.5483, 2236.400
333.0304, 2280.457
333.5125, 2318.036
333.9946, 2348.966
334.4767, 2376.768
334.9589, 2402.412
335.4410, 2423.641
335.9231, 2437.693
336.4052, 2444.553
336.8873, 2444.001
337.3694, 2435.866
337.8516, 2420.300
338.3336, 2397.159
338.8158, 2364.779
339.2979, 2328.322
339.7800, 2292.784
340.2621, 2259.526
340.7442, 2219.493
341.2263, 2170.567
341.7085, 2114.704
342.1906, 2060.484
342.6727, 2007.563
343.1548, 1955.525
343.6369, 1903.418
344.1190, 1851.662
344.6012, 1799.708
345.0833, 1747.495
345.5654, 1695.746
346.0475, 1645.042
346.5296, 1595.677
347.0117, 1549.034
347.4939, 1506.809
347.9760, 1468.461
348.4581, 1431.294
348.9402, 1395.084
349.4223, 1361.334
349.9044, 1331.514
350.3866, 1305.044
350.8687, 1279.549
351.3508, 1252.684
351.8329, 1226.584
352.3150, 1204.717
352.7971, 1186.940
353.2793, 1171.216
353.7614, 1155.674
354.2435, 1140.832
354.7256, 1127.335
355.2077, 1114.919
355.6898, 1104.514
356.1720, 1097.956
356.6541, 1094.444
357.1362, 1090.574
357.6183, 1081.843
358.1004, 1073.158
358.5826, 1069.399
359.0647, 1072.980
359.5468, 1077.645
360.0289, 1079.515
360.5110, 1080.127
360.9931, 1082.419
361.4753, 1088.046
361.9574, 1095.203
362.4395, 1102.953
362.9216, 1111.115
363.4037, 1120.470
363.8858, 1130.947
364.3680, 1142.857
364.8501, 1156.584
365.3322, 1173.690
365.8143, 1190.949
366.2964, 1206.972
366.7785, 1221.905
367.2607, 1238.885
367.7428, 1259.175
368.2249, 1281.099
368.7070, 1303.763
369.1891, 1327.314
369.6712, 1351.065
370.1534, 1374.240
370.6355, 1397.659
371.1176, 1424.082
371.5997, 1455.717
372.0818, 1487.484
372.5639, 1517.301
373.0461, 1544.178
373.5282, 1572.857
374.0103, 1604.041
374.4924, 1636.878
374.9745, 1669.789
375.4566, 1703.077
375.9388, 1736.160
376.4209, 1768.547
376.9030, 1800.674
377.3851, 1833.231
377.8672, 1867.702
378.3493, 1899.445
378.8315, 1923.317
379.3136, 1939.473
379.7957, 1952.769
380.2778, 1964.947
380.7599, 1974.218
381.2420, 1975.735
381.7242, 1969.484
382.2063, 1959.633
382.6884, 1948.581
383.1705, 1936.039
383.6526, 1921.141
384.1347, 1903.556
384.6169, 1884.547
385.0990, 1866.309
385.5811, 1848.264
386.0632, 1829.408
386.5453, 1808.234
387.0274, 1786.361
387.5096, 1765.593
387.9917, 1746.077
388.4738, 1729.061
388.9559, 1718.389
389.4380, 1710.431
389.9201, 1700.037
390.4023, 1682.249
390.8844, 1665.617
391.3665, 1656.645
391.8486, 1653.807
392.3307, 1651.817
392.8128, 1646.483
393.2950, 1642.182
393.7771, 1642.117
394.2592, 1647.950
394.7413, 1654.809
395.2234, 1660.153
395.7055, 1665.687
396.1877, 1674.058
396.6698, 1686.924
397.1519, 1701.669
397.6340, 1717.650
398.1161, 1734.816
398.5982, 1753.429
399.0804, 1772.538
399.5625, 1793.752
400.0446, 1818.312
400.5267, 1848.428
401.0088, 1878.867
401.4909, 1908.577
401.9731, 1938.169
402.4552, 1969.493
402.9373, 2002.565
403.4194, 2037.396
403.9015, 2074.276
404.3836, 2113.756
404.8658, 2153.186
405.3479, 2192.145
405.8300, 2231.034
406.3121, 2270.747
406.7942, 2311.231
407.2763, 2352.768
407.7585, 2396.040
408.2406, 2440.637
408.7227, 2482.678
409.2048, 2521.644
409.6869, 2560.636
410.1690, 2605.083
410.6512, 2652.532
411.1333, 2692.385
411.6154, 2721.067
412.0975, 2744.281
412.5796, 2771.768
413.0617, 2802.294
413.5439, 2830.167
414.0260, 2851.164
414.5081, 2868.266
414.9902, 2886.639
415.4723, 2907.319
415.9544, 2923.603
416.4366, 2926.291
416.9187, 2921.750
417.4008, 2919.514
417.8829, 2927.950
418.3650, 2935.613
418.8471, 2935.137
419.3293, 2927.532
419.8114, 2919.008
420.2935, 2913.331
420.7756, 2906.921
421.2577, 2897.648
421.7398, 2885.044
422.2220, 2869.606
422.7041, 2849.615
423.1862, 2827.038
423.6683, 2805.357
424.1504, 2789.073
424.6325, 2769.258
425.1147, 2742.094
425.5968, 2705.872
426.0789, 2675.041
426.5610, 2655.081
427.0431, 2635.527
427.5252, 2607.375
428.0074, 2565.566
428.4895, 2526.988
428.9716, 2494.448
429.4537, 2466.475
429.9358, 2439.513
430.4179, 2414.200
430.9001, 2387.869
431.3822, 2357.967
431.8643, 2324.367
432.3464, 2296.285
432.8285, 2274.460
433.3106, 2255.831
433.7928, 2236.300
434.2749, 2216.228
434.7570, 2198.787
435.2391, 2185.903
435.7212, 2175.509
436.2033, 2162.887
436.6855, 2148.503
437.1676, 2135.824
437.6497, 2127.941
438.1318, 2123.223
438.6139, 2119.612
439.0960, 2117.239
439.5782, 2114.264
440.0603, 2107.058
440.5424, 2098.315
441.0245, 2093.167
441.5066, 2096.238
441.9887, 2101.434
442.4709, 2104.559
442.9530, 2105.656
443.4351, 2109.423
443.9172, 2120.776
444.3993, 2133.575
444.8814, 2143.171
445.3636, 2146.395
445.8457, 2149.677
446.3278, 2152.861
446.8099, 2156.679
447.2920, 2163.129
447.7741, 2175.836
448.2563, 2187.271
448.7384, 2195.396
449.2205, 2200.320
449.7026, 2201.854
450.1847, 2198.787
450.6668, 2193.908
451.1490, 2190.083
451.6311, 2188.164
452.1132, 2183.993
452.5953, 2176.740
453.0774, 2167.030
453.5595, 2155.565
454.0417, 2142.073
454.5238, 2128.858
455.0059, 2118.354
455.4880, 2109.540
455.9701, 2095.971
456.4522, 2077.077
456.9344, 2056.276
457.4165, 2036.220
457.8986, 2017.031
458.3807, 1999.757
458.8628, 1985.078
459.3449, 1971.816
459.8271, 1959.485
460.3092, 1947.596
460.7913, 1933.846
461.2734, 1915.118
461.7555, 1895.096
462.2376, 1876.986
462.7198, 1861.929
463.2019, 1846.255
463.6840, 1828.321
464.1661, 1808.918
464.6482, 1789.005
465.1303, 1766.606
465.6125, 1746.001
466.0946, 1729.179
466.5767, 1715.584
467.0588, 1701.409
467.5409, 1685.379
468.0230, 1669.582
468.5052, 1655.003
468.9873, 1642.255
469.4694, 1629.266
469.9515, 1616.064
470.4336, 1602.684
470.9157, 1588.343
471.3979, 1571.926
471.8800, 1558.929
472.3621, 1551.677
472.8442, 1548.912
473.3263, 1543.885
473.8084, 1536.215
474.2906, 1529.227
474.7727, 1525.960
475.2548, 1525.625
475.7369, 1524.020
476.2190, 1520.226
476.7011, 1517.045
477.1833, 1519.593
477.6654, 1525.657
478.1475, 1529.141
478.6296, 1524.524
479.1117, 1518.188
479.5938, 1517.165
480.0760, 1520.749
480.5581, 1524.204
481.0402, 1525.947
481.5223, 1525.786
482.0044, 1523.275
482.4865, 1517.616
482.9687, 1511.663
483.4508, 1508.662
483.9329, 1505.333
484.4150, 1497.073
484.8971, 1477.763
485.3792, 1458.977
485.8614, 1444.749
486.3435, 1434.504
486.8256, 1419.300
487.3077, 1396.820
487.7898, 1372.340
488.2719, 1348.539
488.7541, 1326.503
489.2362, 1302.967
489.7183, 1277.271
490.2004, 1250.891
490.6825, 1225.562
491.1646, 1201.236
491.6468, 1177.528
492.1289, 1154.159
492.6110, 1131.283
493.0931, 1107.892
493.5752, 1083.898
494.0573, 1060.195
494.5395, 1037.112
495.0216, 1014.672
495.5037, 992.3047
495.9858, 970.3749
496.4679, 948.4426
496.9500, 925.7175
497.4322, 903.0265
497.9143, 882.1511
498.3964, 864.9105
498.8785, 848.6292
499.3606, 832.0928
499.8427, 815.2448
500.3249, 798.9996
500.8070, 784.6204
501.2891, 769.9799
501.7712, 753.8755
502.2533, 735.4187
502.7354, 717.8144
503.2176, 701.5362
503.6997, 686.1990
504.1818, 671.3182
504.6639, 656.0510
505.1460, 642.9520
505.6281, 633.4020
506.1103, 626.0987
506.5924, 615.8656
507.0745, 601.6986
507.5566, 588.1244
508.0387, 577.7689
508.5208, 570.4640
509.0030, 563.0372
509.4851, 555.5566
509.9672, 547.5684
510.4493, 537.8888
510.9314, 527.1912
511.4135, 517.8422
511.8957, 510.9927
512.3778, 504.9695
512.8599, 497.6915
513.3420, 489.6397
513.8242, 482.2383
514.3063, 476.7626
514.7884, 471.7361
515.2705, 465.9484
515.7526, 459.3351
516.2347, 452.9316
516.7169, 447.2333
517.1990, 441.8585
517.6811, 436.4982
518.1632, 430.5011
518.6453, 425.3188
519.1274, 421.5484
519.6096, 418.5772
520.0917, 415.3344
520.5738, 411.4666
521.0559, 407.9356
521.5380, 405.0983
522.0201, 402.9041
522.5023, 400.5482
522.9844, 398.1465
523.4665, 395.2224
523.9486, 390.9509
524.4307, 385.4354
524.9128, 381.3042
525.3950, 378.9454
525.8771, 377.4879
526.3592, 376.1668
526.8413, 374.8712
527.3234, 373.1099
527.8055, 370.2960
528.2877, 367.3441
528.7698, 365.4329
529.2519, 364.3590
529.7340, 363.1855
530.2161, 361.5371
530.6982, 359.4922
531.1804, 356.7859
531.6625, 353.1999
532.1446, 350.4501
532.6267, 349.9998
533.1088, 350.2337
533.5909, 349.6707
534.0731, 346.8029
534.5552, 344.7910
535.0373, 344.4899
535.5194, 345.1008
536.0015, 344.4945
536.4836, 342.0969
536.9658, 339.6301
537.4479, 337.5223
537.9300, 335.7967
538.4121, 335.2609
538.8942, 336.2389
539.3763, 337.0352
539.8585, 335.7564
540.3406, 332.8513
540.8227, 331.1071
541.3048, 331.1117
541.7869, 331.4133
542.2690, 330.0573
542.7512, 327.5651
543.2333, 325.2397
543.7154, 323.3952
544.1975, 322.1273
544.6796, 321.9152
545.1617, 322.4875
545.6439, 322.6552
546.1260, 321.2911
546.6081, 319.8083
547.0902, 319.3791
547.5723, 320.7529
548.0544, 320.5429
548.5366, 316.5056
549.0187, 311.6856
549.5008, 308.7549
549.9829, 308.6061
550.4650, 308.8017
550.9471, 309.5021
551.4293, 310.2398
551.9114, 309.7160
552.3935, 307.6255
552.8756, 305.7656
553.3577, 304.9546
553.8398, 304.9288
554.3220, 304.4235
554.8041, 303.4213
555.2862, 302.3924
555.7683, 301.9518
556.2504, 301.6954
556.7325, 300.5932
557.2147, 298.3258
557.6968, 296.2324
558.1789, 295.5284
558.6610, 295.6974
559.1431, 295.9835
559.6252, 296.3011
560.1074, 296.4878
560.5895, 296.2668
561.0716, 295.8223
561.5537, 295.7737
562.0358, 297.2607
562.5179, 298.1663
563.0001, 297.4050
563.4822, 294.7214
563.9643, 293.2734
564.4464, 293.7197
564.9285, 294.4767
565.4106, 294.2015
565.8928, 292.6223
566.3749, 291.9789
566.8570, 292.7462
567.3391, 293.8166
567.8212, 293.1825
568.3033, 291.1087
568.7855, 289.6119
569.2676, 289.5788
569.7497, 290.2702
570.2318, 290.8096
570.7139, 291.1578
571.1960, 291.1890
571.6782, 290.2392
572.1603, 289.3336
572.6424, 289.4527
573.1245, 290.7408
573.6066, 292.0103
574.0887, 293.2618
574.5709, 294.0494
575.0530, 294.0306
575.5351, 292.4324
576.0172, 291.0493
576.4993, 289.6744
576.9814, 288.6566
577.4636, 288.7262
577.9457, 290.4146
578.4278, 291.7557
578.9099, 292.1392
579.3920, 291.8563
579.8741, 291.9507
580.3563, 292.4276
580.8384, 293.2167
581.3205, 294.5775
581.8026, 296.2115
582.2847, 297.1957
582.7668, 297.5042
583.2490, 297.4105
583.7311, 296.8362
584.2132, 296.1142
584.6953, 295.6234
585.1774, 295.3559
585.6595, 295.5754
586.1416, 297.0209
586.6237, 298.8917
587.1058, 299.9986
587.5880, 299.5660
588.0701, 298.8866
588.5522, 297.7077
589.0343, 296.3665
589.5164, 296.6657
589.9985, 299.8782
590.4807, 302.5667
590.9628, 302.9976
591.4449, 301.1015
591.9270, 300.5276
592.4091, 301.4149
592.8912, 303.0147
593.3734, 305.0910
593.8555, 307.4186
594.3376, 308.8244
594.8197, 309.0414
595.3018, 308.7528
595.7839, 308.5808
596.2661, 308.4590
596.7482, 308.2484
597.2303, 307.4873
597.7124, 307.0529
598.1945, 307.5322
598.6766, 308.7581
599.1588, 310.2483
599.6409, 312.1745
600.1230, 314.0343
600.6051, 315.7112
601.0872, 317.2054
601.5693, 318.2057
602.0515, 318.2429
602.5336, 318.4053
603.0157, 319.5954
603.4978, 322.1558
603.9799, 323.4936
604.4620, 323.3098
604.9442, 322.5621
605.4263, 322.3714
605.9084, 322.6750
606.3905, 323.0235
606.8726, 323.0641
607.3547, 323.5963
607.8369, 326.2695
608.3190, 330.2644
608.8011, 333.5687
609.2832, 334.6632
609.7653, 335.1977
610.2474, 336.1105
610.7296, 337.3835
611.2117, 338.5925
611.6938, 339.6292
612.1759, 340.5754
612.6580, 341.4567
613.1401, 342.2675
613.6223, 343.0397
614.1044, 343.5746
614.5865, 344.3224
615.0686, 346.0340
615.5507, 348.9913
616.0328, 350.1673
616.5150, 348.7947
616.9971, 346.7022
617.4792, 346.8880
617.9613, 348.8761
618.4434, 350.4050
618.9255, 350.3857
619.4077, 349.9583
619.8898, 350.7075
620.3719, 352.1990
620.8540, 353.0706
621.3361, 351.7037
621.8182, 350.3249
622.3004, 350.5918
622.7825, 352.5344
623.2646, 353.4138
623.7467, 351.8426
624.2288, 349.7667
624.7109, 348.0879
625.1931, 346.8091
625.6752, 345.8668
626.1573, 345.1742
626.6394, 344.9330
627.1215, 345.8332
627.6036, 347.9090
628.0858, 348.2728
628.5679, 346.0378
629.0500, 343.0649
629.5321, 342.2686
630.0142, 343.1149
630.4963, 343.9565
630.9785, 344.5071
631.4606, 344.4256
631.9427, 343.1543
632.4248, 340.9633
632.9069, 338.6998
633.3890, 336.3911
633.8712, 334.4148
634.3533, 333.0321
634.8354, 332.2990
635.3175, 331.4513
635.7996, 329.9623
636.2817, 328.9170
636.7639, 329.2690
637.2460, 331.6936
637.7281, 331.7480
638.2102, 328.8614
638.6923, 325.2147
639.1744, 323.2356
639.6566, 322.6800
640.1387, 321.9864
640.6208, 320.8452
641.1029, 319.6151
641.5850, 318.7150
642.0671, 318.0453
642.5493, 317.3826
643.0314, 316.9576
643.5135, 316.2238
643.9956, 314.6877
644.4777, 312.5950
644.9598, 310.6902
645.4420, 308.7278
645.9241, 307.4488
646.4062, 307.3474
646.8883, 308.3511
647.3704, 308.7519
647.8525, 308.4995
648.3347, 307.7455
648.8168, 306.3168
649.2989, 304.2360
649.7810, 302.9727
650.2631, 302.5837
650.7452, 302.5844
651.2274, 302.4041
651.7095, 302.2900
652.1916, 303.1025
652.6737, 305.4352
653.1558, 306.8870
653.6379, 304.2823
654.1201, 300.2082
654.6022, 298.0600
655.0843, 301.3436
655.5664, 303.7527
656.0485, 303.1318
656.5306, 300.7256
657.0128, 299.4108
657.4949, 299.7072
657.9770, 300.1422
658.4591, 300.4745
658.9412, 300.6544
659.4233, 300.2932
659.9055, 299.3174
660.3876, 298.6158
660.8697, 298.9048
661.3518, 299.7813
661.8339, 300.2902
662.3160, 300.4371
662.7982, 300.3850
663.2803, 300.0339
663.7624, 299.6684
664.2445, 299.5727
664.7266, 299.8045
665.2087, 300.1655
665.6909, 300.9060
666.1730, 301.5605
666.6551, 301.7081
667.1372, 300.8898
667.6193, 300.3183
668.1014, 299.8481
668.5836, 299.7797
669.0657, 300.6493
669.5478, 302.5185
670.0299, 304.6264
670.5120, 307.0963
670.9941, 309.2361
671.4763, 309.5698
671.9584, 308.4321
672.4405, 307.1360
672.9226, 305.7100
673.4047, 304.8327
673.8868, 305.3994
674.3690, 307.0823
674.8511, 308.7297
675.3332, 309.7830
675.8153, 310.8150
676.2974, 312.1963
676.7795, 313.9617
677.2617, 315.3160
677.7438, 316.2770
678.2259, 316.8065
678.7080, 316.6474
679.1901, 315.7047
679.6722, 315.8410
680.1544, 317.1954
680.6365, 318.8083
681.1186, 319.9205
681.6007, 320.5967
682.0828, 320.8849
682.5649, 320.6812
683.0471, 320.7311
683.5292, 321.7873
684.0113, 323.3935
684.4934, 324.9806
684.9755, 326.2797
685.4576, 327.7481
685.9398, 330.1208
686.4219, 332.5433
686.9040, 333.5449
687.3861, 331.8500
687.8682, 331.3454
688.3503, 332.9341
688.8325, 335.8760
689.3146, 338.5567
689.7967, 340.9833
690.2788, 342.3866
690.7609, 341.7029
691.2430, 340.3537
691.7252, 341.0519
692.2073, 343.4688
692.6894, 346.0926
693.1715, 348.7833
693.6536, 350.7828
694.1357, 350.8864
694.6179, 349.1878
695.1000, 348.8083
695.5821, 351.4070
696.0642, 354.7266
696.5463, 357.9841
697.0284, 361.3834
697.5106, 363.1573
697.9927, 362.7862
698.4748, 362.0150
698.9569, 362.1322
699.4390, 363.1002
699.9211, 364.7319
700.4033, 367.0784
700.8854, 369.6174
701.3675, 371.9608
701.8496, 374.1131
702.3317, 376.0111
702.8138, 377.4285
703.2960, 379.1107
703.7781, 381.1746
704.2602, 383.8069
704.7423, 387.2356
705.2244, 394.1783
705.7065, 398.2377
706.1887, 397.4866
706.6708, 394.4570
707.1529, 393.7938
707.6350, 395.7806
708.1171, 398.4653
708.5992, 401.5113
709.0814, 404.7579
709.5635, 408.1870
710.0456, 411.6752
710.5277, 414.5698
711.0098, 415.7986
711.4919, 416.8902
711.9741, 419.3787
712.4562, 422.9270
712.9383, 426.2424
713.4204, 428.7578
713.9025, 431.0518
714.3846, 433.5703
714.8668, 436.2954
715.3489, 437.7983
715.8310, 437.1982
716.3131, 437.1753
716.7952, 439.5894
717.2773, 444.1607
717.7595, 446.9268
718.2416, 447.7792
718.7237, 448.4390
719.2058, 450.3779
719.6879, 452.9969
720.1700, 455.3520
720.6522, 457.3646
721.1343, 459.1829
721.6164, 460.1157
722.0985, 461.4006
722.5806, 464.3004
723.0627, 470.3167
723.5449, 474.8041
724.0270, 477.0875
724.5091, 478.2868
724.9912, 479.1676
725.4733, 479.5158
725.9554, 481.1039
726.4376, 484.3887
726.9197, 488.0330
727.4018, 489.9861
727.8839, 490.7401
728.3660, 491.7902
728.8481, 493.4706
729.3303, 495.7246
729.8124, 499.4062
730.2945, 503.3788
730.7766, 505.8711
731.2587, 504.4694
731.7408, 503.7767
732.2230, 505.1762
732.7051, 507.8558
733.1872, 510.3585
733.6693, 512.4268
734.1514, 515.0848
734.6335, 518.9151
735.1157, 523.1642
735.5978, 525.7174
736.0799, 526.7491
736.5620, 527.7119
737.0441, 529.3568
737.5262, 531.2217
738.0084, 532.7997
738.4905, 534.1642
738.9726, 535.5605
739.4547, 536.5604
739.9368, 538.1259
740.4189, 541.1932
740.9011, 545.6171
741.3832, 548.5830
741.8653, 549.1528
742.3474, 550.0123
742.8295, 552.5079
743.3116, 556.3389
743.7938, 558.8070
744.2759, 559.8633
744.7580, 561.0511
745.2401, 563.3292
745.7222, 566.4462
746.2043, 570.2699
746.6865, 574.7697
747.1686, 579.1981
747.6507, 583.3033
748.1328, 587.1400
748.6149, 590.7584
749.0970, 594.0831
749.5792, 597.2612
750.0613, 600.2274
750.5434, 603.1545
751.0255, 606.0101
751.5076, 608.6766
751.9897, 612.5731
752.4719, 617.9293
752.9540, 623.4384
753.4361, 627.8318
753.9182, 631.5864
754.4003, 635.6330
754.8824, 639.9998
755.3646, 645.1412
755.8467, 652.3112
756.3288, 659.8459
756.8109, 665.7504
757.2930, 667.6862
757.7751, 672.5643
758.2573, 682.5202
758.7394, 693.8735
759.2215, 702.9561
759.7036, 709.4036
760.1857, 716.8151
760.6678, 725.5422
761.1500, 734.8627
761.6321, 743.2843
762.1142, 751.4293
762.5963, 761.0756
763.0784, 772.8277
763.5605, 785.4601
764.0427, 798.4869
764.5248, 811.7343
765.0069, 824.9865
765.4890, 838.7737
765.9711, 851.6517
766.4532, 862.7025
766.9354, 873.5002
767.4175, 886.5511
767.8996, 902.2556
768.3817, 917.7833
768.8638, 932.1761
769.3459, 947.4626
769.8281, 968.0465
770.3102, 992.0861
770.7923, 1013.855
771.2744, 1029.220
771.7565, 1045.204
772.2386, 1066.866
772.7208, 1092.565
773.2029, 1119.441
773.6850, 1148.387
774.1671, 1176.341
774.6492, 1200.836
775.1313, 1225.027
775.6135, 1256.644
776.0956, 1296.497
776.5777, 1335.646
777.0598, 1370.928
777.5419, 1405.442
778.0240, 1443.794
778.5062, 1486.469
778.9883, 1535.193
779.4704, 1591.435
779.9525, 1652.545
780.4346, 1717.339
780.9167, 1785.425
781.3989, 1857.352
781.8810, 1931.833
782.3631, 2012.444
782.8452, 2099.619
783.3273, 2192.515
783.8094, 2289.513
784.2916, 2390.698
784.7737, 2499.433
785.2558, 2618.789
785.7379, 2746.205
786.2200, 2874.727
786.7021, 3006.934
787.1843, 3144.054
787.6664, 3287.948
788.1485, 3439.662
788.6306, 3598.590
789.1127, 3765.693
789.5948, 3938.569
790.0770, 4116.751
790.5591, 4303.688
791.0412, 4499.744
791.5233, 4704.610
792.0054, 4922.307
792.4875, 5151.091
792.9697, 5390.816
793.4518, 5641.626
793.9339, 5900.266
794.4160, 6160.487
794.8981, 6420.892
795.3802, 6676.952
795.8624, 6934.780
796.3445, 7179.500
796.8266, 7406.532
797.3087, 7612.008
797.7908, 7789.778
798.2729, 7941.654
798.7551, 8060.613
799.2372, 8145.661
799.7193, 8198.191
800.2014, 8223.529
800.6835, 8221.981
801.1656, 8195.963
801.6478, 8139.623
802.1299, 8064.822
802.6120, 7976.111
803.0941, 7879.142
803.5762, 7790.300
804.0583, 7723.142
804.5405, 7659.117
805.0226, 7589.999
805.5047, 7517.866
805.9868, 7452.372
806.4689, 7396.200
806.9510, 7340.006
807.4332, 7281.118
807.9153, 7219.693
808.3974, 7161.380
808.8795, 7104.058
809.3616, 7035.177
809.8438, 6948.008
810.3259, 6847.836
810.8080, 6740.781
811.2901, 6625.224
811.7722, 6492.563
812.2543, 6333.153
812.7365, 6164.163
813.2186, 5987.653
813.7007, 5804.698
814.1828, 5622.897
814.6649, 5441.454
815.1470, 5259.511
815.6292, 5077.137
816.1113, 4896.275
816.5934, 4721.265
817.0755, 4551.313
817.5576, 4386.798
818.0397, 4227.016
818.5219, 4073.794
819.0040, 3925.200
819.4861, 3783.488
819.9682, 3659.080
820.4503, 3554.939
820.9324, 3460.138
821.4146, 3374.491
821.8967, 3297.282
822.3788, 3227.829
822.8609, 3166.818
823.3430, 3116.233
823.8251, 3078.062
824.3073, 3049.092
824.7894, 3025.214
825.2715, 3007.297
825.7536, 2996.114
826.2357, 2997.441
826.7178, 2999.517
827.2000, 2998.761
827.6821, 2996.639
828.1642, 2997.299
828.6463, 3004.137
829.1284, 3002.090
829.6105, 2989.084
830.0927, 2963.990
830.5748, 2924.490
831.0569, 2870.846
831.5390, 2803.436
832.0211, 2718.804
832.5032, 2624.759
832.9854, 2524.461
833.4675, 2419.365
833.9496, 2313.865
834.4317, 2207.836
834.9138, 2102.398
835.3959, 1995.511
835.8781, 1892.637
836.3602, 1800.235
836.8423, 1719.423
837.3244, 1647.356
837.8065, 1584.445
838.2886, 1527.335
838.7708, 1470.210
839.2529, 1416.079
839.7350, 1369.753
840.2171, 1334.435
840.6992, 1303.034
841.1813, 1273.853
841.6635, 1246.982
842.1456, 1222.024
842.6277, 1198.882
843.1098, 1178.535
843.5919, 1161.268
844.0740, 1146.144
844.5562, 1132.012
845.0383, 1119.239
845.5204, 1109.448
846.0025, 1103.146
846.4846, 1097.977
846.9667, 1092.338
847.4489, 1086.953
847.9310, 1082.380
848.4131, 1078.126
848.8952, 1076.545
849.3773, 1078.874
849.8594, 1082.091
850.3416, 1083.478
850.8237, 1083.129
851.3058, 1085.364
851.7879, 1090.476
852.2700, 1096.269
852.7521, 1100.971
853.2343, 1105.391
853.7164, 1110.029
854.1985, 1114.858
854.6806, 1121.778
855.1627, 1131.958
855.6448, 1144.069
856.1270, 1157.643
856.6091, 1172.766
857.0912, 1187.437
857.5733, 1201.435
858.0554, 1215.452
858.5375, 1229.482
859.0197, 1243.952
859.5018, 1259.800
859.9839, 1276.964
860.4660, 1295.513
860.9481, 1316.362
861.4302, 1337.749
861.9124, 1359.362
862.3945, 1380.862
862.8766, 1401.508
863.3587, 1420.609
863.8408, 1439.608
864.3229, 1458.702
864.8051, 1478.050
865.2872, 1497.458
865.7693, 1517.107
866.2514, 1537.145
866.7335, 1558.767
867.2156, 1579.472
867.6978, 1597.267
868.1799, 1612.365
868.6620, 1625.522
869.1441, 1633.547
869.6262, 1643.923
870.1083, 1658.866
870.5905, 1675.898
871.0726, 1689.364
871.5547, 1699.555
872.0368, 1711.742
872.5189, 1728.023
873.0010, 1744.535
873.4832, 1756.572
873.9653, 1766.059
874.4474, 1775.873
874.9295, 1785.468
875.4116, 1797.962
875.8937, 1815.437
876.3759, 1835.301
876.8580, 1855.064
877.3401, 1874.485
877.8222, 1895.063
878.3043, 1916.994
878.7864, 1939.898
879.2686, 1963.828
879.7507, 1988.593
880.2328, 2013.176
880.7149, 2037.102
881.1970, 2064.395
881.6791, 2100.200
882.1613, 2137.655
882.6434, 2171.850
883.1255, 2201.880
883.6076, 2235.008
884.0897, 2271.593
884.5718, 2310.219
885.0540, 2351.871
885.5361, 2394.970
886.0182, 2432.898
886.5003, 2466.155
886.9824, 2496.547
887.4645, 2525.082
887.9467, 2551.126
888.4288, 2574.869
888.9109, 2595.724
889.3930, 2612.533
889.8751, 2627.434
890.3572, 2633.341
890.8394, 2627.043
891.3215, 2610.930
891.8036, 2591.939
892.2857, 2569.544
892.7678, 2539.792
893.2499, 2500.261
893.7321, 2454.123
894.2142, 2401.054
894.6963, 2343.076
895.1784, 2284.906
895.6605, 2228.224
896.1426, 2169.087
896.6248, 2105.538
897.1069, 2040.440
897.5890, 1977.222
898.0711, 1915.507
898.5532, 1857.246
899.0353, 1802.448
899.5175, 1750.023
899.9996, 1697.172
900.4817, 1645.909
900.9638, 1599.416
901.4459, 1558.698
901.9280, 1519.300
902.4102, 1479.362
902.8923, 1441.340
903.3744, 1406.981
903.8565, 1376.040
904.3386, 1347.564
904.8207, 1321.927
905.3029, 1297.108
905.7850, 1273.354
906.2671, 1248.964
906.7492, 1221.690
907.2313, 1191.606
907.7134, 1160.107
908.1956, 1125.787
908.6777, 1092.185
909.1598, 1060.914
909.6419, 1031.315
910.1240, 999.9241
910.6061, 966.8419
911.0883, 933.6434
911.5704, 900.1624
912.0525, 868.3879
912.5346, 841.2422
913.0167, 817.3100
913.4988, 793.5238
913.9810, 768.4567
914.4631, 743.8806
914.9452, 719.5704
915.4273, 696.2631
915.9094, 674.8815
916.3915, 655.5953
916.8737, 638.5026
917.3558, 623.8800
917.8379, 610.2919
918.3200, 595.4009
918.8021, 580.7728
919.2842, 569.2610
919.7664, 562.4506
920.2485, 554.2906
920.7306, 541.3534
921.2127, 527.7883
921.6948, 516.0876
922.1769, 506.2670
922.6591, 497.1895
923.1412, 488.8078
923.6233, 481.3570
924.1054, 475.5477
924.5875, 470.3664
925.0696, 464.2595
925.5518, 457.3305
926.0339, 450.3493
926.5160, 444.0768
926.9981, 437.3353
927.4802, 429.4789
927.9623, 421.0282
928.4445, 413.3642
928.9266, 406.4661
929.4087, 400.4446
929.8908, 395.5618
930.3729, 390.9376
930.8550, 385.0530
931.3372, 378.5970
931.8193, 372.9455
932.3014, 368.8381
932.7835, 364.9383
933.2656, 361.0295
933.7477, 357.0925
934.2299, 352.9417
934.7120, 348.5169
935.1941, 344.8039
935.6762, 341.9455
936.1583, 339.0951
936.6404, 335.2187
937.1226, 331.0463
937.6047, 327.5510
938.0868, 324.8237
938.5689, 322.5332
939.0510, 321.2502
939.5331, 319.6391
940.0153, 316.9601
940.4974, 313.4526
940.9795, 310.8035
941.4616, 309.0010
941.9437, 307.3146
942.4258, 305.4741
942.9080, 303.5282
943.3901, 301.7681
943.8722, 299.9554
944.3543, 297.5769
944.8364, 293.2445
945.3185, 290.0221
945.8007, 288.5665
946.2828, 288.1692
946.7649, 288.4463
947.2470, 289.3343
947.7291, 287.7002
948.2112, 282.7674
948.6934, 277.9875
949.1755, 277.2192
949.6576, 278.0172
950.1397, 277.7467
950.6218, 275.9334
951.1039, 273.5897
951.5861, 269.8992
952.0682, 267.1255
952.5503, 266.8631
953.0324, 268.5795
953.5145, 268.3641
953.9966, 266.3719
954.4788, 264.4966
954.9609, 264.4028
955.4430, 264.3187
955.9251, 262.3118
956.4072, 259.2093
956.8893, 257.2956
957.3715, 258.0640
957.8536, 257.9484
958.3357, 256.1619
958.8178, 253.8222
959.2999, 252.6686
959.7820, 252.5249
960.2642, 252.7655
960.7463, 253.3955
961.2284, 253.6535
961.7105, 253.0816
962.1926, 251.8288
962.6747, 249.6798
963.1569, 246.1246
963.6390, 244.5589
964.1211, 245.7397
964.6032, 246.8193
965.0853, 245.8927
965.5674, 243.5778
966.0496, 241.3755
966.5317, 239.3571
967.0138, 237.7595
967.4959, 236.4924
967.9780, 235.9327
968.4601, 237.0706
968.9423, 238.9110
969.4244, 239.1242
969.9065, 237.3230
970.3886, 235.4967
970.8707, 233.9069
971.3528, 232.5833
971.8350, 231.2129
972.3171, 230.2219
972.7992, 230.6487
973.2813, 233.1313
973.7634, 234.9063
974.2455, 234.7462
974.7277, 233.6728
975.2098, 231.9750
975.6919, 229.6265
976.1740, 229.0776
976.6561, 230.4172
977.1382, 231.6001
977.6204, 231.0750
978.1025, 229.9082
978.5846, 229.3157
979.0667, 229.1564
979.5488, 228.9739
980.0309, 228.2642
980.5131, 228.0892
980.9952, 228.9674
981.4773, 230.0796
981.9594, 230.0424
982.4415, 228.9537
982.9236, 227.4302
983.4058, 225.4790
983.8879, 223.8930
984.3700, 223.7716
984.8521, 224.0607
985.3342, 223.7046
985.8163, 222.3701
986.2985, 221.4165
986.7806, 220.7908
987.2627, 220.7366
987.7448, 221.8327
988.2269, 223.4167
988.7090, 223.1675
989.1912, 221.4791
989.6733, 219.9883
990.1554, 219.8923
990.6375, 219.7777
991.1196, 218.4283
991.6017, 216.8520
992.0839, 216.8839
992.5660, 218.9420
993.0481, 220.8954
993.5302, 222.6455
994.0123, 223.6822
994.4944, 222.8896
994.9766, 221.2470
995.4587, 220.3118
995.9408, 220.3364
996.4229, 220.2140
996.9050, 218.7834
997.3871, 218.0398
997.8693, 219.2219
998.3514, 221.8274
998.8335, 222.4807
999.3156, 221.3107
999.7977, 220.6740
1000.280, 222.4848
1000.762, 224.0974
1001.244, 222.0354
1001.726, 218.3673
1002.208, 216.6157
1002.690, 219.2279
1003.173, 220.5599
1003.655, 219.8755
1004.137, 219.0573
1004.619, 220.8522
1005.101, 224.1179
1005.583, 224.2159
1006.065, 221.0253
1006.547, 218.3119
1007.029, 218.7788
1007.512, 219.9086
1007.994, 220.1317
1008.476, 219.7258
1008.958, 220.2240
1009.440, 221.8326
1009.922, 223.0013
1010.404, 223.1251
1010.886, 222.9030
1011.369, 223.2268
1011.851, 223.9229
1012.333, 224.7721
1012.815, 226.0847
1013.297, 226.6512
1013.779, 225.7983
1014.261, 224.7583
1014.743, 224.3758
1015.225, 224.6183
1015.708, 225.0806
1016.190, 225.7174
1016.672, 225.7563
1017.154, 223.7383
1017.636, 221.8216
1018.118, 222.0686
1018.600, 223.7085
1019.082, 224.0316
1019.565, 222.2078
1020.047, 220.9619
1020.529, 220.8039
1021.011, 221.1499
1021.493, 221.6224
1021.975, 221.8834
1022.457, 220.8149
1022.939, 217.9641
1023.421, 216.2120
1023.904, 218.7325
1024.386, 220.7227
1024.868, 219.1663
1025.350, 214.6646
1025.832, 213.1066
1026.314, 214.4613
1026.796, 215.9459
1027.278, 216.4704
1027.760, 216.2909
1028.243, 215.0604
1028.725, 213.4890
1029.207, 212.7940
1029.689, 214.2358
1030.171, 214.7076
1030.653, 213.7295
1031.135, 212.7017
1031.617, 213.7582
1032.100, 215.7633
1032.582, 214.6861
1033.064, 210.6527
1033.546, 207.6812
1034.028, 208.7537
1034.510, 210.5118
1034.992, 211.5114
1035.474, 211.9520
1035.957, 212.3250
1036.439, 212.6178
1036.921, 213.2373
1037.403, 214.4399
1037.885, 215.4546
1038.367, 215.1626
1038.849, 214.2872
1039.331, 213.7512
1039.813, 213.8249
1040.296, 213.6815
1040.778, 213.0846
1041.260, 212.6481
1041.742, 212.8100
1042.224, 213.3570
1042.706, 213.6473
1043.188, 213.6823
1043.670, 213.4841
1044.152, 212.0110
1044.635, 211.5250
1045.117, 214.0509
1045.599, 217.5050
1046.081, 219.1105
1046.563, 218.5867
1047.045, 218.7909
1047.527, 220.0114
1048.009, 220.8154
1048.492, 219.4309
1048.974, 217.3127
1049.456, 215.7598
1049.938, 214.8808
1050.420, 214.8326
1050.902, 216.1043
1051.384, 217.1767
1051.866, 217.7621
1052.349, 217.8342
1052.831, 217.0528
1053.313, 215.7301
1053.795, 214.7959
1054.277, 214.6256
1054.759, 214.2433
1055.241, 213.0005
1055.723, 211.5374
1056.205, 210.0308
1056.688, 208.5146
1057.170, 208.8475
1057.652, 211.0332
1058.134, 212.6606
1058.616, 212.1539
1059.098, 210.8872
1059.580, 210.0020
1060.062, 209.3080
1060.544, 208.4022
1061.027, 206.5709
1061.509, 206.0255
1061.991, 207.2130
1062.473, 208.6527
1062.955, 208.9085
1063.437, 208.3538
1063.919, 207.6974
1064.401, 206.9980
1064.884, 206.2992
1065.366, 205.8653
1065.848, 205.1130
1066.330, 203.6937
1066.812, 202.0013
1067.294, 200.8392
1067.776, 200.2080
1068.258, 200.1063
1068.740, 200.6245
1069.223, 201.1726
1069.705, 201.1442
1070.187, 201.0439
1070.669, 201.4705
1071.151, 202.4961
1071.633, 202.6676
1072.115, 201.7740
1072.597, 201.1095
1073.079, 201.5510
1073.562, 202.1294
1074.044, 200.9885
1074.526, 198.9879
1075.008, 197.7232
1075.490, 198.2240
1075.972, 198.5187
1076.454, 198.4631
1076.936, 198.1361
1077.419, 197.3681
1077.901, 196.3593
1078.383, 196.1178
1078.865, 196.5670
1079.347, 197.1120
1079.829, 197.7600
1080.311, 198.0553
1080.793, 197.4832
1081.275, 196.5561
1081.758, 196.0959
1082.240, 196.1296
1082.722, 196.0107
1083.204, 195.6412
1083.686, 195.2913
1084.168, 195.1721
1084.650, 195.1997
1085.132, 195.3340
1085.615, 195.5672
1086.097, 195.8005
1086.579, 196.1268
1087.061, 196.1488
1087.543, 195.6775
1088.025, 195.0248
1088.507, 194.7657
1088.989, 194.6710
1089.471, 194.2757
1089.953, 193.3417
1090.436, 192.6252
1090.918, 192.2851
1091.400, 192.2170
1091.882, 192.5799
1092.364, 193.1353
1092.846, 192.4825
1093.328, 190.9246
1093.810, 189.8963
1094.293, 190.4542
1094.775, 191.1387
1095.257, 191.1589
1095.739, 191.0350
1096.221, 191.3267
1096.703, 192.0782
1097.185, 193.0714
1097.667, 194.3299
1098.150, 194.9895
1098.632, 193.6242
1099.114, 192.0612
1099.596, 192.1905
1100.078, 193.4272
1100.560, 193.6687
1101.042, 192.2389
1101.524, 191.6228
1102.006, 192.3463
1102.489, 193.2140
1102.971, 192.9190
1103.453, 191.8533
1103.935, 190.2749
1104.417, 188.2585
1104.899, 187.2488
1105.381, 188.3525
1105.863, 189.3892
1106.345, 189.8772
1106.828, 189.8770
1107.310, 189.0279
1107.792, 187.7940
1108.274, 187.7351
1108.756, 189.4317
1109.238, 191.2742
1109.720, 193.2097
1110.202, 194.2634
1110.685, 193.5615
1111.167, 191.4469
1111.649, 190.4576
1112.131, 190.5467
1112.613, 191.3914
1113.095, 193.7209
1113.577, 195.2359
1114.059, 193.1765
1114.542, 190.0029
1115.024, 188.7342
1115.506, 189.9165
1115.988, 190.4364
1116.470, 190.2293
1116.952, 190.0059
1117.434, 190.3116
1117.916, 190.7959
1118.398, 191.1931
1118.880, 191.4545
1119.363, 191.4774
1119.845, 191.4521
1120.327, 190.5893
1120.809, 188.5038
1121.291, 186.6534
1121.773, 187.0722
1122.255, 188.4638
1122.737, 188.2533
1123.220, 186.6247
1123.702, 185.7062
1124.184, 187.2246
1124.666, 188.1031
1125.148, 187.5775
1125.630, 186.5102
1126.112, 186.2975
1126.594, 186.6902
1127.077, 186.9848
1127.559, 187.0883
1128.041, 186.9563
1128.523, 186.5221
1129.005, 185.8539
1129.487, 184.7197
1129.969, 183.5171
1130.451, 183.5559
1130.933, 184.7231
1131.416, 186.3369
1131.898, 188.5319
1132.380, 189.8769
1132.862, 186.9624
1133.344, 184.9163
1133.826, 189.5243
1134.308, 200.0779
1134.790, 201.5207
1135.272, 193.6042
1135.755, 186.9893
1136.237, 186.6884
1136.719, 188.1469
1137.201, 187.3845
1137.683, 185.7175
1138.165, 184.8689
1138.647, 185.1367
1139.129, 185.4696
1139.612, 185.9094
1140.094, 186.1476
1140.576, 185.9476
1141.058, 185.4729
1141.540, 184.8023
1142.022, 184.0368
1142.504, 183.3716
1142.986, 182.5489
1143.469, 182.5277
1143.951, 183.5926
1144.433, 184.6602
1144.915, 184.8243
1145.397, 184.3417
1145.879, 183.2241
1146.361, 181.8045
1146.843, 181.3473
1147.325, 183.3493
1147.807, 184.8072
1148.290, 185.3443
1148.772, 185.2469
1149.254, 184.7929
1149.736, 183.9955
1150.218, 182.5312
1150.700, 180.4985
1151.182, 179.3586
1151.664, 180.5054
1152.147, 181.7183
1152.629, 182.4283
1153.111, 182.7809
1153.593, 182.9462
1154.075, 182.9690
1154.557, 183.0636
1155.039, 183.2705
1155.521, 183.3897
1156.004, 183.2446
1156.486, 183.0506
1156.968, 182.8627
1157.450, 182.7301
1157.932, 182.9209
1158.414, 183.3575
1158.896, 183.4824
1159.378, 183.1556
1159.860, 182.5225
1160.343, 181.0860
1160.825, 179.9381
1161.307, 180.0278
1161.789, 181.1243
1162.271, 181.3938
1162.753, 180.8712
1163.235, 180.3348
1163.717, 179.9688
1164.199, 179.9018
1164.682, 180.5413
1165.164, 181.3222
1165.646, 181.6993
1166.128, 181.6583
1166.610, 181.3253
1167.092, 180.6910
1167.574, 180.0299
1168.056, 179.2777
1168.539, 178.8599
1169.021, 179.4615
1169.503, 180.4947
1169.985, 181.1345
1170.467, 181.2663
1170.949, 181.3788
1171.431, 181.4904
1171.913, 181.4363
1172.396, 180.9583
1172.878, 180.4043
1173.360, 180.0708
1173.842, 179.9442
1174.324, 179.9874
1174.806, 180.0662
1175.288, 180.7078
1175.770, 182.0243
1176.252, 183.3479
1176.734, 184.3934
1177.217, 184.9649
1177.699, 184.6537
1178.181, 183.6541
1178.663, 182.4803
1179.145, 180.8510
1179.627, 179.9394
1180.109, 179.8822
1180.591, 180.3334
1181.074, 181.1549
1181.556, 182.1587
1182.038, 183.3395
1182.520, 184.5302
1183.002, 184.9534
1183.484, 184.2018
1183.966, 183.2643
1184.448, 182.0628
1184.931, 181.3138
1185.413, 182.4035
1185.895, 184.1959
1186.377, 184.6613
1186.859, 183.8654
1187.341, 183.5888
1187.823, 184.7115
1188.305, 185.2122
1188.787, 184.5441
1189.270, 183.5261
1189.752, 183.1326
1190.234, 183.2430
1190.716, 183.8555
1191.198, 184.9305
1191.680, 185.5024
1192.162, 185.2768
1192.644, 184.6868
1193.126, 183.6967
1193.609, 182.6591
1194.091, 182.1942
1194.573, 182.0872
1195.055, 181.6922
1195.537, 180.8484
1196.019, 181.4682
1196.501, 185.6894
1196.983, 188.1422
1197.466, 186.6291
1197.948, 183.5024
1198.430, 183.0683
1198.912, 184.2550
1199.394, 184.9868
1199.876, 184.8356
1200.358, 184.4045
1200.840, 183.4639
1201.323, 182.8998
1201.805, 183.0668
1202.287, 183.7509
1202.769, 185.1345
1203.251, 186.5542
1203.733, 186.2071
1204.215, 182.9652
1204.697, 181.5464
1205.179, 183.7855
1205.661, 185.8350
1206.144, 185.8597
1206.626, 184.7907
1207.108, 184.6717
1207.590, 185.1113
1208.072, 185.2169
1208.554, 184.5511
1209.036, 184.2873
1209.518, 184.9979
1210.001, 185.2618
1210.483, 183.9062
1210.965, 182.0389
1211.447, 182.9073
1211.929, 185.2839
1212.411, 186.3891
1212.893, 184.6687
1213.375, 183.7382
1213.858, 184.4114
1214.340, 185.0385
1214.822, 184.4861
1215.304, 183.4082
1215.786, 183.6143
1216.268, 184.5101
1216.750, 184.7332
1217.232, 183.4807
1217.714, 182.3497
1218.197, 181.3211
1218.679, 180.7623
1219.161, 181.1919
1219.643, 182.0447
1220.125, 181.8431
1220.607, 181.1292
1221.089, 181.2239
1221.571, 183.9721
1222.053, 184.5347
1222.536, 181.9507
1223.018, 179.1406
1223.500, 177.7508
1223.982, 177.6447
1224.464, 179.4090
1224.946, 182.1525
1225.428, 183.8515
1225.910, 183.5931
1226.393, 182.4915
1226.875, 180.1329
1227.357, 178.2846
1227.839, 178.6032
1228.321, 180.0377
1228.803, 181.0285
1229.285, 181.7100
1229.767, 182.4044
1230.250, 183.3949
1230.732, 183.9446
1231.214, 183.9998
1231.696, 183.7906
1232.178, 183.3579
1232.660, 182.8693
1233.142, 182.5039
1233.624, 182.2755
1234.106, 182.2424
1234.589, 182.5733
1235.071, 182.5838
1235.553, 182.1620
1236.035, 181.9472
1236.517, 182.7782
1236.999, 183.8004
1237.481, 184.1882
1237.963, 183.9638
1238.445, 183.1046
1238.928, 181.3144
1239.410, 180.0505
1239.892, 179.3752
1240.374, 178.9940
1240.856, 178.7229
1241.338, 178.6014
1241.820, 178.6975
1242.302, 178.9671
1242.785, 179.3625
1243.267, 179.9965
1243.749, 179.9105
1244.231, 179.0125
1244.713, 178.7737
1245.195, 181.3804
1245.677, 183.9226
1246.159, 183.9476
1246.641, 182.4524
1247.124, 181.3156
1247.606, 180.5425
1248.088, 180.1152
1248.570, 180.0352
1249.052, 180.1354
1249.534, 180.3420
1250.016, 180.6532
1250.498, 181.2878
1250.980, 181.8865
1251.463, 181.9358
1251.945, 181.4420
1252.427, 180.9897
1252.909, 180.5977
1253.391, 180.1772
1253.873, 179.2872
1254.355, 178.8488
1254.837, 179.8233
1255.320, 180.9705
1255.802, 180.7588
1256.284, 179.4326
1256.766, 178.3307
1257.248, 177.5567
1257.730, 177.3635
1258.212, 178.5636
1258.694, 179.4265
1259.177, 179.3408
1259.659, 178.9979
1260.141, 179.2070
1260.623, 179.7390
1261.105, 179.6640
1261.587, 179.1257
1262.069, 178.9428
1262.551, 180.3370
1263.033, 180.6798
1263.516, 179.3055
1263.998, 177.6024
1264.480, 176.8078
1264.962, 176.7238
1265.444, 177.2088
1265.926, 178.0609
1266.408, 178.6214
1266.890, 178.7527
1267.372, 178.4135
1267.855, 177.4204
1268.337, 176.5839
1268.819, 176.6534
1269.301, 177.2656
1269.783, 177.9279
1270.265, 178.7076
1270.747, 179.9253
1271.229, 181.9121
1271.712, 183.4409
1272.194, 184.5499
1272.676, 184.4928
1273.158, 181.0811
1273.640, 177.7283
1274.122, 178.1798
1274.604, 180.8273
1275.086, 182.4425
1275.568, 182.8384
1276.051, 182.9786
1276.533, 182.8908
1277.015, 182.5063
1277.497, 181.1576
1277.979, 180.1869
1278.461, 180.7649
1278.943, 181.9867
1279.425, 182.8641
1279.907, 183.4000
1280.390, 182.9995
1280.872, 181.8154
1281.354, 181.1256
1281.836, 182.3136
1282.318, 183.2202
1282.800, 182.7966
1283.282, 182.1111
1283.764, 182.0521
1284.247, 182.5131
1284.729, 183.1255
1285.211, 183.7962
1285.693, 184.1826
1286.175, 184.1997
1286.657, 183.7530
1287.139, 182.6244
1287.621, 181.5420
1288.104, 181.0818
1288.586, 181.0494
1289.068, 180.9758
1289.550, 180.9914
1290.032, 181.4255
1290.514, 183.1291
1290.996, 183.6435
1291.478, 182.7636
1291.960, 181.5200
1292.443, 180.0188
1292.925, 179.0773
1293.407, 180.5004
1293.889, 182.8539
1294.371, 183.6340
1294.853, 182.4363
1295.335, 181.4010
1295.817, 180.5133
1296.299, 180.1100
1296.782, 180.5294
1297.264, 181.2244
1297.746, 182.1073
1298.228, 182.7987
1298.710, 182.9460
1299.192, 182.5825
1299.674, 182.0324
1300.156, 181.3491
1300.639, 180.7798
1301.121, 180.1699
1301.603, 180.2835
1302.085, 182.3636
1302.567, 184.4074
1303.049, 185.5212
1303.531, 185.6642
##END=



