##NAMES=Scorodite
##RRUFFID=R050465
##IDEAL CHEMISTRY=Fe^3+^As^5+^O_4_&#183;2H_2_O
##LOCALITY=Minas Gerais, Brazil
##OWNER=RRUFF
##SOURCE=University of Arizona Mineral Museum
##DESCRIPTION=Group of blue prismatic to tabular crystals displaying many modifying forms
##STATUS=The identification of this mineral has been confirmed by X-ray diffraction and chemical analysis
##URL=rruff.info/R050465
##MEASURED CHEMISTRY=Fe^3+^_1.00_As_1.00_O_4_Â·2H_2_O
93.78320, 281.2452
94.26532, 271.8044
94.74744, 275.8871
95.22955, 292.8744
95.71167, 310.8632
96.19379, 308.1888
96.67590, 281.2978
97.15802, 252.0366
97.64014, 219.8909
98.12225, 187.8680
98.60437, 161.0999
99.08649, 141.4408
99.56860, 127.8625
100.0507, 117.8769
100.5328, 111.3350
101.0150, 106.7532
101.4971, 103.4795
101.9792, 101.5015
102.4613, 100.0398
102.9434, 98.64482
103.4255, 97.69599
103.9077, 97.56998
104.3898, 98.40486
104.8719, 99.99669
105.3540, 102.1039
105.8361, 105.4908
106.3182, 108.0300
106.8004, 109.4082
107.2825, 109.8064
107.7646, 109.3429
108.2467, 108.0215
108.7288, 105.9143
109.2109, 104.0187
109.6931, 102.1543
110.1752, 100.6461
110.6573, 99.46685
111.1394, 98.69604
111.6215, 98.50717
112.1036, 99.07035
112.5858, 100.4960
113.0679, 102.2883
113.5500, 104.4216
114.0321, 106.8767
114.5142, 109.5855
114.9964, 112.5377
115.4785, 115.9076
115.9606, 120.0870
116.4427, 125.0167
116.9248, 129.9018
117.4069, 135.5603
117.8891, 140.9774
118.3712, 144.1039
118.8533, 144.3714
119.3354, 142.1891
119.8175, 137.7762
120.2996, 131.3101
120.7818, 124.7040
121.2639, 119.2540
121.7460, 114.9840
122.2281, 111.1816
122.7102, 107.5441
123.1923, 104.5394
123.6745, 102.5994
124.1566, 101.7635
124.6387, 101.6098
125.1208, 101.5289
125.6029, 101.3826
126.0850, 101.6517
126.5672, 102.4656
127.0493, 103.5623
127.5314, 104.7063
128.0135, 105.8122
128.4956, 106.9724
128.9777, 108.4840
129.4599, 110.8382
129.9420, 113.0061
130.4241, 115.1412
130.9062, 117.0169
131.3883, 118.2975
131.8705, 118.7811
132.3526, 118.5443
132.8347, 118.0433
133.3168, 117.0238
133.7989, 116.0563
134.2810, 115.2924
134.7632, 114.7505
135.2453, 114.5183
135.7274, 114.7706
136.2095, 115.3849
136.6916, 115.8513
137.1737, 116.4172
137.6559, 116.6624
138.1380, 115.9431
138.6201, 114.0414
139.1022, 112.1963
139.5843, 111.1950
140.0664, 110.7582
140.5486, 110.6102
141.0307, 110.7335
141.5128, 111.0510
141.9949, 111.3604
142.4770, 111.7615
142.9591, 111.9838
143.4413, 112.0391
143.9234, 111.8662
144.4055, 111.3409
144.8876, 110.3050
145.3697, 108.7574
145.8518, 107.2850
146.3340, 105.4359
146.8161, 104.0943
147.2982, 103.6298
147.7803, 103.9589
148.2624, 104.7738
148.7445, 105.8136
149.2267, 107.1286
149.7088, 108.4451
150.1909, 109.5578
150.6730, 110.8229
151.1551, 112.3978
151.6372, 114.3253
152.1194, 116.6023
152.6015, 119.2927
153.0836, 122.6464
153.5657, 125.7046
154.0478, 127.9384
154.5299, 130.1297
155.0121, 133.0519
155.4942, 136.9038
155.9763, 141.3665
156.4584, 146.0122
156.9405, 150.7620
157.4227, 155.9594
157.9048, 161.6130
158.3869, 167.7828
158.8690, 174.6454
159.3511, 182.4287
159.8332, 190.7441
160.3154, 199.2119
160.7975, 207.8443
161.2796, 216.3059
161.7617, 224.4454
162.2438, 232.3011
162.7259, 239.6653
163.2081, 245.8912
163.6902, 252.1462
164.1723, 259.0999
164.6544, 266.8861
165.1365, 275.4139
165.6186, 284.6650
166.1008, 294.5942
166.5829, 305.3281
167.0650, 317.0758
167.5471, 329.4742
168.0292, 342.3017
168.5113, 355.5006
168.9935, 369.0478
169.4756, 382.8750
169.9577, 396.9962
170.4398, 411.5464
170.9219, 425.5286
171.4040, 440.3143
171.8862, 456.8552
172.3683, 475.5358
172.8504, 496.2981
173.3325, 519.2555
173.8146, 544.9826
174.2967, 572.3818
174.7789, 600.6551
175.2610, 630.8359
175.7431, 664.4508
176.2252, 702.6055
176.7073, 743.8093
177.1894, 783.0165
177.6716, 823.4639
178.1537, 858.6011
178.6358, 890.7960
179.1179, 916.8271
179.6000, 931.2532
180.0821, 931.5173
180.5643, 917.3157
181.0464, 889.0103
181.5285, 842.7658
182.0106, 790.8851
182.4927, 736.4993
182.9749, 680.3558
183.4570, 625.5157
183.9391, 572.3635
184.4212, 522.6383
184.9033, 478.6477
185.3854, 441.2580
185.8676, 408.2324
186.3497, 378.2132
186.8318, 351.2169
187.3139, 326.5919
187.7960, 304.3389
188.2781, 284.3926
188.7603, 267.0742
189.2424, 252.6801
189.7245, 240.2693
190.2066, 228.6307
190.6887, 217.5910
191.1708, 207.9709
191.6530, 200.3869
192.1351, 194.1190
192.6172, 188.8068
193.0993, 184.4213
193.5814, 180.6581
194.0635, 176.9790
194.5457, 173.3740
195.0278, 169.8991
195.5099, 166.4906
195.9920, 163.2262
196.4741, 160.1681
196.9562, 157.3416
197.4384, 154.7619
197.9205, 152.4421
198.4026, 150.3224
198.8847, 148.6314
199.3668, 147.5285
199.8489, 146.7865
200.3311, 146.2141
200.8132, 145.7221
201.2953, 145.2504
201.7774, 144.5672
202.2595, 143.2627
202.7416, 142.1946
203.2238, 141.7860
203.7059, 141.5907
204.1880, 140.9429
204.6701, 139.4708
205.1522, 137.3611
205.6344, 135.4436
206.1165, 133.5049
206.5986, 131.9417
207.0807, 130.8844
207.5628, 130.2595
208.0449, 129.8959
208.5271, 129.6721
209.0092, 129.6978
209.4913, 130.4530
209.9734, 132.0999
210.4555, 134.0823
210.9376, 136.2324
211.4198, 138.5646
211.9019, 141.2401
212.3840, 144.5099
212.8661, 147.9753
213.3482, 150.6080
213.8303, 152.3358
214.3125, 153.4552
214.7946, 154.3949
215.2767, 154.9897
215.7588, 154.2320
216.2409, 151.2535
216.7230, 146.8276
217.2052, 142.5469
217.6873, 138.4028
218.1694, 134.5117
218.6515, 130.9053
219.1336, 127.5762
219.6157, 124.7018
220.0979, 122.3001
220.5800, 120.4768
221.0621, 119.3705
221.5442, 119.0865
222.0263, 119.1660
222.5084, 119.1015
222.9906, 118.8428
223.4727, 118.9832
223.9548, 119.5412
224.4369, 120.7249
224.9190, 122.9358
225.4011, 126.3036
225.8833, 129.9852
226.3654, 132.8301
226.8475, 134.5055
227.3296, 136.9055
227.8117, 140.7258
228.2938, 145.2081
228.7760, 149.8373
229.2581, 154.5436
229.7402, 159.6914
230.2223, 165.9373
230.7044, 173.7491
231.1866, 181.2319
231.6687, 188.2730
232.1508, 194.8855
232.6329, 201.0401
233.1150, 206.7613
233.5971, 212.0583
234.0793, 217.1501
234.5614, 222.7059
235.0435, 226.2244
235.5256, 227.0523
236.0077, 226.6463
236.4898, 225.5652
236.9720, 224.0603
237.4541, 222.3741
237.9362, 220.8170
238.4183, 219.3963
238.9004, 218.1318
239.3825, 216.6350
239.8647, 215.5413
240.3468, 215.3121
240.8289, 215.9791
241.3110, 217.2087
241.7931, 218.5901
242.2752, 219.9858
242.7574, 222.0272
243.2395, 224.6557
243.7216, 227.8483
244.2037, 231.6460
244.6858, 236.0213
245.1679, 240.8835
245.6501, 246.1695
246.1322, 251.9981
246.6143, 257.8211
247.0964, 263.4185
247.5785, 269.1941
248.0606, 275.9731
248.5428, 283.5410
249.0249, 290.4746
249.5070, 295.4812
249.9891, 298.3361
250.4712, 299.3688
250.9533, 298.8707
251.4355, 296.4950
251.9176, 291.7884
252.3997, 284.8275
252.8818, 276.2772
253.3639, 266.6001
253.8460, 255.6375
254.3282, 244.0116
254.8103, 230.9874
255.2924, 217.8923
255.7745, 205.4399
256.2566, 193.7305
256.7387, 183.0979
257.2209, 173.7593
257.7030, 165.9041
258.1851, 159.1760
258.6672, 153.7991
259.1493, 149.3858
259.6314, 145.9136
260.1136, 143.3106
260.5957, 140.9838
261.0778, 138.5292
261.5599, 136.1491
262.0420, 134.2631
262.5241, 132.8579
263.0063, 131.9659
263.4884, 131.7390
263.9705, 132.1256
264.4526, 132.6542
264.9347, 132.9869
265.4168, 133.4480
265.8990, 134.5513
266.3811, 136.4708
266.8632, 138.6908
267.3453, 140.8302
267.8275, 142.9217
268.3096, 145.3008
268.7917, 148.2435
269.2738, 151.3939
269.7559, 154.1312
270.2380, 156.3217
270.7202, 158.7846
271.2023, 162.2675
271.6844, 166.6153
272.1665, 170.8216
272.6486, 174.5415
273.1307, 178.1120
273.6129, 181.9266
274.0950, 186.0057
274.5771, 190.0177
275.0592, 193.9214
275.5413, 197.6609
276.0234, 200.7903
276.5056, 202.8987
276.9877, 204.8310
277.4698, 207.2970
277.9519, 210.2000
278.4340, 213.0758
278.9161, 215.4167
279.3983, 217.4343
279.8804, 220.1422
280.3625, 223.6860
280.8446, 227.8377
281.3267, 232.5665
281.8088, 237.6908
282.2910, 242.8111
282.7731, 247.3132
283.2552, 251.6450
283.7373, 257.4237
284.2194, 265.2822
284.7015, 273.4556
285.1837, 281.0864
285.6658, 288.5069
286.1479, 296.2880
286.6300, 304.7489
287.1121, 313.6078
287.5942, 322.1642
288.0764, 330.2526
288.5585, 338.4394
289.0406, 347.6724
289.5227, 356.8087
290.0048, 364.5699
290.4869, 370.5772
290.9691, 375.0931
291.4512, 378.8011
291.9333, 382.1142
292.4154, 383.2173
292.8975, 381.5501
293.3796, 377.6374
293.8618, 371.5215
294.3439, 363.2183
294.8260, 353.2240
295.3081, 341.8490
295.7902, 328.8030
296.2723, 315.8397
296.7545, 302.9694
297.2366, 290.4711
297.7187, 278.5830
298.2008, 267.3207
298.6829, 256.5322
299.1650, 246.0783
299.6472, 235.8647
300.1293, 226.6114
300.6114, 218.4429
301.0935, 211.3520
301.5756, 205.5606
302.0577, 200.9354
302.5399, 196.9856
303.0220, 193.3956
303.5041, 190.1729
303.9862, 187.3551
304.4683, 185.0483
304.9504, 183.0824
305.4326, 181.2568
305.9147, 179.7131
306.3968, 178.7391
306.8789, 178.5844
307.3610, 179.0891
307.8431, 179.5639
308.3253, 179.8939
308.8074, 180.3924
309.2895, 181.2617
309.7716, 182.2836
310.2537, 183.1921
310.7358, 183.8732
311.2180, 184.3938
311.7001, 184.9411
312.1822, 185.7056
312.6643, 186.0507
313.1464, 185.6417
313.6285, 184.9490
314.1107, 184.3024
314.5928, 183.7979
315.0749, 183.3896
315.5570, 183.0410
316.0392, 182.7896
316.5213, 182.4580
317.0034, 181.4208
317.4855, 180.7605
317.9676, 181.3141
318.4497, 183.0173
318.9319, 184.9911
319.4140, 186.3129
319.8961, 186.8892
320.3782, 187.7187
320.8603, 188.7007
321.3424, 190.0793
321.8246, 191.8827
322.3067, 194.1515
322.7888, 196.9869
323.2709, 200.4710
323.7530, 204.5799
324.2351, 209.0509
324.7173, 214.1430
325.1994, 219.2750
325.6815, 224.0161
326.1636, 228.7604
326.6457, 234.1514
327.1278, 240.5348
327.6100, 247.5809
328.0921, 254.5326
328.5742, 261.2713
329.0563, 268.2072
329.5384, 275.4010
330.0205, 282.8298
330.5027, 290.4996
330.9848, 298.4443
331.4669, 306.5585
331.9490, 314.8934
332.4311, 323.6734
332.9132, 331.6804
333.3954, 338.5672
333.8775, 344.7413
334.3596, 350.5286
334.8417, 355.8521
335.3238, 360.0728
335.8059, 362.2490
336.2881, 362.3587
336.7702, 362.6062
337.2523, 363.7827
337.7344, 364.1859
338.2165, 363.0931
338.6986, 360.6891
339.1808, 357.4770
339.6629, 353.8391
340.1450, 349.6026
340.6271, 343.9224
341.1092, 336.0428
341.5913, 328.1693
342.0735, 321.4697
342.5556, 315.1451
343.0377, 308.1093
343.5198, 299.8258
344.0019, 291.0700
344.4840, 283.1342
344.9662, 276.0822
345.4483, 269.3343
345.9304, 262.9261
346.4125, 256.6304
346.8946, 250.2338
347.3767, 243.6653
347.8589, 237.3735
348.3410, 231.9521
348.8231, 227.3563
349.3052, 222.5941
349.7873, 217.0235
350.2694, 211.8438
350.7516, 207.9597
351.2337, 205.1710
351.7158, 202.6669
352.1979, 200.0026
352.6800, 197.2359
353.1621, 194.5414
353.6443, 191.8450
354.1264, 189.4075
354.6085, 187.4957
355.0906, 185.9030
355.5727, 184.3364
356.0548, 182.6408
356.5370, 181.0007
357.0191, 179.5937
357.5012, 178.4111
357.9833, 177.6456
358.4654, 177.5519
358.9475, 177.8548
359.4297, 178.3141
359.9118, 178.9904
360.3939, 179.4471
360.8760, 179.0984
361.3581, 178.1538
361.8402, 177.6955
362.3224, 178.0557
362.8045, 178.8579
363.2866, 179.7077
363.7687, 180.6062
364.2508, 181.6741
364.7329, 182.8689
365.2151, 184.2937
365.6972, 186.2707
366.1793, 188.9383
366.6614, 191.5161
367.1436, 193.2019
367.6257, 194.3236
368.1078, 195.8957
368.5899, 198.4217
369.0720, 201.1465
369.5541, 203.3856
370.0363, 205.2244
370.5184, 207.1708
371.0005, 209.3911
371.4826, 211.9468
371.9647, 214.9976
372.4468, 218.7359
372.9290, 222.3896
373.4111, 225.5200
373.8932, 228.3878
374.3753, 231.4227
374.8574, 234.7442
375.3395, 238.1878
375.8217, 241.5759
376.3038, 244.9237
376.7859, 248.0067
377.2680, 250.4406
377.7501, 252.8482
378.2322, 256.0097
378.7144, 259.8425
379.1965, 263.3996
379.6786, 266.0814
380.1607, 267.8450
380.6428, 268.6601
381.1249, 268.0111
381.6071, 267.1362
382.0892, 266.5318
382.5713, 265.9992
383.0534, 265.1653
383.5355, 263.8687
384.0176, 262.1684
384.4998, 260.1736
384.9819, 257.8891
385.4640, 255.2405
385.9461, 251.6760
386.4282, 248.0937
386.9103, 245.3851
387.3925, 243.6248
387.8746, 242.1736
388.3567, 240.4159
388.8388, 238.3517
389.3209, 235.9554
389.8030, 232.6579
390.2852, 229.6445
390.7673, 227.2162
391.2494, 225.4280
391.7315, 224.3282
392.2136, 223.9631
392.6957, 224.2330
393.1779, 224.7822
393.6600, 225.9190
394.1421, 226.9062
394.6242, 227.3228
395.1063, 227.7741
395.5884, 228.7904
396.0706, 230.5078
396.5527, 232.6936
397.0348, 235.1347
397.5169, 237.9151
397.9990, 240.5588
398.4811, 242.4538
398.9633, 244.7535
399.4454, 248.1377
399.9275, 252.3392
400.4096, 256.6635
400.8917, 260.6172
401.3738, 264.3103
401.8560, 268.1631
402.3381, 271.9869
402.8202, 276.3623
403.3023, 281.4077
403.7844, 287.0608
404.2665, 293.4361
404.7487, 300.6094
405.2308, 308.0192
405.7129, 314.7181
406.1950, 320.6666
406.6771, 327.4844
407.1592, 336.2641
407.6414, 345.1307
408.1235, 352.4754
408.6056, 358.5547
409.0877, 364.9179
409.5698, 372.6802
410.0519, 381.2831
410.5341, 389.3255
411.0162, 396.4901
411.4983, 404.0825
411.9804, 413.3831
412.4625, 423.5053
412.9446, 432.9156
413.4268, 441.3121
413.9089, 449.0446
414.3910, 456.0280
414.8731, 462.4363
415.3553, 469.1086
415.8374, 476.3219
416.3195, 483.8936
416.8016, 491.7635
417.2837, 499.9985
417.7658, 507.7067
418.2480, 514.9302
418.7301, 521.3529
419.2122, 526.2338
419.6943, 529.5861
420.1764, 533.0438
420.6585, 538.0630
421.1407, 544.4235
421.6228, 549.4227
422.1049, 552.1034
422.5870, 554.6727
423.0691, 558.5752
423.5512, 562.8757
424.0334, 565.9401
424.5155, 567.1074
424.9976, 566.7168
425.4797, 565.3835
425.9618, 563.1263
426.4439, 559.6641
426.9261, 554.4117
427.4082, 548.4531
427.8903, 542.7354
428.3724, 537.1315
428.8545, 530.7462
429.3366, 522.7691
429.8188, 513.2186
430.3009, 503.5709
430.7830, 493.3085
431.2651, 483.4767
431.7472, 474.9864
432.2293, 466.7328
432.7115, 457.2934
433.1936, 446.1813
433.6757, 434.4825
434.1578, 424.1420
434.6399, 415.6272
435.1220, 406.8912
435.6042, 397.2451
436.0863, 387.8670
436.5684, 379.2565
437.0505, 371.4287
437.5326, 364.1944
438.0147, 357.6478
438.4969, 351.5729
438.9790, 345.0914
439.4611, 337.8475
439.9432, 331.1209
440.4253, 325.5269
440.9074, 320.6424
441.3896, 316.1309
441.8717, 311.9182
442.3538, 308.0157
442.8359, 304.6159
443.3180, 301.6018
443.8001, 298.4020
444.2823, 294.7815
444.7644, 291.1542
445.2465, 287.8654
445.7286, 284.8633
446.2107, 282.1726
446.6928, 279.8292
447.1750, 277.7731
447.6571, 276.1517
448.1392, 274.8936
448.6213, 273.3504
449.1034, 271.1174
449.5855, 268.4371
450.0677, 265.9591
450.5498, 263.6251
451.0319, 261.5559
451.5140, 259.9251
451.9961, 258.5157
452.4782, 257.0677
452.9604, 255.5303
453.4425, 254.0219
453.9246, 252.6411
454.4067, 251.3757
454.8888, 250.4126
455.3709, 250.1100
455.8531, 249.6734
456.3352, 248.7488
456.8173, 247.5102
457.2994, 246.1971
457.7815, 244.9223
458.2636, 243.7872
458.7458, 243.0485
459.2279, 243.0367
459.7100, 242.7269
460.1921, 241.7553
460.6742, 240.7983
461.1563, 240.3375
461.6385, 240.2861
462.1206, 240.2032
462.6027, 239.7572
463.0848, 238.9952
463.5669, 238.1122
464.0491, 236.9278
464.5312, 236.0039
465.0133, 235.9832
465.4954, 236.0722
465.9775, 235.3311
466.4597, 233.4885
466.9418, 231.5263
467.4239, 230.3509
467.9060, 229.8762
468.3881, 229.5825
468.8702, 229.5907
469.3524, 229.3830
469.8345, 228.4607
470.3166, 226.9770
470.7987, 225.2902
471.2808, 222.9991
471.7629, 220.9261
472.2451, 220.0537
472.7272, 220.1625
473.2093, 220.1203
473.6914, 219.4409
474.1735, 218.3956
474.6556, 217.4524
475.1378, 216.5617
475.6199, 215.9050
476.1020, 215.4950
476.5841, 215.3355
477.0662, 215.4917
477.5483, 215.9286
478.0305, 216.4797
478.5126, 217.0211
478.9947, 217.5600
479.4768, 218.1490
479.9589, 218.9809
480.4410, 219.6289
480.9232, 219.9857
481.4053, 220.1581
481.8874, 220.3061
482.3695, 220.4449
482.8516, 220.3785
483.3337, 219.8021
483.8159, 218.6357
484.2980, 217.6457
484.7801, 216.9775
485.2622, 216.3318
485.7443, 215.9544
486.2264, 215.4530
486.7086, 214.1868
487.1907, 211.8284
487.6728, 208.8193
488.1549, 205.5185
488.6370, 201.8730
489.1191, 198.9479
489.6013, 197.6441
490.0834, 196.3639
490.5655, 193.5374
491.0476, 189.3722
491.5297, 185.3256
492.0118, 182.0014
492.4940, 179.0960
492.9761, 176.3608
493.4582, 173.7617
493.9403, 171.0666
494.4224, 168.1519
494.9045, 165.0660
495.3867, 161.9531
495.8688, 158.7824
496.3509, 155.6346
496.8330, 152.4046
497.3151, 149.2686
497.7972, 146.4455
498.2794, 143.9469
498.7615, 141.6671
499.2436, 139.5833
499.7257, 137.6712
500.2078, 135.3317
500.6899, 132.1710
501.1721, 129.0520
501.6542, 125.9588
502.1363, 123.0531
502.6184, 120.5450
503.1005, 118.4623
503.5826, 116.5455
504.0648, 114.4825
504.5469, 112.2524
505.0290, 110.0983
505.5111, 108.0677
505.9932, 106.0466
506.4753, 103.8890
506.9575, 101.7432
507.4396, 99.88128
507.9217, 98.46317
508.4038, 97.16282
508.8859, 95.57288
509.3680, 93.70718
509.8502, 91.85423
510.3323, 89.98500
510.8144, 88.28557
511.2965, 87.10082
511.7786, 86.31816
512.2607, 85.24345
512.7429, 83.29360
513.2250, 81.31319
513.7071, 80.15225
514.1892, 79.63598
514.6713, 78.91812
515.1534, 77.58089
515.6356, 75.95583
516.1177, 74.69165
516.5998, 73.90170
517.0819, 73.22592
517.5640, 72.91581
518.0461, 72.50467
518.5283, 71.51998
519.0104, 70.11698
519.4925, 68.85641
519.9746, 68.11330
520.4567, 67.76878
520.9388, 67.39995
521.4210, 67.06977
521.9031, 66.58741
522.3852, 65.89443
522.8673, 65.08871
523.3494, 64.14541
523.8315, 63.12446
524.3137, 62.24342
524.7958, 61.68051
525.2779, 61.39326
525.7600, 61.33897
526.2421, 61.65291
526.7242, 61.68298
527.2064, 60.87463
527.6885, 59.76302
528.1706, 59.05407
528.6527, 58.87043
529.1348, 58.68364
529.6169, 58.16133
530.0991, 57.48365
530.5812, 56.93774
531.0633, 56.55878
531.5454, 56.26240
532.0275, 55.99398
532.5096, 55.75481
532.9918, 55.56046
533.4739, 55.61803
533.9560, 55.45340
534.4381, 54.72204
534.9202, 53.85202
535.4023, 53.32501
535.8845, 53.21794
536.3666, 53.27502
536.8487, 53.26189
537.3308, 53.17857
537.8129, 52.99208
538.2951, 52.62501
538.7772, 52.24971
539.2593, 51.82270
539.7415, 51.44991
540.2236, 51.29016
540.7057, 51.37659
541.1878, 51.48231
541.6699, 51.40516
542.1520, 51.15293
542.6342, 50.71302
543.1163, 49.94457
543.5984, 49.33519
544.0805, 49.40617
544.5626, 49.81763
545.0447, 49.91119
545.5269, 49.41199
546.0090, 48.94819
546.4911, 49.03017
546.9732, 49.36917
547.4553, 49.35410
547.9374, 48.85105
548.4196, 48.27218
548.9017, 48.03340
549.3838, 48.14506
549.8659, 48.06021
550.3480, 47.71075
550.8301, 47.28417
551.3123, 46.66698
551.7944, 46.07579
552.2765, 45.81455
552.7586, 45.94170
553.2407, 46.20398
553.7228, 46.28120
554.2050, 46.15483
554.6871, 46.21591
555.1692, 46.81397
555.6513, 47.08735
556.1334, 46.36572
556.6155, 45.32522
557.0977, 44.91190
557.5798, 45.44011
558.0619, 46.10757
558.5440, 46.16236
559.0261, 45.75136
559.5082, 45.42528
559.9904, 45.27462
560.4725, 45.13298
560.9546, 44.82239
561.4367, 44.41113
561.9188, 44.21979
562.4009, 44.45729
562.8831, 44.65709
563.3652, 44.61998
563.8473, 44.45299
564.3294, 44.27771
564.8115, 44.12994
565.2936, 44.03600
565.7758, 44.03447
566.2579, 44.12596
566.7400, 44.14172
567.2221, 43.86412
567.7042, 43.78069
568.1863, 44.24591
568.6685, 44.79161
569.1506, 44.90373
569.6327, 44.49113
570.1148, 43.90978
570.5969, 43.39771
571.0790, 42.98470
571.5612, 42.92073
572.0433, 43.32351
572.5254, 43.74838
573.0075, 44.04359
573.4896, 44.18530
573.9717, 44.12027
574.4539, 43.79889
574.9360, 43.43038
575.4181, 42.95638
575.9002, 42.56637
576.3823, 42.65414
576.8644, 43.20967
577.3466, 43.67937
577.8287, 43.65881
578.3108, 43.24045
578.7929, 42.87801
579.2750, 42.44633
579.7571, 42.24559
580.2393, 42.42549
580.7214, 42.74336
581.2035, 43.07587
581.6856, 43.36980
582.1677, 43.57427
582.6498, 43.66172
583.1320, 43.61721
583.6141, 43.33151
584.0962, 42.68576
584.5783, 42.20031
585.0604, 42.01339
585.5425, 42.05739
586.0247, 42.39500
586.5068, 42.98507
586.9889, 43.38420
587.4710, 43.25434
587.9531, 42.93032
588.4352, 42.78860
588.9174, 42.81417
589.3995, 42.87491
589.8816, 42.92951
590.3637, 42.94237
590.8458, 42.82674
591.3279, 42.45525
591.8101, 42.33830
592.2922, 42.68679
592.7743, 43.07650
593.2564, 43.32850
593.7385, 43.44417
594.2206, 43.44187
594.7028, 43.32856
595.1849, 43.17591
595.6670, 43.10658
596.1491, 43.13106
596.6312, 43.16929
597.1133, 43.29472
597.5955, 43.32522
598.0776, 43.07837
598.5597, 42.69416
599.0418, 42.44214
599.5239, 42.41375
600.0060, 42.48327
600.4882, 42.60356
600.9703, 42.74050
601.4524, 42.77028
601.9345, 42.66143
602.4166, 42.62764
602.8987, 42.89921
603.3809, 43.44216
603.8630, 43.73517
604.3451, 43.57950
604.8272, 43.46657
605.3093, 43.55420
605.7914, 43.68413
606.2736, 43.71427
606.7557, 43.61834
607.2378, 43.41307
607.7199, 43.03840
608.2020, 42.59744
608.6841, 42.68938
609.1663, 43.57628
609.6484, 44.23788
610.1305, 44.19027
610.6126, 43.91736
611.0947, 43.83699
611.5768, 43.95705
612.0590, 44.02663
612.5411, 43.86679
613.0232, 43.65218
613.5053, 43.57565
613.9874, 43.62482
614.4695, 43.74574
614.9517, 43.94230
615.4338, 44.08197
615.9159, 43.90148
616.3980, 43.18097
616.8801, 42.91669
617.3622, 43.61287
617.8444, 44.17427
618.3265, 43.99117
618.8086, 43.41117
619.2907, 43.01656
619.7728, 43.01732
620.2549, 43.16098
620.7371, 43.05655
621.2192, 42.72515
621.7013, 42.78497
622.1834, 43.48278
622.6655, 44.07697
623.1476, 43.99573
623.6298, 43.57715
624.1119, 43.38663
624.5940, 43.56404
625.0761, 43.68784
625.5582, 43.56926
626.0403, 43.29044
626.5225, 42.81748
627.0046, 42.22773
627.4867, 41.94434
627.9688, 42.28041
628.4509, 43.01638
628.9330, 43.44009
629.4152, 43.42694
629.8973, 43.31171
630.3794, 43.03232
630.8615, 42.73507
631.3436, 42.43922
631.8257, 42.19579
632.3079, 42.13301
632.7900, 42.37477
633.2721, 42.65224
633.7542, 42.49825
634.2363, 41.97586
634.7184, 41.69313
635.2006, 41.82217
635.6827, 42.04136
636.1648, 42.06134
636.6469, 41.91468
637.1291, 41.87567
637.6112, 42.05544
638.0933, 42.21018
638.5754, 42.24131
639.0576, 42.21640
639.5397, 42.19566
640.0218, 42.19792
640.5039, 42.24570
640.9860, 42.37413
641.4681, 42.54737
641.9503, 42.58894
642.4324, 42.46840
642.9145, 42.29074
643.3966, 41.92984
643.8787, 41.63733
644.3608, 41.68095
644.8430, 41.98314
645.3251, 42.13465
645.8072, 41.80618
646.2893, 41.39754
646.7714, 41.36370
647.2535, 41.59443
647.7357, 41.73389
648.2178, 41.67748
648.6999, 41.52669
649.1820, 41.38486
649.6641, 41.25095
650.1462, 41.14424
650.6284, 41.02343
651.1105, 40.97986
651.5926, 41.05417
652.0747, 41.20165
652.5568, 41.36776
653.0389, 41.55168
653.5211, 41.81541
654.0032, 42.31055
654.4853, 42.87714
654.9674, 43.01722
655.4495, 42.69538
655.9316, 42.32572
656.4138, 41.97578
656.8959, 41.72732
657.3780, 41.78322
657.8601, 42.13437
658.3422, 42.28545
658.8243, 41.95304
659.3065, 41.62887
659.7886, 41.58004
660.2707, 41.72337
660.7528, 41.97033
661.2349, 42.26863
661.7170, 42.45694
662.1992, 42.28841
662.6813, 41.79082
663.1634, 41.66215
663.6455, 42.11700
664.1276, 42.51666
664.6097, 42.60580
665.0919, 42.58289
665.5740, 42.62589
666.0561, 42.74281
666.5382, 42.79989
667.0203, 42.68433
667.5024, 42.51839
667.9846, 42.41122
668.4667, 42.36536
668.9488, 42.37309
669.4309, 42.43202
669.9130, 42.54712
670.3951, 42.73309
670.8773, 43.00132
671.3594, 43.24895
671.8415, 43.57904
672.3236, 43.76292
672.8057, 43.58997
673.2878, 43.34120
673.7700, 43.37414
674.2521, 43.71388
674.7342, 43.97579
675.2163, 43.75679
675.6984, 43.30066
676.1805, 43.10164
676.6627, 43.15466
677.1448, 43.32076
677.6269, 43.59127
678.1090, 43.85166
678.5911, 43.92660
679.0732, 43.76958
679.5554, 43.68487
680.0375, 43.70691
680.5196, 43.75875
681.0017, 43.74205
681.4838, 43.77181
681.9659, 44.12026
682.4481, 44.77752
682.9302, 45.24781
683.4123, 44.91182
683.8944, 44.03753
684.3765, 43.75750
684.8586, 44.17556
685.3408, 44.58739
685.8229, 44.76219
686.3050, 44.81783
686.7871, 44.85195
687.2692, 44.86393
687.7513, 45.01794
688.2335, 45.59645
688.7156, 46.04944
689.1977, 45.87733
689.6798, 45.46133
690.1619, 45.47002
690.6440, 46.02211
691.1262, 46.61350
691.6083, 46.72235
692.0904, 46.42413
692.5725, 46.23407
693.0546, 46.13260
693.5367, 46.20416
694.0189, 46.58535
694.5010, 47.05762
694.9831, 47.48317
695.4652, 47.84321
695.9473, 48.02372
696.4294, 47.81172
696.9116, 47.58838
697.3937, 47.67681
697.8758, 47.92181
698.3579, 47.97038
698.8400, 47.77026
699.3221, 47.67898
699.8043, 48.08344
700.2864, 48.88390
700.7685, 49.28794
701.2506, 49.03592
701.7327, 48.93814
702.2148, 49.37906
702.6970, 49.83208
703.1791, 49.93562
703.6612, 49.74437
704.1433, 49.53130
704.6254, 49.29509
705.1075, 49.20605
705.5897, 49.50434
706.0718, 50.03112
706.5539, 50.48765
707.0360, 50.81026
707.5181, 50.97477
708.0002, 50.92855
708.4824, 50.74435
708.9645, 50.79946
709.4466, 51.25116
709.9287, 51.64497
710.4108, 51.88564
710.8929, 52.11358
711.3751, 52.40934
711.8572, 52.75673
712.3393, 53.09943
712.8214, 53.42117
713.3035, 53.72642
713.7856, 54.09263
714.2678, 54.42654
714.7499, 54.44895
715.2320, 54.14774
715.7141, 53.92988
716.1962, 54.07233
716.6783, 54.47305
717.1605, 54.83509
717.6426, 55.15885
718.1247, 55.43868
718.6068, 55.66403
719.0889, 55.85830
719.5710, 55.92915
720.0532, 56.00713
720.5353, 56.38881
721.0174, 57.21264
721.4995, 57.90292
721.9816, 57.75972
722.4637, 57.24016
722.9459, 57.32757
723.4280, 58.03778
723.9101, 58.68203
724.3922, 58.90602
724.8743, 58.94087
725.3564, 59.24053
725.8386, 59.94702
726.3207, 60.40747
726.8028, 60.33688
727.2849, 60.36168
727.7670, 60.76923
728.2491, 61.32837
728.7313, 61.75502
729.2134, 61.99980
729.6955, 62.20160
730.1776, 62.41930
730.6597, 62.67580
731.1418, 62.98180
731.6240, 63.35033
732.1061, 63.89935
732.5882, 64.69168
733.0703, 65.50445
733.5524, 66.06026
734.0345, 66.34801
734.5167, 66.65121
734.9988, 67.05995
735.4809, 67.36357
735.9631, 67.29424
736.4452, 67.28410
736.9273, 67.79993
737.4094, 68.75822
737.8915, 69.61179
738.3737, 70.03438
738.8558, 70.28271
739.3379, 70.65012
739.8200, 71.08186
740.3021, 71.31514
740.7842, 71.30176
741.2664, 71.55715
741.7485, 72.57444
742.2306, 74.13993
742.7127, 75.18578
743.1948, 75.35268
743.6769, 75.64900
744.1591, 76.22031
744.6412, 76.83293
745.1233, 77.33013
745.6054, 77.78202
746.0875, 78.34710
746.5696, 79.07951
747.0518, 79.89624
747.5339, 80.78129
748.0160, 81.68165
748.4981, 82.47498
748.9802, 83.17370
749.4623, 83.88594
749.9445, 84.66746
750.4266, 85.54343
750.9087, 86.61234
751.3908, 87.99342
751.8729, 88.97791
752.3550, 89.01027
752.8372, 89.40099
753.3193, 90.82822
753.8014, 92.64491
754.2835, 94.20347
754.7656, 95.42699
755.2477, 96.40845
755.7299, 96.74033
756.2120, 97.24078
756.6941, 99.07000
757.1762, 101.6431
757.6583, 103.4293
758.1404, 104.0482
758.6226, 104.4199
759.1047, 105.4552
759.5868, 107.0557
760.0689, 108.5959
760.5510, 110.0207
761.0331, 111.5069
761.5153, 113.0208
761.9974, 114.6906
762.4795, 116.6201
762.9616, 118.7673
763.4437, 121.0157
763.9258, 123.4832
764.4080, 125.7942
764.8901, 127.5929
765.3722, 129.2396
765.8543, 131.0914
766.3364, 133.1919
766.8185, 135.4887
767.3007, 137.9541
767.7828, 140.5837
768.2649, 143.4349
768.7470, 146.5090
769.2291, 149.4386
769.7112, 152.2200
770.1934, 154.8522
770.6755, 157.1670
771.1576, 159.4461
771.6397, 162.1105
772.1218, 165.1807
772.6039, 168.5522
773.0861, 172.4607
773.5682, 176.3974
774.0503, 179.7727
774.5324, 183.1603
775.0145, 187.4943
775.4966, 192.8623
775.9788, 198.3638
776.4609, 203.1553
776.9430, 207.6440
777.4251, 212.8985
777.9072, 218.9060
778.3893, 224.8595
778.8715, 230.4259
779.3536, 236.5504
779.8357, 244.2221
780.3178, 253.2118
780.7999, 261.8167
781.2820, 268.8847
781.7642, 277.3038
782.2463, 287.5015
782.7284, 298.8664
783.2105, 311.5478
783.6926, 324.9530
784.1747, 337.8387
784.6569, 349.7843
785.1390, 362.0623
785.6211, 375.6358
786.1032, 390.4355
786.5853, 406.2151
787.0674, 422.9971
787.5496, 441.4659
788.0317, 461.8388
788.5138, 483.4639
788.9959, 505.3435
789.4780, 527.4166
789.9601, 550.5936
790.4423, 574.8306
790.9244, 600.3008
791.4065, 626.0833
791.8886, 653.8773
792.3707, 685.9439
792.8528, 721.7471
793.3350, 758.4248
793.8171, 795.2972
794.2992, 832.6974
794.7813, 871.9002
795.2634, 911.4373
795.7455, 949.4978
796.2277, 985.8702
796.7098, 1021.355
797.1919, 1056.765
797.6740, 1090.436
798.1561, 1119.724
798.6382, 1144.667
799.1204, 1163.658
799.6025, 1175.793
800.0846, 1184.490
800.5667, 1191.309
801.0488, 1195.853
801.5309, 1196.619
802.0131, 1192.949
802.4952, 1190.425
802.9773, 1190.294
803.4594, 1190.510
803.9415, 1190.723
804.4236, 1190.498
804.9058, 1189.261
805.3879, 1187.044
805.8700, 1184.576
806.3521, 1182.631
806.8342, 1180.321
807.3163, 1177.019
807.7985, 1172.301
808.2806, 1164.385
808.7627, 1152.961
809.2448, 1138.593
809.7269, 1121.899
810.2090, 1102.017
810.6912, 1076.267
811.1733, 1043.252
811.6554, 1007.554
812.1375, 967.8576
812.6196, 926.8351
813.1017, 885.1560
813.5839, 843.0265
814.0660, 800.8630
814.5481, 758.6027
815.0302, 716.8216
815.5123, 674.7598
815.9944, 634.4006
816.4766, 597.6033
816.9587, 563.4713
817.4408, 530.7994
817.9229, 499.3820
818.4050, 470.2132
818.8871, 444.2031
819.3693, 420.8799
819.8514, 398.3587
820.3335, 376.6272
820.8156, 357.2329
821.2977, 340.6669
821.7798, 325.6456
822.2620, 311.1225
822.7441, 297.4213
823.2262, 285.5939
823.7083, 276.1360
824.1904, 267.2892
824.6725, 258.9363
825.1547, 251.2105
825.6368, 244.1731
826.1189, 237.8401
826.6010, 232.3047
827.0831, 227.5321
827.5652, 223.1168
828.0474, 218.9453
828.5295, 214.8690
829.0116, 210.6567
829.4937, 206.4094
829.9758, 202.4205
830.4579, 198.7295
830.9401, 195.0382
831.4222, 191.1320
831.9043, 186.9615
832.3864, 182.2757
832.8685, 177.0014
833.3506, 171.6492
833.8328, 166.0004
834.3149, 160.8000
834.7971, 156.6149
835.2792, 153.1153
835.7613, 149.6852
836.2434, 146.2677
836.7255, 143.2849
837.2076, 141.3150
837.6898, 139.2480
838.1719, 136.0675
838.6540, 132.7658
839.1361, 130.6225
839.6182, 129.7284
840.1003, 129.2051
840.5825, 128.5291
841.0646, 127.8787
841.5467, 127.5839
842.0288, 127.5153
842.5109, 127.1529
842.9930, 126.4550
843.4752, 126.0126
843.9573, 126.1708
844.4394, 126.8713
844.9215, 128.1014
845.4036, 130.0894
845.8857, 131.4035
846.3679, 131.5008
846.8500, 131.8904
847.3321, 133.0671
847.8142, 134.8418
848.2963, 137.2458
848.7784, 140.2156
849.2606, 142.7991
849.7427, 144.4543
850.2248, 146.1338
850.7069, 147.9356
851.1890, 150.1423
851.6711, 153.2175
852.1533, 156.9647
852.6354, 160.7380
853.1175, 164.2393
853.5996, 167.6125
854.0817, 170.8473
854.5638, 174.1518
855.0460, 178.0253
855.5281, 182.4889
856.0102, 187.2791
856.4923, 192.3089
856.9744, 197.6140
857.4565, 203.2389
857.9387, 209.1910
858.4208, 215.1660
858.9029, 221.3412
859.3850, 227.0532
859.8671, 231.4844
860.3492, 236.1439
860.8314, 242.4222
861.3135, 249.7597
861.7956, 256.6638
862.2777, 262.6505
862.7598, 268.9820
863.2419, 276.5511
863.7241, 283.9629
864.2062, 290.2392
864.6883, 295.7196
865.1704, 301.0243
865.6525, 306.3681
866.1346, 311.8689
866.6168, 317.8529
867.0989, 323.9123
867.5810, 329.4499
868.0631, 334.4981
868.5452, 339.0547
869.0273, 343.1454
869.5095, 346.8347
869.9916, 350.1487
870.4737, 353.1796
870.9558, 356.1302
871.4379, 358.9809
871.9200, 361.9122
872.4022, 364.9188
872.8843, 368.0540
873.3664, 371.6565
873.8485, 375.1664
874.3306, 377.3689
874.8127, 378.1803
875.2949, 380.1682
875.7770, 384.5583
876.2591, 388.7548
876.7412, 391.8189
877.2233, 394.5169
877.7054, 397.2624
878.1876, 400.2422
878.6697, 403.7950
879.1518, 408.1024
879.6339, 412.6886
880.1160, 417.2015
880.5981, 421.7313
881.0803, 426.1561
881.5624, 430.7437
882.0445, 436.5678
882.5266, 443.9006
883.0087, 451.5635
883.4908, 458.3305
883.9730, 464.4022
884.4551, 470.3783
884.9372, 476.2137
885.4193, 482.4191
885.9014, 489.2154
886.3835, 495.9711
886.8657, 502.4418
887.3478, 508.4055
887.8299, 513.4195
888.3120, 517.9404
888.7941, 520.2120
889.2762, 518.5947
889.7584, 516.7454
890.2405, 516.8698
890.7226, 516.5289
891.2047, 512.9659
891.6868, 506.2629
892.1689, 498.8605
892.6511, 492.2685
893.1332, 484.2004
893.6153, 472.9883
894.0974, 460.0424
894.5795, 446.6717
895.0616, 432.9286
895.5438, 418.5121
896.0259, 403.1927
896.5080, 387.2670
896.9901, 370.5996
897.4722, 353.7413
897.9543, 338.2993
898.4365, 324.1413
898.9186, 309.8685
899.4007, 295.1683
899.8828, 281.0148
900.3649, 268.1955
900.8470, 256.5763
901.3292, 245.5058
901.8113, 235.0228
902.2934, 224.9765
902.7755, 215.1870
903.2576, 206.2606
903.7397, 198.8547
904.2219, 192.2717
904.7040, 185.3607
905.1861, 178.0628
905.6682, 171.1500
906.1503, 164.4913
906.6324, 158.4364
907.1146, 153.3133
907.5967, 148.5929
908.0788, 143.9246
908.5609, 139.2751
909.0430, 134.6909
909.5251, 130.1600
910.0073, 125.8168
910.4894, 121.8466
910.9715, 118.0106
911.4536, 113.8920
911.9357, 109.7583
912.4178, 106.2963
912.9000, 103.5851
913.3821, 100.9169
913.8642, 97.62373
914.3463, 94.16161
914.8284, 91.42798
915.3105, 89.29824
915.7927, 87.20679
916.2748, 85.08764
916.7569, 82.91315
917.2390, 80.62490
917.7211, 78.51220
918.2032, 77.12751
918.6854, 76.52363
919.1675, 75.35989
919.6496, 73.38888
920.1317, 71.62435
920.6138, 70.26863
921.0959, 69.27485
921.5781, 68.81505
922.0602, 68.70151
922.5423, 67.99342
923.0244, 66.28634
923.5065, 64.75834
923.9886, 63.44296
924.4708, 62.32818
924.9529, 61.48934
925.4350, 60.80080
925.9171, 60.15355
926.3992, 59.52284
926.8813, 58.83006
927.3635, 58.06720
927.8456, 57.20782
928.3277, 56.17341
928.8098, 55.08023
929.2919, 53.98074
929.7740, 52.94648
930.2562, 52.11654
930.7383, 51.55308
931.2204, 51.07426
931.7025, 50.49571
932.1846, 49.88229
932.6667, 49.37770
933.1489, 48.95097
933.6310, 48.49177
934.1132, 47.97467
934.5953, 47.43618
935.0774, 46.90904
935.5595, 46.35832
936.0416, 45.67594
936.5237, 44.85841
937.0059, 44.18496
937.4880, 43.67873
937.9701, 43.26488
938.4522, 42.93935
938.9343, 42.63613
939.4164, 42.28371
939.8986, 41.88146
940.3807, 41.40014
940.8628, 40.68861
941.3449, 40.20224
941.8270, 40.10351
942.3091, 40.09863
942.7913, 40.16120
943.2734, 40.16481
943.7555, 39.85596
944.2376, 39.17493
944.7197, 38.59816
945.2018, 38.21843
945.6840, 37.93792
946.1661, 37.70827
946.6482, 37.57276
947.1303, 37.73483
947.6124, 38.01752
948.0945, 37.87355
948.5767, 37.02155
949.0588, 36.22372
949.5409, 36.04707
950.0230, 36.06355
950.5051, 35.82380
950.9872, 35.45782
951.4694, 35.29194
951.9515, 35.35358
952.4336, 35.37031
952.9157, 35.15475
953.3978, 34.80088
953.8799, 34.35583
954.3621, 33.89989
954.8442, 33.72793
955.3263, 33.80193
955.8084, 33.68639
956.2905, 33.20832
956.7726, 32.68551
957.2548, 32.48983
957.7369, 32.54093
958.2190, 32.48487
958.7011, 32.31770
959.1832, 32.08763
959.6653, 31.76343
960.1475, 31.57540
960.6296, 31.68770
961.1117, 31.95848
961.5938, 32.14598
962.0759, 32.25862
962.5580, 32.19905
963.0402, 31.88713
963.5223, 31.56435
964.0044, 31.20455
964.4865, 30.94271
964.9686, 30.96581
965.4507, 31.16277
965.9329, 31.17629
966.4150, 30.92340
966.8971, 30.71233
967.3792, 30.64149
967.8613, 30.51999
968.3434, 30.24349
968.8256, 29.90839
969.3077, 29.57676
969.7898, 29.27299
970.2719, 29.06747
970.7540, 29.03115
971.2361, 28.97928
971.7183, 28.75986
972.2004, 28.56750
972.6825, 28.57595
973.1646, 28.70867
973.6467, 28.85514
974.1288, 28.97968
974.6110, 29.05552
975.0931, 29.07436
975.5752, 29.02623
976.0573, 28.78797
976.5394, 28.54316
977.0215, 28.66334
977.5037, 29.03379
977.9858, 29.20467
978.4679, 29.02180
978.9500, 28.73789
979.4321, 28.32674
979.9142, 28.62235
980.3964, 28.77413
980.8785, 28.78985
981.3606, 28.26190
981.8427, 28.43597
982.3248, 28.32871
982.8069, 28.20991
983.2891, 28.48279
983.7712, 28.03392
984.2533, 28.30059
984.7354, 28.28163
985.2175, 28.39339
985.6996, 28.22208
986.1818, 28.13820
986.6639, 28.33749
987.1460, 28.37999
987.6281, 28.17609
988.1102, 28.29616
988.5923, 27.83740
989.0745, 27.88657
989.5566, 28.15490
990.0387, 27.96524
990.5208, 28.09049
991.0029, 28.09580
991.4850, 27.55605
991.9672, 27.96421
992.4493, 27.96244
992.9314, 27.53975
993.4135, 27.91544
993.8956, 27.55077
994.3777, 27.45036
994.8599, 27.54882
995.3420, 27.43998
995.8241, 27.65799
996.3062, 27.56111
996.7883, 27.43610
997.2704, 27.43387
997.7526, 27.08371
998.2347, 27.37902
998.7168, 27.23342
999.1989, 27.30699
999.6810, 27.43023
1000.163, 27.17311
1000.645, 27.31868
1001.127, 26.83977
1001.609, 26.88339
1002.092, 26.87067
1002.574, 27.19201
1003.056, 26.71614
1003.538, 26.74524
1004.020, 26.98935
1004.502, 26.93261
1004.984, 27.00165
1005.466, 26.69833
1005.949, 26.74475
1006.431, 26.69481
1006.913, 26.97807
1007.395, 26.99829
1007.877, 26.70128
1008.359, 26.40562
1008.841, 26.71286
1009.323, 26.44866
1009.805, 26.49274
1010.288, 26.21837
1010.770, 26.26344
1011.252, 26.56003
1011.734, 27.03530
1012.216, 26.91737
1012.698, 26.32844
1013.180, 26.06264
1013.662, 26.43372
1014.145, 26.93779
1014.627, 27.05948
1015.109, 26.96715
1015.591, 27.05261
1016.073, 27.20850
1016.555, 26.99691
1017.037, 26.42549
1017.519, 25.95910
1018.001, 25.83179
1018.484, 25.95060
1018.966, 26.30634
1019.448, 26.75940
1019.930, 26.74853
1020.412, 26.32067
1020.894, 25.86659
1021.376, 25.45842
1021.858, 25.21800
1022.341, 25.23213
1022.823, 25.33633
1023.305, 25.24766
1023.787, 24.99842
1024.269, 24.91655
1024.751, 25.00945
1025.233, 25.12789
1025.715, 25.24608
1026.198, 25.38784
1026.680, 25.60392
1027.162, 25.74228
1027.644, 25.44824
1028.126, 24.70390
1028.608, 24.39308
1029.090, 24.61963
1029.572, 24.79785
1030.054, 24.81754
1030.536, 24.70991
1031.019, 24.43731
1031.501, 24.13422
1031.983, 24.11348
1032.465, 24.43085
1032.947, 24.59262
1033.429, 24.56413
1033.911, 24.45358
1034.393, 24.18284
1034.876, 24.02166
1035.358, 24.23040
1035.840, 24.63944
1036.322, 24.85406
1036.804, 24.86441
1037.286, 24.71798
1037.768, 24.27038
1038.250, 23.92103
1038.733, 23.68290
1039.215, 23.66018
1039.697, 24.11367
1040.179, 24.78423
1040.661, 24.97631
1041.143, 24.51282
1041.625, 24.23170
1042.107, 24.32482
1042.589, 24.33618
1043.072, 24.01223
1043.554, 23.73566
1044.036, 23.83887
1044.518, 24.17878
1045.000, 24.41896
1045.482, 24.54815
1045.964, 24.57598
1046.446, 24.39232
1046.928, 24.25626
1047.411, 24.21505
1047.893, 24.26106
1048.375, 24.48334
1048.857, 24.76715
1049.339, 24.82927
1049.821, 24.59468
1050.303, 24.39322
1050.785, 24.33043
1051.268, 24.23400
1051.750, 23.96050
1052.232, 23.71385
1052.714, 23.71432
1053.196, 23.85342
1053.678, 23.86688
1054.160, 23.69741
1054.642, 23.53655
1055.125, 23.34117
1055.607, 23.27569
1056.089, 23.64120
1056.571, 23.94444
1057.053, 23.58374
1057.535, 22.90264
1058.017, 22.75283
1058.499, 23.35258
1058.981, 23.70801
1059.464, 23.22801
1059.946, 22.82311
1060.428, 23.05188
1060.910, 23.33866
1061.392, 23.12713
1061.874, 22.61105
1062.356, 22.22445
1062.838, 22.05068
1063.320, 22.05010
1063.803, 22.39398
1064.285, 22.66779
1064.767, 22.64852
1065.249, 22.51632
1065.731, 22.36918
1066.213, 22.24948
1066.695, 22.21934
1067.177, 22.28903
1067.660, 22.35264
1068.142, 22.33265
1068.624, 22.34376
1069.106, 22.62190
1069.588, 22.78437
1070.070, 22.33148
1070.552, 21.59654
1071.034, 21.21252
1071.516, 21.28679
1071.999, 21.42508
1072.481, 21.51937
1072.963, 21.56910
1073.445, 21.53852
1073.927, 21.49738
1074.409, 21.50695
1074.891, 21.54491
1075.373, 21.57297
1075.855, 21.58307
1076.338, 21.57909
1076.820, 21.57603
1077.302, 21.53680
1077.784, 21.38264
1078.266, 21.24627
1078.748, 21.29605
1079.230, 21.39926
1079.712, 21.29059
1080.195, 20.98940
1080.677, 20.86093
1081.159, 21.16179
1081.641, 21.39955
1082.123, 21.26752
1082.605, 21.06550
1083.087, 20.96178
1083.569, 20.95418
1084.052, 21.08572
1084.534, 21.30222
1085.016, 21.36685
1085.498, 21.14293
1085.980, 20.92915
1086.462, 20.90316
1086.944, 20.87784
1087.426, 20.69590
1087.908, 20.46988
1088.391, 20.33138
1088.873, 20.28205
1089.355, 20.26884
1089.837, 20.27870
1090.319, 20.31537
1090.801, 20.41448
1091.283, 20.50063
1091.765, 20.55043
1092.248, 20.55161
1092.730, 20.43697
1093.212, 20.27443
1093.694, 20.25842
1094.176, 20.45947
1094.658, 20.59276
1095.140, 20.46173
1095.622, 20.36311
1096.104, 20.50520
1096.587, 20.66990
1097.069, 20.64553
1097.551, 20.50109
1098.033, 20.41759
1098.515, 20.43014
1098.997, 20.38139
1099.479, 20.09218
1099.961, 19.91850
1100.443, 20.04446
1100.926, 20.26201
1101.408, 20.53886
1101.890, 20.75064
1102.372, 20.64677
1102.854, 20.22634
1103.336, 19.97132
1103.818, 20.18159
1104.300, 20.28167
1104.783, 19.97737
1105.265, 19.72304
1105.747, 19.81377
1106.229, 20.06198
1106.711, 20.28860
1107.193, 20.45730
1107.675, 20.42934
1108.157, 19.97025
1108.640, 19.73483
1109.122, 19.97285
1109.604, 20.23960
1110.086, 20.37516
1110.568, 20.44954
1111.050, 20.58966
1111.532, 20.73284
1112.014, 20.61095
1112.496, 20.04193
1112.979, 19.67724
1113.461, 19.61776
1113.943, 19.66417
1114.425, 19.96856
1114.907, 20.16258
1115.389, 19.85429
1115.871, 19.29159
1116.353, 19.05035
1116.835, 19.20048
1117.318, 19.25272
1117.800, 19.08701
1118.282, 19.05237
1118.764, 19.31440
1119.246, 19.54422
1119.728, 19.55611
1120.210, 19.43159
1120.692, 19.25784
1121.175, 19.03903
1121.657, 19.03427
1122.139, 19.39444
1122.621, 19.52821
1123.103, 19.26161
1123.585, 19.08646
1124.067, 19.26177
1124.549, 19.51260
1125.031, 19.52439
1125.514, 19.35516
1125.996, 19.27921
1126.478, 19.31226
1126.960, 19.36795
1127.442, 19.46873
1127.924, 19.45280
1128.406, 19.22938
1128.888, 19.05599
1129.370, 19.15962
1129.853, 19.40558
1130.335, 19.48374
1130.817, 19.39458
1131.299, 19.24130
1131.781, 19.01562
1132.263, 18.89205
1132.745, 18.90746
1133.227, 19.00024
1133.710, 19.14373
1134.192, 19.27899
1134.674, 19.31573
1135.156, 19.27464
1135.638, 19.23633
1136.120, 19.19953
1136.602, 19.15219
1137.084, 19.09367
1137.567, 19.03101
1138.049, 18.96721
1138.531, 18.90775
1139.013, 18.85449
1139.495, 18.81717
1139.977, 18.81310
1140.459, 18.84093
1140.941, 18.93438
1141.423, 19.05724
1141.906, 19.03398
1142.388, 18.85332
1142.870, 18.76586
1143.352, 18.94561
1143.834, 19.15823
1144.316, 19.13357
1144.798, 18.96064
1145.280, 18.68240
1145.762, 18.40055
1146.245, 18.33904
1146.727, 18.46848
1147.209, 18.57584
1147.691, 18.57867
1148.173, 18.56944
1148.655, 18.64794
1149.137, 18.71196
1149.619, 18.68100
1150.102, 18.57923
1150.584, 18.35922
1151.066, 18.11919
1151.548, 18.05573
1152.030, 18.19047
1152.512, 18.35146
1152.994, 18.47812
1153.476, 18.58592
1153.958, 18.75403
1154.441, 18.82564
1154.923, 18.54545
1155.405, 18.21506
1155.887, 18.22661
1156.369, 18.52577
1156.851, 18.80923
1157.333, 19.06768
1157.815, 19.12110
1158.297, 18.67463
1158.780, 18.36561
1159.262, 18.54303
1159.744, 18.78086
1160.226, 18.72350
1160.708, 18.53294
1161.190, 18.55743
1161.672, 18.82356
1162.154, 18.94104
1162.637, 18.85830
1163.119, 18.72046
1163.601, 18.51366
1164.083, 18.28739
1164.565, 18.00822
1165.047, 17.79549
1165.529, 17.78519
1166.011, 17.93996
1166.494, 18.11894
1166.976, 18.33714
1167.458, 18.51406
1167.940, 18.65912
1168.422, 18.71137
1168.904, 18.65022
1169.386, 18.51147
1169.868, 18.29812
1170.350, 18.10965
1170.833, 18.14217
1171.315, 18.34018
1171.797, 18.35884
1172.279, 18.21657
1172.761, 18.11867
1173.243, 18.08822
1173.725, 18.07763
1174.207, 18.06903
1174.689, 18.10476
1175.172, 18.23554
1175.654, 18.39577
1176.136, 18.46413
1176.618, 18.47980
1177.100, 18.56867
1177.582, 18.67620
1178.064, 18.59304
1178.546, 18.33108
1179.029, 18.15828
1179.511, 18.21003
1179.993, 18.29435
1180.475, 18.20528
1180.957, 18.11259
1181.439, 18.22482
1181.921, 18.40212
1182.403, 18.45953
1182.885, 18.43447
1183.368, 18.46162
1183.850, 18.55949
1184.332, 18.58648
1184.814, 18.38797
1185.296, 18.28555
1185.778, 18.61905
1186.260, 18.84754
1186.742, 18.45046
1187.225, 17.92872
1187.707, 17.87722
1188.189, 18.19092
1188.671, 18.37739
1189.153, 18.36254
1189.635, 18.32977
1190.117, 18.26724
1190.599, 18.22242
1191.082, 18.21241
1191.564, 18.20883
1192.046, 18.20998
1192.528, 18.19000
1193.010, 18.08232
1193.492, 17.91727
1193.974, 17.96808
1194.456, 18.28674
1194.938, 18.57055
1195.421, 18.83007
1195.903, 18.87350
1196.385, 18.61093
1196.867, 18.36798
1197.349, 18.40794
1197.831, 18.51648
1198.313, 18.19806
1198.795, 17.62052
1199.277, 17.73589
1199.760, 18.37279
1200.242, 18.57721
1200.724, 18.30756
1201.206, 18.16325
1201.688, 18.36418
1202.170, 18.64325
1202.652, 18.80911
1203.134, 18.87046
1203.617, 18.80216
1204.099, 18.66507
1204.581, 18.51854
1205.063, 18.38396
1205.545, 18.23396
1206.027, 18.12258
1206.509, 18.29255
1206.991, 18.86967
1207.474, 19.22349
1207.956, 18.79455
1208.438, 18.35095
1208.920, 18.26146
1209.402, 18.34228
1209.884, 18.59160
1210.366, 18.82686
1210.848, 18.69021
1211.330, 18.22610
1211.813, 18.09265
1212.295, 18.67386
1212.777, 18.94174
1213.259, 18.58969
1213.741, 18.39526
1214.223, 18.69364
1214.705, 18.97565
1215.187, 18.86476
1215.669, 18.54865
1216.152, 18.36809
1216.634, 18.31413
1217.116, 18.22636
1217.598, 18.09300
1218.080, 18.11908
1218.562, 18.33855
1219.044, 18.40094
1219.526, 18.18019
1220.009, 17.88586
1220.491, 17.66719
1220.973, 17.58001
1221.455, 17.84997
1221.937, 18.26997
1222.419, 18.24759
1222.901, 17.93897
1223.383, 17.73174
1223.865, 17.69067
1224.348, 17.83923
1224.830, 18.16093
1225.312, 18.37849
1225.794, 18.24619
1226.276, 18.05548
1226.758, 18.00670
1227.240, 18.02094
1227.722, 18.06625
1228.204, 18.10555
1228.687, 18.05511
1229.169, 17.96338
1229.651, 18.04131
1230.133, 18.39704
1230.615, 18.50425
1231.097, 17.98921
1231.579, 17.63610
1232.061, 17.69118
1232.544, 17.82188
1233.026, 17.91149
1233.508, 17.96755
1233.990, 17.99695
1234.472, 18.00074
1234.954, 17.98501
1235.436, 17.95337
1235.918, 17.85703
1236.401, 17.68168
1236.883, 17.60867
1237.365, 17.67975
1237.847, 17.74771
1238.329, 17.73337
1238.811, 17.71183
1239.293, 17.77335
1239.775, 17.87977
1240.257, 17.96617
1240.740, 18.02924
1241.222, 18.06623
1241.704, 18.07274
1242.186, 18.02295
1242.668, 17.92886
1243.150, 17.85372
1243.632, 17.82436
1244.114, 17.82241
1244.596, 17.87799
1245.079, 17.90333
1245.561, 17.79830
1246.043, 17.68338
1246.525, 17.66232
1247.007, 17.69905
1247.489, 17.72229
1247.971, 17.73610
1248.453, 17.82325
1248.936, 18.10780
1249.418, 18.16456
1249.900, 17.85135
1250.382, 17.56790
1250.864, 17.33144
1251.346, 17.29431
1251.828, 17.60811
1252.310, 18.01312
1252.792, 18.16621
1253.275, 18.11715
1253.757, 18.02228
1254.239, 17.90001
1254.721, 18.07004
1255.203, 18.48522
1255.685, 18.62763
1256.167, 18.40380
1256.649, 18.04929
1257.131, 17.68300
1257.614, 17.45895
1258.096, 17.58843
1258.578, 17.86242
1259.060, 18.16275
1259.542, 18.35920
1260.024, 18.14139
1260.506, 17.77460
1260.988, 17.76910
1261.471, 18.09447
1261.953, 18.30100
1262.435, 18.25585
1262.917, 18.15970
1263.399, 18.01079
1263.881, 17.89224
1264.363, 17.83737
1264.845, 17.80150
1265.328, 17.69599
1265.810, 17.68740
1266.292, 18.06954
1266.774, 18.65415
1267.256, 18.59374
1267.738, 17.78185
1268.220, 17.52331
1268.702, 17.84314
1269.184, 17.86408
1269.667, 17.44126
1270.149, 17.19067
1270.631, 17.39373
1271.113, 17.79395
1271.595, 18.21455
1272.077, 18.52403
1272.559, 18.41919
1273.041, 18.16074
1273.523, 18.18164
1274.006, 18.31953
1274.488, 18.23032
1274.970, 17.95243
1275.452, 17.74429
1275.934, 17.67566
1276.416, 17.63438
1276.898, 17.52622
1277.380, 17.52042
1277.863, 17.74481
1278.345, 17.97941
1278.827, 18.14200
1279.309, 18.24678
1279.791, 18.27501
1280.273, 18.27744
1280.755, 18.38503
1281.237, 18.59482
1281.719, 18.64164
1282.202, 18.51447
1282.684, 18.33723
1283.166, 18.12368
1283.648, 18.13625
1284.130, 18.44645
1284.612, 18.70008
1285.094, 18.64798
1285.576, 18.48468
1286.059, 18.45282
1286.541, 18.46060
1287.023, 18.40866
1287.505, 18.29892
##END=



