##NAMES=Scotlandite
##RRUFFID=R060764
##IDEAL CHEMISTRY=Pb^2+^S^4+^O_3_
##LOCALITY=Lady Anne Hopetoun shaft. Leadhills, Lanarkshire, Scotland
##OWNER=RRUFF
##SOURCE=Michael Scott
##DESCRIPTION=Radiating group of colorless spear-head shaped prismatic crystals
##STATUS=The identification of this mineral is confirmed by single-crystal X-ray diffraction and chemical analysis.
##URL=rruff.info/R060764
##MEASURED CHEMISTRY=Pb_1.00_S^4+^_1.00_O_3_; trace amounts of Fe
88.744, 0.000
89.226, 0.000
89.708, 122.940
90.190, 115.259
90.672, 110.459
91.154, 110.268
91.636, 110.567
92.119, 111.608
92.601, 112.443
93.083, 111.864
93.565, 109.078
94.047, 104.488
94.529, 100.746
95.011, 97.263
95.493, 95.358
95.976, 96.496
96.458, 99.429
96.940, 101.729
97.422, 101.472
97.904, 98.466
98.386, 97.712
98.868, 101.972
99.350, 105.460
99.832, 104.822
100.315, 100.679
100.797, 96.359
101.279, 94.864
101.761, 96.713
102.243, 99.281
102.725, 103.893
103.207, 108.297
103.689, 110.465
104.172, 110.171
104.654, 109.369
105.136, 110.656
105.618, 114.592
106.100, 116.274
106.582, 112.128
107.064, 106.537
107.546, 105.110
108.028, 109.284
108.511, 116.674
108.993, 125.131
109.475, 134.693
109.957, 143.381
110.439, 149.983
110.921, 155.172
111.403, 160.802
111.885, 167.614
112.368, 174.532
112.850, 179.911
113.332, 183.627
113.814, 187.908
114.296, 195.497
114.778, 205.776
115.260, 213.042
115.742, 215.176
116.224, 213.812
116.706, 210.085
117.189, 203.760
117.671, 197.327
118.153, 192.968
118.635, 190.747
119.117, 189.867
119.599, 188.622
120.081, 189.633
120.563, 194.865
121.046, 204.799
121.528, 218.942
122.010, 237.284
122.492, 260.867
122.974, 285.653
123.456, 308.846
123.938, 333.476
124.420, 362.724
124.902, 397.818
125.385, 437.141
125.867, 477.590
126.349, 522.404
126.831, 562.379
127.313, 593.593
127.795, 621.041
128.277, 650.204
128.760, 683.622
129.242, 720.313
129.724, 756.384
130.206, 794.306
130.688, 828.279
131.170, 859.296
131.652, 885.777
132.134, 904.865
132.616, 914.297
133.098, 915.829
133.581, 921.582
134.063, 932.100
134.545, 946.727
135.027, 963.074
135.509, 983.691
135.991, 1012.828
136.473, 1053.385
136.955, 1105.139
137.438, 1162.750
137.920, 1222.038
138.402, 1290.257
138.884, 1369.469
139.366, 1459.189
139.848, 1559.934
140.330, 1672.728
140.812, 1798.189
141.294, 1917.959
141.777, 2033.660
142.259, 2143.188
142.741, 2249.345
143.223, 2349.382
143.705, 2434.291
144.187, 2496.444
144.669, 2533.852
145.151, 2562.382
145.633, 2588.030
146.116, 2601.421
146.598, 2594.138
147.080, 2567.273
147.562, 2531.390
148.044, 2494.286
148.526, 2455.837
149.008, 2416.093
149.490, 2371.896
149.973, 2328.563
150.455, 2291.591
150.937, 2261.047
151.419, 2229.679
151.901, 2188.839
152.383, 2138.408
152.865, 2096.299
153.347, 2069.285
153.829, 2048.050
154.312, 2023.112
154.794, 1993.350
155.276, 1964.416
155.758, 1941.703
156.240, 1924.844
156.722, 1911.454
157.204, 1899.052
157.686, 1890.838
158.169, 1892.450
158.651, 1905.597
159.133, 1921.957
159.615, 1933.220
160.097, 1940.615
160.579, 1949.983
161.061, 1964.296
161.543, 1980.976
162.025, 1995.904
162.508, 2008.067
162.990, 2020.125
163.472, 2033.224
163.954, 2047.564
164.436, 2065.789
164.918, 2094.038
165.400, 2125.741
165.882, 2146.107
166.365, 2149.103
166.847, 2152.236
167.329, 2172.558
167.811, 2205.465
168.293, 2237.105
168.775, 2261.526
169.257, 2280.612
169.739, 2298.436
170.221, 2315.302
170.704, 2330.850
171.186, 2342.395
171.668, 2351.910
172.150, 2366.180
172.632, 2392.429
173.114, 2426.202
173.596, 2452.963
174.078, 2467.129
174.561, 2483.067
175.043, 2508.801
175.525, 2543.423
176.007, 2584.961
176.489, 2635.364
176.971, 2692.474
177.453, 2749.414
177.935, 2805.169
178.417, 2861.710
178.900, 2918.333
179.382, 2976.424
179.864, 3039.583
180.346, 3112.270
180.828, 3192.560
181.310, 3271.372
181.792, 3351.522
182.274, 3424.819
182.757, 3484.350
183.239, 3534.228
183.721, 3584.541
184.203, 3644.075
184.685, 3709.722
185.167, 3766.235
185.649, 3810.982
186.131, 3849.236
186.613, 3890.453
187.096, 3928.475
187.578, 3950.234
188.060, 3940.983
188.542, 3907.670
189.024, 3884.854
189.506, 3881.796
189.988, 3875.941
190.470, 3855.179
190.952, 3824.936
191.435, 3795.641
191.917, 3774.470
192.399, 3759.298
192.881, 3740.574
193.363, 3716.721
193.845, 3691.364
194.327, 3665.856
194.809, 3640.121
195.292, 3613.824
195.774, 3586.478
196.256, 3558.534
196.738, 3532.477
197.220, 3512.691
197.702, 3487.440
198.184, 3449.303
198.666, 3404.433
199.148, 3362.528
199.631, 3330.058
200.113, 3303.407
200.595, 3269.967
201.077, 3228.113
201.559, 3181.746
202.041, 3131.268
202.523, 3078.421
203.005, 3025.596
203.488, 2973.556
203.970, 2922.781
204.452, 2875.016
204.934, 2831.361
205.416, 2789.163
205.898, 2748.557
206.380, 2708.336
206.862, 2667.129
207.344, 2624.342
207.827, 2580.408
208.309, 2535.153
208.791, 2486.241
209.273, 2441.336
209.755, 2402.739
210.237, 2368.535
210.719, 2338.736
211.201, 2314.233
211.684, 2289.851
212.166, 2253.911
212.648, 2199.667
213.130, 2150.635
213.612, 2110.146
214.094, 2077.918
214.576, 2056.161
215.058, 2046.600
215.540, 2040.830
216.023, 2024.481
216.505, 1993.367
216.987, 1965.180
217.469, 1943.127
217.951, 1925.561
218.433, 1913.543
218.915, 1907.364
219.397, 1901.430
219.880, 1887.103
220.362, 1861.677
220.844, 1839.561
221.326, 1827.542
221.808, 1817.135
222.290, 1802.327
222.772, 1782.236
223.254, 1762.558
223.736, 1749.589
224.219, 1743.973
224.701, 1739.931
225.183, 1740.541
225.665, 1739.455
226.147, 1732.423
226.629, 1719.414
227.111, 1704.244
227.593, 1690.139
228.076, 1677.183
228.558, 1663.476
229.040, 1650.568
229.522, 1634.836
230.004, 1610.540
230.486, 1580.104
230.968, 1554.428
231.450, 1545.044
231.932, 1550.221
232.415, 1550.281
232.897, 1540.286
233.379, 1530.309
233.861, 1527.497
234.343, 1529.523
234.825, 1529.350
235.307, 1519.489
235.789, 1503.336
236.271, 1495.752
236.754, 1501.189
237.236, 1507.813
237.718, 1511.993
238.200, 1512.670
238.682, 1507.113
239.164, 1490.111
239.646, 1467.546
240.128, 1453.517
240.611, 1451.162
241.093, 1449.261
241.575, 1442.151
242.057, 1431.872
242.539, 1420.516
243.021, 1407.066
243.503, 1394.762
243.985, 1389.403
244.467, 1392.237
244.950, 1395.119
245.432, 1395.089
245.914, 1392.659
246.396, 1387.709
246.878, 1379.051
247.360, 1370.269
247.842, 1365.275
248.324, 1364.113
248.807, 1363.354
249.289, 1361.328
249.771, 1359.456
250.253, 1360.774
250.735, 1367.407
251.217, 1370.088
251.699, 1358.912
252.181, 1336.460
252.663, 1317.160
253.146, 1304.268
253.628, 1297.574
254.110, 1297.680
254.592, 1305.309
255.074, 1311.549
255.556, 1310.607
256.038, 1305.023
256.520, 1301.254
257.003, 1300.984
257.485, 1301.874
257.967, 1302.206
258.449, 1302.078
258.931, 1298.941
259.413, 1288.352
259.895, 1275.723
260.377, 1269.160
260.859, 1270.119
261.341, 1273.424
261.824, 1274.515
262.306, 1273.641
262.788, 1273.809
263.270, 1277.470
263.752, 1280.892
264.234, 1280.889
264.716, 1277.368
265.198, 1271.431
265.681, 1262.784
266.163, 1252.138
266.645, 1245.110
267.127, 1244.718
267.609, 1244.918
268.091, 1241.044
268.573, 1234.788
269.055, 1232.760
269.538, 1240.173
270.020, 1253.005
270.502, 1254.036
270.984, 1230.619
271.466, 1213.356
271.948, 1214.161
272.430, 1225.300
272.912, 1234.909
273.394, 1238.413
273.877, 1237.729
274.359, 1236.753
274.841, 1236.662
275.323, 1234.186
275.805, 1225.248
276.287, 1215.866
276.769, 1212.887
277.251, 1217.602
277.733, 1224.781
278.216, 1227.371
278.698, 1222.841
279.180, 1220.875
279.662, 1224.157
280.144, 1227.507
280.626, 1226.898
281.108, 1222.829
281.590, 1219.398
282.073, 1221.072
282.555, 1228.825
283.037, 1229.302
283.519, 1213.926
284.001, 1200.381
284.483, 1194.289
284.965, 1194.354
285.447, 1198.171
285.930, 1205.013
286.412, 1213.218
286.894, 1213.446
287.376, 1197.641
287.858, 1184.206
288.340, 1175.207
288.822, 1170.656
289.304, 1172.362
289.786, 1181.325
290.268, 1191.693
290.751, 1189.487
291.233, 1164.891
291.715, 1152.426
292.197, 1168.677
292.679, 1190.318
293.161, 1201.250
293.643, 1198.505
294.125, 1190.083
294.608, 1184.335
295.090, 1181.560
295.572, 1177.343
296.054, 1168.010
296.536, 1160.354
297.018, 1158.313
297.500, 1161.375
297.982, 1166.577
298.465, 1173.009
298.947, 1180.162
299.429, 1185.736
299.911, 1189.157
300.393, 1191.977
300.875, 1194.858
301.357, 1197.830
301.839, 1201.116
302.321, 1206.088
302.804, 1210.393
303.286, 1209.637
303.768, 1203.287
304.250, 1198.679
304.732, 1201.090
305.214, 1206.794
305.696, 1208.589
306.178, 1203.607
306.660, 1199.401
307.143, 1203.785
307.625, 1213.734
308.107, 1217.197
308.589, 1208.153
309.071, 1194.538
309.553, 1190.371
310.035, 1196.664
310.517, 1203.001
311.000, 1207.587
311.482, 1210.286
311.964, 1210.991
312.446, 1209.696
312.928, 1205.625
313.410, 1196.233
313.892, 1179.672
314.374, 1173.938
314.857, 1190.433
315.339, 1207.964
315.821, 1212.697
316.303, 1206.194
316.785, 1197.563
317.267, 1192.685
317.749, 1191.282
318.231, 1190.564
318.713, 1192.652
319.195, 1192.938
319.678, 1189.139
320.160, 1183.332
320.642, 1178.575
321.124, 1176.130
321.606, 1174.709
322.088, 1170.830
322.570, 1157.780
323.052, 1154.707
323.535, 1170.539
324.017, 1189.281
324.499, 1200.035
324.981, 1201.261
325.463, 1197.541
325.945, 1192.638
326.427, 1185.951
326.909, 1183.136
327.392, 1186.940
327.874, 1192.190
328.356, 1198.828
328.838, 1205.399
329.320, 1208.946
329.802, 1206.668
330.284, 1200.752
330.766, 1197.269
331.248, 1196.054
331.731, 1197.898
332.213, 1208.217
332.695, 1219.595
333.177, 1223.179
333.659, 1215.197
334.141, 1203.994
334.623, 1197.015
335.105, 1194.218
335.587, 1195.728
336.070, 1205.608
336.552, 1215.275
337.034, 1213.307
337.516, 1199.227
337.998, 1187.397
338.480, 1186.719
338.962, 1191.446
339.444, 1190.864
339.927, 1182.949
340.409, 1174.869
340.891, 1172.666
341.373, 1176.405
341.855, 1181.306
342.337, 1188.686
342.819, 1195.863
343.301, 1202.226
343.784, 1207.156
344.266, 1208.188
344.748, 1202.959
345.230, 1194.343
345.712, 1192.950
346.194, 1208.081
346.676, 1218.175
347.158, 1216.490
347.640, 1210.490
348.122, 1209.399
348.605, 1215.301
349.087, 1222.020
349.569, 1220.263
350.051, 1205.386
350.533, 1196.537
351.015, 1196.321
351.497, 1198.865
351.979, 1203.811
352.462, 1209.349
352.944, 1211.387
353.426, 1205.583
353.908, 1194.217
354.390, 1191.798
354.872, 1205.239
355.354, 1216.681
355.836, 1220.641
356.319, 1220.489
356.801, 1219.577
357.283, 1218.872
357.765, 1218.551
358.247, 1218.840
358.729, 1219.752
359.211, 1221.444
359.693, 1226.653
360.175, 1229.778
360.658, 1224.242
361.140, 1210.630
361.622, 1199.637
362.104, 1199.581
362.586, 1205.025
363.068, 1204.603
363.550, 1196.554
364.032, 1188.440
364.514, 1185.012
364.997, 1186.301
365.479, 1190.859
365.961, 1202.259
366.443, 1213.492
366.925, 1220.529
367.407, 1224.189
367.889, 1226.399
368.371, 1227.785
368.853, 1228.782
369.336, 1230.512
369.818, 1235.427
370.300, 1236.478
370.782, 1230.359
371.264, 1222.121
371.746, 1214.331
372.228, 1208.249
372.711, 1206.462
373.193, 1212.431
373.675, 1226.946
374.157, 1237.098
374.639, 1239.440
375.121, 1240.900
375.603, 1245.421
376.085, 1249.698
376.567, 1247.354
377.049, 1234.622
377.532, 1217.687
378.014, 1210.432
378.496, 1216.416
378.978, 1220.363
379.460, 1215.188
379.942, 1209.620
380.424, 1209.698
380.906, 1215.775
381.389, 1223.374
381.871, 1231.288
382.353, 1238.340
382.835, 1238.622
383.317, 1229.005
383.799, 1220.334
384.281, 1222.459
384.763, 1231.625
385.246, 1239.022
385.728, 1243.718
386.210, 1245.604
386.692, 1242.476
387.174, 1235.879
387.656, 1232.421
388.138, 1235.543
388.620, 1241.491
389.102, 1241.960
389.585, 1232.648
390.067, 1228.500
390.549, 1234.798
391.031, 1244.610
391.513, 1252.828
391.995, 1258.355
392.477, 1261.468
392.959, 1262.356
393.441, 1261.023
393.924, 1257.574
394.406, 1244.787
394.888, 1237.972
395.370, 1244.653
395.852, 1257.953
396.334, 1269.202
396.816, 1274.788
397.298, 1276.382
397.780, 1275.476
398.263, 1270.386
398.745, 1270.234
399.227, 1284.384
399.709, 1297.058
400.191, 1297.508
400.673, 1287.083
401.155, 1275.879
401.638, 1270.194
402.120, 1267.996
402.602, 1263.852
403.084, 1256.845
403.566, 1252.727
404.048, 1255.921
404.530, 1264.103
405.012, 1271.996
405.494, 1282.269
405.977, 1287.358
406.459, 1277.737
406.941, 1261.101
407.423, 1253.750
407.905, 1260.521
408.387, 1273.044
408.869, 1280.899
409.351, 1282.429
409.833, 1285.903
410.316, 1294.441
410.798, 1301.929
411.280, 1302.528
411.762, 1299.295
412.244, 1301.163
412.726, 1314.293
413.208, 1333.303
413.690, 1338.739
414.172, 1319.436
414.655, 1306.620
415.137, 1302.598
415.619, 1306.364
416.101, 1321.693
416.583, 1346.942
417.065, 1369.061
417.547, 1374.340
418.029, 1365.020
418.512, 1357.811
418.994, 1352.817
419.476, 1350.702
419.958, 1352.836
420.440, 1357.937
420.922, 1364.264
421.404, 1372.140
421.886, 1380.141
422.368, 1387.042
422.851, 1393.103
423.333, 1399.598
423.815, 1407.219
424.297, 1414.360
424.779, 1418.572
425.261, 1419.248
425.743, 1419.241
426.225, 1415.187
426.708, 1413.347
427.190, 1420.312
427.672, 1433.876
428.154, 1446.246
428.636, 1452.603
429.118, 1453.731
429.600, 1452.755
430.082, 1443.722
430.565, 1442.124
431.047, 1453.391
431.529, 1469.448
432.011, 1485.544
432.493, 1500.001
432.975, 1510.782
433.457, 1513.323
433.939, 1508.735
434.421, 1510.502
434.904, 1523.302
435.386, 1533.717
435.868, 1531.743
436.350, 1523.103
436.832, 1516.306
437.314, 1511.892
437.796, 1512.282
438.278, 1522.406
438.760, 1539.445
439.243, 1553.757
439.725, 1562.597
440.207, 1567.922
440.689, 1571.357
441.171, 1572.067
441.653, 1575.591
442.135, 1582.104
442.617, 1591.446
443.099, 1607.864
443.582, 1627.197
444.064, 1638.030
444.546, 1633.252
445.028, 1619.427
445.510, 1616.046
445.992, 1629.480
446.474, 1641.365
446.957, 1654.794
447.439, 1662.880
447.921, 1657.483
448.403, 1640.631
448.885, 1624.565
449.367, 1619.041
449.849, 1621.782
450.331, 1625.242
450.813, 1630.379
451.296, 1632.830
451.778, 1628.024
452.260, 1620.261
452.742, 1615.068
453.224, 1611.430
453.706, 1614.607
454.188, 1629.123
454.670, 1651.886
455.152, 1678.328
455.635, 1707.579
456.117, 1738.086
456.599, 1767.757
457.081, 1796.340
457.563, 1831.707
458.045, 1871.344
458.527, 1919.353
459.009, 1974.653
459.491, 2039.772
459.974, 2115.034
460.456, 2200.755
460.938, 2304.316
461.420, 2436.389
461.902, 2599.052
462.384, 2780.080
462.866, 2959.064
463.348, 3180.712
463.831, 3461.229
464.313, 3797.082
464.795, 4183.766
465.277, 4629.697
465.759, 5108.561
466.241, 5594.156
466.723, 6086.729
467.205, 6582.835
467.687, 7079.050
468.170, 7590.546
468.652, 8140.564
469.134, 8727.536
469.616, 9348.344
470.098, 10024.090
470.580, 10716.320
471.062, 11466.240
471.544, 12215.170
472.026, 12837.820
472.509, 13271.550
472.991, 13474.570
473.473, 13303.450
473.955, 12648.290
474.437, 11786.050
474.919, 10593.250
475.401, 9346.572
475.883, 8180.187
476.366, 7127.485
476.848, 6199.466
477.330, 5410.471
477.812, 4748.554
478.294, 4197.746
478.776, 3765.458
479.258, 3408.707
479.740, 3130.119
480.223, 2908.825
480.705, 2709.893
481.187, 2531.041
481.669, 2379.646
482.151, 2268.252
482.633, 2181.422
483.115, 2102.979
483.597, 2031.059
484.079, 1967.833
484.561, 1915.384
485.044, 1873.378
485.526, 1838.461
486.008, 1817.097
486.490, 1795.509
486.972, 1772.552
487.454, 1748.806
487.936, 1723.621
488.418, 1697.548
488.901, 1673.341
489.383, 1653.551
489.865, 1637.937
490.347, 1625.675
490.829, 1619.157
491.311, 1610.094
491.793, 1590.728
492.275, 1567.974
492.758, 1550.988
493.240, 1542.279
493.722, 1534.219
494.204, 1522.355
494.686, 1508.361
495.168, 1493.726
495.650, 1478.947
496.132, 1467.795
496.614, 1464.819
497.097, 1469.153
497.579, 1466.386
498.061, 1446.851
498.543, 1432.707
499.025, 1433.074
499.507, 1437.974
499.989, 1436.115
500.471, 1425.585
500.953, 1413.792
501.436, 1408.058
501.918, 1408.196
502.400, 1410.628
502.882, 1416.324
503.364, 1422.346
503.846, 1429.827
504.328, 1435.925
504.810, 1435.232
505.293, 1424.035
505.775, 1415.467
506.257, 1421.310
506.739, 1433.945
507.221, 1438.791
507.703, 1433.593
508.185, 1425.990
508.667, 1421.652
509.150, 1420.594
509.632, 1423.362
510.114, 1433.763
510.596, 1443.035
511.078, 1450.580
511.560, 1455.800
512.042, 1457.751
512.524, 1456.450
513.006, 1453.212
513.489, 1448.547
513.971, 1442.772
514.453, 1438.984
514.935, 1437.436
515.417, 1437.297
515.899, 1439.893
516.381, 1442.966
516.863, 1442.525
517.346, 1436.183
517.828, 1433.549
518.310, 1444.699
518.792, 1460.356
519.274, 1464.785
519.756, 1457.030
520.238, 1450.401
520.720, 1456.179
521.202, 1471.232
521.685, 1475.111
522.167, 1454.439
522.649, 1439.287
523.131, 1435.712
523.613, 1435.796
524.095, 1432.544
524.577, 1425.516
525.059, 1419.091
525.541, 1416.603
526.024, 1417.532
526.506, 1420.872
526.988, 1427.425
527.470, 1432.689
527.952, 1436.302
528.434, 1436.391
528.916, 1429.230
529.398, 1412.856
529.880, 1399.935
530.363, 1394.424
530.845, 1394.034
531.327, 1400.211
531.809, 1410.323
532.291, 1414.653
532.773, 1406.800
533.255, 1391.326
533.737, 1381.525
534.219, 1379.781
534.702, 1379.038
535.184, 1379.014
535.666, 1379.678
536.148, 1380.498
536.630, 1381.920
537.112, 1385.608
537.594, 1394.456
538.076, 1403.681
538.559, 1404.369
539.041, 1397.268
539.523, 1393.161
540.005, 1395.684
540.487, 1401.562
540.969, 1407.533
541.451, 1413.884
541.933, 1417.351
542.416, 1417.888
542.898, 1415.473
543.380, 1406.820
543.862, 1396.035
544.344, 1390.409
544.826, 1392.706
545.308, 1398.870
545.790, 1404.447
546.273, 1410.287
546.755, 1408.140
547.237, 1391.189
547.719, 1375.796
548.201, 1369.598
548.683, 1370.220
549.165, 1375.005
549.647, 1386.012
550.129, 1394.198
550.612, 1390.303
551.094, 1380.057
551.576, 1374.179
552.058, 1374.481
552.540, 1377.866
553.022, 1381.993
553.504, 1386.876
553.986, 1392.892
554.468, 1403.437
554.951, 1410.744
555.433, 1413.257
555.915, 1412.849
556.397, 1408.680
556.879, 1402.261
557.361, 1400.132
557.843, 1410.457
558.325, 1427.449
558.807, 1435.367
559.290, 1433.609
559.772, 1429.090
560.254, 1422.793
560.736, 1416.781
561.218, 1414.943
561.700, 1417.733
562.182, 1420.200
562.664, 1423.003
563.146, 1423.966
563.629, 1418.907
564.111, 1410.981
564.593, 1408.355
565.075, 1414.849
565.557, 1424.413
566.039, 1424.946
566.521, 1413.432
567.003, 1410.094
567.486, 1424.491
567.968, 1435.709
568.450, 1428.534
568.932, 1411.701
569.414, 1402.160
569.896, 1406.165
570.378, 1413.272
570.860, 1417.771
571.343, 1420.060
571.825, 1419.933
572.307, 1417.591
572.789, 1415.997
573.271, 1417.605
573.753, 1422.165
574.235, 1427.642
574.717, 1435.820
575.200, 1442.312
575.682, 1447.513
576.164, 1450.411
576.646, 1449.160
577.128, 1444.431
577.610, 1439.706
578.092, 1435.985
578.574, 1434.517
579.056, 1439.911
579.539, 1451.625
580.021, 1457.743
580.503, 1452.343
580.985, 1443.784
581.467, 1444.187
581.949, 1456.412
582.431, 1463.757
582.913, 1463.995
583.395, 1461.703
583.878, 1456.798
584.360, 1451.413
584.842, 1448.343
585.324, 1448.525
585.806, 1450.906
586.288, 1453.859
586.770, 1457.574
587.252, 1466.120
587.734, 1482.720
588.217, 1495.037
588.699, 1494.750
589.181, 1486.760
589.663, 1480.997
590.145, 1478.636
590.627, 1475.490
591.109, 1468.682
591.591, 1461.670
592.073, 1457.620
592.556, 1456.463
593.038, 1456.836
593.520, 1458.044
594.002, 1459.781
594.484, 1461.009
594.966, 1461.065
595.448, 1463.312
595.930, 1468.833
596.413, 1475.783
596.895, 1484.123
597.377, 1492.899
597.859, 1499.782
598.341, 1503.688
598.823, 1506.480
599.305, 1509.437
599.787, 1512.088
600.269, 1513.394
600.752, 1513.267
601.234, 1512.363
601.716, 1510.452
602.198, 1508.655
602.680, 1515.631
603.162, 1542.048
603.644, 1558.177
604.127, 1554.311
604.609, 1544.390
605.091, 1535.074
605.573, 1528.134
606.055, 1526.878
606.537, 1535.466
607.019, 1548.175
607.501, 1558.632
607.983, 1567.531
608.466, 1578.314
608.948, 1592.367
609.430, 1604.356
609.912, 1607.152
610.394, 1599.869
610.876, 1598.771
611.358, 1602.830
611.840, 1614.618
612.322, 1638.728
612.805, 1668.355
613.287, 1697.672
613.769, 1725.557
614.251, 1752.445
614.733, 1777.726
615.215, 1802.642
615.697, 1829.689
616.179, 1858.656
616.661, 1888.696
617.144, 1919.461
617.626, 1950.572
618.108, 1981.462
618.590, 2012.728
619.072, 2041.249
619.554, 2068.387
620.036, 2091.569
620.518, 2112.730
621.000, 2128.143
621.483, 2132.760
621.965, 2125.261
622.447, 2109.116
622.929, 2087.078
623.411, 2058.973
623.893, 2022.662
624.375, 1977.489
624.857, 1932.386
625.340, 1891.937
625.822, 1853.051
626.304, 1808.789
626.786, 1751.463
627.268, 1710.546
627.750, 1699.100
628.232, 1691.463
628.714, 1673.940
629.196, 1651.712
629.679, 1634.919
630.161, 1627.242
630.643, 1623.457
631.125, 1618.145
631.607, 1611.782
632.089, 1607.381
632.571, 1605.799
633.054, 1600.483
633.536, 1584.852
634.018, 1565.744
634.500, 1560.148
634.982, 1575.433
635.464, 1584.979
635.946, 1586.379
636.428, 1582.093
636.910, 1569.009
637.393, 1552.217
637.875, 1540.678
638.357, 1538.148
638.839, 1540.688
639.321, 1545.849
639.803, 1552.538
640.285, 1553.153
640.767, 1546.149
641.250, 1538.313
641.732, 1532.111
642.214, 1528.560
642.696, 1531.468
643.178, 1547.142
643.660, 1554.635
644.142, 1543.603
644.624, 1532.016
645.106, 1532.486
645.589, 1540.927
646.071, 1547.277
646.553, 1547.230
647.035, 1544.740
647.517, 1545.322
647.999, 1548.029
648.481, 1546.263
648.963, 1538.385
649.445, 1533.566
649.928, 1538.665
650.410, 1549.587
650.892, 1554.762
651.374, 1549.506
651.856, 1548.452
652.338, 1555.721
652.820, 1564.188
653.302, 1570.521
653.784, 1574.582
654.267, 1576.874
654.749, 1577.552
655.231, 1576.913
655.713, 1574.471
656.195, 1570.900
656.677, 1569.606
657.159, 1571.165
657.641, 1570.893
658.123, 1564.751
658.606, 1556.415
659.088, 1555.199
659.570, 1566.091
660.052, 1574.481
660.534, 1583.521
661.016, 1586.987
661.498, 1575.381
661.981, 1557.686
662.463, 1550.463
662.945, 1559.955
663.427, 1573.410
663.909, 1580.187
664.391, 1581.278
664.873, 1576.318
665.355, 1565.610
665.837, 1561.207
666.320, 1570.526
666.802, 1587.466
667.284, 1599.667
667.766, 1606.313
668.248, 1610.126
668.730, 1609.467
669.212, 1607.982
669.694, 1607.066
670.177, 1606.167
670.659, 1603.250
671.141, 1597.525
671.623, 1595.159
672.105, 1605.480
672.587, 1619.688
673.069, 1619.969
673.551, 1608.369
674.033, 1604.633
674.516, 1618.548
674.998, 1637.687
675.480, 1640.220
675.962, 1621.781
676.444, 1609.622
676.926, 1605.476
677.408, 1605.619
677.890, 1612.562
678.372, 1620.896
678.855, 1623.632
679.337, 1619.698
679.819, 1616.672
680.301, 1620.318
680.783, 1624.912
681.265, 1623.226
681.747, 1617.677
682.229, 1616.116
682.711, 1621.112
683.194, 1626.778
683.676, 1625.282
684.158, 1616.848
684.640, 1611.588
685.122, 1610.946
685.604, 1609.805
686.086, 1603.960
686.568, 1598.984
687.050, 1600.882
687.533, 1609.605
688.015, 1620.253
688.497, 1640.249
688.979, 1652.776
689.461, 1641.568
689.943, 1619.872
690.425, 1606.831
690.907, 1606.275
691.390, 1610.171
691.872, 1611.466
692.354, 1611.947
692.836, 1618.983
693.318, 1633.432
693.800, 1643.147
694.282, 1644.415
694.764, 1641.377
695.247, 1636.390
695.729, 1629.788
696.211, 1627.803
696.693, 1633.219
697.175, 1639.335
697.657, 1649.881
698.139, 1656.734
698.621, 1648.693
699.104, 1629.777
699.586, 1615.284
700.068, 1613.413
700.550, 1620.310
701.032, 1637.277
701.514, 1659.334
701.996, 1664.868
702.478, 1650.070
702.960, 1633.053
703.443, 1626.284
703.925, 1627.401
704.407, 1627.971
704.889, 1625.943
705.371, 1627.445
705.853, 1637.188
706.335, 1645.780
706.817, 1650.071
707.299, 1649.868
707.782, 1643.661
708.264, 1629.098
708.746, 1617.539
709.228, 1617.075
709.710, 1622.558
710.192, 1627.964
710.674, 1633.303
711.156, 1641.782
711.638, 1654.973
712.121, 1668.193
712.603, 1674.239
713.085, 1672.831
713.567, 1667.771
714.049, 1656.010
714.531, 1648.627
715.013, 1652.656
715.495, 1661.725
715.977, 1666.532
716.460, 1666.604
716.942, 1667.388
717.424, 1669.662
717.906, 1672.830
718.388, 1677.707
718.870, 1682.761
719.352, 1686.009
719.834, 1687.112
720.317, 1687.158
720.799, 1688.022
721.281, 1687.599
721.763, 1677.898
722.245, 1660.837
722.727, 1654.534
723.209, 1664.560
723.691, 1680.710
724.174, 1695.148
724.656, 1707.155
725.138, 1709.276
725.620, 1692.288
726.102, 1680.180
726.584, 1675.603
727.066, 1675.681
727.548, 1681.707
728.031, 1690.843
728.513, 1695.342
728.995, 1689.672
729.477, 1686.696
729.959, 1700.555
730.441, 1718.570
730.923, 1722.505
731.405, 1713.411
731.887, 1703.148
732.370, 1697.862
732.852, 1695.257
733.334, 1690.399
733.816, 1683.080
734.298, 1683.302
734.780, 1694.081
735.262, 1703.711
735.744, 1706.717
736.226, 1705.492
736.709, 1703.826
737.191, 1701.663
737.673, 1699.251
738.155, 1696.702
738.637, 1693.793
739.119, 1687.447
739.601, 1682.372
740.083, 1685.465
740.565, 1697.006
741.048, 1709.271
741.530, 1717.981
742.012, 1723.744
742.494, 1727.161
742.976, 1728.287
743.458, 1728.776
743.940, 1728.811
744.422, 1720.094
744.904, 1691.734
745.387, 1652.592
745.869, 1647.811
746.351, 1692.436
746.833, 1725.566
747.315, 1737.835
747.797, 1739.407
748.279, 1728.980
748.761, 1713.928
749.244, 1712.567
749.726, 1734.056
750.208, 1751.488
750.690, 1753.928
751.172, 1752.288
751.654, 1754.919
752.136, 1760.108
752.618, 1763.187
753.101, 1762.426
753.583, 1758.531
754.065, 1750.269
754.547, 1739.865
755.029, 1732.132
755.511, 1727.410
755.993, 1729.896
756.475, 1742.354
756.958, 1754.885
757.440, 1754.070
757.922, 1739.740
758.404, 1736.965
758.886, 1754.143
759.368, 1767.988
759.850, 1773.954
760.332, 1774.861
760.814, 1769.493
761.297, 1760.044
761.779, 1755.510
762.261, 1763.454
762.743, 1768.298
763.225, 1755.938
763.707, 1742.321
764.189, 1748.549
764.671, 1769.109
765.153, 1781.325
765.636, 1773.488
766.118, 1758.249
766.600, 1752.332
767.082, 1753.202
767.564, 1749.842
768.046, 1741.601
768.528, 1737.673
769.010, 1742.776
769.492, 1752.509
769.975, 1760.796
770.457, 1768.058
770.939, 1769.966
771.421, 1758.208
771.903, 1754.012
772.385, 1771.536
772.867, 1792.027
773.349, 1798.524
773.831, 1792.064
774.314, 1786.299
774.796, 1786.754
775.278, 1786.179
775.760, 1780.333
776.242, 1772.315
776.724, 1763.495
777.206, 1755.648
777.688, 1752.967
778.171, 1758.122
778.653, 1767.223
779.135, 1776.550
779.617, 1785.429
780.099, 1791.664
780.581, 1795.040
781.063, 1792.447
781.545, 1781.023
782.028, 1768.264
782.510, 1768.104
782.992, 1783.157
783.474, 1789.424
783.956, 1781.587
784.438, 1774.139
784.920, 1768.375
785.402, 1767.220
785.885, 1775.415
786.367, 1792.010
786.849, 1806.682
787.331, 1816.459
787.813, 1825.172
788.295, 1837.406
788.777, 1846.880
789.259, 1845.183
789.741, 1834.758
790.224, 1824.946
790.706, 1819.945
791.188, 1818.433
791.670, 1820.322
792.152, 1824.221
792.634, 1826.552
793.116, 1827.409
793.598, 1829.969
794.080, 1835.869
794.563, 1841.920
795.045, 1843.496
795.527, 1840.607
796.009, 1834.365
796.491, 1822.499
796.973, 1814.504
797.455, 1814.008
797.937, 1817.516
798.419, 1823.072
798.902, 1830.307
799.384, 1833.209
799.866, 1826.241
800.348, 1822.463
800.830, 1830.350
801.312, 1836.524
801.794, 1824.860
802.276, 1804.539
802.758, 1800.351
803.241, 1823.744
803.723, 1846.740
804.205, 1846.202
804.687, 1837.257
805.169, 1839.151
805.651, 1849.128
806.133, 1854.708
806.615, 1852.094
807.098, 1850.767
807.580, 1862.932
808.062, 1883.851
808.544, 1895.488
809.026, 1897.762
809.508, 1896.756
809.990, 1893.613
810.472, 1887.954
810.955, 1877.389
811.437, 1864.947
811.919, 1866.191
812.401, 1892.219
812.883, 1908.702
813.365, 1908.682
813.847, 1905.019
814.329, 1899.830
814.812, 1896.193
815.294, 1901.234
815.776, 1918.119
816.258, 1926.411
816.740, 1910.156
817.222, 1895.242
817.704, 1897.961
818.186, 1910.162
818.668, 1923.837
819.151, 1935.573
819.633, 1939.154
820.115, 1925.966
820.597, 1910.670
821.079, 1913.655
821.561, 1927.889
822.043, 1936.344
822.525, 1937.567
823.007, 1939.661
823.490, 1947.356
823.972, 1957.487
824.454, 1964.654
824.936, 1968.840
825.418, 1971.028
825.900, 1970.756
826.382, 1970.498
826.864, 1970.480
827.346, 1972.283
827.829, 1978.994
828.311, 1990.763
828.793, 1996.574
829.275, 1989.587
829.757, 1986.663
830.239, 1991.181
830.721, 1998.873
831.203, 2009.688
831.685, 2021.214
832.168, 2027.523
832.650, 2026.258
833.132, 2023.473
833.614, 2018.810
834.096, 2015.851
834.578, 2018.964
835.060, 2025.123
835.542, 2029.218
836.024, 2029.921
836.507, 2028.808
836.989, 2025.497
837.471, 2022.449
837.953, 2022.188
838.435, 2025.149
838.917, 2033.780
839.399, 2047.858
839.881, 2063.187
840.364, 2077.671
840.846, 2087.823
841.328, 2082.646
841.810, 2062.370
842.292, 2052.552
842.774, 2055.400
843.256, 2064.654
843.738, 2078.851
844.221, 2095.841
844.703, 2113.872
845.185, 2133.650
845.667, 2142.199
846.149, 2131.169
846.631, 2122.571
847.113, 2117.909
847.595, 2119.283
848.078, 2133.338
848.560, 2154.693
849.042, 2166.131
849.524, 2160.975
850.006, 2155.762
850.488, 2153.323
850.970, 2153.244
851.452, 2156.246
851.934, 2161.045
852.417, 2164.845
852.899, 2167.393
853.381, 2173.449
853.863, 2191.888
854.345, 2209.748
854.827, 2211.459
855.309, 2204.924
855.791, 2202.201
856.273, 2205.866
856.756, 2216.481
857.238, 2235.339
857.720, 2255.648
858.202, 2265.113
858.684, 2266.953
859.166, 2274.426
859.648, 2288.112
860.130, 2305.415
860.612, 2325.990
861.095, 2344.548
861.577, 2354.049
862.059, 2355.461
862.541, 2357.381
863.023, 2356.650
863.505, 2372.028
863.987, 2417.230
864.469, 2457.516
864.951, 2465.408
865.434, 2451.024
865.916, 2444.098
866.398, 2445.770
866.880, 2452.354
867.362, 2465.090
867.844, 2481.073
868.326, 2503.756
868.808, 2526.298
869.291, 2540.659
869.773, 2546.898
870.255, 2552.602
870.737, 2559.491
871.219, 2566.411
871.701, 2569.865
872.183, 2575.688
872.665, 2594.559
873.148, 2619.375
873.630, 2631.150
874.112, 2622.468
874.594, 2612.317
875.076, 2615.980
875.558, 2624.298
876.040, 2625.706
876.522, 2623.466
877.005, 2626.099
877.487, 2634.849
877.969, 2643.868
878.451, 2649.068
878.933, 2651.297
879.415, 2652.194
879.897, 2651.407
880.379, 2646.795
880.861, 2638.443
881.344, 2628.940
881.826, 2619.033
882.308, 2614.452
882.790, 2627.102
883.272, 2654.240
883.754, 2656.323
884.236, 2627.422
884.718, 2617.677
885.200, 2646.134
885.683, 2672.743
886.165, 2661.610
886.647, 2626.087
887.129, 2614.398
887.611, 2641.853
888.093, 2654.262
888.575, 2640.917
889.057, 2628.490
889.539, 2628.215
890.022, 2633.469
890.504, 2637.210
890.986, 2639.411
891.468, 2638.908
891.950, 2633.593
892.432, 2628.369
892.914, 2619.564
893.396, 2615.531
893.878, 2628.278
894.361, 2648.503
894.843, 2655.323
895.325, 2641.832
895.807, 2631.289
896.289, 2636.490
896.771, 2644.247
897.253, 2639.138
897.735, 2635.263
898.218, 2659.205
898.700, 2706.403
899.182, 2740.664
899.664, 2740.311
900.146, 2729.868
900.628, 2729.352
901.110, 2733.791
901.592, 2736.056
902.075, 2736.854
902.557, 2741.189
903.039, 2750.299
903.521, 2757.363
904.003, 2749.179
904.485, 2741.132
904.967, 2771.234
905.449, 2829.079
905.932, 2875.791
906.414, 2905.426
906.896, 2927.174
907.378, 2945.356
907.860, 2965.187
908.342, 2998.783
908.824, 3044.031
909.306, 3073.824
909.788, 3086.571
910.271, 3112.197
910.753, 3160.268
911.235, 3219.266
911.717, 3281.053
912.199, 3343.874
912.681, 3400.792
913.163, 3450.047
913.645, 3499.739
914.127, 3548.386
914.610, 3603.082
915.092, 3666.896
915.574, 3739.138
916.056, 3821.336
916.538, 3914.167
917.020, 3999.507
917.502, 4064.949
917.984, 4145.475
918.466, 4254.629
918.949, 4370.150
919.431, 4483.484
919.913, 4592.010
920.395, 4687.104
920.877, 4761.012
921.359, 4851.782
921.841, 4972.739
922.323, 5097.942
922.805, 5223.081
923.288, 5345.370
923.770, 5461.146
924.252, 5572.574
924.734, 5691.898
925.216, 5831.780
925.698, 5956.429
926.180, 6024.490
926.662, 6104.696
927.145, 6270.438
927.627, 6462.232
928.109, 6586.571
928.591, 6636.409
929.073, 6690.826
929.555, 6798.791
930.037, 6905.875
930.519, 6973.300
931.002, 7023.605
931.484, 7078.352
931.966, 7137.485
932.448, 7198.897
932.930, 7260.557
933.412, 7304.650
933.894, 7309.500
934.376, 7295.992
934.859, 7288.040
935.341, 7279.125
935.823, 7258.873
936.305, 7225.230
936.787, 7175.804
937.269, 7108.695
937.751, 7037.327
938.233, 6983.554
938.715, 6932.788
939.198, 6849.214
939.680, 6741.260
940.162, 6641.448
940.644, 6556.591
941.126, 6471.431
941.608, 6375.979
942.090, 6270.524
942.572, 6151.824
943.054, 6023.338
943.537, 5899.489
944.019, 5780.804
944.501, 5667.170
944.983, 5558.452
945.465, 5445.980
945.947, 5319.503
946.429, 5187.149
946.911, 5077.186
947.393, 4989.004
947.876, 4890.930
948.358, 4778.029
948.840, 4681.022
949.322, 4617.817
949.804, 4559.665
950.286, 4463.163
950.768, 4333.947
951.250, 4229.151
951.732, 4150.792
952.215, 4083.549
952.697, 4026.947
953.179, 3971.509
953.661, 3911.034
954.143, 3848.106
954.625, 3788.942
955.107, 3734.111
955.589, 3671.084
956.072, 3594.782
956.554, 3527.392
957.036, 3475.821
957.518, 3430.358
958.000, 3384.616
958.482, 3338.845
958.964, 3293.948
959.446, 3248.687
959.929, 3208.441
960.411, 3169.676
960.893, 3144.000
961.375, 3144.415
961.857, 3147.590
962.339, 3130.669
962.821, 3097.238
963.303, 3067.180
963.786, 3036.604
964.268, 3016.766
964.750, 3011.906
965.232, 3012.107
965.714, 3019.517
966.196, 3026.017
966.678, 3021.310
967.160, 3006.087
967.642, 2991.946
968.125, 2969.873
968.607, 2962.837
969.089, 2988.229
969.571, 3010.851
970.053, 3013.735
970.535, 3004.802
971.017, 2990.759
971.499, 2971.928
971.981, 2966.526
972.464, 2992.253
972.946, 3008.778
973.428, 3005.203
973.910, 2994.238
974.392, 2979.333
974.874, 2963.913
975.356, 2953.137
975.838, 2947.757
976.320, 2942.932
976.803, 2943.855
977.285, 2936.947
977.767, 2914.277
978.249, 2886.079
978.731, 2853.732
979.213, 2823.326
979.695, 2809.866
980.177, 2819.523
980.659, 2816.102
981.142, 2782.853
981.624, 2744.423
982.106, 2705.932
982.588, 2670.598
983.070, 2642.051
983.552, 2618.591
984.034, 2594.466
984.516, 2566.768
984.999, 2547.204
985.481, 2547.651
985.963, 2547.293
986.445, 2536.276
986.927, 2519.020
987.409, 2497.169
987.891, 2473.630
988.373, 2455.481
988.856, 2446.279
989.338, 2436.094
989.820, 2418.047
990.302, 2407.455
990.784, 2408.662
991.266, 2407.004
991.748, 2402.635
992.230, 2387.441
992.713, 2386.226
993.195, 2379.409
993.677, 2372.362
994.159, 2373.116
994.641, 2359.495
995.123, 2360.126
995.605, 2355.066
996.087, 2352.612
996.569, 2344.519
997.052, 2338.167
997.534, 2337.456
998.016, 2333.622
998.498, 2324.879
998.980, 2316.678
999.462, 2319.504
999.944, 2314.651
1000.426, 2312.170
1000.908, 2317.371
1001.391, 2318.316
1001.873, 2312.579
1002.355, 2315.631
1002.837, 2302.980
1003.319, 2304.108
1003.801, 2311.182
1004.283, 2305.831
1004.765, 2309.023
1005.247, 2308.962
1005.730, 2294.112
1006.212, 2304.979
1006.694, 2304.726
1007.176, 2293.052
1007.658, 2303.039
1008.140, 2292.940
1008.622, 2290.011
1009.104, 2292.477
1009.587, 2289.316
1010.069, 2290.024
1010.551, 2287.660
1011.033, 2287.349
1011.515, 2288.578
1011.997, 2289.247
1012.479, 2288.220
1012.961, 2285.361
1013.443, 2279.083
1013.926, 2270.173
1014.408, 2265.199
1014.890, 2268.856
1015.372, 2272.606
1015.854, 2271.427
1016.336, 2270.585
1016.818, 2276.621
1017.300, 2283.885
1017.783, 2281.832
1018.265, 2270.798
1018.747, 2265.389
1019.229, 2275.922
1019.711, 2283.368
1020.193, 2277.773
1020.675, 2270.269
1021.157, 2268.233
1021.639, 2269.020
1022.122, 2267.410
1022.604, 2263.521
1023.086, 2263.977
1023.568, 2276.744
1024.050, 2284.136
1024.532, 2278.686
1025.014, 2268.708
1025.496, 2253.436
1025.979, 2240.221
1026.461, 2240.812
1026.943, 2254.307
1027.425, 2263.329
1027.907, 2258.528
1028.389, 2258.005
1028.871, 2264.590
1029.353, 2277.620
1029.835, 2305.369
1030.318, 2333.823
1030.800, 2343.014
1031.282, 2334.308
1031.764, 2330.832
1032.246, 2344.163
1032.728, 2349.363
1033.210, 2337.149
1033.692, 2323.090
1034.175, 2308.219
1034.657, 2299.352
1035.139, 2309.251
1035.621, 2334.762
1036.103, 2348.279
1036.585, 2342.640
1037.067, 2334.198
1037.549, 2318.282
1038.031, 2306.469
1038.514, 2303.653
1038.996, 2306.496
1039.478, 2313.927
1039.960, 2324.588
1040.442, 2329.821
1040.924, 2323.190
1041.406, 2324.277
1041.888, 2342.563
1042.370, 2353.345
1042.853, 2341.452
1043.335, 2327.134
1043.817, 2331.071
1044.299, 2348.617
1044.781, 2358.826
1045.263, 2354.625
1045.745, 2364.572
1046.227, 2397.401
1046.710, 2425.264
1047.192, 2441.031
1047.674, 2446.321
1048.156, 2437.842
1048.638, 2423.492
1049.120, 2430.454
1049.602, 2466.160
1050.084, 2484.631
1050.567, 2483.965
1051.049, 2471.446
1051.531, 2444.754
1052.013, 2420.670
1052.495, 2413.504
1052.977, 2414.687
1053.459, 2402.771
1053.941, 2376.737
1054.423, 2362.704
1054.906, 2361.856
1055.388, 2362.003
1055.870, 2360.775
1056.352, 2357.343
1056.834, 2350.854
1057.316, 2343.105
1057.798, 2336.488
1058.280, 2331.342
1058.762, 2333.523
1059.245, 2341.998
1059.727, 2335.477
1060.209, 2310.805
1060.691, 2291.184
1061.173, 2289.538
1061.655, 2293.543
1062.137, 2283.381
1062.619, 2267.705
1063.102, 2278.433
1063.584, 2308.331
1064.066, 2327.335
1064.548, 2332.555
1065.030, 2334.518
1065.512, 2337.823
1065.994, 2340.267
1066.476, 2339.826
1066.958, 2336.833
1067.441, 2331.194
1067.923, 2323.718
1068.405, 2312.517
1068.887, 2301.184
1069.369, 2303.582
1069.851, 2322.567
1070.333, 2340.659
1070.815, 2345.833
1071.297, 2342.310
1071.780, 2327.242
1072.262, 2311.605
1072.744, 2310.774
1073.226, 2320.900
1073.708, 2334.230
1074.190, 2347.588
1074.672, 2356.810
1075.154, 2360.346
1075.637, 2357.625
1076.119, 2339.264
1076.601, 2323.475
1077.083, 2329.656
1077.565, 2345.964
1078.047, 2356.117
1078.529, 2358.832
1079.011, 2360.266
1079.493, 2363.043
1079.976, 2362.317
1080.458, 2355.240
1080.940, 2345.609
1081.422, 2328.153
1081.904, 2314.962
1082.386, 2323.393
1082.868, 2345.324
1083.350, 2354.768
1083.833, 2344.851
1084.315, 2337.825
1084.797, 2333.721
1085.279, 2336.120
1085.761, 2357.312
1086.243, 2373.179
1086.725, 2358.540
1087.207, 2333.700
1087.689, 2340.500
1088.172, 2383.632
1088.654, 2399.854
1089.136, 2374.924
1089.618, 2357.756
1090.100, 2354.475
1090.582, 2360.435
1091.064, 2377.974
1091.546, 2394.424
1092.028, 2391.438
1092.511, 2372.692
1092.993, 2363.271
1093.475, 2364.083
1093.957, 2366.071
1094.439, 2368.750
1094.921, 2369.433
1095.403, 2366.463
1095.885, 2368.949
1096.368, 2387.566
1096.850, 2411.552
1097.332, 2413.109
1097.814, 2396.543
1098.296, 2383.292
1098.778, 2374.416
1099.260, 2369.090
1099.742, 2367.450
1100.224, 2373.925
1100.707, 2392.360
1101.189, 2411.383
1101.671, 2414.188
1102.153, 2409.352
1102.635, 2413.981
1103.117, 2422.153
1103.599, 2416.896
1104.081, 2401.424
1104.563, 2395.783
1105.046, 2407.822
1105.528, 2425.415
1106.010, 2454.533
1106.492, 2468.495
1106.974, 2424.891
1107.456, 2371.197
1107.938, 2361.430
1108.420, 2381.665
1108.903, 2398.544
1109.385, 2405.004
1109.867, 2407.266
1110.349, 2402.433
1110.831, 2401.700
1111.313, 2415.141
1111.795, 2426.201
1112.277, 2415.861
1112.760, 2404.474
1113.242, 2424.561
1113.724, 2468.921
1114.206, 2487.485
1114.688, 2464.848
1115.170, 2444.490
1115.652, 2422.153
1116.134, 2410.102
1116.616, 2417.488
1117.099, 2426.323
1117.581, 2420.345
1118.063, 2410.678
1118.545, 2424.876
1119.027, 2464.875
1119.509, 2472.159
1119.991, 2439.942
1120.473, 2426.456
1120.955, 2443.654
1121.438, 2452.004
1121.920, 2430.385
1122.402, 2403.793
1122.884, 2402.680
1123.366, 2419.303
1123.848, 2432.795
1124.330, 2442.981
1124.812, 2447.726
1125.295, 2447.914
1125.777, 2447.715
1126.259, 2448.739
1126.741, 2453.454
1127.223, 2464.578
1127.705, 2475.625
1128.187, 2480.894
1128.669, 2479.673
1129.151, 2463.996
1129.634, 2444.760
1130.116, 2441.937
1130.598, 2454.345
1131.080, 2468.530
1131.562, 2480.252
1132.044, 2487.636
1132.526, 2489.996
1133.008, 2487.566
1133.490, 2474.214
1133.973, 2462.186
1134.455, 2462.845
1134.937, 2471.523
1135.419, 2479.802
1135.901, 2486.805
1136.383, 2494.028
1136.865, 2505.689
1137.347, 2510.757
1137.830, 2502.389
1138.312, 2497.147
1138.794, 2504.028
1139.276, 2511.346
1139.758, 2505.986
1140.240, 2494.213
1140.722, 2497.166
1141.204, 2517.519
1141.687, 2528.865
1142.169, 2530.902
1142.651, 2523.527
1143.133, 2505.428
1143.615, 2497.286
1144.097, 2511.731
1144.579, 2533.734
1145.061, 2544.418
1145.543, 2545.860
1146.026, 2540.936
1146.508, 2532.122
1146.990, 2528.785
1147.472, 2529.412
1147.954, 2522.454
1148.436, 2506.324
1148.918, 2496.572
1149.400, 2504.216
1149.882, 2519.143
1150.365, 2538.804
1150.847, 2554.706
1151.329, 2553.606
1151.811, 2546.449
1152.293, 2551.885
1152.775, 2565.484
1153.257, 2565.451
1153.739, 2543.719
1154.222, 2529.007
1154.704, 2530.696
1155.186, 2538.545
1155.668, 2556.698
1156.150, 2572.512
1156.632, 2576.368
1157.114, 2574.642
1157.596, 2574.513
1158.078, 2576.113
1158.561, 2581.500
1159.043, 2592.743
1159.525, 2599.711
1160.007, 2601.373
1160.489, 2601.057
1160.971, 2599.110
1161.453, 2599.002
1161.935, 2603.460
1162.417, 2610.679
1162.900, 2618.088
1163.382, 2625.365
1163.864, 2631.292
1164.346, 2635.774
1164.828, 2637.965
1165.310, 2638.213
1165.792, 2637.511
1166.274, 2636.588
1166.757, 2639.292
1167.239, 2650.591
1167.721, 2662.627
1168.203, 2668.710
1168.685, 2671.064
1169.167, 2667.503
1169.649, 2664.480
1170.131, 2673.744
1170.614, 2692.652
1171.096, 2706.288
1171.578, 2710.342
1172.060, 2712.178
1172.542, 2712.688
1173.024, 2712.185
1173.506, 2702.716
1173.988, 2702.365
1174.470, 2732.917
1174.953, 2766.693
1175.435, 2759.604
1175.917, 2718.519
1176.399, 2706.336
1176.881, 2728.080
1177.363, 2744.479
1177.845, 2753.514
1178.327, 2755.720
1178.809, 2750.869
1179.292, 2749.648
1179.774, 2760.170
1180.256, 2774.011
1180.738, 2778.927
1181.220, 2777.235
1181.702, 2769.129
1182.184, 2760.656
1182.666, 2768.622
1183.149, 2788.929
1183.631, 2803.294
1184.113, 2807.045
1184.595, 2811.863
1185.077, 2825.670
1185.559, 2839.080
1186.041, 2846.037
1186.523, 2851.663
1187.005, 2860.959
1187.488, 2869.431
1187.970, 2870.343
1188.452, 2866.220
1188.934, 2866.793
1189.416, 2874.155
1189.898, 2875.735
1190.380, 2862.178
1190.862, 2867.311
1191.344, 2902.892
1191.827, 2935.615
1192.309, 2950.982
1192.791, 2954.979
1193.273, 2951.829
1193.755, 2946.560
1194.237, 2954.877
1194.719, 2973.322
1195.201, 2982.539
1195.684, 2985.342
1196.166, 3001.846
1196.648, 3030.292
1197.130, 3040.397
1197.612, 3018.613
1198.094, 2995.119
1198.576, 2994.838
1199.058, 3002.677
1199.541, 3003.174
1200.023, 3008.894
1200.505, 3044.020
1200.987, 3085.143
1201.469, 3093.033
1201.951, 3070.268
1202.433, 3053.300
1202.915, 3049.514
1203.397, 3045.526
1203.880, 3035.144
1204.362, 3035.715
1204.844, 3058.173
1205.326, 3075.697
1205.808, 3071.493
1206.290, 3059.599
1206.772, 3059.061
1207.254, 3066.144
1207.736, 3067.168
1208.219, 3062.022
1208.701, 3043.693
1209.183, 3016.816
1209.665, 3012.465
1210.147, 3033.908
1210.629, 3053.365
1211.111, 3056.296
1211.593, 3051.002
1212.076, 3039.950
1212.558, 3029.603
1213.040, 3026.100
1213.522, 3025.780
1214.004, 3025.710
1214.486, 3025.623
1214.968, 3024.694
1215.450, 3023.503
1215.932, 3027.303
1216.415, 3046.483
1216.897, 3046.520
1217.379, 3009.722
1217.861, 2989.088
1218.343, 3004.560
1218.825, 3015.646
1219.307, 2995.761
1219.789, 2969.301
1220.271, 2972.263
1220.754, 2992.945
1221.236, 2984.039
1221.718, 2953.819
1222.200, 2941.135
1222.682, 2946.132
1223.164, 2962.351
1223.646, 2984.785
1224.128, 3000.009
1224.611, 3001.733
1225.093, 2992.330
1225.575, 2960.199
1226.057, 2934.397
1226.539, 2939.573
1227.021, 2955.109
1227.503, 2969.297
1227.985, 2978.562
1228.468, 2977.575
1228.950, 2967.787
1229.432, 2960.367
1229.914, 2953.960
1230.396, 2956.115
1230.878, 2970.057
1231.360, 2982.393
1231.842, 2991.311
1232.324, 2994.349
1232.807, 2989.706
1233.289, 2982.493
1233.771, 2976.993
1234.253, 2976.188
1234.735, 2991.674
1235.217, 3014.160
1235.699, 3020.453
1236.181, 3016.644
1236.663, 3019.491
1237.146, 3029.543
1237.628, 3038.005
1238.110, 3041.928
1238.592, 3041.987
1239.074, 3023.219
1239.556, 3022.891
1240.038, 3075.188
1240.520, 3123.744
1241.003, 3134.302
1241.485, 3130.284
1241.967, 3130.231
1242.449, 3133.518
1242.931, 3139.096
1243.413, 3147.065
1243.895, 3149.828
1244.377, 3147.406
1244.859, 3152.391
1245.342, 3165.986
1245.824, 3184.102
1246.306, 3204.814
1246.788, 3224.637
1247.270, 3242.936
1247.752, 3251.293
1248.234, 3231.272
1248.716, 3206.615
1249.198, 3195.875
1249.681, 3198.433
1250.163, 3221.713
1250.645, 3253.089
1251.127, 3267.099
1251.609, 3261.113
1252.091, 3255.203
1252.573, 3248.954
1253.055, 3247.282
1253.538, 3251.343
1254.020, 3256.145
1254.502, 3259.008
1254.984, 3271.000
1255.466, 3301.050
1255.948, 3329.800
1256.430, 3328.837
1256.912, 3312.289
1257.395, 3315.327
1257.877, 3327.200
1258.359, 3317.774
1258.841, 3298.891
1259.323, 3308.118
1259.805, 3340.942
1260.287, 3352.754
1260.769, 3326.544
1261.251, 3308.611
1261.734, 3326.625
1262.216, 3340.459
1262.698, 3332.792
1263.180, 3326.479
1263.662, 3332.734
1264.144, 3341.915
1264.626, 3343.493
1265.108, 3344.531
1265.590, 3365.326
1266.073, 3402.316
1266.555, 3418.739
1267.037, 3415.664
1267.519, 3391.971
1268.001, 3353.939
1268.483, 3326.379
1268.965, 3317.114
1269.447, 3322.765
1269.930, 3345.536
1270.412, 3362.849
1270.894, 3357.894
1271.376, 3344.569
1271.858, 3322.487
1272.340, 3303.594
1272.822, 3294.796
##END=



