##NAMES=Searlesite
##RRUFFID=R060076
##IDEAL CHEMISTRY=NaBSi_2_O_5_(OH)_2_
##LOCALITY=near Cave Spring, Esperalda County, Nevada, USA
##OWNER=RRUFF
##SOURCE=Dave Bunk Minerals
##DESCRIPTION=Colorless prismatic single crystals
##STATUS=The identification of this mineral has been confirmed by single-crystal X-ray diffraction.
##URL=rruff.info/R060076
93.88477, 81.60315
94.36688, 77.52991
94.84900, 78.84445
95.33112, 84.92651
95.81323, 92.84312
96.29535, 101.3317
96.77747, 110.4739
97.25958, 120.6447
97.74170, 131.9079
98.22382, 144.3098
98.70593, 157.7005
99.18805, 172.1251
99.67017, 187.7475
100.1523, 204.8217
100.6344, 223.3132
101.1165, 242.1839
101.5986, 261.2268
102.0807, 280.5136
102.5629, 299.5358
103.0450, 318.4622
103.5271, 337.1048
104.0092, 355.0812
104.4913, 372.5954
104.9734, 389.4349
105.4556, 405.8239
105.9377, 421.6200
106.4198, 436.8990
106.9019, 450.8266
107.3840, 464.7469
107.8661, 479.9788
108.3483, 496.7191
108.8304, 514.7924
109.3125, 534.1541
109.7946, 554.8713
110.2767, 577.1526
110.7588, 601.8404
111.2410, 628.1171
111.7231, 654.6716
112.2052, 682.0209
112.6873, 709.4891
113.1694, 737.0276
113.6515, 765.3826
114.1337, 793.1110
114.6158, 820.2648
115.0979, 846.5951
115.5800, 871.9217
116.0621, 896.1146
116.5442, 919.2044
117.0264, 940.8590
117.5085, 961.4700
117.9906, 980.7304
118.4727, 998.7446
118.9548, 1015.443
119.4369, 1030.297
119.9191, 1041.865
120.4012, 1052.091
120.8833, 1062.849
121.3654, 1075.361
121.8475, 1088.298
122.3296, 1100.781
122.8118, 1112.790
123.2939, 1124.931
123.7760, 1137.157
124.2581, 1149.773
124.7402, 1163.546
125.2223, 1179.145
125.7045, 1195.677
126.1866, 1211.888
126.6687, 1227.547
127.1508, 1243.825
127.6329, 1262.588
128.1150, 1283.045
128.5972, 1303.284
129.0793, 1321.822
129.5614, 1339.273
130.0435, 1356.568
130.5256, 1373.657
131.0077, 1390.985
131.4899, 1409.410
131.9720, 1428.864
132.4541, 1447.855
132.9362, 1460.546
133.4183, 1465.607
133.9004, 1469.635
134.3826, 1472.510
134.8647, 1474.503
135.3468, 1475.806
135.8289, 1476.336
136.3110, 1477.229
136.7931, 1479.441
137.2753, 1482.971
137.7574, 1486.986
138.2395, 1491.490
138.7216, 1496.313
139.2037, 1500.911
139.6858, 1505.322
140.1680, 1509.326
140.6501, 1512.441
141.1322, 1514.199
141.6143, 1516.850
142.0964, 1521.266
142.5785, 1527.540
143.0607, 1532.626
143.5428, 1536.129
144.0249, 1538.966
144.5070, 1542.418
144.9891, 1546.844
145.4712, 1551.182
145.9534, 1555.006
146.4355, 1558.206
146.9176, 1561.732
147.3997, 1566.079
147.8818, 1570.575
148.3639, 1574.084
148.8461, 1575.708
149.3282, 1577.370
149.8103, 1579.641
150.2924, 1582.663
150.7745, 1585.953
151.2566, 1589.428
151.7388, 1593.135
152.2209, 1597.126
152.7030, 1602.375
153.1851, 1607.109
153.6672, 1610.603
154.1493, 1611.658
154.6315, 1612.992
155.1136, 1614.851
155.5957, 1617.126
156.0778, 1619.437
156.5599, 1622.833
157.0420, 1625.570
157.5242, 1626.733
158.0063, 1623.315
158.4884, 1621.383
158.9705, 1622.487
159.4526, 1626.226
159.9347, 1630.141
160.4169, 1633.797
160.8990, 1637.254
161.3811, 1640.553
161.8632, 1645.476
162.3453, 1648.559
162.8274, 1648.206
163.3096, 1644.576
163.7917, 1639.926
164.2738, 1635.281
164.7559, 1630.027
165.2380, 1623.561
165.7201, 1614.147
166.2023, 1604.733
166.6844, 1596.430
167.1665, 1589.278
167.6486, 1583.608
168.1307, 1580.317
168.6128, 1578.451
169.0950, 1576.760
169.5771, 1573.820
170.0592, 1571.481
170.5413, 1571.328
171.0234, 1573.530
171.5055, 1576.508
171.9877, 1579.829
172.4698, 1583.134
172.9519, 1585.781
173.4340, 1587.541
173.9161, 1588.463
174.3982, 1588.789
174.8804, 1588.650
175.3625, 1587.264
175.8446, 1583.506
176.3267, 1577.926
176.8088, 1571.877
177.2909, 1565.255
177.7731, 1558.821
178.2552, 1553.687
178.7373, 1550.000
179.2194, 1547.213
179.7015, 1544.916
180.1836, 1543.030
180.6658, 1541.320
181.1479, 1539.219
181.6300, 1537.214
182.1121, 1536.560
182.5942, 1537.756
183.0763, 1539.375
183.5585, 1539.343
184.0406, 1537.892
184.5227, 1536.587
185.0048, 1536.365
185.4869, 1537.052
185.9690, 1538.285
186.4511, 1540.248
186.9333, 1542.310
187.4154, 1543.033
187.8975, 1542.516
188.3796, 1542.422
188.8617, 1544.539
189.3438, 1548.296
189.8260, 1550.831
190.3081, 1551.402
190.7902, 1550.944
191.2723, 1551.307
191.7544, 1552.509
192.2365, 1554.228
192.7187, 1556.117
193.2008, 1558.245
193.6829, 1561.414
194.1650, 1566.195
194.6471, 1571.855
195.1292, 1575.984
195.6114, 1578.410
196.0935, 1581.028
196.5756, 1585.578
197.0577, 1592.022
197.5398, 1598.226
198.0219, 1603.514
198.5041, 1608.385
198.9862, 1614.661
199.4683, 1622.609
199.9504, 1630.627
200.4325, 1637.208
200.9146, 1642.222
201.3968, 1647.268
201.8789, 1652.684
202.3610, 1658.332
202.8431, 1663.439
203.3252, 1667.778
203.8073, 1672.221
204.2895, 1678.047
204.7716, 1685.695
205.2537, 1691.674
205.7358, 1694.726
206.2179, 1695.449
206.7000, 1698.106
207.1822, 1703.324
207.6643, 1708.980
208.1464, 1712.695
208.6285, 1713.810
209.1106, 1716.228
209.5927, 1721.019
210.0749, 1727.974
210.5570, 1734.693
211.0391, 1740.977
211.5212, 1747.216
212.0033, 1754.041
212.4854, 1761.826
212.9676, 1768.801
213.4497, 1774.957
213.9318, 1780.210
214.4139, 1782.559
214.8960, 1781.738
215.3781, 1778.443
215.8603, 1773.322
216.3424, 1766.515
216.8245, 1757.557
217.3066, 1745.960
217.7887, 1731.695
218.2708, 1717.233
218.7530, 1701.945
219.2351, 1687.062
219.7172, 1674.516
220.1993, 1665.289
220.6814, 1655.348
221.1635, 1643.180
221.6457, 1628.621
222.1278, 1617.761
222.6099, 1611.778
223.0920, 1607.901
223.5741, 1603.242
224.0562, 1596.644
224.5384, 1591.819
225.0205, 1590.164
225.5026, 1591.800
225.9847, 1591.472
226.4668, 1588.171
226.9489, 1583.996
227.4311, 1581.228
227.9132, 1580.399
228.3953, 1579.771
228.8774, 1578.987
229.3595, 1578.036
229.8416, 1577.415
230.3238, 1577.162
230.8059, 1577.222
231.2880, 1577.598
231.7701, 1578.555
232.2522, 1579.298
232.7343, 1579.428
233.2165, 1578.889
233.6986, 1579.514
234.1807, 1581.895
234.6628, 1584.809
235.1449, 1587.024
235.6270, 1588.194
236.1092, 1589.236
236.5913, 1590.191
237.0734, 1591.032
237.5555, 1592.360
238.0376, 1594.295
238.5197, 1596.571
239.0019, 1598.950
239.4840, 1601.563
239.9661, 1604.016
240.4482, 1606.156
240.9303, 1607.991
241.4124, 1610.248
241.8946, 1613.412
242.3767, 1616.497
242.8588, 1618.529
243.3409, 1618.966
243.8230, 1619.395
244.3051, 1619.984
244.7873, 1620.735
245.2694, 1621.845
245.7515, 1623.349
246.2336, 1625.163
246.7157, 1627.203
247.1978, 1629.384
247.6800, 1632.075
248.1621, 1635.934
248.6442, 1640.764
249.1263, 1643.043
249.6084, 1641.353
250.0905, 1638.939
250.5726, 1638.298
251.0548, 1640.084
251.5369, 1642.323
252.0190, 1644.978
252.5011, 1647.973
252.9832, 1650.247
253.4653, 1651.010
253.9475, 1652.129
254.4296, 1655.135
254.9117, 1661.209
255.3938, 1666.323
255.8759, 1669.404
256.3581, 1671.014
256.8402, 1674.514
257.3223, 1680.649
257.8044, 1687.492
258.2865, 1693.848
258.7686, 1699.470
259.2508, 1705.111
259.7329, 1710.958
260.2150, 1716.851
260.6971, 1722.475
261.1792, 1727.548
261.6613, 1732.830
262.1435, 1738.857
262.6256, 1745.855
263.1077, 1752.901
263.5898, 1760.032
264.0719, 1767.143
264.5540, 1773.620
265.0362, 1778.981
265.5183, 1784.871
266.0004, 1792.193
266.4825, 1800.930
266.9646, 1810.875
267.4467, 1822.071
267.9289, 1834.387
268.4110, 1847.138
268.8931, 1860.787
269.3752, 1874.060
269.8573, 1886.142
270.3394, 1896.810
270.8216, 1907.853
271.3037, 1919.468
271.7858, 1931.340
272.2679, 1942.614
272.7500, 1953.541
273.2321, 1963.135
273.7143, 1970.995
274.1964, 1977.158
274.6785, 1981.444
275.1606, 1983.972
275.6427, 1984.482
276.1248, 1982.719
276.6070, 1978.852
277.0891, 1972.009
277.5712, 1961.702
278.0533, 1947.926
278.5354, 1931.413
279.0175, 1911.599
279.4996, 1890.332
279.9818, 1870.048
280.4639, 1850.867
280.9460, 1833.074
281.4281, 1816.793
281.9102, 1801.999
282.3923, 1788.447
282.8745, 1776.036
283.3566, 1765.163
283.8387, 1756.583
284.3208, 1750.304
284.8029, 1744.844
285.2850, 1739.730
285.7672, 1735.056
286.2493, 1731.258
286.7314, 1728.386
287.2135, 1726.168
287.6956, 1724.638
288.1777, 1723.733
288.6599, 1722.424
289.1420, 1720.108
289.6241, 1717.414
290.1062, 1716.172
290.5883, 1716.436
291.0704, 1717.395
291.5526, 1718.588
292.0347, 1719.962
292.5168, 1721.149
292.9989, 1721.936
293.4810, 1722.639
293.9631, 1723.866
294.4453, 1725.589
294.9274, 1727.627
295.4095, 1729.890
295.8916, 1732.328
296.3737, 1734.907
296.8558, 1737.749
297.3380, 1740.361
297.8201, 1741.886
298.3022, 1742.460
298.7843, 1742.926
299.2664, 1743.993
299.7485, 1745.343
300.2307, 1746.212
300.7128, 1746.497
301.1949, 1746.594
301.6770, 1746.646
302.1591, 1746.851
302.6412, 1747.778
303.1234, 1750.405
303.6055, 1753.739
304.0876, 1756.148
304.5697, 1757.343
305.0518, 1758.853
305.5339, 1762.403
306.0161, 1767.283
306.4982, 1771.946
306.9803, 1775.631
307.4624, 1778.777
307.9445, 1781.672
308.4266, 1784.301
308.9088, 1786.832
309.3909, 1788.784
309.8730, 1790.834
310.3551, 1793.963
310.8372, 1799.818
311.3193, 1805.945
311.8015, 1810.519
312.2836, 1813.708
312.7657, 1816.462
313.2478, 1818.658
313.7299, 1821.038
314.2120, 1824.505
314.6942, 1831.111
315.1763, 1836.704
315.6584, 1838.656
316.1405, 1837.641
316.6226, 1836.111
317.1047, 1834.633
317.5869, 1833.363
318.0690, 1832.602
318.5511, 1833.357
319.0332, 1832.861
319.5153, 1828.804
319.9974, 1822.678
320.4796, 1817.969
320.9617, 1817.177
321.4438, 1816.880
321.9259, 1815.318
322.4080, 1811.765
322.8901, 1808.517
323.3723, 1805.580
323.8544, 1803.384
324.3365, 1802.536
324.8186, 1804.652
325.3007, 1806.786
325.7828, 1807.869
326.2650, 1807.560
326.7471, 1808.045
327.2292, 1810.054
327.7113, 1812.749
328.1934, 1815.340
328.6755, 1818.035
329.1577, 1820.335
329.6398, 1822.135
330.1219, 1823.431
330.6040, 1824.316
331.0861, 1824.035
331.5682, 1823.872
332.0504, 1824.755
332.5325, 1828.035
333.0146, 1830.101
333.4967, 1830.458
333.9788, 1829.333
334.4609, 1827.789
334.9431, 1825.414
335.4252, 1823.168
335.9073, 1821.576
336.3894, 1820.797
336.8715, 1820.270
337.3536, 1819.941
337.8358, 1819.945
338.3179, 1820.699
338.8000, 1822.578
339.2821, 1824.285
339.7642, 1825.088
340.2463, 1824.818
340.7285, 1825.689
341.2106, 1827.791
341.6927, 1830.865
342.1748, 1834.656
342.6569, 1839.230
343.1390, 1843.974
343.6212, 1848.529
344.1033, 1853.016
344.5854, 1858.198
345.0675, 1864.055
345.5496, 1870.059
346.0317, 1875.475
346.5139, 1880.387
346.9960, 1885.528
347.4781, 1891.138
347.9602, 1897.038
348.4423, 1902.979
348.9244, 1908.964
349.4066, 1914.877
349.8887, 1920.730
350.3708, 1926.529
350.8529, 1931.917
351.3350, 1936.674
351.8171, 1941.642
352.2993, 1948.122
352.7814, 1955.775
353.2635, 1963.430
353.7456, 1970.319
354.2277, 1976.957
354.7098, 1984.015
355.1920, 1991.474
355.6741, 1999.518
356.1562, 2008.123
356.6383, 2017.291
357.1204, 2027.202
357.6025, 2038.460
358.0847, 2050.035
358.5668, 2061.320
359.0489, 2072.342
359.5310, 2082.589
360.0131, 2091.166
360.4952, 2099.125
360.9774, 2107.462
361.4595, 2117.104
361.9416, 2126.473
362.4237, 2135.384
362.9058, 2143.571
363.3879, 2150.162
363.8701, 2155.599
364.3522, 2158.866
364.8343, 2159.146
365.3164, 2155.584
365.7985, 2150.963
366.2806, 2146.614
366.7628, 2141.479
367.2449, 2133.947
367.7270, 2122.490
368.2091, 2109.809
368.6912, 2096.337
369.1733, 2082.025
369.6555, 2068.111
370.1376, 2054.727
370.6197, 2041.717
371.1018, 2028.728
371.5839, 2014.615
372.0660, 2002.022
372.5482, 1991.510
373.0303, 1982.935
373.5124, 1975.184
373.9945, 1968.819
374.4766, 1962.440
374.9587, 1954.851
375.4409, 1944.845
375.9230, 1937.160
376.4051, 1932.681
376.8872, 1930.075
377.3693, 1926.318
377.8514, 1921.089
378.3336, 1915.914
378.8157, 1911.277
379.2978, 1907.157
379.7799, 1904.459
380.2620, 1903.375
380.7441, 1903.200
381.2263, 1903.347
381.7084, 1903.795
382.1905, 1903.826
382.6726, 1903.154
383.1547, 1901.920
383.6368, 1900.182
384.1190, 1897.885
384.6011, 1896.258
385.0832, 1896.784
385.5653, 1898.751
386.0474, 1900.089
386.5295, 1900.088
387.0117, 1900.006
387.4938, 1901.930
387.9759, 1905.300
388.4580, 1908.085
388.9401, 1908.620
389.4222, 1908.220
389.9044, 1908.079
390.3865, 1908.208
390.8686, 1909.584
391.3507, 1914.001
391.8328, 1919.912
392.3149, 1925.013
392.7971, 1927.878
393.2792, 1930.087
393.7613, 1932.079
394.2434, 1933.998
394.7255, 1936.681
395.2076, 1940.892
395.6898, 1945.755
396.1719, 1950.623
396.6540, 1955.114
397.1361, 1959.980
397.6182, 1965.463
398.1003, 1971.435
398.5825, 1977.611
399.0646, 1984.163
399.5467, 1990.691
400.0288, 1996.973
400.5109, 2002.813
400.9930, 2009.084
401.4752, 2016.332
401.9573, 2023.729
402.4394, 2030.343
402.9215, 2035.133
403.4036, 2040.904
403.8857, 2048.247
404.3678, 2057.093
404.8499, 2066.250
405.3321, 2075.724
405.8142, 2085.716
406.2963, 2096.242
406.7784, 2107.361
407.2605, 2119.046
407.7426, 2131.319
408.2248, 2144.124
408.7069, 2157.770
409.1890, 2172.120
409.6711, 2185.891
410.1532, 2198.334
410.6353, 2209.609
411.1175, 2221.192
411.5996, 2233.178
412.0817, 2243.769
412.5638, 2250.409
413.0459, 2253.820
413.5280, 2257.230
414.0102, 2261.960
414.4923, 2266.502
414.9744, 2268.501
415.4565, 2268.306
415.9386, 2267.661
416.4207, 2267.062
416.9029, 2266.949
417.3850, 2267.759
417.8671, 2269.506
418.3492, 2272.511
418.8313, 2277.458
419.3134, 2283.750
419.7956, 2290.500
420.2777, 2297.168
420.7598, 2304.325
421.2419, 2312.271
421.7240, 2320.980
422.2061, 2330.629
422.6883, 2341.224
423.1704, 2352.787
423.6525, 2365.602
424.1346, 2382.593
424.6167, 2396.819
425.0988, 2406.765
425.5810, 2413.049
426.0631, 2417.195
426.5452, 2419.858
427.0273, 2419.797
427.5094, 2416.822
427.9915, 2411.151
428.4737, 2401.546
428.9558, 2387.021
429.4379, 2369.692
429.9200, 2351.570
430.4021, 2332.813
430.8842, 2313.042
431.3664, 2291.869
431.8485, 2269.884
432.3306, 2249.447
432.8127, 2230.746
433.2948, 2212.694
433.7769, 2194.134
434.2591, 2175.214
434.7412, 2158.546
435.2233, 2144.366
435.7054, 2132.027
436.1875, 2120.709
436.6696, 2110.363
437.1518, 2100.882
437.6339, 2092.349
438.1160, 2084.436
438.5981, 2076.454
439.0802, 2068.459
439.5623, 2061.119
440.0445, 2055.229
440.5266, 2050.232
441.0087, 2045.308
441.4908, 2040.281
441.9729, 2035.427
442.4550, 2031.025
442.9372, 2026.959
443.4193, 2022.967
443.9014, 2019.012
444.3835, 2015.092
444.8656, 2011.075
445.3477, 2006.900
445.8299, 2003.411
446.3120, 2001.531
446.7941, 2000.015
447.2762, 1997.912
447.7583, 1993.404
448.2404, 1990.265
448.7226, 1989.112
449.2047, 1989.568
449.6868, 1990.709
450.1689, 1993.376
450.6510, 1995.621
451.1331, 1996.550
451.6153, 1995.832
452.0974, 1996.039
452.5795, 1997.684
453.0616, 1999.544
453.5437, 1999.963
454.0258, 1998.534
454.5080, 1998.530
454.9901, 2001.020
455.4722, 2005.039
455.9543, 2007.938
456.4364, 2009.657
456.9185, 2010.961
457.4007, 2011.584
457.8828, 2012.097
458.3649, 2014.480
458.8470, 2018.891
459.3291, 2024.756
459.8112, 2032.708
460.2934, 2041.601
460.7755, 2048.736
461.2576, 2051.486
461.7397, 2053.659
462.2218, 2059.556
462.7039, 2068.410
463.1861, 2076.254
463.6682, 2079.367
464.1503, 2081.757
464.6324, 2086.696
465.1145, 2095.495
465.5966, 2104.461
466.0788, 2112.572
466.5609, 2120.094
467.0430, 2127.241
467.5251, 2132.083
468.0072, 2138.609
468.4893, 2148.552
468.9715, 2161.668
469.4536, 2173.553
469.9357, 2182.797
470.4178, 2192.272
470.8999, 2203.413
471.3820, 2216.639
471.8642, 2230.469
472.3463, 2245.061
472.8284, 2260.017
473.3105, 2275.476
473.7926, 2291.606
474.2747, 2306.871
474.7569, 2321.090
475.2390, 2334.027
475.7211, 2344.994
476.2032, 2354.060
476.6853, 2360.337
477.1674, 2363.948
477.6496, 2364.344
478.1317, 2359.582
478.6138, 2349.063
479.0959, 2334.706
479.5780, 2317.676
480.0602, 2298.340
480.5423, 2277.898
481.0244, 2255.649
481.5065, 2233.239
481.9886, 2211.372
482.4707, 2190.164
482.9529, 2171.095
483.4350, 2155.934
483.9171, 2142.250
484.3992, 2128.214
484.8813, 2112.228
485.3634, 2098.406
485.8456, 2088.750
486.3277, 2081.633
486.8098, 2074.703
487.2919, 2067.036
487.7740, 2060.268
488.2561, 2054.711
488.7383, 2050.302
489.2204, 2047.299
489.7025, 2046.480
490.1846, 2045.864
490.6667, 2044.180
491.1488, 2041.199
491.6310, 2038.375
492.1131, 2035.666
492.5952, 2033.297
493.0773, 2031.737
493.5594, 2030.980
494.0415, 2029.969
494.5237, 2028.130
495.0058, 2025.938
495.4879, 2024.458
495.9700, 2023.678
496.4521, 2023.199
496.9342, 2022.958
497.4164, 2022.773
497.8985, 2022.345
498.3806, 2021.600
498.8627, 2020.777
499.3448, 2019.646
499.8269, 2018.633
500.3091, 2018.363
500.7912, 2019.632
501.2733, 2021.126
501.7554, 2022.359
502.2375, 2023.342
502.7196, 2024.248
503.2018, 2025.084
503.6839, 2025.866
504.1660, 2026.479
504.6481, 2026.542
505.1302, 2027.515
505.6123, 2030.196
506.0945, 2033.183
506.5766, 2034.876
507.0587, 2034.935
507.5408, 2034.512
508.0229, 2033.480
508.5050, 2032.236
508.9872, 2032.259
509.4693, 2033.723
509.9514, 2035.387
510.4335, 2036.878
510.9156, 2038.111
511.3977, 2038.090
511.8799, 2036.651
512.3619, 2035.387
512.8441, 2036.003
513.3262, 2037.986
513.8083, 2040.202
514.2904, 2042.454
514.7725, 2044.633
515.2546, 2046.339
515.7368, 2047.835
516.2189, 2049.859
516.7010, 2052.890
517.1831, 2056.395
517.6652, 2060.274
518.1473, 2064.522
518.6295, 2068.308
519.1116, 2070.709
519.5937, 2072.975
520.0758, 2075.973
520.5579, 2080.786
521.0400, 2085.033
521.5222, 2088.524
522.0043, 2091.579
522.4864, 2094.683
522.9685, 2097.632
523.4506, 2101.265
523.9327, 2105.943
524.4149, 2111.554
524.8970, 2116.753
525.3791, 2121.423
525.8612, 2126.476
526.3433, 2132.950
526.8254, 2140.554
527.3076, 2147.326
527.7897, 2152.723
528.2718, 2158.652
528.7539, 2167.971
529.2360, 2179.531
529.7181, 2190.845
530.2003, 2200.989
530.6824, 2210.459
531.1645, 2219.669
531.6466, 2228.538
532.1287, 2237.431
532.6108, 2247.573
533.0930, 2256.952
533.5751, 2264.687
534.0572, 2270.688
534.5393, 2274.707
535.0214, 2276.507
535.5035, 2276.384
535.9857, 2274.612
536.4678, 2271.571
536.9499, 2266.308
537.4320, 2258.248
537.9141, 2248.113
538.3962, 2237.730
538.8784, 2226.877
539.3605, 2216.011
539.8426, 2205.157
540.3247, 2194.344
540.8068, 2184.679
541.2889, 2176.156
541.7711, 2169.055
542.2532, 2164.329
542.7353, 2161.325
543.2174, 2158.056
543.6995, 2154.190
544.1816, 2150.450
544.6638, 2147.866
545.1459, 2145.893
545.6280, 2143.572
546.1101, 2139.016
546.5922, 2135.361
547.0743, 2135.086
547.5565, 2137.399
548.0386, 2139.331
548.5207, 2139.528
549.0028, 2139.389
549.4849, 2139.510
549.9670, 2139.952
550.4492, 2140.491
550.9313, 2140.881
551.4134, 2141.551
551.8955, 2142.849
552.3776, 2144.803
552.8597, 2147.510
553.3419, 2151.505
553.8240, 2155.765
554.3061, 2158.013
554.7882, 2158.157
555.2703, 2158.024
555.7524, 2158.208
556.2346, 2158.673
556.7167, 2159.442
557.1988, 2160.488
557.6809, 2161.402
558.1630, 2161.540
558.6451, 2161.479
559.1273, 2162.287
559.6094, 2164.294
560.0915, 2165.741
560.5736, 2165.177
561.0557, 2163.537
561.5378, 2161.903
562.0200, 2161.147
562.5021, 2159.789
562.9842, 2157.092
563.4663, 2153.478
563.9484, 2150.122
564.4305, 2147.462
564.9127, 2144.661
565.3948, 2141.610
565.8769, 2138.349
566.3590, 2133.921
566.8411, 2127.392
567.3232, 2121.793
567.8054, 2120.170
568.2875, 2122.500
568.7696, 2121.881
569.2517, 2117.397
569.7338, 2111.522
570.2159, 2106.804
570.6981, 2103.263
571.1802, 2100.711
571.6623, 2099.498
572.1444, 2098.763
572.6265, 2097.486
573.1086, 2095.896
573.5908, 2094.694
574.0729, 2094.805
574.5550, 2094.914
575.0371, 2093.776
575.5192, 2091.237
576.0013, 2089.984
576.4835, 2092.276
576.9656, 2094.887
577.4477, 2095.652
577.9298, 2092.858
578.4119, 2091.445
578.8940, 2091.951
579.3762, 2093.349
579.8583, 2094.252
580.3404, 2094.569
580.8225, 2094.817
581.3046, 2095.085
581.7867, 2095.354
582.2689, 2095.534
582.7510, 2095.632
583.2331, 2095.837
583.7152, 2096.637
584.1973, 2097.471
584.6794, 2097.561
585.1616, 2096.877
585.6437, 2095.160
586.1258, 2090.712
586.6079, 2085.985
587.0900, 2083.476
587.5721, 2084.413
588.0543, 2085.438
588.5364, 2084.956
589.0185, 2084.119
589.5006, 2084.378
589.9827, 2087.913
590.4648, 2090.042
590.9470, 2089.885
591.4291, 2088.018
591.9112, 2086.102
592.3933, 2083.850
592.8754, 2082.427
593.3575, 2082.712
593.8397, 2084.380
594.3218, 2084.820
594.8039, 2083.993
595.2860, 2082.542
595.7681, 2080.101
596.2502, 2077.536
596.7324, 2077.286
597.2145, 2080.018
597.6966, 2082.715
598.1787, 2082.089
598.6608, 2080.004
599.1429, 2078.937
599.6251, 2080.593
600.1072, 2082.253
600.5893, 2082.465
601.0714, 2081.922
601.5535, 2082.241
602.0356, 2084.577
602.5178, 2086.781
602.9999, 2088.554
603.4820, 2089.861
603.9641, 2090.093
604.4462, 2088.906
604.9283, 2087.434
605.4105, 2086.108
605.8926, 2084.932
606.3747, 2084.910
606.8568, 2086.254
607.3389, 2087.577
607.8210, 2087.165
608.3032, 2085.638
608.7853, 2084.654
609.2674, 2084.707
609.7495, 2085.078
610.2316, 2085.264
610.7137, 2085.301
611.1959, 2085.238
611.6780, 2085.083
612.1601, 2084.854
612.6422, 2084.317
613.1243, 2083.626
613.6064, 2083.542
614.0886, 2084.105
614.5707, 2085.359
615.0528, 2087.668
615.5349, 2091.139
616.0170, 2093.252
616.4991, 2093.612
616.9813, 2093.535
617.4634, 2094.095
617.9455, 2095.245
618.4276, 2095.807
618.9097, 2095.544
619.3918, 2095.375
619.8740, 2096.554
620.3561, 2098.656
620.8382, 2100.673
621.3203, 2102.332
621.8024, 2103.752
622.2845, 2105.153
622.7667, 2106.400
623.2488, 2107.224
623.7309, 2107.781
624.2130, 2107.655
624.6951, 2105.978
625.1772, 2103.001
625.6594, 2101.870
626.1415, 2103.854
626.6236, 2106.076
627.1057, 2107.421
627.5878, 2107.829
628.0699, 2108.105
628.5521, 2108.345
629.0342, 2108.200
629.5163, 2106.799
629.9984, 2104.562
630.4805, 2103.859
630.9626, 2105.154
631.4448, 2107.219
631.9269, 2109.196
632.4090, 2110.904
632.8911, 2111.981
633.3732, 2111.894
633.8553, 2111.665
634.3375, 2112.033
634.8196, 2112.667
635.3017, 2112.838
635.7838, 2111.567
636.2659, 2110.630
636.7480, 2110.517
637.2302, 2111.184
637.7123, 2112.504
638.1944, 2115.250
638.6765, 2117.148
639.1586, 2116.608
639.6407, 2113.698
640.1229, 2112.737
640.6050, 2113.963
641.0871, 2115.598
641.5692, 2115.995
642.0513, 2115.566
642.5334, 2115.200
643.0156, 2114.978
643.4977, 2115.135
643.9798, 2116.159
644.4619, 2117.578
644.9440, 2118.754
645.4261, 2118.680
645.9083, 2119.288
646.3904, 2121.704
646.8725, 2125.127
647.3546, 2127.785
647.8367, 2128.862
648.3188, 2130.274
648.8010, 2132.652
649.2831, 2135.670
649.7652, 2137.912
650.2473, 2139.347
650.7294, 2140.244
651.2115, 2140.502
651.6937, 2140.334
652.1758, 2140.471
652.6579, 2140.928
653.1400, 2141.948
653.6221, 2144.363
654.1042, 2147.161
654.5864, 2148.906
655.0685, 2149.250
655.5506, 2149.651
656.0327, 2150.846
656.5148, 2152.451
656.9969, 2154.100
657.4791, 2155.805
657.9612, 2157.490
658.4433, 2159.421
658.9254, 2161.166
659.4075, 2161.830
659.8896, 2160.813
660.3718, 2160.967
660.8539, 2163.079
661.3360, 2166.431
661.8181, 2169.577
662.3002, 2172.511
662.7823, 2175.148
663.2645, 2177.183
663.7466, 2179.054
664.2287, 2181.146
664.7108, 2183.517
665.1929, 2186.573
665.6750, 2190.390
666.1572, 2195.054
666.6393, 2201.146
667.1214, 2208.905
667.6035, 2215.365
668.0856, 2218.853
668.5677, 2221.898
669.0499, 2225.692
669.5320, 2230.159
670.0141, 2235.988
670.4962, 2243.672
670.9783, 2251.770
671.4604, 2258.548
671.9426, 2264.198
672.4247, 2270.551
672.9068, 2277.977
673.3889, 2285.523
673.8710, 2291.509
674.3531, 2296.806
674.8353, 2303.040
675.3174, 2310.866
675.7995, 2319.733
676.2816, 2330.354
676.7637, 2341.616
677.2458, 2351.200
677.7280, 2357.068
678.2101, 2362.883
678.6922, 2370.197
679.1743, 2378.355
679.6564, 2383.641
680.1385, 2386.041
680.6207, 2385.788
681.1028, 2382.881
681.5849, 2377.479
682.0670, 2369.899
682.5491, 2360.131
683.0313, 2349.101
683.5134, 2337.171
683.9955, 2324.500
684.4776, 2310.469
684.9597, 2295.079
685.4418, 2280.108
685.9240, 2265.435
686.4061, 2252.485
686.8882, 2242.510
687.3703, 2237.539
687.8524, 2231.817
688.3345, 2223.940
688.8167, 2216.022
689.2988, 2210.320
689.7809, 2207.503
690.2630, 2204.079
690.7451, 2199.281
691.2272, 2194.405
691.7094, 2191.497
692.1915, 2190.397
692.6736, 2190.253
693.1557, 2191.505
693.6378, 2192.545
694.1199, 2191.113
694.6021, 2188.079
695.0842, 2185.527
695.5663, 2185.359
696.0484, 2184.864
696.5305, 2182.360
697.0126, 2178.304
697.4948, 2175.558
697.9769, 2174.639
698.4590, 2174.488
698.9411, 2175.016
699.4232, 2176.130
699.9053, 2176.505
700.3875, 2176.067
700.8696, 2175.521
701.3517, 2175.682
701.8338, 2176.064
702.3159, 2174.721
702.7980, 2171.624
703.2802, 2169.604
703.7623, 2171.948
704.2444, 2175.646
704.7265, 2177.738
705.2086, 2177.447
705.6907, 2177.024
706.1729, 2177.206
706.6550, 2177.435
707.1371, 2177.161
707.6192, 2175.693
708.1013, 2175.374
708.5834, 2176.646
709.0656, 2178.416
709.5477, 2178.987
710.0298, 2178.453
710.5119, 2178.903
710.9940, 2181.061
711.4761, 2183.444
711.9582, 2184.015
712.4403, 2183.370
712.9224, 2182.719
713.4045, 2182.335
713.8867, 2182.326
714.3688, 2183.299
714.8509, 2184.688
715.3330, 2185.218
715.8151, 2183.350
716.2972, 2182.295
716.7794, 2183.140
717.2615, 2185.198
717.7436, 2185.596
718.2257, 2183.898
718.7078, 2182.698
719.1899, 2183.297
719.6721, 2185.053
720.1542, 2186.620
720.6363, 2187.868
721.1184, 2188.100
721.6005, 2184.969
722.0826, 2181.856
722.5648, 2182.942
723.0469, 2188.034
723.5290, 2191.589
724.0111, 2189.860
724.4932, 2187.607
724.9753, 2187.698
725.4575, 2190.739
725.9396, 2192.005
726.4217, 2190.802
726.9038, 2189.258
727.3859, 2189.131
727.8680, 2190.302
728.3502, 2190.313
728.8323, 2188.923
729.3144, 2187.798
729.7965, 2188.962
730.2786, 2191.279
730.7607, 2193.072
731.2429, 2194.032
731.7250, 2194.479
732.2071, 2194.119
732.6892, 2193.531
733.1713, 2193.273
733.6534, 2193.507
734.1356, 2193.927
734.6177, 2194.578
735.0998, 2195.331
735.5819, 2196.107
736.0640, 2196.942
736.5461, 2197.347
737.0283, 2197.177
737.5104, 2196.722
737.9925, 2196.505
738.4746, 2196.370
738.9567, 2195.841
739.4388, 2194.282
739.9210, 2192.995
740.4031, 2192.868
740.8852, 2193.645
741.3673, 2194.839
741.8494, 2196.997
742.3315, 2198.774
742.8137, 2200.174
743.2958, 2200.991
743.7779, 2200.217
744.2600, 2197.159
744.7421, 2195.812
745.2242, 2198.388
745.7064, 2202.816
746.1885, 2203.264
746.6706, 2200.448
747.1527, 2197.858
747.6348, 2197.456
748.1169, 2198.048
748.5991, 2198.934
749.0812, 2199.996
749.5633, 2200.765
750.0454, 2199.913
750.5275, 2199.913
751.0096, 2202.265
751.4918, 2206.638
751.9739, 2209.415
752.4560, 2210.337
752.9381, 2210.168
753.4202, 2208.510
753.9023, 2205.980
754.3845, 2206.085
754.8666, 2208.685
755.3487, 2211.262
755.8308, 2211.868
756.3129, 2211.576
756.7950, 2211.396
757.2772, 2211.425
757.7593, 2211.733
758.2414, 2212.985
758.7235, 2214.059
759.2056, 2214.273
759.6877, 2213.540
760.1699, 2212.733
760.6520, 2211.675
761.1341, 2211.036
761.6162, 2211.468
762.0983, 2212.871
762.5804, 2214.410
763.0626, 2216.110
763.5447, 2217.326
764.0268, 2216.795
764.5089, 2215.755
764.9910, 2215.913
765.4731, 2217.661
765.9553, 2219.574
766.4374, 2221.045
766.9195, 2222.460
767.4016, 2224.258
767.8837, 2227.094
768.3658, 2228.228
768.8480, 2226.627
769.3301, 2225.017
769.8122, 2226.769
770.2943, 2231.447
770.7764, 2234.589
771.2585, 2235.636
771.7407, 2235.481
772.2228, 2233.848
772.7049, 2232.031
773.1870, 2232.148
773.6691, 2235.619
774.1512, 2238.573
774.6334, 2239.078
775.1155, 2238.599
775.5976, 2238.774
776.0797, 2240.421
776.5618, 2241.095
777.0439, 2240.455
777.5261, 2239.271
778.0082, 2238.409
778.4903, 2237.876
778.9724, 2237.732
779.4545, 2238.091
779.9366, 2238.476
780.4188, 2237.819
780.9009, 2236.990
781.3830, 2237.466
781.8651, 2240.950
782.3472, 2243.673
782.8293, 2243.867
783.3115, 2242.854
783.7936, 2242.468
784.2757, 2242.843
784.7578, 2243.647
785.2399, 2245.074
785.7220, 2246.526
786.2042, 2246.643
786.6863, 2245.696
787.1684, 2245.583
787.6505, 2246.829
788.1326, 2248.896
788.6147, 2252.203
789.0969, 2255.707
789.5790, 2257.706
790.0611, 2256.845
790.5432, 2255.315
791.0253, 2252.432
791.5074, 2249.538
791.9896, 2249.040
792.4717, 2252.044
792.9538, 2253.886
793.4359, 2253.782
793.9180, 2252.397
794.4001, 2250.286
794.8823, 2247.798
795.3644, 2246.457
795.8465, 2247.204
796.3286, 2248.426
796.8107, 2249.091
797.2928, 2249.241
797.7750, 2248.930
798.2571, 2248.155
798.7392, 2246.911
799.2213, 2244.362
799.7034, 2241.757
800.1855, 2241.606
800.6677, 2244.505
801.1498, 2246.245
801.6319, 2245.638
802.1140, 2244.016
802.5961, 2243.094
803.0782, 2243.008
803.5604, 2244.365
804.0425, 2248.983
804.5246, 2252.671
805.0067, 2251.431
805.4888, 2247.777
805.9709, 2245.916
806.4531, 2249.023
806.9352, 2250.849
807.4173, 2249.941
807.8994, 2248.080
808.3815, 2248.821
808.8636, 2252.255
809.3458, 2255.414
809.8279, 2257.630
810.3100, 2259.125
810.7921, 2259.651
811.2742, 2259.721
811.7563, 2260.465
812.2385, 2263.421
812.7206, 2265.534
813.2027, 2264.721
813.6848, 2262.485
814.1669, 2261.442
814.6490, 2262.684
815.1312, 2262.896
815.6133, 2261.048
816.0954, 2258.938
816.5775, 2260.518
817.0596, 2265.139
817.5417, 2267.647
818.0239, 2266.190
818.5060, 2263.571
818.9881, 2261.953
819.4702, 2261.355
819.9523, 2261.837
820.4344, 2265.036
820.9166, 2267.199
821.3987, 2266.331
821.8808, 2264.669
822.3629, 2265.162
822.8450, 2268.447
823.3271, 2270.987
823.8093, 2272.263
824.2914, 2272.708
824.7735, 2272.445
825.2556, 2271.819
825.7377, 2271.975
826.2198, 2273.559
826.7020, 2274.857
827.1841, 2273.870
827.6662, 2272.307
828.1483, 2272.151
828.6304, 2275.046
829.1125, 2277.750
829.5947, 2280.891
830.0768, 2283.099
830.5589, 2281.910
831.0410, 2277.461
831.5231, 2275.398
832.0052, 2276.793
832.4874, 2279.136
832.9695, 2279.185
833.4516, 2278.592
833.9337, 2280.281
834.4158, 2286.203
834.8979, 2290.191
835.3801, 2288.203
835.8622, 2284.556
836.3443, 2283.034
836.8264, 2284.344
837.3085, 2285.640
837.7906, 2286.908
838.2728, 2287.972
838.7549, 2288.269
839.2370, 2288.186
839.7191, 2289.518
840.2012, 2292.600
840.6833, 2294.773
841.1655, 2292.550
841.6476, 2289.554
842.1297, 2289.376
842.6118, 2293.732
843.0939, 2296.030
843.5760, 2294.928
844.0582, 2293.124
844.5403, 2292.421
845.0224, 2292.881
845.5045, 2292.534
845.9866, 2291.349
846.4688, 2290.513
846.9509, 2291.443
847.4330, 2293.039
847.9151, 2293.722
848.3972, 2293.397
848.8793, 2293.420
849.3615, 2294.187
849.8436, 2295.550
850.3257, 2297.875
850.8078, 2301.148
851.2899, 2302.003
851.7720, 2299.690
852.2542, 2297.809
852.7363, 2299.056
853.2184, 2302.105
853.7005, 2303.245
854.1826, 2302.774
854.6647, 2302.513
855.1469, 2303.986
855.6290, 2305.636
856.1111, 2306.501
856.5932, 2306.633
857.0753, 2306.708
857.5574, 2306.003
858.0396, 2306.742
858.5217, 2310.237
859.0038, 2315.339
859.4859, 2318.140
859.9680, 2318.726
860.4501, 2318.253
860.9323, 2316.249
861.4144, 2314.442
861.8965, 2314.873
862.3786, 2316.809
862.8607, 2318.541
863.3428, 2319.430
863.8250, 2320.172
864.3071, 2321.190
864.7892, 2322.010
865.2713, 2321.005
865.7534, 2317.782
866.2355, 2317.492
866.7177, 2322.316
867.1998, 2328.152
867.6819, 2328.814
868.1640, 2326.274
868.6461, 2324.549
869.1282, 2325.388
869.6104, 2326.281
870.0925, 2326.478
870.5746, 2326.114
871.0567, 2325.191
871.5388, 2322.860
872.0209, 2322.883
872.5031, 2326.194
872.9852, 2329.919
873.4673, 2330.326
873.9494, 2328.441
874.4315, 2327.375
874.9136, 2327.687
875.3958, 2328.024
875.8779, 2326.853
876.3600, 2325.717
876.8421, 2326.163
877.3242, 2329.204
877.8063, 2330.816
878.2885, 2330.316
878.7706, 2329.566
879.2527, 2329.770
879.7348, 2330.852
880.2169, 2332.420
880.6990, 2334.442
881.1812, 2336.624
881.6633, 2339.682
882.1454, 2342.093
882.6275, 2341.640
883.1096, 2338.485
883.5917, 2337.165
884.0739, 2340.454
884.5560, 2343.263
885.0381, 2343.648
885.5202, 2342.233
886.0023, 2342.677
886.4844, 2344.955
886.9666, 2346.537
887.4487, 2345.525
887.9308, 2343.834
888.4129, 2343.725
888.8950, 2344.816
889.3771, 2346.087
889.8593, 2348.186
890.3414, 2349.208
890.8235, 2348.206
891.3056, 2346.132
891.7877, 2344.827
892.2698, 2344.370
892.7520, 2343.873
893.2341, 2343.107
893.7162, 2342.376
894.1983, 2341.771
894.6804, 2341.584
895.1625, 2342.505
895.6447, 2345.560
896.1268, 2347.835
896.6089, 2346.758
897.0910, 2345.410
897.5731, 2347.050
898.0552, 2353.322
898.5374, 2356.346
899.0195, 2355.499
899.5016, 2353.409
899.9837, 2351.635
900.4658, 2350.721
900.9479, 2352.475
901.4301, 2357.065
901.9122, 2360.928
902.3943, 2360.911
902.8764, 2360.521
903.3585, 2362.413
903.8406, 2366.653
904.3228, 2369.450
904.8049, 2370.644
905.2870, 2370.823
905.7691, 2369.625
906.2512, 2367.922
906.7333, 2368.073
907.2155, 2369.869
907.6976, 2372.346
908.1797, 2375.852
908.6618, 2379.038
909.1439, 2381.010
909.6260, 2382.028
910.1082, 2383.041
910.5903, 2383.893
911.0724, 2385.173
911.5545, 2386.952
912.0366, 2389.280
912.5187, 2392.629
913.0009, 2396.661
913.4830, 2400.142
913.9651, 2402.816
914.4472, 2404.815
914.9293, 2405.752
915.4114, 2406.301
915.8936, 2407.212
916.3757, 2408.435
916.8578, 2410.505
917.3399, 2414.061
917.8220, 2417.051
918.3041, 2416.347
918.7863, 2413.284
919.2684, 2414.313
919.7505, 2419.779
920.2326, 2424.473
920.7147, 2424.042
921.1968, 2421.927
921.6790, 2420.301
922.1611, 2419.390
922.6432, 2419.538
923.1253, 2421.762
923.6074, 2422.824
924.0895, 2420.800
924.5717, 2416.885
925.0538, 2415.540
925.5359, 2416.315
926.0180, 2417.028
926.5001, 2416.953
926.9822, 2416.113
927.4644, 2414.055
927.9465, 2411.315
928.4286, 2409.140
928.9107, 2408.034
929.3928, 2406.605
929.8749, 2404.333
930.3571, 2402.281
930.8392, 2402.345
931.3213, 2404.058
931.8034, 2405.460
932.2855, 2406.154
932.7676, 2406.524
933.2498, 2406.886
933.7319, 2406.983
934.2140, 2406.344
934.6961, 2404.232
935.1782, 2404.000
935.6603, 2406.706
936.1425, 2409.001
936.6246, 2408.188
937.1067, 2405.087
937.5888, 2403.676
938.0709, 2403.716
938.5530, 2403.126
939.0352, 2400.208
939.5173, 2396.670
939.9994, 2392.826
940.4815, 2389.214
940.9636, 2388.348
941.4457, 2391.870
941.9279, 2394.186
942.4100, 2393.767
942.8921, 2391.667
943.3742, 2389.098
943.8563, 2386.531
944.3384, 2385.712
944.8206, 2388.121
945.3027, 2390.000
945.7848, 2387.962
946.2669, 2384.751
946.7490, 2383.581
947.2311, 2385.584
947.7133, 2386.837
948.1954, 2387.205
948.6775, 2387.222
949.1596, 2387.423
949.6417, 2387.661
950.1238, 2387.286
950.6060, 2386.350
951.0881, 2386.016
951.5702, 2387.805
952.0523, 2389.580
952.5344, 2389.878
953.0165, 2388.997
953.4987, 2388.862
953.9808, 2389.600
954.4629, 2390.518
954.9450, 2391.336
955.4271, 2392.208
955.9092, 2393.876
956.3914, 2395.763
956.8735, 2396.442
957.3556, 2393.994
957.8376, 2392.280
958.3198, 2393.085
958.8019, 2395.046
959.2840, 2396.876
959.7661, 2398.735
960.2482, 2399.386
960.7303, 2398.605
961.2125, 2397.556
961.6946, 2397.245
962.1767, 2397.463
962.6588, 2398.145
963.1409, 2399.278
963.6230, 2399.880
964.1052, 2398.982
964.5873, 2398.201
965.0694, 2398.250
965.5515, 2398.972
966.0336, 2399.210
966.5157, 2398.963
966.9979, 2399.384
967.4800, 2401.167
967.9621, 2403.534
968.4442, 2406.011
968.9263, 2408.317
969.4084, 2409.896
969.8906, 2408.817
970.3727, 2409.704
970.8548, 2414.139
971.3369, 2419.059
971.8190, 2420.645
972.3011, 2419.274
972.7833, 2419.031
973.2654, 2420.323
973.7475, 2421.547
974.2296, 2420.585
974.7117, 2419.589
975.1938, 2420.903
975.6760, 2424.762
976.1581, 2426.717
976.6402, 2425.971
977.1223, 2424.493
977.6044, 2422.739
978.0865, 2421.003
978.5687, 2420.039
979.0508, 2419.881
979.5329, 2420.700
980.0150, 2423.749
980.4971, 2426.216
980.9792, 2425.503
981.4614, 2423.840
981.9435, 2424.550
982.4256, 2428.995
982.9077, 2431.788
983.3898, 2432.559
983.8719, 2432.117
984.3541, 2429.824
984.8362, 2427.396
985.3183, 2429.066
985.8004, 2434.938
986.2825, 2438.815
986.7646, 2435.583
987.2468, 2431.984
987.7289, 2430.972
988.2110, 2432.050
988.6931, 2432.927
989.1752, 2433.575
989.6573, 2434.335
990.1395, 2435.946
990.6216, 2436.724
991.1037, 2433.297
991.5858, 2428.107
992.0679, 2425.153
992.5500, 2427.496
993.0322, 2429.292
993.5143, 2430.466
993.9964, 2430.727
994.4785, 2429.372
994.9606, 2426.708
995.4427, 2424.818
995.9249, 2423.834
996.4070, 2424.003
996.8891, 2426.709
997.3712, 2429.560
997.8533, 2430.396
998.3354, 2429.433
998.8176, 2429.721
999.2997, 2431.646
999.7818, 2433.732
1000.264, 2435.633
1000.746, 2437.172
1001.228, 2437.295
1001.710, 2436.821
1002.192, 2438.116
1002.674, 2442.913
1003.157, 2446.562
1003.639, 2446.211
1004.121, 2444.448
1004.603, 2443.380
1005.085, 2443.206
1005.567, 2442.005
1006.049, 2439.667
1006.531, 2438.282
1007.014, 2440.248
1007.496, 2443.384
1007.978, 2445.722
1008.460, 2447.076
1008.942, 2447.009
1009.424, 2443.228
1009.906, 2440.986
1010.388, 2441.648
1010.870, 2443.571
1011.353, 2443.409
1011.835, 2441.713
1012.317, 2442.065
1012.799, 2445.490
1013.281, 2448.458
1013.763, 2447.374
1014.245, 2445.302
1014.727, 2444.915
1015.210, 2446.490
1015.692, 2448.548
1016.174, 2451.489
1016.656, 2453.492
1017.138, 2453.141
1017.620, 2451.718
1018.102, 2451.783
1018.584, 2452.916
1019.066, 2453.922
1019.549, 2454.141
1020.031, 2454.414
1020.513, 2454.654
1020.995, 2455.233
1021.477, 2456.951
1021.959, 2459.806
1022.441, 2461.016
1022.923, 2460.270
1023.406, 2459.184
1023.888, 2458.750
1024.370, 2458.852
1024.852, 2459.650
1025.334, 2461.075
1025.816, 2462.021
1026.298, 2462.835
1026.780, 2462.138
1027.262, 2458.847
1027.745, 2454.763
1028.227, 2454.071
1028.709, 2455.750
1029.191, 2456.849
1029.673, 2456.130
1030.155, 2455.654
1030.637, 2457.008
1031.119, 2458.450
1031.602, 2458.552
1032.084, 2457.163
1032.566, 2455.522
1033.048, 2453.566
1033.530, 2452.513
1034.012, 2454.233
1034.494, 2456.503
1034.976, 2456.871
1035.458, 2455.785
1035.941, 2454.766
1036.423, 2453.104
1036.905, 2453.514
1037.387, 2457.204
1037.869, 2461.635
1038.351, 2462.814
1038.833, 2461.656
1039.315, 2461.188
1039.797, 2461.870
1040.280, 2462.479
1040.762, 2462.316
1041.244, 2461.753
1041.726, 2460.561
1042.208, 2458.966
1042.690, 2459.446
1043.172, 2462.207
1043.654, 2464.003
1044.137, 2463.027
1044.619, 2461.452
1045.101, 2462.226
1045.583, 2464.108
1046.065, 2465.169
1046.547, 2465.017
1047.029, 2463.678
1047.511, 2460.196
1047.994, 2457.417
1048.476, 2458.675
1048.958, 2462.568
1049.440, 2462.860
1049.922, 2460.039
1050.404, 2458.010
1050.886, 2460.262
1051.368, 2462.424
1051.850, 2462.001
1052.333, 2460.202
1052.815, 2459.427
1053.297, 2459.849
1053.779, 2459.000
1054.261, 2456.172
1054.743, 2453.908
1055.225, 2455.698
1055.707, 2458.992
1056.189, 2461.367
1056.672, 2462.563
1057.154, 2461.526
1057.636, 2455.961
1058.118, 2453.340
1058.600, 2457.924
1059.082, 2465.919
1059.564, 2467.809
1060.046, 2465.235
1060.529, 2462.953
1061.011, 2462.401
1061.493, 2462.672
1061.975, 2464.101
1062.457, 2465.610
1062.939, 2466.072
1063.421, 2465.313
1063.903, 2466.428
1064.385, 2469.436
1064.868, 2471.994
1065.350, 2472.041
1065.832, 2471.435
1066.314, 2472.439
1066.796, 2474.113
1067.278, 2473.316
1067.760, 2468.498
1068.242, 2464.836
1068.724, 2462.840
1069.207, 2462.630
1069.689, 2466.097
1070.171, 2470.879
1070.653, 2471.420
1071.135, 2467.144
1071.617, 2465.323
1072.099, 2472.146
1072.581, 2477.687
1073.064, 2477.850
1073.546, 2474.601
1074.028, 2474.298
1074.510, 2476.480
1074.992, 2478.350
1075.474, 2479.149
1075.956, 2479.064
1076.438, 2476.495
1076.921, 2474.257
1077.403, 2475.880
1077.885, 2482.347
1078.367, 2484.490
1078.849, 2481.898
1079.331, 2478.844
1079.813, 2477.832
1080.295, 2477.892
1080.777, 2477.744
1081.260, 2477.700
1081.742, 2478.434
1082.224, 2481.413
1082.706, 2483.167
1083.188, 2483.160
1083.670, 2482.628
1084.152, 2482.674
1084.634, 2483.218
1085.116, 2484.026
1085.599, 2485.078
1086.081, 2486.500
1086.563, 2489.417
1087.045, 2491.419
1087.527, 2491.088
1088.009, 2489.562
1088.491, 2489.527
1088.973, 2490.878
1089.455, 2491.137
1089.938, 2489.618
1090.420, 2488.515
1090.902, 2490.717
1091.384, 2493.366
1091.866, 2493.716
1092.348, 2491.635
1092.830, 2490.329
1093.312, 2489.806
1093.795, 2490.081
1094.277, 2491.414
1094.759, 2493.126
1095.241, 2493.990
1095.723, 2494.640
1096.205, 2496.287
1096.687, 2500.423
1097.169, 2502.486
1097.651, 2501.674
1098.134, 2499.813
1098.616, 2497.411
1099.098, 2495.049
1099.580, 2495.132
1100.062, 2497.183
1100.544, 2499.286
1101.026, 2501.252
1101.508, 2502.245
1101.990, 2501.223
1102.473, 2499.776
1102.955, 2499.943
1103.437, 2501.636
1103.919, 2502.353
1104.401, 2501.948
1104.883, 2501.443
1105.365, 2500.693
1105.847, 2500.926
1106.330, 2503.933
1106.812, 2508.663
1107.294, 2510.911
1107.776, 2510.019
1108.258, 2510.759
1108.740, 2514.297
1109.222, 2518.265
1109.704, 2520.663
1110.187, 2521.664
1110.669, 2520.896
1111.151, 2518.145
1111.633, 2517.335
1112.115, 2519.596
1112.597, 2521.313
1113.079, 2520.962
1113.561, 2519.816
1114.043, 2520.563
1114.526, 2522.320
1115.008, 2523.044
1115.490, 2521.679
1115.972, 2521.125
1116.454, 2522.829
1116.936, 2524.432
1117.418, 2524.336
1117.900, 2523.098
1118.382, 2523.752
1118.865, 2525.847
1119.347, 2527.337
1119.829, 2526.327
1120.311, 2525.726
1120.793, 2527.145
1121.275, 2529.312
1121.757, 2531.094
1122.239, 2532.487
1122.722, 2532.909
1123.204, 2532.380
1123.686, 2532.992
1124.168, 2537.937
1124.650, 2542.858
1125.132, 2544.434
1125.614, 2543.501
1126.096, 2542.566
1126.578, 2541.500
1127.061, 2541.132
1127.543, 2541.581
1128.025, 2542.441
1128.507, 2543.570
1128.989, 2544.717
1129.471, 2545.718
1129.953, 2546.508
1130.435, 2546.792
1130.917, 2546.487
1131.400, 2545.952
1131.882, 2545.234
1132.364, 2544.463
1132.846, 2543.813
1133.328, 2543.277
1133.810, 2542.852
1134.292, 2542.572
1134.774, 2542.125
1135.257, 2540.988
1135.739, 2540.436
1136.221, 2541.036
1136.703, 2542.383
1137.185, 2543.583
1137.667, 2544.688
1138.149, 2545.889
1138.631, 2547.238
1139.114, 2548.622
1139.596, 2550.555
1140.078, 2551.831
1140.560, 2551.406
1141.042, 2549.693
1141.524, 2549.193
1142.006, 2549.799
1142.488, 2550.956
1142.970, 2553.074
1143.453, 2554.677
1143.935, 2554.550
1144.417, 2553.870
1144.899, 2553.654
1145.381, 2553.890
1145.863, 2555.626
1146.345, 2558.783
1146.827, 2560.645
1147.309, 2557.043
1147.792, 2553.936
1148.274, 2556.713
1148.756, 2562.581
1149.238, 2566.262
1149.720, 2567.366
1150.202, 2567.548
1150.684, 2566.743
1151.166, 2566.573
1151.649, 2569.327
1152.131, 2572.580
1152.613, 2573.743
1153.095, 2573.358
1153.577, 2573.848
1154.059, 2575.381
1154.541, 2577.667
1155.023, 2580.754
1155.505, 2584.208
1155.988, 2588.634
1156.470, 2592.390
1156.952, 2592.810
1157.434, 2589.953
1157.916, 2587.767
1158.398, 2586.776
1158.880, 2586.159
1159.362, 2585.669
1159.844, 2585.658
1160.327, 2587.391
1160.809, 2589.651
1161.291, 2590.325
1161.773, 2589.004
1162.255, 2587.226
1162.737, 2584.796
1163.219, 2582.819
1163.701, 2581.657
1164.184, 2581.120
1164.666, 2581.007
1165.148, 2581.172
1165.630, 2581.465
1166.112, 2582.174
1166.594, 2581.513
1167.076, 2577.024
1167.558, 2574.005
1168.041, 2575.790
1168.523, 2580.190
1169.005, 2580.058
1169.487, 2576.512
1169.969, 2573.073
1170.451, 2570.687
1170.933, 2568.968
1171.415, 2567.471
1171.897, 2567.031
1172.380, 2568.610
1172.862, 2571.728
1173.344, 2573.703
1173.826, 2574.688
1174.308, 2575.590
1174.790, 2577.477
1175.272, 2578.357
1175.754, 2576.253
1176.236, 2573.777
1176.719, 2573.166
1177.201, 2574.327
1177.683, 2574.507
1178.165, 2573.885
1178.647, 2573.934
1179.129, 2576.277
1179.611, 2578.564
1180.093, 2580.111
1180.576, 2580.690
1181.058, 2579.548
1181.540, 2576.696
1182.022, 2575.608
1182.504, 2576.353
1182.986, 2577.909
1183.468, 2580.532
1183.950, 2582.796
1184.432, 2584.167
1184.915, 2584.458
1185.397, 2582.922
1185.879, 2579.466
1186.361, 2577.578
1186.843, 2577.544
1187.325, 2578.563
1187.807, 2581.007
1188.289, 2583.380
1188.771, 2584.286
1189.254, 2584.418
1189.736, 2585.690
1190.218, 2588.234
1190.700, 2589.052
1191.182, 2587.689
1191.664, 2585.584
1192.146, 2582.589
1192.628, 2580.578
1193.111, 2581.860
1193.593, 2585.360
1194.075, 2587.208
1194.557, 2587.289
1195.039, 2587.417
1195.521, 2587.944
1196.003, 2588.439
1196.485, 2588.200
1196.968, 2588.019
1197.450, 2588.620
1197.932, 2589.906
1198.414, 2591.293
1198.896, 2592.798
1199.378, 2593.828
1199.860, 2594.117
1200.342, 2594.311
1200.824, 2594.477
1201.307, 2595.218
1201.789, 2597.762
1202.271, 2601.791
1202.753, 2603.313
1203.235, 2602.108
1203.717, 2601.476
1204.199, 2602.647
1204.681, 2603.777
1205.163, 2602.671
1205.646, 2600.908
1206.128, 2600.248
1206.610, 2600.725
1207.092, 2600.384
1207.574, 2599.140
1208.056, 2598.507
1208.538, 2599.220
1209.020, 2600.189
1209.503, 2600.973
1209.985, 2601.025
1210.467, 2598.973
1210.949, 2594.784
1211.431, 2594.031
1211.913, 2596.971
1212.395, 2599.035
1212.877, 2598.015
1213.359, 2596.288
1213.842, 2595.875
1214.324, 2596.173
1214.806, 2596.535
1215.288, 2596.929
1215.770, 2597.431
1216.252, 2598.067
1216.734, 2598.330
1217.216, 2597.532
1217.698, 2597.098
1218.181, 2598.873
1218.663, 2601.340
1219.145, 2602.427
1219.627, 2601.815
1220.109, 2603.254
1220.591, 2606.779
1221.073, 2609.441
1221.555, 2609.261
1222.038, 2608.277
1222.520, 2607.842
1223.002, 2607.629
1223.484, 2607.211
1223.966, 2606.532
1224.448, 2606.369
1224.930, 2606.733
1225.412, 2606.497
1225.895, 2604.380
1226.377, 2602.404
1226.859, 2601.759
1227.341, 2602.349
1227.823, 2604.247
1228.305, 2607.732
1228.787, 2609.020
1229.269, 2608.222
1229.751, 2607.372
1230.234, 2607.500
1230.716, 2608.043
1231.198, 2609.090
1231.680, 2610.000
1232.162, 2609.697
1232.644, 2608.004
1233.126, 2609.013
1233.608, 2612.411
1234.090, 2614.550
1234.573, 2611.599
1235.055, 2608.831
1235.537, 2609.992
1236.019, 2612.042
1236.501, 2611.787
1236.983, 2609.330
1237.465, 2606.916
1237.947, 2604.724
1238.430, 2603.849
1238.912, 2606.130
1239.394, 2608.423
1239.876, 2609.559
1240.358, 2609.952
1240.840, 2609.759
1241.322, 2609.061
1241.804, 2608.140
1242.286, 2607.227
1242.769, 2607.832
1243.251, 2612.760
1243.733, 2616.579
1244.215, 2617.523
1244.697, 2617.083
1245.179, 2616.273
1245.661, 2615.293
1246.143, 2614.903
1246.625, 2615.159
1247.108, 2616.176
1247.590, 2619.463
1248.072, 2621.301
1248.554, 2620.353
1249.036, 2618.972
1249.518, 2619.748
1250.000, 2621.918
1250.482, 2623.697
1250.965, 2624.856
1251.447, 2624.794
1251.929, 2621.765
1252.411, 2619.780
1252.893, 2619.418
1253.375, 2619.850
1253.857, 2620.886
1254.339, 2621.887
1254.822, 2620.942
1255.304, 2618.792
1255.786, 2618.145
1256.268, 2621.561
1256.750, 2623.035
1257.232, 2621.708
1257.714, 2620.074
1258.196, 2620.552
1258.678, 2622.027
1259.161, 2623.101
1259.643, 2623.832
1260.125, 2624.538
1260.607, 2625.127
1261.089, 2626.056
1261.571, 2627.369
1262.053, 2628.818
1262.535, 2630.595
1263.017, 2632.055
1263.500, 2631.488
1263.982, 2630.310
1264.464, 2632.547
1264.946, 2639.934
1265.428, 2641.834
1265.910, 2637.403
1266.392, 2633.243
1266.874, 2635.950
1267.357, 2639.321
1267.839, 2637.687
1268.321, 2633.937
1268.803, 2633.967
1269.285, 2638.102
1269.767, 2638.706
1270.249, 2635.616
1270.731, 2633.321
1271.214, 2635.591
1271.696, 2638.454
1272.178, 2640.355
1272.660, 2641.337
1273.142, 2641.131
1273.624, 2639.909
1274.106, 2638.915
1274.588, 2638.268
1275.070, 2638.406
1275.552, 2640.250
1276.035, 2641.994
1276.517, 2643.241
1276.999, 2644.030
1277.481, 2643.934
1277.963, 2643.440
1278.445, 2644.631
1278.927, 2647.154
1279.409, 2649.330
1279.892, 2650.317
1280.374, 2651.038
1280.856, 2651.456
1281.338, 2651.955
1281.820, 2653.491
1282.302, 2655.042
1282.784, 2653.371
1283.266, 2650.085
1283.749, 2649.950
1284.231, 2657.443
1284.713, 2660.907
1285.195, 2659.336
1285.677, 2656.890
1286.159, 2656.773
1286.641, 2657.535
1287.123, 2657.110
1287.605, 2656.369
1288.088, 2657.273
1288.570, 2660.586
1289.052, 2662.527
1289.534, 2662.997
1290.016, 2662.955
1290.498, 2662.640
1290.980, 2662.448
1291.462, 2663.244
1291.944, 2663.935
1292.427, 2662.773
1292.909, 2659.552
1293.391, 2658.901
1293.873, 2660.621
1294.355, 2662.808
1294.837, 2665.522
1295.319, 2667.075
1295.801, 2666.193
1296.284, 2664.330
1296.766, 2662.246
1297.248, 2660.066
1297.730, 2658.317
1298.212, 2657.077
1298.694, 2656.594
1299.176, 2656.823
1299.658, 2658.339
1300.141, 2661.887
1300.623, 2665.031
1301.105, 2665.932
1301.587, 2665.802
1302.069, 2668.159
1302.551, 2671.072
1303.033, 2670.216
1303.515, 2661.162
1303.997, 2657.868
1304.479, 2661.649
1304.962, 2665.461
1305.444, 2666.891
##END=



