##NAMES=Segelerite
##RRUFFID=R080127
##IDEAL CHEMISTRY=CaMgFe^3+^(PO_4_)_2_(OH)&#183;4H_2_O
##LOCALITY=Tip Top mine, Custer County, South Dakota, USA
##OWNER=RRUFF
##SOURCE=Thomas A. Loomis
##DESCRIPTION=Light yellow radiating acicular crystals, on a matrix of rockbridgeite and associated with leucophosphite (R080126)
##STATUS=The identification of this mineral has been confirmed by single-crystal X-ray diffraction.
##URL=rruff.info/R080127
92.35352, 30.75736
92.83563, 29.31222
93.31775, 28.69728
93.79987, 29.25101
94.28198, 30.68003
94.76410, 32.16085
95.24622, 33.53532
95.72833, 34.86788
96.21045, 36.09318
96.69257, 37.18380
97.17468, 38.66704
97.65680, 41.27619
98.13892, 44.99374
98.62103, 48.36119
99.10315, 50.64754
99.58527, 52.15224
100.0674, 54.80907
100.5495, 58.68572
101.0316, 63.51976
101.5137, 69.03793
101.9958, 75.40588
102.4780, 81.94149
102.9601, 87.76966
103.4422, 92.21675
103.9243, 100.6773
104.4064, 114.8308
104.8885, 131.9667
105.3707, 147.4482
105.8528, 159.8137
106.3349, 172.3999
106.8170, 186.7722
107.2991, 206.2901
107.7813, 221.0780
108.2634, 227.5087
108.7455, 228.7362
109.2276, 235.0773
109.7097, 254.0101
110.1918, 272.7010
110.6740, 285.8564
111.1561, 285.4029
111.6382, 288.3290
112.1203, 296.5455
112.6024, 309.5676
113.0845, 324.0100
113.5667, 341.4741
114.0488, 358.9433
114.5309, 374.5771
115.0130, 384.1871
115.4951, 395.3250
115.9772, 410.4694
116.4594, 429.7214
116.9415, 450.3458
117.4236, 473.7157
117.9057, 497.1855
118.3878, 517.8364
118.8699, 533.2628
119.3521, 546.8149
119.8342, 560.4135
120.3163, 574.1900
120.7984, 587.8502
121.2805, 600.9092
121.7626, 613.7492
122.2448, 627.0235
122.7269, 644.3116
123.2090, 660.5997
123.6911, 670.0245
124.1732, 670.8552
124.6553, 669.4857
125.1375, 671.0413
125.6196, 675.0894
126.1017, 680.2598
126.5838, 685.8575
127.0659, 692.0298
127.5480, 698.9186
128.0302, 706.3791
128.5123, 714.9965
128.9944, 726.4477
129.4765, 740.4271
129.9586, 754.0787
130.4407, 765.2382
130.9229, 774.3119
131.4050, 782.8743
131.8871, 790.6833
132.3692, 798.4171
132.8513, 807.5093
133.3334, 816.7339
133.8156, 822.9912
134.2977, 826.5524
134.7798, 830.2966
135.2619, 834.6979
135.7440, 839.8176
136.2261, 845.6343
136.7083, 852.7157
137.1904, 861.3229
137.6725, 870.4787
138.1546, 879.3055
138.6367, 887.7837
139.1188, 896.4203
139.6010, 905.8456
140.0831, 916.0458
140.5652, 924.0139
141.0473, 928.8923
141.5294, 932.8896
142.0115, 938.8564
142.4937, 947.4847
142.9758, 956.4760
143.4579, 965.3015
143.9400, 973.8790
144.4221, 982.3755
144.9042, 990.8549
145.3864, 999.1911
145.8685, 1007.015
146.3506, 1014.512
146.8327, 1021.326
147.3148, 1027.559
147.7969, 1033.816
148.2791, 1038.025
148.7612, 1038.988
149.2433, 1038.047
149.7254, 1038.271
150.2075, 1039.076
150.6896, 1041.552
151.1718, 1046.202
151.6539, 1055.302
152.1360, 1063.261
152.6181, 1068.762
153.1002, 1072.873
153.5823, 1078.747
154.0645, 1087.924
154.5466, 1097.990
155.0287, 1107.795
155.5108, 1116.935
155.9929, 1126.307
156.4750, 1135.836
156.9572, 1145.600
157.4393, 1155.759
157.9214, 1167.662
158.4035, 1179.272
158.8856, 1189.356
159.3677, 1197.163
159.8499, 1203.961
160.3320, 1210.781
160.8141, 1217.260
161.2962, 1220.984
161.7783, 1221.068
162.2604, 1218.040
162.7426, 1212.339
163.2247, 1204.524
163.7068, 1193.736
164.1889, 1178.868
164.6710, 1160.225
165.1531, 1140.229
165.6353, 1119.059
166.1174, 1097.510
166.5995, 1076.433
167.0816, 1055.412
167.5637, 1035.464
168.0458, 1017.154
168.5280, 1000.636
169.0101, 985.4193
169.4922, 970.8262
169.9743, 957.5496
170.4564, 946.6707
170.9385, 939.6617
171.4207, 934.6061
171.9028, 929.8450
172.3849, 925.3231
172.8670, 921.6009
173.3491, 918.9357
173.8312, 917.3483
174.3134, 916.8824
174.7955, 918.2152
175.2776, 920.3936
175.7597, 921.8354
176.2418, 922.2604
176.7239, 923.8364
177.2061, 929.5153
177.6882, 938.1585
178.1703, 946.5392
178.6524, 952.0018
179.1345, 956.5713
179.6166, 963.5870
180.0988, 973.4312
180.5809, 985.0080
181.0630, 997.9362
181.5451, 1011.920
182.0272, 1025.218
182.5093, 1036.346
182.9915, 1046.302
183.4736, 1057.589
183.9557, 1070.806
184.4378, 1084.139
184.9199, 1095.719
185.4020, 1105.403
185.8842, 1113.730
186.3663, 1121.372
186.8484, 1127.930
187.3305, 1131.531
187.8126, 1131.884
188.2947, 1129.797
188.7769, 1125.872
189.2590, 1120.194
189.7411, 1114.507
190.2232, 1109.903
190.7053, 1106.213
191.1874, 1102.326
191.6696, 1098.276
192.1517, 1093.698
192.6338, 1087.852
193.1159, 1080.727
193.5980, 1072.773
194.0801, 1063.424
194.5623, 1052.931
195.0444, 1044.509
195.5265, 1038.739
196.0086, 1034.835
196.4907, 1031.186
196.9728, 1027.732
197.4550, 1024.968
197.9371, 1023.145
198.4192, 1022.258
198.9013, 1022.263
199.3834, 1023.057
199.8655, 1024.818
200.3477, 1028.331
200.8298, 1033.893
201.3119, 1039.854
201.7940, 1044.879
202.2761, 1048.730
202.7582, 1054.388
203.2404, 1062.275
203.7225, 1072.016
204.2046, 1082.642
204.6867, 1094.168
205.1688, 1106.605
205.6509, 1119.783
206.1331, 1133.721
206.6152, 1148.777
207.0973, 1165.255
207.5794, 1182.735
208.0615, 1199.813
208.5436, 1216.208
209.0258, 1233.030
209.5079, 1250.978
209.9900, 1270.234
210.4721, 1289.507
210.9542, 1309.077
211.4363, 1328.448
211.9185, 1346.098
212.4006, 1362.206
212.8827, 1376.291
213.3648, 1388.214
213.8469, 1398.871
214.3290, 1404.709
214.8112, 1405.396
215.2933, 1401.074
215.7754, 1391.710
216.2575, 1375.825
216.7396, 1357.601
217.2217, 1339.175
217.7038, 1320.036
218.1860, 1302.339
218.6681, 1286.213
219.1502, 1271.730
219.6323, 1259.415
220.1144, 1249.497
220.5965, 1241.555
221.0787, 1235.411
221.5608, 1230.937
222.0429, 1228.684
222.5250, 1228.937
223.0071, 1231.439
223.4892, 1235.276
223.9714, 1240.761
224.4535, 1247.162
224.9356, 1254.142
225.4177, 1261.499
225.8998, 1269.878
226.3819, 1279.371
226.8641, 1289.933
227.3462, 1301.078
227.8283, 1312.653
228.3104, 1324.995
228.7925, 1338.413
229.2746, 1354.445
229.7568, 1368.372
230.2389, 1379.606
230.7210, 1388.806
231.2031, 1397.635
231.6852, 1405.811
232.1673, 1413.999
232.6495, 1422.186
233.1316, 1429.177
233.6137, 1438.930
234.0958, 1452.242
234.5779, 1468.115
235.0600, 1483.550
235.5422, 1498.311
236.0243, 1513.244
236.5064, 1528.781
236.9885, 1545.114
237.4706, 1561.715
237.9527, 1578.990
238.4349, 1596.224
238.9170, 1611.619
239.3991, 1625.860
239.8812, 1637.240
240.3633, 1644.901
240.8454, 1648.014
241.3276, 1649.404
241.8097, 1648.849
242.2918, 1646.634
242.7739, 1643.376
243.2560, 1639.244
243.7381, 1633.797
244.2203, 1626.332
244.7024, 1615.031
245.1845, 1606.841
245.6666, 1602.033
246.1487, 1600.226
246.6308, 1600.736
247.1130, 1604.101
247.5951, 1608.937
248.0772, 1614.938
248.5593, 1622.542
249.0414, 1630.012
249.5235, 1638.435
250.0057, 1646.006
250.4878, 1649.997
250.9699, 1650.372
251.4520, 1647.183
251.9341, 1640.506
252.4162, 1630.351
252.8984, 1616.500
253.3805, 1598.570
253.8626, 1577.048
254.3447, 1552.981
254.8268, 1525.083
255.3089, 1496.533
255.7911, 1468.207
256.2732, 1439.840
256.7553, 1412.783
257.2374, 1387.001
257.7195, 1362.475
258.2017, 1338.794
258.6838, 1314.630
259.1659, 1293.931
259.6480, 1277.924
260.1301, 1266.883
260.6122, 1256.576
261.0944, 1246.422
261.5765, 1237.696
262.0586, 1231.776
262.5407, 1229.077
263.0228, 1228.109
263.5049, 1228.826
263.9871, 1231.191
264.4692, 1233.846
264.9513, 1236.297
265.4334, 1239.866
265.9155, 1246.063
266.3976, 1255.343
266.8798, 1265.417
267.3619, 1276.154
267.8440, 1287.449
268.3261, 1297.406
268.8082, 1305.354
269.2903, 1313.329
269.7725, 1323.490
270.2546, 1336.652
270.7367, 1347.535
271.2188, 1354.802
271.7009, 1359.233
272.1830, 1364.519
272.6652, 1371.223
273.1473, 1377.114
273.6294, 1380.219
274.1115, 1379.908
274.5936, 1380.596
275.0757, 1382.743
275.5579, 1386.137
276.0400, 1390.564
276.5221, 1396.456
277.0042, 1401.587
277.4863, 1404.213
277.9684, 1404.097
278.4506, 1404.614
278.9327, 1405.944
279.4148, 1408.078
279.8969, 1411.719
280.3790, 1417.304
280.8611, 1421.398
281.3433, 1421.521
281.8254, 1417.713
282.3075, 1415.218
282.7896, 1414.774
283.2717, 1414.399
283.7538, 1410.553
284.2360, 1403.123
284.7181, 1395.275
285.2002, 1387.985
285.6823, 1381.317
286.1644, 1376.136
286.6465, 1372.782
287.1287, 1369.833
287.6108, 1364.786
288.0929, 1357.824
288.5750, 1352.556
289.0571, 1350.881
289.5392, 1351.970
290.0214, 1352.383
290.5035, 1351.965
290.9856, 1352.107
291.4677, 1354.428
291.9498, 1358.724
292.4319, 1363.580
292.9141, 1368.587
293.3962, 1373.917
293.8783, 1380.181
294.3604, 1387.374
294.8425, 1394.704
295.3246, 1401.886
295.8068, 1408.807
296.2889, 1414.937
296.7710, 1420.271
297.2531, 1424.744
297.7352, 1428.645
298.2173, 1431.822
298.6995, 1433.016
299.1816, 1430.511
299.6637, 1425.385
300.1458, 1420.159
300.6279, 1415.656
301.1100, 1410.215
301.5922, 1401.059
302.0743, 1388.906
302.5564, 1376.763
303.0385, 1366.179
303.5206, 1356.683
304.0027, 1347.323
304.4849, 1337.965
304.9670, 1329.117
305.4491, 1321.247
305.9312, 1314.357
306.4133, 1308.452
306.8954, 1303.504
307.3776, 1299.575
307.8597, 1297.066
308.3418, 1296.078
308.8239, 1295.505
309.3060, 1295.041
309.7881, 1294.393
310.2703, 1293.110
310.7524, 1291.531
311.2345, 1288.891
311.7166, 1284.790
312.1987, 1279.209
312.6808, 1271.985
313.1630, 1262.866
313.6451, 1252.028
314.1272, 1239.578
314.6093, 1226.022
315.0914, 1210.559
315.5735, 1192.354
316.0557, 1171.748
316.5378, 1150.591
317.0199, 1128.480
317.5020, 1106.896
317.9841, 1086.635
318.4662, 1068.730
318.9484, 1051.554
319.4305, 1034.790
319.9126, 1018.396
320.3947, 1002.264
320.8768, 985.8391
321.3589, 970.0671
321.8411, 955.1956
322.3232, 940.9928
322.8053, 928.7435
323.2874, 919.6479
323.7695, 912.4876
324.2516, 905.3336
324.7338, 897.8350
325.2159, 890.3441
325.6980, 882.5682
326.1801, 873.9655
326.6622, 867.4007
327.1443, 863.7803
327.6265, 861.9222
328.1086, 860.6597
328.5907, 861.6234
329.0728, 861.3271
329.5549, 858.5827
330.0370, 853.3445
330.5192, 849.5712
331.0013, 848.1052
331.4834, 847.3647
331.9655, 846.2621
332.4476, 844.5824
332.9297, 842.8422
333.4119, 840.6323
333.8940, 838.3400
334.3761, 837.9204
334.8582, 840.3754
335.3403, 843.0999
335.8224, 844.6022
336.3046, 844.0975
336.7867, 844.9037
337.2688, 847.9698
337.7509, 851.7013
338.2330, 852.6501
338.7151, 850.0319
339.1973, 847.0602
339.6794, 844.8190
340.1615, 843.3392
340.6436, 842.6176
341.1257, 842.9807
341.6078, 843.4481
342.0899, 842.6170
342.5721, 840.4196
343.0542, 838.2454
343.5363, 836.5765
344.0184, 835.2849
344.5005, 833.8676
344.9826, 832.3867
345.4648, 830.4484
345.9469, 827.5328
346.4290, 823.7108
346.9111, 819.8610
347.3932, 816.0156
347.8753, 812.3323
348.3575, 809.3116
348.8396, 806.9067
349.3217, 804.5695
349.8038, 801.9241
350.2859, 799.0762
350.7680, 796.1846
351.2502, 793.1554
351.7323, 790.4835
352.2144, 789.2804
352.6965, 789.0104
353.1786, 788.0889
353.6607, 785.2728
354.1429, 781.5900
354.6250, 778.2296
355.1071, 775.2570
355.5892, 772.5403
356.0713, 769.8658
356.5534, 767.4216
357.0356, 765.4887
357.5177, 764.7807
357.9998, 764.1101
358.4819, 762.2377
358.9640, 759.4520
359.4461, 757.4175
359.9283, 757.6572
360.4104, 758.6642
360.8925, 759.1823
361.3746, 758.7665
361.8567, 758.0897
362.3388, 757.1417
362.8210, 756.1198
363.3031, 755.4560
363.7852, 755.3234
364.2673, 755.5414
364.7494, 756.2469
365.2315, 757.8097
365.7137, 758.5347
366.1958, 756.8046
366.6779, 754.5067
367.1600, 753.8451
367.6421, 756.6289
368.1242, 759.4544
368.6064, 762.2000
369.0885, 764.9315
369.5706, 765.4642
370.0527, 761.9594
370.5348, 757.6969
371.0169, 754.8085
371.4991, 754.4496
371.9812, 753.5150
372.4633, 751.2327
372.9454, 748.2526
373.4275, 747.0570
373.9096, 748.6642
374.3918, 750.2731
374.8739, 750.4745
375.3560, 748.8622
375.8381, 747.7155
376.3202, 747.1528
376.8023, 746.9107
377.2845, 746.6161
377.7666, 746.2601
378.2487, 745.8905
378.7308, 745.5684
379.2129, 745.2514
379.6950, 744.5880
380.1772, 743.4730
380.6593, 742.4996
381.1414, 742.2623
381.6235, 742.7045
382.1056, 743.3611
382.5877, 744.2998
383.0699, 745.1780
383.5520, 745.0986
384.0341, 744.1667
384.5162, 743.4467
384.9983, 743.7110
385.4804, 744.6593
385.9626, 745.8797
386.4447, 747.4849
386.9268, 748.5259
387.4089, 747.2284
387.8910, 744.5939
388.3731, 742.9086
388.8553, 743.6508
389.3374, 745.5081
389.8195, 747.5215
390.3016, 749.6166
390.7837, 751.4252
391.2658, 752.7504
391.7480, 753.6337
392.2301, 754.0854
392.7122, 753.7997
393.1943, 753.5280
393.6764, 753.6385
394.1585, 754.0576
394.6407, 754.5562
395.1228, 754.7121
395.6049, 755.2126
396.0870, 756.5194
396.5691, 758.9608
397.0512, 761.3016
397.5334, 763.1879
398.0155, 764.8942
398.4976, 766.7377
398.9797, 768.6953
399.4618, 770.8536
399.9439, 773.3621
400.4261, 776.2079
400.9082, 778.6832
401.3903, 780.4630
401.8724, 782.1576
402.3545, 784.1419
402.8366, 786.4012
403.3188, 788.9250
403.8009, 791.7417
404.2830, 794.8082
404.7651, 798.0667
405.2472, 801.5590
405.7293, 805.0325
406.2115, 808.1891
406.6936, 810.9674
407.1757, 815.0467
407.6578, 820.8944
408.1399, 826.8197
408.6220, 830.3806
409.1042, 831.6545
409.5863, 834.1874
410.0684, 839.3533
410.5505, 846.0233
411.0326, 851.6735
411.5147, 856.3636
411.9969, 861.1652
412.4790, 867.1915
412.9611, 873.9520
413.4432, 879.9633
413.9253, 884.8540
414.4074, 889.9393
414.8896, 897.1455
415.3717, 905.6898
415.8538, 913.6862
416.3359, 919.7142
416.8180, 925.0648
417.3001, 930.5690
417.7823, 936.3359
418.2644, 942.5643
418.7465, 949.5941
419.2286, 957.1744
419.7107, 965.0016
420.1928, 973.3929
420.6750, 981.5969
421.1571, 989.2876
421.6392, 996.6043
422.1213, 1003.717
422.6034, 1010.348
423.0855, 1017.039
423.5677, 1024.002
424.0498, 1031.119
424.5319, 1038.862
425.0140, 1048.232
425.4961, 1057.884
425.9782, 1066.451
426.4604, 1072.937
426.9425, 1079.834
427.4246, 1087.472
427.9067, 1095.865
428.3888, 1104.781
428.8709, 1114.912
429.3531, 1124.324
429.8352, 1131.650
430.3173, 1136.114
430.7994, 1142.083
431.2815, 1150.112
431.7636, 1158.913
432.2458, 1166.048
432.7279, 1171.383
433.2100, 1177.071
433.6921, 1184.048
434.1742, 1191.941
434.6563, 1199.142
435.1385, 1205.713
435.6206, 1212.298
436.1027, 1219.083
436.5848, 1226.321
437.0669, 1234.992
437.5490, 1245.834
438.0312, 1256.849
438.5133, 1265.290
438.9954, 1272.097
439.4775, 1279.856
439.9596, 1290.620
440.4417, 1302.502
440.9239, 1313.601
441.4060, 1323.818
441.8881, 1334.878
442.3702, 1348.333
442.8523, 1362.716
443.3344, 1376.732
443.8166, 1390.088
444.2987, 1402.935
444.7808, 1414.438
445.2629, 1425.330
445.7450, 1437.891
446.2271, 1455.135
446.7093, 1471.564
447.1914, 1484.521
447.6735, 1492.284
448.1556, 1502.064
448.6377, 1514.905
449.1198, 1528.949
449.6020, 1542.337
450.0841, 1554.150
450.5662, 1566.766
451.0483, 1581.091
451.5304, 1596.520
452.0125, 1609.835
452.4947, 1620.732
452.9768, 1630.803
453.4589, 1641.081
453.9410, 1651.660
454.4231, 1661.488
454.9052, 1670.788
455.3874, 1678.939
455.8695, 1685.232
456.3516, 1689.751
456.8337, 1692.961
457.3158, 1694.777
457.7979, 1695.621
458.2801, 1696.756
458.7622, 1697.946
459.2443, 1697.456
459.7264, 1693.223
460.2085, 1686.968
460.6906, 1681.202
461.1728, 1676.626
461.6549, 1671.117
462.1370, 1662.446
462.6191, 1652.125
463.1012, 1642.547
463.5833, 1635.636
464.0655, 1628.668
464.5476, 1620.583
465.0297, 1611.439
465.5118, 1601.624
465.9939, 1590.258
466.4760, 1579.122
466.9582, 1569.376
467.4403, 1562.458
467.9224, 1554.255
468.4045, 1543.770
468.8866, 1532.389
469.3687, 1522.037
469.8509, 1514.047
470.3330, 1504.948
470.8151, 1493.527
471.2972, 1480.114
471.7793, 1468.259
472.2614, 1458.319
472.7436, 1448.688
473.2257, 1438.491
473.7078, 1427.691
474.1899, 1415.525
474.6720, 1401.544
475.1541, 1387.049
475.6363, 1374.342
476.1184, 1363.070
476.6005, 1350.992
477.0826, 1336.907
477.5647, 1321.674
478.0468, 1306.411
478.5290, 1291.090
479.0111, 1275.444
479.4932, 1259.073
479.9753, 1242.366
480.4574, 1225.793
480.9395, 1209.476
481.4217, 1193.034
481.9038, 1176.639
482.3859, 1160.144
482.8680, 1143.530
483.3501, 1126.407
483.8322, 1109.520
484.3144, 1092.984
484.7965, 1076.945
485.2786, 1061.353
485.7607, 1046.009
486.2428, 1031.456
486.7249, 1018.017
487.2071, 1006.647
487.6892, 994.6248
488.1713, 981.5059
488.6534, 968.0800
489.1355, 955.2218
489.6176, 942.8273
490.0998, 931.2113
490.5819, 920.4378
491.0640, 910.3354
491.5461, 900.1821
492.0282, 889.8624
492.5103, 880.0240
492.9925, 871.1990
493.4746, 863.2338
493.9567, 856.1712
494.4388, 850.0194
494.9209, 844.1132
495.4030, 837.3400
495.8852, 830.1393
496.3673, 823.4575
496.8494, 817.9720
497.3315, 812.8927
497.8136, 807.5472
498.2957, 801.9344
498.7779, 796.3094
499.2600, 790.5530
499.7421, 784.9243
500.2242, 779.5236
500.7063, 774.2272
501.1884, 769.5610
501.6706, 766.2872
502.1527, 763.4966
502.6348, 760.3290
503.1169, 755.8050
503.5990, 751.9880
504.0811, 749.6253
504.5633, 748.2201
505.0454, 745.7565
505.5275, 741.6215
506.0096, 737.5660
506.4917, 734.4374
506.9738, 732.3322
507.4560, 729.4984
507.9381, 725.7182
508.4202, 721.7845
508.9023, 718.3568
509.3844, 715.4432
509.8665, 713.3304
510.3487, 712.3123
510.8308, 711.6783
511.3129, 710.0808
511.7950, 707.7423
512.2772, 705.6896
512.7593, 704.4041
513.2414, 703.7406
513.7235, 703.8427
514.2056, 704.6461
514.6877, 705.0145
515.1699, 703.8674
515.6520, 702.1285
516.1341, 700.6566
516.6162, 699.7755
517.0983, 698.8809
517.5804, 697.5573
518.0626, 696.1182
518.5447, 695.0816
519.0268, 695.2620
519.5089, 695.0446
519.9910, 693.7540
520.4731, 691.5012
520.9553, 690.1613
521.4374, 690.0349
521.9195, 690.3972
522.4016, 691.0153
522.8837, 692.0564
523.3658, 692.4780
523.8480, 692.2357
524.3301, 691.4731
524.8122, 690.0782
525.2943, 688.1321
525.7764, 686.8033
526.2585, 686.5442
526.7407, 686.9370
527.2228, 687.2106
527.7049, 687.4240
528.1870, 687.8943
528.6691, 688.9474
529.1512, 690.2957
529.6334, 691.9191
530.1155, 693.8574
530.5976, 694.8541
531.0797, 692.9058
531.5618, 690.2328
532.0439, 689.1191
532.5261, 691.5383
533.0082, 693.4960
533.4903, 693.5530
533.9724, 692.4999
534.4545, 692.0378
534.9366, 692.8414
535.4188, 693.6554
535.9009, 694.2173
536.3830, 694.5374
536.8651, 694.7959
537.3472, 694.9537
537.8293, 695.1558
538.3115, 695.2507
538.7936, 695.1437
539.2757, 696.6271
539.7578, 700.2171
540.2399, 704.1749
540.7220, 705.8310
541.2042, 705.5955
541.6863, 705.9560
542.1684, 707.8106
542.6505, 710.4855
543.1326, 713.3514
543.6147, 716.2792
544.0969, 718.8616
544.5790, 719.8550
545.0611, 720.9986
545.5432, 723.9287
546.0253, 728.8304
546.5074, 733.9562
546.9896, 738.9435
547.4717, 743.5934
547.9538, 747.7359
548.4359, 750.9150
548.9180, 754.1779
549.4001, 757.5995
549.8823, 761.1868
550.3644, 764.9501
550.8465, 768.9876
551.3286, 773.1282
551.8107, 777.4669
552.2928, 781.9309
552.7750, 785.7990
553.2571, 789.0519
553.7392, 791.9263
554.2213, 794.5367
554.7034, 796.8723
555.1855, 799.0361
555.6677, 801.0413
556.1498, 802.7828
556.6319, 803.9843
557.1140, 804.8392
557.5961, 805.7899
558.0782, 807.2092
558.5604, 808.3370
559.0425, 808.1923
559.5246, 807.2808
560.0067, 806.7309
560.4888, 807.4672
560.9709, 808.2506
561.4531, 808.4379
561.9352, 808.0101
562.4173, 807.7568
562.8994, 808.8401
563.3815, 809.2541
563.8636, 807.8477
564.3458, 803.7531
564.8279, 800.2025
565.3100, 797.2403
565.7921, 794.7274
566.2742, 792.7217
566.7563, 791.3239
567.2385, 789.4075
567.7206, 786.7589
568.2027, 783.4405
568.6848, 779.3705
569.1669, 774.6376
569.6490, 770.3231
570.1312, 767.2740
570.6133, 764.8085
571.0954, 762.1387
571.5775, 759.1948
572.0596, 755.8330
572.5417, 751.6559
573.0239, 747.1466
573.5060, 742.6842
573.9881, 738.0679
574.4702, 734.1303
574.9523, 731.2235
575.4344, 729.0514
575.9166, 727.2856
576.3987, 726.6046
576.8808, 725.3083
577.3629, 722.8705
577.8450, 719.7152
578.3271, 717.2024
578.8093, 715.4249
579.2914, 714.0006
579.7735, 712.7402
580.2556, 711.6902
580.7377, 711.3456
581.2198, 711.7721
581.7020, 712.0921
582.1841, 711.3434
582.6662, 709.9510
583.1483, 709.0020
583.6304, 708.7321
584.1125, 708.4597
584.5947, 707.2898
585.0768, 705.8212
585.5589, 704.9447
586.0410, 705.7695
586.5231, 706.3718
587.0052, 705.6314
587.4873, 704.0543
587.9694, 702.9925
588.4515, 703.5114
588.9337, 703.7512
589.4158, 702.9763
589.8979, 701.1790
590.3800, 700.1493
590.8621, 700.2215
591.3442, 700.4520
591.8264, 700.3312
592.3085, 699.8558
592.7906, 698.8038
593.2727, 697.0390
593.7548, 695.0823
594.2369, 693.3084
594.7191, 691.7864
595.2012, 690.9666
595.6833, 691.2985
596.1654, 691.6520
596.6475, 690.6587
597.1296, 688.7272
597.6118, 686.7831
598.0939, 685.2087
598.5760, 683.7903
599.0581, 682.3173
599.5402, 680.8678
600.0223, 679.8320
600.5045, 679.5496
600.9866, 679.5200
601.4687, 679.6144
601.9508, 679.9884
602.4329, 679.7736
602.9150, 678.6655
603.3972, 677.3929
603.8793, 676.5541
604.3614, 676.1465
604.8435, 676.0809
605.3256, 676.3514
605.8077, 676.9210
606.2899, 677.9603
606.7720, 679.3203
607.2541, 680.2863
607.7362, 680.4946
608.2183, 680.2731
608.7004, 679.7944
609.1826, 679.1630
609.6647, 678.7595
610.1468, 678.8737
610.6289, 679.2023
611.1110, 679.6815
611.5931, 680.3258
612.0753, 680.6844
612.5574, 680.1093
613.0395, 679.6838
613.5216, 680.1193
614.0037, 682.0986
614.4858, 683.0951
614.9680, 682.6191
615.4501, 681.8123
615.9322, 682.2153
616.4143, 683.9082
616.8964, 685.0551
617.3785, 685.1296
617.8607, 684.8173
618.3428, 685.3617
618.8249, 686.5884
619.3070, 687.7747
619.7891, 688.7469
620.2712, 689.4083
620.7534, 689.4828
621.2355, 689.1046
621.7176, 688.8652
622.1997, 688.9976
622.6818, 689.4154
623.1639, 690.3727
623.6461, 692.1248
624.1282, 692.7083
624.6103, 690.5695
625.0924, 688.3854
625.5745, 687.9141
626.0566, 689.8867
626.5388, 691.5259
627.0209, 692.8566
627.5030, 693.6545
627.9851, 693.1172
628.4672, 691.3516
628.9493, 690.7943
629.4315, 692.4783
629.9136, 694.7791
630.3957, 694.9670
630.8778, 693.6377
631.3599, 692.5697
631.8420, 693.4521
632.3242, 694.2686
632.8063, 693.1846
633.2884, 690.5436
633.7705, 688.2531
634.2526, 687.1752
634.7347, 686.4508
635.2169, 685.6777
635.6990, 684.8154
636.1811, 684.0571
636.6632, 683.2587
637.1453, 682.7397
637.6274, 683.0343
638.1096, 684.4601
638.5917, 684.2023
639.0738, 681.7001
639.5559, 678.7439
640.0380, 677.6237
640.5201, 678.0175
641.0023, 678.6566
641.4844, 679.5170
641.9665, 679.9002
642.4486, 678.2104
642.9307, 675.5221
643.4128, 674.1892
643.8950, 677.2843
644.3771, 679.9402
644.8592, 679.3013
645.3413, 676.0172
645.8234, 673.7191
646.3055, 673.8580
646.7877, 674.2084
647.2698, 673.9989
647.7519, 673.1883
648.2340, 673.0320
648.7161, 673.6281
649.1982, 674.5885
649.6804, 675.9567
650.1625, 677.5961
650.6446, 677.9863
651.1267, 676.9042
651.6088, 675.7184
652.0909, 675.8282
652.5731, 676.8317
653.0552, 678.1180
653.5373, 679.7419
654.0194, 681.1160
654.5015, 681.6298
654.9836, 681.7653
655.4658, 682.2313
655.9479, 684.0078
656.4300, 685.2250
656.9121, 685.1945
657.3942, 684.3658
657.8763, 683.8438
658.3585, 683.3978
658.8406, 683.8464
659.3227, 685.8910
659.8048, 689.0104
660.2869, 690.0928
660.7690, 689.0416
661.2512, 688.1461
661.7333, 689.2512
662.2154, 691.3998
662.6975, 692.8556
663.1796, 693.5494
663.6617, 693.7838
664.1439, 693.2792
664.6260, 692.7051
665.1081, 692.7283
665.5902, 693.6621
666.0723, 694.5249
666.5544, 695.7332
667.0366, 696.4031
667.5187, 695.5970
668.0008, 691.7206
668.4829, 689.8401
668.9650, 690.8107
669.4471, 693.2518
669.9293, 695.3016
670.4114, 696.9703
670.8935, 697.6874
671.3756, 696.7746
671.8577, 698.0247
672.3398, 698.6586
672.8220, 698.7071
673.3041, 696.5416
673.7862, 697.1400
674.2683, 696.5726
674.7504, 695.9176
675.2325, 696.7864
675.7147, 694.7292
676.1968, 695.4901
676.6789, 695.0680
677.1610, 695.1268
677.6431, 694.0129
678.1252, 693.2069
678.6074, 693.4908
679.0895, 693.1069
679.5716, 691.6865
680.0537, 691.4382
680.5358, 690.4957
681.0179, 688.7736
681.5001, 687.0848
681.9822, 686.6470
682.4643, 686.7710
682.9464, 685.9413
683.4285, 683.6742
683.9106, 681.3032
684.3928, 679.6330
684.8749, 678.4380
685.3570, 677.4129
685.8391, 676.3149
686.3212, 675.5746
686.8033, 675.7537
687.2855, 676.1720
687.7676, 675.6731
688.2497, 673.7951
688.7318, 672.1592
689.2139, 671.0982
689.6960, 670.4779
690.1782, 669.9521
690.6603, 669.5324
691.1424, 669.3952
691.6245, 670.0612
692.1066, 670.7742
692.5887, 669.8642
693.0709, 667.7786
693.5530, 666.4696
694.0351, 668.5016
694.5172, 670.4293
694.9993, 669.5823
695.4814, 665.7133
695.9636, 663.0533
696.4457, 663.0029
696.9278, 663.5297
697.4099, 663.8193
697.8920, 663.8809
698.3741, 663.5278
698.8563, 662.6216
699.3384, 661.7231
699.8205, 661.4432
700.3026, 661.6359
700.7847, 661.6654
701.2668, 661.4960
701.7490, 660.9564
702.2311, 659.3473
702.7132, 657.4596
703.1953, 656.4706
703.6774, 657.1371
704.1595, 657.7645
704.6417, 657.8428
705.1238, 657.4572
705.6059, 656.6822
706.0880, 655.0390
706.5701, 653.8350
707.0522, 653.2790
707.5344, 653.1586
708.0165, 653.0973
708.4986, 653.1019
708.9807, 653.0636
709.4628, 653.0077
709.9449, 649.8763
710.4271, 651.5196
710.9092, 652.3482
711.3913, 652.3992
711.8734, 649.7258
712.3555, 650.2775
712.8376, 649.3578
713.3198, 648.2551
713.8019, 648.8954
714.2840, 645.9608
714.7661, 646.3158
715.2482, 645.1788
715.7303, 644.5386
716.2125, 642.4182
716.6946, 640.5880
717.1767, 640.4482
717.6588, 640.1600
718.1409, 641.2245
718.6230, 642.4036
719.1052, 643.7218
719.5873, 644.6857
720.0694, 644.8978
720.5515, 644.5527
721.0336, 643.7136
721.5157, 642.3089
721.9979, 641.2576
722.4800, 640.8080
722.9621, 640.9899
723.4442, 641.9897
723.9263, 644.8865
724.4084, 646.1548
724.8906, 645.1418
725.3727, 643.2736
725.8548, 641.8377
726.3369, 640.8154
726.8190, 640.4079
727.3011, 640.7598
727.7833, 641.2934
728.2654, 641.2224
728.7475, 640.7510
729.2296, 640.4048
729.7117, 640.4984
730.1938, 640.4076
730.6760, 639.3395
731.1581, 637.9161
731.6402, 637.0771
732.1223, 637.5567
732.6044, 638.0241
733.0865, 638.3547
733.5687, 638.5336
734.0508, 638.5087
734.5329, 638.2516
735.0150, 637.9007
735.4971, 637.3964
735.9792, 636.9327
736.4614, 637.1425
736.9435, 637.8700
737.4256, 638.3099
737.9077, 638.0432
738.3898, 637.3176
738.8719, 635.8841
739.3541, 634.0853
739.8362, 633.1575
740.3183, 634.5547
740.8004, 635.8860
741.2825, 636.1097
741.7646, 635.3618
742.2468, 634.7636
742.7289, 634.2814
743.2110, 634.0272
743.6931, 634.0907
744.1752, 634.4308
744.6573, 634.8602
745.1395, 635.3735
745.6216, 635.8685
746.1037, 636.0060
746.5858, 636.2337
747.0679, 637.2269
747.5500, 638.9897
748.0322, 640.7272
748.5143, 643.1106
748.9964, 644.5396
749.4785, 643.7114
749.9606, 639.9688
750.4427, 636.9756
750.9249, 634.7183
751.4070, 633.1418
751.8891, 632.2203
752.3712, 631.9481
752.8533, 632.7197
753.3354, 634.7045
753.8176, 636.2698
754.2997, 634.9608
754.7818, 632.5756
755.2639, 632.1620
755.7460, 634.5116
756.2281, 636.7275
756.7103, 637.2984
757.1924, 637.0472
757.6745, 636.6238
758.1566, 635.8804
758.6387, 635.4200
759.1208, 635.2496
759.6030, 635.3422
760.0851, 635.6543
760.5672, 636.1816
761.0493, 637.1394
761.5314, 638.6885
762.0135, 640.0509
762.4957, 639.9919
762.9778, 639.1338
763.4599, 638.6728
763.9420, 639.0431
764.4241, 639.5323
764.9063, 639.7513
765.3884, 639.8695
765.8705, 640.1023
766.3526, 641.1903
766.8347, 641.2673
767.3168, 639.5859
767.7990, 637.4797
768.2811, 637.2517
768.7632, 639.0293
769.2453, 640.0029
769.7274, 639.4149
770.2095, 638.2872
770.6917, 637.9958
771.1738, 638.2748
771.6559, 638.5488
772.1380, 638.6677
772.6201, 638.6423
773.1022, 638.1497
773.5844, 637.5812
774.0665, 637.6722
774.5486, 639.5141
775.0307, 640.5040
775.5128, 639.9624
775.9949, 638.6379
776.4771, 638.3279
776.9592, 639.0826
777.4413, 639.3649
777.9234, 638.4177
778.4055, 637.2772
778.8876, 638.0798
779.3698, 639.9999
779.8519, 640.9117
780.3340, 638.4066
780.8161, 636.1661
781.2982, 636.4151
781.7803, 638.2232
782.2625, 638.9985
782.7446, 637.6474
783.2267, 636.8048
783.7088, 637.2521
784.1909, 638.3962
784.6730, 638.2494
785.1552, 636.8268
785.6373, 636.1486
786.1194, 637.3691
786.6015, 639.3616
787.0836, 640.7512
787.5657, 641.5623
788.0479, 641.8407
788.5300, 641.0416
789.0121, 640.2762
789.4942, 640.0284
789.9763, 640.2197
790.4584, 640.5380
790.9406, 641.3152
791.4227, 641.4795
791.9048, 640.4225
792.3869, 638.7150
792.8690, 638.3356
793.3511, 639.2038
793.8333, 640.1149
794.3154, 640.4738
794.7975, 640.6075
795.2796, 641.0426
795.7617, 641.6117
796.2438, 641.7514
796.7260, 640.5924
797.2081, 639.6490
797.6902, 639.8704
798.1723, 640.8538
798.6544, 640.9341
799.1365, 639.7640
799.6187, 638.6132
800.1008, 637.8964
800.5829, 637.4873
801.0650, 636.8041
801.5471, 635.9700
802.0292, 635.7945
802.5114, 637.3878
802.9935, 639.3005
803.4756, 640.3228
803.9577, 640.5519
804.4398, 640.3287
804.9219, 639.0392
805.4041, 638.1011
805.8862, 637.9899
806.3683, 638.5370
806.8504, 639.0770
807.3325, 639.6117
807.8146, 640.1550
808.2968, 640.7897
808.7789, 641.3796
809.2610, 641.6357
809.7431, 641.5797
810.2252, 641.2953
810.7073, 640.6227
811.1895, 639.9343
811.6716, 639.3104
812.1537, 638.8423
812.6358, 638.8474
813.1179, 639.7548
813.6000, 640.6346
814.0822, 641.3386
814.5643, 641.8555
815.0464, 642.1266
815.5285, 642.1525
816.0106, 641.9484
816.4927, 641.2700
816.9749, 640.6275
817.4570, 641.0769
817.9391, 642.2311
818.4212, 642.9873
818.9033, 641.9893
819.3854, 641.3705
819.8676, 642.4576
820.3497, 644.6527
820.8318, 645.8678
821.3139, 645.6988
821.7960, 645.4774
822.2781, 645.6237
822.7603, 645.8163
823.2424, 644.9114
823.7245, 643.1533
824.2066, 642.2095
824.6887, 643.4874
825.1708, 644.9345
825.6530, 644.0579
826.1351, 641.9634
826.6172, 641.1266
827.0993, 643.8441
827.5814, 645.9672
828.0635, 646.6667
828.5457, 646.3261
829.0278, 645.5553
829.5099, 644.2345
829.9920, 643.3386
830.4741, 643.0819
830.9562, 643.4119
831.4384, 644.6305
831.9205, 646.3661
832.4026, 647.6849
832.8847, 648.2580
833.3668, 648.3275
833.8489, 647.5981
834.3311, 646.5449
834.8132, 645.9590
835.2953, 645.5450
835.7774, 646.3017
836.2595, 648.8468
836.7416, 651.9148
837.2238, 653.5060
837.7059, 653.7211
838.1880, 653.2302
838.6701, 651.9675
839.1522, 650.7440
839.6343, 650.5491
840.1165, 650.8678
840.5986, 650.9562
841.0807, 650.3380
841.5628, 649.9400
842.0449, 649.8402
842.5270, 650.1231
843.0092, 651.0914
843.4913, 653.0185
843.9734, 653.9875
844.4555, 653.6794
844.9376, 652.9633
845.4197, 652.7302
845.9019, 652.8905
846.3840, 653.3779
846.8661, 654.3225
847.3482, 654.9026
847.8303, 654.1538
848.3124, 653.1378
848.7946, 652.8816
849.2767, 653.9116
849.7588, 654.4937
850.2409, 654.5402
850.7230, 654.2975
851.2051, 653.7431
851.6873, 653.0036
852.1694, 652.9684
852.6515, 653.7025
853.1336, 654.7689
853.6157, 656.4889
854.0978, 657.9302
854.5800, 657.8065
855.0621, 655.6814
855.5442, 654.6622
856.0263, 656.6449
856.5084, 658.5610
856.9905, 658.8914
857.4727, 657.6451
857.9548, 656.2122
858.4369, 654.5309
858.9190, 653.3978
859.4011, 653.6532
859.8832, 654.6754
860.3654, 655.5816
860.8475, 656.3431
861.3296, 656.9971
861.8117, 657.6135
862.2938, 658.0855
862.7759, 658.2831
863.2581, 658.2532
863.7402, 658.3726
864.2223, 658.7140
864.7044, 658.9098
865.1865, 658.6385
865.6686, 658.2230
866.1508, 658.4974
866.6329, 659.3841
867.1150, 660.5498
867.5971, 662.4532
868.0792, 663.9598
868.5613, 664.1881
869.0435, 663.4615
869.5256, 662.7546
870.0077, 661.9020
870.4898, 661.5738
870.9719, 662.1073
871.4540, 663.0240
871.9362, 663.1367
872.4183, 662.5724
872.9004, 662.3560
873.3825, 662.9703
873.8646, 663.7006
874.3467, 663.7977
874.8289, 663.5742
875.3110, 663.4979
875.7931, 663.7960
876.2752, 664.1362
876.7573, 664.5501
877.2394, 664.9337
877.7216, 665.1120
878.2037, 665.0615
878.6858, 665.2284
879.1679, 665.6938
879.6500, 666.2377
880.1321, 666.3604
880.6143, 666.5181
881.0964, 667.5565
881.5785, 669.9039
882.0606, 671.8459
882.5427, 672.5710
883.0248, 672.8334
883.5070, 673.0975
883.9891, 673.3248
884.4712, 673.8026
884.9533, 674.5398
885.4354, 675.4369
885.9175, 676.5873
886.3997, 677.7806
886.8818, 678.4860
887.3639, 678.7208
887.8460, 678.9877
888.3281, 679.3812
888.8102, 680.0287
889.2924, 680.9708
889.7745, 682.2144
890.2566, 684.0737
890.7387, 686.9637
891.2208, 689.1170
891.7029, 689.3361
892.1851, 688.6454
892.6672, 690.0084
893.1493, 692.9935
893.6314, 695.6835
894.1135, 697.3884
894.5956, 698.2758
895.0778, 697.5525
895.5599, 696.1437
896.0420, 696.5247
896.5241, 699.8700
897.0062, 702.7241
897.4883, 704.4359
897.9705, 705.5159
898.4526, 706.5850
898.9347, 707.7544
899.4168, 709.6105
899.8989, 712.5076
900.3810, 715.5442
900.8632, 718.5251
901.3453, 721.0188
901.8274, 722.5160
902.3095, 721.8920
902.7916, 722.1293
903.2737, 723.6975
903.7559, 725.4584
904.2380, 726.1075
904.7201, 725.8481
905.2022, 727.0506
905.6843, 729.8812
906.1664, 732.0372
906.6486, 730.6598
907.1307, 728.3822
907.6128, 727.9304
908.0949, 729.7130
908.5770, 730.3173
909.0591, 728.5939
909.5413, 726.5888
910.0234, 724.8542
910.5055, 723.5294
910.9876, 724.0270
911.4697, 726.2159
911.9518, 727.5463
912.4340, 725.8087
912.9161, 723.1425
913.3982, 721.4772
913.8803, 720.6501
914.3624, 720.2237
914.8445, 720.9361
915.3267, 720.8623
915.8088, 719.2460
916.2909, 716.9822
916.7730, 716.0880
917.2551, 716.5125
917.7372, 716.0948
918.2194, 713.9664
918.7015, 712.0635
919.1836, 713.2065
919.6657, 715.6171
920.1478, 716.8279
920.6299, 715.7756
921.1121, 714.4847
921.5942, 712.1383
922.0763, 710.8380
922.5584, 713.0565
923.0405, 718.9982
923.5226, 722.0266
924.0048, 721.8447
924.4869, 720.5485
924.9690, 719.3623
925.4511, 718.2806
925.9332, 717.2166
926.4153, 716.1771
926.8975, 715.5515
927.3796, 715.5520
927.8617, 715.9072
928.3438, 716.7675
928.8259, 717.9007
929.3080, 717.9496
929.7902, 716.9357
930.2723, 716.0530
930.7544, 715.8142
931.2365, 716.0015
931.7186, 716.5433
932.2007, 717.3071
932.6829, 718.0126
933.1650, 718.1706
933.6471, 718.8705
934.1292, 720.4492
934.6113, 722.4273
935.0934, 724.2998
935.5756, 726.0765
936.0577, 726.8278
936.5398, 726.2684
937.0219, 725.6987
937.5040, 726.7294
937.9861, 728.2935
938.4683, 728.8890
938.9504, 727.8624
939.4325, 728.1415
939.9146, 731.0485
940.3967, 734.2111
940.8788, 736.4968
941.3610, 737.9354
941.8431, 739.0202
942.3252, 739.7626
942.8073, 740.2752
943.2894, 739.7477
943.7715, 739.7336
944.2537, 742.2059
944.7358, 746.5174
945.2179, 750.2214
945.7000, 752.1650
946.1821, 754.2949
946.6642, 756.9059
947.1464, 759.9578
947.6285, 763.5403
948.1106, 767.5645
948.5927, 771.0366
949.0748, 773.3400
949.5569, 776.2491
950.0391, 781.2529
950.5212, 787.8079
951.0033, 795.3610
951.4854, 804.6277
951.9675, 812.8903
952.4496, 819.1108
952.9318, 826.0617
953.4139, 835.8966
953.8960, 848.3519
954.3781, 862.4829
954.8602, 878.0389
955.3423, 893.4383
955.8245, 905.2288
956.3066, 918.5226
956.7887, 936.3890
957.2708, 959.1753
957.7529, 986.1857
958.2350, 1018.082
958.7172, 1052.626
959.1993, 1089.405
959.6814, 1128.804
960.1635, 1171.224
960.6456, 1216.538
961.1277, 1263.971
961.6099, 1314.060
962.0920, 1365.006
962.5741, 1415.976
963.0562, 1467.364
963.5383, 1518.435
964.0204, 1567.420
964.5026, 1621.695
964.9847, 1680.714
965.4668, 1745.322
965.9489, 1816.002
966.4310, 1892.377
966.9131, 1976.888
967.3953, 2068.933
967.8774, 2168.463
968.3595, 2276.161
968.8416, 2389.730
969.3237, 2511.597
969.8058, 2638.066
970.2880, 2755.663
970.7701, 2867.023
971.2522, 2956.527
971.7343, 3025.265
972.2164, 3060.312
972.6985, 3045.693
973.1807, 2983.533
973.6628, 2878.300
974.1449, 2708.140
974.6270, 2530.143
975.1091, 2342.254
975.5912, 2160.478
976.0734, 1997.163
976.5555, 1852.814
977.0376, 1728.769
977.5197, 1626.920
978.0018, 1542.742
978.4839, 1475.061
978.9661, 1420.859
979.4482, 1377.592
979.9303, 1344.941
980.4124, 1321.955
980.8945, 1310.530
981.3766, 1304.416
981.8588, 1301.767
982.3409, 1303.138
982.8230, 1310.452
983.3051, 1323.341
983.7872, 1339.997
984.2693, 1360.154
984.7515, 1383.120
985.2336, 1408.397
985.7157, 1436.188
986.1978, 1466.966
986.6799, 1501.151
987.1620, 1536.786
987.6442, 1573.502
988.1263, 1612.822
988.6084, 1655.245
989.0905, 1701.323
989.5726, 1751.395
990.0547, 1805.594
990.5369, 1863.110
991.0190, 1926.768
991.5011, 1990.381
991.9832, 2052.466
992.4653, 2111.936
992.9474, 2168.308
993.4296, 2221.999
993.9117, 2264.882
994.3938, 2294.922
994.8759, 2312.151
995.3580, 2318.485
995.8401, 2311.337
996.3223, 2286.386
996.8044, 2239.058
997.2865, 2180.347
997.7686, 2109.122
998.2507, 2030.980
998.7328, 1947.882
999.2150, 1860.785
999.6971, 1774.356
1000.179, 1690.185
1000.661, 1612.425
1001.143, 1545.651
1001.626, 1485.608
1002.108, 1428.126
1002.590, 1374.108
1003.072, 1325.633
1003.554, 1284.386
1004.036, 1246.200
1004.518, 1210.615
1005.000, 1177.810
1005.482, 1149.786
1005.965, 1125.119
1006.447, 1100.616
1006.929, 1075.177
1007.411, 1051.288
1007.893, 1030.904
1008.375, 1011.694
1008.857, 991.5304
1009.339, 969.9989
1009.822, 951.2147
1010.304, 935.3528
1010.786, 920.8820
1011.268, 907.6084
1011.750, 895.0867
1012.232, 882.4039
1012.714, 869.9432
1013.196, 858.6581
1013.678, 848.8701
1014.161, 840.3912
1014.643, 833.6872
1015.125, 827.8371
1015.607, 821.5291
1016.089, 814.9101
1016.571, 808.6746
1017.053, 802.9575
1017.535, 797.6752
1018.018, 792.6877
1018.500, 788.1862
1018.982, 784.3031
1019.464, 781.0585
1019.946, 778.4442
1020.428, 776.7735
1020.910, 774.5100
1021.392, 770.3887
1021.874, 765.9298
1022.357, 764.4211
1022.839, 764.9240
1023.321, 765.2842
1023.803, 764.7762
1024.285, 763.9147
1024.767, 762.7150
1025.249, 761.2778
1025.731, 759.5653
1026.214, 757.5593
1026.696, 756.1475
1027.178, 755.3790
1027.660, 754.8453
1028.142, 754.3745
1028.624, 753.8777
1029.106, 752.9758
1029.588, 751.8507
1030.070, 751.8679
1030.553, 753.5897
1031.035, 755.2651
1031.517, 756.5575
1031.999, 757.4586
1032.481, 757.6796
1032.963, 757.5412
1033.445, 758.0004
1033.927, 759.5826
1034.410, 760.6622
1034.892, 759.5253
1035.374, 758.4762
1035.856, 759.3991
1036.338, 762.3716
1036.820, 763.3507
1037.302, 762.2861
1037.784, 761.1552
1038.266, 761.0868
1038.749, 761.5956
1039.231, 762.3148
1039.713, 763.2251
1040.195, 764.2875
1040.677, 765.8357
1041.159, 766.8694
1041.641, 767.1256
1042.123, 767.2240
1042.605, 767.8878
1043.088, 769.0140
1043.570, 770.4355
1044.052, 772.1317
1044.534, 773.5268
1045.016, 773.5276
1045.498, 773.9510
1045.980, 775.8631
1046.462, 778.9618
1046.945, 781.9713
1047.427, 784.9188
1047.909, 787.8281
1048.391, 790.7691
1048.873, 793.4717
1049.355, 795.8436
1049.837, 797.7305
1050.319, 798.8772
1050.802, 798.7761
1051.284, 799.1193
1051.766, 800.4156
1052.248, 801.0526
1052.730, 799.2339
1053.212, 795.9363
1053.694, 794.4938
1054.176, 794.5007
1054.658, 794.0563
1055.141, 791.4425
1055.623, 789.1168
1056.105, 788.2681
1056.587, 788.0256
1057.069, 787.0981
1057.551, 785.4611
1058.033, 784.0041
1058.515, 782.8812
1058.997, 781.4986
1059.480, 778.8837
1059.962, 776.0546
1060.444, 773.8589
1060.926, 772.4330
1061.408, 771.6865
1061.890, 771.8277
1062.372, 771.9868
1062.854, 771.6625
1063.337, 771.5161
1063.819, 773.2859
1064.301, 776.1362
1064.783, 778.1847
1065.265, 778.6002
1065.747, 778.8865
1066.229, 779.0226
1066.711, 779.6520
1067.193, 781.3557
1067.676, 784.0568
1068.158, 786.5539
1068.640, 788.8703
1069.122, 791.2319
1069.604, 793.2704
1070.086, 795.9371
1070.568, 800.2662
1071.050, 805.6841
1071.532, 810.7407
1072.015, 815.1509
1072.497, 820.2161
1072.979, 826.1579
1073.461, 832.5862
1073.943, 839.0293
1074.425, 845.7337
1074.907, 853.0557
1075.389, 860.9828
1075.872, 869.7551
1076.354, 879.5223
1076.836, 889.9714
1077.318, 901.1666
1077.800, 912.6966
1078.282, 924.0848
1078.764, 935.3362
1079.246, 946.3955
1079.729, 956.9559
1080.211, 968.7778
1080.693, 983.2968
1081.175, 999.2173
1081.657, 1015.348
1082.139, 1031.732
1082.621, 1047.425
1083.103, 1062.518
1083.585, 1078.992
1084.068, 1098.834
1084.550, 1119.700
1085.032, 1140.007
1085.514, 1159.434
1085.996, 1176.771
1086.478, 1191.812
1086.960, 1204.857
1087.442, 1215.314
1087.924, 1225.680
1088.406, 1239.254
1088.889, 1253.920
1089.371, 1265.942
1089.853, 1275.421
1090.335, 1284.198
1090.817, 1292.506
1091.299, 1300.775
1091.781, 1309.214
1092.263, 1317.597
1092.746, 1325.808
1093.228, 1333.603
1093.710, 1339.660
1094.192, 1343.753
1094.674, 1346.050
1095.156, 1346.284
1095.638, 1345.014
1096.120, 1342.589
1096.603, 1339.057
1097.085, 1334.433
1097.567, 1328.751
1098.049, 1320.580
1098.531, 1308.885
1099.013, 1295.508
1099.495, 1281.642
1099.977, 1267.492
1100.459, 1253.204
1100.942, 1239.429
1101.424, 1223.819
1101.906, 1206.042
1102.388, 1187.378
1102.870, 1167.908
1103.352, 1148.281
1103.834, 1129.410
1104.316, 1111.240
1104.798, 1094.166
1105.281, 1078.647
1105.763, 1063.582
1106.245, 1049.084
1106.727, 1034.699
1107.209, 1020.146
1107.691, 1005.478
1108.173, 991.8702
1108.655, 979.2253
1109.138, 966.8505
1109.620, 953.5713
1110.102, 941.1668
1110.584, 930.4789
1111.066, 921.0796
1111.548, 911.7556
1112.030, 902.4495
1112.512, 894.4373
1112.995, 888.0153
1113.477, 881.8627
1113.959, 874.5337
1114.441, 867.1569
1114.923, 860.8188
1115.405, 855.5226
1115.887, 849.8693
1116.369, 843.5505
1116.851, 838.4799
1117.333, 835.8021
1117.816, 833.6891
1118.298, 829.4994
1118.780, 824.3866
1119.262, 820.0619
1119.744, 817.2371
1120.226, 814.2021
1120.708, 810.9921
1121.190, 807.3317
1121.673, 802.1960
1122.155, 796.9747
1122.637, 795.2423
1123.119, 796.0974
1123.601, 797.0479
1124.083, 798.6696
1124.565, 797.9650
1125.047, 793.5529
1125.530, 788.1306
1126.012, 783.7511
1126.494, 780.4529
1126.976, 778.7439
1127.458, 778.4970
1127.940, 778.5576
1128.422, 778.8206
1128.904, 778.6088
1129.386, 777.2982
1129.869, 775.5148
1130.351, 773.9669
1130.833, 772.6663
1131.315, 772.7458
1131.797, 774.4095
1132.279, 776.1295
1132.761, 777.0497
1133.243, 777.2563
1133.725, 776.4253
1134.208, 774.8538
1134.690, 773.9112
1135.172, 773.6694
1135.654, 773.4860
1136.136, 773.1618
1136.618, 773.0352
1137.100, 773.4368
1137.582, 774.2677
1138.065, 775.7963
1138.547, 778.2717
1139.029, 778.5626
1139.511, 775.7059
1139.993, 773.9612
1140.475, 775.5649
1140.957, 778.2856
1141.439, 778.1744
1141.922, 776.7844
1142.404, 776.9493
1142.886, 780.3557
1143.368, 782.5442
1143.850, 782.7972
1144.332, 782.6173
1144.814, 782.9300
1145.296, 783.4619
1145.778, 783.0498
1146.260, 782.2418
1146.743, 782.6324
1147.225, 785.7656
1147.707, 788.9763
1148.189, 792.3041
1148.671, 795.0304
1149.153, 796.1285
1149.635, 796.0339
1150.117, 796.8232
1150.600, 798.4989
1151.082, 800.6285
1151.564, 803.4494
1152.046, 806.1544
1152.528, 808.3864
1153.010, 810.3961
1153.492, 812.3285
1153.974, 814.2408
1154.457, 816.9144
1154.939, 820.3851
1155.421, 824.4302
1155.903, 828.9028
1156.385, 833.8887
1156.867, 839.8522
1157.349, 846.2570
1157.831, 851.8475
1158.313, 856.6223
1158.796, 861.3910
1159.278, 866.2238
1159.760, 871.7875
1160.242, 878.7147
1160.724, 886.5506
1161.206, 895.2433
1161.688, 904.6572
1162.170, 913.6038
1162.652, 922.0510
1163.135, 930.8828
1163.617, 940.5452
1164.099, 950.0818
1164.581, 957.9482
1165.063, 965.6452
1165.545, 975.0248
1166.027, 986.4158
1166.509, 997.3362
1166.992, 1007.926
1167.474, 1017.452
1167.956, 1025.332
1168.438, 1032.529
1168.920, 1041.095
1169.402, 1049.560
1169.884, 1055.893
1170.366, 1059.149
1170.849, 1062.054
1171.331, 1065.351
1171.813, 1065.661
1172.295, 1060.252
1172.777, 1051.508
1173.259, 1043.312
1173.741, 1034.717
1174.223, 1023.984
1174.705, 1008.222
1175.188, 994.5796
1175.670, 983.8350
1176.152, 973.1226
1176.634, 959.8107
1177.116, 945.1532
1177.598, 930.3414
1178.080, 915.8713
1178.562, 903.0500
1179.044, 893.4040
1179.527, 883.5812
1180.009, 872.8207
1180.491, 862.6099
1180.973, 854.3347
1181.455, 847.5089
1181.937, 841.6575
1182.419, 836.5223
1182.901, 830.8749
1183.384, 823.5585
1183.866, 816.7581
1184.348, 810.8102
1184.830, 805.5305
1185.312, 800.6823
1185.794, 796.3198
1186.276, 792.6562
1186.758, 789.6450
1187.240, 786.9757
1187.723, 785.4392
1188.205, 782.8796
1188.687, 778.2608
1189.169, 773.0956
1189.651, 769.9031
1190.133, 768.2143
1190.615, 766.9215
1191.097, 765.8627
1191.579, 764.4208
1192.062, 761.9186
1192.544, 759.4406
1193.026, 757.3253
1193.508, 755.4803
1193.990, 753.5508
1194.472, 751.7167
1194.954, 750.9302
1195.436, 751.5578
1195.919, 751.3498
1196.401, 748.2357
1196.883, 745.2991
1197.365, 743.9306
1197.847, 743.5624
1198.329, 742.3893
1198.811, 740.7335
1199.293, 739.8973
1199.776, 740.3416
1200.258, 740.9127
1200.740, 741.6669
1201.222, 741.6971
1201.704, 740.3534
1202.186, 738.0139
1202.668, 735.9465
1203.150, 734.2542
1203.632, 733.4103
1204.115, 733.8055
1204.597, 734.3739
1205.079, 734.8014
1205.561, 735.0818
1206.043, 735.1422
1206.525, 735.0595
1207.007, 735.5402
1207.489, 736.3036
1207.971, 735.9052
1208.454, 732.4578
1208.936, 730.4427
1209.418, 733.9759
1209.900, 737.4858
1210.382, 736.5775
1210.864, 732.2906
1211.346, 732.5158
1211.828, 736.3260
1212.311, 739.1936
1212.793, 738.5876
1213.275, 737.4957
1213.757, 737.1188
1214.239, 736.5632
1214.721, 734.9001
1215.203, 732.3810
1215.685, 730.9443
1216.167, 730.4603
1216.650, 730.1852
1217.132, 729.8822
1217.614, 729.5667
1218.096, 729.2997
1218.578, 728.9677
1219.060, 728.1913
1219.542, 727.1827
1220.024, 727.8333
1220.506, 729.7953
1220.989, 730.9711
1221.471, 729.4684
1221.953, 728.1583
1222.435, 727.8652
1222.917, 728.0850
1223.399, 728.6213
1223.881, 729.2655
1224.363, 728.5975
1224.846, 726.8518
1225.328, 725.7245
1225.810, 726.3094
1226.292, 727.3278
1226.774, 728.6288
1227.256, 729.9237
1227.738, 731.0011
1228.220, 731.7731
1228.703, 731.7440
1229.185, 731.0202
1229.667, 730.4982
1230.149, 730.9526
1230.631, 731.1342
1231.113, 730.6983
1231.595, 729.9915
1232.077, 729.1591
1232.559, 728.4641
1233.042, 728.8213
1233.524, 730.1799
1234.006, 731.6427
1234.488, 733.4009
1234.970, 734.3663
1235.452, 734.2479
1235.934, 733.4443
1236.416, 732.0656
1236.898, 730.5547
1237.381, 730.0201
1237.863, 730.4767
1238.345, 731.0435
1238.827, 731.9058
1239.309, 732.0802
1239.791, 731.2158
1240.273, 730.0395
1240.755, 729.4025
1241.238, 729.1951
1241.720, 729.3197
1242.202, 729.7334
1242.684, 730.0399
1243.166, 729.9606
1243.648, 730.2096
1244.130, 730.9852
1244.612, 731.9395
1245.094, 732.6083
1245.577, 733.1661
1246.059, 734.1298
1246.541, 735.4433
1247.023, 735.4675
1247.505, 733.2596
1247.987, 732.3562
1248.469, 733.8182
1248.951, 735.6344
1249.433, 734.9817
1249.916, 733.4362
1250.398, 732.9536
1250.880, 733.6295
1251.362, 733.6483
1251.844, 732.6119
1252.326, 732.6482
1252.808, 734.5198
1253.290, 736.3530
1253.773, 736.0305
1254.255, 734.7352
1254.737, 733.3156
1255.219, 731.9630
1255.701, 731.3708
1256.183, 731.5767
1256.665, 732.2682
1257.147, 733.4152
1257.630, 734.7787
1258.112, 736.5010
1258.594, 738.0421
1259.076, 739.1334
1259.558, 739.6470
1260.040, 738.4418
1260.522, 735.5626
1261.004, 734.2338
1261.486, 735.3569
1261.969, 736.7592
1262.451, 736.6819
1262.933, 736.4111
1263.415, 736.5249
1263.897, 737.1990
1264.379, 739.5751
1264.861, 743.2994
1265.343, 745.7802
1265.825, 746.4517
1266.308, 745.7666
1266.790, 742.0986
1267.272, 739.3235
1267.754, 739.7052
1268.236, 741.8736
1268.718, 742.1652
1269.200, 741.1188
1269.682, 740.6376
1270.165, 741.1056
1270.647, 741.9437
1271.129, 743.9918
1271.611, 744.8207
1272.093, 743.0548
1272.575, 740.4405
1273.057, 740.8706
1273.539, 743.0621
1274.021, 744.1493
1274.504, 743.5823
1274.986, 742.7125
1275.468, 741.2256
1275.950, 740.8368
1276.432, 742.4864
1276.914, 744.5468
1277.396, 744.4604
1277.878, 743.1306
1278.360, 741.6573
1278.843, 740.1934
1279.325, 739.7076
1279.807, 740.3408
1280.289, 741.6642
1280.771, 743.8790
1281.253, 745.7495
1281.735, 745.0567
1282.217, 743.7456
1282.700, 744.2674
1283.182, 746.6160
1283.664, 747.6692
1284.146, 747.3079
1284.628, 746.8842
1285.110, 746.6816
1285.592, 746.6871
1286.074, 746.9153
1286.557, 747.3038
1287.039, 747.8975
1287.521, 748.5924
1288.003, 748.9645
1288.485, 749.0565
1288.967, 749.6395
1289.449, 751.0280
1289.931, 751.6147
1290.413, 748.9298
1290.896, 746.9630
1291.378, 748.2018
1291.860, 750.9769
1292.342, 750.6798
1292.824, 748.2947
1293.306, 747.3086
1293.788, 748.4061
1294.270, 749.6403
1294.752, 750.9700
1295.235, 751.1653
1295.717, 749.4427
1296.199, 747.1708
1296.681, 747.1046
1297.163, 748.0368
1297.645, 747.3142
1298.127, 744.6193
1298.609, 744.0909
1299.092, 747.0573
1299.574, 749.4673
1300.056, 750.3913
1300.538, 750.5747
1301.020, 751.0336
1301.502, 751.2427
1301.984, 750.0294
1302.466, 747.6842
1302.948, 747.7526
1303.431, 750.7431
1303.913, 752.6508
1304.395, 752.9171
1304.877, 751.0927
##END=



