##NAMES=Sekaninaite
##RRUFFID=R061053
##IDEAL CHEMISTRY=Fe^2+^_2_Al_3_(AlSi_5_)O_18_
##LOCALITY=Dolni Borg, Czechoslovakia
##OWNER=RRUFF
##SOURCE=Royal Ontario Museum
##DESCRIPTION=Grayish blue massive showing well-developed parting
##STATUS=The identification of this mineral has been confirmed by X-ray diffraction and chemical analysis
##URL=rruff.info/R061053
##MEASURED CHEMISTRY=(Fe^2+^_1.67_Mg_0.15_Mn_0.10_[box]_0.07_Ca_0.01_)_Σ=2_Al_4.00_(Si_4.89_Al_0.11_)_Σ=5_(O_17.89_(OH)_0.11_)_Σ=18_ ·Na_0.14_
109.4692, 234.3654
109.9513, 244.1130
110.4335, 245.7321
110.9156, 254.2756
111.3977, 274.5945
111.8798, 301.8586
112.3619, 327.3722
112.8440, 345.5532
113.3262, 365.1267
113.8083, 389.4135
114.2904, 419.1856
114.7725, 453.4226
115.2546, 494.7126
115.7367, 541.4982
116.2189, 587.1229
116.7010, 632.6899
117.1831, 674.6295
117.6652, 709.9793
118.1473, 731.1389
118.6294, 750.7801
119.1115, 775.0282
119.5937, 804.1578
120.0758, 834.5958
120.5579, 858.3591
121.0400, 882.9674
121.5221, 920.2808
122.0042, 993.1360
122.4864, 1072.653
122.9685, 1130.349
123.4506, 1158.824
123.9327, 1178.671
124.4148, 1204.835
124.8969, 1236.882
125.3791, 1273.394
125.8612, 1314.173
126.3433, 1358.472
126.8254, 1406.384
127.3075, 1463.860
127.7896, 1518.472
128.2718, 1549.990
128.7539, 1558.690
129.2360, 1557.166
129.7181, 1556.242
130.2002, 1554.621
130.6823, 1546.529
131.1645, 1526.092
131.6466, 1497.599
132.1287, 1475.223
132.6108, 1459.414
133.0929, 1448.633
133.5750, 1441.845
134.0572, 1439.071
134.5393, 1438.186
135.0214, 1434.559
135.5035, 1428.494
135.9856, 1438.774
136.4677, 1469.844
136.9499, 1513.341
137.4320, 1550.337
137.9141, 1579.337
138.3962, 1606.482
138.8783, 1636.380
139.3604, 1669.779
139.8426, 1700.833
140.3247, 1728.608
140.8068, 1753.306
141.2889, 1777.087
141.7710, 1797.628
142.2531, 1820.368
142.7353, 1850.869
143.2174, 1891.339
143.6995, 1934.094
144.1816, 1976.890
144.6637, 2019.640
145.1458, 2065.749
145.6280, 2117.604
146.1101, 2171.707
146.5922, 2223.341
147.0743, 2269.350
147.5564, 2316.570
148.0385, 2367.547
148.5207, 2427.323
149.0028, 2479.864
149.4849, 2524.692
149.9670, 2562.454
150.4491, 2593.018
150.9312, 2618.033
151.4134, 2635.230
151.8955, 2643.586
152.3776, 2640.623
152.8597, 2632.140
153.3418, 2624.091
153.8239, 2613.852
154.3060, 2583.544
154.7882, 2518.598
155.2703, 2440.071
155.7524, 2361.742
156.2345, 2273.317
156.7166, 2197.113
157.1987, 2143.663
157.6809, 2113.874
158.1630, 2082.096
158.6451, 2033.623
159.1272, 1982.992
159.6093, 1944.994
160.0914, 1934.861
160.5736, 1929.666
161.0557, 1919.722
161.5378, 1902.960
162.0199, 1886.629
162.5020, 1874.548
162.9841, 1864.723
163.4663, 1853.508
163.9484, 1833.194
164.4305, 1815.056
164.9126, 1807.838
165.3947, 1818.069
165.8768, 1828.386
166.3590, 1827.183
166.8411, 1818.092
167.3232, 1811.839
167.8053, 1818.125
168.2874, 1828.200
168.7695, 1833.775
169.2517, 1831.957
169.7338, 1825.997
170.2159, 1816.078
170.6980, 1803.069
171.1801, 1791.686
171.6622, 1784.541
172.1444, 1781.044
172.6265, 1780.358
173.1086, 1781.137
173.5907, 1785.172
174.0728, 1796.864
174.5549, 1816.433
175.0371, 1834.313
175.5192, 1839.503
176.0013, 1836.918
176.4834, 1837.059
176.9655, 1847.607
177.4476, 1862.673
177.9298, 1873.450
178.4119, 1879.100
178.8940, 1883.347
179.3761, 1889.729
179.8582, 1897.996
180.3403, 1907.468
180.8224, 1922.901
181.3046, 1938.826
181.7867, 1941.784
182.2688, 1927.363
182.7509, 1907.204
183.2330, 1896.364
183.7151, 1894.499
184.1973, 1896.999
184.6794, 1903.429
185.1615, 1912.329
185.6436, 1918.014
186.1257, 1918.442
186.6078, 1916.634
187.0900, 1918.180
187.5721, 1923.087
188.0542, 1930.120
188.5363, 1938.496
189.0184, 1948.189
189.5005, 1959.855
189.9827, 1974.840
190.4648, 1991.265
190.9469, 2004.649
191.4290, 2014.947
191.9111, 2021.252
192.3932, 2018.472
192.8754, 2007.211
193.3575, 2004.420
193.8396, 2019.686
194.3217, 2048.758
194.8038, 2066.714
195.2859, 2072.812
195.7681, 2070.484
196.2502, 2061.948
196.7323, 2046.875
197.2144, 2031.597
197.6965, 2021.226
198.1786, 2015.369
198.6608, 1996.021
199.1429, 1958.770
199.6250, 1915.930
200.1071, 1887.698
200.5892, 1876.129
201.0714, 1866.352
201.5535, 1850.390
202.0356, 1827.294
202.5177, 1809.904
202.9998, 1799.421
203.4819, 1793.676
203.9641, 1788.673
204.4462, 1784.377
204.9283, 1780.626
205.4104, 1776.477
205.8925, 1771.096
206.3746, 1771.052
206.8568, 1779.281
207.3389, 1791.933
207.8210, 1795.403
208.3031, 1786.429
208.7852, 1777.234
209.2673, 1777.461
209.7494, 1790.818
210.2316, 1797.801
210.7137, 1793.584
211.1958, 1781.311
211.6779, 1777.499
212.1600, 1784.751
212.6421, 1795.336
213.1243, 1802.625
213.6064, 1804.266
214.0885, 1810.243
214.5706, 1824.039
215.0527, 1844.742
215.5348, 1858.226
216.0170, 1860.126
216.4991, 1861.079
216.9812, 1872.295
217.4633, 1898.984
217.9454, 1921.995
218.4275, 1937.471
218.9097, 1945.201
219.3918, 1947.753
219.8739, 1938.576
220.3560, 1931.605
220.8381, 1944.388
221.3202, 1985.878
221.8024, 2027.362
222.2845, 2061.019
222.7666, 2085.927
223.2487, 2112.807
223.7308, 2140.519
224.2129, 2171.086
224.6951, 2207.522
225.1772, 2252.647
225.6593, 2298.970
226.1414, 2345.430
226.6235, 2392.394
227.1056, 2435.082
227.5878, 2466.920
228.0699, 2498.726
228.5520, 2552.353
229.0341, 2641.977
229.5162, 2728.527
229.9983, 2799.802
230.4805, 2852.530
230.9626, 2897.696
231.4447, 2931.944
231.9268, 2959.877
232.4089, 2991.127
232.8910, 3031.566
233.3732, 3067.098
233.8553, 3090.715
234.3374, 3094.829
234.8195, 3106.810
235.3016, 3131.416
235.7837, 3162.678
236.2658, 3186.242
236.7480, 3203.815
237.2301, 3211.336
237.7122, 3206.479
238.1943, 3185.969
238.6764, 3160.010
239.1585, 3126.356
239.6407, 3087.281
240.1228, 3049.858
240.6049, 3011.305
241.0870, 2977.783
241.5691, 2952.050
242.0512, 2933.437
242.5334, 2923.303
243.0155, 2917.695
243.4976, 2920.287
243.9797, 2947.287
244.4618, 3004.966
244.9439, 3077.927
245.4261, 3157.397
245.9082, 3241.086
246.3903, 3335.605
246.8724, 3440.435
247.3545, 3556.110
247.8366, 3687.343
248.3188, 3838.435
248.8009, 3997.170
249.2830, 4156.934
249.7651, 4317.262
250.2472, 4476.432
250.7293, 4635.244
251.2115, 4793.275
251.6936, 4950.674
252.1757, 5126.650
252.6578, 5277.956
253.1399, 5381.494
253.6220, 5442.069
254.1042, 5443.356
254.5863, 5375.000
255.0684, 5242.466
255.5505, 5088.922
256.0326, 4908.957
256.5147, 4714.095
256.9969, 4504.616
257.4790, 4266.306
257.9611, 4045.781
258.4432, 3849.452
258.9253, 3675.070
259.4074, 3508.745
259.8896, 3346.194
260.3717, 3195.434
260.8538, 3059.015
261.3359, 2936.475
261.8180, 2829.382
262.3001, 2739.899
262.7823, 2667.318
263.2644, 2594.431
263.7465, 2518.709
264.2286, 2447.498
264.7107, 2390.291
265.1928, 2350.244
265.6750, 2311.618
266.1571, 2271.154
266.6392, 2229.657
267.1213, 2191.418
267.6034, 2157.464
268.0855, 2125.528
268.5677, 2091.995
269.0498, 2054.149
269.5319, 2026.117
270.0140, 2013.281
270.4961, 2013.574
270.9782, 2006.749
271.4604, 1989.972
271.9425, 1971.984
272.4246, 1960.501
272.9067, 1956.060
273.3888, 1955.482
273.8709, 1958.353
274.3531, 1964.547
274.8352, 1973.944
275.3173, 1987.063
275.7994, 2001.859
276.2815, 2017.069
276.7636, 2032.707
277.2457, 2046.858
277.7278, 2058.696
278.2100, 2068.539
278.6921, 2078.025
279.1742, 2086.885
279.6563, 2096.176
280.1384, 2107.728
280.6205, 2121.584
281.1027, 2133.450
281.5848, 2142.017
282.0669, 2147.805
282.5490, 2150.160
283.0311, 2147.001
283.5132, 2150.363
283.9954, 2176.134
284.4775, 2224.243
284.9596, 2267.667
285.4417, 2301.220
285.9238, 2325.728
286.4059, 2339.872
286.8881, 2341.877
287.3702, 2346.987
287.8523, 2371.408
288.3344, 2413.524
288.8165, 2455.560
289.2986, 2495.156
289.7808, 2531.254
290.2629, 2558.875
290.7450, 2577.339
291.2271, 2595.997
291.7092, 2626.704
292.1913, 2666.082
292.6735, 2698.025
293.1556, 2719.992
293.6377, 2730.694
294.1198, 2723.025
294.6019, 2697.191
295.0840, 2667.365
295.5662, 2644.284
296.0483, 2626.153
296.5304, 2607.341
297.0125, 2585.877
297.4946, 2563.979
297.9767, 2546.242
298.4589, 2532.234
298.9410, 2518.335
299.4231, 2499.233
299.9052, 2478.265
300.3873, 2463.551
300.8694, 2458.700
301.3516, 2457.957
301.8337, 2454.725
302.3158, 2449.196
302.7979, 2443.126
303.2800, 2436.778
303.7621, 2430.735
304.2443, 2426.665
304.7264, 2427.554
305.2085, 2425.998
305.6906, 2410.863
306.1727, 2385.729
306.6548, 2364.118
307.1370, 2363.117
307.6191, 2367.185
308.1012, 2357.757
308.5833, 2328.616
309.0654, 2291.374
309.5475, 2252.335
310.0297, 2212.257
310.5118, 2172.418
310.9939, 2132.316
311.4760, 2093.980
311.9581, 2058.755
312.4402, 2027.270
312.9224, 1998.514
313.4045, 1971.564
313.8866, 1946.518
314.3687, 1924.237
314.8508, 1908.081
315.3329, 1892.794
315.8151, 1872.852
316.2972, 1842.456
316.7793, 1821.523
317.2614, 1825.059
317.7435, 1842.845
318.2256, 1856.629
318.7078, 1856.267
319.1899, 1853.618
319.6720, 1853.499
320.1541, 1855.871
320.6362, 1862.902
321.1183, 1876.651
321.6005, 1894.990
322.0826, 1914.889
322.5647, 1940.649
323.0468, 1963.392
323.5289, 1976.884
324.0110, 1976.182
324.4932, 1986.661
324.9753, 2020.398
325.4574, 2063.960
325.9395, 2102.099
326.4216, 2129.463
326.9037, 2155.267
327.3859, 2183.338
327.8680, 2215.750
328.3501, 2238.253
328.8322, 2248.348
329.3143, 2249.681
329.7964, 2245.578
330.2786, 2236.949
330.7607, 2221.646
331.2428, 2197.167
331.7249, 2163.575
332.2070, 2133.005
332.6891, 2112.342
333.1712, 2088.088
333.6534, 2047.664
334.1355, 1979.186
334.6176, 1918.726
335.0997, 1872.559
335.5818, 1839.463
336.0639, 1806.501
336.5461, 1772.389
337.0282, 1740.283
337.5103, 1710.809
337.9924, 1683.156
338.4745, 1662.717
338.9566, 1651.839
339.4388, 1648.044
339.9209, 1643.026
340.4030, 1637.167
340.8851, 1628.886
341.3672, 1616.012
341.8493, 1598.056
342.3315, 1584.111
342.8136, 1576.718
343.2957, 1571.315
343.7778, 1554.575
344.2599, 1525.629
344.7420, 1502.542
345.2242, 1500.285
345.7063, 1515.241
346.1884, 1523.757
346.6705, 1523.154
347.1526, 1519.315
347.6347, 1522.264
348.1169, 1530.773
348.5990, 1536.207
349.0811, 1528.655
349.5632, 1515.287
350.0453, 1514.383
350.5274, 1527.837
351.0096, 1544.999
351.4917, 1558.256
351.9738, 1566.817
352.4559, 1568.743
352.9380, 1557.301
353.4201, 1541.570
353.9023, 1531.683
354.3844, 1527.801
354.8665, 1530.857
355.3486, 1547.360
355.8307, 1570.078
356.3128, 1588.605
356.7950, 1598.830
357.2771, 1603.336
357.7592, 1600.501
358.2413, 1591.574
358.7234, 1586.224
359.2055, 1590.843
359.6877, 1601.072
360.1698, 1613.139
360.6519, 1629.575
361.1340, 1643.213
361.6161, 1648.447
362.0982, 1647.739
362.5804, 1649.938
363.0625, 1665.131
363.5446, 1679.394
364.0267, 1684.278
364.5088, 1674.959
364.9909, 1662.229
365.4731, 1645.607
365.9552, 1627.146
366.4373, 1611.304
366.9194, 1603.271
367.4015, 1594.124
367.8836, 1580.065
368.3658, 1557.842
368.8479, 1538.148
369.3300, 1522.630
369.8121, 1509.282
370.2942, 1495.442
370.7763, 1478.352
371.2585, 1464.249
371.7406, 1455.581
372.2227, 1453.338
372.7048, 1448.294
373.1869, 1438.411
373.6690, 1427.828
374.1512, 1420.740
374.6333, 1418.089
375.1154, 1416.463
375.5975, 1415.731
376.0796, 1415.606
376.5617, 1413.115
377.0439, 1407.034
377.5260, 1402.086
378.0081, 1403.344
378.4902, 1411.467
378.9723, 1417.081
379.4544, 1419.286
379.9366, 1417.986
380.4187, 1409.627
380.9008, 1393.611
381.3829, 1383.111
381.8650, 1392.815
382.3471, 1417.129
382.8293, 1427.639
383.3114, 1419.193
383.7935, 1404.388
384.2756, 1400.181
384.7577, 1405.017
385.2398, 1410.965
385.7219, 1415.079
386.2040, 1417.443
386.6862, 1416.828
387.1683, 1412.726
387.6504, 1410.808
388.1325, 1419.803
388.6146, 1434.201
389.0967, 1443.662
389.5789, 1441.360
390.0610, 1434.631
390.5431, 1427.847
391.0252, 1421.229
391.5073, 1416.567
391.9894, 1413.872
392.4716, 1414.090
392.9537, 1418.453
393.4358, 1433.952
393.9179, 1445.584
394.4000, 1445.844
394.8821, 1437.220
395.3643, 1428.705
395.8464, 1423.236
396.3285, 1418.334
396.8106, 1411.840
397.2927, 1397.678
397.7748, 1392.778
398.2570, 1405.326
398.7391, 1427.656
399.2212, 1445.283
399.7033, 1456.678
400.1854, 1464.399
400.6675, 1467.691
401.1497, 1464.661
401.6318, 1466.885
402.1139, 1477.775
402.5960, 1491.104
403.0781, 1499.532
403.5602, 1499.849
404.0424, 1502.884
404.5245, 1511.362
405.0066, 1524.575
405.4887, 1537.695
405.9708, 1551.277
406.4529, 1563.374
406.9351, 1570.608
407.4172, 1572.319
407.8993, 1580.839
408.3814, 1599.365
408.8635, 1623.752
409.3456, 1644.724
409.8278, 1662.399
410.3099, 1681.069
410.7920, 1707.663
411.2741, 1737.650
411.7562, 1750.650
412.2383, 1741.215
412.7205, 1734.199
413.2026, 1762.944
413.6847, 1818.277
414.1668, 1872.031
414.6489, 1908.433
415.1310, 1938.784
415.6132, 1979.599
416.0953, 2030.986
416.5774, 2076.514
417.0595, 2105.995
417.5416, 2123.779
418.0237, 2135.100
418.5059, 2135.987
418.9880, 2136.940
419.4701, 2149.574
419.9522, 2168.629
420.4343, 2174.204
420.9164, 2153.844
421.3986, 2121.580
421.8807, 2083.778
422.3628, 2037.839
422.8449, 1994.844
423.3270, 1956.923
423.8091, 1923.587
424.2913, 1893.334
424.7734, 1864.555
425.2555, 1841.222
425.7376, 1827.198
426.2197, 1824.917
426.7018, 1813.505
427.1840, 1785.344
427.6661, 1754.755
428.1482, 1735.084
428.6303, 1729.547
429.1124, 1726.708
429.5945, 1725.516
430.0767, 1725.591
430.5588, 1724.712
431.0409, 1722.074
431.5230, 1721.271
432.0051, 1724.764
432.4872, 1732.578
432.9694, 1742.785
433.4515, 1756.127
433.9336, 1770.156
434.4157, 1779.921
434.8978, 1786.047
435.3799, 1794.170
435.8621, 1808.870
436.3442, 1827.156
436.8263, 1841.935
437.3084, 1853.126
437.7905, 1863.529
438.2726, 1872.716
438.7548, 1883.237
439.2369, 1899.607
439.7190, 1924.733
440.2011, 1954.641
440.6832, 1989.592
441.1653, 2027.571
441.6474, 2060.110
442.1295, 2077.683
442.6117, 2091.524
443.0938, 2110.532
443.5759, 2139.519
444.0580, 2165.410
444.5401, 2177.615
445.0222, 2185.031
445.5044, 2201.267
445.9865, 2240.097
446.4686, 2277.314
446.9507, 2307.158
447.4328, 2329.773
447.9149, 2343.477
448.3971, 2346.075
448.8792, 2341.457
449.3613, 2332.408
449.8434, 2318.597
450.3255, 2300.184
450.8076, 2273.834
451.2898, 2243.689
451.7719, 2226.705
452.2540, 2227.698
452.7361, 2227.158
453.2182, 2211.015
453.7003, 2179.035
454.1825, 2159.863
454.6646, 2155.219
455.1467, 2160.680
455.6288, 2176.963
456.1109, 2201.663
456.5930, 2215.038
457.0752, 2202.180
457.5573, 2177.346
458.0394, 2168.121
458.5215, 2173.741
459.0036, 2183.687
459.4857, 2189.334
459.9679, 2194.454
460.4500, 2205.290
460.9321, 2226.563
461.4142, 2246.853
461.8963, 2259.354
462.3784, 2264.839
462.8606, 2265.286
463.3427, 2260.291
463.8248, 2251.438
464.3069, 2237.598
464.7890, 2217.250
465.2711, 2202.003
465.7533, 2197.099
466.2354, 2197.434
466.7175, 2198.384
467.1996, 2202.919
467.6817, 2203.777
468.1638, 2195.476
468.6460, 2181.431
469.1281, 2180.347
469.6102, 2202.890
470.0923, 2223.141
470.5744, 2226.650
471.0565, 2206.356
471.5387, 2195.348
472.0208, 2194.869
472.5029, 2201.880
472.9850, 2213.891
473.4671, 2231.416
473.9492, 2246.826
474.4314, 2256.740
474.9135, 2263.036
475.3956, 2271.129
475.8777, 2281.133
476.3598, 2293.767
476.8419, 2313.113
477.3241, 2335.337
477.8062, 2350.571
478.2883, 2354.962
478.7704, 2356.810
479.2525, 2366.188
479.7346, 2379.659
480.2168, 2388.575
480.6989, 2392.615
481.1810, 2387.769
481.6631, 2370.244
482.1452, 2339.526
482.6273, 2301.242
483.1095, 2248.193
483.5916, 2193.432
484.0737, 2148.967
484.5558, 2130.302
485.0379, 2106.247
485.5201, 2070.461
486.0022, 2025.406
486.4843, 1980.240
486.9664, 1927.684
487.4485, 1883.803
487.9306, 1855.922
488.4128, 1848.402
488.8949, 1837.381
489.3770, 1822.717
489.8591, 1804.782
490.3412, 1781.440
490.8233, 1750.688
491.3055, 1730.242
491.7876, 1728.239
492.2697, 1736.571
492.7518, 1730.576
493.2339, 1710.290
493.7160, 1689.612
494.1982, 1679.049
494.6803, 1675.162
495.1624, 1669.731
495.6445, 1661.546
496.1266, 1653.586
496.6087, 1648.491
497.0908, 1645.571
497.5729, 1643.428
498.0551, 1642.235
498.5372, 1641.095
499.0193, 1639.019
499.5014, 1636.273
499.9835, 1634.548
500.4656, 1637.297
500.9478, 1639.410
501.4299, 1636.955
501.9120, 1624.284
502.3941, 1616.976
502.8762, 1619.518
503.3583, 1627.999
503.8405, 1636.901
504.3226, 1651.692
504.8047, 1658.226
505.2868, 1648.438
505.7689, 1623.995
506.2510, 1618.432
506.7332, 1639.484
507.2153, 1662.266
507.6974, 1666.007
508.1795, 1650.005
508.6616, 1641.670
509.1437, 1645.019
509.6259, 1653.728
510.1080, 1657.868
510.5901, 1658.147
511.0722, 1659.096
511.5543, 1663.625
512.0364, 1669.690
512.5186, 1672.170
513.0007, 1671.606
513.4828, 1675.465
513.9649, 1695.061
514.4470, 1719.349
514.9291, 1736.107
515.4113, 1741.502
515.8934, 1741.230
516.3755, 1729.364
516.8576, 1714.757
517.3397, 1713.435
517.8218, 1745.340
518.3040, 1775.869
518.7861, 1793.348
519.2682, 1796.282
519.7503, 1798.552
520.2324, 1798.323
520.7145, 1799.354
521.1967, 1803.941
521.6788, 1812.196
522.1609, 1823.958
522.6430, 1839.785
523.1251, 1858.670
523.6072, 1880.575
524.0894, 1906.296
524.5715, 1925.262
525.0536, 1927.392
525.5357, 1920.128
526.0178, 1932.287
526.4999, 1964.278
526.9821, 2000.199
527.4642, 2025.465
527.9463, 2045.705
528.4284, 2071.341
528.9105, 2106.022
529.3926, 2142.279
529.8748, 2170.980
530.3569, 2196.895
530.8390, 2228.627
531.3211, 2269.983
531.8032, 2317.637
532.2853, 2374.760
532.7675, 2441.122
533.2496, 2498.758
533.7317, 2531.225
534.2138, 2563.414
534.6959, 2610.895
535.1780, 2679.106
535.6602, 2752.670
536.1423, 2830.051
536.6244, 2914.613
537.1065, 3016.194
537.5886, 3139.677
538.0707, 3261.129
538.5529, 3370.689
539.0350, 3473.205
539.5171, 3598.082
539.9992, 3746.402
540.4813, 3904.360
540.9634, 4058.943
541.4456, 4215.321
541.9277, 4385.599
542.4098, 4571.647
542.8919, 4767.799
543.3740, 4964.107
543.8561, 5162.823
544.3383, 5366.757
544.8204, 5579.871
545.3025, 5796.125
545.7846, 6014.080
546.2667, 6231.890
546.7488, 6440.615
547.2310, 6640.858
547.7131, 6825.231
548.1952, 6995.628
548.6773, 7165.480
549.1594, 7281.798
549.6415, 7327.513
550.1237, 7330.592
550.6058, 7320.444
551.0879, 7298.480
551.5700, 7260.824
552.0521, 7209.250
552.5342, 7140.541
553.0164, 7036.361
553.4985, 6892.621
553.9806, 6748.969
554.4627, 6629.756
554.9448, 6528.758
555.4269, 6422.938
555.9091, 6310.762
556.3912, 6200.211
556.8733, 6087.860
557.3554, 5985.497
557.8375, 5916.234
558.3196, 5898.467
558.8018, 5895.975
559.2839, 5883.097
559.7660, 5866.512
560.2481, 5861.376
560.7302, 5871.259
561.2123, 5895.315
561.6945, 5936.085
562.1766, 5994.471
562.6587, 6055.356
563.1408, 6106.514
563.6229, 6168.553
564.1050, 6257.987
564.5872, 6392.800
565.0693, 6507.214
565.5514, 6590.113
566.0335, 6662.390
566.5156, 6763.860
566.9977, 6896.153
567.4799, 7025.030
567.9620, 7141.362
568.4441, 7243.989
568.9262, 7331.214
569.4083, 7402.737
569.8904, 7444.707
570.3726, 7444.451
570.8547, 7410.693
571.3368, 7356.434
571.8189, 7285.119
572.3010, 7184.246
572.7831, 7038.840
573.2653, 6862.363
573.7474, 6673.532
574.2295, 6468.967
574.7116, 6259.460
575.1937, 6045.252
575.6758, 5825.878
576.1580, 5606.817
576.6401, 5381.645
577.1222, 5162.043
577.6042, 4949.880
578.0864, 4741.622
578.5685, 4555.952
579.0506, 4393.911
579.5327, 4249.259
580.0148, 4115.745
580.4969, 3993.913
580.9791, 3883.800
581.4612, 3786.588
581.9433, 3697.988
582.4254, 3614.081
582.9075, 3535.598
583.3896, 3466.162
583.8718, 3415.062
584.3539, 3368.343
584.8360, 3308.032
585.3181, 3237.860
585.8002, 3179.361
586.2823, 3152.016
586.7645, 3133.614
587.2466, 3111.443
587.7287, 3083.575
588.2108, 3053.223
588.6929, 3009.590
589.1750, 2970.146
589.6572, 2952.877
590.1393, 2971.834
590.6214, 2982.303
591.1035, 2977.672
591.5856, 2962.532
592.0677, 2948.433
592.5499, 2935.579
593.0320, 2921.914
593.5141, 2905.948
593.9962, 2888.434
594.4783, 2870.629
594.9604, 2852.490
595.4426, 2839.072
595.9247, 2842.712
596.4068, 2850.104
596.8889, 2840.872
597.3710, 2806.277
597.8531, 2772.644
598.3353, 2756.224
598.8174, 2748.629
599.2995, 2738.789
599.7816, 2725.489
600.2637, 2707.969
600.7458, 2684.027
601.2280, 2655.061
601.7101, 2627.721
602.1922, 2603.301
602.6743, 2578.431
603.1564, 2551.896
603.6385, 2523.416
604.1207, 2495.052
604.6028, 2466.041
605.0849, 2439.481
605.5670, 2419.906
606.0491, 2405.841
606.5313, 2392.005
607.0134, 2379.016
607.4955, 2360.624
607.9776, 2321.650
608.4597, 2272.592
608.9418, 2233.975
609.4240, 2225.604
609.9061, 2220.495
610.3882, 2203.039
610.8703, 2175.562
611.3524, 2149.431
611.8345, 2129.352
612.3167, 2109.565
612.7988, 2086.729
613.2809, 2059.225
613.7630, 2036.594
614.2451, 2019.428
614.7272, 2006.128
615.2094, 1996.289
615.6915, 1990.388
616.1736, 1984.106
616.6557, 1976.711
617.1378, 1969.548
617.6199, 1966.134
618.1021, 1965.371
618.5842, 1961.698
619.0663, 1951.630
619.5484, 1938.840
620.0305, 1924.099
620.5126, 1909.248
620.9948, 1901.751
621.4769, 1914.520
621.9590, 1929.021
622.4411, 1932.697
622.9232, 1922.932
623.4053, 1914.572
623.8875, 1912.170
624.3696, 1910.966
624.8517, 1907.689
625.3338, 1901.693
625.8159, 1894.935
626.2980, 1886.654
626.7802, 1878.598
627.2623, 1872.725
627.7444, 1868.922
628.2265, 1870.666
628.7086, 1882.235
629.1907, 1896.702
629.6729, 1895.104
630.1550, 1881.133
630.6371, 1874.244
631.1192, 1899.043
631.6013, 1928.164
632.0834, 1929.429
632.5656, 1901.573
633.0477, 1881.717
633.5298, 1894.647
634.0119, 1916.210
634.4940, 1928.729
634.9761, 1923.489
635.4583, 1921.845
635.9404, 1925.943
636.4225, 1932.873
636.9046, 1940.083
637.3867, 1948.880
637.8688, 1952.141
638.3510, 1945.946
638.8331, 1936.120
639.3152, 1938.501
639.7973, 1952.306
640.2794, 1965.354
640.7615, 1968.286
641.2437, 1968.054
641.7258, 1977.983
642.2079, 1996.657
642.6900, 2012.064
643.1721, 2019.116
643.6542, 2018.350
644.1364, 2007.031
644.6185, 1979.945
645.1006, 1962.310
645.5827, 1965.123
646.0648, 1977.378
646.5469, 1989.169
647.0291, 2003.099
647.5112, 2010.770
647.9933, 2008.756
648.4754, 2002.620
648.9575, 2002.944
649.4396, 2009.868
649.9218, 2020.136
650.4039, 2033.489
650.8860, 2048.840
651.3681, 2064.383
651.8502, 2079.917
652.3323, 2094.188
652.8145, 2104.732
653.2966, 2114.812
653.7787, 2127.483
654.2608, 2142.959
654.7429, 2159.882
655.2250, 2176.502
655.7072, 2195.233
656.1893, 2217.499
656.6714, 2242.357
657.1535, 2273.315
657.6356, 2315.431
658.1177, 2358.962
658.5999, 2390.733
659.0820, 2408.625
659.5641, 2426.003
660.0462, 2443.341
660.5283, 2464.176
661.0104, 2500.096
661.4926, 2547.970
661.9747, 2590.650
662.4568, 2616.538
662.9389, 2635.794
663.4210, 2662.364
663.9031, 2693.314
664.3853, 2714.923
664.8674, 2711.025
665.3495, 2703.180
665.8316, 2705.181
666.3137, 2721.407
666.7958, 2728.358
667.2780, 2730.477
667.7601, 2717.385
668.2422, 2678.569
668.7243, 2605.240
669.2064, 2541.203
669.6885, 2488.555
670.1707, 2443.971
670.6528, 2405.765
671.1349, 2372.423
671.6170, 2333.806
672.0991, 2285.181
672.5812, 2235.201
673.0634, 2192.776
673.5455, 2156.618
674.0276, 2123.425
674.5097, 2097.135
674.9918, 2068.960
675.4739, 2029.880
675.9561, 1983.157
676.4382, 1947.535
676.9203, 1932.729
677.4024, 1921.713
677.8845, 1908.598
678.3666, 1892.950
678.8488, 1880.291
679.3309, 1870.855
679.8130, 1862.997
680.2951, 1855.314
680.7772, 1847.877
681.2593, 1840.922
681.7415, 1834.399
682.2236, 1828.452
682.7057, 1825.336
683.1878, 1822.249
683.6699, 1814.155
684.1520, 1795.409
684.6342, 1778.807
685.1163, 1770.559
685.5984, 1768.182
686.0805, 1767.222
686.5626, 1767.391
687.0447, 1768.854
687.5268, 1773.347
688.0089, 1779.031
688.4910, 1778.793
688.9731, 1771.661
689.4553, 1762.480
689.9374, 1749.846
690.4195, 1737.190
690.9016, 1742.080
691.3837, 1763.323
691.8658, 1780.848
692.3480, 1772.993
692.8301, 1757.676
693.3122, 1756.997
693.7943, 1774.267
694.2764, 1791.405
694.7585, 1802.044
695.2407, 1808.402
695.7228, 1812.132
696.2049, 1810.455
696.6870, 1811.498
697.1691, 1815.537
697.6512, 1822.130
698.1334, 1832.007
698.6155, 1846.106
699.0976, 1855.662
699.5797, 1858.067
700.0618, 1857.831
700.5439, 1863.498
701.0261, 1873.439
701.5082, 1881.680
701.9903, 1887.259
702.4724, 1888.476
702.9545, 1879.169
703.4366, 1863.412
703.9188, 1854.665
704.4009, 1861.164
704.8830, 1872.166
705.3651, 1885.611
705.8472, 1901.174
706.3293, 1911.514
706.8115, 1914.752
707.2936, 1916.039
707.7757, 1918.282
708.2578, 1921.453
708.7399, 1922.631
709.2220, 1921.867
709.7042, 1918.755
710.1863, 1907.840
710.6684, 1895.611
711.1505, 1895.913
711.6326, 1913.008
712.1147, 1930.981
712.5969, 1937.730
713.0790, 1940.661
713.5611, 1947.511
714.0432, 1961.036
714.5253, 1977.216
715.0074, 1996.726
715.4896, 2018.033
715.9717, 2040.977
716.4538, 2068.205
716.9359, 2084.992
717.4180, 2085.515
717.9001, 2076.976
718.3823, 2071.516
718.8644, 2070.103
719.3465, 2078.584
719.8286, 2111.070
720.3107, 2146.828
720.7928, 2161.127
721.2750, 2158.394
721.7571, 2156.990
722.2392, 2164.078
722.7213, 2174.930
723.2034, 2191.808
723.6855, 2215.212
724.1677, 2220.729
724.6498, 2196.849
725.1319, 2173.504
725.6140, 2169.926
726.0961, 2186.593
726.5782, 2190.621
727.0604, 2181.317
727.5425, 2165.297
728.0246, 2145.415
728.5067, 2123.988
728.9888, 2104.637
729.4709, 2088.057
729.9531, 2074.630
730.4352, 2066.269
730.9173, 2060.455
731.3994, 2054.655
731.8815, 2050.810
732.3636, 2043.289
732.8458, 2031.081
733.3279, 2015.522
733.8100, 1998.243
734.2921, 1978.785
734.7742, 1958.946
735.2563, 1938.239
735.7385, 1918.701
736.2206, 1905.320
736.7027, 1897.089
737.1848, 1889.677
737.6669, 1880.578
738.1490, 1872.242
738.6312, 1871.904
739.1133, 1874.679
739.5954, 1866.669
740.0775, 1828.373
740.5596, 1793.389
741.0417, 1776.981
741.5239, 1776.004
742.0060, 1768.716
742.4881, 1752.662
742.9702, 1735.732
743.4523, 1720.289
743.9344, 1706.769
744.4166, 1700.358
744.8987, 1700.972
745.3808, 1701.041
745.8629, 1695.883
746.3450, 1686.483
746.8271, 1673.209
747.3093, 1655.957
747.7914, 1638.421
748.2735, 1617.621
748.7556, 1600.377
749.2377, 1594.129
749.7198, 1608.906
750.2020, 1604.960
750.6841, 1573.782
751.1662, 1536.341
751.6483, 1507.758
752.1304, 1488.166
752.6125, 1491.552
753.0947, 1523.681
753.5768, 1557.990
754.0589, 1559.237
754.5410, 1541.105
755.0231, 1529.165
755.5052, 1530.982
755.9874, 1537.872
756.4695, 1550.414
756.9516, 1563.371
757.4337, 1569.586
757.9158, 1568.362
758.3979, 1558.336
758.8801, 1531.199
759.3622, 1500.895
759.8443, 1499.379
760.3264, 1529.646
760.8085, 1552.930
761.2906, 1557.275
761.7728, 1550.429
762.2549, 1539.751
762.7370, 1528.181
763.2191, 1525.012
763.7012, 1547.264
764.1833, 1567.606
764.6655, 1564.439
765.1476, 1544.111
765.6297, 1533.924
766.1118, 1552.776
766.5939, 1565.001
767.0760, 1557.579
767.5582, 1534.373
768.0403, 1524.621
768.5224, 1529.879
769.0045, 1537.291
769.4866, 1539.641
769.9688, 1538.891
770.4509, 1540.925
770.9330, 1545.150
771.4151, 1546.281
771.8972, 1534.342
772.3793, 1523.132
772.8615, 1525.179
773.3436, 1542.739
773.8257, 1554.485
774.3078, 1554.280
774.7899, 1550.919
775.2720, 1547.453
775.7542, 1543.451
776.2363, 1546.626
776.7184, 1558.860
777.2005, 1568.841
777.6826, 1562.679
778.1647, 1547.449
778.6469, 1539.220
779.1290, 1539.528
779.6111, 1547.085
780.0932, 1571.787
780.5753, 1596.959
781.0574, 1605.837
781.5396, 1587.566
782.0217, 1573.900
782.5038, 1567.633
782.9859, 1566.617
783.4680, 1571.636
783.9501, 1585.026
784.4323, 1584.675
784.9144, 1565.559
785.3965, 1545.165
785.8786, 1549.998
786.3607, 1569.548
786.8428, 1577.791
787.3250, 1565.279
787.8071, 1550.733
788.2892, 1542.793
788.7713, 1541.027
789.2534, 1544.785
789.7355, 1559.654
790.2177, 1572.578
790.6998, 1584.070
791.1819, 1592.310
791.6640, 1593.661
792.1461, 1587.435
792.6282, 1582.607
793.1104, 1580.562
793.5925, 1581.362
794.0746, 1589.567
794.5567, 1600.409
795.0388, 1602.590
795.5209, 1582.499
796.0031, 1565.440
796.4852, 1568.330
796.9672, 1582.257
797.4493, 1589.184
797.9315, 1581.400
798.4136, 1575.843
798.8957, 1575.310
799.3778, 1578.164
799.8599, 1581.581
800.3420, 1585.519
800.8242, 1586.972
801.3063, 1583.219
801.7884, 1578.628
802.2705, 1579.460
802.7526, 1584.456
803.2347, 1590.606
803.7169, 1601.407
804.1990, 1608.027
804.6811, 1601.922
805.1632, 1588.120
805.6453, 1585.955
806.1274, 1603.898
806.6096, 1615.316
807.0917, 1611.333
807.5738, 1597.310
808.0559, 1588.594
808.5380, 1585.087
809.0201, 1585.706
809.5023, 1589.413
809.9844, 1597.364
810.4665, 1616.317
810.9486, 1641.588
811.4307, 1657.128
811.9128, 1650.240
812.3950, 1639.472
812.8771, 1627.653
813.3592, 1616.641
813.8413, 1616.209
814.3234, 1628.039
814.8055, 1644.724
815.2877, 1667.625
815.7698, 1691.051
816.2519, 1694.822
816.7340, 1682.156
817.2161, 1670.911
817.6982, 1675.219
818.1804, 1681.909
818.6625, 1678.513
819.1446, 1667.262
819.6267, 1663.383
820.1088, 1679.761
820.5909, 1692.829
821.0731, 1692.845
821.5552, 1683.125
822.0373, 1688.544
822.5194, 1710.805
823.0015, 1730.376
823.4836, 1732.835
823.9658, 1727.621
824.4479, 1735.608
824.9300, 1753.565
825.4121, 1764.009
825.8942, 1749.887
826.3763, 1733.453
826.8585, 1724.247
827.3406, 1723.271
827.8227, 1731.293
828.3048, 1756.193
828.7869, 1774.417
829.2690, 1774.188
829.7512, 1759.451
830.2333, 1747.014
830.7154, 1736.987
831.1975, 1732.373
831.6796, 1740.308
832.1617, 1750.904
832.6439, 1753.641
833.1260, 1749.167
833.6081, 1743.619
834.0902, 1736.141
834.5723, 1731.074
835.0544, 1730.296
835.5366, 1733.458
836.0187, 1737.013
836.5008, 1740.626
836.9829, 1746.497
837.4650, 1757.167
837.9471, 1770.261
838.4293, 1781.813
838.9114, 1791.280
839.3935, 1795.931
839.8756, 1788.625
840.3577, 1780.964
840.8398, 1781.344
841.3220, 1789.007
841.8041, 1793.253
842.2862, 1792.763
842.7683, 1789.809
843.2504, 1784.166
843.7325, 1776.750
844.2147, 1771.447
844.6968, 1768.337
845.1789, 1768.612
845.6610, 1774.666
846.1431, 1783.278
846.6252, 1794.525
847.1074, 1806.094
847.5895, 1808.525
848.0716, 1784.167
848.5537, 1765.163
849.0358, 1764.322
849.5179, 1778.184
850.0001, 1792.926
850.4822, 1810.651
850.9643, 1818.669
851.4464, 1807.521
851.9285, 1786.671
852.4106, 1774.883
852.8928, 1771.934
853.3749, 1777.700
853.8570, 1800.977
854.3391, 1824.561
854.8212, 1839.650
855.3033, 1846.860
855.7855, 1848.935
856.2676, 1843.741
856.7497, 1837.896
857.2318, 1831.230
857.7139, 1826.161
858.1960, 1832.136
858.6782, 1847.972
859.1603, 1860.583
859.6424, 1862.737
860.1245, 1861.515
860.6066, 1865.117
861.0887, 1870.841
861.5709, 1872.324
862.0530, 1862.912
862.5351, 1854.553
863.0172, 1846.828
863.4993, 1842.906
863.9814, 1852.245
864.4636, 1876.700
864.9457, 1895.287
865.4278, 1900.556
865.9099, 1900.746
866.3920, 1911.809
866.8741, 1927.236
867.3563, 1932.834
867.8384, 1913.248
868.3205, 1895.816
868.8026, 1892.107
869.2847, 1897.171
869.7668, 1902.212
870.2490, 1907.063
870.7311, 1912.505
871.2132, 1919.152
871.6953, 1925.280
872.1774, 1925.456
872.6595, 1922.351
873.1417, 1925.951
873.6238, 1940.565
874.1059, 1957.347
874.5880, 1972.545
875.0701, 1984.726
875.5522, 1992.051
876.0344, 1986.457
876.5165, 1987.806
876.9986, 1998.536
877.4807, 2013.057
877.9628, 2026.100
878.4449, 2037.497
878.9271, 2044.264
879.4092, 2044.811
879.8913, 2049.777
880.3734, 2074.194
880.8555, 2106.340
881.3376, 2132.748
881.8198, 2150.245
882.3019, 2164.625
882.7840, 2176.813
883.2661, 2186.641
883.7482, 2190.793
884.2303, 2186.548
884.7125, 2204.455
885.1946, 2247.713
885.6767, 2289.710
886.1588, 2298.913
886.6409, 2295.196
887.1230, 2309.481
887.6052, 2344.603
888.0873, 2380.765
888.5694, 2413.451
889.0515, 2441.037
889.5336, 2461.604
890.0157, 2474.757
890.4979, 2493.364
890.9800, 2519.271
891.4621, 2541.336
891.9442, 2549.845
892.4263, 2550.198
892.9084, 2553.810
893.3906, 2560.833
893.8727, 2572.118
894.3548, 2599.424
894.8369, 2620.532
895.3190, 2618.022
895.8011, 2595.445
896.2833, 2584.600
896.7654, 2590.139
897.2475, 2594.977
897.7296, 2592.189
898.2117, 2586.065
898.6938, 2589.369
899.1760, 2599.859
899.6581, 2607.569
900.1402, 2608.627
900.6223, 2604.768
901.1044, 2593.051
901.5865, 2577.624
902.0687, 2568.359
902.5508, 2564.945
903.0329, 2571.141
903.5150, 2594.836
903.9971, 2618.645
904.4792, 2600.967
904.9614, 2550.761
905.4435, 2521.321
905.9256, 2531.216
906.4077, 2551.666
906.8898, 2566.296
907.3719, 2573.745
907.8540, 2572.293
908.3361, 2557.161
908.8182, 2539.241
909.3004, 2515.827
909.7825, 2493.906
910.2646, 2483.109
910.7467, 2482.193
911.2288, 2472.689
911.7109, 2451.934
912.1931, 2433.025
912.6752, 2432.548
913.1573, 2436.660
913.6394, 2429.325
914.1215, 2405.692
914.6036, 2387.737
915.0858, 2380.438
915.5679, 2377.562
916.0500, 2379.311
916.5321, 2384.841
917.0142, 2371.827
917.4963, 2340.288
917.9785, 2312.221
918.4606, 2306.568
918.9427, 2309.514
919.4248, 2304.694
919.9069, 2293.715
920.3890, 2289.898
920.8712, 2310.492
921.3533, 2322.567
921.8354, 2312.453
922.3175, 2287.848
922.7996, 2278.154
923.2817, 2283.422
923.7639, 2289.193
924.2460, 2289.707
924.7281, 2288.268
925.2102, 2289.895
925.6923, 2292.425
926.1744, 2291.562
926.6566, 2290.291
927.1387, 2278.556
927.6208, 2242.243
928.1029, 2205.127
928.5850, 2207.346
929.0671, 2251.394
929.5493, 2275.261
930.0314, 2267.811
930.5135, 2248.307
930.9956, 2229.574
931.4777, 2216.322
931.9598, 2217.479
932.4420, 2240.141
932.9241, 2258.487
933.4062, 2263.383
933.8883, 2265.104
934.3704, 2271.151
934.8525, 2282.413
935.3347, 2282.180
935.8168, 2269.609
936.2989, 2259.588
936.7810, 2266.976
937.2631, 2281.611
937.7452, 2291.295
938.2274, 2295.791
938.7095, 2300.888
939.1916, 2305.850
939.6737, 2314.990
940.1558, 2331.833
940.6379, 2353.646
941.1201, 2367.453
941.6022, 2373.111
942.0843, 2378.714
942.5664, 2385.876
943.0485, 2396.737
943.5306, 2416.357
944.0128, 2441.211
944.4949, 2463.890
944.9770, 2472.564
945.4591, 2492.298
945.9412, 2532.080
946.4233, 2578.942
946.9055, 2614.348
947.3876, 2638.543
947.8697, 2663.338
948.3518, 2690.336
948.8339, 2718.740
949.3160, 2745.428
949.7982, 2773.782
950.2803, 2808.571
950.7624, 2851.943
951.2445, 2896.599
951.7266, 2939.240
952.2087, 2985.678
952.6909, 3042.061
953.1730, 3107.561
953.6551, 3162.389
954.1372, 3206.354
954.6193, 3251.215
955.1014, 3308.506
955.5836, 3366.977
956.0657, 3412.814
956.5478, 3448.758
957.0299, 3495.481
957.5120, 3567.627
957.9941, 3631.649
958.4763, 3675.192
958.9584, 3708.171
959.4405, 3756.149
959.9226, 3817.088
960.4047, 3878.794
960.8868, 3937.471
961.3690, 3993.503
961.8511, 4044.637
962.3332, 4094.579
962.8153, 4149.431
963.2974, 4213.626
963.7795, 4278.294
964.2617, 4348.276
964.7438, 4410.464
965.2259, 4446.484
965.7080, 4461.908
966.1901, 4475.312
966.6722, 4488.377
967.1544, 4498.779
967.6365, 4516.459
968.1186, 4521.611
968.6007, 4497.480
969.0828, 4442.454
969.5649, 4378.937
970.0471, 4306.484
970.5292, 4224.696
971.0113, 4127.173
971.4934, 4023.692
971.9755, 3938.025
972.4576, 3866.116
972.9398, 3789.819
973.4219, 3689.107
973.9040, 3594.582
974.3861, 3521.886
974.8682, 3461.706
975.3503, 3397.339
975.8325, 3327.250
976.3146, 3254.307
976.7967, 3176.219
977.2788, 3103.304
977.7609, 3050.542
978.2430, 3010.163
978.7252, 2968.460
979.2073, 2922.297
979.6894, 2878.863
980.1715, 2840.698
980.6536, 2807.337
981.1357, 2778.257
981.6179, 2753.482
982.1000, 2737.629
982.5821, 2730.931
983.0642, 2724.263
983.5463, 2708.581
984.0284, 2692.230
984.5106, 2687.851
984.9927, 2691.457
985.4748, 2688.138
985.9569, 2660.903
986.4390, 2644.002
986.9211, 2646.950
987.4033, 2659.670
987.8854, 2658.524
988.3675, 2647.008
988.8496, 2653.414
989.3317, 2689.837
989.8138, 2725.282
990.2960, 2724.497
990.7781, 2714.457
991.2602, 2725.860
991.7423, 2772.909
992.2244, 2807.027
992.7065, 2822.104
993.1887, 2838.844
993.6708, 2875.771
994.1529, 2925.974
994.6350, 2965.660
995.1171, 2996.525
995.5992, 3031.422
996.0814, 3087.105
996.5635, 3138.371
997.0456, 3160.277
997.5277, 3168.073
998.0098, 3213.289
998.4919, 3304.930
998.9741, 3387.871
999.4562, 3446.974
999.9383, 3496.071
1000.420, 3552.281
1000.903, 3612.371
1001.385, 3672.945
1001.867, 3736.003
1002.349, 3790.303
1002.831, 3822.451
1003.313, 3855.674
1003.795, 3907.520
1004.277, 3978.930
1004.759, 4046.058
1005.242, 4109.676
1005.724, 4160.364
1006.206, 4187.554
1006.688, 4203.858
1007.170, 4226.220
1007.652, 4250.274
1008.134, 4247.165
1008.616, 4208.278
1009.099, 4156.716
1009.581, 4097.289
1010.063, 4027.020
1010.545, 3932.981
1011.027, 3820.969
1011.509, 3713.405
1011.991, 3617.621
1012.473, 3523.164
1012.955, 3418.771
1013.438, 3315.852
1013.920, 3224.203
1014.402, 3146.721
1014.884, 3063.249
1015.366, 2970.916
1015.848, 2885.823
1016.330, 2821.406
1016.812, 2770.164
1017.294, 2726.657
1017.777, 2687.798
1018.259, 2641.886
1018.741, 2568.835
1019.223, 2508.464
1019.705, 2475.450
1020.187, 2456.319
1020.669, 2419.791
1021.151, 2368.497
1021.633, 2328.455
1022.116, 2307.603
1022.598, 2291.040
1023.080, 2266.751
1023.562, 2239.533
1024.044, 2214.640
1024.526, 2193.957
1025.008, 2168.574
1025.490, 2134.538
1025.973, 2106.289
1026.455, 2095.944
1026.937, 2097.296
1027.419, 2096.255
1027.901, 2092.721
1028.383, 2086.382
1028.865, 2080.012
1029.347, 2067.308
1029.829, 2039.758
1030.312, 2007.764
1030.794, 1988.447
1031.276, 1982.458
1031.758, 1978.190
1032.240, 1974.151
1032.722, 1970.039
1033.204, 1964.446
1033.686, 1959.267
1034.169, 1957.080
1034.651, 1958.906
1035.133, 1958.947
1035.615, 1956.850
1036.097, 1952.544
1036.579, 1944.657
1037.061, 1934.949
1037.543, 1929.863
1038.026, 1928.478
1038.508, 1927.333
1038.990, 1925.088
1039.472, 1922.351
1039.954, 1920.758
1040.436, 1918.128
1040.918, 1910.311
1041.400, 1895.645
1041.882, 1887.595
1042.365, 1887.950
1042.847, 1889.926
1043.329, 1886.412
1043.811, 1881.143
1044.293, 1878.458
1044.775, 1878.710
1045.257, 1879.872
1045.739, 1881.397
1046.221, 1884.279
1046.704, 1890.420
1047.186, 1896.737
1047.668, 1893.158
1048.150, 1882.169
1048.632, 1873.607
1049.114, 1870.586
1049.596, 1871.262
1050.078, 1880.968
1050.561, 1889.726
1051.043, 1885.394
1051.525, 1861.758
1052.007, 1856.840
1052.489, 1872.880
1052.971, 1889.101
1053.453, 1887.703
1053.935, 1878.569
1054.417, 1874.849
1054.900, 1874.977
1055.382, 1869.559
1055.864, 1844.587
1056.346, 1832.023
1056.828, 1841.446
1057.310, 1860.435
1057.792, 1866.946
1058.274, 1864.484
1058.756, 1867.912
1059.239, 1882.602
1059.721, 1888.417
1060.203, 1862.841
1060.685, 1833.085
1061.167, 1818.104
1061.649, 1818.020
1062.131, 1825.843
1062.613, 1842.369
1063.096, 1854.186
1063.578, 1850.932
1064.060, 1843.117
1064.542, 1843.042
1065.024, 1847.643
1065.506, 1850.885
1065.988, 1852.317
1066.470, 1849.778
1066.953, 1840.129
1067.435, 1832.499
1067.917, 1840.523
1068.399, 1858.064
1068.881, 1865.538
1069.363, 1862.148
1069.845, 1859.429
1070.327, 1868.475
1070.809, 1873.712
1071.292, 1863.937
1071.774, 1846.132
1072.256, 1845.061
1072.738, 1860.676
1073.220, 1871.126
1073.702, 1869.478
1074.184, 1864.090
1074.666, 1863.990
1075.148, 1864.154
1075.630, 1858.458
1076.113, 1843.932
1076.595, 1830.809
1077.077, 1818.513
1077.559, 1809.590
1078.041, 1807.257
1078.523, 1808.653
1079.005, 1807.932
1079.487, 1805.809
1079.970, 1804.508
1080.452, 1807.978
1080.934, 1808.067
1081.416, 1802.708
1081.898, 1794.227
1082.380, 1782.159
1082.862, 1768.189
1083.344, 1769.347
1083.827, 1787.179
1084.309, 1805.347
1084.791, 1812.519
1085.273, 1815.652
1085.755, 1817.838
1086.237, 1819.842
1086.719, 1826.573
1087.201, 1840.038
1087.683, 1842.081
1088.166, 1823.250
1088.648, 1801.608
1089.130, 1801.270
1089.612, 1811.706
1090.094, 1818.544
1090.576, 1817.651
1091.058, 1817.151
1091.540, 1817.628
1092.022, 1818.316
1092.505, 1817.698
1092.987, 1817.252
1093.469, 1823.241
1093.951, 1833.680
1094.433, 1841.615
1094.915, 1838.150
1095.397, 1838.917
1095.879, 1851.549
1096.362, 1867.853
1096.844, 1878.262
1097.326, 1882.953
1097.808, 1887.569
1098.290, 1892.554
1098.772, 1898.195
1099.254, 1909.186
1099.736, 1917.063
1100.219, 1910.084
1100.701, 1893.017
1101.183, 1895.167
1101.665, 1920.886
1102.147, 1943.379
1102.629, 1956.607
1103.111, 1961.319
1103.593, 1954.260
1104.075, 1940.959
1104.557, 1927.525
1105.040, 1913.757
1105.522, 1908.004
1106.004, 1915.677
1106.486, 1920.447
1106.968, 1911.951
1107.450, 1896.533
1107.932, 1893.805
1108.414, 1898.377
1108.897, 1893.931
1109.379, 1861.031
1109.861, 1837.269
1110.343, 1840.793
1110.825, 1848.725
1111.307, 1837.338
1111.789, 1808.806
1112.271, 1795.317
1112.754, 1797.347
1113.236, 1801.372
1113.718, 1799.099
1114.200, 1795.665
1114.682, 1795.027
1115.164, 1795.318
1115.646, 1791.756
1116.128, 1783.965
1116.610, 1774.380
1117.093, 1762.615
1117.575, 1752.665
1118.057, 1745.666
1118.539, 1744.375
1119.021, 1755.195
1119.503, 1779.154
1119.985, 1792.818
1120.467, 1793.200
1120.949, 1789.526
1121.432, 1783.199
1121.914, 1777.590
1122.396, 1777.550
1122.878, 1782.673
1123.360, 1793.977
1123.842, 1818.724
1124.324, 1828.729
1124.806, 1811.689
1125.289, 1794.136
1125.771, 1793.834
1126.253, 1806.065
1126.735, 1813.050
1127.217, 1815.639
1127.699, 1817.625
1128.181, 1821.339
1128.663, 1823.940
1129.146, 1823.812
1129.628, 1822.500
1130.110, 1819.852
1130.592, 1816.192
1131.074, 1823.708
1131.556, 1842.648
1132.038, 1857.295
1132.520, 1850.471
1133.002, 1841.787
1133.484, 1847.881
1133.967, 1861.762
1134.449, 1859.440
1134.931, 1837.765
1135.413, 1831.027
1135.895, 1847.658
1136.377, 1867.364
1136.859, 1869.786
1137.341, 1865.162
1137.824, 1863.175
1138.306, 1864.951
1138.788, 1866.511
1139.270, 1866.640
1139.752, 1870.927
1140.234, 1882.818
1140.716, 1896.705
1141.198, 1905.694
1141.681, 1909.995
1142.163, 1908.858
1142.645, 1898.899
1143.127, 1894.086
1143.609, 1897.294
1144.091, 1901.499
1144.573, 1902.968
1145.055, 1902.457
1145.537, 1900.437
1146.020, 1897.988
1146.502, 1898.229
1146.984, 1902.147
1147.466, 1909.791
1147.948, 1924.392
1148.430, 1937.986
1148.912, 1941.818
1149.394, 1937.921
1149.876, 1937.030
1150.359, 1939.323
1150.841, 1943.666
1151.323, 1953.367
1151.805, 1960.055
1152.287, 1956.842
1152.769, 1951.224
1153.251, 1954.756
1153.733, 1967.127
1154.216, 1985.223
1154.698, 2009.143
1155.180, 2025.694
1155.662, 2013.445
1156.144, 2001.904
1156.626, 2017.557
1157.108, 2049.577
1157.590, 2058.663
1158.073, 2043.756
1158.555, 2042.278
1159.037, 2065.749
1159.519, 2092.731
1160.001, 2106.873
1160.483, 2112.316
1160.965, 2107.623
1161.447, 2093.221
1161.929, 2103.513
1162.411, 2142.538
1162.894, 2174.103
1163.376, 2180.640
1163.858, 2179.724
1164.340, 2188.793
1164.822, 2205.182
1165.304, 2227.164
1165.786, 2259.175
1166.268, 2277.606
1166.751, 2278.553
1167.233, 2282.325
1167.715, 2306.587
1168.197, 2336.590
1168.679, 2347.871
1169.161, 2347.270
1169.643, 2349.149
1170.125, 2356.856
1170.608, 2369.153
1171.090, 2389.438
1171.572, 2404.980
1172.054, 2397.681
1172.536, 2381.153
1173.018, 2385.937
1173.500, 2406.016
1173.982, 2415.295
1174.464, 2396.977
1174.947, 2378.602
1175.429, 2364.781
1175.911, 2349.450
1176.393, 2321.949
1176.875, 2288.216
1177.357, 2265.550
1177.839, 2253.902
1178.321, 2235.519
1178.803, 2198.108
1179.286, 2159.615
1179.768, 2123.493
1180.250, 2090.719
1180.732, 2063.949
1181.214, 2041.831
1181.696, 2018.892
1182.178, 1994.064
1182.660, 1973.271
1183.142, 1965.692
1183.625, 1954.999
1184.107, 1933.788
1184.589, 1906.598
1185.071, 1888.073
1185.553, 1874.714
1186.035, 1851.118
1186.517, 1808.624
1186.999, 1775.465
1187.482, 1771.209
1187.964, 1773.917
1188.446, 1773.288
1188.928, 1769.473
1189.410, 1764.502
1189.892, 1757.326
1190.374, 1740.994
1190.856, 1704.643
1191.339, 1677.031
1191.821, 1678.733
1192.303, 1689.571
1192.785, 1697.131
1193.267, 1700.925
1193.749, 1690.243
1194.231, 1667.504
1194.713, 1650.369
1195.195, 1651.805
1195.677, 1655.667
1196.160, 1658.047
1196.642, 1655.768
1197.124, 1642.339
1197.606, 1617.413
1198.088, 1610.807
1198.570, 1621.388
1199.052, 1630.542
1199.534, 1624.229
1200.017, 1616.247
1200.499, 1614.167
1200.981, 1614.909
1201.463, 1614.325
1201.945, 1612.391
1202.427, 1609.658
1202.909, 1606.196
1203.391, 1604.172
1203.874, 1608.347
1204.356, 1611.128
1204.838, 1603.909
1205.320, 1593.573
1205.802, 1595.502
1206.284, 1609.874
1206.766, 1611.726
1207.248, 1597.668
1207.730, 1585.146
1208.213, 1589.498
1208.695, 1597.852
1209.177, 1603.818
1209.659, 1606.551
1210.141, 1601.888
1210.623, 1589.844
1211.105, 1586.483
1211.587, 1595.577
1212.069, 1604.961
1212.552, 1608.085
1213.034, 1604.635
1213.516, 1588.206
1213.998, 1565.013
1214.480, 1560.400
1214.962, 1574.031
1215.444, 1584.408
1215.926, 1586.440
1216.409, 1583.770
1216.891, 1576.709
1217.373, 1568.178
1217.855, 1558.972
1218.337, 1550.004
1218.819, 1549.088
1219.301, 1555.841
1219.783, 1556.765
1220.266, 1543.974
1220.748, 1536.286
1221.230, 1556.971
1221.712, 1581.668
1222.194, 1589.282
1222.676, 1581.022
1223.158, 1573.564
1223.640, 1567.062
1224.122, 1565.229
1224.604, 1572.947
1225.087, 1577.948
1225.569, 1570.063
1226.051, 1556.452
1226.533, 1542.159
1227.015, 1527.619
1227.497, 1523.919
1227.979, 1530.312
1228.461, 1538.005
1228.944, 1544.893
1229.426, 1548.773
1229.908, 1545.800
1230.390, 1541.101
1230.872, 1539.107
1231.354, 1539.814
1231.836, 1545.892
1232.318, 1556.588
1232.801, 1564.026
1233.283, 1564.650
1233.765, 1560.255
1234.247, 1545.455
1234.729, 1530.730
1235.211, 1526.177
1235.693, 1531.527
1236.175, 1545.444
1236.657, 1565.719
1237.140, 1575.254
1237.622, 1548.499
1238.104, 1528.380
1238.586, 1540.803
1239.068, 1561.169
1239.550, 1564.759
1240.032, 1553.720
1240.514, 1545.679
1240.996, 1541.156
1241.479, 1539.791
1241.961, 1545.856
1242.443, 1549.088
1242.925, 1543.161
1243.407, 1536.199
1243.889, 1539.487
1244.371, 1550.283
1244.853, 1553.606
1245.336, 1549.860
1245.818, 1547.697
1246.300, 1554.862
1246.782, 1558.964
1247.264, 1554.533
1247.746, 1549.367
1248.228, 1558.253
1248.710, 1574.053
1249.193, 1568.726
1249.675, 1544.007
1250.157, 1528.807
1250.639, 1548.270
1251.121, 1559.948
1251.603, 1553.434
1252.085, 1540.065
1252.567, 1533.965
1253.049, 1532.824
1253.531, 1530.766
1254.014, 1527.923
1254.496, 1530.880
1254.978, 1550.297
1255.460, 1560.427
1255.942, 1554.795
1256.424, 1543.247
1256.906, 1537.783
1257.388, 1535.883
1257.871, 1532.449
1258.353, 1527.519
1258.835, 1528.187
1259.317, 1537.444
1259.799, 1547.946
1260.281, 1560.243
1260.763, 1567.379
1261.245, 1555.656
1261.728, 1536.839
1262.210, 1524.579
1262.692, 1520.328
1263.174, 1522.727
1263.656, 1534.558
1264.138, 1538.891
1264.620, 1530.245
1265.102, 1521.841
1265.584, 1532.476
1266.067, 1547.884
1266.549, 1553.218
1267.031, 1548.078
1267.513, 1540.081
1267.995, 1527.560
1268.477, 1528.471
1268.959, 1549.311
1269.441, 1569.498
1269.923, 1568.536
1270.406, 1559.592
1270.888, 1551.257
1271.370, 1544.697
1271.852, 1544.844
1272.334, 1551.455
1272.816, 1554.659
1273.298, 1552.046
1273.780, 1547.771
1274.263, 1545.570
1274.745, 1541.917
1275.227, 1531.927
1275.709, 1520.132
1276.191, 1525.294
1276.673, 1543.563
1277.155, 1550.149
1277.637, 1537.811
##END=



