##NAMES=Selenium
##RRUFFID=R060137
##IDEAL CHEMISTRY=Se
##LOCALITY=Grants Uranium District, Valencia County, New Mexico, USA
##OWNER=RRUFF
##SOURCE=University of Arizona Mineral Museum
##DESCRIPTION=Mass of gray acicular crystals
##STATUS=The identification of this mineral has been confirmed by X-ray diffraction and chemical analysis
##URL=rruff.info/R060137
##MEASURED CHEMISTRY=Se
89.78156, 0.0000000E+00
90.26367, 1.274555
90.74579, 1.411314
91.22791, 1.326221
91.71002, 1.048908
92.19214, 0.8428522
92.67426, 1.063254
93.15638, 1.541503
93.63850, 1.818848
94.12061, 1.621846
94.60273, 1.157217
95.08485, 0.9086281
95.56696, 0.8944348
96.04908, 0.9872894
96.53120, 1.092391
97.01331, 1.203318
97.49543, 1.225342
97.97755, 1.042101
98.45966, 0.6736872
98.94178, 0.4821146
99.42390, 0.5017173
99.90602, 0.6528057
100.3881, 0.7808979
100.8703, 0.5194022
101.3524, 0.9593453
101.8345, 1.208320
102.3166, 1.276589
102.7987, 0.6229163
103.2808, 0.9014813
103.7630, 0.8064484
104.2451, 0.6960953
104.7272, 1.105869
105.2093, 0.5572007
105.6914, 0.9587258
106.1735, 0.9809511
106.6557, 1.176773
107.1378, 0.9966888
107.6199, 0.9327096
108.1020, 1.244757
108.5841, 1.348595
109.0662, 0.9995893
109.5484, 1.030421
110.0305, 0.9567972
110.5126, 0.9105822
110.9947, 0.9158391
111.4768, 0.9790099
111.9590, 1.065337
112.4411, 1.246180
112.9232, 1.431359
113.4053, 1.499666
113.8874, 1.284042
114.3695, 1.067468
114.8517, 0.9726720
115.3338, 1.072507
115.8159, 1.144799
116.2980, 1.072964
116.7801, 0.9256201
117.2622, 0.8525181
117.7444, 0.9830449
118.2265, 1.162174
118.7086, 1.276424
119.1907, 1.232123
119.6728, 1.227244
120.1549, 1.418945
120.6371, 1.761751
121.1192, 2.072563
121.6013, 2.167895
122.0834, 2.197885
122.5655, 2.334977
123.0476, 2.726102
123.5298, 3.162074
124.0119, 3.465964
124.4940, 3.641450
124.9761, 3.740954
125.4582, 3.722816
125.9404, 3.658181
126.4225, 3.687436
126.9046, 3.915809
127.3867, 4.255976
127.8688, 4.596001
128.3509, 4.941247
128.8331, 5.233985
129.3152, 5.355372
129.7973, 5.343576
130.2794, 5.386340
130.7615, 5.575016
131.2436, 5.887186
131.7258, 6.250243
132.2079, 6.664026
132.6900, 7.121255
133.1721, 7.687697
133.6542, 8.363603
134.1364, 8.883754
134.6185, 8.988605
135.1006, 8.702024
135.5827, 8.664196
136.0648, 8.966906
136.5469, 9.490071
137.0291, 9.969052
137.5112, 10.40224
137.9933, 10.78436
138.4754, 11.11017
138.9575, 11.37152
139.4396, 11.61326
139.9218, 11.84999
140.4039, 12.06946
140.8860, 12.18045
141.3681, 12.11275
141.8502, 12.06034
142.3323, 12.20652
142.8145, 12.67717
143.2966, 13.02337
143.7787, 13.14098
144.2608, 13.03526
144.7429, 12.97752
145.2250, 12.97086
145.7072, 13.00900
146.1893, 13.09860
146.6714, 13.34263
147.1535, 13.48064
147.6356, 13.40098
148.1178, 13.04174
148.5999, 12.88942
149.0820, 13.08950
149.5641, 13.43660
150.0462, 13.68831
150.5283, 13.74070
151.0105, 13.79821
151.4926, 13.79078
151.9747, 13.85987
152.4568, 13.88333
152.9389, 13.83775
153.4210, 13.75188
153.9032, 13.66437
154.3853, 13.48485
154.8674, 13.38598
155.3495, 13.44947
155.8316, 13.79006
156.3137, 14.03198
156.7959, 14.07616
157.2780, 13.98898
157.7601, 13.89452
158.2422, 13.86266
158.7243, 13.79843
159.2065, 13.63693
159.6886, 13.25423
160.1707, 12.97482
160.6528, 12.96652
161.1349, 13.13976
161.6170, 13.25875
162.0992, 13.19306
162.5813, 13.07395
163.0634, 12.98373
163.5455, 12.92296
164.0276, 12.91656
164.5097, 13.02043
164.9919, 13.20289
165.4740, 13.34048
165.9561, 13.32674
166.4382, 13.26230
166.9203, 13.23813
167.4024, 13.29962
167.8846, 13.38766
168.3667, 13.49234
168.8488, 13.60550
169.3309, 13.67216
169.8130, 13.63853
170.2952, 13.54525
170.7773, 13.43974
171.2594, 13.21900
171.7415, 13.08008
172.2236, 13.27188
172.7057, 13.77106
173.1879, 14.23585
173.6700, 14.42691
174.1521, 14.41128
174.6342, 14.30532
175.1163, 14.00518
175.5984, 13.70802
176.0806, 13.68844
176.5627, 13.94693
177.0448, 14.26016
177.5269, 14.51763
178.0090, 14.68567
178.4911, 14.68917
178.9733, 14.31943
179.4554, 13.82032
179.9375, 13.60600
180.4196, 13.70208
180.9017, 13.88933
181.3838, 13.93894
181.8660, 13.88708
182.3481, 13.86397
182.8302, 13.95531
183.3123, 14.11558
183.7944, 14.24642
184.2766, 14.34779
184.7587, 14.41505
185.2408, 14.45244
185.7229, 14.45653
186.2050, 14.40595
186.6871, 14.26373
187.1693, 14.05251
187.6514, 13.84341
188.1335, 13.61879
188.6156, 13.45180
189.0977, 13.49832
189.5798, 13.74606
190.0620, 13.96351
190.5441, 14.00009
191.0262, 13.88616
191.5083, 13.83424
191.9904, 13.86796
192.4725, 13.93613
192.9547, 13.94319
193.4368, 13.88701
193.9189, 13.84196
194.4010, 13.85109
194.8831, 13.91182
195.3652, 13.99239
195.8474, 14.10485
196.3295, 14.21408
196.8116, 14.24268
197.2937, 14.18489
197.7758, 14.10335
198.2579, 14.01997
198.7401, 13.93374
199.2222, 13.88796
199.7043, 13.88883
200.1864, 13.92796
200.6685, 14.00568
201.1507, 14.13590
201.6328, 14.23640
202.1149, 14.18194
202.5970, 13.93018
203.0791, 13.69962
203.5612, 14.16076
204.0434, 14.45404
204.5255, 14.58847
205.0076, 14.08830
205.4897, 14.40758
205.9718, 14.39846
206.4539, 14.37588
206.9361, 14.81051
207.4182, 14.40264
207.9003, 14.83001
208.3824, 14.92397
208.8645, 15.17052
209.3466, 15.05734
209.8288, 15.12440
210.3109, 15.14684
210.7930, 15.12861
211.2751, 15.02464
211.7572, 14.89143
212.2393, 14.93406
212.7215, 15.16599
213.2036, 15.54023
213.6857, 16.08324
214.1678, 16.90599
214.6499, 17.50814
215.1320, 17.76786
215.6142, 17.78494
216.0963, 18.00543
216.5784, 18.51542
217.0605, 19.06168
217.5426, 19.47346
218.0247, 19.69056
218.5069, 19.94298
218.9890, 20.27255
219.4711, 20.65397
219.9532, 20.95693
220.4353, 21.11966
220.9175, 21.30967
221.3996, 21.65692
221.8817, 22.24795
222.3638, 22.75924
222.8459, 23.13226
223.3280, 23.40084
223.8102, 23.69539
224.2923, 23.98779
224.7744, 24.35522
225.2565, 24.85218
225.7386, 25.51841
226.2207, 26.21478
226.7029, 26.93213
227.1850, 27.67122
227.6671, 28.39563
228.1492, 29.07365
228.6313, 29.78157
229.1134, 30.56155
229.5956, 31.43039
230.0777, 32.34836
230.5598, 33.32294
231.0419, 34.34923
231.5240, 35.48767
232.0062, 37.06422
232.4883, 38.31303
232.9704, 38.72226
233.4525, 37.92434
233.9346, 37.09984
234.4167, 36.35069
234.8989, 35.64454
235.3810, 34.82184
235.8631, 33.79020
236.3452, 32.74844
236.8273, 31.82190
237.3094, 31.15091
237.7916, 30.28756
238.2737, 29.13541
238.7558, 27.76401
239.2379, 26.45665
239.7200, 25.29507
240.2021, 24.08510
240.6843, 22.65879
241.1664, 20.73236
241.6485, 19.21980
242.1306, 18.25974
242.6127, 17.73722
243.0948, 17.26003
243.5770, 16.82968
244.0591, 16.44143
244.5412, 16.10923
245.0233, 15.88912
245.5054, 15.58510
245.9876, 15.11026
246.4697, 14.55967
246.9518, 14.23514
247.4339, 14.24534
247.9160, 14.31871
248.3981, 14.32831
248.8803, 14.24988
249.3624, 14.16377
249.8445, 14.06153
250.3266, 13.95477
250.8087, 13.87350
251.2908, 13.81456
251.7730, 13.78677
252.2551, 13.81039
252.7372, 13.94615
253.2193, 13.97112
253.7014, 13.84456
254.1835, 13.62521
254.6657, 13.44646
255.1478, 13.32043
255.6299, 13.21319
256.1120, 13.09941
256.5941, 12.95005
257.0763, 12.89953
257.5584, 12.99492
258.0405, 13.15921
258.5226, 13.22486
259.0047, 13.13008
259.4868, 13.06615
259.9690, 13.12379
260.4511, 13.34552
260.9332, 13.48966
261.4153, 13.53123
261.8974, 13.51884
262.3795, 13.54200
262.8617, 13.63287
263.3438, 13.68200
263.8259, 13.64561
264.3080, 13.51233
264.7901, 13.36786
265.2722, 13.19658
265.7544, 13.03240
266.2365, 12.92468
266.7186, 12.87585
267.2007, 12.87912
267.6828, 12.96183
268.1649, 13.13548
268.6471, 13.17713
269.1292, 13.03112
269.6113, 12.84207
270.0934, 12.80369
270.5755, 12.95770
271.0576, 13.10287
271.5398, 13.19487
272.0219, 13.23418
272.5040, 13.20321
272.9861, 13.09107
273.4682, 12.93416
273.9503, 12.72963
274.4325, 12.44566
274.9146, 12.31134
275.3967, 12.44039
275.8788, 12.78496
276.3610, 12.93219
276.8431, 12.83616
277.3252, 12.67914
277.8073, 12.64731
278.2894, 12.75709
278.7715, 12.79662
279.2537, 12.69393
279.7358, 12.49594
280.2179, 12.40837
280.7000, 12.44896
281.1821, 12.51988
281.6642, 12.54402
282.1464, 12.52118
282.6285, 12.50086
283.1106, 12.50160
283.5927, 12.50109
284.0748, 12.41692
284.5569, 12.23755
285.0391, 12.07509
285.5212, 11.99137
286.0033, 11.98677
286.4854, 12.10359
286.9675, 12.41228
287.4496, 12.74419
287.9318, 12.68801
288.4139, 12.23645
288.8960, 11.81015
289.3781, 11.68933
289.8602, 11.81761
290.3423, 11.91269
290.8245, 11.94858
291.3066, 11.95076
291.7887, 11.94982
292.2708, 11.94683
292.7529, 11.95146
293.2350, 12.00682
293.7172, 12.07675
294.1993, 12.00295
294.6814, 11.74344
295.1635, 11.50501
295.6456, 11.63512
296.1277, 12.04575
296.6099, 12.36061
297.0920, 12.31341
297.5741, 12.06803
298.0562, 11.93736
298.5383, 11.93068
299.0204, 11.98670
299.5026, 12.09482
299.9847, 12.22348
300.4668, 12.28980
300.9489, 12.18390
301.4311, 12.03592
301.9132, 12.06488
302.3953, 12.26365
302.8774, 12.44716
303.3595, 12.44548
303.8416, 12.33017
304.3238, 12.22638
304.8059, 12.18636
305.2880, 12.16462
305.7701, 12.09503
306.2522, 11.99026
306.7343, 11.93196
307.2165, 12.03484
307.6986, 12.19434
308.1807, 12.26789
308.6628, 12.16195
309.1449, 12.05877
309.6270, 12.13625
310.1092, 12.34225
310.5913, 12.50701
311.0734, 12.49564
311.5555, 12.42474
312.0376, 12.39937
312.5197, 12.45519
313.0019, 12.51155
313.4840, 12.56392
313.9661, 12.58397
314.4482, 12.51514
314.9303, 12.19039
315.4124, 11.87151
315.8946, 11.73853
316.3767, 11.84282
316.8588, 11.97584
317.3409, 12.06855
317.8230, 12.13570
318.3051, 12.19648
318.7873, 12.32955
319.2694, 12.39473
319.7515, 12.26256
320.2336, 11.90417
320.7157, 11.70615
321.1978, 11.95047
321.6800, 12.32557
322.1621, 12.54970
322.6442, 12.47058
323.1263, 12.33474
323.6084, 12.14342
324.0905, 11.90892
324.5727, 11.79155
325.0548, 11.93754
325.5369, 12.12976
326.0190, 12.23686
326.5012, 12.17973
326.9833, 12.11784
327.4654, 12.02620
327.9475, 11.92885
328.4296, 11.92589
328.9117, 12.21109
329.3939, 12.41904
329.8760, 12.37847
330.3581, 11.81433
330.8402, 11.51368
331.3223, 11.62007
331.8044, 11.94795
332.2866, 12.11758
332.7687, 12.02821
333.2508, 11.92512
333.7329, 11.88873
334.2150, 11.93849
334.6971, 11.96305
335.1793, 11.96992
335.6614, 11.94472
336.1435, 11.84343
336.6256, 11.59361
337.1077, 11.46591
337.5898, 11.58156
338.0720, 11.92254
338.5541, 12.06103
339.0362, 11.91711
339.5183, 11.75276
340.0004, 11.86611
340.4825, 12.32276
340.9647, 12.58267
341.4468, 12.48741
341.9289, 12.16933
342.4110, 12.08716
342.8931, 12.27563
343.3752, 12.47548
343.8574, 12.51797
344.3395, 12.40824
344.8216, 12.19647
345.3037, 11.84306
345.7858, 11.47834
346.2679, 11.34400
346.7501, 11.42922
347.2322, 11.57734
347.7143, 11.76241
348.1964, 11.94931
348.6785, 11.99786
349.1607, 11.88337
349.6428, 11.75113
350.1249, 11.78010
350.6070, 11.92908
351.0891, 12.07013
351.5713, 12.15917
352.0534, 12.20487
352.5355, 12.18814
353.0176, 12.11339
353.4997, 12.08293
353.9818, 12.27444
354.4640, 12.54112
354.9461, 12.65500
355.4282, 12.50875
355.9103, 12.23906
356.3924, 11.58563
356.8745, 11.98348
357.3567, 12.21346
357.8388, 12.28460
358.3209, 11.72114
358.8030, 11.97713
359.2851, 11.90473
359.7672, 11.81885
360.2494, 12.05176
360.7315, 11.97588
361.2136, 11.88328
361.6957, 11.76669
362.1778, 11.69065
362.6599, 11.63459
363.1421, 11.56951
363.6242, 11.47766
364.1063, 11.95322
364.5884, 12.26093
365.0705, 12.40978
365.5526, 11.92403
366.0348, 12.25776
366.5169, 11.67298
366.9990, 11.58266
367.4811, 11.56798
367.9632, 11.69188
368.4453, 11.81522
368.9275, 11.85662
369.4096, 11.71869
369.8917, 11.63133
370.3738, 11.59380
370.8559, 11.60951
371.3380, 11.69966
371.8202, 11.97460
372.3023, 12.17455
372.7844, 12.17001
373.2665, 11.88182
373.7487, 11.71980
374.2308, 11.73068
374.7129, 11.82079
375.1950, 11.86621
375.6771, 11.85663
376.1592, 11.83899
376.6414, 11.84546
377.1235, 11.86348
377.6056, 11.73070
378.0877, 11.39408
378.5698, 11.07690
379.0519, 11.00768
379.5341, 11.18869
380.0162, 11.32322
380.4983, 11.35489
380.9804, 11.32007
381.4625, 11.27743
381.9446, 11.22731
382.4268, 11.22054
382.9089, 11.32577
383.3910, 11.50203
383.8731, 11.61934
384.3552, 11.66417
384.8373, 11.66269
385.3195, 11.61407
385.8016, 11.53896
386.2837, 11.49787
386.7658, 11.54078
387.2479, 11.62149
387.7300, 11.70140
388.2122, 11.77790
388.6943, 11.80862
389.1764, 11.70840
389.6585, 11.56140
390.1406, 11.47553
390.6227, 11.49074
391.1049, 11.56012
391.5870, 11.69163
392.0691, 11.85971
392.5512, 11.98733
393.0333, 12.08611
393.5154, 12.10057
393.9976, 11.96016
394.4797, 11.59113
394.9618, 11.29274
395.4439, 11.12963
395.9260, 11.10026
396.4081, 11.20217
396.8903, 11.71434
397.3724, 12.08177
397.8545, 12.07655
398.3366, 11.67708
398.8188, 11.39485
399.3009, 11.36119
399.7830, 11.39115
400.2651, 11.36433
400.7472, 11.15872
401.2293, 11.08449
401.7115, 11.22214
402.1936, 11.49469
402.6757, 11.66140
403.1578, 11.65854
403.6399, 11.66097
404.1220, 11.77428
404.6042, 12.05078
405.0863, 12.11183
405.5684, 11.88448
406.0505, 11.55832
406.5326, 11.37918
407.0147, 11.36110
407.4969, 11.38326
407.9790, 11.41920
408.4611, 11.46896
408.9432, 11.54767
409.4253, 11.66021
409.9074, 11.74612
410.3896, 11.73298
410.8717, 11.64595
411.3538, 11.60023
411.8359, 11.61984
412.3180, 11.66905
412.8001, 11.70925
413.2823, 11.73866
413.7644, 11.75316
414.2465, 11.73982
414.7286, 11.71472
415.2107, 11.68827
415.6928, 11.66021
416.1750, 11.66425
416.6571, 11.79044
417.1392, 11.94571
417.6213, 12.00466
418.1034, 11.83223
418.5855, 11.65133
419.0677, 11.58377
419.5498, 11.61377
420.0319, 11.68505
420.5140, 11.84782
420.9961, 11.99347
421.4782, 12.05006
421.9604, 11.97903
422.4425, 11.89679
422.9246, 11.75248
423.4067, 11.63270
423.8889, 11.65522
424.3710, 12.04290
424.8531, 12.35686
425.3352, 12.48493
425.8173, 12.42766
426.2994, 12.35849
426.7816, 12.24160
427.2637, 12.14986
427.7458, 12.13654
428.2279, 12.23899
428.7100, 12.32527
429.1921, 12.36696
429.6743, 12.40005
430.1564, 12.55239
430.6385, 12.89216
431.1206, 13.08320
431.6027, 12.88823
432.0848, 12.33334
432.5670, 12.11628
433.0491, 12.28819
433.5312, 12.58757
434.0133, 12.75979
434.4954, 12.81741
434.9775, 12.84140
435.4597, 12.84366
435.9418, 12.83309
436.4239, 12.81621
436.9060, 12.79625
437.3881, 12.79269
437.8702, 12.84530
438.3524, 12.91211
438.8345, 12.92260
439.3166, 12.86121
439.7987, 12.79869
440.2808, 12.79731
440.7629, 12.83039
441.2451, 12.85640
441.7272, 12.86699
442.2093, 12.85920
442.6914, 12.81682
443.1735, 12.74711
443.6556, 12.69734
444.1378, 12.71678
444.6199, 12.73994
445.1020, 12.71249
445.5841, 12.54027
446.0662, 12.48621
446.5483, 12.69553
447.0305, 13.02166
447.5126, 13.22160
447.9947, 13.22823
448.4768, 13.18215
448.9590, 13.09679
449.4411, 12.97115
449.9232, 12.87101
450.4053, 12.80651
450.8874, 12.75108
451.3695, 12.66950
451.8517, 12.53305
452.3338, 12.51564
452.8159, 12.69076
453.2980, 12.92523
453.7801, 12.89895
454.2622, 12.59048
454.7444, 12.34258
455.2265, 12.36977
455.7086, 12.59245
456.1907, 12.63809
456.6728, 12.49296
457.1549, 12.35627
457.6371, 12.48435
458.1192, 12.76054
458.6013, 12.88366
459.0834, 12.71070
459.5655, 12.48686
460.0476, 12.49185
460.5298, 12.66761
461.0119, 12.84115
461.4940, 12.96879
461.9761, 13.03017
462.4582, 12.97624
462.9403, 12.79262
463.4225, 12.65043
463.9046, 12.68961
464.3867, 12.77865
464.8688, 12.79234
465.3509, 12.63347
465.8330, 12.47442
466.3152, 12.32400
466.7973, 12.19532
467.2794, 12.13589
467.7615, 12.23080
468.2436, 12.31350
468.7257, 12.32420
469.2079, 12.24539
469.6900, 12.17424
470.1721, 12.10822
470.6542, 12.05317
471.1363, 12.03282
471.6184, 12.07728
472.1006, 12.02170
472.5827, 11.78575
473.0648, 11.46286
473.5469, 11.36073
474.0291, 11.49469
474.5112, 11.66875
474.9933, 11.80988
475.4754, 11.90506
475.9575, 11.84515
476.4396, 11.60103
476.9218, 11.39868
477.4039, 11.59857
477.8860, 12.02472
478.3681, 12.24755
478.8502, 11.98820
479.3323, 11.64613
479.8145, 11.66745
480.2966, 11.95779
480.7787, 12.16772
481.2608, 11.99433
481.7429, 11.76440
482.2250, 11.73003
482.7072, 11.95836
483.1893, 12.15288
483.6714, 12.25887
484.1535, 12.25941
484.6356, 12.13932
485.1177, 11.66949
485.5999, 11.33837
486.0820, 11.26782
486.5641, 11.40161
487.0462, 11.55051
487.5283, 11.80755
488.0104, 11.95277
488.4926, 11.85298
488.9747, 11.44150
489.4568, 11.24080
489.9389, 11.32307
490.4210, 11.48923
490.9031, 11.51180
491.3853, 11.38188
491.8674, 11.24932
492.3495, 11.11264
492.8316, 11.02929
493.3137, 11.21945
493.7958, 11.65109
494.2780, 11.95335
494.7601, 11.75803
495.2422, 11.32204
495.7243, 11.16033
496.2064, 11.30274
496.6885, 11.49673
497.1707, 11.58378
497.6528, 11.58417
498.1349, 11.51480
498.6170, 11.29054
499.0992, 11.12976
499.5813, 11.20836
500.0634, 11.44255
500.5455, 11.62654
501.0276, 11.66437
501.5097, 11.66413
501.9919, 11.66983
502.4740, 11.68841
502.9561, 11.68346
503.4382, 11.67277
503.9203, 11.62304
504.4024, 11.50025
504.8846, 11.23116
505.3667, 11.04092
505.8488, 10.94277
506.3309, 10.93181
506.8130, 11.02369
507.2951, 11.24920
507.7773, 11.43901
508.2594, 11.52709
508.7415, 11.52487
509.2236, 11.48724
509.7057, 11.41105
510.1878, 11.33996
510.6700, 11.29345
511.1521, 11.27980
511.6342, 11.35279
512.1163, 11.55563
512.5984, 11.71642
513.0806, 11.61675
513.5627, 11.34113
514.0448, 11.06610
514.5269, 10.78694
515.0090, 10.60200
515.4911, 10.62242
515.9733, 10.82098
516.4554, 11.01218
516.9375, 11.15852
517.4196, 11.25169
517.9017, 11.27384
518.3839, 11.17560
518.8660, 11.12355
519.3481, 11.20038
519.8302, 11.30178
520.3123, 11.30916
520.7944, 11.14199
521.2766, 11.02890
521.7587, 11.01484
522.2408, 11.07901
522.7229, 11.14871
523.2050, 11.23182
523.6871, 11.29221
524.1693, 11.28869
524.6514, 11.23061
525.1335, 11.26637
525.6156, 11.41485
526.0977, 11.53438
526.5798, 11.41793
527.0620, 11.15129
527.5441, 10.99781
528.0262, 11.04507
528.5083, 11.17279
528.9904, 11.32860
529.4725, 11.46870
529.9547, 11.48335
530.4368, 11.12476
530.9189, 10.77603
531.4010, 10.70810
531.8831, 10.92615
532.3652, 11.18018
532.8474, 11.52669
533.3295, 11.78980
533.8116, 11.84788
534.2937, 11.49496
534.7758, 11.26458
535.2579, 11.25503
535.7401, 11.33212
536.2222, 11.28417
536.7043, 10.99989
537.1864, 10.85743
537.6685, 10.97998
538.1506, 11.30131
538.6328, 11.52533
539.1149, 11.65362
539.5970, 11.68769
540.0791, 11.56671
540.5612, 11.33724
541.0433, 11.24436
541.5255, 11.30747
542.0076, 11.40139
542.4897, 11.38658
542.9718, 11.31461
543.4539, 11.29359
543.9360, 11.37789
544.4182, 11.47748
544.9003, 11.53247
545.3824, 11.54873
545.8645, 11.53951
546.3466, 11.47340
546.8287, 11.41578
547.3109, 11.43003
547.7930, 11.51992
548.2751, 11.50883
548.7572, 11.18805
549.2393, 10.90232
549.7214, 10.85382
550.2036, 11.21119
550.6857, 11.41991
551.1678, 11.43050
551.6499, 11.34331
552.1320, 11.29819
552.6141, 11.30505
553.0963, 11.28208
553.5784, 11.18801
554.0605, 11.07132
554.5426, 11.09455
555.0247, 11.24806
555.5068, 11.35638
555.9890, 11.26533
556.4711, 11.07512
556.9532, 10.94709
557.4353, 10.88790
557.9174, 10.89742
558.3995, 11.04941
558.8817, 11.23679
559.3638, 11.33636
559.8459, 11.28033
560.3281, 11.21144
560.8102, 11.15030
561.2923, 11.12060
561.7744, 10.82581
562.2565, 11.22459
562.7386, 11.45551
563.2208, 11.52758
563.7029, 10.96505
564.1850, 11.22197
564.6671, 11.15050
565.1492, 11.06555
565.6313, 11.43781
566.1135, 10.96758
566.5956, 11.33259
567.0777, 11.36419
567.5598, 11.54838
568.0419, 11.40214
568.5240, 11.35796
569.0062, 11.64432
569.4883, 11.74766
569.9704, 11.10837
570.4525, 10.90263
570.9346, 10.78377
571.4167, 10.74301
571.8989, 10.79934
572.3810, 10.91010
572.8631, 11.08618
573.3452, 11.30852
573.8273, 11.46835
574.3094, 11.51502
574.7916, 11.49405
575.2737, 11.41846
575.7558, 11.26511
576.2379, 11.13427
576.7200, 11.02063
577.2021, 10.93755
577.6843, 10.89896
578.1664, 10.91551
578.6485, 10.94467
579.1306, 10.97934
579.6127, 11.02788
580.0948, 11.13433
580.5770, 11.29862
581.0591, 11.39756
581.5412, 11.35733
582.0233, 11.23266
582.5054, 11.11425
582.9875, 11.00941
583.4697, 10.96396
583.9518, 11.07406
584.4339, 11.22664
584.9160, 11.29078
585.3981, 11.24404
585.8802, 11.19056
586.3624, 11.22050
586.8445, 11.24941
587.3266, 11.19807
587.8087, 10.89677
588.2908, 10.71132
588.7729, 10.73080
589.2551, 10.87789
589.7372, 11.03994
590.2193, 11.26773
590.7014, 11.40478
591.1835, 11.37911
591.6656, 11.23199
592.1478, 11.19079
592.6299, 11.26995
593.1120, 11.34916
593.5941, 11.34380
594.0762, 11.27830
594.5583, 11.24751
595.0405, 11.25592
595.5226, 11.26258
596.0047, 11.22364
596.4868, 11.16287
596.9689, 11.11209
597.4510, 11.07534
597.9332, 11.05812
598.4153, 11.09497
598.8974, 11.14556
599.3795, 11.15074
599.8616, 11.04820
600.3438, 10.95044
600.8259, 10.85452
601.3080, 10.77873
601.7901, 10.81546
602.2722, 11.06903
602.7543, 11.25642
603.2365, 11.23438
603.7186, 11.00910
604.2007, 10.95700
604.6828, 11.10641
605.1649, 11.29419
605.6470, 11.36888
606.1292, 11.36311
606.6113, 11.46030
607.0934, 11.70826
607.5755, 11.88043
608.0576, 11.62634
608.5398, 11.15755
609.0219, 10.84087
609.5040, 10.85760
609.9861, 10.95962
610.4683, 11.04062
610.9504, 11.10485
611.4325, 11.16243
611.9146, 11.23814
612.3967, 11.28415
612.8788, 11.27644
613.3610, 11.22042
613.8431, 11.17132
614.3252, 11.13333
614.8073, 11.09561
615.2894, 11.03745
615.7715, 10.95400
616.2537, 10.97488
616.7358, 11.12524
617.2179, 11.25943
617.7000, 11.19092
618.1821, 10.97731
618.6642, 10.81099
619.1464, 10.71031
619.6285, 10.70625
620.1106, 10.93711
620.5927, 11.26739
621.0748, 11.46336
621.5569, 11.29745
622.0391, 11.11992
622.5212, 11.11113
623.0033, 11.21595
623.4854, 11.26427
623.9675, 11.17156
624.4496, 11.07293
624.9318, 10.98184
625.4139, 10.90031
625.8960, 10.96366
626.3781, 11.25656
626.8602, 11.49757
627.3423, 11.46098
627.8245, 11.15808
628.3066, 10.99987
628.7887, 11.00987
629.2708, 11.07725
629.7529, 11.10005
630.2350, 11.09127
630.7172, 11.08225
631.1993, 11.08245
631.6814, 11.07555
632.1635, 11.01948
632.6456, 10.95369
633.1277, 10.94011
633.6099, 11.09452
634.0920, 11.20240
634.5741, 11.11840
635.0562, 10.92022
635.5383, 10.91418
636.0204, 11.30506
636.5026, 11.60139
636.9847, 11.62471
637.4668, 11.39536
637.9489, 11.23113
638.4310, 11.12958
638.9131, 11.09825
639.3953, 11.18823
639.8774, 11.36207
640.3595, 11.43864
640.8416, 11.40660
641.3237, 11.33723
641.8058, 11.28745
642.2880, 11.24603
642.7701, 11.18601
643.2522, 11.06936
643.7343, 11.02043
644.2164, 11.18403
644.6985, 11.42600
645.1807, 11.56633
645.6628, 11.44656
646.1449, 11.37133
646.6270, 11.40650
647.1091, 11.50745
647.5912, 11.56226
648.0734, 11.56486
648.5555, 11.53788
649.0376, 11.47834
649.5197, 11.39627
650.0018, 11.34461
650.4839, 11.32237
650.9661, 11.28802
651.4482, 11.17132
651.9303, 11.03963
652.4124, 11.04077
652.8945, 11.17722
653.3766, 11.28407
653.8588, 11.20689
654.3409, 11.08072
654.8230, 11.01220
655.3051, 11.01731
655.7872, 11.08926
656.2693, 11.36184
656.7515, 11.62391
657.2336, 11.65374
657.7158, 11.26058
658.1979, 11.06309
658.6800, 11.16809
659.1621, 11.42031
659.6442, 11.56153
660.1263, 11.59075
660.6085, 11.56329
661.0906, 11.47750
661.5727, 11.36589
662.0548, 11.26192
662.5369, 11.17532
663.0190, 11.14321
663.5012, 11.26330
663.9833, 11.38479
664.4654, 11.35152
664.9475, 11.18709
665.4296, 11.09755
665.9117, 11.25951
666.3939, 11.41955
666.8760, 11.42400
667.3581, 11.23290
667.8402, 11.16221
668.3223, 11.26834
668.8044, 11.40506
669.2866, 11.45011
669.7687, 11.39756
670.2508, 11.43033
670.7329, 11.58209
671.2150, 11.71179
671.6971, 11.61264
672.1793, 11.36711
672.6614, 11.18678
673.1435, 11.11790
673.6256, 11.12820
674.1077, 11.24709
674.5898, 11.41418
675.0720, 11.53446
675.5541, 11.56995
676.0362, 11.56609
676.5183, 11.51554
677.0004, 11.43420
677.4825, 11.36093
677.9647, 11.28248
678.4468, 11.23940
678.9289, 11.24373
679.4110, 11.29235
679.8931, 11.39438
680.3752, 11.55527
680.8574, 11.67152
681.3395, 11.65770
681.8216, 11.56486
682.3037, 11.49235
682.7858, 11.44039
683.2679, 11.40274
683.7501, 11.40544
684.2322, 11.39984
684.7143, 11.32241
685.1964, 11.14419
685.6785, 11.03666
686.1606, 11.15112
686.6428, 11.27823
687.1249, 11.24813
687.6070, 10.87894
688.0891, 10.80188
688.5712, 11.13603
689.0533, 11.57136
689.5355, 11.70810
690.0176, 11.56109
690.4997, 11.46251
690.9818, 11.49339
691.4639, 11.53304
691.9460, 11.36514
692.4282, 11.08398
692.9103, 10.89999
693.3924, 10.93551
693.8745, 11.03956
694.3566, 11.17292
694.8387, 11.30876
695.3209, 11.38411
695.8030, 11.24226
696.2851, 11.20549
696.7672, 11.41889
697.2493, 11.80875
697.7314, 11.97232
698.2136, 11.85798
698.6957, 11.68316
699.1778, 11.51064
699.6599, 11.35526
700.1420, 11.31287
700.6241, 11.37707
701.1063, 11.42896
701.5884, 11.33798
702.0705, 11.21269
702.5526, 11.21352
703.0347, 11.35078
703.5168, 11.44652
703.9990, 11.34573
704.4811, 11.21857
704.9632, 11.18573
705.4453, 11.29480
705.9274, 11.40851
706.4095, 11.58047
706.8917, 11.69527
707.3738, 11.61858
707.8560, 11.32187
708.3381, 11.11111
708.8202, 11.00986
709.3023, 10.99394
709.7844, 11.07811
710.2665, 11.22397
710.7487, 11.32242
711.2308, 11.33402
711.7129, 11.32110
712.1950, 11.33375
712.6771, 11.35393
713.1592, 11.35428
713.6414, 11.28935
714.1235, 11.24669
714.6056, 11.26335
715.0877, 11.31195
715.5698, 11.33054
716.0519, 11.28320
716.5341, 11.31403
717.0162, 11.51277
717.4983, 11.77191
717.9804, 11.70873
718.4625, 11.35027
718.9446, 11.08633
719.4268, 11.19657
719.9089, 11.44747
720.3910, 11.56078
720.8731, 11.55020
721.3552, 11.47865
721.8373, 11.23128
722.3195, 11.06025
722.8016, 11.18518
723.2837, 11.61477
723.7658, 11.81601
724.2479, 11.61613
724.7300, 11.39481
725.2122, 11.34087
725.6943, 11.45776
726.1764, 11.46740
726.6585, 11.35324
727.1406, 11.23710
727.6227, 11.23773
728.1049, 11.30335
728.5870, 11.30489
729.0691, 11.23081
729.5512, 11.15491
730.0333, 11.06446
730.5154, 11.03523
730.9976, 11.18234
731.4797, 11.64280
731.9618, 11.90955
732.4439, 11.73880
732.9260, 11.45070
733.4081, 11.27545
733.8903, 11.23676
734.3724, 11.24443
734.8545, 11.30710
735.3366, 11.38484
735.8187, 11.45299
736.3008, 11.49827
736.7830, 11.43441
737.2651, 11.20478
737.7472, 10.99099
738.2293, 11.01112
738.7114, 11.15520
739.1935, 11.25892
739.6757, 11.19888
740.1578, 11.18329
740.6399, 11.33675
741.1220, 11.55054
741.6041, 11.63324
742.0862, 11.51172
742.5684, 11.42179
743.0505, 11.40841
743.5326, 11.43929
744.0147, 11.45850
744.4968, 11.46333
744.9789, 11.41220
745.4611, 11.23929
745.9432, 11.06473
746.4253, 11.07045
746.9074, 11.20174
747.3895, 11.31751
747.8716, 11.33902
748.3538, 11.34856
748.8359, 11.37934
749.3180, 11.42913
749.8001, 11.47971
750.2822, 11.52926
750.7643, 11.58440
751.2465, 11.66241
751.7286, 11.74608
752.2107, 11.74038
752.6928, 11.64434
753.1749, 11.52177
753.6570, 11.36512
754.1392, 11.22506
754.6213, 11.21717
755.1034, 11.31809
755.5855, 11.39420
756.0676, 11.32897
756.5498, 11.25542
757.0319, 11.25340
757.5140, 11.32965
757.9962, 11.41330
758.4783, 11.54865
758.9604, 11.61866
759.4425, 11.52729
759.9246, 11.28312
760.4067, 11.24947
760.8889, 11.44834
761.3710, 11.65923
761.8531, 11.69655
762.3352, 11.63961
762.8173, 11.64895
763.2994, 11.73017
763.7816, 11.78736
764.2637, 11.69630
764.7458, 11.60519
765.2279, 11.65859
765.7100, 11.93010
766.1921, 12.03298
766.6743, 11.84538
767.1564, 11.61332
767.6385, 11.49359
768.1206, 11.49886
768.6027, 11.47938
769.0848, 11.42628
769.5670, 11.39735
770.0491, 11.48266
770.5312, 11.62088
771.0133, 11.67696
771.4954, 11.62757
771.9775, 11.58310
772.4597, 11.63864
772.9418, 11.71378
773.4239, 11.73693
773.9060, 11.66816
774.3881, 11.62514
774.8702, 11.64072
775.3524, 11.65085
775.8345, 11.57899
776.3166, 11.41067
776.7987, 11.36174
777.2808, 11.46611
777.7629, 11.58545
778.2451, 11.53299
778.7272, 11.39435
779.2093, 11.34442
779.6914, 11.42984
780.1735, 11.54625
780.6556, 11.66838
781.1378, 11.77039
781.6199, 11.82636
782.1020, 11.81540
782.5841, 11.77964
783.0662, 11.70414
783.5483, 11.62007
784.0305, 11.55471
784.5126, 11.50682
784.9947, 11.51599
785.4768, 11.60179
785.9589, 11.67589
786.4410, 11.54572
786.9232, 11.35190
787.4053, 11.39581
787.8874, 11.89126
788.3695, 12.23972
788.8516, 11.98121
789.3337, 11.50442
789.8159, 11.25086
790.2980, 11.36821
790.7801, 11.52246
791.2622, 11.75078
791.7443, 11.95282
792.2264, 11.96610
792.7086, 11.80255
793.1907, 11.63893
793.6728, 11.47986
794.1549, 11.42021
794.6370, 11.70184
795.1191, 12.11630
795.6013, 12.31182
796.0834, 12.08052
796.5655, 11.84683
797.0476, 11.77138
797.5297, 11.76958
798.0118, 11.73538
798.4940, 11.65114
798.9761, 11.56975
799.4582, 11.49231
799.9403, 11.42308
800.4224, 11.35015
800.9045, 11.28325
801.3867, 11.29771
801.8688, 11.43571
802.3509, 11.55584
802.8330, 11.43256
803.3151, 11.23351
803.7972, 11.20220
804.2794, 11.54735
804.7615, 11.81935
805.2436, 11.89622
805.7258, 11.87152
806.2079, 11.82923
806.6900, 11.75635
807.1721, 11.72540
807.6542, 11.75822
808.1364, 11.79559
808.6185, 11.73090
809.1006, 11.60517
809.5827, 11.55398
810.0648, 11.63475
810.5469, 11.70190
811.0291, 11.62460
811.5112, 11.48349
811.9933, 11.36948
812.4754, 11.26261
812.9575, 11.25255
813.4396, 11.39471
813.9218, 11.58153
814.4039, 11.68568
814.8860, 11.70213
815.3681, 11.74435
815.8502, 11.83818
816.3323, 11.90255
816.8145, 11.78973
817.2966, 11.59430
817.7787, 11.48453
818.2608, 11.51084
818.7429, 11.58143
819.2250, 11.69926
819.7072, 11.81382
820.1893, 11.87397
820.6714, 11.87540
821.1535, 11.82728
821.6356, 11.71550
822.1177, 11.57880
822.5999, 11.41742
823.0820, 11.25331
823.5641, 11.27169
824.0462, 11.51487
824.5283, 11.75905
825.0104, 11.73248
825.4926, 11.62187
825.9747, 11.67270
826.4568, 12.01785
826.9389, 12.22248
827.4210, 12.03901
827.9031, 11.79825
828.3853, 11.74329
828.8674, 11.95149
829.3495, 11.93579
829.8316, 11.64516
830.3137, 11.34204
830.7958, 11.30584
831.2780, 11.44229
831.7601, 11.55614
832.2422, 11.62491
832.7243, 11.69746
833.2064, 11.86352
833.6885, 12.00261
834.1707, 12.00657
834.6528, 11.81833
835.1349, 11.67283
835.6170, 11.53857
836.0991, 11.50052
836.5812, 11.69074
837.0634, 12.08051
837.5455, 12.19607
838.0276, 12.03266
838.5097, 11.82917
838.9918, 11.78393
839.4739, 11.78494
839.9561, 11.68662
840.4382, 11.48158
840.9203, 11.34538
841.4024, 11.39129
841.8845, 11.46688
842.3666, 11.50164
842.8488, 11.49684
843.3309, 11.51215
843.8130, 11.54263
844.2951, 11.62166
844.7772, 11.86259
845.2593, 12.13782
845.7415, 12.06623
846.2236, 11.71766
846.7057, 11.46856
847.1878, 11.65981
847.6699, 11.88814
848.1520, 11.88683
848.6342, 11.68667
849.1163, 11.63898
849.5984, 11.85653
850.0805, 12.01795
850.5626, 12.01284
851.0447, 11.87917
851.5269, 11.68965
852.0090, 11.46109
852.4911, 11.33500
852.9732, 11.47927
853.4553, 11.66257
853.9374, 11.62948
854.4196, 11.47041
854.9017, 11.40857
855.3839, 11.62017
855.8660, 11.79915
856.3481, 11.87020
856.8302, 11.88064
857.3123, 11.94255
857.7944, 12.06248
858.2766, 12.16049
858.7587, 12.23111
859.2408, 12.24097
859.7229, 12.09741
860.2050, 11.86275
860.6871, 11.65951
861.1693, 11.47154
861.6514, 11.41292
862.1335, 11.68157
862.6156, 12.03574
863.0977, 12.13052
863.5798, 11.82169
864.0620, 11.69042
864.5441, 11.83362
865.0262, 12.04175
865.5083, 12.03225
865.9904, 11.86840
866.4725, 11.74440
866.9547, 11.69490
867.4368, 11.67742
867.9189, 11.67121
868.4010, 11.67639
868.8831, 11.69197
869.3652, 11.71512
869.8474, 11.77028
870.3295, 11.91625
870.8116, 11.99940
871.2937, 11.84034
871.7758, 11.47121
872.2579, 11.28062
872.7401, 11.27862
873.2222, 11.33845
873.7043, 11.35957
874.1864, 11.39203
874.6685, 11.50482
875.1506, 11.70462
875.6328, 11.86231
876.1149, 11.95633
876.5970, 11.98498
877.0791, 11.92122
877.5612, 11.77959
878.0433, 11.71771
878.5255, 11.73839
879.0076, 11.76736
879.4897, 11.74656
879.9718, 11.71881
880.4539, 11.78576
880.9360, 11.90555
881.4182, 11.93338
881.9003, 11.68465
882.3824, 11.47160
882.8645, 11.42257
883.3466, 11.48446
883.8287, 11.51542
884.3109, 11.49622
884.7930, 11.57543
885.2751, 11.85133
885.7572, 12.13448
886.2393, 12.00478
886.7214, 11.63425
887.2036, 11.45625
887.6857, 11.74123
888.1678, 12.04242
888.6499, 12.20930
889.1320, 12.25809
889.6141, 12.20511
890.0963, 11.99974
890.5784, 11.83892
891.0605, 11.73860
891.5426, 11.67366
892.0247, 11.62210
892.5068, 11.57942
892.9890, 11.52370
893.4711, 11.44841
893.9532, 11.40153
894.4353, 11.43628
894.9174, 11.49956
895.3995, 11.53985
895.8817, 11.53257
896.3638, 11.61668
896.8459, 11.86508
897.3280, 12.05078
897.8101, 11.97443
898.2922, 11.69896
898.7744, 11.58957
899.2565, 11.63280
899.7386, 11.68453
900.2207, 11.62406
900.7028, 11.56074
901.1849, 11.58159
901.6671, 11.67895
902.1492, 11.78186
902.6313, 11.95095
903.1134, 11.99502
903.5955, 11.80545
904.0776, 11.49972
904.5598, 11.43696
905.0419, 11.58568
905.5240, 11.68456
906.0062, 11.59256
906.4883, 11.48584
906.9704, 11.52952
907.4525, 11.66340
907.9346, 11.79114
908.4167, 11.94633
908.8989, 12.00206
909.3810, 11.89695
909.8631, 11.75367
910.3452, 11.74457
910.8273, 11.85793
911.3094, 11.91097
911.7916, 11.87633
912.2737, 11.82479
912.7558, 11.81784
913.2379, 11.83155
913.7200, 11.83888
914.2021, 11.83253
914.6843, 11.83951
915.1664, 11.87737
915.6485, 11.91215
916.1306, 11.92105
916.6127, 11.90677
917.0948, 11.94155
917.5770, 12.02475
918.0591, 12.03594
918.5412, 11.78824
919.0233, 11.51023
919.5054, 11.45541
919.9875, 11.58933
920.4697, 11.73963
920.9518, 11.90190
921.4339, 12.02430
921.9160, 12.11860
922.3981, 12.15460
922.8802, 11.67587
923.3624, 12.04687
923.8445, 12.25000
924.3266, 12.29429
924.8087, 11.70397
925.2908, 11.93311
925.7729, 11.83385
926.2551, 11.72112
926.7372, 12.06560
927.2193, 11.56758
927.7014, 11.90481
928.1835, 11.90863
928.6656, 12.06503
929.1478, 11.89101
929.6299, 11.81905
930.1120, 12.07762
930.5941, 12.15317
931.0762, 11.94112
931.5583, 12.02089
932.0405, 12.05619
932.5226, 11.82806
933.0047, 11.66437
933.4868, 11.65190
933.9689, 11.70673
934.4510, 11.83675
934.9332, 12.00976
935.4153, 12.01238
935.8974, 11.85580
936.3795, 11.79192
936.8616, 12.05135
937.3438, 12.32289
937.8259, 12.24674
938.3080, 11.95445
938.7901, 11.71064
939.2722, 11.49013
939.7543, 11.48037
940.2365, 11.83083
940.7186, 12.24305
941.2007, 12.24028
941.6828, 11.86527
942.1649, 11.63437
942.6470, 11.62666
943.1292, 11.67407
943.6113, 11.60695
944.0934, 11.52836
944.5755, 11.55613
945.0576, 11.73258
945.5397, 11.85771
946.0219, 11.91786
946.5040, 11.92289
946.9861, 11.85213
947.4682, 11.72766
947.9503, 11.69367
948.4324, 11.74213
948.9146, 11.80745
949.3967, 11.87696
949.8788, 11.92556
950.3609, 11.91242
950.8430, 11.86284
951.3251, 11.85841
951.8073, 11.97867
952.2894, 11.99391
952.7715, 11.82980
953.2536, 11.61073
953.7357, 11.53911
954.2179, 11.59144
954.7000, 11.69104
955.1821, 11.83786
955.6642, 11.94542
956.1464, 11.95871
956.6285, 11.90074
957.1106, 11.75315
957.5927, 11.45064
958.0748, 11.40854
958.5569, 11.73017
959.0391, 12.03444
959.5212, 12.02708
960.0033, 11.81634
960.4854, 11.69954
960.9675, 11.67049
961.4496, 11.69258
961.9318, 11.79769
962.4139, 11.89568
962.8960, 11.92438
963.3781, 11.91238
963.8602, 11.96204
964.3423, 12.12152
964.8245, 12.10901
965.3066, 11.81216
965.7887, 11.46931
966.2708, 11.43943
966.7529, 11.60937
967.2350, 11.77616
967.7172, 11.90800
968.1993, 11.98714
968.6814, 11.98603
969.1635, 11.94554
969.6456, 11.87854
970.1277, 11.77698
970.6099, 11.76611
971.0920, 11.84977
971.5741, 11.96784
972.0562, 12.16182
972.5383, 12.31057
973.0204, 12.18813
973.5026, 11.86617
973.9847, 11.64336
974.4668, 11.70473
974.9489, 11.76654
975.4310, 11.76641
975.9131, 11.73364
976.3953, 11.70583
976.8774, 11.68771
977.3595, 11.78780
977.8416, 12.07278
978.3237, 12.29144
978.8058, 12.10262
979.2880, 11.78497
979.7701, 11.65457
980.2522, 11.84071
980.7343, 11.94602
981.2164, 11.92340
981.6985, 11.88416
982.1807, 11.90660
982.6628, 11.96959
983.1449, 11.98088
983.6270, 11.94386
984.1091, 11.88052
984.5912, 11.74885
985.0734, 11.64972
985.5555, 11.63515
986.0376, 11.69884
986.5197, 11.81832
987.0018, 12.02428
987.4839, 12.18715
987.9661, 12.29321
988.4482, 12.33334
988.9303, 12.23779
989.4124, 12.08345
989.8945, 12.04920
990.3766, 12.19827
990.8588, 12.24844
991.3409, 11.91654
991.8230, 11.60814
992.3051, 11.57388
992.7872, 11.80229
993.2693, 12.01427
993.7515, 12.21388
994.2336, 12.27447
994.7157, 11.97388
995.1978, 11.63435
995.6799, 11.71422
996.1620, 12.03847
996.6442, 12.19855
997.1263, 11.83867
997.6084, 11.66331
998.0905, 11.83474
998.5726, 12.08776
999.0547, 12.02645
999.5369, 11.71815
1000.019, 11.60434
1000.501, 11.74317
1000.983, 11.94102
1001.465, 12.15660
1001.947, 12.29825
1002.430, 12.25196
1002.912, 12.01155
1003.394, 11.87375
1003.876, 11.87104
1004.358, 11.85709
1004.840, 11.75034
1005.322, 11.62736
1005.804, 11.62798
1006.287, 11.73356
1006.769, 11.90904
1007.251, 12.30002
1007.733, 12.51191
1008.215, 12.26458
1008.697, 11.89792
1009.179, 11.71765
1009.661, 11.74481
1010.143, 11.69396
1010.626, 11.54390
1011.108, 11.48940
1011.590, 11.83859
1012.072, 12.24888
1012.554, 12.35365
1013.036, 12.17140
1013.518, 11.99939
1014.000, 11.84933
1014.483, 11.78529
1014.965, 11.86465
1015.447, 11.98841
1015.929, 11.89552
1016.411, 11.66512
1016.893, 11.61216
1017.375, 11.87099
1017.857, 12.11973
1018.339, 12.11723
1018.822, 12.04795
1019.304, 12.09282
1019.786, 12.28439
1020.268, 12.34069
1020.750, 12.24794
1021.232, 12.10684
1021.714, 11.95515
1022.196, 11.80870
1022.679, 11.66086
1023.161, 11.53837
1023.643, 11.52088
1024.125, 11.74973
1024.607, 11.93572
1025.089, 12.02899
1025.571, 12.06417
1026.053, 12.06812
1026.535, 12.04970
1027.018, 12.11560
1027.500, 12.28818
1027.982, 12.36831
1028.464, 12.02861
1028.946, 11.67258
1029.428, 11.67695
1029.910, 12.05463
1030.392, 12.23698
1030.875, 12.17545
1031.357, 12.10081
1031.839, 12.10411
1032.321, 12.12538
1032.803, 12.04869
1033.285, 11.90945
1033.767, 11.77819
1034.249, 11.64373
1034.731, 11.58837
1035.214, 11.70479
1035.696, 11.83641
1036.178, 11.85636
1036.660, 11.76619
1037.142, 11.71788
1037.624, 11.71387
1038.106, 11.77806
1038.588, 12.01862
1039.071, 12.25035
1039.553, 12.31544
1040.035, 12.25440
1040.517, 12.22575
1040.999, 12.26677
1041.481, 12.25766
1041.963, 12.17284
1042.445, 12.05435
1042.927, 11.91472
1043.410, 11.79378
1043.892, 11.78647
1044.374, 11.91668
1044.856, 12.03495
1045.338, 12.12471
1045.820, 12.13999
1046.302, 12.02182
1046.784, 11.81537
1047.266, 11.77458
1047.749, 11.88599
1048.231, 12.00013
1048.713, 12.07237
1049.195, 12.09768
1049.677, 12.04038
1050.159, 11.94764
1050.641, 11.87734
1051.123, 11.80100
1051.606, 11.86234
1052.088, 12.10830
1052.570, 12.32193
1053.052, 12.29879
1053.534, 12.14681
1054.016, 12.03833
1054.498, 11.98153
1054.980, 11.98725
1055.463, 12.15264
1055.945, 12.25975
1056.427, 12.24039
1056.909, 12.15746
1057.391, 12.11873
1057.873, 12.11529
1058.355, 12.03613
1058.837, 11.84707
1059.319, 11.77823
1059.802, 12.24804
1060.284, 12.71270
1060.766, 12.65415
1061.248, 12.10364
1061.730, 11.87378
1062.212, 12.02409
1062.694, 12.19352
1063.176, 12.26386
1063.658, 12.26154
1064.141, 12.17613
1064.623, 12.06011
1065.105, 12.00395
1065.587, 12.05385
1066.069, 12.11506
1066.551, 12.15683
1067.033, 12.23645
1067.515, 12.46484
1067.998, 12.77667
1068.480, 12.77145
1068.962, 12.49592
1069.444, 12.20892
1069.926, 12.00768
1070.408, 11.87925
1070.890, 11.85003
1071.372, 11.88104
1071.854, 11.92550
1072.337, 11.98665
1072.819, 12.02765
1073.301, 12.04443
1073.783, 12.04421
1074.265, 12.00480
1074.747, 11.97248
1075.229, 11.98604
1075.711, 12.04994
1076.193, 12.19117
1076.676, 12.51513
1077.158, 12.63595
1077.640, 12.39195
1078.122, 12.00260
1078.604, 11.80616
1079.086, 11.76444
1079.568, 11.81758
1080.051, 11.98165
1080.533, 12.11384
1081.015, 12.16799
1081.497, 12.17096
1081.979, 12.12036
1082.461, 12.02702
1082.943, 11.95003
1083.425, 11.89028
1083.907, 11.85799
1084.390, 11.84876
1084.872, 11.88112
1085.354, 12.01720
1085.836, 12.17498
1086.318, 12.24361
1086.800, 12.18738
1087.282, 12.19883
1087.764, 12.29284
1088.246, 12.35840
1088.729, 12.22029
1089.211, 12.06899
1089.693, 12.20590
1090.175, 12.53821
1090.657, 12.67647
1091.139, 12.41933
1091.621, 12.21013
1092.103, 12.09460
1092.586, 12.07090
1093.068, 12.22000
1093.550, 12.43935
1094.032, 12.47810
1094.514, 12.30645
1094.996, 12.09956
1095.478, 11.80571
1095.960, 11.65244
1096.443, 11.77118
1096.925, 12.05883
1097.407, 12.24328
1097.889, 12.32509
1098.371, 12.27368
1098.853, 12.02343
1099.335, 11.85175
1099.817, 12.03069
1100.299, 12.32255
1100.781, 12.53471
1101.264, 12.66483
1101.746, 12.68078
1102.228, 12.57481
1102.710, 12.45810
1103.192, 12.36348
1103.674, 12.31522
1104.156, 12.45417
1104.638, 12.62325
1105.121, 12.54686
1105.603, 11.89758
1106.085, 11.60559
1106.567, 11.78012
1107.049, 12.00064
1107.531, 11.84885
1108.013, 11.54305
1108.495, 11.55105
1108.978, 11.80848
1109.460, 12.02444
1109.942, 12.00623
1110.424, 12.06784
1110.906, 12.32885
1111.388, 12.60394
1111.870, 12.61604
1112.352, 12.42700
1112.834, 12.30533
1113.317, 12.27169
1113.799, 12.22939
1114.281, 12.04782
1114.763, 11.92100
1115.245, 11.92494
1115.727, 12.35980
1116.209, 12.62678
1116.691, 12.73493
1117.173, 12.20847
1117.656, 12.50158
1118.138, 12.46617
1118.620, 12.41731
1119.102, 12.82566
1119.584, 12.39150
1120.066, 12.74338
1120.548, 12.82065
1121.030, 12.51459
1121.513, 12.29420
1121.995, 12.37917
1122.477, 12.53153
1122.959, 12.42459
1123.441, 12.21140
1123.923, 12.11929
1124.405, 12.26516
1124.887, 12.29963
1125.370, 12.18097
1125.852, 12.05146
1126.334, 11.94745
1126.816, 11.92233
1127.298, 12.22948
1127.780, 12.69329
1128.262, 12.88969
1128.744, 12.31062
1129.226, 11.99458
1129.709, 12.13365
1130.191, 12.40070
1130.673, 12.55195
1131.155, 12.59304
1131.637, 12.49738
1132.119, 12.29667
1132.601, 12.16852
1133.083, 12.37712
1133.566, 12.44674
1134.048, 12.05475
1134.530, 11.58754
1135.012, 11.65007
1135.494, 12.17594
1135.976, 12.43678
1136.458, 12.37197
1136.940, 12.21263
1137.422, 11.98490
1137.905, 11.84408
1138.387, 11.96449
1138.869, 12.22720
1139.351, 12.33692
1139.833, 12.28851
1140.315, 12.21963
1140.797, 12.14680
1141.279, 12.11374
1141.761, 12.21304
1142.244, 12.32743
1142.726, 12.36562
1143.208, 12.31946
1143.690, 12.15877
1144.172, 11.82805
1144.654, 11.75273
1145.136, 12.13922
1145.618, 12.60580
1146.101, 12.70047
1146.583, 12.58749
1147.065, 12.43894
1147.547, 12.26059
1148.029, 12.19578
1148.511, 12.27792
1148.993, 12.37439
1149.475, 12.45918
1149.958, 12.48117
1150.440, 12.24255
1150.922, 11.91132
1151.404, 11.80667
1151.886, 12.13912
1152.368, 12.38106
1152.850, 12.47651
1153.332, 12.52280
1153.814, 12.56854
1154.297, 12.61513
1154.779, 12.66977
1155.261, 12.72855
1155.743, 12.77861
1156.225, 12.90662
1156.707, 12.87094
1157.189, 12.55181
1157.671, 12.22140
1158.153, 12.11012
1158.636, 12.18202
1159.118, 12.33627
1159.600, 12.54780
1160.082, 12.70914
1160.564, 12.80106
1161.046, 12.78608
1161.528, 12.61791
1162.010, 12.38497
1162.493, 12.14353
1162.975, 11.91528
1163.457, 11.85948
1163.939, 11.97405
1164.421, 12.13488
1164.903, 12.37561
1165.385, 12.52150
1165.867, 12.41729
1166.349, 12.22185
1166.832, 12.21485
1167.314, 12.37735
1167.796, 12.45854
1168.278, 12.43069
1168.760, 12.36420
1169.242, 12.21761
1169.724, 12.13743
1170.206, 12.29098
1170.688, 12.55937
1171.171, 12.62458
1171.653, 12.49092
1172.135, 12.47468
1172.617, 12.65891
1173.099, 12.75908
1173.581, 12.35169
1174.063, 11.92822
1174.545, 11.97307
1175.028, 12.35599
1175.510, 12.40651
1175.992, 12.10650
1176.474, 11.91410
1176.956, 11.95276
1177.438, 12.09994
1177.920, 12.36956
1178.402, 12.59842
1178.885, 12.57219
1179.367, 12.30352
1179.849, 12.23368
1180.331, 12.37908
1180.813, 12.55128
1181.295, 12.70744
1181.777, 12.80959
1182.259, 12.83961
1182.741, 12.78104
1183.224, 12.55706
1183.706, 12.13338
1184.188, 11.96556
1184.670, 12.07744
1185.152, 12.28487
1185.634, 12.58989
1186.116, 12.80167
1186.598, 12.54908
1187.081, 12.13799
1187.563, 12.02081
1188.045, 12.35654
1188.527, 12.47765
1189.009, 12.34723
1189.491, 12.21380
1189.973, 12.19327
1190.455, 12.26358
1190.938, 12.50769
1191.420, 12.78368
1191.902, 12.83938
1192.384, 12.51189
1192.866, 12.33708
1193.348, 12.33390
1193.830, 12.39270
1194.312, 12.48933
1194.794, 12.56788
1195.276, 12.52742
1195.759, 12.41992
1196.241, 12.35129
1196.723, 12.33263
1197.205, 12.37019
1197.687, 12.47435
1198.169, 12.58951
1198.651, 12.73884
1199.133, 12.82462
1199.616, 12.59348
1200.098, 12.20443
1200.580, 12.08245
1201.062, 12.50504
1201.544, 12.65500
1202.026, 12.44365
1202.508, 12.17896
1202.990, 12.11372
1203.473, 12.16497
1203.955, 12.27354
1204.437, 12.40500
1204.919, 12.45777
1205.401, 12.39289
1205.883, 12.30957
1206.365, 12.20601
1206.847, 12.12010
1207.329, 12.06076
1207.812, 12.05891
1208.294, 12.21379
1208.776, 12.47294
1209.258, 12.60065
1209.740, 12.53111
1210.222, 12.43166
1210.704, 12.29392
1211.186, 12.23510
1211.668, 12.50500
1212.151, 12.83254
1212.633, 12.82323
1213.115, 12.52877
1213.597, 12.35362
1214.079, 12.38447
1214.561, 12.36500
1215.043, 12.23909
1215.525, 12.14465
1216.008, 12.29596
1216.490, 12.51732
1216.972, 12.61136
1217.454, 12.57082
1217.936, 12.43548
1218.418, 12.12865
1218.900, 12.03353
1219.382, 12.24083
1219.865, 12.55016
1220.347, 12.83279
1220.829, 13.02936
1221.311, 13.02146
1221.793, 12.83262
1222.275, 12.74731
1222.757, 12.81434
1223.239, 12.81512
1223.721, 12.69192
1224.203, 12.56805
1224.686, 12.60510
1225.168, 12.69213
1225.650, 12.70612
1226.132, 12.64731
1226.614, 12.63938
1227.096, 12.69665
1227.578, 12.74044
1228.061, 12.76271
1228.543, 12.72390
1229.025, 12.48146
1229.507, 12.23479
1229.989, 12.18630
1230.471, 12.33716
1230.953, 12.54086
1231.435, 12.81500
1231.917, 12.99830
1232.400, 13.05537
1232.882, 13.00505
1233.364, 12.73588
1233.846, 12.47193
1234.328, 12.46465
1234.810, 12.66528
1235.292, 12.72170
1235.774, 12.62626
1236.256, 12.55812
1236.739, 12.56450
1237.221, 12.58614
1237.703, 12.63379
1238.185, 12.62276
1238.667, 12.39074
1239.149, 12.03356
1239.631, 12.03035
1240.113, 12.36582
1240.596, 12.63015
1241.078, 12.72146
1241.560, 12.72855
1242.042, 12.67211
1242.524, 12.59231
1243.006, 12.48861
1243.488, 12.39067
1243.970, 12.45347
1244.453, 12.64957
1244.935, 12.74644
1245.417, 12.67832
1245.899, 12.57244
1246.381, 12.44401
1246.863, 12.37102
1247.345, 12.40910
1247.827, 12.51907
1248.309, 12.54926
1248.792, 12.53120
1249.274, 12.63400
1249.756, 12.92871
1250.238, 13.13629
1250.720, 13.10091
1251.202, 12.95422
1251.684, 12.69542
1252.166, 12.41854
1252.648, 12.41604
1253.131, 12.59495
1253.613, 12.67251
1254.095, 12.57356
1254.577, 12.47751
1255.059, 12.43529
1255.541, 12.41180
1256.023, 12.38753
1256.505, 12.38665
1256.988, 12.48987
1257.470, 12.64696
1257.952, 12.75957
1258.434, 12.81345
1258.916, 12.78101
1259.398, 12.58967
1259.880, 12.48107
1260.362, 12.54698
1260.844, 12.71399
1261.327, 12.96945
1261.809, 13.19314
1262.291, 13.15301
1262.773, 12.78053
1263.255, 12.58450
1263.737, 12.63983
1264.219, 12.68614
1264.701, 12.62427
1265.183, 12.56728
1265.666, 12.70319
1266.148, 12.89718
1266.630, 12.97976
1267.112, 12.93057
1267.594, 12.93139
1268.076, 12.98944
1268.558, 13.03602
1269.040, 13.04341
1269.523, 13.06330
1270.005, 13.19036
1270.487, 13.32016
1270.969, 13.37066
1271.451, 13.33762
1271.933, 13.13119
1272.415, 12.75656
1272.897, 12.50277
1273.380, 12.44560
1273.862, 12.48947
1274.344, 12.66636
1274.826, 12.81929
1275.308, 12.83711
1275.790, 12.76158
1276.272, 12.74756
1276.754, 12.77145
1277.236, 12.66005
1277.719, 12.35099
1278.201, 12.17573
1278.683, 12.51396
1279.165, 12.76987
1279.647, 12.65719
1280.129, 12.37683
1280.611, 12.35915
1281.093, 12.52632
1281.576, 12.66793
1282.058, 12.74931
1282.540, 12.85418
1283.022, 13.05627
1283.504, 13.20797
1283.986, 13.28457
1284.468, 13.26556
1284.950, 13.06240
1285.432, 12.76935
1285.915, 12.48906
1286.397, 12.24397
1286.879, 12.27100
1287.361, 12.70115
1287.843, 12.95966
1288.325, 12.88055
1288.807, 12.74315
1289.289, 12.94283
1289.771, 13.19970
1290.254, 13.16204
1290.736, 12.87033
1291.218, 12.77346
1291.700, 12.89260
1292.182, 13.02674
1292.664, 13.15264
1293.146, 13.18351
1293.628, 12.91515
1294.111, 12.65172
1294.593, 12.64053
1295.075, 12.77888
1295.557, 12.90484
1296.039, 13.00714
1296.521, 12.88346
1297.003, 12.51633
1297.485, 12.32726
1297.968, 12.80473
1298.450, 13.21422
1298.932, 13.29175
1299.414, 13.17489
1299.896, 13.02501
1300.378, 12.85919
1300.860, 12.70406
1301.342, 12.57419
1301.824, 12.54126
##END=



