##NAMES=Selenium
##RRUFFID=R050656
##IDEAL CHEMISTRY=Se
##LOCALITY=Poison Creek, Valencia County, New Mexico, USA
##OWNER=RRUFF
##SOURCE=University of Arizona Mineral Museum
##DESCRIPTION=Gray metallic acicular crystals
##STATUS=The identification of this mineral is confirmed by single-crystal X-ray diffraction and chemical analysis.
##URL=rruff.info/R050656
##MEASURED CHEMISTRY=Se
92.02539, 10040.30
92.50751, 9846.776
92.98962, 9827.969
93.47174, 9959.014
93.95386, 10179.24
94.43597, 10357.41
94.91809, 10451.75
95.40021, 10491.07
95.88232, 10531.14
96.36444, 10589.78
96.84656, 10624.44
97.32867, 10631.11
97.81078, 10616.46
98.29290, 10587.09
98.77502, 10537.25
99.25713, 10444.57
99.73925, 10386.97
100.2214, 10372.22
100.7035, 10378.33
101.1856, 10410.04
101.6677, 10459.18
102.1498, 10499.12
102.6320, 10497.53
103.1141, 10438.44
103.5962, 10365.60
104.0783, 10255.02
104.5604, 10138.38
105.0425, 10057.08
105.5247, 10027.22
106.0068, 10017.71
106.4889, 9976.088
106.9710, 9904.934
107.4531, 9811.882
107.9352, 9689.225
108.4173, 9542.083
108.8995, 9396.320
109.3816, 9245.233
109.8637, 9113.129
110.3458, 9027.461
110.8279, 8996.992
111.3100, 8988.938
111.7922, 8961.988
112.2743, 8906.607
112.7564, 8863.716
113.2385, 8855.185
113.7206, 8858.563
114.2027, 8851.089
114.6849, 8820.248
115.1670, 8778.899
115.6491, 8773.667
116.1312, 8839.791
116.6133, 8904.712
117.0954, 8948.820
117.5776, 8984.487
118.0597, 9028.605
118.5418, 9091.319
119.0239, 9172.556
119.5060, 9295.846
119.9881, 9437.548
120.4703, 9631.274
120.9524, 9911.989
121.4345, 10266.96
121.9166, 10645.18
122.3987, 11000.57
122.8808, 11328.24
123.3630, 11653.31
123.8451, 12000.39
124.3272, 12333.22
124.8093, 12615.57
125.2914, 12842.85
125.7735, 13020.08
126.2557, 13107.82
126.7378, 13127.45
127.2199, 13192.68
127.7020, 13376.90
128.1841, 13645.14
128.6662, 13875.71
129.1483, 14008.24
129.6305, 14154.04
130.1126, 14400.20
130.5947, 14741.32
131.0768, 15113.15
131.5589, 15463.21
132.0410, 15787.84
132.5232, 16120.31
133.0053, 16454.99
133.4874, 16808.24
133.9695, 17186.30
134.4516, 17592.33
134.9337, 18026.37
135.4159, 18480.63
135.8980, 18904.30
136.3801, 19467.24
136.8622, 20181.59
137.3443, 21009.07
137.8264, 21919.14
138.3086, 22899.71
138.7907, 23955.76
139.2728, 25080.08
139.7549, 26389.12
140.2370, 27641.46
140.7191, 28982.40
141.2013, 30234.40
141.6834, 31172.30
142.1655, 31696.25
142.6476, 31772.37
143.1297, 31247.12
143.6118, 29963.96
144.0939, 28405.71
144.5761, 26651.73
145.0582, 24741.58
145.5403, 22828.40
146.0224, 20948.64
146.5045, 19167.64
146.9866, 17587.55
147.4688, 16242.20
147.9509, 15081.95
148.4330, 14079.90
148.9151, 13243.39
149.3972, 12513.05
149.8793, 11878.51
150.3615, 11318.11
150.8436, 10817.16
151.3257, 10369.51
151.8078, 9980.101
152.2899, 9673.484
152.7720, 9478.040
153.2542, 9318.393
153.7363, 9173.775
154.2184, 9035.192
154.7005, 8883.863
155.1826, 8698.988
155.6647, 8488.010
156.1469, 8333.029
156.6290, 8275.623
157.1111, 8241.570
157.5932, 8216.299
158.0753, 8199.077
158.5574, 8194.010
159.0396, 8205.655
159.5217, 8235.942
160.0038, 8265.743
160.4859, 8289.826
160.9680, 8318.036
161.4501, 8348.453
161.9323, 8384.714
162.4144, 8437.380
162.8965, 8517.865
163.3786, 8633.839
163.8607, 8753.706
164.3428, 8902.985
164.8250, 9038.664
165.3071, 9114.169
165.7892, 9125.767
166.2713, 9127.896
166.7534, 9186.049
167.2355, 9307.206
167.7177, 9439.366
168.1998, 9575.299
168.6819, 9720.776
169.1640, 9897.002
169.6461, 10120.20
170.1282, 10328.90
170.6104, 10419.66
171.0925, 10407.45
171.5746, 10417.06
172.0567, 10502.06
172.5388, 10646.59
173.0209, 10810.52
173.5031, 11006.49
173.9852, 11191.22
174.4673, 11328.84
174.9494, 11422.50
175.4315, 11503.85
175.9136, 11579.83
176.3958, 11651.95
176.8779, 11766.24
177.3600, 11984.83
177.8421, 12201.55
178.3242, 12341.75
178.8063, 12409.07
179.2885, 12469.05
179.7706, 12603.78
180.2527, 12842.55
180.7348, 13028.32
181.2169, 13118.21
181.6990, 13178.26
182.1812, 13235.47
182.6633, 13296.75
183.1454, 13357.38
183.6275, 13408.67
184.1096, 13438.36
184.5917, 13485.87
185.0738, 13570.85
185.5560, 13657.49
186.0381, 13716.67
186.5202, 13742.57
187.0023, 13754.17
187.4844, 13782.38
187.9665, 13823.96
188.4487, 13892.98
188.9308, 13991.70
189.4129, 14114.46
189.8950, 14271.13
190.3771, 14463.10
190.8592, 14656.33
191.3414, 14777.39
191.8235, 14760.51
192.3056, 14795.75
192.7877, 14933.42
193.2698, 15125.48
193.7519, 15307.94
194.2341, 15457.13
194.7162, 15593.82
195.1983, 15763.39
195.6804, 15968.83
196.1625, 16181.64
196.6446, 16382.17
197.1268, 16584.19
197.6089, 16819.82
198.0910, 17100.89
198.5731, 17420.89
199.0552, 17766.04
199.5373, 18137.50
200.0195, 18527.18
200.5016, 18941.89
200.9837, 19377.44
201.4658, 19804.41
201.9479, 20203.67
202.4300, 20605.59
202.9122, 21035.35
203.3943, 21496.43
203.8764, 21974.50
204.3585, 22441.61
204.8406, 22899.00
205.3227, 23423.44
205.8048, 24045.15
206.2870, 24738.77
206.7691, 25456.84
207.2512, 26195.39
207.7333, 27040.76
208.2154, 28038.40
208.6975, 29162.59
209.1797, 30597.57
209.6618, 32283.12
210.1439, 34371.63
210.6260, 36911.17
211.1081, 39932.32
211.5902, 43540.26
212.0724, 47912.17
212.5545, 53118.70
213.0366, 58845.55
213.5187, 65450.45
214.0008, 72222.88
214.4829, 78928.17
214.9651, 85424.59
215.4472, 91586.30
215.9293, 97170.88
216.4114, 101925.2
216.8935, 106583.3
217.3756, 111250.9
217.8578, 115790.9
218.3399, 120107.3
218.8220, 124172.8
219.3041, 128110.6
219.7862, 132068.1
220.2683, 136028.0
220.7505, 140042.7
221.2326, 143838.1
221.7147, 147858.5
222.1968, 152490.9
222.6789, 157812.3
223.1610, 163565.3
223.6432, 169328.0
224.1253, 174663.1
224.6074, 181110.2
225.0895, 188782.4
225.5716, 197480.6
226.0537, 206870.6
226.5358, 216913.6
227.0180, 227969.8
227.5001, 240597.5
227.9822, 254946.5
228.4643, 270640.7
228.9464, 286436.6
229.4285, 304130.7
229.9107, 326182.3
230.3928, 353203.2
230.8749, 382321.2
231.3570, 410922.2
231.8391, 439534.6
232.3212, 462674.8
232.8034, 481030.6
233.2855, 492736.3
233.7676, 494593.4
234.2497, 485522.3
234.7318, 469643.6
235.2139, 449263.5
235.6961, 424984.8
236.1782, 400247.0
236.6603, 377437.6
237.1424, 354246.9
237.6245, 326387.1
238.1066, 292274.4
238.5888, 256455.0
239.0709, 221035.3
239.5530, 186627.4
240.0351, 155994.6
240.5172, 130292.1
240.9993, 108907.9
241.4815, 91097.30
241.9636, 77103.41
242.4457, 65879.14
242.9278, 57277.91
243.4099, 50672.32
243.8920, 45115.31
244.3742, 40462.57
244.8563, 36573.89
245.3384, 33161.50
245.8205, 30277.31
246.3026, 27796.21
246.7847, 25702.65
247.2668, 23919.12
247.7490, 22357.22
248.2311, 21005.96
248.7132, 19840.25
249.1953, 18774.32
249.6774, 17805.26
250.1595, 16961.50
250.6417, 16269.45
251.1238, 15687.50
251.6059, 15172.44
252.0880, 14707.96
252.5701, 14294.26
253.0522, 13935.25
253.5344, 13668.00
254.0165, 13386.90
254.4986, 13035.53
254.9807, 12664.95
255.4628, 12323.23
255.9449, 12030.45
256.4271, 11786.05
256.9092, 11597.12
257.3913, 11511.58
257.8734, 11390.94
258.3555, 11171.73
258.8376, 10928.16
259.3198, 10730.96
259.8019, 10608.71
260.2840, 10531.07
260.7661, 10432.47
261.2482, 10286.29
261.7303, 10171.60
262.2125, 10104.72
262.6946, 10061.60
263.1767, 10025.26
263.6588, 9989.401
264.1409, 9954.870
264.6230, 9922.923
265.1052, 9894.084
265.5873, 9866.979
266.0694, 9829.674
266.5515, 9801.127
267.0336, 9802.182
267.5157, 9834.456
267.9979, 9875.894
268.4800, 9891.742
268.9621, 9861.471
269.4442, 9850.341
269.9263, 9876.588
270.4084, 9904.821
270.8906, 9907.123
271.3727, 9882.739
271.8548, 9857.372
272.3369, 9870.632
272.8190, 9961.924
273.3011, 9953.366
273.7833, 9793.679
274.2654, 9598.598
274.7475, 9429.055
275.2296, 9288.858
275.7117, 9150.739
276.1938, 8987.128
276.6760, 8792.950
277.1581, 8602.113
277.6402, 8424.103
278.1223, 8239.618
278.6044, 8022.421
279.0865, 7785.500
279.5686, 7573.857
280.0508, 7428.350
280.5329, 7351.355
281.0150, 7236.010
281.4971, 7056.813
281.9792, 6873.131
282.4613, 6690.317
282.9435, 6519.459
283.4256, 6385.438
283.9077, 6309.313
284.3898, 6281.326
284.8719, 6217.942
285.3540, 6095.012
285.8362, 5969.641
286.3183, 5863.417
286.8004, 5764.340
287.2825, 5645.005
287.7646, 5488.073
288.2467, 5310.565
288.7289, 5171.030
289.2110, 5094.205
289.6931, 5021.657
290.1752, 4947.452
290.6573, 4872.195
291.1394, 4796.448
291.6216, 4720.197
292.1037, 4645.620
292.5858, 4575.894
293.0679, 4508.216
293.5500, 4451.644
294.0321, 4428.639
294.5143, 4407.944
294.9964, 4344.789
295.4785, 4227.176
295.9606, 4098.454
296.4427, 4022.910
296.9248, 4027.111
297.4070, 4005.400
297.8891, 3934.281
298.3712, 3847.730
298.8533, 3778.009
299.3354, 3729.409
299.8175, 3679.948
300.2997, 3603.387
300.7818, 3492.698
301.2639, 3412.057
301.7460, 3383.408
302.2281, 3367.402
302.7102, 3331.848
303.1924, 3279.097
303.6745, 3240.087
304.1566, 3242.997
304.6387, 3285.114
305.1208, 3303.397
305.6029, 3279.575
306.0851, 3252.258
306.5672, 3246.799
307.0493, 3255.379
307.5314, 3249.778
308.0135, 3211.277
308.4956, 3148.567
308.9778, 3100.870
309.4599, 3079.819
309.9420, 3056.345
310.4241, 3015.989
310.9062, 2967.181
311.3883, 2928.177
311.8705, 2907.870
312.3526, 2897.090
312.8347, 2875.205
313.3168, 2837.449
313.7989, 2801.802
314.2810, 2765.578
314.7632, 2735.577
315.2453, 2724.332
315.7274, 2736.056
316.2095, 2755.313
316.6916, 2761.671
317.1737, 2752.868
317.6559, 2739.991
318.1380, 2717.139
318.6201, 2694.560
319.1022, 2686.243
319.5843, 2692.764
320.0664, 2695.433
320.5485, 2673.814
321.0306, 2625.506
321.5128, 2593.569
321.9949, 2584.687
322.4770, 2585.713
322.9591, 2592.810
323.4412, 2603.709
323.9233, 2612.290
324.4055, 2615.642
324.8876, 2612.707
325.3697, 2598.175
325.8518, 2554.703
326.3339, 2520.051
326.8160, 2515.882
327.2982, 2530.761
327.7803, 2537.448
328.2624, 2521.361
328.7445, 2494.596
329.2266, 2492.013
329.7087, 2534.743
330.1909, 2560.308
330.6730, 2538.450
331.1551, 2499.588
331.6372, 2487.006
332.1193, 2513.608
332.6014, 2553.840
333.0836, 2571.860
333.5657, 2560.833
334.0478, 2543.960
334.5299, 2521.850
335.0120, 2494.300
335.4941, 2456.880
335.9763, 2411.001
336.4584, 2367.472
336.9405, 2336.330
337.4226, 2318.534
337.9047, 2307.608
338.3868, 2309.905
338.8690, 2312.169
339.3511, 2303.073
339.8332, 2287.270
340.3153, 2283.307
340.7974, 2307.094
341.2795, 2349.403
341.7617, 2348.021
342.2438, 2247.576
342.7259, 2175.383
343.2080, 2181.232
343.6901, 2227.839
344.1722, 2259.653
344.6544, 2253.642
345.1365, 2224.426
345.6186, 2202.025
346.1007, 2193.713
346.5828, 2181.446
347.0649, 2151.955
347.5471, 2126.268
348.0292, 2127.956
348.5113, 2159.128
348.9934, 2198.588
349.4755, 2220.781
349.9576, 2221.379
350.4398, 2221.318
350.9219, 2218.587
351.4040, 2217.063
351.8861, 2227.558
352.3682, 2242.701
352.8503, 2239.846
353.3325, 2199.154
353.8146, 2124.075
354.2967, 2068.142
354.7788, 2025.556
355.2609, 2008.511
355.7430, 2042.091
356.2252, 2097.140
356.7073, 2132.609
357.1894, 2128.754
357.6715, 2099.632
358.1536, 2080.854
358.6357, 2086.082
359.1179, 2080.764
359.5999, 2060.272
360.0821, 2031.884
360.5642, 1995.447
361.0463, 1953.849
361.5284, 1919.959
362.0105, 1911.345
362.4926, 1935.189
362.9748, 1957.090
363.4569, 1986.281
363.9390, 2005.216
364.4211, 2007.316
364.9032, 1992.536
365.3853, 1959.282
365.8675, 1900.008
366.3496, 1821.406
366.8317, 1790.013
367.3138, 1855.130
367.7959, 1906.750
368.2780, 1912.152
368.7602, 1894.218
369.2423, 1888.250
369.7244, 1910.793
370.2065, 1933.287
370.6886, 1884.901
371.1707, 1711.894
371.6529, 1606.157
372.1350, 1646.956
372.6171, 1721.123
373.0992, 1756.428
373.5813, 1743.005
374.0634, 1717.363
374.5456, 1725.819
375.0277, 1771.844
375.5098, 1774.024
375.9919, 1684.299
376.4740, 1600.197
376.9561, 1567.876
377.4383, 1575.459
377.9204, 1593.844
378.4025, 1610.188
378.8846, 1623.785
379.3667, 1633.018
379.8488, 1638.241
380.3310, 1637.965
380.8131, 1632.420
381.2952, 1620.903
381.7773, 1599.654
382.2594, 1565.666
382.7415, 1531.377
383.2237, 1508.285
383.7058, 1496.315
384.1879, 1497.936
384.6700, 1524.217
385.1521, 1553.903
385.6342, 1569.208
386.1164, 1570.348
386.5985, 1564.405
387.0806, 1549.739
387.5627, 1531.304
388.0448, 1520.445
388.5269, 1518.110
389.0091, 1523.491
389.4912, 1548.187
389.9733, 1580.169
390.4554, 1590.198
390.9375, 1554.060
391.4196, 1510.659
391.9018, 1499.318
392.3839, 1516.413
392.8660, 1527.950
393.3481, 1514.910
393.8302, 1491.853
394.3123, 1490.295
394.7945, 1519.542
395.2766, 1538.434
395.7587, 1523.338
396.2408, 1489.252
396.7229, 1457.185
397.2050, 1430.233
397.6872, 1417.579
398.1693, 1432.533
398.6514, 1478.011
399.1335, 1522.866
399.6156, 1572.415
400.0977, 1616.035
400.5798, 1648.970
401.0620, 1669.957
401.5441, 1674.405
402.0262, 1656.892
402.5083, 1622.626
402.9904, 1598.248
403.4725, 1579.166
403.9547, 1573.738
404.4368, 1588.085
404.9189, 1615.268
405.4010, 1654.201
405.8831, 1702.936
406.3652, 1742.046
406.8474, 1737.961
407.3295, 1659.581
407.8116, 1630.526
408.2937, 1688.839
408.7758, 1756.536
409.2579, 1788.197
409.7401, 1788.869
410.2222, 1790.203
410.7043, 1816.787
411.1864, 1864.402
411.6685, 1896.572
412.1506, 1900.992
412.6328, 1903.854
413.1149, 1901.118
413.5970, 1902.320
414.0791, 1919.566
414.5612, 1956.537
415.0433, 2003.154
415.5255, 2043.762
416.0076, 2076.287
416.4897, 2110.646
416.9718, 2128.549
417.4539, 2164.828
417.9360, 2252.316
418.4182, 2377.527
418.9003, 2491.732
419.3824, 2555.664
419.8645, 2581.203
420.3466, 2621.102
420.8287, 2673.828
421.3109, 2744.644
421.7930, 2853.047
422.2751, 2971.734
422.7572, 3066.261
423.2393, 3123.408
423.7214, 3172.756
424.2036, 3240.306
424.6857, 3326.138
425.1678, 3438.564
425.6499, 3599.236
426.1320, 3762.048
426.6141, 3877.466
427.0963, 3951.959
427.5784, 4038.445
428.0605, 4157.346
428.5426, 4302.598
429.0247, 4466.344
429.5068, 4649.614
429.9890, 4845.798
430.4711, 5057.954
430.9532, 5277.886
431.4353, 5476.248
431.9174, 5622.636
432.3995, 5792.948
432.8817, 6051.302
433.3638, 6357.518
433.8459, 6626.552
434.3280, 6829.092
434.8101, 6999.002
435.2922, 7182.445
435.7744, 7385.973
436.2565, 7573.017
436.7386, 7757.933
437.2207, 7913.575
437.7028, 8017.672
438.1849, 8073.030
438.6671, 8092.945
439.1492, 8082.833
439.6313, 8048.505
440.1134, 8024.252
440.5955, 8041.867
441.0776, 8029.858
441.5598, 7957.648
442.0418, 7863.818
442.5240, 7783.417
443.0061, 7727.673
443.4882, 7692.478
443.9703, 7675.432
444.4524, 7680.987
444.9345, 7683.822
445.4167, 7671.463
445.8988, 7668.847
446.3809, 7689.215
446.8630, 7725.612
447.3451, 7765.245
447.8272, 7801.484
448.3094, 7834.199
448.7915, 7864.632
449.2736, 7896.496
449.7557, 7915.042
450.2378, 7890.829
450.7199, 7869.245
451.2021, 7890.306
451.6842, 7956.010
452.1663, 8024.487
452.6484, 8059.684
453.1305, 8069.207
453.6126, 8087.145
454.0948, 8120.304
454.5769, 8150.409
455.0590, 8169.872
455.5411, 8177.250
456.0232, 8166.848
456.5053, 8136.339
456.9875, 8089.308
457.4696, 8021.414
457.9517, 7937.316
458.4338, 7861.517
458.9159, 7809.967
459.3980, 7754.386
459.8802, 7648.645
460.3623, 7493.116
460.8444, 7317.406
461.3265, 7103.272
461.8086, 6887.537
462.2907, 6715.019
462.7729, 6579.778
463.2550, 6430.412
463.7371, 6228.439
464.2192, 5984.531
464.7013, 5753.224
465.1834, 5519.180
465.6656, 5316.014
466.1477, 5179.611
466.6298, 5059.092
467.1119, 4896.496
467.5940, 4679.635
468.0761, 4442.415
468.5583, 4221.801
469.0404, 4013.850
469.5225, 3837.700
470.0046, 3717.167
470.4867, 3604.357
470.9688, 3492.647
471.4510, 3377.731
471.9331, 3251.615
472.4152, 3108.376
472.8973, 2965.373
473.3794, 2861.486
473.8615, 2809.154
474.3437, 2743.354
474.8258, 2639.656
475.3079, 2529.186
475.7900, 2423.210
476.2721, 2326.045
476.7542, 2247.896
477.2364, 2209.177
477.7185, 2191.665
478.2006, 2151.720
478.6827, 2086.261
479.1648, 2016.117
479.6469, 1943.263
480.1291, 1876.928
480.6112, 1835.720
481.0933, 1831.220
481.5754, 1821.744
482.0575, 1780.431
482.5396, 1721.178
483.0217, 1667.903
483.5038, 1625.176
483.9860, 1591.157
484.4681, 1565.357
484.9502, 1548.293
485.4323, 1530.092
485.9144, 1511.172
486.3965, 1490.800
486.8787, 1466.127
487.3608, 1440.128
487.8429, 1421.153
488.3250, 1412.440
488.8071, 1402.699
489.2892, 1368.174
489.7714, 1280.212
490.2535, 1239.056
490.7356, 1290.082
491.2177, 1337.734
491.6998, 1324.696
492.1819, 1267.345
492.6641, 1214.444
493.1462, 1196.613
493.6283, 1204.462
494.1104, 1214.987
494.5925, 1237.395
495.0746, 1237.310
495.5568, 1171.572
496.0389, 1104.973
496.5210, 1088.419
497.0031, 1123.019
497.4852, 1165.493
497.9673, 1193.127
498.4495, 1204.985
498.9316, 1193.252
499.4137, 1152.488
499.8958, 1111.898
500.3779, 1083.003
500.8600, 1067.590
501.3422, 1071.549
501.8243, 1111.051
502.3064, 1135.108
502.7885, 1094.844
503.2706, 1027.939
503.7527, 1007.767
504.2349, 1050.724
504.7170, 1110.880
505.1991, 1145.458
505.6812, 1153.188
506.1633, 1153.378
506.6454, 1154.428
507.1276, 1139.796
507.6097, 1083.578
508.0918, 1013.381
508.5739, 972.7764
509.0560, 977.5377
509.5381, 1008.698
510.0203, 1043.456
510.5024, 1099.188
510.9845, 1098.693
511.4666, 959.8516
511.9487, 846.1912
512.4308, 837.6346
512.9130, 899.7328
513.3951, 960.2591
513.8772, 984.4012
514.3593, 984.1548
514.8414, 977.6443
515.3235, 963.3345
515.8057, 954.8226
516.2878, 961.2903
516.7699, 968.3487
517.2520, 968.9567
517.7341, 961.6170
518.2162, 937.3842
518.6984, 862.3121
519.1805, 785.3867
519.6626, 786.9170
520.1447, 860.9825
520.6268, 911.1961
521.1089, 883.6534
521.5911, 814.2560
522.0732, 786.5754
522.5553, 810.8109
523.0374, 836.5837
523.5195, 859.6721
524.0016, 878.0299
524.4838, 890.0486
524.9659, 895.4271
525.4480, 893.4230
525.9301, 882.6284
526.4122, 865.2020
526.8943, 852.3484
527.3765, 853.6393
527.8586, 845.5496
528.3407, 812.8736
528.8228, 779.6616
529.3049, 769.3008
529.7870, 781.5815
530.2692, 795.0724
530.7513, 788.1597
531.2334, 765.8950
531.7155, 761.3111
532.1976, 785.4254
532.6797, 801.4935
533.1619, 776.2249
533.6440, 743.7780
534.1261, 746.9365
534.6082, 797.7892
535.0903, 836.7314
535.5724, 805.8352
536.0546, 739.3115
536.5367, 716.0423
537.0188, 748.3698
537.5009, 784.3401
537.9830, 782.3203
538.4651, 751.7789
538.9473, 746.6741
539.4294, 792.6289
539.9115, 829.3144
540.3936, 835.6991
540.8757, 825.7235
541.3578, 813.2145
541.8400, 802.4107
542.3221, 796.4559
542.8042, 800.6573
543.2863, 815.4368
543.7684, 813.7423
544.2505, 760.0640
544.7326, 733.4075
545.2147, 775.8515
545.6968, 839.0634
546.1790, 867.8862
546.6611, 849.3021
547.1432, 815.1146
547.6253, 795.8785
548.1074, 790.8983
548.5895, 794.5300
549.0717, 810.7914
549.5538, 826.4688
550.0359, 833.9451
550.5180, 835.6720
551.0001, 834.1702
551.4822, 828.3734
551.9644, 822.9628
552.4465, 822.2558
552.9286, 823.7396
553.4107, 822.0117
553.8928, 815.9862
554.3749, 808.6625
554.8571, 803.5684
555.3392, 800.3918
555.8213, 789.4382
556.3034, 746.8813
556.7855, 726.4929
557.2676, 764.2415
557.7498, 820.9700
558.2319, 852.1115
558.7140, 846.6758
559.1961, 817.5726
559.6782, 770.0652
560.1603, 703.5905
560.6425, 686.5138
561.1246, 756.4341
561.6067, 822.1138
562.0888, 872.4491
562.5709, 896.0518
563.0530, 864.5778
563.5352, 768.8204
564.0173, 685.3516
564.4994, 696.2659
564.9815, 772.6960
565.4636, 817.1829
565.9457, 815.8264
566.4279, 808.8567
566.9100, 828.2319
567.3921, 861.7631
567.8742, 866.5159
568.3563, 822.1385
568.8384, 783.1691
569.3206, 766.7041
569.8027, 766.4073
570.2848, 779.4524
570.7669, 802.7640
571.2490, 826.0381
571.7311, 841.3732
572.2133, 848.2136
572.6954, 839.4139
573.1775, 797.5321
573.6596, 763.6195
574.1417, 740.8553
574.6238, 729.0034
575.1060, 732.6887
575.5881, 749.4407
576.0702, 764.6841
576.5523, 766.2646
577.0344, 756.6769
577.5165, 744.3746
577.9987, 728.8403
578.4808, 712.0583
578.9629, 685.4943
579.4450, 665.2725
579.9271, 675.4104
580.4092, 720.2992
580.8914, 766.6940
581.3735, 812.9946
581.8556, 847.6467
582.3377, 855.0745
582.8198, 836.9850
583.3019, 806.4203
583.7841, 768.7327
584.2662, 728.7645
584.7483, 698.8064
585.2304, 665.3917
585.7125, 666.8108
586.1946, 740.1909
586.6768, 813.4138
587.1589, 843.0822
587.6410, 834.0329
588.1231, 808.1680
588.6052, 774.6117
589.0873, 742.4399
589.5695, 735.5994
590.0516, 759.0051
590.5337, 771.0184
591.0158, 754.1690
591.4979, 734.8978
591.9800, 739.3974
592.4622, 761.1328
592.9443, 773.1874
593.4264, 772.3561
593.9085, 754.4150
594.3906, 690.2313
594.8727, 605.6112
595.3549, 581.2518
595.8370, 645.6920
596.3191, 738.6391
596.8012, 787.0236
597.2833, 784.1115
597.7654, 783.5316
598.2476, 789.3543
598.7297, 792.4675
599.2118, 789.4620
599.6939, 782.3846
600.1760, 771.8677
600.6581, 758.8514
601.1403, 749.2070
601.6224, 750.0837
602.1045, 761.1652
602.5866, 777.8711
603.0687, 808.9959
603.5508, 826.0014
604.0330, 799.8578
604.5151, 757.5358
604.9972, 732.6421
605.4793, 730.5781
605.9614, 736.3081
606.4435, 750.4825
606.9257, 763.9799
607.4078, 759.6684
607.8899, 738.4971
608.3720, 722.0343
608.8541, 725.9128
609.3362, 740.9170
609.8184, 736.6812
610.3005, 668.9600
610.7826, 650.1285
611.2647, 730.1260
611.7468, 813.4778
612.2289, 841.1964
612.7111, 819.3013
613.1932, 775.8982
613.6753, 720.5646
614.1574, 672.4405
614.6395, 682.2300
615.1216, 757.4316
615.6038, 783.4739
616.0859, 704.1806
616.5680, 621.5308
617.0501, 638.4410
617.5322, 725.3399
618.0143, 783.1858
618.4965, 781.9381
618.9786, 757.9932
619.4607, 713.0308
619.9428, 665.3816
620.4249, 656.1968
620.9070, 693.4909
621.3892, 739.2626
621.8713, 755.5066
622.3534, 742.6252
622.8355, 726.6019
623.3176, 690.2352
623.7997, 673.8346
624.2819, 703.9246
624.7640, 742.6481
625.2461, 752.0370
625.7282, 730.2900
626.2103, 708.2009
626.6924, 708.5241
627.1745, 725.5769
627.6566, 755.0330
628.1387, 799.9512
628.6208, 809.6100
629.1030, 746.2269
629.5851, 660.7299
630.0672, 629.8835
630.5493, 653.6964
631.0314, 688.5128
631.5135, 748.3714
631.9957, 798.0576
632.4778, 817.0172
632.9599, 808.6541
633.4420, 774.0370
633.9241, 715.2569
634.4063, 658.1886
634.8884, 642.3995
635.3705, 673.6121
635.8526, 699.9609
636.3347, 740.1880
636.8168, 747.1354
637.2990, 656.1545
637.7811, 549.7629
638.2632, 545.2189
638.7453, 671.8967
639.2274, 789.8869
639.7095, 781.2225
640.1917, 707.5687
640.6738, 684.3666
641.1559, 717.1049
641.6380, 739.0863
642.1201, 708.6329
642.6022, 655.4430
643.0844, 649.6111
643.5665, 733.4803
644.0486, 776.5521
644.5307, 753.0941
645.0128, 714.0297
645.4949, 669.4412
645.9771, 633.9994
646.4592, 636.1394
646.9413, 689.5660
647.4234, 755.5090
647.9055, 774.2997
648.3876, 747.0503
648.8698, 733.0153
649.3519, 746.9139
649.8340, 750.6879
650.3161, 705.6362
650.7982, 638.3173
651.2803, 604.0626
651.7625, 617.6578
652.2446, 635.6128
652.7267, 627.5048
653.2088, 623.7116
653.6909, 682.5684
654.1730, 787.1101
654.6552, 839.8730
655.1373, 775.6580
655.6194, 649.2013
656.1015, 605.7757
656.5836, 682.5689
657.0657, 746.5926
657.5479, 805.7408
658.0300, 835.8992
658.5121, 800.5487
658.9942, 732.2500
659.4763, 699.6169
659.9584, 735.5356
660.4406, 777.8067
660.9227, 763.2692
661.4048, 712.6938
661.8869, 674.5270
662.3690, 655.7013
662.8511, 665.0105
663.3333, 717.8011
663.8154, 798.3211
664.2975, 839.9758
664.7796, 803.1042
665.2617, 782.7020
665.7438, 802.9011
666.2260, 820.9758
666.7081, 801.2564
667.1902, 754.7032
667.6723, 715.4007
668.1544, 701.1202
668.6365, 700.7711
669.1187, 693.1499
669.6008, 679.4219
670.0829, 692.6198
670.5650, 750.8497
671.0471, 799.9810
671.5292, 791.4716
672.0114, 741.5910
672.4935, 711.7147
672.9756, 708.3134
673.4577, 715.1519
673.9398, 741.5842
674.4219, 766.4881
674.9041, 763.7626
675.3862, 738.0339
675.8683, 713.4005
676.3504, 703.5762
676.8325, 709.8350
677.3146, 741.5680
677.7968, 808.7481
678.2789, 853.9188
678.7610, 877.7144
679.2431, 869.1042
679.7252, 789.9842
680.2073, 681.7363
680.6895, 635.4135
681.1716, 695.0928
681.6537, 754.7792
682.1358, 744.6591
682.6179, 701.7578
683.1000, 674.5215
683.5822, 669.3483
684.0643, 681.0632
684.5464, 709.3021
685.0285, 743.0126
685.5106, 749.2852
685.9927, 715.0918
686.4749, 684.0805
686.9570, 637.9084
687.4391, 615.6024
687.9212, 658.2925
688.4033, 731.7663
688.8854, 771.3975
689.3676, 751.7128
689.8497, 717.1351
690.3318, 699.3036
690.8139, 695.1409
691.2960, 706.1528
691.7781, 731.0120
692.2603, 734.0129
692.7424, 684.3706
693.2245, 614.8220
693.7066, 614.9193
694.1887, 748.3848
694.6708, 822.8550
695.1530, 807.4074
695.6351, 769.3087
696.1172, 724.7192
696.5993, 684.5388
697.0814, 662.9491
697.5635, 665.2166
698.0457, 679.8709
698.5278, 703.2266
699.0099, 729.4824
699.4920, 737.7440
699.9741, 725.6319
700.4562, 710.0381
700.9384, 697.7941
701.4205, 689.9916
701.9026, 689.4566
702.3847, 698.7197
702.8668, 708.8970
703.3489, 728.4190
703.8311, 739.9863
704.3132, 729.6254
704.7953, 707.4940
705.2774, 689.9092
705.7595, 682.0040
706.2416, 676.1368
706.7238, 657.0483
707.2059, 632.2063
707.6880, 641.1581
708.1701, 689.7231
708.6522, 730.6006
709.1343, 741.2311
709.6164, 737.7580
710.0985, 749.4981
710.5806, 782.3318
711.0627, 787.3419
711.5449, 730.5728
712.0270, 678.6030
712.5091, 661.6813
712.9912, 669.7725
713.4733, 694.0770
713.9554, 728.8237
714.4376, 757.1497
714.9197, 760.9849
715.4018, 746.2464
715.8839, 735.2418
716.3660, 728.1507
716.8481, 724.2903
717.3303, 725.5360
717.8124, 727.2155
718.2945, 724.6815
718.7766, 718.0480
719.2587, 706.9907
719.7408, 679.6742
720.2230, 661.8847
720.7051, 667.3981
721.1872, 685.8077
721.6693, 712.4347
722.1514, 741.1843
722.6335, 755.0272
723.1157, 739.2426
723.5978, 702.7408
724.0799, 661.3112
724.5620, 610.7975
725.0441, 602.4263
725.5262, 673.7139
726.0084, 739.3370
726.4905, 713.6235
726.9726, 622.0206
727.4547, 564.8317
727.9368, 561.6664
728.4189, 570.1215
728.9011, 582.3877
729.3832, 597.2347
729.8653, 609.9434
730.3474, 623.7325
730.8295, 655.1653
731.3116, 716.3480
731.7938, 774.5158
732.2759, 756.6351
732.7580, 660.9788
733.2401, 619.7473
733.7222, 664.4376
734.2043, 708.5225
734.6865, 699.4968
735.1686, 657.5561
735.6507, 624.9427
736.1328, 597.6606
736.6149, 593.5090
737.0970, 638.1971
737.5792, 686.6237
738.0613, 709.0475
738.5434, 711.2109
739.0255, 707.9804
739.5076, 704.7901
739.9897, 699.0994
740.4719, 687.5314
740.9540, 670.6545
741.4361, 649.4659
741.9182, 620.8515
742.4003, 604.2878
742.8824, 607.8594
743.3646, 625.9409
743.8467, 659.0342
744.3288, 707.8710
744.8109, 734.0107
745.2930, 721.3164
745.7751, 700.5991
746.2573, 672.5067
746.7394, 649.8636
747.2215, 653.3281
747.7036, 680.7136
748.1857, 705.6414
748.6678, 707.9097
749.1500, 695.4897
749.6321, 682.9934
750.1142, 670.4247
750.5963, 668.6778
751.0784, 684.3169
751.5605, 697.3157
752.0427, 684.2072
752.5248, 653.9850
753.0069, 657.0074
753.4890, 732.0746
753.9711, 777.1901
754.4532, 767.0845
754.9354, 734.0529
755.4175, 683.0941
755.8996, 631.0123
756.3817, 610.8185
756.8638, 637.9647
757.3459, 677.3043
757.8281, 686.9724
758.3102, 673.8771
758.7923, 661.0009
759.2744, 649.2840
759.7565, 649.2637
760.2386, 668.9429
760.7208, 698.0812
761.2029, 720.7150
761.6850, 738.9602
762.1671, 741.1552
762.6492, 708.1647
763.1313, 683.3069
763.6135, 704.6074
764.0956, 726.4346
764.5777, 675.4584
765.0598, 556.6216
765.5419, 478.9290
766.0240, 547.3678
766.5062, 666.1150
766.9883, 693.3112
767.4704, 649.5602
767.9525, 618.1115
768.4346, 618.8398
768.9167, 634.7241
769.3989, 652.0018
769.8810, 670.7692
770.3631, 691.9608
770.8452, 729.6091
771.3273, 743.8184
771.8094, 711.7678
772.2916, 676.2990
772.7737, 661.7664
773.2558, 660.5619
773.7379, 654.0248
774.2200, 635.5532
774.7021, 617.6583
775.1843, 603.9679
775.6664, 598.4595
776.1485, 611.9426
776.6306, 639.9623
777.1127, 663.0689
777.5948, 672.6156
778.0770, 675.9677
778.5591, 686.1913
779.0412, 704.5033
779.5233, 702.4525
780.0054, 668.8455
780.4875, 638.0941
780.9697, 615.4855
781.4518, 605.5349
781.9339, 618.8322
782.4160, 652.8537
782.8981, 677.7547
783.3802, 685.0364
783.8624, 683.1102
784.3445, 670.7198
784.8266, 654.6509
785.3087, 643.6208
785.7908, 638.2292
786.2729, 631.9477
786.7551, 618.6936
787.2372, 609.0885
787.7193, 632.4655
788.2014, 688.1371
788.6835, 720.5670
789.1656, 718.8954
789.6478, 711.9495
790.1299, 723.2837
790.6120, 737.1376
791.0941, 708.2410
791.5762, 606.3143
792.0583, 554.3192
792.5404, 603.8715
793.0225, 655.4287
793.5046, 660.2903
793.9868, 640.1087
794.4689, 627.1459
794.9510, 628.0050
795.4331, 627.3317
795.9152, 602.5127
796.3973, 576.7899
796.8795, 599.1048
797.3616, 658.4902
797.8437, 698.0894
798.3258, 703.4001
798.8079, 704.6746
799.2900, 734.6542
799.7722, 779.6683
800.2543, 756.7621
800.7364, 603.1446
801.2185, 509.9813
801.7006, 541.1589
802.1827, 587.0211
802.6649, 594.4891
803.1470, 582.2693
803.6291, 592.4344
804.1112, 640.7125
804.5933, 671.0539
805.0754, 628.6757
805.5576, 576.1027
806.0397, 580.0696
806.5218, 625.6576
807.0039, 675.0319
807.4860, 713.0070
807.9681, 730.0305
808.4503, 708.9518
808.9324, 659.3580
809.4145, 635.3761
809.8966, 641.3141
810.3787, 644.2111
810.8608, 630.3525
811.3430, 621.9761
811.8251, 648.0924
812.3072, 700.3224
812.7893, 720.7366
813.2714, 679.3465
813.7535, 651.3326
814.2357, 658.1206
814.7178, 671.5238
815.1999, 678.4180
815.6820, 675.3524
816.1641, 656.3259
816.6462, 618.9700
817.1284, 582.0585
817.6105, 554.6566
818.0926, 543.1948
818.5747, 574.0718
819.0568, 638.3979
819.5389, 676.3868
820.0211, 666.0342
820.5032, 640.8510
820.9853, 640.0914
821.4674, 661.3507
821.9495, 665.6430
822.4316, 638.0164
822.9138, 626.4411
823.3959, 655.8928
823.8780, 687.1274
824.3601, 690.2282
824.8422, 675.3644
825.3243, 672.4757
825.8065, 699.5115
826.2886, 706.7428
826.7707, 642.4751
827.2528, 577.8113
827.7349, 588.4286
828.2170, 648.0112
828.6992, 689.1268
829.1813, 688.4209
829.6634, 673.0538
830.1455, 672.4561
830.6276, 680.6094
831.1097, 675.4885
831.5919, 657.3777
832.0740, 640.9167
832.5561, 630.3298
833.0382, 622.4340
833.5203, 615.0441
834.0024, 607.6418
834.4846, 595.3218
834.9667, 565.7986
835.4488, 552.0084
835.9309, 562.3882
836.4130, 580.7170
836.8951, 609.7908
837.3773, 637.5297
837.8594, 639.7167
838.3415, 607.5439
838.8236, 580.7144
839.3057, 586.9601
839.7878, 601.7404
840.2700, 599.2572
840.7521, 586.9330
841.2342, 586.3853
841.7163, 601.4030
842.1984, 610.6618
842.6805, 589.8674
843.1627, 609.1459
843.6448, 563.0290
844.1269, 615.4765
844.6090, 642.6756
845.0911, 628.9114
845.5732, 600.3264
846.0554, 568.2535
846.5375, 538.7319
847.0196, 529.9418
847.5017, 550.6229
847.9838, 572.7810
848.4659, 610.8843
848.9481, 633.7637
849.4302, 609.0658
849.9123, 574.4611
850.3944, 582.0645
850.8765, 634.3701
851.3586, 677.6826
851.8408, 683.0811
852.3229, 670.7589
852.8050, 641.5969
853.2871, 613.2948
853.7692, 626.7475
854.2513, 678.3197
854.7335, 719.2811
855.2156, 718.1998
855.6977, 693.1942
856.1798, 673.5054
856.6619, 659.2813
857.1440, 662.8922
857.6262, 692.1230
858.1083, 697.7266
858.5904, 644.9176
859.0725, 580.3387
859.5546, 575.4505
860.0367, 638.6090
860.5189, 663.0007
861.0010, 600.7424
861.4831, 566.3286
861.9652, 601.3503
862.4473, 649.9011
862.9294, 674.6407
863.4116, 676.7023
863.8937, 667.1058
864.3758, 644.3443
864.8579, 627.3705
865.3400, 642.3154
865.8221, 658.7778
866.3043, 634.8497
866.7864, 583.0184
867.2685, 536.7892
867.7506, 509.2497
868.2327, 505.7486
868.7148, 537.7169
869.1970, 594.3792
869.6791, 646.4859
870.1612, 693.8889
870.6433, 711.2736
871.1254, 690.3165
871.6075, 650.0685
872.0897, 595.8250
872.5718, 541.0870
873.0539, 531.8134
873.5360, 590.8424
874.0181, 642.9616
874.5002, 703.5984
874.9823, 738.3331
875.4644, 720.0973
875.9465, 679.4911
876.4286, 647.0047
876.9108, 626.2612
877.3929, 616.2840
877.8750, 623.1329
878.3571, 633.3821
878.8392, 649.5266
879.3214, 658.5934
879.8035, 635.8632
880.2856, 590.3833
880.7677, 554.9980
881.2498, 545.5636
881.7319, 558.8170
882.2141, 607.3320
882.6962, 672.7789
883.1783, 695.0223
883.6604, 675.1732
884.1425, 647.4585
884.6246, 622.5710
885.1068, 608.7535
885.5889, 617.5740
886.0710, 645.1356
886.5531, 659.8455
887.0352, 656.4065
887.5173, 656.7950
887.9995, 676.1534
888.4816, 682.1383
888.9637, 635.2259
889.4458, 566.9616
889.9279, 545.4478
890.4100, 587.1006
890.8922, 612.7040
891.3743, 586.5628
891.8564, 570.6572
892.3385, 618.1579
892.8206, 674.9680
893.3027, 669.0778
893.7849, 605.1739
894.2670, 548.0027
894.7491, 523.3636
895.2312, 530.8571
895.7133, 600.4510
896.1954, 686.7225
896.6776, 708.4885
897.1597, 671.6271
897.6418, 628.7387
898.1239, 602.9086
898.6060, 589.0435
899.0881, 579.4427
899.5703, 576.5438
900.0524, 604.6353
900.5345, 667.2156
901.0166, 682.9471
901.4987, 621.3156
901.9808, 554.7817
902.4630, 542.4982
902.9451, 569.6487
903.4272, 584.1392
903.9093, 578.9970
904.3914, 577.4280
904.8735, 578.4107
905.3557, 584.4036
905.8378, 590.1190
906.3199, 604.9770
906.8020, 652.1272
907.2841, 727.8836
907.7662, 768.8690
908.2484, 726.1675
908.7305, 688.9541
909.2126, 718.2833
909.6947, 748.6215
910.1768, 697.4784
910.6589, 597.4178
911.1411, 542.0953
911.6232, 567.3348
912.1053, 615.5228
912.5874, 647.5540
913.0695, 665.0862
913.5516, 663.3312
914.0338, 649.5229
914.5159, 650.6592
914.9980, 670.3044
915.4801, 674.0206
915.9622, 630.2159
916.4443, 567.5192
916.9265, 556.4278
917.4086, 596.8370
917.8907, 645.1339
918.3728, 703.2653
918.8549, 740.8288
919.3370, 741.6641
919.8192, 721.1014
920.3013, 699.4205
920.7834, 676.5740
921.2655, 645.8749
921.7476, 578.2797
922.2297, 553.2034
922.7119, 630.3394
923.1940, 704.5917
923.6761, 703.3519
924.1582, 659.3247
924.6403, 647.0987
925.1224, 688.3453
925.6046, 695.2490
926.0867, 594.9666
926.5688, 513.0031
927.0509, 539.1932
927.5330, 605.8521
928.0151, 636.4849
928.4973, 623.4418
928.9794, 592.0828
929.4615, 546.3450
929.9436, 510.1659
930.4257, 505.3076
930.9078, 522.3085
931.3900, 555.8387
931.8721, 597.9384
932.3542, 628.6769
932.8363, 641.4825
933.3184, 645.4495
933.8005, 649.5672
934.2827, 651.3398
934.7648, 642.0853
935.2469, 623.0840
935.7290, 604.0524
936.2111, 586.1358
936.6932, 579.2573
937.1754, 590.1438
937.6575, 613.0465
938.1396, 641.2692
938.6217, 677.6035
939.1038, 681.3440
939.5859, 639.9652
940.0681, 598.1658
940.5502, 557.5377
941.0323, 532.7745
941.5144, 540.0220
941.9965, 573.4026
942.4786, 609.3858
942.9608, 654.9124
943.4429, 688.8309
943.9250, 732.2559
944.4071, 738.2343
944.8892, 655.1095
945.3713, 545.7034
945.8535, 469.2645
946.3356, 434.6487
946.8177, 448.1779
947.2998, 559.7109
947.7819, 646.3893
948.2640, 617.4800
948.7462, 563.1780
949.2283, 581.8685
949.7104, 639.5256
950.1925, 638.9819
950.6746, 556.2545
951.1567, 483.7225
951.6389, 502.8585
952.1210, 562.2948
952.6031, 603.4573
953.0852, 631.8201
953.5673, 667.0206
954.0494, 705.4426
954.5316, 711.9807
955.0137, 666.9364
955.4958, 599.4218
955.9779, 539.4598
956.4600, 492.5295
956.9421, 499.6027
957.4242, 557.9610
957.9063, 583.2799
958.3884, 550.6160
958.8705, 520.3470
959.3527, 543.2919
959.8348, 600.2415
960.3169, 636.2495
960.7990, 650.1638
961.2811, 647.5721
961.7632, 621.2490
962.2454, 598.9879
962.7275, 592.2962
963.2096, 592.5115
963.6917, 592.7145
964.1738, 592.1497
964.6559, 581.8121
965.1381, 547.8937
965.6202, 526.7075
966.1023, 512.1874
966.5844, 518.1926
967.0665, 574.4902
967.5486, 641.8934
968.0308, 662.2991
968.5129, 632.7796
968.9950, 615.7870
969.4771, 634.7302
969.9592, 654.2712
970.4413, 658.4181
970.9235, 662.2216
971.4056, 689.2975
971.8877, 722.2218
972.3698, 717.7696
972.8519, 664.2060
973.3340, 621.9842
973.8162, 655.4039
974.2983, 682.7186
974.7804, 603.7402
975.2625, 495.5097
975.7446, 478.9649
976.2267, 544.9339
976.7089, 604.2957
977.1910, 615.4111
977.6731, 609.2907
978.1552, 617.8456
978.6373, 630.5281
979.1194, 625.2493
979.6016, 608.2447
980.0837, 604.7570
980.5658, 617.1198
981.0479, 615.8743
981.5300, 578.7726
982.0121, 532.0436
982.4943, 526.1166
982.9764, 553.4236
983.4585, 577.1039
983.9406, 594.9934
984.4227, 578.9318
984.9048, 515.7660
985.3870, 476.0581
985.8691, 533.1263
986.3512, 646.6944
986.8333, 678.1813
987.3154, 614.9044
987.7975, 575.1926
988.2797, 571.4985
988.7618, 563.5494
989.2439, 531.3317
989.7260, 496.5076
990.2081, 482.2457
990.6902, 488.1923
991.1724, 513.9170
991.6545, 583.4445
992.1366, 614.6484
992.6187, 569.3588
993.1008, 535.1563
993.5829, 554.2897
994.0651, 605.0264
994.5472, 675.0905
995.0293, 765.8030
995.5114, 790.4035
995.9935, 681.3154
996.4756, 603.1564
996.9578, 583.4294
997.4399, 593.0532
997.9220, 641.1289
998.4041, 696.2894
998.8862, 704.3782
999.3683, 658.5330
999.8505, 626.9590
1000.333, 642.0248
1000.815, 653.6805
1001.297, 630.2429
1001.779, 608.0531
1002.261, 628.6917
1002.743, 670.7928
1003.225, 686.0269
1003.707, 662.2652
1004.190, 634.5182
1004.672, 614.2145
1005.154, 602.5351
1005.636, 604.4055
1006.118, 612.3417
1006.600, 614.3248
1007.082, 614.4431
1007.564, 635.0761
1008.046, 685.0679
1008.529, 711.1486
1009.011, 639.7039
1009.493, 551.5130
1009.975, 548.7093
1010.457, 588.3624
1010.939, 586.4169
1011.421, 543.2880
1011.903, 514.7300
1012.385, 527.8300
1012.868, 565.8451
1013.350, 631.6960
1013.832, 698.1305
1014.314, 709.7050
1014.796, 678.6866
1015.278, 628.9697
1015.760, 573.4175
1016.242, 558.9999
1016.725, 616.1708
1017.207, 689.6887
1017.689, 690.2277
1018.171, 641.6243
1018.653, 634.1948
1019.135, 661.4877
1019.617, 674.7639
1020.099, 662.8784
1020.581, 627.0485
1021.064, 563.1970
1021.546, 503.8035
1022.028, 526.7601
1022.510, 620.8640
1022.992, 643.0865
1023.474, 591.1886
1023.956, 557.0125
1024.438, 564.2721
1024.921, 590.9077
1025.403, 625.3398
1025.885, 654.0855
1026.367, 634.6075
1026.849, 560.7087
1027.331, 548.3676
1027.813, 611.3480
1028.295, 653.5625
1028.777, 640.7523
1029.260, 633.7869
1029.742, 692.6232
1030.224, 666.3654
1030.706, 650.3295
1031.188, 660.8604
1031.670, 591.1877
1032.152, 581.2552
1032.634, 577.3434
1033.116, 561.2984
1033.599, 554.3857
1034.081, 581.8907
1034.563, 627.6703
1035.045, 639.5244
1035.527, 605.2261
1036.009, 578.0453
1036.491, 549.0333
1036.973, 545.5443
1037.456, 591.3861
1037.938, 645.0248
1038.420, 674.4412
1038.902, 683.6206
1039.384, 685.2314
1039.866, 675.7699
1040.348, 668.7408
1040.830, 673.4019
1041.313, 667.1648
1041.795, 624.5560
1042.277, 586.6749
1042.759, 591.4033
1043.241, 627.2299
1043.723, 660.7866
1044.205, 699.8550
1044.687, 713.4985
1045.169, 679.3138
1045.651, 647.3586
1046.134, 631.9203
1046.616, 623.8103
1047.098, 613.2234
1047.580, 603.9826
1048.062, 610.1172
1048.544, 640.8024
1049.026, 658.8425
1049.508, 663.2067
1049.991, 649.2620
1050.473, 585.6554
1050.955, 529.2976
1051.437, 546.6787
1051.919, 606.9803
1052.401, 614.9612
1052.883, 537.0770
1053.365, 499.0160
1053.848, 562.3506
1054.330, 624.9703
1054.812, 663.9263
1055.294, 671.8710
1055.776, 620.3365
1056.258, 538.4619
1056.740, 497.0874
1057.222, 514.0319
1057.704, 535.4630
1058.187, 536.9929
1058.669, 551.8156
1059.151, 618.1649
1059.633, 682.5796
1060.115, 689.2118
1060.597, 658.9068
1061.079, 648.2471
1061.561, 671.3137
1062.043, 679.6560
1062.526, 641.5563
1063.008, 604.6107
1063.490, 589.9135
1063.972, 585.7208
1064.454, 574.6819
1064.936, 567.8276
1065.418, 601.2616
1065.900, 683.2072
1066.383, 727.6372
1066.865, 668.6835
1067.347, 606.8928
1067.829, 586.7864
1068.311, 585.7788
1068.793, 589.9906
1069.275, 595.8704
1069.757, 601.4862
1070.240, 606.3386
1070.722, 609.1092
1071.204, 603.4876
1071.686, 603.2206
1072.168, 620.0883
1072.650, 639.8472
1073.132, 656.2007
1073.614, 664.5413
1074.096, 654.0043
1074.578, 625.8212
1075.061, 606.2754
1075.543, 597.2590
1076.025, 613.0767
1076.507, 708.7831
1076.989, 784.4414
1077.471, 739.4186
1077.953, 632.1313
1078.435, 544.2840
1078.918, 493.7302
1079.400, 487.4238
1079.882, 551.8290
1080.364, 609.7496
1080.846, 614.2786
1081.328, 609.6843
1081.810, 640.3013
1082.292, 674.7540
1082.774, 658.9617
1083.257, 599.5927
1083.739, 558.9048
1084.221, 564.0501
1084.703, 570.6474
1085.185, 549.6177
1085.667, 533.1536
1086.149, 559.1584
1086.631, 589.7882
1087.114, 568.8543
1087.596, 510.1788
1088.078, 475.0872
1088.560, 480.9944
1089.042, 512.3174
1089.524, 600.1687
1090.006, 667.0967
1090.488, 639.4095
1090.970, 592.6743
1091.453, 614.2162
1091.935, 681.2241
1092.417, 718.3710
1092.899, 706.7163
1093.381, 683.8021
1093.863, 635.8200
1094.345, 615.2652
1094.827, 692.3115
1095.309, 765.3749
1095.792, 722.7364
1096.274, 619.8506
1096.756, 580.1516
1097.238, 624.5737
1097.720, 647.0106
1098.202, 574.9898
1098.684, 530.8613
1099.166, 588.6836
1099.649, 654.4877
1100.131, 653.1564
1100.613, 622.4802
1101.095, 632.6790
1101.577, 685.0223
1102.059, 704.1528
1102.541, 644.1359
1103.023, 595.2491
1103.505, 591.8953
1103.988, 589.5394
1104.470, 549.9483
1104.952, 508.5884
1105.434, 516.6860
1105.916, 564.6476
1106.398, 587.4810
1106.880, 550.6372
1107.362, 548.0225
1107.844, 650.2558
1108.327, 717.5363
1108.809, 664.7159
1109.291, 583.2947
1109.773, 553.4130
1110.255, 562.9468
1110.737, 567.0140
1111.219, 559.1783
1111.701, 559.5046
1112.184, 583.1145
1112.666, 595.8285
1113.148, 569.3201
1113.630, 550.8969
1114.112, 589.8741
1114.594, 650.7165
1115.076, 662.9078
1115.558, 619.8356
1116.041, 594.2389
1116.523, 595.9981
1117.005, 598.9268
1117.487, 608.3739
1117.969, 606.8691
1118.451, 576.6932
1118.933, 539.7487
1119.415, 522.5372
1119.897, 524.4076
1120.380, 537.3982
1120.862, 557.8117
1121.344, 603.4843
1121.826, 707.0416
1122.308, 764.2254
1122.790, 720.0519
1123.272, 648.1205
1123.754, 615.4575
1124.236, 612.2804
1124.719, 605.5322
1125.201, 593.5605
1125.683, 586.8046
1126.165, 586.1232
1126.647, 586.6642
1127.129, 585.6575
1127.611, 594.2920
1128.093, 627.3664
1128.576, 657.5880
1129.058, 626.0488
1129.540, 537.5547
1130.022, 495.6219
1130.504, 502.9179
1130.986, 534.4832
1131.468, 589.8098
1131.950, 637.4252
1132.432, 662.8514
1132.915, 668.3079
1133.397, 653.4297
1133.879, 624.8116
1134.361, 603.1635
1134.843, 588.8963
1135.325, 589.7509
1135.807, 605.8455
1136.289, 636.4390
1136.771, 680.4866
1137.254, 698.3692
1137.736, 651.9246
1138.218, 689.6530
1138.700, 612.6479
1139.182, 689.6722
1139.664, 706.1147
1140.146, 673.8627
1140.628, 660.5086
1141.111, 674.4464
1141.593, 669.6257
1142.075, 621.1276
1142.557, 572.7468
1143.039, 587.4977
1143.521, 623.5791
1144.003, 609.0449
1144.485, 562.9517
1144.968, 508.3343
1145.450, 461.1814
1145.932, 461.3025
1146.414, 516.4048
1146.896, 575.0419
1147.378, 601.6760
1147.860, 616.0367
1148.342, 642.6789
1148.824, 662.9286
1149.307, 650.4638
1149.789, 617.1348
1150.271, 580.7501
1150.753, 547.6646
1151.235, 522.8755
1151.717, 506.0204
1152.199, 509.4485
1152.681, 554.6505
1153.163, 605.4509
1153.646, 657.2026
1154.128, 686.4271
1154.610, 648.8386
1155.092, 575.6075
1155.574, 541.7407
1156.056, 562.3433
1156.538, 581.3495
1157.020, 582.8299
1157.503, 580.2430
1157.985, 584.6392
1158.467, 578.1055
1158.949, 518.2946
1159.431, 461.5660
1159.913, 502.9626
1160.395, 628.1638
1160.877, 691.7682
1161.359, 656.5218
1161.842, 617.6304
1162.324, 554.1047
1162.806, 521.8194
1163.288, 556.8972
1163.770, 600.2421
1164.252, 605.1747
1164.734, 589.5538
1165.216, 593.4439
1165.698, 618.6636
1166.181, 639.4885
1166.663, 655.5760
1167.145, 668.3555
1167.627, 678.2479
1168.109, 686.0127
1168.591, 695.3155
1169.073, 689.6440
1169.555, 644.5834
1170.037, 575.9523
1170.520, 544.1831
1171.002, 548.5565
1171.484, 557.8919
1171.966, 570.6520
1172.448, 590.1705
1172.930, 616.8902
1173.412, 622.3305
1173.894, 584.7966
1174.377, 540.5446
1174.859, 550.0574
1175.341, 592.3290
1175.823, 613.3245
1176.305, 616.4963
1176.787, 608.0927
1177.269, 592.1285
1177.751, 574.0113
1178.234, 557.8882
1178.716, 565.8319
1179.198, 630.4426
1179.680, 692.1291
1180.162, 678.1016
1180.644, 629.1409
1181.126, 577.6812
1181.608, 539.9568
1182.090, 548.9552
1182.573, 595.0162
1183.055, 626.3964
1183.537, 622.4166
1184.019, 613.0418
1184.501, 619.6871
1184.983, 617.9163
1185.465, 579.4119
1185.947, 540.5266
1186.429, 522.4573
1186.912, 531.5219
1187.394, 591.0971
1187.876, 698.3032
1188.358, 756.8832
1188.840, 714.0937
1189.322, 681.8185
1189.804, 671.0140
1190.286, 673.0468
1190.769, 702.6302
1191.251, 724.3308
1191.733, 702.4206
1192.215, 652.4770
1192.697, 610.1262
1193.179, 570.9105
1193.661, 587.2818
1194.143, 686.8448
1194.625, 731.6959
1195.108, 686.9130
1195.590, 651.2360
1196.072, 677.5734
1196.554, 707.3362
1197.036, 668.6202
1197.518, 589.4382
1198.000, 553.2151
1198.482, 558.0380
1198.964, 600.9617
1199.447, 672.4844
1199.929, 689.1329
1200.411, 638.6353
1200.893, 605.7769
1201.375, 640.5744
1201.857, 680.5674
1202.339, 638.5322
1202.821, 569.0719
1203.304, 565.9870
1203.786, 597.4974
1204.268, 604.3025
1204.750, 595.4929
1205.232, 618.9745
1205.714, 677.3387
1206.196, 707.7608
1206.678, 667.1962
1207.161, 627.6639
1207.643, 647.8771
1208.125, 668.5969
1208.607, 633.7419
1209.089, 590.2941
1209.571, 594.6392
1210.053, 630.8406
1210.535, 656.4590
1211.017, 666.0095
1211.500, 652.3777
1211.982, 573.0718
1212.464, 534.8756
1212.946, 595.4838
1213.428, 641.3832
1213.910, 618.9143
1214.392, 577.4016
1214.874, 557.2415
1215.356, 558.6644
1215.839, 586.7245
1216.321, 646.7732
1216.803, 680.5038
1217.285, 684.7112
1217.767, 683.2673
1218.249, 679.9006
1218.731, 676.6494
1219.213, 676.2141
1219.696, 654.3791
1220.178, 573.9058
1220.660, 479.0705
1221.142, 485.1534
1221.624, 561.1449
1222.106, 612.1043
1222.588, 635.5930
1223.070, 639.2894
1223.552, 628.0910
1224.035, 609.3083
1224.517, 586.2344
1224.999, 578.1870
1225.481, 613.6184
1225.963, 657.5532
1226.445, 692.4988
1226.927, 706.2597
1227.409, 664.3530
1227.891, 603.3411
1228.374, 585.4233
1228.856, 611.2286
1229.338, 632.4872
1229.820, 633.3634
1230.302, 641.4590
1230.784, 687.3004
1231.266, 707.7127
1231.748, 645.6960
1232.231, 594.5238
1232.713, 634.8822
1233.195, 699.6769
1233.677, 684.8557
1234.159, 603.3405
1234.641, 575.1607
1235.123, 617.1196
1235.605, 632.3846
1236.088, 615.5636
1236.570, 581.5119
1237.052, 530.7440
1237.534, 494.0633
1238.016, 490.8048
1238.498, 516.2187
1238.980, 575.0722
1239.462, 645.2837
1239.944, 662.8179
1240.427, 643.4767
1240.909, 631.7989
1241.391, 628.6843
1241.873, 622.4625
1242.355, 610.0084
1242.837, 589.6610
1243.319, 557.0211
1243.801, 541.6119
1244.283, 577.0932
1244.766, 624.8455
1245.248, 665.7872
1245.730, 695.0452
1246.212, 706.1794
1246.694, 703.8632
1247.176, 690.8073
1247.658, 670.0645
1248.140, 663.1582
1248.622, 687.2347
1249.105, 695.2711
1249.587, 676.1345
1250.069, 654.8859
1250.551, 640.2677
1251.033, 617.4028
1251.515, 567.9822
1251.997, 521.8546
1252.479, 530.4409
1252.962, 494.8112
1253.444, 566.2993
1253.926, 496.3803
1254.408, 490.3743
1254.890, 550.5931
1255.372, 609.4764
1255.854, 649.1213
1256.336, 678.1619
1256.818, 701.4304
1257.301, 707.5778
1257.783, 677.0344
1258.265, 630.4050
1258.747, 576.4927
1259.229, 539.3316
1259.711, 578.8249
1260.193, 648.4576
1260.675, 642.1021
1261.157, 568.7878
1261.640, 550.7324
1262.122, 639.9357
1262.604, 711.0018
1263.086, 721.0677
1263.568, 712.1562
1264.050, 693.3909
1264.532, 663.8754
1265.014, 610.7394
1265.497, 557.9672
1265.979, 532.8733
1266.461, 532.0303
1266.943, 541.5950
1267.425, 561.2856
1267.907, 599.9576
1268.389, 662.3705
1268.871, 683.1956
1269.354, 650.0114
1269.836, 636.9368
1270.318, 678.2527
1270.800, 715.4756
1271.282, 685.5867
1271.764, 637.0802
1272.246, 654.7330
1272.728, 703.3629
1273.210, 736.4209
1273.693, 744.5538
1274.175, 702.3649
1274.657, 626.1706
1275.139, 559.9534
1275.621, 517.2763
1276.103, 513.6992
1276.585, 593.3611
1277.067, 650.0997
1277.549, 621.8828
1278.032, 597.2187
1278.514, 639.5946
1278.996, 682.7407
1279.478, 653.5422
1279.960, 597.1121
1280.442, 612.4540
1280.924, 695.0461
1281.406, 678.1186
1281.889, 536.7114
1282.371, 506.3845
1282.853, 610.8372
1283.335, 677.9370
1283.817, 659.4312
1284.299, 608.9355
1284.781, 558.9732
1285.263, 522.8079
1285.745, 514.0656
1286.228, 532.8245
##END=



