##NAMES=Selenium
##RRUFFID=R050656
##IDEAL CHEMISTRY=Se
##LOCALITY=Poison Creek, Valencia County, New Mexico, USA
##OWNER=RRUFF
##SOURCE=University of Arizona Mineral Museum
##DESCRIPTION=Gray metallic acicular crystals
##STATUS=The identification of this mineral is confirmed by single-crystal X-ray diffraction and chemical analysis.
##URL=rruff.info/R050656
##MEASURED CHEMISTRY=Se
89.78156, 0.0000000E+00
90.26367, 3.302471
90.74579, 4.737924
91.22791, 4.152919
91.71002, 1.765488
92.19214, -0.5157239
92.67426, -1.226123
93.15638, -0.6302175
93.63850, 0.6235285
94.12061, 2.720195
94.60273, 5.234561
95.08485, 7.399512
95.56696, 9.261672
96.04908, 10.32789
96.53120, 9.294703
97.01331, 6.313066
97.49543, 4.074254
97.97755, 4.146527
98.45966, 6.383615
98.94178, 8.155992
99.42390, 9.548905
99.90602, 10.31736
100.3881, 9.710271
100.8703, 7.301396
101.3524, 5.012702
101.8345, 3.764646
102.3166, 3.679304
102.7987, 4.232685
103.2808, 5.663552
103.7630, 7.706107
104.2451, 9.245223
104.7272, 10.66116
105.2093, 11.08800
105.6914, 9.698557
106.1735, 4.624494
106.6557, 0.9881419
107.1378, -7.0105322E-02
107.6199, 1.540736
108.1020, 2.331719
108.5841, 1.047492
109.0662, -0.3913042
109.5484, -0.2800899
110.0305, 4.396085
110.5126, 7.632382
110.9947, 7.763024
111.4768, 3.829897
111.9590, 1.191314
112.4411, 1.027714
112.9232, 2.238764
113.4053, 3.412702
113.8874, 4.595590
114.3695, 5.467228
114.8517, 5.715022
115.3338, 4.825577
115.8159, 4.543076
116.2980, 6.199764
116.7801, 8.864104
117.2622, 10.49803
117.7444, 9.209109
118.2265, 7.322766
118.7086, 6.523514
119.1907, 8.150781
119.6728, 9.412082
120.1549, 7.924032
120.6371, 4.431989
121.1192, 1.948694
121.6013, 3.243231
122.0834, 6.152060
122.5655, 8.252026
123.0476, 8.298867
123.5298, 7.693777
124.0119, 7.646933
124.4940, 8.128357
124.9761, 8.716784
125.4582, 9.009236
125.9404, 9.166465
126.4225, 9.503772
126.9046, 10.55154
127.3867, 11.72996
127.8688, 11.72388
128.3509, 10.38460
128.8331, 9.311131
129.3152, 10.73457
129.7973, 14.19814
130.2794, 17.36863
130.7615, 18.81086
131.2436, 19.05896
131.7258, 19.94546
132.2079, 21.62605
132.6900, 23.68917
133.1721, 25.82842
133.6542, 28.04140
134.1364, 29.49276
134.6185, 29.08029
135.1006, 26.92308
135.5827, 26.33257
136.0648, 27.87346
136.5469, 30.72913
137.0291, 32.98806
137.5112, 34.54161
137.9933, 35.88564
138.4754, 37.66885
138.9575, 40.18358
139.4396, 41.00973
139.9218, 39.10619
140.4039, 35.32635
140.8860, 34.09955
141.3681, 36.32977
141.8502, 39.53587
142.3323, 41.92205
142.8145, 43.67014
143.2966, 44.17859
143.7787, 42.97819
144.2608, 40.09468
144.7429, 37.72227
145.2250, 35.38188
145.7072, 33.96136
146.1893, 34.52699
146.6714, 39.27946
147.1535, 42.71272
147.6356, 43.38171
148.1178, 40.79040
148.5999, 38.77622
149.0820, 36.59784
149.5641, 35.32420
150.0462, 36.29065
150.5283, 43.81187
151.0105, 49.26107
151.4926, 49.57875
151.9747, 43.11009
152.4568, 38.68071
152.9389, 37.45401
153.4210, 38.11399
153.9032, 38.82556
154.3853, 39.66023
154.8674, 40.30970
155.3495, 40.69874
155.8316, 40.88029
156.3137, 40.70123
156.7959, 39.55984
157.2780, 38.08100
157.7601, 37.44953
158.2422, 38.59909
158.7243, 40.13051
159.2065, 41.39915
159.6886, 42.28845
160.1707, 42.94871
160.6528, 43.46158
161.1349, 43.78880
161.6170, 43.82307
162.0992, 43.07100
162.5813, 42.28923
163.0634, 42.01823
163.5455, 42.84761
164.0276, 43.55919
164.5097, 43.54968
164.9919, 42.94938
165.4740, 42.25602
165.9561, 41.74720
166.4382, 41.24278
166.9203, 40.55898
167.4024, 39.37005
167.8846, 38.27012
168.3667, 37.63549
168.8488, 37.42418
169.3309, 37.37774
169.8130, 37.36221
170.2952, 37.41370
170.7773, 37.57461
171.2594, 37.81605
171.7415, 38.20200
172.2236, 39.05772
172.7057, 40.32697
173.1879, 41.14987
173.6700, 40.45111
174.1521, 38.92224
174.6342, 37.73327
175.1163, 37.86328
175.5984, 38.28438
176.0806, 37.27950
176.5627, 34.82059
177.0448, 33.07117
177.5269, 34.96064
178.0090, 39.10255
178.4911, 42.25370
178.9733, 42.14021
179.4554, 40.44578
179.9375, 39.92006
180.4196, 40.69120
180.9017, 41.72884
181.3838, 42.12933
181.8660, 41.94197
182.3481, 41.34391
182.8302, 40.05971
183.3123, 38.45711
183.7944, 37.49115
184.2766, 37.26604
184.7587, 37.20132
185.2408, 36.37218
185.7229, 34.94508
186.2050, 33.89346
186.6871, 34.00916
187.1693, 34.94515
187.6514, 35.28984
188.1335, 34.83330
188.6156, 34.31055
189.0977, 34.94676
189.5798, 36.68269
190.0620, 38.41863
190.5441, 39.69076
191.0262, 40.51091
191.5083, 40.86948
191.9904, 40.63934
192.4725, 40.25874
192.9547, 40.65596
193.4368, 41.86650
193.9189, 42.82703
194.4010, 42.62850
194.8831, 41.38508
195.3652, 41.07320
195.8474, 42.12703
196.3295, 43.67688
196.8116, 43.90088
197.2937, 42.69175
197.7758, 41.20756
198.2579, 40.02272
198.7401, 39.13679
199.2222, 38.53028
199.7043, 38.23653
200.1864, 38.18746
200.6685, 38.29202
201.1507, 38.59077
201.6328, 38.84785
202.1149, 38.80249
202.5970, 38.38357
203.0791, 38.43958
203.5612, 39.17884
204.0434, 40.32600
204.5255, 41.06738
205.0076, 41.27149
205.4897, 41.52308
205.9718, 42.56620
206.4539, 44.80939
206.9361, 45.25181
207.4182, 43.07178
207.9003, 39.18033
208.3824, 36.30885
208.8645, 34.46386
209.3466, 33.60358
209.8288, 33.90168
210.3109, 35.66068
210.7930, 37.26402
211.2751, 38.59263
211.7572, 39.65752
212.2393, 40.53970
212.7215, 41.22586
213.2036, 41.74139
213.6857, 41.99689
214.1678, 41.78757
214.6499, 41.99713
215.1320, 42.64555
215.6142, 43.77716
216.0963, 45.70794
216.5784, 48.85875
217.0605, 51.99164
217.5426, 54.22247
218.0247, 55.13548
218.5069, 56.36761
218.9890, 58.35899
219.4711, 60.79303
219.9532, 62.02504
220.4353, 61.29990
220.9175, 60.63111
221.3996, 61.44090
221.8817, 64.48978
222.3638, 67.02473
222.8459, 68.78289
223.3280, 69.83542
223.8102, 70.32444
224.2923, 69.84870
224.7744, 69.43574
225.2565, 69.69097
225.7386, 70.61912
226.2207, 72.16745
226.7029, 74.21436
227.1850, 76.86343
227.6671, 80.72095
228.1492, 86.61935
228.6313, 92.54204
229.1134, 97.12710
229.5956, 99.57096
230.0777, 102.6478
230.5598, 107.1686
231.0419, 112.5820
231.5240, 116.0644
232.0062, 116.3108
232.4883, 116.4065
232.9704, 118.7051
233.4525, 125.9849
233.9346, 129.1813
234.4167, 126.0712
234.8989, 118.1619
235.3810, 112.6236
235.8631, 110.6869
236.3452, 109.4143
236.8273, 107.1965
237.3094, 104.0166
237.7916, 99.93907
238.2737, 94.85253
238.7558, 88.84633
239.2379, 82.04647
239.7200, 73.51938
240.2021, 65.45054
240.6843, 58.91909
241.1664, 54.16505
241.6485, 50.44127
242.1306, 47.85695
242.6127, 46.26180
243.0948, 45.25636
243.5770, 45.21436
244.0591, 45.24324
244.5412, 45.08353
245.0233, 45.50101
245.5054, 43.80751
245.9876, 38.27626
246.4697, 30.81045
246.9518, 27.62558
247.4339, 31.15705
247.9160, 35.33385
248.3981, 36.94964
248.8803, 34.02322
249.3624, 33.48250
249.8445, 36.80642
250.3266, 42.24098
250.8087, 44.84633
251.2908, 43.31361
251.7730, 41.02450
252.2551, 39.52395
252.7372, 39.28409
253.2193, 38.48944
253.7014, 36.58409
254.1835, 34.37276
254.6657, 33.85959
255.1478, 35.87736
255.6299, 38.13736
256.1120, 39.84818
256.5941, 41.12333
257.0763, 41.35189
257.5584, 40.09550
258.0405, 38.07141
258.5226, 36.71395
259.0047, 36.16205
259.4868, 35.96577
259.9690, 35.99356
260.4511, 36.27413
260.9332, 36.68538
261.4153, 37.37002
261.8974, 38.06576
262.3795, 38.23869
262.8617, 37.60297
263.3438, 37.14555
263.8259, 37.33564
264.3080, 38.34639
264.7901, 38.70095
265.2722, 38.18513
265.7544, 37.26902
266.2365, 36.60088
266.7186, 36.19946
267.2007, 35.98607
267.6828, 35.91692
268.1649, 35.98399
268.6471, 36.40880
269.1292, 37.32325
269.6113, 38.39940
270.0934, 39.26310
270.5755, 39.92165
271.0576, 40.38174
271.5398, 40.71202
272.0219, 40.90372
272.5040, 40.42797
272.9861, 39.06551
273.4682, 37.52613
273.9503, 36.50503
274.4325, 36.03930
274.9146, 35.94662
275.3967, 36.29306
275.8788, 37.00959
276.3610, 37.56366
276.8431, 37.97853
277.3252, 38.14754
277.8073, 37.70625
278.2894, 36.53838
278.7715, 36.20827
279.2537, 37.45235
279.7358, 39.67420
280.2179, 40.19470
280.7000, 38.73345
281.1821, 36.83352
281.6642, 35.55811
282.1464, 34.90687
282.6285, 34.97096
283.1106, 36.14862
283.5927, 37.73400
284.0748, 37.38395
284.5569, 34.85485
285.0391, 32.58004
285.5212, 32.65545
286.0033, 34.84736
286.4854, 36.27771
286.9675, 36.33593
287.4496, 35.85108
287.9318, 36.93492
288.4139, 39.62671
288.8960, 41.52518
289.3781, 40.68448
289.8602, 37.65759
290.3423, 35.20265
290.8245, 33.56385
291.3066, 32.52890
291.7887, 31.87154
292.2708, 31.57361
292.7529, 31.50626
293.2350, 31.82072
293.7172, 32.32866
294.1993, 32.30955
294.6814, 31.62367
295.1635, 30.92052
295.6456, 31.09623
296.1277, 31.99592
296.6099, 32.97042
297.0920, 33.76796
297.5741, 34.41403
298.0562, 35.04875
298.5383, 35.69640
299.0204, 35.96959
299.5026, 35.59813
299.9847, 34.56051
300.4668, 32.73113
300.9489, 28.70425
301.4311, 24.58334
301.9132, 24.15194
302.3953, 27.26124
302.8774, 30.31390
303.3595, 29.37073
303.8416, 26.53164
304.3238, 25.60227
304.8059, 29.27321
305.2880, 33.92681
305.7701, 35.60376
306.2522, 34.71538
306.7343, 33.66592
307.2165, 34.20476
307.6986, 35.45074
308.1807, 36.29414
308.6628, 36.36375
309.1449, 36.14043
309.6270, 35.88779
310.1092, 35.62618
310.5913, 35.42993
311.0734, 35.40902
311.5555, 35.43285
312.0376, 35.41596
312.5197, 35.38917
313.0019, 35.19320
313.4840, 34.45396
313.9661, 33.48333
314.4482, 32.91045
314.9303, 33.51634
315.4124, 34.23692
315.8946, 34.24156
316.3767, 33.20666
316.8588, 32.62481
317.3409, 33.66211
317.8230, 35.36499
318.3051, 36.47240
318.7873, 36.08405
319.2694, 35.48817
319.7515, 35.31320
320.2336, 35.64530
320.7157, 35.62048
321.1978, 33.96473
321.6800, 32.31432
322.1621, 32.15533
322.6442, 35.66609
323.1263, 38.75370
323.6084, 40.61094
324.0905, 41.23365
324.5727, 40.91683
325.0548, 38.39614
325.5369, 35.78622
326.0190, 34.37097
326.5012, 35.66307
326.9833, 36.50310
327.4654, 36.10113
327.9475, 34.91633
328.4296, 34.81820
328.9117, 37.33435
329.3939, 39.58886
329.8760, 40.40245
330.3581, 39.00611
330.8402, 37.52240
331.3223, 35.40648
331.8044, 33.34129
332.2866, 32.81063
332.7687, 34.79729
333.2508, 36.90895
333.7329, 38.67290
334.2150, 40.38120
334.6971, 40.04707
335.1793, 36.32951
335.6614, 31.85864
336.1435, 30.38037
336.6256, 33.20504
337.1077, 35.48271
337.5898, 35.67477
338.0720, 33.94378
338.5541, 33.71865
339.0362, 35.61789
339.5183, 37.63965
340.0004, 37.68457
340.4825, 35.40375
340.9647, 33.59318
341.4468, 32.68937
341.9289, 32.59431
342.4110, 33.17537
342.8931, 34.52456
343.3752, 35.91240
343.8574, 36.99015
344.3395, 37.74333
344.8216, 37.70990
345.3037, 36.67200
345.7858, 35.17378
346.2679, 33.97435
346.7501, 33.07687
347.2322, 32.69936
347.7143, 33.30556
348.1964, 34.54467
348.6785, 35.27425
349.1607, 35.42553
349.6428, 35.26771
350.1249, 34.85031
350.6070, 34.32989
351.0891, 34.20453
351.5713, 34.97144
352.0534, 36.10871
352.5355, 36.91551
353.0176, 37.38369
353.4997, 37.60073
353.9818, 37.71175
354.4640, 37.59956
354.9461, 37.05077
355.4282, 35.82096
355.9103, 34.37497
356.3924, 32.67255
356.8745, 30.95138
357.3567, 30.17872
357.8388, 31.74256
358.3209, 34.00489
358.8030, 35.54865
359.2851, 35.94926
359.7672, 36.04151
360.2494, 36.05599
360.7315, 36.09069
361.2136, 36.32424
361.6957, 37.81119
362.1778, 38.71410
362.6599, 37.62114
363.1421, 34.07204
363.6242, 31.40496
364.1063, 30.88974
364.5884, 31.63555
365.0705, 32.73469
365.5526, 35.04097
366.0348, 36.59472
366.5169, 36.49871
366.9990, 34.87474
367.4811, 33.88545
367.9632, 34.44652
368.4453, 35.20621
368.9275, 35.38186
369.4096, 34.15893
369.8917, 33.47164
370.3738, 33.66892
370.8559, 34.41231
371.3380, 34.73959
371.8202, 34.35571
372.3023, 33.96668
372.7844, 33.97134
373.2665, 34.68546
373.7487, 34.35109
374.2308, 32.17466
374.7129, 29.74932
375.1950, 29.49927
375.6771, 32.28499
376.1592, 34.50958
376.6414, 35.18139
377.1235, 34.42762
377.6056, 33.39281
378.0877, 31.87433
378.5698, 30.70746
379.0519, 30.85847
379.5341, 32.33546
380.0162, 33.49730
380.4983, 34.00521
380.9804, 34.11533
381.4625, 34.45874
381.9446, 35.03041
382.4268, 35.34884
382.9089, 35.13639
383.3910, 34.44078
383.8731, 33.12384
384.3552, 30.97991
384.8373, 29.20292
385.3195, 29.54139
385.8016, 31.44988
386.2837, 33.33479
386.7658, 34.51059
387.2479, 35.24597
387.7300, 36.05161
388.2122, 36.89338
388.6943, 37.11044
389.1764, 35.33002
389.6585, 32.92488
390.1406, 31.75642
390.6227, 33.11152
391.1049, 34.72116
391.5870, 34.92667
392.0691, 34.14189
392.5512, 33.61345
393.0333, 34.50478
393.5154, 35.42406
393.9976, 35.38580
394.4797, 33.98165
394.9618, 32.57327
395.4439, 31.05569
395.9260, 29.93225
396.4081, 29.87203
396.8903, 32.96801
397.3724, 35.20576
397.8545, 34.88267
398.3366, 31.83463
398.8188, 29.99254
399.3009, 30.59733
399.7830, 31.84421
400.2651, 32.60470
400.7472, 32.56495
401.2293, 32.49848
401.7115, 32.36640
402.1936, 32.23895
402.6757, 32.35743
403.1578, 32.87832
403.6399, 33.37817
404.1220, 33.68488
404.6042, 33.78665
405.0863, 33.80508
405.5684, 33.80992
406.0505, 30.73562
406.5326, 34.33546
407.0147, 36.36396
407.4969, 36.90556
407.9790, 31.50684
408.4611, 33.77882
408.9432, 32.97672
409.4253, 32.04858
409.9074, 35.40017
410.3896, 30.86546
410.8717, 34.14918
411.3538, 34.31192
411.8359, 35.90306
412.3180, 34.40115
412.8001, 33.85458
413.2823, 36.40206
413.7644, 37.23634
414.2465, 35.37836
414.7286, 37.06030
415.2107, 32.41754
415.6928, 33.32479
416.1750, 36.62662
416.6571, 34.92416
417.1392, 36.66265
417.6213, 37.09064
418.1034, 31.56295
418.5855, 36.39278
419.0677, 36.74332
419.5498, 32.49461
420.0319, 36.96955
420.5140, 33.35490
420.9961, 32.62774
421.4782, 34.07359
421.9604, 33.25415
422.4425, 36.00622
422.9246, 35.31760
423.4067, 34.32157
423.8889, 34.66709
424.3710, 33.77540
424.8531, 34.80767
425.3352, 33.58673
425.8173, 34.76048
426.2994, 36.47702
426.7816, 34.03745
427.2637, 35.99788
427.7458, 31.13494
428.2279, 31.98136
428.7100, 32.21299
429.1921, 36.09391
429.6743, 31.26423
430.1564, 31.95202
430.6385, 34.44677
431.1206, 34.44419
431.6027, 34.01825
432.0848, 33.18832
432.5670, 29.69951
433.0491, 33.29565
433.5312, 35.32047
434.0133, 35.85838
434.4954, 30.45597
434.9775, 32.72425
435.4597, 31.91847
435.9418, 30.98664
436.4239, 34.33454
436.9060, 29.79614
437.3881, 33.07617
437.8702, 33.23522
438.3524, 34.82267
438.8345, 33.31707
439.3166, 32.76681
439.7987, 35.31060
440.2808, 36.14118
440.7629, 34.27952
441.2451, 35.95777
441.7272, 31.31132
442.2093, 32.21488
442.6914, 35.51301
443.1735, 33.80687
443.6556, 35.54167
444.1378, 35.96596
444.6199, 30.43459
445.1020, 35.26072
445.5841, 35.60757
446.0662, 31.35518
446.5483, 35.82642
447.0305, 32.20808
447.5126, 31.47723
447.9947, 32.91940
448.4768, 32.09627
448.9590, 34.84465
449.4411, 34.15233
449.9232, 33.15261
450.4053, 33.49444
450.8874, 32.59906
451.3695, 33.62764
451.8517, 32.40302
452.3338, 33.57308
452.8159, 35.28593
453.2980, 32.84267
453.7801, 34.79940
454.2622, 29.93278
454.7444, 30.77551
455.2265, 31.00344
455.7086, 34.88067
456.1907, 30.04731
456.6728, 30.73141
457.1549, 33.76476
457.6371, 33.51096
458.1192, 34.63154
458.6013, 31.68340
459.0834, 32.55751
459.5655, 32.37807
460.0476, 35.83926
460.5298, 36.42633
461.0119, 33.54723
461.4940, 30.68281
461.9761, 34.40601
462.4582, 31.88539
462.9403, 32.73325
463.4225, 30.10218
463.9046, 30.47490
464.3867, 30.79999
464.8688, 32.66489
465.3509, 32.35893
465.8330, 33.11303
466.3152, 32.86485
466.7973, 33.64782
467.2794, 34.31608
467.7615, 34.73961
468.2436, 34.04172
468.7257, 35.44017
469.2079, 32.36872
469.6900, 30.99330
470.1721, 30.82355
470.6542, 30.44924
471.1363, 30.25692
471.6184, 30.38274
472.1006, 30.75771
472.5827, 30.80721
473.0648, 31.56196
473.5469, 31.92450
474.0291, 31.85639
474.5112, 31.84999
474.9933, 32.48702
475.4754, 33.48623
475.9575, 33.45813
476.4396, 32.25380
476.9218, 30.79951
477.4039, 29.96255
477.8860, 29.63873
478.3681, 29.60910
478.8502, 29.85161
479.3323, 30.30065
479.8145, 31.17844
480.2966, 32.29208
480.7787, 32.90561
481.2608, 32.08445
481.7429, 31.03511
482.2250, 30.62152
482.7072, 31.02701
483.1893, 31.56662
483.6714, 32.41016
484.1535, 33.09246
484.6356, 33.15014
485.1177, 31.67386
485.5999, 30.53021
486.0820, 30.02691
486.5641, 30.07586
487.0462, 30.44403
487.5283, 31.82421
488.0104, 32.57804
488.4926, 31.74025
488.9747, 28.84963
489.4568, 27.51509
489.9389, 28.21509
490.4210, 29.63030
490.9031, 30.18579
491.3853, 29.80418
491.8674, 30.03702
492.3495, 31.54727
492.8316, 33.42663
493.3137, 33.48392
493.7958, 31.85619
494.2780, 30.04928
494.7601, 28.61703
495.2422, 27.69536
495.7243, 27.79368
496.2064, 28.97131
496.6885, 30.24242
497.1707, 30.97175
497.6528, 31.27478
498.1349, 31.27732
498.6170, 30.73604
499.0992, 30.31650
499.5813, 30.60578
500.0634, 31.30028
500.5455, 31.65744
501.0276, 31.11464
501.5097, 30.47373
501.9919, 30.13975
502.4740, 30.23561
502.9561, 29.94342
503.4382, 28.26047
503.9203, 26.83873
504.4024, 26.94923
504.8846, 29.86700
505.3667, 31.64652
505.8488, 31.71581
506.3309, 30.72758
506.8130, 29.96875
507.2951, 29.38753
507.7773, 29.31144
508.2594, 30.26293
508.7415, 31.88040
509.2236, 31.83890
509.7057, 30.01839
510.1878, 28.07142
510.6700, 27.62558
511.1521, 28.15015
511.6342, 27.79498
512.1163, 25.93388
512.5984, 24.40404
513.0806, 25.77561
513.5627, 28.90017
514.0448, 31.37746
514.5269, 31.94121
515.0090, 31.67826
515.4911, 30.77777
515.9733, 29.44787
516.4554, 28.97266
516.9375, 30.93377
517.4196, 33.09639
517.9017, 34.14639
518.3839, 33.67009
518.8660, 32.71251
519.3481, 30.85890
519.8302, 28.81759
520.3123, 27.32315
520.7944, 26.19316
521.2766, 26.00287
521.7587, 27.37264
522.2408, 29.67635
522.7229, 30.28336
523.2050, 28.73611
523.6871, 27.18979
524.1693, 27.02726
524.6514, 28.08526
525.1335, 27.93493
525.6156, 26.37605
526.0977, 24.91394
526.5798, 25.51475
527.0620, 27.47790
527.5441, 28.66201
528.0262, 28.36515
528.5083, 27.52868
528.9904, 26.82582
529.4725, 26.35120
529.9547, 26.34986
530.4368, 27.57486
530.9189, 28.81217
531.4010, 29.10802
531.8831, 28.45665
532.3652, 28.02858
532.8474, 28.12299
533.3295, 28.61561
533.8116, 29.53823
534.2937, 32.08553
534.7758, 32.93283
535.2579, 30.55688
535.7401, 27.16443
536.2222, 26.11161
536.7043, 28.45446
537.1864, 30.68814
537.6685, 32.30533
538.1506, 33.22186
538.6328, 32.61432
539.1149, 30.19715
539.5970, 28.00710
540.0791, 27.39884
540.5612, 28.09723
541.0433, 29.13493
541.5255, 30.55720
542.0076, 31.51277
542.4897, 30.50628
542.9718, 28.50225
543.4539, 27.52912
543.9360, 28.68619
544.4182, 30.08591
544.9003, 30.13451
545.3824, 29.30429
545.8645, 28.64550
546.3466, 28.51198
546.8287, 28.70687
547.3109, 29.35924
547.7930, 30.47178
548.2751, 31.12775
548.7572, 30.78134
549.2393, 30.25697
549.7214, 30.04926
550.2036, 30.60560
550.6857, 30.36960
551.1678, 28.80602
551.6499, 26.99465
552.1320, 26.61770
552.6141, 27.92754
553.0963, 28.97311
553.5784, 29.19008
554.0605, 28.95152
554.5426, 29.40380
555.0247, 30.49325
555.5068, 31.24390
555.9890, 30.83722
556.4711, 29.77849
556.9532, 28.74367
557.4353, 27.76546
557.9174, 27.35684
558.3995, 28.61648
558.8817, 30.33651
559.3638, 31.15993
559.8459, 30.46647
560.3281, 29.44697
560.8102, 28.14314
561.2923, 26.91417
561.7744, 26.33733
562.2565, 27.31080
562.7386, 28.07447
563.2208, 28.23478
563.7029, 27.86193
564.1850, 27.38223
564.6671, 26.54957
565.1492, 26.05916
565.6313, 26.43870
566.1135, 27.79411
566.5956, 28.40993
567.0777, 28.09809
567.5598, 27.69552
568.0419, 28.25520
568.5240, 29.55876
569.0062, 30.56927
569.4883, 31.15782
569.9704, 31.17309
570.4525, 29.91270
570.9346, 27.87283
571.4167, 26.38975
571.8989, 26.23597
572.3810, 26.68222
572.8631, 27.49990
573.3452, 28.57995
573.8273, 29.33472
574.3094, 29.10364
574.7916, 28.82472
575.2737, 29.15992
575.7558, 30.65878
576.2379, 31.14338
576.7200, 29.90468
577.2021, 28.18838
577.6843, 26.97944
578.1664, 26.18549
578.6485, 26.41413
579.1306, 28.36201
579.6127, 30.65417
580.0948, 29.99288
580.5770, 26.37629
581.0591, 23.51974
581.5412, 23.22465
582.0233, 24.48824
582.5054, 25.27297
582.9875, 25.61021
583.4697, 25.81194
583.9518, 26.02584
584.4339, 26.24048
584.9160, 26.32174
585.3981, 26.19863
585.8802, 26.51132
586.3624, 28.58116
586.8445, 30.73062
587.3266, 31.39998
587.8087, 28.41674
588.2908, 26.31606
588.7729, 26.18262
589.2551, 27.08147
589.7372, 27.41601
590.2193, 26.66679
590.7014, 26.42928
591.1835, 27.38558
591.6656, 29.16129
592.1478, 29.49131
592.6299, 28.13438
593.1120, 27.10172
593.5941, 28.04229
594.0762, 30.33289
594.5583, 31.66402
595.0405, 31.93464
595.5226, 31.78431
596.0047, 31.78389
596.4868, 31.71194
596.9689, 31.20092
597.4510, 30.03467
597.9332, 28.77244
598.4153, 27.40018
598.8974, 26.22965
599.3795, 25.67865
599.8616, 26.58859
600.3438, 27.32868
600.8259, 27.42174
601.3080, 27.01316
601.7901, 26.64593
602.2722, 26.27020
602.7543, 26.02146
603.2365, 25.92656
603.7186, 25.98699
604.2007, 26.42541
604.6828, 27.35928
605.1649, 28.08925
605.6470, 27.79441
606.1292, 26.75212
606.6113, 26.05452
607.0934, 25.80376
607.5755, 26.06448
608.0576, 27.38628
608.5398, 29.17809
609.0219, 30.41735
609.5040, 30.74578
609.9861, 30.51217
610.4683, 29.47289
610.9504, 28.04232
611.4325, 27.09842
611.9146, 27.35486
612.3967, 27.64031
612.8788, 27.70537
613.3610, 27.54332
613.8431, 26.96844
614.3252, 25.67576
614.8073, 24.48795
615.2894, 23.72108
615.7715, 23.37105
616.2537, 23.77597
616.7358, 25.06819
617.2179, 26.47386
617.7000, 27.09399
618.1821, 27.15534
618.6642, 27.54589
619.1464, 28.56615
619.6285, 29.41556
620.1106, 29.08031
620.5927, 28.04845
621.0748, 27.16386
621.5569, 26.53256
622.0391, 26.32757
622.5212, 27.12461
623.0033, 28.46456
623.4854, 28.94522
623.9675, 27.07119
624.4496, 25.61364
624.9318, 25.56045
625.4139, 26.87537
625.8960, 27.57364
626.3781, 27.44198
626.8602, 27.17523
627.3423, 27.33868
627.8245, 27.90320
628.3066, 27.56865
628.7887, 26.12897
629.2708, 24.91503
629.7529, 25.79485
630.2350, 27.90969
630.7172, 29.30785
631.1993, 29.47585
631.6814, 29.09113
632.1635, 28.25349
632.6456, 27.32928
633.1277, 26.88747
633.6099, 27.96285
634.0920, 28.64566
634.5741, 28.02088
635.0562, 26.46472
635.5383, 25.42695
636.0204, 24.99404
636.5026, 25.03047
636.9847, 25.73655
637.4668, 27.02326
637.9489, 27.37294
638.4310, 26.59095
638.9131, 25.76602
639.3953, 25.61357
639.8774, 26.03629
640.3595, 26.68582
640.8416, 27.56890
641.3237, 28.36329
641.8058, 28.85580
642.2880, 29.02843
642.7701, 28.79342
643.2522, 28.00939
643.7343, 27.15336
644.2164, 25.91293
644.6985, 24.91670
645.1807, 25.01100
645.6628, 28.23590
646.1449, 30.24945
646.6270, 29.87730
647.1091, 28.06387
647.5912, 27.28439
648.0734, 27.97196
648.5555, 28.43398
649.0376, 27.97166
649.5197, 26.88238
650.0018, 26.63600
650.4839, 27.22009
650.9661, 27.72170
651.4482, 27.20717
651.9303, 26.34565
652.4124, 26.70076
652.8945, 28.29102
653.3766, 29.13339
653.8588, 26.59738
654.3409, 23.55483
654.8230, 22.63161
655.3051, 25.17421
655.7872, 27.24340
656.2693, 27.65025
656.7515, 27.37700
657.2336, 27.38265
657.7158, 27.90339
658.1979, 28.19240
658.6800, 28.19053
659.1621, 27.93583
659.6442, 27.39401
660.1263, 26.56190
660.6085, 25.83322
661.0906, 25.14821
661.5727, 24.86588
662.0548, 26.07776
662.5369, 28.36796
663.0190, 30.15183
663.5012, 30.24776
663.9833, 29.76952
664.4654, 29.58842
664.9475, 29.66321
665.4296, 29.44470
665.9117, 28.06561
666.3939, 26.93899
666.8760, 26.96350
667.3581, 28.38596
667.8402, 29.24806
668.3223, 29.41136
668.8044, 29.24720
669.2866, 29.07976
669.7687, 28.92846
670.2508, 28.04677
670.7329, 26.15844
671.2150, 24.58395
671.6971, 25.37528
672.1793, 27.63348
672.6614, 28.90069
673.1435, 28.26791
673.6256, 27.44733
674.1077, 28.13066
674.5898, 29.44954
675.0720, 30.05303
675.5541, 28.35525
676.0362, 27.20090
676.5183, 27.98123
677.0004, 29.86230
677.4825, 30.48491
677.9647, 29.08506
678.4468, 27.94286
678.9289, 27.97188
679.4110, 28.72584
679.8931, 27.51233
680.3752, 24.16572
680.8574, 21.71279
681.3395, 22.74751
681.8216, 25.65768
682.3037, 26.87592
682.7858, 26.50078
683.2679, 26.21480
683.7501, 27.56519
684.2322, 29.21586
684.7143, 30.03961
685.1964, 29.78267
685.6785, 29.37370
686.1606, 29.26983
686.6428, 28.93447
687.1249, 27.82496
687.6070, 24.72394
688.0891, 23.97906
688.5712, 26.71076
689.0533, 29.99882
689.5355, 29.41817
690.0176, 25.22330
690.4997, 24.05144
690.9818, 27.98637
691.4639, 32.79383
691.9460, 31.92545
692.4282, 27.53033
692.9103, 24.36648
693.3924, 25.23133
693.8745, 26.64960
694.3566, 26.54346
694.8387, 25.49243
695.3209, 24.85917
695.8030, 25.36257
696.2851, 25.85279
696.7672, 25.94558
697.2493, 25.78753
697.7314, 26.21586
698.2136, 27.44414
698.6957, 28.56205
699.1778, 29.21912
699.6599, 29.44315
700.1420, 29.11085
700.6241, 28.26475
701.1063, 27.75776
701.5884, 28.65186
702.0705, 29.97778
702.5526, 30.53376
703.0347, 30.23328
703.5168, 29.67869
703.9990, 28.85198
704.4811, 28.10359
704.9632, 27.70648
705.4453, 27.81787
705.9274, 27.92814
706.4095, 28.09778
706.8917, 28.19363
707.3738, 28.07565
707.8560, 27.72198
708.3381, 27.32586
708.8202, 26.84061
709.3023, 26.52718
709.7844, 27.21923
710.2665, 28.36108
710.7487, 28.17694
711.2308, 25.63594
711.7129, 23.18181
712.1950, 22.77506
712.6771, 23.68882
713.1592, 24.82907
713.6414, 26.46880
714.1235, 27.58849
714.6056, 27.45481
715.0877, 26.73957
715.5698, 26.83411
716.0519, 28.15851
716.5341, 29.17505
717.0162, 29.44180
717.4983, 29.20006
717.9804, 29.12073
718.4625, 29.18775
718.9446, 29.18195
719.4268, 28.80805
719.9089, 28.42804
720.3910, 28.70366
720.8731, 29.45300
721.3552, 29.91452
721.8373, 29.33713
722.3195, 28.69241
722.8016, 28.73886
723.2837, 29.51032
723.7658, 29.34166
724.2479, 27.54472
724.7300, 25.64392
725.2122, 23.93414
725.6943, 22.38646
726.1764, 24.12851
726.6585, 29.88393
727.1406, 34.43306
727.6227, 31.83668
728.1049, 25.31835
728.5870, 22.98887
729.0691, 25.57113
729.5512, 28.38524
730.0333, 27.62562
730.5154, 25.78161
730.9976, 25.26938
731.4797, 27.00836
731.9618, 28.43027
732.4439, 28.78113
732.9260, 28.86159
733.4081, 29.38207
733.8903, 30.74412
734.3724, 31.06162
734.8545, 29.99094
735.3366, 28.46820
735.8187, 27.69392
736.3008, 27.52025
736.7830, 27.26502
737.2651, 26.77106
737.7472, 26.21380
738.2293, 25.52039
738.7114, 24.95119
739.1935, 24.92172
739.6757, 26.43807
740.1578, 27.38698
740.6399, 26.35289
741.1220, 24.62818
741.6041, 24.54788
742.0862, 27.24906
742.5684, 29.07719
743.0505, 29.39851
743.5326, 28.59222
744.0147, 27.01595
744.4968, 24.80151
744.9789, 23.51174
745.4611, 23.84375
745.9432, 25.24586
746.4253, 28.12215
746.9074, 31.53741
747.3895, 33.02414
747.8716, 29.05769
748.3538, 25.38128
748.8359, 24.91886
749.3180, 27.04375
749.8001, 28.20237
750.2822, 27.61319
750.7643, 27.23277
751.2465, 27.81589
751.7286, 29.06203
752.2107, 29.41426
752.6928, 28.86079
753.1749, 28.20480
753.6570, 28.05576
754.1392, 28.02005
754.6213, 27.05486
755.1034, 25.41506
755.5855, 24.61440
756.0676, 26.94744
756.5498, 29.08749
757.0319, 28.45187
757.5140, 24.81760
757.9962, 23.25654
758.4783, 25.58939
758.9604, 27.77908
759.4425, 27.75289
759.9246, 25.59355
760.4067, 24.89621
760.8889, 25.80735
761.3710, 26.88424
761.8531, 27.08798
762.3352, 26.70564
762.8173, 26.06865
763.2994, 25.22523
763.7816, 24.81179
764.2637, 25.56493
764.7458, 26.66171
765.2279, 27.64117
765.7100, 28.59564
766.1921, 28.67101
766.6743, 27.19278
767.1564, 25.63722
767.6385, 25.08923
768.1206, 25.73176
768.6027, 25.42755
769.0848, 24.00333
769.5670, 22.59913
770.0491, 22.47540
770.5312, 23.06210
771.0133, 23.05524
771.4954, 22.21510
771.9775, 21.81214
772.4597, 23.42350
772.9418, 25.33984
773.4239, 25.98659
773.9060, 24.25977
774.3881, 23.58924
774.8702, 24.94827
775.3524, 26.41410
775.8345, 26.02435
776.3166, 23.51462
776.7987, 22.66647
777.2808, 23.97665
777.7629, 25.60693
778.2451, 25.18118
778.7272, 23.70988
779.2093, 23.39652
779.6914, 24.98186
780.1735, 26.27977
780.6556, 25.58356
781.1378, 24.16557
781.6199, 23.24233
782.1020, 23.12601
782.5841, 23.37218
783.0662, 24.10499
783.5483, 25.06460
784.0305, 26.17185
784.5126, 27.46810
784.9947, 27.70533
785.4768, 26.58030
785.9589, 25.11728
786.4410, 24.42853
786.9232, 24.27113
787.4053, 24.25107
787.8874, 24.39955
788.3695, 24.31760
788.8516, 23.46353
789.3337, 22.43992
789.8159, 21.93082
790.2980, 22.16498
790.7801, 22.61500
791.2622, 23.34239
791.7443, 24.18305
792.2264, 24.97798
792.7086, 25.72358
793.1907, 26.19095
793.6728, 26.36272
794.1549, 26.18672
794.6370, 24.96648
795.1191, 23.53848
795.6013, 23.40208
796.0834, 25.89375
796.5655, 27.83581
797.0476, 28.03235
797.5297, 27.08728
798.0118, 25.68376
798.4940, 23.16411
798.9761, 21.84539
799.4582, 22.24110
799.9403, 23.24970
800.4224, 23.16140
800.9045, 22.24380
801.3867, 22.24898
801.8688, 23.76010
802.3509, 25.39455
802.8330, 25.85674
803.3151, 25.55579
803.7972, 25.04145
804.2794, 24.36083
804.7615, 23.64269
805.2436, 22.66611
805.7258, 21.80151
806.2079, 21.40887
806.6900, 21.46247
807.1721, 22.29340
807.6542, 24.24406
808.1364, 26.11584
808.6185, 25.96403
809.1006, 24.40582
809.5827, 23.23794
810.0648, 22.86478
810.5469, 22.94602
811.0291, 23.45434
811.5112, 24.17552
811.9933, 24.88551
812.4754, 26.01160
812.9575, 26.30252
813.4396, 25.12693
813.9218, 23.68064
814.4039, 23.48784
814.8860, 24.65568
815.3681, 25.21798
815.8502, 24.85251
816.3323, 24.33254
816.8145, 24.95460
817.2966, 25.96056
817.7787, 25.81223
818.2608, 23.70741
818.7429, 21.99022
819.2250, 21.99711
819.7072, 22.80946
820.1893, 23.61365
820.6714, 24.89161
821.1535, 24.81679
821.6356, 22.69384
822.1177, 20.46216
822.5999, 20.56890
823.0820, 22.62204
823.5641, 23.94586
824.0462, 24.18076
824.5283, 24.16430
825.0104, 24.93327
825.4926, 25.74952
825.9747, 25.53063
826.4568, 23.51046
826.9389, 22.41166
827.4210, 24.10062
827.9031, 25.93403
828.3853, 25.89110
828.8674, 23.23612
829.3495, 22.58178
829.8316, 24.37787
830.3137, 26.34494
830.7958, 25.90598
831.2780, 24.07955
831.7601, 23.10690
832.2422, 23.26493
832.7243, 23.44457
833.2064, 22.80378
833.6885, 22.01713
834.1707, 21.53819
834.6528, 21.40073
835.1349, 21.81463
835.6170, 23.16778
836.0991, 24.41282
836.5812, 24.89280
837.0634, 24.62959
837.5455, 23.60513
838.0276, 21.79122
838.5097, 20.60369
838.9918, 21.88296
839.4739, 23.86800
839.9561, 24.52333
840.4382, 23.73557
840.9203, 23.09412
841.4024, 23.67648
841.8845, 23.94912
842.3666, 22.89845
842.8488, 20.57766
843.3309, 20.10397
843.8130, 21.82239
844.2951, 23.45749
844.7772, 23.42377
845.2593, 22.43348
845.7415, 22.14317
846.2236, 22.43569
846.7057, 22.69138
847.1878, 22.49076
847.6699, 22.22543
848.1520, 22.02375
848.6342, 21.92652
849.1163, 22.16823
849.5984, 23.01752
850.0805, 23.67588
850.5626, 23.92115
851.0447, 23.76517
851.5269, 23.09512
852.0090, 21.97179
852.4911, 20.87841
852.9732, 19.62912
853.4553, 18.93456
853.9374, 20.06615
854.4196, 22.24822
854.9017, 23.56997
855.3839, 22.39135
855.8660, 21.63006
856.3481, 22.14571
856.8302, 23.27149
857.3123, 23.44879
857.7944, 22.59776
858.2766, 21.85206
858.7587, 21.45188
859.2408, 21.37333
859.7229, 21.81965
860.2050, 22.53008
860.6871, 22.95189
861.1693, 22.69560
861.6514, 22.45004
862.1335, 22.66832
862.6156, 22.94499
863.0977, 22.67545
863.5798, 21.45555
864.0620, 20.82635
864.5441, 20.90432
865.0262, 21.61046
865.5083, 23.57823
865.9904, 26.10507
866.4725, 26.67879
866.9547, 24.48916
867.4368, 22.51197
867.9189, 23.57275
868.4010, 25.39994
868.8831, 25.80051
869.3652, 23.70799
869.8474, 22.06546
870.3295, 20.78181
870.8116, 20.12330
871.2937, 20.61458
871.7758, 22.11396
872.2579, 22.81694
872.7401, 22.67203
873.2222, 22.62069
873.7043, 23.89838
874.1864, 25.31630
874.6685, 25.52127
875.1506, 24.39849
875.6328, 23.56281
876.1149, 23.79238
876.5970, 23.97054
877.0791, 23.63805
877.5612, 22.85975
878.0433, 22.29805
878.5255, 21.95972
879.0076, 21.69768
879.4897, 21.51414
879.9718, 21.31175
880.4539, 20.85689
880.9360, 20.24764
881.4182, 19.82268
881.9003, 19.38169
882.3824, 19.53634
882.8645, 21.18063
883.3466, 23.45884
883.8287, 24.03897
884.3109, 22.59454
884.7930, 21.24200
885.2751, 20.42679
885.7572, 20.17767
886.2393, 20.97724
886.7214, 22.36461
887.2036, 23.18681
887.6857, 22.83142
888.1678, 22.20102
888.6499, 21.49376
889.1320, 20.82342
889.6141, 20.31635
890.0963, 19.92716
890.5784, 19.85291
891.0605, 20.15651
891.5426, 20.65648
892.0247, 21.28148
892.5068, 21.93296
892.9890, 22.28649
893.4711, 22.27383
893.9532, 22.16553
894.4353, 21.87107
894.9174, 21.74719
895.3995, 22.26756
895.8817, 23.80542
896.3638, 24.28128
896.8459, 23.24385
897.3280, 22.07628
897.8101, 21.77160
898.2922, 22.11511
898.7744, 21.97119
899.2565, 21.35715
899.7386, 20.46877
900.2207, 18.44552
900.7028, 17.02403
901.1849, 18.05963
901.6671, 21.16641
902.1492, 23.28105
902.6313, 23.77015
903.1134, 23.75282
903.5955, 23.38872
904.0776, 22.80538
904.5598, 22.30777
905.0419, 21.90125
905.5240, 21.63164
906.0062, 21.65307
906.4883, 21.59382
906.9704, 20.84299
907.4525, 19.86284
907.9346, 19.39234
908.4167, 20.06146
908.8989, 20.68600
909.3810, 21.37863
909.8631, 21.77672
910.3452, 21.04079
910.8273, 19.31035
911.3094, 18.97541
911.7916, 20.49334
912.2737, 21.99505
912.7558, 21.72369
913.2379, 20.51923
913.7200, 19.05500
914.2021, 17.23067
914.6843, 16.34502
915.1664, 17.05273
915.6485, 18.13758
916.1306, 19.06269
916.6127, 19.82405
917.0948, 20.27034
917.5770, 20.40475
918.0591, 20.58553
918.5412, 21.26135
919.0233, 21.94353
919.5054, 22.14212
919.9875, 21.89078
920.4697, 21.39814
920.9518, 20.15590
921.4339, 19.42151
921.9160, 19.74509
922.3981, 20.57810
922.8802, 20.17247
923.3624, 18.60032
923.8445, 18.40568
924.3266, 20.97549
924.8087, 23.59289
925.2908, 22.62180
925.7729, 19.98912
926.2551, 18.56035
926.7372, 19.91883
927.2193, 21.00229
927.7014, 21.32720
928.1835, 21.40788
928.6656, 21.70735
929.1478, 22.22428
929.6299, 22.77169
930.1120, 23.36562
930.5941, 23.51000
931.0762, 22.00886
931.5583, 20.31875
932.0405, 20.27633
932.5226, 22.01921
933.0047, 23.28197
933.4868, 23.62065
933.9689, 23.24507
934.4510, 21.86596
934.9332, 19.83607
935.4153, 19.11676
935.8974, 19.65535
936.3795, 20.45527
936.8616, 21.38512
937.3438, 21.98108
937.8259, 21.26261
938.3080, 19.93595
938.7901, 19.42709
939.2722, 21.13448
939.7543, 22.29737
940.2365, 22.60159
940.7186, 22.28400
941.2007, 21.17083
941.6828, 19.44011
942.1649, 19.59513
942.6470, 22.22263
943.1292, 24.73386
943.6113, 24.25868
944.0934, 22.81565
944.5755, 22.62781
945.0576, 24.39752
945.5397, 24.87892
946.0219, 23.10047
946.5040, 21.24533
946.9861, 20.31797
947.4682, 20.26093
947.9503, 21.00843
948.4324, 22.47239
948.9146, 23.88466
949.3967, 25.30779
949.8788, 26.04374
950.3609, 25.30039
950.8430, 23.44375
951.3251, 21.49426
951.8073, 18.78403
952.2894, 17.58850
952.7715, 18.70521
953.2536, 20.74725
953.7357, 21.31594
954.2179, 20.79352
954.7000, 20.78152
955.1821, 21.72189
955.6642, 22.65500
956.1464, 23.13884
956.6285, 23.15571
957.1106, 22.51386
957.5927, 20.90797
958.0748, 20.17263
958.5569, 20.58250
959.0391, 21.12287
959.5212, 20.82890
960.0033, 20.19637
960.4854, 21.09872
960.9675, 23.21778
961.4496, 24.72217
961.9318, 24.22362
962.4139, 23.30589
962.8960, 22.45163
963.3781, 21.81970
963.8602, 21.87265
964.3423, 22.87009
964.8245, 23.42289
965.3066, 23.18870
965.7887, 22.58444
966.2708, 22.01527
966.7529, 21.56398
967.2350, 21.47911
967.7172, 21.97845
968.1993, 22.24814
968.6814, 21.38653
969.1635, 20.70485
969.6456, 21.35706
970.1277, 23.55113
970.6099, 24.13496
971.0920, 23.01163
971.5741, 21.58079
972.0562, 20.57844
972.5383, 19.98300
973.0204, 19.80111
973.5026, 20.00647
973.9847, 20.48639
974.4668, 21.76262
974.9489, 22.57314
975.4310, 22.49909
975.9131, 21.95011
976.3953, 21.74941
976.8774, 21.87207
977.3595, 21.97686
977.8416, 22.00295
978.3237, 21.93302
978.8058, 21.57375
979.2880, 21.20726
979.7701, 21.18188
980.2522, 21.71501
980.7343, 22.03124
981.2164, 22.04473
981.6985, 21.95907
982.1807, 21.86872
982.6628, 21.78409
983.1449, 21.73636
983.6270, 21.73162
984.1091, 21.80889
984.5912, 22.14330
985.0734, 22.40984
985.5555, 22.58132
986.0376, 22.51337
986.5197, 21.72319
987.0018, 19.59279
987.4839, 19.01246
987.9661, 20.80667
988.4482, 23.18753
988.9303, 23.84507
989.4124, 23.28211
989.8945, 22.22333
990.3766, 20.65212
990.8588, 19.61009
991.3409, 19.65358
991.8230, 20.28230
992.3051, 21.39308
992.7872, 22.92708
993.2693, 23.64478
993.7515, 23.52500
994.2336, 23.19990
994.7157, 22.89299
995.1978, 22.67196
995.6799, 22.52864
996.1620, 22.53555
996.6442, 22.86180
997.1263, 24.20301
997.6084, 24.88425
998.0905, 24.40668
998.5726, 23.66591
999.0547, 24.19907
999.5369, 25.64670
1000.019, 25.37384
1000.501, 22.97021
1000.983, 20.90451
1001.465, 21.17107
1001.947, 22.31535
1002.430, 23.51384
1002.912, 24.68569
1003.394, 24.95076
1003.876, 24.03031
1004.358, 23.07006
1004.840, 22.33263
1005.322, 22.01855
1005.804, 23.07184
1006.287, 24.82441
1006.769, 25.61007
1007.251, 23.88213
1007.733, 22.53241
1008.215, 22.85563
1008.697, 23.66180
1009.179, 23.84547
1009.661, 23.31597
1010.143, 23.26526
1010.626, 23.76073
1011.108, 24.31887
1011.590, 24.76685
1012.072, 24.92708
1012.554, 24.36780
1013.036, 23.22297
1013.518, 22.60057
1014.000, 22.86908
1014.483, 23.35797
1014.965, 24.08788
1015.447, 24.74138
1015.929, 24.40692
1016.411, 23.41124
1016.893, 22.98265
1017.375, 23.52393
1017.857, 24.33577
1018.339, 25.07755
1018.822, 25.84205
1019.304, 26.86497
1019.786, 28.30356
1020.268, 28.62738
1020.750, 27.70521
1021.232, 26.50332
1021.714, 25.48973
1022.196, 24.65030
1022.679, 24.20601
1023.161, 23.93632
1023.643, 23.21045
1024.125, 19.99047
1024.607, 18.94857
1025.089, 21.91927
1025.571, 26.07425
1026.053, 27.26032
1026.535, 25.83361
1027.018, 24.60878
1027.500, 23.89479
1027.982, 23.73601
1028.464, 24.68826
1028.946, 25.79952
1029.428, 26.25079
1029.910, 26.00681
1030.392, 26.05349
1030.875, 26.56304
1031.357, 26.67840
1031.839, 25.86060
1032.321, 24.83739
1032.803, 25.12129
1033.285, 26.16508
1033.767, 26.81056
1034.249, 26.57911
1034.731, 26.15552
1035.214, 25.42342
1035.696, 24.83187
1036.178, 24.64543
1036.660, 24.86646
1037.142, 25.86837
1037.624, 27.60443
1038.106, 29.26243
1038.588, 31.31915
1039.071, 32.15087
1039.553, 29.17948
1040.035, 23.91335
1040.517, 21.58390
1040.999, 23.58518
1041.481, 25.18824
1041.963, 25.69094
1042.445, 25.65405
1042.927, 25.62298
1043.410, 25.66307
1043.892, 25.98065
1044.374, 26.64701
1044.856, 27.11165
1045.338, 27.50265
1045.820, 27.21826
1046.302, 25.66155
1046.784, 23.24204
1047.266, 22.03927
1047.749, 22.00488
1048.231, 22.78662
1048.713, 24.82167
1049.195, 26.56864
1049.677, 26.27213
1050.159, 25.19135
1050.641, 25.12412
1051.123, 26.73815
1051.606, 27.97709
1052.088, 28.98641
1052.570, 29.09472
1053.052, 27.05431
1053.534, 24.08767
1054.016, 22.15436
1054.498, 21.32960
1054.980, 21.66373
1055.463, 24.42573
1055.945, 26.80018
1056.427, 28.25458
1056.909, 28.87141
1057.391, 28.58203
1057.873, 27.48085
1058.355, 26.04001
1058.837, 24.20947
1059.319, 23.41323
1059.802, 25.92804
1060.284, 28.96342
1060.766, 30.46285
1061.248, 30.39637
1061.730, 29.65536
1062.212, 28.05322
1062.694, 26.71066
1063.176, 25.95785
1063.658, 25.82963
1064.141, 27.04568
1064.623, 28.71772
1065.105, 29.31255
1065.587, 28.05380
1066.069, 26.39616
1066.551, 23.90459
1067.033, 22.00302
1067.515, 22.06693
1067.998, 23.63918
1068.480, 24.29690
1068.962, 24.16914
1069.444, 23.95708
1069.926, 23.91855
1070.408, 24.02466
1070.890, 24.07435
1071.372, 24.35839
1071.854, 25.62406
1072.337, 28.09781
1072.819, 28.98117
1073.301, 27.84787
1073.783, 26.48613
1074.265, 26.70239
1074.747, 27.43090
1075.229, 27.64731
1075.711, 27.30206
1076.193, 26.87922
1076.676, 26.27225
1077.158, 25.95812
1077.640, 26.08624
1078.122, 26.53163
1078.604, 27.40664
1079.086, 28.36066
1079.568, 28.54182
1080.051, 27.53879
1080.533, 26.73350
1081.015, 26.63657
1081.497, 26.85045
1081.979, 27.35221
1082.461, 28.02101
1082.943, 27.82402
1083.425, 26.92823
1083.907, 26.63183
1084.390, 28.18604
1084.872, 29.61843
1085.354, 29.55533
1085.836, 28.69244
1086.318, 27.88725
1086.800, 27.02012
1087.282, 27.06359
1087.764, 28.20186
1088.246, 28.89157
1088.729, 26.89325
1089.211, 24.51794
1089.693, 24.55884
1090.175, 26.61672
1090.657, 28.93738
1091.139, 32.45729
1091.621, 33.67297
1092.103, 31.50757
1092.586, 28.18744
1093.068, 26.46973
1093.550, 25.96457
1094.032, 25.91013
1094.514, 26.21383
1094.996, 26.35655
1095.478, 25.33736
1095.960, 25.07432
1096.443, 26.60094
1096.925, 29.18738
1097.407, 30.77491
1097.889, 31.45255
1098.371, 31.81343
1098.853, 31.99637
1099.335, 31.99535
1099.817, 31.88518
1100.299, 31.51768
1100.781, 30.59070
1101.264, 29.07248
1101.746, 28.36794
1102.228, 28.51146
1102.710, 28.94066
1103.192, 29.35456
1103.674, 29.94395
1104.156, 31.39643
1104.638, 33.01241
1105.121, 33.63060
1105.603, 32.66439
1106.085, 31.28851
1106.567, 29.21231
1107.049, 27.54765
1107.531, 27.65981
1108.013, 28.58237
1108.495, 28.06711
1108.978, 26.52660
1109.460, 25.73110
1109.942, 26.76225
1110.424, 28.11239
1110.906, 29.89714
1111.388, 31.36704
1111.870, 31.28478
1112.352, 30.01014
1112.834, 29.00416
1113.317, 28.39273
1113.799, 28.06162
1114.281, 28.02546
1114.763, 28.17168
1115.245, 28.45221
1115.727, 28.86297
1116.209, 29.59803
1116.691, 30.63312
1117.173, 30.83312
1117.656, 29.81283
1118.138, 28.74048
1118.620, 28.73828
1119.102, 29.03047
1119.584, 28.83447
1120.066, 28.15003
1120.548, 28.11444
1121.030, 28.83245
1121.513, 29.47685
1121.995, 29.75330
1122.477, 29.79872
1122.959, 29.61632
1123.441, 29.39036
1123.923, 29.45710
1124.405, 30.19864
1124.887, 30.12324
1125.370, 28.92756
1125.852, 27.70047
1126.334, 26.90698
1126.816, 26.63419
1127.298, 27.34639
1127.780, 28.69122
1128.262, 29.82308
1128.744, 30.97155
1129.226, 30.96191
1129.709, 29.07004
1130.191, 27.08212
1130.673, 26.64469
1131.155, 27.39496
1131.637, 28.03670
1132.119, 28.53025
1132.601, 28.84969
1133.083, 28.53743
1133.566, 28.62565
1134.048, 29.84783
1134.530, 31.29590
1135.012, 31.67080
1135.494, 31.07065
1135.976, 30.60627
1136.458, 30.36878
1136.940, 30.01417
1137.422, 28.63472
1137.905, 27.72967
1138.387, 28.67279
1138.869, 30.68758
1139.351, 31.81511
1139.833, 32.01945
1140.315, 32.49955
1140.797, 33.52961
1141.279, 34.43220
1141.761, 34.75473
1142.244, 34.56964
1142.726, 33.69843
1143.208, 32.23295
1143.690, 31.28479
1144.172, 30.88848
1144.654, 30.80864
1145.136, 30.89409
1145.618, 31.50732
1146.101, 34.37711
1146.583, 37.32816
1147.065, 37.30467
1147.547, 32.98008
1148.029, 30.24794
1148.511, 29.41793
1148.993, 29.52049
1149.475, 30.44445
1149.958, 31.62000
1150.440, 32.16106
1150.922, 32.25692
1151.404, 32.26748
1151.886, 32.36980
1152.368, 32.07810
1152.850, 31.07388
1153.332, 30.33396
1153.814, 30.58957
1154.297, 31.47828
1154.779, 32.21562
1155.261, 32.81382
1155.743, 33.27742
1156.225, 33.84513
1156.707, 33.87286
1157.189, 33.02385
1157.671, 32.08942
1158.153, 31.62876
1158.636, 31.64842
1159.118, 32.58746
1159.600, 34.16160
1160.082, 34.98928
1160.564, 33.71783
1161.046, 32.48570
1161.528, 31.89604
1162.010, 31.59759
1162.493, 31.03135
1162.975, 30.34463
1163.457, 30.93476
1163.939, 32.70857
1164.421, 33.66359
1164.903, 31.65973
1165.385, 29.64600
1165.867, 28.51675
1166.349, 28.45848
1166.832, 30.62166
1167.314, 34.70453
1167.796, 36.16447
1168.278, 34.48777
1168.760, 32.38738
1169.242, 30.70523
1169.724, 30.23601
1170.206, 32.68611
1170.688, 36.40662
1171.171, 37.00843
1171.653, 34.55007
1172.135, 32.94118
1172.617, 33.01016
1173.099, 33.16950
1173.581, 31.38054
1174.063, 29.80060
1174.545, 30.52232
1175.028, 33.00301
1175.510, 34.84222
1175.992, 36.05675
1176.474, 36.44101
1176.956, 35.79407
1177.438, 34.95716
1177.920, 34.89517
1178.402, 34.88475
1178.885, 33.96982
1179.367, 32.20295
1179.849, 31.54380
1180.331, 32.03726
1180.813, 33.29110
1181.295, 35.65179
1181.777, 37.48159
1182.259, 36.37867
1182.741, 34.22856
1183.224, 33.07610
1183.706, 33.14865
1184.188, 33.88564
1184.670, 35.48466
1185.152, 36.28048
1185.634, 35.04968
1186.116, 33.51809
1186.598, 33.71502
1187.081, 34.81509
1187.563, 35.79520
1188.045, 36.62517
1188.527, 36.85025
1189.009, 36.42640
1189.491, 35.62475
1189.973, 34.30695
1190.455, 33.02980
1190.938, 32.28612
1191.420, 32.13029
1191.902, 32.75756
1192.384, 34.63147
1192.866, 36.06374
1193.348, 37.12573
1193.830, 37.39846
1194.312, 35.90396
1194.794, 34.05981
1195.276, 33.65977
1195.759, 34.31488
1196.241, 35.30828
1196.723, 37.08575
1197.205, 37.72616
1197.687, 36.96651
1198.169, 36.13494
1198.651, 36.32860
1199.133, 37.00931
1199.616, 37.77020
1200.098, 38.40426
1200.580, 38.35528
1201.062, 37.21288
1201.544, 36.06622
1202.026, 34.79361
1202.508, 34.23478
1202.990, 35.83805
1203.473, 38.08379
1203.955, 38.90734
1204.437, 38.63913
1204.919, 38.64032
1205.401, 39.80914
1205.883, 39.24726
1206.365, 36.22955
1206.847, 33.50758
1207.329, 34.38126
1207.812, 36.63204
1208.294, 37.41969
1208.776, 36.99674
1209.258, 37.01775
1209.740, 38.27931
1210.222, 38.27496
1210.704, 36.46197
1211.186, 34.41889
1211.668, 33.56724
1212.151, 33.52381
1212.633, 34.16364
1213.115, 35.27465
1213.597, 35.82351
1214.079, 35.76298
1214.561, 34.90889
1215.043, 32.96194
1215.525, 31.41078
1216.008, 32.12131
1216.490, 33.94308
1216.972, 35.88357
1217.454, 37.72817
1217.936, 38.61386
1218.418, 38.49010
1218.900, 37.31913
1219.382, 34.71734
1219.865, 32.69834
1220.347, 34.10945
1220.829, 36.89270
1221.311, 39.14307
1221.793, 40.56833
1222.275, 40.61412
1222.757, 38.61280
1223.239, 38.29966
1223.721, 40.78936
1224.203, 43.24961
1224.686, 42.31930
1225.168, 39.94304
1225.650, 37.67525
1226.132, 35.81168
1226.614, 35.31610
1227.096, 36.52485
1227.578, 37.22729
1228.061, 36.85754
1228.543, 36.33087
1229.025, 36.33600
1229.507, 36.86893
1229.989, 38.26781
1230.471, 40.35818
1230.953, 41.59437
1231.435, 41.95670
1231.917, 41.51975
1232.400, 40.09354
1232.882, 38.91223
1233.364, 39.45013
1233.846, 40.52804
1234.328, 41.27657
1234.810, 41.61460
1235.292, 41.18640
1235.774, 39.94144
1236.256, 39.18535
1236.739, 39.27140
1237.221, 39.72380
1237.703, 40.49205
1238.185, 41.16069
1238.667, 41.33009
1239.149, 41.10028
1239.631, 40.77529
1240.113, 40.36942
1240.596, 40.26130
1241.078, 40.66888
1241.560, 40.66536
1242.042, 38.58880
1242.524, 36.82085
1243.006, 37.29445
1243.488, 39.30281
1243.970, 40.11675
1244.453, 39.89771
1244.935, 40.03662
1245.417, 41.02191
1245.899, 41.45861
1246.381, 39.57957
1246.863, 37.88027
1247.345, 37.74361
1247.827, 38.78939
1248.309, 40.18180
1248.792, 41.70693
1249.274, 42.30816
1249.756, 41.57390
1250.238, 40.94293
1250.720, 41.28021
1251.202, 41.68333
1251.684, 41.79856
1252.166, 41.70199
1252.648, 41.51159
1253.131, 41.27980
1253.613, 41.06291
1254.095, 40.78978
1254.577, 41.16691
1255.059, 43.31015
1255.541, 44.78865
1256.023, 44.61950
1256.505, 43.43697
1256.988, 42.05079
1257.470, 40.79927
1257.952, 40.68087
1258.434, 42.11519
1258.916, 42.47511
1259.398, 40.66582
1259.880, 39.45523
1260.362, 39.88810
1260.844, 41.13653
1261.327, 42.10314
1261.809, 42.84167
1262.291, 43.53312
1262.773, 44.23035
1263.255, 44.15181
1263.737, 42.96058
1264.219, 42.15618
1264.701, 42.32524
1265.183, 42.76652
1265.666, 42.59795
1266.148, 42.18895
1266.630, 41.88202
1267.112, 41.73322
1267.594, 42.11700
1268.076, 43.13329
1268.558, 43.95823
1269.040, 44.40549
1269.523, 44.37211
1270.005, 43.30510
1270.487, 42.05972
1270.969, 41.41218
1271.451, 41.32430
1271.933, 41.69020
1272.415, 42.50158
1272.897, 43.26978
1273.380, 43.90752
1273.862, 44.28540
1274.344, 44.27518
1274.826, 43.96065
1275.308, 43.04644
1275.790, 42.02923
1276.272, 42.92894
1276.754, 45.31930
1277.236, 46.87217
1277.719, 47.02741
1278.201, 46.98594
1278.683, 47.70427
1279.165, 47.87651
1279.647, 46.76565
1280.129, 45.07434
1280.611, 44.24088
1281.093, 44.04079
1281.576, 43.79276
1282.058, 43.36619
1282.540, 43.43264
1283.022, 44.60197
1283.504, 45.55083
1283.986, 45.80377
1284.468, 45.98524
1284.950, 47.65755
1285.432, 49.63478
1285.915, 49.57574
1286.397, 47.31065
1286.879, 46.23301
1287.361, 47.04240
1287.843, 47.64718
1288.325, 47.59576
1288.807, 47.16287
1289.289, 46.56629
1289.771, 45.82922
1290.254, 44.63328
1290.736, 43.25041
1291.218, 43.38529
1291.700, 45.29510
1292.182, 46.08573
1292.664, 45.17031
1293.146, 44.16208
1293.628, 43.95260
1294.111, 44.59935
1294.593, 47.09515
1295.075, 50.11134
1295.557, 50.62862
1296.039, 48.90455
1296.521, 47.63258
1297.003, 47.14418
1297.485, 47.21661
1297.968, 48.73410
1298.450, 49.40238
1298.932, 48.01908
1299.414, 46.00393
1299.896, 45.68227
1300.378, 46.49007
1300.860, 46.51792
1301.342, 45.77551
1301.824, 45.70514
##END=



