##NAMES=Selenium
##RRUFFID=R060137
##IDEAL CHEMISTRY=Se
##LOCALITY=Grants Uranium District, Valencia County, New Mexico, USA
##OWNER=RRUFF
##SOURCE=University of Arizona Mineral Museum
##DESCRIPTION=Mass of gray acicular crystals
##STATUS=The identification of this mineral has been confirmed by X-ray diffraction and chemical analysis
##URL=rruff.info/R060137
##MEASURED CHEMISTRY=Se
92.02539, 613.2200
92.50751, 608.4526
92.98962, 610.6395
93.47174, 615.0825
93.95386, 621.8629
94.43597, 626.3873
94.91809, 627.2937
95.40021, 626.1965
95.88232, 626.2543
96.36444, 629.2673
96.84656, 630.9266
97.32867, 630.5959
97.81078, 628.7197
98.29290, 625.8516
98.77502, 621.8358
99.25713, 615.4603
99.73925, 610.3934
100.2214, 607.6017
100.7035, 605.1094
101.1856, 601.8906
101.6677, 597.8734
102.1498, 593.7576
102.6320, 590.4625
103.1141, 588.5411
103.5962, 585.8793
104.0783, 581.4485
104.5604, 576.5984
105.0425, 572.9669
105.5247, 571.1149
106.0068, 570.1373
106.4889, 568.5499
106.9710, 566.4717
107.4531, 563.6389
107.9352, 559.0533
108.4173, 553.1771
108.8995, 548.7003
109.3816, 547.5603
109.8637, 547.5467
110.3458, 546.2239
110.8279, 543.1271
111.3100, 539.4744
111.7922, 536.4605
112.2743, 533.8975
112.7564, 532.7090
113.2385, 534.5916
113.7206, 537.1872
114.2027, 538.1905
114.6849, 536.3834
115.1670, 532.8542
115.6491, 531.4528
116.1312, 533.3364
116.6133, 536.3339
117.0954, 540.7751
117.5776, 545.9636
118.0597, 550.7043
118.5418, 553.9808
119.0239, 555.7366
119.5060, 560.8784
119.9881, 571.1351
120.4703, 582.3663
120.9524, 593.3179
121.4345, 603.7841
121.9166, 613.9495
122.3987, 624.0045
122.8808, 633.9293
123.3630, 642.8941
123.8451, 650.9102
124.3272, 657.9827
124.8093, 663.7874
125.2914, 668.1727
125.7735, 672.0259
126.2557, 676.2215
126.7378, 680.6862
127.2199, 685.2296
127.7020, 689.4668
128.1841, 693.6652
128.6662, 698.6125
129.1483, 704.5683
129.6305, 711.2908
130.1126, 718.7130
130.5947, 726.7728
131.0768, 734.8340
131.5589, 742.2635
132.0410, 748.9543
132.5232, 755.8912
133.0053, 762.8947
133.4874, 770.4532
133.9695, 778.6799
134.4516, 787.6769
134.9337, 797.6404
135.4159, 809.1740
135.8980, 823.8550
136.3801, 837.2175
136.8622, 847.2106
137.3443, 856.9655
137.8264, 868.9431
138.3086, 884.1042
138.7907, 901.8958
139.2728, 920.4905
139.7549, 943.9581
140.2370, 963.5729
140.7191, 980.7122
141.2013, 993.3534
141.6834, 998.7477
142.1655, 995.5424
142.6476, 983.6430
143.1297, 962.7927
143.6118, 930.2695
144.0939, 894.0722
144.5761, 855.4806
145.0582, 815.1859
145.5403, 775.8298
146.0224, 738.2734
146.5045, 703.4716
146.9866, 672.2891
147.4688, 645.3586
147.9509, 621.7164
148.4330, 600.4283
148.9151, 581.3835
149.3972, 565.2677
149.8793, 553.8082
150.3615, 545.1825
150.8436, 537.5569
151.3257, 530.3855
151.8078, 523.7852
152.2899, 518.1502
152.7720, 513.5949
153.2542, 509.8506
153.7363, 506.5914
154.2184, 503.8982
154.7005, 501.9182
155.1826, 500.9003
155.6647, 500.7357
156.1469, 500.3339
156.6290, 499.6216
157.1111, 498.7014
157.5932, 496.7558
158.0753, 494.5537
158.5574, 493.6686
159.0396, 495.6068
159.5217, 500.7567
160.0038, 505.2071
160.4859, 509.2952
160.9680, 512.5276
161.4501, 513.8454
161.9323, 513.7439
162.4144, 514.1028
162.8965, 516.9891
163.3786, 523.3224
163.8607, 528.3975
164.3428, 531.6056
164.8250, 534.0974
165.3071, 536.0494
165.7892, 537.6278
166.2713, 540.1510
166.7534, 545.7553
167.2355, 555.0359
167.7177, 562.8926
168.1998, 568.2951
168.6819, 572.1940
169.1640, 575.3672
169.6461, 577.6671
170.1282, 580.3776
170.6104, 585.7836
171.0925, 593.5283
171.5746, 600.4736
172.0567, 604.4607
172.5388, 606.5839
173.0209, 610.2396
173.5031, 616.9101
173.9852, 624.0557
174.4673, 629.4922
174.9494, 633.3352
175.4315, 636.7542
175.9136, 640.2936
176.3958, 643.9724
176.8779, 648.2236
177.3600, 653.4818
177.8421, 659.0812
178.3242, 664.8460
178.8063, 670.7002
179.2885, 676.2369
179.7706, 680.9344
180.2527, 684.5577
180.7348, 688.4017
181.2169, 692.6765
181.6990, 697.1053
182.1812, 701.8672
182.6633, 706.8529
183.1454, 711.3896
183.6275, 714.2360
184.1096, 713.6301
184.5917, 715.1649
185.0738, 720.3306
185.5560, 726.2441
186.0381, 730.8848
186.5202, 733.7462
187.0023, 735.6951
187.4844, 738.1547
187.9665, 741.2645
188.4487, 744.7917
188.9308, 748.5275
189.4129, 752.7264
189.8950, 757.7372
190.3771, 763.6424
190.8592, 770.1121
191.3414, 776.5186
191.8235, 782.7186
192.3056, 789.0944
192.7877, 795.3922
193.2698, 801.9388
193.7519, 809.1724
194.2341, 817.2500
194.7162, 826.1074
195.1983, 835.7574
195.6804, 846.0477
196.1625, 857.0976
196.6446, 869.3229
197.1268, 882.3642
197.6089, 895.3907
198.0910, 907.9669
198.5731, 920.6935
199.0552, 934.4057
199.5373, 949.1534
200.0195, 964.5935
200.5016, 981.0461
200.9837, 998.3089
201.4658, 1014.914
201.9479, 1029.394
202.4300, 1044.316
202.9122, 1061.829
203.3943, 1082.102
203.8764, 1104.529
204.3585, 1128.268
204.8406, 1153.369
205.3227, 1181.604
205.8048, 1213.349
206.2870, 1248.815
206.7691, 1286.586
207.2512, 1326.573
207.7333, 1372.808
208.2154, 1427.889
208.6975, 1491.052
209.1797, 1567.859
209.6618, 1655.649
210.1439, 1760.758
210.6260, 1885.629
211.1081, 2031.453
211.5902, 2201.427
212.0724, 2402.138
212.5545, 2637.754
213.0366, 2889.531
213.5187, 3174.050
214.0008, 3459.177
214.4829, 3730.580
214.9651, 3982.715
215.4472, 4217.397
215.9293, 4434.330
216.4114, 4623.336
216.8935, 4815.002
217.3756, 5011.394
217.8578, 5209.041
218.3399, 5409.615
218.8220, 5611.343
219.3041, 5809.796
219.7862, 5996.298
220.2683, 6164.680
220.7505, 6331.183
221.2326, 6490.123
221.7147, 6651.418
222.1968, 6820.994
222.6789, 7000.888
223.1610, 7192.183
223.6432, 7396.249
224.1253, 7613.509
224.6074, 7847.553
225.0895, 8100.123
225.5716, 8368.336
226.0537, 8645.593
226.5358, 8931.470
227.0180, 9233.779
227.5001, 9564.436
227.9822, 9925.771
228.4643, 10311.47
228.9464, 10712.75
229.4285, 11141.97
229.9107, 11617.36
230.3928, 12143.62
230.8749, 12689.65
231.3570, 13238.74
231.8391, 13805.26
232.3212, 14237.65
232.8034, 14550.90
233.2855, 14699.97
233.7676, 14605.07
234.2497, 14238.33
234.7318, 13709.19
235.2139, 13080.36
235.6961, 12365.93
236.1782, 11659.59
236.6603, 11010.88
237.1424, 10377.16
237.6245, 9690.168
238.1066, 8934.250
238.5888, 8134.435
239.0709, 7261.677
239.5530, 6347.803
240.0351, 5492.889
240.5172, 4714.032
240.9993, 4018.512
241.4815, 3430.374
241.9636, 2958.767
242.4457, 2572.105
242.9278, 2262.363
243.4099, 2013.695
243.8920, 1805.547
244.3742, 1640.001
244.8563, 1508.346
245.3384, 1392.210
245.8205, 1293.494
246.3026, 1207.413
246.7847, 1131.956
247.2668, 1066.023
247.7490, 1009.144
248.2311, 962.3181
248.7132, 923.9479
249.1953, 889.7404
249.6774, 860.8066
250.1595, 834.2842
250.6417, 808.2685
251.1238, 783.7860
251.6059, 762.6223
252.0880, 746.1277
252.5701, 732.7584
253.0522, 718.1664
253.5344, 700.7944
254.0165, 685.5594
254.4986, 674.1486
254.9807, 665.1865
255.4628, 657.3609
255.9449, 650.2669
256.4271, 643.5959
256.9092, 636.5773
257.3913, 629.1334
257.8734, 621.4999
258.3555, 612.9285
258.8376, 604.6045
259.3198, 597.5901
259.8019, 592.3299
260.2840, 588.4528
260.7661, 585.3141
261.2482, 583.4265
261.7303, 581.3177
262.2125, 578.6507
262.6946, 575.7979
263.1767, 572.9658
263.6588, 570.2318
264.1409, 567.7585
264.6230, 565.8182
265.1052, 564.5258
265.5873, 563.6062
266.0694, 563.0091
266.5515, 562.7218
267.0336, 563.0653
267.5157, 563.9689
267.9979, 564.6838
268.4800, 563.9836
268.9621, 560.9330
269.4442, 558.4689
269.9263, 557.3529
270.4084, 556.1563
270.8906, 554.1089
271.3727, 551.0382
271.8548, 547.0950
272.3369, 542.4082
272.8190, 536.8744
273.3011, 530.9734
273.7833, 524.4899
274.2654, 517.9117
274.7475, 511.5868
275.2296, 505.4834
275.7117, 499.3442
276.1938, 492.9007
276.6760, 486.0797
277.1581, 479.3475
277.6402, 472.9318
278.1223, 466.3616
278.6044, 459.1400
279.0865, 451.4640
279.5686, 444.0430
280.0508, 437.4619
280.5329, 431.7492
281.0150, 425.9991
281.4971, 419.4809
281.9792, 413.6324
282.4613, 409.2885
282.9435, 406.0596
283.4256, 403.0830
283.9077, 399.8807
284.3898, 396.3879
284.8719, 392.1890
285.3540, 387.0417
285.8362, 381.5675
286.3183, 375.4875
286.8004, 369.2311
287.2825, 363.5294
287.7646, 358.7559
288.2467, 354.7834
288.7289, 351.1339
289.2110, 347.8316
289.6931, 344.8008
290.1752, 342.4047
290.6573, 340.1973
291.1394, 337.3878
291.6216, 333.6241
292.1037, 329.6205
292.5858, 326.9235
293.0679, 326.7872
293.5500, 325.5557
294.0321, 322.1299
294.5143, 317.7566
294.9964, 313.6570
295.4785, 310.1496
295.9606, 307.2321
296.4427, 304.9877
296.9248, 303.7475
297.4070, 302.1935
297.8891, 300.0331
298.3712, 297.6887
298.8533, 295.6004
299.3354, 293.8206
299.8175, 291.9203
300.2997, 289.2934
300.7818, 285.7240
301.2639, 283.4254
301.7460, 283.4657
302.2281, 283.9237
302.7102, 283.3524
303.1924, 281.8090
303.6745, 280.4702
304.1566, 280.3739
304.6387, 281.4147
305.1208, 281.4739
305.6029, 279.7899
306.0851, 277.9668
306.5672, 276.7482
307.0493, 276.0523
307.5314, 275.5705
308.0135, 275.2013
308.4956, 274.8546
308.9778, 274.1408
309.4599, 272.9279
309.9420, 271.5921
310.4241, 269.9410
310.9062, 268.2736
311.3883, 267.2964
311.8705, 267.3866
312.3526, 268.0504
312.8347, 268.2464
313.3168, 268.0914
313.7989, 267.3425
314.2810, 265.2693
314.7632, 262.8089
315.2453, 261.2085
315.7274, 260.8240
316.2095, 261.1653
316.6916, 261.7513
317.1737, 262.7872
317.6559, 263.0815
318.1380, 261.8271
318.6201, 260.2134
319.1022, 259.4438
319.5843, 259.6385
320.0664, 259.9509
320.5485, 259.5253
321.0306, 258.2883
321.5128, 257.5916
321.9949, 257.6736
322.4770, 258.0693
322.9591, 258.5565
323.4412, 259.1065
323.9233, 259.7645
324.4055, 260.6630
324.8876, 261.6699
325.3697, 261.8778
325.8518, 260.6419
326.3339, 259.4414
326.8160, 258.9325
327.2982, 258.8635
327.7803, 258.6451
328.2624, 257.9802
328.7445, 257.0638
329.2266, 256.4081
329.7087, 255.9755
330.1909, 255.8125
330.6730, 256.1082
331.1551, 256.6186
331.6372, 257.0843
332.1193, 257.4326
332.6014, 257.5949
333.0836, 257.4240
333.5657, 256.7257
334.0478, 256.2799
334.5299, 256.5810
335.0120, 256.8397
335.4941, 256.1638
335.9763, 254.5601
336.4584, 253.0417
336.9405, 252.6644
337.4226, 253.5746
337.9047, 253.6803
338.3868, 252.5556
338.8690, 251.1319
339.3511, 249.6751
339.8332, 248.2918
340.3153, 247.1508
340.7974, 246.3326
341.2795, 245.8610
341.7617, 245.9615
342.2438, 247.4066
342.7259, 248.4286
343.2080, 248.5030
343.6901, 247.9421
344.1722, 247.1582
344.6544, 246.3186
345.1365, 245.4512
345.6186, 244.6012
346.1007, 243.3721
346.5828, 242.8394
347.0649, 243.7070
347.5471, 244.8723
348.0292, 245.4416
348.5113, 245.2186
348.9934, 244.4174
349.4755, 243.1818
349.9576, 241.1827
350.4398, 240.1961
350.9219, 241.1653
351.4040, 242.1250
351.8861, 241.8167
352.3682, 240.5271
352.8503, 239.4180
353.3325, 239.4149
353.8146, 240.4247
354.2967, 240.9857
354.7788, 241.1387
355.2609, 240.8002
355.7430, 239.4110
356.2252, 237.6561
356.7073, 236.4907
357.1894, 236.3759
357.6715, 236.9874
358.1536, 237.5564
358.6357, 238.5506
359.1179, 238.7135
359.5999, 237.2669
360.0821, 235.5097
360.5642, 234.6044
361.0463, 234.7200
361.5284, 235.0812
362.0105, 234.5984
362.4926, 232.8000
362.9748, 232.0179
363.4569, 233.5921
363.9390, 234.8691
364.4211, 234.4490
364.9032, 232.7029
365.3853, 230.8948
365.8675, 230.0241
366.3496, 229.9501
366.8317, 229.2733
367.3138, 226.9311
367.7959, 225.3633
368.2780, 225.8392
368.7602, 227.0910
369.2423, 227.4516
369.7244, 226.1735
370.2065, 224.1024
370.6886, 222.9124
371.1707, 222.9219
371.6529, 223.0415
372.1350, 223.1723
372.6171, 223.3126
373.0992, 223.6068
373.5813, 224.0055
374.0634, 224.1221
374.5456, 223.3618
375.0277, 221.6651
375.5098, 220.4294
375.9919, 219.9114
376.4740, 219.6565
376.9561, 219.5228
377.4383, 219.4723
377.9204, 219.4705
378.4025, 219.6049
378.8846, 219.7134
379.3667, 219.2262
379.8488, 217.8155
380.3310, 216.6632
380.8131, 216.4876
381.2952, 216.6992
381.7773, 216.6653
382.2594, 216.1627
382.7415, 215.6868
383.2237, 215.8587
383.7058, 216.6738
384.1879, 217.4655
384.6700, 218.3265
385.1521, 218.8155
385.6342, 218.4503
386.1164, 217.2904
386.5985, 216.1379
387.0806, 215.3514
387.5627, 214.9063
388.0448, 214.7890
388.5269, 215.0592
389.0091, 215.4594
389.4912, 215.8900
389.9733, 216.3107
390.4554, 216.6330
390.9375, 217.0828
391.4196, 217.2040
391.9018, 216.1086
392.3839, 213.9934
392.8660, 212.8057
393.3481, 213.7534
393.8302, 215.8011
394.3123, 216.7720
394.7945, 216.2434
395.2766, 216.1062
395.7587, 217.6306
396.2408, 219.8952
396.7229, 221.2206
397.2050, 221.1879
397.6872, 220.7467
398.1693, 220.9377
398.6514, 221.8310
399.1335, 222.5853
399.6156, 223.1236
400.0977, 223.5513
400.5798, 223.8564
401.0620, 224.0932
401.5441, 224.4220
402.0262, 224.9051
402.5083, 225.5874
402.9904, 226.7181
403.4725, 229.2594
403.9547, 230.9993
404.4368, 230.8174
404.9189, 229.8737
405.4010, 229.6415
405.8831, 230.5696
406.3652, 232.0816
406.8474, 233.3504
407.3295, 234.2611
407.8116, 235.2287
408.2937, 236.2783
408.7758, 237.3508
409.2579, 238.4028
409.7401, 239.4486
410.2222, 240.5603
410.7043, 241.8257
411.1864, 243.2009
411.6685, 244.3160
412.1506, 244.1773
412.6328, 245.0565
413.1149, 247.8849
413.5970, 251.6116
414.0791, 255.1265
414.5612, 258.0432
415.0433, 260.6802
415.5255, 263.4730
416.0076, 266.3954
416.4897, 269.6192
416.9718, 273.1265
417.4539, 276.9608
417.9360, 281.2066
418.4182, 285.8389
418.9003, 290.6671
419.3824, 295.5417
419.8645, 300.5186
420.3466, 306.1076
420.8287, 312.8361
421.3109, 318.9962
421.7930, 323.1163
422.2751, 326.6263
422.7572, 331.1357
423.2393, 337.1569
423.7214, 343.8445
424.2036, 350.5177
424.6857, 357.1490
425.1678, 363.2495
425.6499, 368.0918
426.1320, 373.1630
426.6141, 380.0860
427.0963, 388.6214
427.5784, 397.0477
428.0605, 404.3544
428.5426, 411.2510
429.0247, 418.8321
429.5068, 427.2361
429.9890, 435.7164
430.4711, 443.6053
430.9532, 451.2711
431.4353, 459.6110
431.9174, 467.9304
432.3995, 477.9816
432.8817, 493.6230
433.3638, 511.3007
433.8459, 522.6237
434.3280, 524.4063
434.8101, 522.6313
435.2922, 525.6776
435.7744, 535.1738
436.2565, 543.0234
436.7386, 549.0455
437.2207, 553.2727
437.7028, 555.1371
438.1849, 555.0490
438.6671, 554.3898
439.1492, 554.0997
439.6313, 554.0011
440.1134, 553.0476
440.5955, 550.8220
441.0776, 548.2307
441.5598, 545.0468
442.0418, 541.7166
442.5240, 538.7227
443.0061, 536.1928
443.4882, 533.8643
443.9703, 531.3541
444.4524, 528.4830
444.9345, 526.2617
445.4167, 525.3255
445.8988, 524.4285
446.3809, 522.9063
446.8630, 521.1276
447.3451, 519.8892
447.8272, 519.7405
448.3094, 520.1982
448.7915, 520.0351
449.2736, 519.0734
449.7557, 517.9841
450.2378, 516.3935
450.7199, 515.0844
451.2021, 514.9797
451.6842, 516.0706
452.1663, 516.9002
452.6484, 516.1948
453.1305, 514.2332
453.6126, 512.3215
454.0948, 510.7485
454.5769, 508.7502
455.0590, 505.4227
455.5411, 501.3619
456.0232, 497.5805
456.5053, 494.5169
456.9875, 491.5236
457.4696, 488.3382
457.9517, 484.8431
458.4338, 480.3405
458.9159, 474.4225
459.3980, 467.7287
459.8802, 461.2055
460.3623, 454.9358
460.8444, 448.1838
461.3265, 440.7869
461.8086, 432.8941
462.2907, 424.1853
462.7729, 414.9034
463.2550, 406.4374
463.7371, 399.9169
464.2192, 394.8433
464.7013, 388.0716
465.1834, 378.3991
465.6656, 368.6943
466.1477, 358.6505
466.6298, 349.0431
467.1119, 340.9615
467.5940, 334.5072
468.0761, 328.6869
468.5583, 322.3585
469.0404, 315.4111
469.5225, 308.3348
470.0046, 300.0282
470.4867, 292.7493
470.9688, 287.7657
471.4510, 284.1795
471.9331, 280.6476
472.4152, 276.5595
472.8973, 272.0269
473.3794, 267.0706
473.8615, 261.4377
474.3437, 256.4811
474.8258, 252.7112
475.3079, 249.5474
475.7900, 247.0139
476.2721, 244.9202
476.7542, 242.3797
477.2364, 238.2879
477.7185, 233.5017
478.2006, 230.0613
478.6827, 228.1772
479.1648, 226.4910
479.6469, 224.1308
480.1291, 221.6440
480.6112, 220.1051
481.0933, 219.9651
481.5754, 219.6426
482.0575, 218.1709
482.5396, 216.0134
483.0217, 213.9204
483.5038, 212.0264
483.9860, 210.4758
484.4681, 209.5391
484.9502, 209.2435
485.4323, 208.3430
485.9144, 205.8884
486.3965, 203.8725
486.8787, 203.7028
487.3608, 204.4555
487.8429, 204.2185
488.3250, 202.2270
488.8071, 199.6756
489.2892, 198.7862
489.7714, 200.5688
490.2535, 201.5337
490.7356, 201.6227
491.2177, 201.0977
491.6998, 199.5007
492.1819, 197.3954
492.6641, 196.0983
493.1462, 196.5982
493.6283, 198.1302
494.1104, 198.3438
494.5925, 196.6765
495.0746, 195.2198
495.5568, 194.5064
496.0389, 194.1541
496.5210, 194.1276
497.0031, 194.3397
497.4852, 194.2464
497.9673, 193.1635
498.4495, 191.5063
498.9316, 190.3048
499.4137, 189.5173
499.8958, 189.6290
500.3779, 192.0370
500.8600, 195.1475
501.3422, 195.4725
501.8243, 191.3395
502.3064, 187.7000
502.7885, 187.6824
503.2706, 189.6449
503.7527, 190.5738
504.2349, 189.8094
504.7170, 188.6169
505.1991, 188.2682
505.6812, 188.8277
506.1633, 188.8510
506.6454, 188.1086
507.1276, 187.1537
507.6097, 185.8021
508.0918, 184.4792
508.5739, 183.9851
509.0560, 184.5828
509.5381, 185.5259
510.0203, 185.5903
510.5024, 184.4772
510.9845, 183.5096
511.4666, 182.5748
511.9487, 181.9019
512.4308, 181.6086
512.9130, 181.6420
513.3951, 181.9778
513.8772, 182.7053
514.3593, 183.4239
514.8414, 183.2962
515.3235, 182.1975
515.8057, 181.1781
516.2878, 180.3199
516.7699, 179.7856
517.2520, 179.7809
517.7341, 180.2415
518.2162, 180.7162
518.6984, 181.0356
519.1805, 181.2553
519.6626, 181.6065
520.1447, 182.0423
520.6268, 181.8102
521.1089, 180.2364
521.5911, 178.1485
522.0732, 177.6270
522.5553, 179.1992
523.0374, 180.4498
523.5195, 180.8906
524.0016, 180.9076
524.4838, 180.7379
524.9659, 180.4505
525.4480, 180.1130
525.9301, 179.7700
526.4122, 179.4272
526.8943, 179.0953
527.3765, 178.5851
527.8586, 178.3836
528.3407, 178.6808
528.8228, 179.1781
529.3049, 179.7534
529.7870, 180.3192
530.2692, 180.6841
530.7513, 180.7139
531.2334, 180.4041
531.7155, 179.6092
532.1976, 178.0064
532.6797, 176.6801
533.1619, 176.3096
533.6440, 176.3459
534.1261, 176.2200
534.6082, 175.8146
535.0903, 175.5423
535.5724, 175.9146
536.0546, 176.5619
536.5367, 176.5408
537.0188, 175.6798
537.5009, 174.9495
537.9830, 175.1159
538.4651, 176.0253
538.9473, 176.7317
539.4294, 177.3046
539.9115, 177.6113
540.3936, 177.3200
540.8757, 176.8809
541.3578, 176.9506
541.8400, 177.6051
542.3221, 178.3091
542.8042, 178.5284
543.2863, 178.2590
543.7684, 177.7495
544.2505, 176.3518
544.7326, 175.5200
545.2147, 176.1193
545.6968, 177.1261
546.1790, 177.2811
546.6611, 176.3133
547.1432, 175.2123
547.6253, 175.1659
548.1074, 176.0640
548.5895, 176.6160
549.0717, 176.6765
549.5538, 176.5942
550.0359, 176.5023
550.5180, 176.4173
551.0001, 176.3787
551.4822, 176.4316
551.9644, 176.4349
552.4465, 176.2486
552.9286, 175.9585
553.4107, 175.7098
553.8928, 175.5278
554.3749, 175.5025
554.8571, 175.8089
555.3392, 176.4221
555.8213, 176.4571
556.3034, 175.1518
556.7855, 174.2825
557.2676, 174.8258
557.7498, 175.8004
558.2319, 175.8197
558.7140, 174.6770
559.1961, 173.5625
559.6782, 173.9733
560.1603, 175.9371
560.6425, 176.7205
561.1246, 175.2078
561.6067, 174.1347
562.0888, 175.0666
562.5709, 176.4831
563.0530, 176.4031
563.5352, 174.3038
564.0173, 172.1655
564.4994, 171.8834
564.9815, 172.9293
565.4636, 173.5444
565.9457, 173.4979
566.4279, 173.3908
566.9100, 173.7356
567.3921, 174.3078
567.8742, 174.2989
568.3563, 173.0721
568.8384, 172.3259
569.3206, 173.0935
569.8027, 174.4249
570.2848, 175.2890
570.7669, 175.4780
571.2490, 175.0555
571.7311, 173.9325
572.2133, 172.2510
572.6954, 171.6503
573.1775, 173.4012
573.6596, 174.4983
574.1417, 174.1055
574.6238, 173.2399
575.1060, 172.6953
575.5881, 172.6109
576.0702, 172.7830
576.5523, 173.0564
577.0344, 173.4497
577.5165, 174.2019
577.9987, 175.5311
578.4808, 176.2319
578.9629, 175.3835
579.4450, 173.8795
579.9271, 172.9998
580.4092, 172.8395
580.8914, 172.7606
581.3735, 172.4823
581.8556, 172.1893
582.3377, 172.0383
582.8198, 172.0571
583.3019, 172.3493
583.7841, 173.0345
584.2662, 173.8832
584.7483, 174.2468
585.2304, 173.5097
585.7125, 173.3063
586.1946, 174.3570
586.6768, 175.2712
587.1589, 174.9082
587.6410, 173.6620
588.1231, 172.7869
588.6052, 173.0907
589.0873, 173.9244
589.5695, 173.7451
590.0516, 172.3214
590.5337, 171.6179
591.0158, 172.5016
591.4979, 173.6413
591.9800, 173.8493
592.4622, 173.3491
592.9443, 173.0501
593.4264, 173.4537
593.9085, 173.9567
594.3906, 174.1395
594.8727, 174.0264
595.3549, 173.5701
595.8370, 172.7253
596.3191, 171.9286
596.8012, 171.7490
597.2833, 172.2983
597.7654, 172.6827
598.2476, 173.1511
598.7297, 173.1988
599.2118, 172.0765
599.6939, 170.6991
600.1760, 170.4507
600.6581, 171.6414
601.1403, 173.0048
601.6224, 172.9332
602.1045, 171.5066
602.5866, 170.6276
603.0687, 170.4072
603.5508, 170.5029
604.0330, 171.0970
604.5151, 171.7682
604.9972, 171.8703
605.4793, 171.1849
605.9614, 170.6755
606.4435, 171.1228
606.9257, 171.8861
607.4078, 171.9984
607.8899, 171.4341
608.3720, 170.7879
608.8541, 170.3990
609.3362, 170.2612
609.8184, 170.3645
610.3005, 171.0992
610.7826, 171.4847
611.2647, 171.3276
611.7468, 171.0064
612.2289, 170.6707
612.7111, 170.3804
613.1932, 170.1964
613.6753, 170.1519
614.1574, 170.2366
614.6395, 170.5148
615.1216, 171.0208
615.6038, 171.2182
616.0859, 170.7410
616.5680, 170.3184
617.0501, 171.0007
617.5322, 172.3222
618.0143, 172.5988
618.4965, 170.4114
618.9786, 168.3017
619.4607, 167.9409
619.9428, 168.6855
620.4249, 169.4944
620.9070, 170.0823
621.3892, 170.3233
621.8713, 169.9984
622.3534, 169.1222
622.8355, 168.8584
623.3176, 170.1543
623.7997, 170.8389
624.2819, 169.9590
624.7640, 168.7596
625.2461, 168.3835
625.7282, 168.9429
626.2103, 169.7762
626.6924, 170.6751
627.1745, 171.3805
627.6566, 170.9875
628.1387, 169.3917
628.6208, 168.1421
629.1030, 167.7914
629.5851, 168.0857
630.0672, 168.9664
630.5493, 170.5232
631.0314, 171.2691
631.5135, 170.4553
631.9957, 169.2767
632.4778, 168.1042
632.9599, 167.2071
633.4420, 167.1735
633.9241, 168.1933
634.4063, 169.5260
634.8884, 170.0919
635.3705, 169.7799
635.8526, 169.6413
636.3347, 169.7779
636.8168, 169.9511
637.2990, 170.2611
637.7811, 170.4716
638.2632, 170.1467
638.7453, 169.1597
639.2274, 168.4047
639.7095, 168.8009
640.1917, 169.7291
640.6738, 170.0600
641.1559, 169.7332
641.6380, 169.2444
642.1201, 168.8094
642.6022, 168.4642
643.0844, 168.2879
643.5665, 168.3101
644.0486, 168.4679
644.5307, 168.7547
645.0128, 169.1814
645.4949, 170.0325
645.9771, 170.9783
646.4592, 171.3956
646.9413, 171.0034
647.4234, 170.1314
647.9055, 169.0883
648.3876, 167.8846
648.8698, 167.0316
649.3519, 166.4994
649.8340, 166.5031
650.3161, 167.7558
650.7982, 169.4878
651.2803, 170.0494
651.7625, 168.8475
652.2446, 167.7256
652.7267, 167.4077
653.2088, 167.5288
653.6909, 167.8801
654.1730, 168.3216
654.6552, 168.4526
655.1373, 167.9963
655.6194, 167.2300
656.1015, 166.9174
656.5836, 167.3663
657.0657, 167.4752
657.5479, 166.5985
658.0300, 165.9420
658.5121, 166.1229
658.9942, 166.8904
659.4763, 167.7689
659.9584, 168.6970
660.4406, 169.3843
660.9227, 169.4729
661.4048, 169.1283
661.8869, 168.6695
662.3690, 168.1364
662.8511, 167.9490
663.3333, 168.5843
663.8154, 169.6914
664.2975, 169.7926
664.7796, 167.6393
665.2617, 166.2343
665.7438, 165.7603
666.2260, 165.9438
666.7081, 167.2142
667.1902, 168.9614
667.6723, 169.6647
668.1544, 168.3699
668.6365, 166.4542
669.1187, 166.2070
669.6008, 167.5479
670.0829, 168.6463
670.5650, 169.2470
671.0471, 169.5770
671.5292, 169.7511
672.0114, 169.7721
672.4935, 169.6799
672.9756, 169.4543
673.4577, 169.1499
673.9398, 168.5637
674.4219, 168.0576
674.9041, 168.2084
675.3862, 168.8312
675.8683, 169.0408
676.3504, 168.2353
676.8325, 166.9630
677.3146, 166.6270
677.7968, 167.4995
678.2789, 167.9632
678.7610, 167.5229
679.2431, 167.0763
679.7252, 167.2275
680.2073, 167.7421
680.6895, 168.1523
681.1716, 168.3477
681.6537, 168.4708
682.1358, 168.5556
682.6179, 168.6400
683.1000, 168.9079
683.5822, 169.2980
684.0643, 169.3064
684.5464, 168.5477
685.0285, 167.3637
685.5106, 166.7109
685.9927, 166.6543
686.4749, 166.9788
686.9570, 168.4670
687.4391, 169.5433
687.9212, 169.1774
688.4033, 167.9859
688.8854, 167.0963
689.3676, 166.8617
689.8497, 167.0105
690.3318, 167.6649
690.8139, 168.4503
691.2960, 168.3974
691.7781, 167.4398
692.2603, 166.5379
692.7424, 166.2639
693.2245, 166.4411
693.7066, 166.6144
694.1887, 166.8245
694.6708, 166.9418
695.1530, 167.0584
695.6351, 166.9944
696.1172, 166.5481
696.5993, 165.8919
697.0814, 165.2456
697.5635, 164.6718
698.0457, 164.3913
698.5278, 164.9455
699.0099, 165.9650
699.4920, 166.0945
699.9741, 165.1803
700.4562, 164.4612
700.9384, 164.7207
701.4205, 165.3931
701.9026, 165.1677
702.3847, 163.2538
702.8668, 162.6328
703.3489, 164.7646
703.8311, 166.7211
704.3132, 166.9948
704.7953, 166.1469
705.2774, 164.9518
705.7595, 163.7263
706.2416, 162.9588
706.7238, 163.4269
707.2059, 164.8387
707.6880, 166.0927
708.1701, 167.2583
708.6522, 167.4663
709.1343, 165.9503
709.6164, 163.7632
710.0985, 162.5526
710.5806, 162.4327
711.0627, 162.3545
711.5449, 162.2242
712.0270, 162.1452
712.5091, 162.1341
712.9912, 162.2187
713.4733, 162.5262
713.9554, 163.0378
714.4376, 163.4222
714.9197, 163.3035
715.4018, 162.8243
715.8839, 162.5938
716.3660, 162.6757
716.8481, 162.4976
717.3303, 161.6382
717.8124, 160.7898
718.2945, 160.8463
718.7766, 161.7373
719.2587, 162.5298
719.7408, 163.3472
720.2230, 163.8152
720.7051, 163.4941
721.1872, 162.9102
721.6693, 162.8197
722.1514, 163.2036
722.6335, 163.2457
723.1157, 162.1671
723.5978, 160.6007
724.0799, 160.4322
724.5620, 161.8324
725.0441, 162.8772
725.5262, 163.2359
726.0084, 163.0915
726.4905, 162.2616
726.9726, 161.0104
727.4547, 160.4035
727.9368, 160.8864
728.4189, 161.3995
728.9011, 161.6690
729.3832, 161.8022
729.8653, 161.9141
730.3474, 161.9851
730.8295, 161.8683
731.3116, 161.4617
731.7938, 161.0044
732.2759, 160.9676
732.7580, 161.3598
733.2401, 161.6069
733.7222, 161.6261
734.2043, 161.5978
734.6865, 161.6399
735.1686, 161.6944
735.6507, 161.6724
736.1328, 161.6354
736.6149, 161.3144
737.0970, 159.9245
737.5792, 158.9105
738.0613, 159.3792
738.5434, 160.9556
739.0255, 163.1862
739.5076, 165.8148
739.9897, 167.6651
740.4719, 166.0519
740.9540, 161.9941
741.4361, 164.4084
741.9182, 175.3997
742.4003, 181.7165
742.8824, 176.3024
743.3646, 166.4206
743.8467, 161.5285
744.3288, 161.6102
744.8109, 161.8574
745.2930, 162.1796
745.7751, 162.2575
746.2573, 161.6336
746.7394, 160.8801
747.2215, 160.7461
747.7036, 161.2650
748.1857, 161.8978
748.6678, 162.3258
749.1500, 162.4704
749.6321, 161.9489
750.1142, 160.7622
750.5963, 160.0665
751.0784, 160.1463
751.5605, 160.6225
752.0427, 161.4697
752.5248, 162.4814
753.0069, 162.5276
753.4890, 160.7286
753.9711, 159.4194
754.4532, 159.3229
754.9354, 159.4255
755.4175, 158.7601
755.8996, 157.7296
756.3817, 157.3920
756.8638, 158.2121
757.3459, 159.5484
757.8281, 161.0652
758.3102, 162.4846
758.7923, 162.4148
759.2744, 160.6922
759.7565, 159.2345
760.2386, 159.0268
760.7208, 159.4745
761.2029, 159.5240
761.6850, 158.9543
762.1671, 158.9066
762.6492, 160.1860
763.1313, 160.9840
763.6135, 160.3216
764.0956, 159.1355
764.5777, 158.4510
765.0598, 158.4007
765.5419, 158.4442
766.0240, 158.0335
766.5062, 157.6957
766.9883, 158.5637
767.4704, 160.2389
767.9525, 160.9046
768.4346, 160.1016
768.9167, 158.9543
769.3989, 158.3971
769.8810, 158.3881
770.3631, 158.7285
770.8452, 159.7921
771.3273, 160.5247
771.8094, 160.9415
772.2916, 160.9387
772.7737, 160.0863
773.2558, 158.8362
773.7379, 158.0972
774.2200, 158.1624
774.7021, 158.5770
775.1843, 159.3150
775.6664, 160.0688
776.1485, 160.3624
776.6306, 160.2530
777.1127, 160.0788
777.5948, 159.9860
778.0770, 160.0119
778.5591, 160.2584
779.0412, 160.7478
779.5233, 160.9617
780.0054, 160.7100
780.4875, 160.5851
780.9697, 160.8997
781.4518, 161.3351
781.9339, 161.6477
782.4160, 161.8242
782.8981, 161.7561
783.3802, 161.2686
783.8624, 160.7021
784.3445, 160.1479
784.8266, 159.6579
785.3087, 159.3227
785.7908, 159.1292
786.2729, 158.9474
786.7551, 158.6721
787.2372, 158.4361
787.7193, 158.6349
788.2014, 159.2583
788.6835, 159.4758
789.1656, 159.1618
789.6478, 158.4933
790.1299, 157.1685
790.6120, 155.8146
791.0941, 156.1947
791.5762, 159.3216
792.0583, 161.0574
792.5404, 159.8309
793.0225, 158.6468
793.5046, 159.2076
793.9868, 160.5157
794.4689, 161.0725
794.9510, 160.6153
795.4331, 160.1334
795.9152, 160.6514
796.3973, 161.4062
796.8795, 160.9205
797.3616, 159.4615
797.8437, 158.2777
798.3258, 157.6613
798.8079, 157.6534
799.2900, 158.4237
799.7722, 159.7506
800.2543, 160.3450
800.7364, 159.7641
801.2185, 159.3601
801.7006, 159.2634
802.1827, 159.3380
802.6649, 159.8436
803.1470, 160.3925
803.6291, 160.1604
804.1112, 158.8054
804.5933, 157.6575
805.0754, 157.4210
805.5576, 157.6852
806.0397, 158.3219
806.5218, 159.0778
807.0039, 159.4281
807.4860, 159.2012
807.9681, 158.6466
808.4503, 157.8590
808.9324, 157.0272
809.4145, 157.4249
809.8966, 159.3462
810.3787, 160.6448
810.8608, 160.6161
811.3430, 160.1275
811.8251, 159.9008
812.3072, 159.8889
812.7893, 159.7583
813.2714, 159.6662
813.7535, 159.2248
814.2357, 157.8845
814.7178, 156.6327
815.1999, 156.1822
815.6820, 156.3537
816.1641, 156.7040
816.6462, 157.0803
817.1284, 157.5114
817.6105, 158.1797
818.0926, 158.8514
818.5747, 158.9163
819.0568, 158.4827
819.5389, 158.3453
820.0211, 158.7935
820.5032, 159.4634
820.9853, 160.0181
821.4674, 160.4230
821.9495, 160.0794
822.4316, 158.4549
822.9138, 157.2359
823.3959, 156.9393
823.8780, 156.9125
824.3601, 156.7639
824.8422, 156.5452
825.3243, 156.4061
825.8065, 156.3767
826.2886, 156.4168
826.7707, 156.5321
827.2528, 156.6936
827.7349, 156.8367
828.2170, 157.0130
828.6992, 157.3168
829.1813, 157.7875
829.6634, 158.4503
830.1455, 159.5840
830.6276, 160.8797
831.1097, 161.1035
831.5919, 160.2762
832.0740, 159.6903
832.5561, 159.7502
833.0382, 159.9876
833.5203, 159.9671
834.0024, 159.7227
834.4846, 159.5099
834.9667, 159.2564
835.4488, 159.1574
835.9309, 159.7913
836.4130, 159.9874
836.8951, 158.4888
837.3773, 156.3353
837.8594, 155.4797
838.3415, 156.4674
838.8236, 157.6764
839.3057, 158.7255
839.7878, 159.2315
840.2700, 158.2771
840.7521, 156.6137
841.2342, 156.0040
841.7163, 156.8118
842.1984, 157.7713
842.6805, 157.7014
843.1627, 156.9424
843.6448, 156.4189
844.1269, 156.1292
844.6090, 156.2813
845.0911, 157.0374
845.5732, 157.7970
846.0554, 158.1496
846.5375, 158.1974
847.0196, 158.2187
847.5017, 158.1624
847.9838, 158.1971
848.4659, 158.7910
848.9481, 158.9292
849.4302, 157.6781
849.9123, 156.0709
850.3944, 155.4426
850.8765, 155.8955
851.3586, 156.3393
851.8408, 156.0319
852.3229, 155.6883
852.8050, 156.1077
853.2871, 156.8320
853.7692, 156.9859
854.2513, 156.5473
854.7335, 156.2007
855.2156, 156.3943
855.6977, 156.8017
856.1798, 156.7243
856.6619, 156.1891
857.1440, 156.1667
857.6262, 156.8657
858.1083, 157.1564
858.5904, 156.3050
859.0725, 155.2130
859.5546, 155.2663
860.0367, 156.6293
860.5189, 157.2022
861.0010, 156.1241
861.4831, 155.4588
861.9652, 155.7532
862.4473, 156.3784
862.9294, 157.0061
863.4116, 157.5506
863.8937, 157.9472
864.3758, 158.2563
864.8579, 158.1518
865.3400, 156.7340
865.8221, 155.3083
866.3043, 155.7469
866.7864, 157.4353
867.2685, 158.5224
867.7506, 158.3962
868.2327, 157.8093
868.7148, 157.4746
869.1970, 157.3400
869.6791, 157.3274
870.1612, 157.4356
870.6433, 157.0747
871.1254, 155.9735
871.6075, 155.0697
872.0897, 155.0877
872.5718, 155.8418
873.0539, 156.8200
873.5360, 158.6758
874.0181, 159.2542
874.5002, 155.1435
874.9823, 153.7400
875.4644, 161.5469
875.9465, 170.8397
876.4286, 171.6805
876.9108, 163.7361
877.3929, 157.2725
877.8750, 156.6662
878.3571, 157.3947
878.8392, 157.6035
879.3214, 157.3504
879.8035, 156.5789
880.2856, 155.4406
880.7677, 154.1514
881.2498, 152.7522
881.7319, 152.0289
882.2141, 153.6882
882.6962, 156.6997
883.1783, 157.7490
883.6604, 156.8729
884.1425, 155.8870
884.6246, 155.4210
885.1068, 155.1548
885.5889, 154.7014
886.0710, 154.1383
886.5531, 154.1796
887.0352, 155.2130
887.5173, 155.6654
887.9995, 154.7682
888.4816, 154.0653
888.9637, 154.9391
889.4458, 156.5349
889.9279, 157.0228
890.4100, 155.9985
890.8922, 155.4008
891.3743, 155.8127
891.8564, 156.3450
892.3385, 156.7902
892.8206, 157.0157
893.3027, 156.7644
893.7849, 156.1317
894.2670, 155.6245
894.7491, 155.5198
895.2312, 155.5743
895.7133, 155.6627
896.1954, 155.7137
896.6776, 155.5361
897.1597, 155.1932
897.6418, 154.9927
898.1239, 155.0652
898.6060, 155.2278
899.0881, 155.2842
899.5703, 155.2293
900.0524, 154.9168
900.5345, 154.3122
901.0166, 154.2609
901.4987, 155.1285
901.9808, 155.9191
902.4630, 155.8015
902.9451, 155.0106
903.4272, 154.3636
903.9093, 153.8813
904.3914, 153.4937
904.8735, 153.4771
905.3557, 153.2038
905.8378, 152.0175
906.3199, 150.7550
906.8020, 150.2476
907.2841, 150.5475
907.7662, 151.5026
908.2484, 154.3543
908.7305, 156.2238
909.2126, 155.1695
909.6947, 153.2361
910.1768, 151.9954
910.6589, 151.5867
911.1411, 151.9466
911.6232, 153.0792
912.1053, 153.9713
912.5874, 153.4403
913.0695, 152.3209
913.5516, 151.8028
914.0338, 151.8249
914.5159, 152.2719
914.9980, 153.0326
915.4801, 153.3737
915.9622, 152.5908
916.4443, 151.4380
916.9265, 152.0837
917.4086, 154.5188
917.8907, 155.3870
918.3728, 154.1704
918.8549, 153.0631
919.3370, 153.1087
919.8192, 153.6021
920.3013, 153.5849
920.7834, 153.0436
921.2655, 152.4900
921.7476, 151.5476
922.2297, 151.2465
922.7119, 152.4861
923.1940, 153.6544
923.6761, 153.5628
924.1582, 152.8066
924.6403, 152.7583
925.1224, 153.8478
925.6046, 154.2811
926.0867, 152.8716
926.5688, 151.5393
927.0509, 151.3697
927.5330, 151.7993
928.0151, 152.3070
928.4973, 152.7122
928.9794, 152.7214
929.4615, 151.9407
929.9436, 151.4310
930.4257, 152.6215
930.9078, 154.3610
931.3900, 154.8901
931.8721, 154.3899
932.3542, 153.8166
932.8363, 153.5148
933.3184, 153.3116
933.8005, 153.0325
934.2827, 152.7332
934.7648, 152.5827
935.2469, 152.5652
935.7290, 152.5397
936.2111, 152.4874
936.6932, 152.3710
937.1754, 152.1748
937.6575, 151.8756
938.1396, 151.3893
938.6217, 150.6785
939.1038, 150.2758
939.5859, 150.3289
940.0681, 150.2704
940.5502, 149.7774
941.0323, 149.3752
941.5144, 149.5007
941.9965, 150.0827
942.4786, 150.8761
942.9608, 152.3198
943.4429, 153.0651
943.9250, 152.4878
944.4071, 151.8757
944.8892, 151.8707
945.3713, 152.0259
945.8535, 151.7886
946.3356, 151.1566
946.8177, 150.5407
947.2998, 149.8535
947.7819, 149.5406
948.2640, 150.2955
948.7462, 151.1228
949.2283, 150.8745
949.7104, 150.0030
950.1925, 149.6922
950.6746, 150.2517
951.1567, 150.7552
951.6389, 150.2116
952.1210, 149.4612
952.6031, 149.7580
953.0852, 150.6289
953.5673, 151.1042
954.0494, 151.0427
954.5316, 150.5738
955.0137, 149.7473
955.4958, 148.9413
955.9779, 148.7663
956.4600, 149.0957
956.9421, 149.2313
957.4242, 149.1920
957.9063, 149.5773
958.3884, 150.5745
958.8705, 151.6850
959.3527, 152.5513
959.8348, 153.1330
960.3169, 153.2589
960.7990, 152.8616
961.2811, 152.3501
961.7632, 151.6783
962.2454, 151.0320
962.7275, 150.4324
963.2096, 149.9623
963.6917, 149.7262
964.1738, 149.7114
964.6559, 149.7780
965.1381, 150.1552
965.6202, 150.2419
966.1023, 149.5274
966.5844, 149.0905
967.0665, 149.6716
967.5486, 150.6532
968.0308, 151.3072
968.5129, 151.5760
968.9950, 151.4048
969.4771, 150.2113
969.9592, 149.3340
970.4413, 149.4102
970.9235, 149.8110
971.4056, 150.1715
971.8877, 150.4133
972.3698, 150.4296
972.8519, 150.1894
973.3340, 150.0615
973.8162, 150.6339
974.2983, 151.0079
974.7804, 150.0258
975.2625, 148.6206
975.7446, 148.3417
976.2267, 148.9971
976.7089, 149.0676
977.1910, 147.7966
977.6731, 146.6618
978.1552, 147.6826
978.6373, 149.5695
979.1194, 149.9374
979.6016, 149.2161
980.0837, 148.8722
980.5658, 149.2097
981.0479, 149.8092
981.5300, 150.4265
982.0121, 150.8792
982.4943, 150.7537
982.9764, 150.1493
983.4585, 149.5741
983.9406, 149.0526
984.4227, 148.6426
984.9048, 148.3535
985.3870, 148.3276
985.8691, 148.7380
986.3512, 149.4297
986.8333, 149.9593
987.3154, 150.3563
987.7975, 150.2154
988.2797, 149.3045
988.7618, 148.7447
989.2439, 149.1414
989.7260, 149.7339
990.2081, 149.6342
990.6902, 148.9148
991.1724, 148.2161
991.6545, 147.2982
992.1366, 147.0040
992.6187, 147.9778
993.1008, 148.6693
993.5829, 147.8217
994.0651, 146.6784
994.5472, 147.3200
995.0293, 149.7955
995.5114, 150.9274
995.9935, 149.4373
996.4756, 148.4091
996.9578, 148.5099
997.4399, 148.8788
997.9220, 149.2968
998.4041, 149.5466
998.8862, 149.1212
999.3683, 147.9509
999.8505, 147.3970
1000.333, 148.2098
1000.815, 149.1516
1001.297, 150.2590
1001.779, 150.8739
1002.261, 149.8817
1002.743, 148.1537
1003.225, 147.6520
1003.707, 148.8764
1004.190, 149.7210
1004.672, 148.4357
1005.154, 147.2184
1005.636, 147.9221
1006.118, 149.2452
1006.600, 149.5484
1007.082, 149.0148
1007.564, 148.7165
1008.046, 149.0454
1008.529, 149.4849
1009.011, 149.7647
1009.493, 149.8268
1009.975, 149.2974
1010.457, 148.6411
1010.939, 148.8947
1011.421, 149.9178
1011.903, 150.6461
1012.385, 150.5648
1012.868, 149.9070
1013.350, 148.3947
1013.832, 146.7788
1014.314, 146.6851
1014.796, 147.6680
1015.278, 148.3715
1015.760, 148.5828
1016.242, 148.8617
1016.725, 149.5559
1017.207, 150.2409
1017.689, 150.1858
1018.171, 149.6231
1018.653, 149.3934
1019.135, 149.4603
1019.617, 149.5065
1020.099, 149.4622
1020.581, 149.4590
1021.064, 149.6029
1021.546, 149.7485
1022.028, 149.6358
1022.510, 149.2729
1022.992, 148.6445
1023.474, 147.7395
1023.956, 147.2011
1024.438, 147.2114
1024.921, 147.4364
1025.403, 147.6572
1025.885, 147.8329
1026.367, 147.8463
1026.849, 147.6844
1027.331, 147.5413
1027.813, 147.3903
1028.295, 147.4141
1028.777, 147.6767
1029.260, 148.1149
1029.742, 148.7855
1030.224, 149.4450
1030.706, 149.2750
1031.188, 147.9703
1031.670, 147.5650
1032.152, 148.4675
1032.634, 149.0347
1033.116, 148.5949
1033.599, 148.1295
1034.081, 148.6519
1034.563, 149.6579
1035.045, 149.4356
1035.527, 147.2600
1036.009, 146.4492
1036.491, 147.8822
1036.973, 149.0002
1037.456, 149.0391
1037.938, 148.5902
1038.420, 147.9085
1038.902, 147.1719
1039.384, 147.0172
1039.866, 147.7149
1040.348, 148.2448
1040.830, 148.7838
1041.313, 148.8976
1041.795, 148.1183
1042.277, 147.1924
1042.759, 146.6429
1043.241, 146.4324
1043.723, 146.4650
1044.205, 146.7790
1044.687, 147.2206
1045.169, 148.3167
1045.651, 148.8363
1046.134, 147.5775
1046.616, 146.3557
1047.098, 146.9829
1047.580, 148.8266
1048.062, 149.9483
1048.544, 150.0696
1049.026, 149.8745
1049.508, 149.1555
1049.991, 148.5110
1050.473, 148.2997
1050.955, 148.1032
1051.437, 147.3647
1051.919, 146.3799
1052.401, 145.9987
1052.883, 146.4713
1053.365, 146.9612
1053.848, 147.2943
1054.330, 147.6177
1054.812, 148.3814
1055.294, 148.8177
1055.776, 147.7840
1056.258, 145.9840
1056.740, 145.2801
1057.222, 146.1765
1057.704, 146.9752
1058.187, 146.9498
1058.669, 147.0476
1059.151, 147.8307
1059.633, 148.7632
1060.115, 149.4485
1060.597, 149.8806
1061.079, 150.1617
1061.561, 150.3203
1062.043, 150.2305
1062.526, 149.7084
1063.008, 149.1115
1063.490, 148.3780
1063.972, 147.8354
1064.454, 148.1215
1064.936, 148.7101
1065.418, 148.2756
1065.900, 146.5282
1066.383, 145.5152
1066.865, 147.0735
1067.347, 148.1956
1067.829, 146.6736
1068.311, 144.8549
1068.793, 145.0471
1069.275, 146.3913
1069.757, 146.9028
1070.240, 146.2347
1070.722, 145.8385
1071.204, 146.6685
1071.686, 147.4403
1072.168, 147.4651
1072.650, 147.2708
1073.132, 147.3691
1073.614, 147.5344
1074.096, 147.1462
1074.578, 146.2089
1075.061, 145.7882
1075.543, 146.8041
1076.025, 147.6540
1076.507, 147.2117
1076.989, 146.6509
1077.471, 147.1943
1077.953, 148.0932
1078.435, 147.9740
1078.918, 146.8137
1079.400, 145.8915
1079.882, 145.7279
1080.364, 145.7924
1080.846, 146.0020
1081.328, 146.1680
1081.810, 145.9644
1082.292, 145.7490
1082.774, 146.2186
1083.257, 147.2141
1083.739, 147.6532
1084.221, 146.9965
1084.703, 146.2907
1085.185, 145.7626
1085.667, 145.6257
1086.149, 146.4773
1086.631, 147.4741
1087.114, 147.5273
1087.596, 146.8025
1088.078, 146.2383
1088.560, 146.1120
1089.042, 146.1153
1089.524, 146.1087
1090.006, 146.2064
1090.488, 146.8158
1090.970, 147.2847
1091.453, 146.4193
1091.935, 144.9526
1092.417, 145.1226
1092.899, 147.6768
1093.381, 149.2940
1093.863, 148.1310
1094.345, 146.5535
1094.827, 145.0018
1095.309, 144.0850
1095.792, 144.8265
1096.274, 146.3741
1096.756, 147.0493
1097.238, 146.5638
1097.720, 146.0925
1098.202, 145.9353
1098.684, 145.9396
1099.166, 146.1285
1099.649, 146.3844
1100.131, 146.6647
1100.613, 146.9393
1101.095, 147.3472
1101.577, 147.8197
1102.059, 147.5605
1102.541, 145.3084
1103.023, 144.0640
1103.505, 145.4491
1103.988, 146.9560
1104.470, 147.4470
1104.952, 147.1834
1105.434, 146.1901
1105.916, 144.7276
1106.398, 143.9039
1106.880, 144.0502
1107.362, 144.4460
1107.844, 145.2892
1108.327, 145.9677
1108.809, 146.0179
1109.291, 146.0124
1109.773, 146.8804
1110.255, 148.0718
1110.737, 147.7458
1111.219, 145.1275
1111.701, 143.5385
1112.184, 144.2208
1112.666, 144.5505
1113.148, 143.3434
1113.630, 142.2351
1114.112, 142.5388
1114.594, 143.5779
1115.076, 144.0905
1115.558, 144.0168
1116.041, 143.9959
1116.523, 143.8384
1117.005, 144.0877
1117.487, 145.4449
1117.969, 146.2727
1118.451, 145.2490
1118.933, 143.7961
1119.415, 143.8419
1119.897, 145.2256
1120.380, 146.1934
1120.862, 146.7715
1121.344, 146.7952
1121.826, 145.8569
1122.308, 145.2331
1122.790, 145.4256
1123.272, 146.0286
1123.754, 146.8410
1124.236, 147.6322
1124.719, 147.5325
1125.201, 146.2907
1125.683, 145.5126
1126.165, 145.3366
1126.647, 145.0881
1127.129, 144.5753
1127.611, 144.0642
1128.093, 143.7265
1128.576, 143.5320
1129.058, 143.4316
1129.540, 143.4236
1130.022, 143.4302
1130.504, 143.4324
1130.986, 143.7168
1131.468, 144.3539
1131.950, 144.9782
1132.432, 145.4216
1132.915, 145.7153
1133.397, 145.8899
1133.879, 145.9523
1134.361, 145.9977
1134.843, 145.9932
1135.325, 145.3538
1135.807, 144.1035
1136.289, 143.4608
1136.771, 143.8078
1137.254, 144.2752
1137.736, 144.1072
1138.218, 143.8946
1138.700, 145.0591
1139.182, 147.0039
1139.664, 147.4716
1140.146, 146.8273
1140.628, 147.1618
1141.111, 148.6026
1141.593, 148.9139
1142.075, 146.8908
1142.557, 144.6701
1143.039, 145.0414
1143.521, 146.4823
1144.003, 146.2773
1144.485, 145.2613
1144.968, 145.2934
1145.450, 146.1702
1145.932, 146.4756
1146.414, 145.8229
1146.896, 145.1852
1147.378, 145.2513
1147.860, 145.5967
1148.342, 145.9749
1148.824, 146.2693
1149.307, 146.1940
1149.789, 146.0025
1150.271, 146.3060
1150.753, 147.0061
1151.235, 147.2309
1151.717, 146.5197
1152.199, 145.8110
1152.681, 145.6791
1153.163, 145.6823
1153.646, 145.4482
1154.128, 145.2668
1154.610, 145.7280
1155.092, 146.4228
1155.574, 146.3097
1156.056, 145.1705
1156.538, 144.0910
1157.020, 142.8519
1157.503, 142.4788
1157.985, 144.1206
1158.467, 145.7657
1158.949, 146.1635
1159.431, 145.8971
1159.913, 145.7253
1160.395, 145.6599
1160.877, 145.4550
1161.359, 144.8224
1161.842, 144.6054
1162.324, 145.0869
1162.806, 145.5601
1163.288, 145.8204
1163.770, 146.0322
1164.252, 146.2997
1164.734, 146.6270
1165.216, 147.1168
1165.698, 147.8443
1166.181, 147.5914
1166.663, 145.9374
1167.145, 144.8614
1167.627, 144.6385
1168.109, 145.1329
1168.591, 146.5563
1169.073, 147.7049
1169.555, 147.0717
1170.037, 145.1808
1170.520, 143.8148
1171.002, 142.9860
1171.484, 143.2086
1171.966, 144.4760
1172.448, 145.9087
1172.930, 147.2575
1173.412, 147.8074
1173.894, 147.0065
1174.377, 145.8480
1174.859, 145.8933
1175.341, 146.7041
1175.823, 147.1904
1176.305, 147.3786
1176.787, 147.3290
1177.269, 147.0616
1177.751, 146.5823
1178.234, 145.9065
1178.716, 145.1395
1179.198, 144.2793
1179.680, 143.5490
1180.162, 143.0691
1180.644, 142.9635
1181.126, 143.5595
1181.608, 144.5600
1182.090, 145.7418
1182.573, 146.7964
1183.055, 146.8254
1183.537, 145.3347
1184.019, 143.9669
1184.501, 143.5416
1184.983, 143.5300
1185.465, 143.9507
1185.947, 144.3619
1186.429, 144.2207
1186.912, 143.8801
1187.394, 144.0753
1187.876, 144.8523
1188.358, 145.4302
1188.840, 145.9040
1189.322, 145.8232
1189.804, 144.2726
1190.286, 143.3124
1190.769, 144.1887
1191.251, 145.3470
1191.733, 145.4829
1192.215, 144.9050
1192.697, 144.3553
1193.179, 143.7908
1193.661, 143.7188
1194.143, 144.3953
1194.625, 144.4778
1195.108, 143.5074
1195.590, 143.1272
1196.072, 144.2729
1196.554, 145.7015
1197.036, 145.9285
1197.518, 145.4206
1198.000, 145.9109
1198.482, 147.1524
1198.964, 146.4494
1199.447, 144.0529
1199.929, 143.1420
1200.411, 144.3050
1200.893, 145.5668
1201.375, 145.7876
1201.857, 145.6611
1202.339, 146.1456
1202.821, 146.6562
1203.304, 146.0303
1203.786, 144.8589
1204.268, 143.9992
1204.750, 143.5874
1205.232, 143.7555
1205.714, 144.4527
1206.196, 145.3131
1206.678, 146.3788
1207.161, 146.8355
1207.643, 145.6820
1208.125, 144.3064
1208.607, 143.3575
1209.089, 142.9500
1209.571, 143.5381
1210.053, 144.6134
1210.535, 144.9099
1211.017, 144.1862
1211.500, 143.9796
1211.982, 144.9558
1212.464, 145.7810
1212.946, 146.5739
1213.428, 146.7742
1213.910, 145.8350
1214.392, 144.5964
1214.874, 143.7418
1215.356, 143.2812
1215.839, 143.2685
1216.321, 143.7310
1216.803, 144.4966
1217.285, 145.7160
1217.767, 146.1460
1218.249, 145.5091
1218.731, 144.6863
1219.213, 144.0625
1219.696, 143.8493
1220.178, 144.4292
1220.660, 145.2287
1221.142, 144.5326
1221.624, 143.0083
1222.106, 143.1992
1222.588, 144.6185
1223.070, 145.1053
1223.552, 144.4130
1224.035, 143.6447
1224.517, 143.3131
1224.999, 143.4067
1225.481, 144.2170
1225.963, 145.1029
1226.445, 145.6794
1226.927, 145.8401
1227.409, 145.1570
1227.891, 144.1425
1228.374, 143.5256
1228.856, 143.4161
1229.338, 143.7582
1229.820, 144.8813
1230.302, 145.3025
1230.784, 144.0359
1231.266, 142.9129
1231.748, 142.3221
1232.231, 142.2695
1232.713, 143.1479
1233.195, 144.2100
1233.677, 144.3282
1234.159, 143.6214
1234.641, 143.1182
1235.123, 142.8076
1235.605, 142.7631
1236.088, 143.0073
1236.570, 143.4944
1237.052, 144.2747
1237.534, 144.6486
1238.016, 144.1248
1238.498, 143.2942
1238.980, 142.9967
1239.462, 143.0220
1239.944, 142.7084
1240.427, 142.2590
1240.909, 142.3189
1241.391, 142.8098
1241.873, 143.3379
1242.355, 143.7886
1242.837, 144.2137
1243.319, 144.6696
1243.801, 144.9040
1244.283, 144.6599
1244.766, 144.2043
1245.248, 143.4778
1245.730, 142.8812
1246.212, 142.9849
1246.694, 143.4145
1247.176, 143.3808
1247.658, 142.8877
1248.140, 142.9028
1248.622, 144.1413
1249.105, 144.6543
1249.587, 143.5201
1250.069, 143.0096
1250.551, 144.0114
1251.033, 145.0920
1251.515, 145.3522
1251.997, 145.2185
1252.479, 145.3669
1252.962, 145.6745
1253.444, 145.3822
1253.926, 144.5020
1254.408, 143.6407
1254.890, 142.8627
1255.372, 142.6321
1255.854, 143.0158
1256.336, 143.4827
1256.818, 143.7354
1257.301, 143.6750
1257.783, 143.0537
1258.265, 142.2200
1258.747, 141.3865
1259.229, 140.8497
1259.711, 141.2655
1260.193, 142.1824
1260.675, 142.7071
1261.157, 142.7960
1261.640, 143.0558
1262.122, 143.7545
1262.604, 144.2083
1263.086, 143.5918
1263.568, 143.5638
1264.050, 145.5961
1264.532, 147.2789
1265.014, 146.9230
1265.497, 145.7287
1265.979, 144.9324
1266.461, 144.5079
1266.943, 144.4267
1267.425, 144.7914
1267.907, 144.5987
1268.389, 143.7451
1268.871, 143.6814
1269.354, 144.6858
1269.836, 144.9389
1270.318, 143.5950
1270.800, 142.4379
1271.282, 143.4071
1271.764, 144.9506
1272.246, 144.3179
1272.728, 142.6978
1273.210, 142.1144
1273.693, 142.1953
1274.175, 142.0726
1274.657, 141.7584
1275.139, 141.6773
1275.621, 141.9517
1276.103, 142.5418
1276.585, 144.0546
1277.067, 144.8450
1277.549, 143.6263
1278.032, 142.5054
1278.514, 142.6251
1278.996, 143.1633
1279.478, 143.6326
1279.960, 143.8489
1280.442, 143.3519
1280.924, 142.1767
1281.406, 141.4311
1281.889, 141.1472
1282.371, 140.9709
1282.853, 140.8408
1283.335, 141.9906
1283.817, 144.7557
1284.299, 146.8005
1284.781, 146.5906
1285.263, 145.5210
1285.745, 145.0022
1286.228, 145.0332
##END=



