##NAMES=Seligmannite
##RRUFFID=R090037
##IDEAL CHEMISTRY=Cu^1+^Pb^2+^As^3+^S^2-^_3_
##LOCALITY=Quiruvilca, La Libertad Department, Peru
##OWNER=RRUFF
##SOURCE=Marcus Origlieri
##DESCRIPTION=Striated silver-grey short prismatic crystals on matrix
##STATUS=The identification of this mineral has been confirmed by single-crystal X-ray diffraction.
##URL=rruff.info/R090037
91.11523, 5.796310
91.59735, 5.998906
92.07947, 5.841383
92.56158, 5.425866
93.04370, 5.073274
93.52582, 5.043050
94.00793, 5.199755
94.49006, 5.218137
94.97218, 5.011253
95.45429, 4.782516
95.93641, 4.946393
96.41853, 5.491595
96.90064, 5.955914
97.38276, 5.893743
97.86488, 5.365566
98.34699, 5.070601
98.82911, 5.202740
99.31123, 5.599195
99.79334, 5.701668
100.2755, 5.458419
100.7576, 5.097166
101.2397, 4.767881
101.7218, 4.432645
102.2039, 4.315642
102.6861, 4.556464
103.1682, 5.150807
103.6503, 5.426666
104.1324, 5.254004
104.6145, 4.909701
105.0966, 4.719995
105.5788, 4.742081
106.0609, 4.825594
106.5430, 4.953871
107.0251, 5.166873
107.5072, 5.282548
107.9893, 5.243273
108.4715, 5.121374
108.9536, 5.045852
109.4357, 4.992750
109.9178, 5.007406
110.3999, 5.130708
110.8820, 5.598167
111.3642, 5.785774
111.8463, 5.397093
112.3284, 4.678829
112.8105, 4.310409
113.2926, 4.792067
113.7747, 5.360524
114.2569, 5.616469
114.7390, 4.945022
115.2211, 4.593016
115.7032, 5.049615
116.1853, 6.157892
116.6674, 7.117171
117.1496, 7.644157
117.6317, 7.927956
118.1138, 8.123233
118.5959, 8.155094
119.0780, 8.214784
119.5602, 8.389331
120.0423, 8.678450
120.5244, 9.032880
121.0065, 9.346248
121.4886, 9.725302
121.9707, 10.31368
122.4529, 11.32711
122.9350, 12.47406
123.4171, 13.53256
123.8992, 14.49281
124.3813, 15.36836
124.8634, 16.17367
125.3456, 16.90296
125.8277, 17.54572
126.3098, 18.08402
126.7919, 18.53088
127.2740, 18.82673
127.7561, 18.90674
128.2383, 19.08032
128.7204, 19.88609
129.2025, 21.20073
129.6846, 22.37688
130.1667, 22.82582
130.6488, 22.80047
131.1310, 23.15575
131.6131, 24.09023
132.0952, 25.26455
132.5773, 25.99599
133.0594, 26.27818
133.5416, 26.63079
134.0237, 27.49484
134.5058, 28.84039
134.9879, 30.11417
135.4700, 31.21902
135.9521, 32.21047
136.4343, 33.28193
136.9164, 34.43697
137.3985, 35.67413
137.8806, 37.17229
138.3627, 39.05978
138.8448, 40.33772
139.3270, 40.70336
139.8091, 40.25946
140.2912, 39.91424
140.7733, 39.57862
141.2554, 39.49239
141.7375, 40.02705
142.2197, 41.53747
142.7018, 42.71410
143.1839, 43.11051
143.6660, 42.63924
144.1481, 42.71188
144.6303, 43.48809
145.1124, 44.67501
145.5945, 45.93262
146.0766, 47.45303
146.5587, 48.77026
147.0408, 49.73425
147.5230, 50.25188
148.0051, 50.74265
148.4872, 50.88177
148.9693, 50.73077
149.4514, 50.80896
149.9335, 51.15140
150.4157, 51.67419
150.8978, 52.36655
151.3799, 53.35921
151.8620, 54.26744
152.3441, 55.06322
152.8262, 55.78767
153.3084, 56.49843
153.7905, 57.39980
154.2726, 58.12558
154.7547, 58.55169
155.2368, 58.57872
155.7189, 58.45338
156.2011, 57.99461
156.6832, 57.38529
157.1653, 57.09422
157.6474, 57.47338
158.1295, 57.99744
158.6117, 58.41431
159.0938, 58.75832
159.5759, 58.89003
160.0580, 58.60337
160.5401, 58.03395
161.0222, 57.64736
161.5044, 57.82845
161.9865, 58.10717
162.4686, 58.16221
162.9507, 57.78371
163.4328, 57.32102
163.9149, 56.92355
164.3971, 56.56421
164.8792, 56.12498
165.3613, 55.42400
165.8434, 54.67303
166.3255, 54.06437
166.8076, 53.80577
167.2898, 53.58348
167.7719, 53.20568
168.2540, 52.68912
168.7361, 52.17595
169.2182, 51.74912
169.7004, 51.37264
170.1825, 51.00344
170.6646, 50.68159
171.1467, 50.32392
171.6288, 49.76291
172.1109, 49.01522
172.5931, 48.42160
173.0752, 48.40379
173.5573, 48.68134
174.0394, 48.80081
174.5215, 48.49194
175.0036, 47.97780
175.4858, 47.42121
175.9679, 46.81392
176.4500, 46.37112
176.9321, 46.42078
177.4142, 46.77796
177.8963, 47.01924
178.3785, 46.99266
178.8606, 46.73309
179.3427, 46.15462
179.8248, 45.20953
180.3069, 44.41272
180.7891, 44.41734
181.2712, 45.04115
181.7533, 45.71241
182.2354, 46.27958
182.7175, 46.69371
183.1996, 46.72886
183.6818, 46.31391
184.1639, 45.88686
184.6460, 45.99732
185.1281, 46.56804
185.6102, 47.20311
186.0923, 47.83264
186.5745, 48.38797
187.0566, 48.53518
187.5387, 48.17647
188.0208, 47.72767
188.5029, 47.82177
188.9850, 48.41507
189.4672, 48.97620
189.9493, 49.16453
190.4314, 49.06684
190.9135, 49.18266
191.3956, 49.59180
191.8778, 50.07604
192.3599, 50.24937
192.8420, 50.10903
193.3241, 50.03087
193.8062, 50.24776
194.2883, 50.73428
194.7705, 51.20482
195.2526, 51.66633
195.7347, 52.06404
196.2168, 52.21162
196.6989, 52.07697
197.1810, 52.06758
197.6632, 52.51731
198.1453, 53.42736
198.6274, 54.03780
199.1095, 54.24232
199.5916, 54.22442
200.0737, 54.35698
200.5559, 54.65952
201.0380, 54.99149
201.5201, 55.33776
202.0022, 55.72069
202.4843, 55.82341
202.9665, 55.53938
203.4486, 55.06083
203.9307, 54.82198
204.4128, 54.85069
204.8949, 55.01405
205.3770, 55.33792
205.8592, 55.89145
206.3413, 56.06976
206.8234, 55.72614
207.3055, 55.07428
207.7876, 54.66385
208.2697, 54.54665
208.7519, 54.51964
209.2340, 54.52607
209.7161, 54.61425
210.1982, 54.46935
210.6803, 54.00646
211.1624, 53.33933
211.6446, 52.80249
212.1267, 52.47791
212.6088, 52.09480
213.0909, 51.40861
213.5730, 50.21828
214.0551, 49.54863
214.5373, 49.64143
215.0194, 50.20648
215.5015, 50.43521
215.9836, 50.29926
216.4657, 49.88369
216.9479, 49.10522
217.4300, 47.68316
217.9121, 46.84936
218.3942, 46.90644
218.8763, 47.49927
219.3584, 47.54822
219.8406, 46.79052
220.3227, 45.96767
220.8048, 45.45636
221.2869, 45.35122
221.7690, 45.27929
222.2511, 45.25151
222.7333, 45.24312
223.2154, 45.18917
223.6975, 45.10292
224.1796, 44.94913
224.6617, 44.67967
225.1438, 44.18625
225.6260, 43.86743
226.1081, 43.74831
226.5902, 43.80791
227.0723, 44.01006
227.5544, 44.45174
228.0366, 44.88791
228.5187, 45.22290
229.0008, 45.49416
229.4829, 45.55512
229.9650, 45.29641
230.4471, 44.85563
230.9293, 44.58820
231.4114, 44.50486
231.8935, 44.57271
232.3756, 44.81607
232.8577, 45.41612
233.3398, 45.77356
233.8220, 45.88943
234.3041, 45.76268
234.7862, 45.31904
235.2683, 44.19835
235.7504, 43.32050
236.2325, 43.14245
236.7147, 44.08933
237.1968, 44.63285
237.6789, 44.59873
238.1610, 44.23376
238.6431, 44.08598
239.1253, 44.28089
239.6074, 44.50044
240.0895, 44.63026
240.5716, 44.65741
241.0537, 44.63091
241.5358, 44.54889
242.0180, 44.41399
242.5001, 44.21411
242.9822, 43.86260
243.4643, 43.58514
243.9464, 43.47840
244.4285, 43.60778
244.9107, 43.68178
245.3928, 43.65296
245.8749, 43.59535
246.3570, 43.65833
246.8391, 43.95842
247.3212, 44.17701
247.8034, 44.20330
248.2855, 44.00152
248.7676, 43.73256
249.2497, 43.28318
249.7318, 42.84772
250.2140, 42.78114
250.6961, 43.41242
251.1782, 43.80285
251.6603, 43.55873
252.1424, 42.48478
252.6245, 41.98362
253.1067, 42.33464
253.5888, 43.00283
254.0709, 43.28251
254.5530, 43.00459
255.0351, 42.67936
255.5172, 42.42378
255.9994, 42.23648
256.4815, 42.10921
256.9636, 42.02660
257.4457, 42.02123
257.9278, 42.16367
258.4099, 42.56953
258.8921, 42.86139
259.3742, 42.96523
259.8563, 42.88050
260.3384, 42.57967
260.8205, 41.89658
261.3026, 41.22302
261.7848, 40.96531
262.2669, 41.24529
262.7490, 41.62511
263.2311, 42.09113
263.7132, 42.62428
264.1953, 42.83310
264.6775, 42.57214
265.1596, 42.21901
265.6417, 42.12732
266.1238, 42.39076
266.6059, 42.58252
267.0880, 42.59051
267.5702, 42.45705
268.0523, 42.50169
268.5344, 42.81561
269.0165, 43.12124
269.4987, 43.14450
269.9808, 42.76715
270.4629, 42.67095
270.9450, 43.07691
271.4271, 43.79733
271.9092, 44.01237
272.3914, 43.58309
272.8735, 43.04249
273.3556, 42.72927
273.8377, 42.66400
274.3198, 42.69208
274.8019, 42.82266
275.2841, 43.02085
275.7662, 43.20690
276.2483, 43.38964
276.7304, 43.52192
277.2125, 43.60471
277.6946, 43.64877
278.1768, 43.45181
278.6589, 42.89671
279.1410, 42.23487
279.6231, 42.00805
280.1052, 42.26108
280.5873, 42.63603
281.0695, 42.92328
281.5516, 43.12717
282.0337, 43.60232
282.5158, 44.48823
282.9979, 45.36724
283.4800, 45.43261
283.9622, 44.64260
284.4443, 43.92185
284.9264, 43.68045
285.4085, 43.87905
285.8906, 44.19576
286.3727, 44.65971
286.8549, 45.13465
287.3370, 45.50432
287.8191, 45.76281
288.3012, 45.77440
288.7833, 45.30602
289.2654, 44.55692
289.7476, 44.33381
290.2297, 44.68991
290.7118, 45.15863
291.1939, 45.20167
291.6761, 44.89257
292.1582, 44.67898
292.6403, 44.71662
293.1224, 44.92658
293.6045, 45.09600
294.0866, 45.22233
294.5688, 45.46832
295.0509, 46.17222
295.5330, 47.15376
296.0151, 47.72840
296.4972, 47.56152
296.9793, 47.12885
297.4615, 47.31314
297.9436, 48.04647
298.4257, 48.77155
298.9078, 48.99401
299.3899, 48.91794
299.8720, 48.98328
300.3542, 49.29839
300.8363, 49.71400
301.3184, 50.00256
301.8005, 50.21580
302.2826, 50.55332
302.7647, 51.27192
303.2469, 52.14759
303.7290, 52.90129
304.2111, 53.51194
304.6932, 53.91239
305.1753, 53.85679
305.6574, 53.51609
306.1396, 53.29657
306.6217, 53.50581
307.1038, 53.88134
307.5859, 54.12400
308.0680, 54.19960
308.5501, 54.31887
309.0323, 54.70739
309.5144, 55.23523
309.9965, 55.69399
310.4786, 55.88160
310.9607, 56.05689
311.4428, 56.41932
311.9250, 56.96700
312.4071, 57.58149
312.8892, 58.20897
313.3713, 58.84763
313.8534, 59.50209
314.3355, 60.28907
314.8177, 60.97929
315.2998, 61.42738
315.7819, 61.66158
316.2640, 61.84327
316.7462, 62.02385
317.2283, 62.18700
317.7104, 62.33967
318.1925, 62.62805
318.6746, 62.68878
319.1567, 62.27454
319.6389, 61.52297
320.1210, 60.81157
320.6031, 60.14886
321.0852, 59.63715
321.5673, 59.34948
322.0494, 59.39785
322.5316, 59.43112
323.0137, 59.35140
323.4958, 59.21709
323.9779, 59.12273
324.4600, 59.06419
324.9421, 59.06770
325.4243, 59.11001
325.9064, 59.14907
326.3885, 59.41304
326.8706, 60.00724
327.3527, 60.79937
327.8348, 61.65635
328.3170, 62.77123
328.7991, 63.74268
329.2812, 64.50638
329.7633, 65.06470
330.2454, 65.45680
330.7275, 65.60095
331.2097, 65.63837
331.6918, 65.67024
332.1739, 65.76484
332.6560, 65.73922
333.1381, 65.58423
333.6202, 65.29699
334.1024, 64.86768
334.5845, 64.31152
335.0666, 63.59840
335.5487, 62.68630
336.0308, 61.51092
336.5129, 60.34738
336.9951, 59.17749
337.4772, 58.04558
337.9593, 56.99733
338.4414, 56.04506
338.9236, 55.13782
339.4057, 54.22253
339.8878, 53.29595
340.3699, 52.52436
340.8520, 51.91003
341.3341, 51.44366
341.8163, 51.08618
342.2984, 50.83553
342.7805, 50.74704
343.2626, 50.87831
343.7447, 51.18909
344.2268, 51.48983
344.7090, 51.79145
345.1911, 52.02663
345.6732, 52.05321
346.1553, 51.90998
346.6374, 51.92604
347.1195, 52.20019
347.6017, 52.63197
348.0838, 53.00349
348.5659, 53.32563
349.0480, 53.72405
349.5301, 54.32355
350.0122, 55.06571
350.4944, 55.77039
350.9765, 56.39894
351.4586, 57.04120
351.9407, 57.77219
352.4228, 58.59553
352.9049, 59.52164
353.3871, 60.52310
353.8692, 61.64501
354.3513, 63.05133
354.8334, 64.76834
355.3155, 66.35844
355.7976, 67.39072
356.2798, 68.08811
356.7619, 68.82166
357.2440, 69.88467
357.7261, 70.90514
358.2082, 71.73634
358.6903, 72.34258
359.1725, 72.48369
359.6546, 71.86170
360.1367, 70.79935
360.6188, 69.57168
361.1009, 68.24000
361.5831, 66.78422
362.0652, 65.09550
362.5473, 63.27159
363.0294, 61.55258
363.5115, 60.23895
363.9937, 58.87634
364.4758, 57.18281
364.9579, 54.93785
365.4400, 52.93957
365.9221, 51.42730
366.4042, 50.21181
366.8864, 49.05318
367.3685, 48.07508
367.8506, 46.99441
368.3327, 45.63741
368.8148, 43.96541
369.2969, 42.60337
369.7791, 41.63345
370.2612, 40.90826
370.7433, 40.34890
371.2254, 40.23775
371.7075, 39.84097
372.1896, 38.91099
372.6718, 37.63003
373.1539, 36.79964
373.6360, 36.63168
374.1181, 36.56928
374.6002, 36.36222
375.0823, 35.98074
375.5645, 35.54560
376.0466, 35.03249
376.5287, 34.49856
377.0108, 34.02732
377.4929, 33.62273
377.9750, 33.30669
378.4572, 33.13216
378.9393, 33.07475
379.4214, 32.89293
379.9035, 32.57038
380.3856, 32.19943
380.8677, 31.81701
381.3499, 31.43595
381.8320, 31.26734
382.3141, 31.47321
382.7962, 31.78320
383.2783, 31.51566
383.7604, 30.70763
384.2426, 29.96952
384.7247, 29.79154
385.2068, 29.97307
385.6889, 30.02755
386.1711, 29.87747
386.6532, 29.69444
387.1353, 29.67092
387.6174, 29.76129
388.0995, 29.84574
388.5816, 29.93727
389.0638, 29.95609
389.5459, 29.78306
390.0280, 29.42049
390.5101, 29.04901
390.9922, 28.75383
391.4743, 28.52877
391.9565, 28.36366
392.4386, 28.25252
392.9207, 28.20755
393.4028, 28.31919
393.8849, 28.51723
394.3670, 28.58968
394.8492, 28.26895
395.3313, 27.93541
395.8134, 27.83632
396.2955, 28.12563
396.7776, 28.30317
397.2597, 28.18212
397.7419, 27.91199
398.2240, 27.68637
398.7061, 27.53167
399.1882, 27.42344
399.6703, 27.38675
400.1524, 27.42724
400.6346, 27.39823
401.1167, 27.31447
401.5988, 27.14969
402.0809, 26.86105
402.5630, 26.27444
403.0451, 25.90738
403.5273, 25.83879
404.0094, 25.99959
404.4915, 26.24038
404.9736, 26.65167
405.4557, 26.92075
405.9378, 26.84836
406.4200, 26.38928
406.9021, 26.15165
407.3842, 26.21039
407.8663, 26.32175
408.3484, 26.10946
408.8306, 25.56434
409.3127, 25.18317
409.7948, 25.14965
410.2769, 25.34680
410.7590, 25.48098
411.2411, 25.55288
411.7233, 25.57088
412.2054, 25.50615
412.6875, 25.39177
413.1696, 25.32940
413.6517, 25.34457
414.1339, 25.37414
414.6160, 25.34507
415.0981, 25.27068
415.5802, 25.18734
416.0623, 25.11616
416.5444, 25.04264
417.0266, 24.93169
417.5087, 24.78232
417.9908, 24.68564
418.4729, 24.75071
418.9550, 24.87849
419.4371, 24.96194
419.9193, 24.93703
420.4014, 24.90418
420.8835, 24.92519
421.3656, 24.97498
421.8477, 24.97800
422.3298, 24.82479
422.8120, 24.69070
423.2941, 24.67791
423.7762, 24.86344
424.2583, 24.96285
424.7404, 24.93472
425.2225, 24.80793
425.7047, 24.61098
426.1868, 24.21284
426.6689, 23.92054
427.1510, 23.78976
427.6331, 23.81305
428.1152, 23.90420
428.5974, 24.10916
429.0795, 24.31509
429.5616, 24.47241
430.0437, 24.59741
430.5258, 24.58272
431.0079, 24.36607
431.4901, 24.07961
431.9722, 23.97983
432.4543, 24.08545
432.9364, 24.18239
433.4185, 24.14152
433.9007, 24.02098
434.3828, 24.16297
434.8649, 24.59392
435.3470, 24.96325
435.8291, 24.86067
436.3112, 24.42393
436.7934, 24.10749
437.2755, 24.02831
437.7576, 24.04032
438.2397, 23.96306
438.7218, 23.82292
439.2039, 23.70744
439.6861, 23.69861
440.1682, 23.71907
440.6503, 23.70887
441.1324, 23.66565
441.6145, 23.54383
442.0966, 23.08327
442.5788, 22.62104
443.0609, 22.52404
443.5430, 23.39342
444.0251, 24.12480
444.5072, 24.23587
444.9893, 23.87214
445.4715, 23.56761
445.9536, 23.41361
446.4357, 23.36572
446.9178, 23.42804
447.3999, 23.66861
447.8820, 23.83662
448.3642, 23.97251
448.8463, 24.01130
449.3284, 23.85737
449.8105, 23.32010
450.2926, 22.94404
450.7747, 22.84662
451.2569, 22.99154
451.7390, 23.16730
452.2211, 23.39245
452.7032, 23.60488
453.1853, 23.79624
453.6674, 23.97494
454.1496, 23.99486
454.6317, 23.83994
455.1138, 23.55170
455.5959, 23.08870
456.0781, 22.47862
456.5602, 22.08675
457.0423, 22.12559
457.5244, 22.40814
458.0065, 22.60485
458.4886, 22.71427
458.9708, 22.73570
459.4529, 22.53644
459.9350, 22.28824
460.4171, 22.31168
460.8992, 22.74355
461.3813, 23.12711
461.8635, 23.00760
462.3456, 22.61547
462.8277, 22.34200
463.3098, 22.50101
463.7919, 22.67838
464.2740, 22.58359
464.7562, 22.24111
465.2383, 22.08212
465.7204, 22.48479
466.2025, 22.94104
466.6846, 23.11764
467.1667, 22.68354
467.6489, 22.44479
468.1310, 22.67517
468.6131, 23.06109
469.0952, 23.08049
469.5773, 22.42691
470.0594, 21.89888
470.5416, 21.71513
471.0237, 21.86443
471.5058, 21.98040
471.9879, 22.04604
472.4700, 22.11720
472.9521, 22.27168
473.4343, 22.52162
473.9164, 22.62121
474.3985, 22.53059
474.8806, 22.31972
475.3627, 22.02499
475.8448, 21.66800
476.3270, 21.47531
476.8091, 21.60854
477.2912, 21.94530
477.7733, 22.33458
478.2554, 22.76260
478.7375, 23.01861
479.2197, 22.80433
479.7018, 22.36713
480.1839, 22.04753
480.6660, 21.93245
481.1482, 21.88980
481.6303, 21.87805
482.1124, 21.87445
482.5945, 21.84044
483.0766, 21.74897
483.5587, 21.63558
484.0409, 21.45604
484.5230, 21.21967
485.0051, 21.15990
485.4872, 21.48946
485.9693, 21.88800
486.4514, 22.16869
486.9336, 22.31314
487.4157, 22.37149
487.8978, 22.33608
488.3799, 22.21888
488.8620, 21.99800
489.3441, 21.55398
489.8263, 21.31800
490.3084, 21.48294
490.7905, 21.97101
491.2726, 22.17710
491.7547, 22.06235
492.2368, 21.86502
492.7190, 21.72336
493.2011, 21.64085
493.6832, 21.69650
494.1653, 21.93526
494.6474, 22.16454
495.1295, 22.06234
495.6117, 21.73764
496.0938, 21.53230
496.5759, 21.69046
497.0580, 21.94057
497.5401, 21.97875
498.0222, 21.83891
498.5044, 21.69225
498.9865, 21.68182
499.4686, 21.67469
499.9507, 21.53526
500.4328, 21.18936
500.9149, 20.92653
501.3971, 20.88775
501.8792, 20.96589
502.3613, 21.03583
502.8434, 21.03437
503.3256, 21.07320
503.8077, 21.20148
504.2898, 21.39291
504.7719, 21.53284
505.2540, 21.65211
505.7361, 21.67172
506.2183, 21.50817
506.7004, 21.10132
507.1825, 20.95134
507.6646, 21.15627
508.1467, 21.40842
508.6288, 21.31664
509.1110, 20.88284
509.5931, 20.53834
510.0752, 20.35524
510.5573, 20.32692
511.0394, 20.51935
511.5215, 20.89544
512.0037, 21.22000
512.4858, 21.28908
512.9679, 21.26056
513.4500, 21.43213
513.9321, 21.80770
514.4142, 22.02568
514.8964, 21.63583
515.3785, 21.04252
515.8606, 20.68941
516.3427, 20.77723
516.8248, 20.94137
517.3069, 21.09183
517.7891, 21.21591
518.2712, 21.29043
518.7533, 21.31004
519.2354, 21.27844
519.7175, 21.16373
520.1996, 20.96862
520.6818, 20.84830
521.1639, 20.82929
521.6460, 20.85256
522.1281, 20.90144
522.6102, 21.00720
523.0923, 20.99745
523.5745, 20.81420
524.0566, 20.60422
524.5387, 20.61481
525.0208, 20.84549
525.5029, 21.02187
525.9850, 21.04547
526.4672, 20.98181
526.9493, 20.98040
527.4314, 21.03243
527.9135, 21.06069
528.3956, 21.00980
528.8777, 20.90961
529.3599, 20.78662
529.8420, 20.63880
530.3241, 20.51990
530.8062, 20.50412
531.2883, 20.51963
531.7704, 20.48194
532.2526, 20.25429
532.7347, 20.11915
533.2168, 20.23592
533.6989, 20.50548
534.1810, 20.69850
534.6631, 20.75706
535.1453, 20.75820
535.6274, 20.73478
536.1095, 20.68892
536.5916, 20.50166
537.0737, 20.02204
537.5558, 19.63162
538.0380, 19.62885
538.5201, 20.07778
539.0023, 20.51460
539.4844, 20.95720
539.9665, 21.26796
540.4486, 21.11309
540.9307, 20.55787
541.4128, 20.14968
541.8950, 20.13106
542.3771, 20.30254
542.8592, 20.30285
543.3413, 20.17944
543.8234, 20.18120
544.3055, 20.70700
544.7877, 21.28464
545.2698, 21.39214
545.7519, 20.94735
546.2340, 20.49125
546.7161, 20.27982
547.1982, 20.18317
547.6804, 20.08084
548.1625, 19.88590
548.6446, 19.76562
549.1267, 19.78939
549.6088, 19.89674
550.0909, 19.96293
550.5731, 19.94036
551.0552, 19.96169
551.5373, 20.11227
552.0194, 20.36118
552.5015, 20.35193
552.9836, 20.02514
553.4658, 19.65026
553.9479, 19.34389
554.4300, 19.11975
554.9121, 19.17756
555.3942, 19.56568
555.8763, 20.02722
556.3585, 20.31541
556.8406, 20.44732
557.3227, 20.46251
557.8048, 20.35326
558.2869, 20.15926
558.7690, 19.84538
559.2512, 19.47114
559.7333, 19.19099
560.2154, 19.05433
560.6975, 19.04797
561.1796, 19.22212
561.6617, 19.58136
562.1439, 19.85952
562.6260, 20.04527
563.1081, 20.10013
563.5902, 19.98615
564.0723, 19.50940
564.5544, 19.28637
565.0366, 19.40015
565.5187, 19.68379
566.0008, 19.92585
566.4829, 20.12808
566.9650, 20.28439
567.4471, 20.37791
567.9293, 20.43954
568.4114, 20.60958
568.8935, 20.87043
569.3756, 20.96122
569.8577, 20.58365
570.3398, 19.98745
570.8220, 19.59889
571.3041, 19.41984
571.7862, 19.38998
572.2683, 19.59791
572.7504, 19.86373
573.2325, 20.00841
573.7147, 19.97126
574.1968, 19.87552
574.6789, 19.66535
575.1610, 19.45732
575.6431, 19.40016
576.1252, 19.60976
576.6074, 19.87161
577.0895, 20.27114
577.5716, 20.70909
578.0537, 20.78416
578.5358, 20.36938
579.0179, 19.87909
579.5001, 19.39855
579.9822, 18.94413
580.4643, 18.93400
580.9464, 19.42603
581.4285, 19.96149
581.9106, 20.17614
582.3928, 20.11890
582.8749, 19.91079
583.3570, 19.52967
583.8391, 19.18612
584.3212, 19.13455
584.8033, 19.25257
585.2855, 19.32804
585.7676, 19.16896
586.2498, 19.07280
586.7319, 19.33541
587.2140, 19.79199
587.6961, 19.97095
588.1782, 19.34986
588.6603, 18.82497
589.1425, 18.77979
589.6246, 19.24072
590.1067, 19.51508
590.5888, 19.51978
591.0709, 19.45425
591.5530, 19.43301
592.0352, 19.45984
592.5173, 19.50970
592.9994, 19.59168
593.4815, 19.66820
593.9636, 19.66834
594.4457, 19.61216
594.9279, 19.61956
595.4100, 19.76221
595.8921, 19.90649
596.3742, 19.85077
596.8563, 19.65629
597.3384, 19.48126
597.8206, 19.41635
598.3027, 19.38699
598.7848, 19.37438
599.2669, 19.36927
599.7490, 19.30400
600.2311, 18.97843
600.7133, 18.73222
601.1954, 18.79759
601.6775, 19.34407
602.1596, 19.61025
602.6417, 19.44775
603.1238, 19.18090
603.6060, 19.11699
604.0881, 19.29391
604.5702, 19.46615
605.0523, 19.63309
605.5344, 19.73156
606.0165, 19.57917
606.4987, 19.22187
606.9808, 18.96012
607.4629, 18.93303
607.9450, 19.03744
608.4271, 19.16761
608.9092, 19.31594
609.3914, 19.44691
609.8735, 19.63482
610.3556, 19.72672
610.8377, 19.49407
611.3198, 18.90827
611.8019, 18.63251
612.2841, 19.20589
612.7662, 19.88374
613.2483, 20.17386
613.7304, 19.83599
614.2125, 19.63907
614.6946, 19.63266
615.1768, 19.71125
615.6589, 19.76865
616.1410, 19.81254
616.6231, 19.75764
617.1052, 19.53645
617.5873, 19.29135
618.0695, 19.41186
618.5516, 19.81715
619.0337, 20.04797
619.5158, 19.68532
619.9979, 19.17100
620.4800, 19.07492
620.9622, 19.33467
621.4443, 19.62670
621.9264, 19.85896
622.4085, 20.00763
622.8906, 20.01558
623.3727, 19.84464
623.8549, 19.77860
624.3370, 20.04824
624.8191, 20.30943
625.3012, 20.31342
625.7833, 19.85557
626.2654, 19.64370
626.7476, 19.78425
627.2297, 20.03561
627.7118, 20.03749
628.1939, 19.78214
628.6760, 19.60124
629.1581, 19.60181
629.6403, 19.66068
630.1224, 19.51752
630.6045, 19.23530
631.0866, 19.05003
631.5687, 19.11373
632.0509, 19.30132
632.5330, 19.61112
633.0151, 19.98610
633.4973, 20.14193
633.9794, 19.72591
634.4615, 19.25327
634.9436, 18.98169
635.4257, 18.95835
635.9078, 19.03268
636.3900, 19.27281
636.8721, 19.53267
637.3542, 19.71671
637.8363, 19.82903
638.3184, 19.82611
638.8005, 19.65270
639.2827, 19.49126
639.7648, 19.70836
640.2469, 20.21744
640.7290, 20.36388
641.2111, 19.84790
641.6932, 19.20383
642.1754, 19.13751
642.6575, 19.45770
643.1396, 19.70105
643.6217, 19.52736
644.1038, 19.34063
644.5859, 19.41723
645.0681, 19.69456
645.5502, 19.86710
646.0323, 19.76697
646.5144, 19.64480
646.9965, 19.59609
647.4786, 19.62682
647.9608, 19.60504
648.4429, 19.48723
648.9250, 19.40558
649.4071, 19.48625
649.8892, 19.72324
650.3713, 19.85357
650.8535, 19.86521
651.3356, 19.78550
651.8177, 19.56015
652.2998, 19.27542
652.7819, 19.13156
653.2640, 19.20689
653.7462, 19.33787
654.2283, 19.47908
654.7104, 19.57626
655.1925, 19.54892
655.6746, 19.25708
656.1567, 18.96608
656.6389, 18.58969
657.1210, 18.26819
657.6031, 18.44561
658.0852, 19.62101
658.5673, 20.37280
659.0494, 20.11290
659.5316, 19.06842
660.0137, 18.69836
660.4958, 19.06415
660.9779, 19.45872
661.4600, 19.36578
661.9421, 18.99131
662.4243, 18.89012
662.9064, 19.07078
663.3885, 19.28609
663.8706, 19.30516
664.3527, 19.28845
664.8348, 19.44952
665.3170, 19.90815
665.7991, 20.16604
666.2812, 19.83046
666.7633, 19.33865
667.2454, 19.11971
667.7275, 19.49104
668.2097, 19.58019
668.6918, 19.18869
669.1739, 18.67066
669.6560, 18.65435
670.1381, 19.20207
670.6202, 19.57019
671.1024, 19.54859
671.5845, 19.29965
672.0666, 19.02886
672.5487, 18.76924
673.0308, 18.65564
673.5129, 18.86159
673.9951, 19.15983
674.4772, 19.40451
674.9593, 19.58588
675.4414, 19.66354
675.9235, 19.50695
676.4056, 19.34818
676.8878, 19.30466
677.3699, 19.38868
677.8520, 19.44056
678.3341, 19.44611
678.8162, 19.44013
679.2984, 19.45508
679.7805, 19.49766
680.2626, 19.43239
680.7448, 19.23464
681.2269, 19.06519
681.7090, 19.15799
682.1911, 19.39866
682.6732, 19.47645
683.1553, 19.32520
683.6375, 19.10946
684.1196, 18.90574
684.6017, 18.73507
685.0838, 18.62244
685.5659, 18.62360
686.0480, 18.61711
686.5302, 18.53583
687.0123, 18.44071
687.4944, 18.43742
687.9765, 18.58303
688.4586, 18.69853
688.9407, 18.72722
689.4229, 18.72644
689.9050, 18.90365
690.3871, 19.26599
690.8692, 19.48660
691.3513, 19.29782
691.8334, 18.98146
692.3156, 19.14399
692.7977, 19.67237
693.2798, 20.03508
693.7619, 19.80769
694.2440, 19.40250
694.7261, 19.08831
695.2083, 18.88125
695.6904, 18.65067
696.1725, 18.22587
696.6546, 17.90267
697.1367, 17.83759
697.6188, 18.07367
698.1010, 18.26713
698.5831, 18.40987
699.0652, 18.52707
699.5473, 18.66089
700.0294, 18.79958
700.5115, 18.86181
700.9937, 18.84991
701.4758, 18.69296
701.9579, 18.06927
702.4400, 17.33111
702.9221, 17.08071
703.4042, 17.65176
703.8864, 18.17339
704.3685, 17.98171
704.8506, 17.58151
705.3327, 17.56878
705.8148, 18.62661
706.2969, 19.29056
706.7791, 19.33065
707.2612, 19.02163
707.7433, 18.84141
708.2254, 18.81021
708.7075, 18.76694
709.1896, 18.66583
709.6718, 18.53795
710.1539, 18.42668
710.6360, 18.34051
711.1181, 18.31277
711.6002, 18.39409
712.0823, 18.51364
712.5645, 18.63279
713.0466, 18.74456
713.5287, 18.82104
714.0108, 18.87429
714.4929, 18.87011
714.9750, 18.72994
715.4572, 18.47581
715.9393, 18.43059
716.4214, 18.71879
716.9035, 18.95149
717.3856, 18.89354
717.8677, 18.57980
718.3499, 18.38116
718.8320, 18.29314
719.3141, 18.36316
719.7962, 18.81398
720.2783, 19.37046
720.7604, 19.57651
721.2426, 19.38011
721.7247, 19.13720
722.2068, 19.04776
722.6889, 18.99558
723.1710, 18.86664
723.6531, 18.54377
724.1353, 18.44457
724.6174, 18.77987
725.0995, 19.14414
725.5816, 19.13677
726.0638, 18.66679
726.5459, 18.46203
727.0280, 18.61452
727.5101, 18.89971
727.9922, 19.11618
728.4744, 19.23882
728.9565, 19.15739
729.4386, 18.76504
729.9207, 18.39440
730.4028, 18.36271
730.8849, 18.50510
731.3671, 18.59350
731.8492, 18.54982
732.3313, 18.46030
732.8134, 18.22545
733.2955, 17.99311
733.7776, 18.04003
734.2598, 18.48525
734.7419, 18.84004
735.2240, 19.00093
735.7061, 19.01369
736.1882, 18.89123
736.6703, 18.66968
737.1525, 18.63364
737.6346, 19.05670
738.1167, 19.55930
738.5988, 19.69926
739.0809, 19.56839
739.5630, 19.42861
740.0452, 19.41729
740.5273, 19.38994
741.0094, 19.23967
741.4915, 19.00178
741.9736, 18.91908
742.4557, 19.10565
742.9379, 19.22506
743.4200, 19.13761
743.9021, 18.88030
744.3842, 18.63922
744.8663, 18.41230
745.3484, 18.28621
745.8306, 18.40393
746.3127, 18.61051
746.7948, 18.63461
747.2769, 18.49761
747.7590, 18.42296
748.2411, 18.66686
748.7233, 18.89865
749.2054, 18.87606
749.6875, 18.53614
750.1696, 18.36015
750.6517, 18.42464
751.1339, 18.56546
751.6160, 18.73572
752.0981, 18.94516
752.5802, 18.89160
753.0623, 18.53509
753.5444, 18.24289
754.0266, 18.45489
754.5087, 18.91378
754.9908, 19.09864
755.4729, 18.94905
755.9550, 18.75062
756.4371, 18.61305
756.9193, 18.55017
757.4014, 18.59840
757.8835, 18.85233
758.3656, 18.95190
758.8477, 18.73814
759.3298, 18.52068
759.8120, 18.61590
760.2941, 19.09313
760.7762, 19.23508
761.2583, 18.95767
761.7404, 18.55575
762.2225, 18.31215
762.7047, 18.20023
763.1868, 18.18114
763.6689, 18.26451
764.1510, 18.36197
764.6331, 18.40638
765.1152, 18.43691
765.5974, 18.49534
766.0795, 18.60475
766.5616, 18.72597
767.0437, 18.92384
767.5258, 19.07516
768.0079, 18.97467
768.4901, 18.56412
768.9722, 18.40535
769.4543, 18.62125
769.9364, 18.96324
770.4185, 19.11999
770.9006, 19.13000
771.3828, 19.09295
771.8649, 19.04272
772.3470, 18.93923
772.8291, 18.66623
773.3113, 18.35379
773.7934, 18.18176
774.2755, 18.34345
774.7576, 18.43694
775.2397, 18.32981
775.7219, 18.20856
776.2040, 18.46801
776.6861, 19.18859
777.1682, 19.53979
777.6503, 19.27890
778.1324, 18.74717
778.6146, 18.39744
779.0967, 18.21001
779.5788, 18.12719
780.0609, 18.12506
780.5430, 18.22385
781.0251, 18.53462
781.5073, 18.93741
781.9894, 19.20953
782.4715, 19.27262
782.9536, 19.24543
783.4357, 19.11866
783.9178, 18.92262
784.4000, 18.69199
784.8821, 18.41845
785.3642, 18.21686
785.8463, 18.10506
786.3284, 18.10110
786.8105, 18.29230
787.2927, 18.61471
787.7748, 18.90946
788.2569, 19.16620
788.7390, 19.31198
789.2211, 19.25002
789.7032, 19.05314
790.1854, 18.88976
790.6675, 18.70986
791.1496, 18.68798
791.6317, 18.94419
792.1138, 19.31304
792.5959, 19.32212
793.0781, 18.97384
793.5602, 18.71949
794.0423, 18.74277
794.5244, 18.89355
795.0065, 18.99399
795.4886, 19.05270
795.9708, 19.08724
796.4529, 19.14803
796.9350, 19.14134
797.4171, 18.93058
797.8992, 18.62668
798.3813, 18.54981
798.8635, 18.82655
799.3456, 19.06398
799.8277, 19.18618
800.3098, 19.20888
800.7919, 19.13932
801.2740, 18.98785
801.7562, 18.86208
802.2383, 18.83331
802.7204, 18.81199
803.2025, 18.67082
803.6846, 18.46370
804.1667, 18.31217
804.6489, 18.16353
805.1310, 18.18534
805.6131, 18.59887
806.0952, 19.18565
806.5773, 19.47872
807.0594, 19.39607
807.5416, 19.28087
808.0237, 19.20189
808.5058, 19.16047
808.9879, 19.18237
809.4700, 19.25085
809.9521, 19.29642
810.4343, 19.32513
810.9164, 19.27947
811.3985, 18.95224
811.8806, 18.53463
812.3627, 18.42812
812.8448, 19.20706
813.3270, 19.70801
813.8091, 19.64148
814.2912, 19.23817
814.7733, 18.95088
815.2554, 18.77478
815.7375, 18.79436
816.2197, 19.11156
816.7018, 19.49503
817.1839, 19.53050
817.6660, 19.32936
818.1481, 19.15169
818.6302, 19.16865
819.1124, 19.14577
819.5945, 18.86364
820.0767, 18.48864
820.5588, 18.36251
821.0409, 18.69189
821.5230, 18.89759
822.0051, 18.87895
822.4872, 18.73666
822.9694, 18.60956
823.4515, 18.50629
823.9336, 18.53872
824.4157, 18.78889
824.8978, 19.06291
825.3799, 19.11808
825.8621, 19.06801
826.3442, 19.09919
826.8263, 19.40289
827.3084, 19.62079
827.7905, 19.68999
828.2726, 19.62251
828.7548, 19.37745
829.2369, 18.87302
829.7190, 18.58303
830.2011, 18.62396
830.6832, 18.76101
831.1653, 18.56949
831.6475, 18.20816
832.1296, 18.15047
832.6117, 18.62325
833.0938, 19.09559
833.5759, 19.25659
834.0580, 19.21438
834.5402, 19.08993
835.0223, 18.77435
835.5044, 18.56207
835.9865, 18.40397
836.4686, 18.41144
836.9507, 18.87305
837.4329, 19.75393
837.9150, 20.05659
838.3971, 19.60737
838.8792, 19.00137
839.3613, 18.81184
839.8434, 18.85871
840.3256, 18.89865
840.8077, 18.87200
841.2898, 18.89369
841.7719, 19.10028
842.2540, 19.29399
842.7361, 19.31711
843.2183, 19.11186
843.7004, 18.94886
844.1825, 18.81472
844.6646, 18.77687
845.1467, 19.03445
845.6288, 19.41832
846.1110, 19.40061
846.5931, 18.93438
847.0752, 18.55422
847.5573, 18.75773
848.0394, 19.08041
848.5215, 19.13943
849.0037, 18.82553
849.4858, 18.71016
849.9679, 18.88819
850.4500, 19.13342
850.9321, 19.38227
851.4142, 19.61528
851.8964, 19.58715
852.3785, 19.30191
852.8606, 18.87781
853.3427, 18.12169
853.8248, 17.46197
854.3069, 17.49380
854.7891, 18.15472
855.2712, 18.65738
855.7533, 18.53076
856.2354, 18.42228
856.7175, 18.65301
857.1996, 19.12914
857.6818, 19.08260
858.1639, 18.42120
858.6460, 17.92278
859.1281, 18.06058
859.6102, 18.50449
860.0923, 18.62877
860.5745, 18.51763
861.0566, 18.45478
861.5387, 18.61370
862.0208, 18.81115
862.5029, 19.10845
862.9850, 19.37729
863.4672, 19.19186
863.9493, 18.22724
864.4314, 17.67121
864.9135, 17.89740
865.3956, 18.53069
865.8777, 18.83143
866.3599, 18.85211
866.8420, 18.78687
867.3242, 18.64201
867.8063, 18.53909
868.2884, 18.63577
868.7705, 18.81153
869.2526, 18.88636
869.7347, 18.66869
870.2169, 18.57386
870.6990, 18.67676
871.1811, 18.84285
871.6632, 18.94208
872.1453, 18.96715
872.6274, 18.73487
873.1096, 18.16218
873.5917, 17.65621
874.0738, 17.77062
874.5559, 18.14142
875.0380, 18.29960
875.5201, 18.07703
876.0023, 17.89799
876.4844, 17.89740
876.9665, 17.94312
877.4486, 17.94186
877.9307, 17.87421
878.4128, 17.92629
878.8950, 18.11451
879.3771, 18.29396
879.8592, 18.41018
880.3413, 18.40944
880.8234, 18.05851
881.3055, 17.37121
881.7877, 17.00649
882.2698, 17.78499
882.7519, 18.47287
883.2340, 18.23290
883.7161, 17.14145
884.1982, 16.76907
884.6804, 17.28665
885.1625, 17.82805
885.6446, 17.93776
886.1267, 17.79416
886.6088, 17.87650
887.0909, 18.10719
887.5731, 18.16637
888.0552, 17.54269
888.5373, 17.06054
889.0194, 17.41214
889.5015, 18.25234
889.9836, 18.40780
890.4658, 17.46029
890.9479, 16.82915
891.4300, 16.88982
891.9121, 17.28666
892.3942, 17.31561
892.8763, 17.07610
893.3585, 16.99860
893.8406, 17.28861
894.3227, 17.58685
894.8048, 17.62733
895.2869, 17.52266
895.7690, 17.40864
896.2512, 17.28539
896.7333, 17.18679
897.2154, 17.10157
897.6975, 17.06184
898.1796, 17.14370
898.6617, 17.31986
899.1439, 17.37737
899.6260, 17.29164
900.1081, 17.18376
900.5902, 17.14664
901.0723, 17.14074
901.5544, 17.14566
902.0366, 17.16887
902.5187, 17.11049
903.0008, 16.86421
903.4829, 16.68145
903.9650, 16.73255
904.4471, 16.97525
904.9293, 16.94560
905.4114, 16.66019
905.8935, 16.49259
906.3756, 16.84197
906.8577, 17.29359
907.3398, 17.39862
907.8220, 17.23445
908.3041, 17.13416
908.7862, 17.32481
909.2683, 17.40473
909.7504, 17.23728
910.2325, 16.93840
910.7147, 16.78868
911.1968, 16.78557
911.6789, 16.87227
912.1610, 17.08801
912.6431, 17.25298
913.1252, 17.10511
913.6074, 16.78779
914.0895, 16.51158
914.5717, 16.23462
915.0538, 16.18359
915.5359, 16.55565
916.0180, 17.00331
916.5001, 17.19151
916.9822, 17.10442
917.4644, 17.08715
917.9465, 17.16963
918.4286, 17.22907
918.9107, 17.11957
919.3928, 16.93828
919.8749, 16.79967
920.3571, 16.71715
920.8392, 16.64075
921.3213, 16.59802
921.8034, 16.51005
922.2855, 16.30635
922.7676, 16.01095
923.2498, 15.91286
923.7319, 16.01693
924.2140, 16.11950
924.6961, 16.07003
925.1782, 15.99591
925.6603, 16.07320
926.1425, 16.26121
926.6246, 16.45247
927.1067, 16.63280
927.5888, 16.78111
928.0709, 16.92955
928.5530, 17.02571
929.0352, 16.90791
929.5173, 16.55896
929.9994, 16.45427
930.4815, 16.73480
930.9636, 17.08983
931.4457, 17.23390
931.9279, 17.20141
932.4100, 16.98984
932.8921, 16.48610
933.3742, 16.17488
933.8563, 16.32470
934.3384, 16.55652
934.8206, 16.62869
935.3027, 16.53329
935.7848, 16.49870
936.2669, 16.52772
936.7490, 16.54802
937.2311, 16.51101
937.7133, 16.43261
938.1954, 16.24573
938.6775, 15.99837
939.1596, 15.98463
939.6417, 16.67267
940.1238, 17.14371
940.6060, 17.10218
941.0881, 16.70394
941.5702, 16.34815
942.0523, 16.03832
942.5344, 15.88249
943.0165, 15.93505
943.4987, 16.10058
943.9808, 16.37667
944.4629, 16.66265
944.9450, 16.80749
945.4271, 16.71818
945.9092, 16.56336
946.3914, 16.27270
946.8735, 16.03172
947.3556, 16.07265
947.8377, 16.37062
948.3198, 16.50724
948.8019, 16.45617
949.2841, 16.33364
949.7662, 16.10889
950.2483, 15.94924
950.7304, 16.07347
951.2125, 16.48827
951.6946, 16.75847
952.1768, 16.72214
952.6589, 16.74296
953.1410, 17.03736
953.6231, 17.42911
954.1052, 17.18969
954.5873, 16.43790
955.0695, 15.92474
955.5516, 16.10971
956.0337, 16.43604
956.5158, 16.47099
956.9979, 16.36746
957.4800, 16.38578
957.9622, 16.75296
958.4443, 16.83953
958.9264, 16.51758
959.4085, 16.10408
959.8906, 15.95619
960.3727, 16.01425
960.8549, 16.06354
961.3370, 16.08221
961.8192, 16.11835
962.3013, 16.27741
962.7834, 16.40598
963.2655, 16.37060
963.7476, 16.16570
964.2297, 15.98397
964.7119, 15.79842
965.1940, 15.74850
965.6761, 15.96639
966.1582, 16.29462
966.6403, 16.37926
967.1224, 16.28273
967.6046, 16.19195
968.0867, 16.18307
968.5688, 16.20343
969.0509, 16.26252
969.5330, 16.32636
970.0151, 16.34901
970.4973, 16.32449
970.9794, 16.26695
971.4615, 16.15826
971.9436, 16.10794
972.4257, 16.35468
972.9078, 16.68111
973.3900, 16.70578
973.8721, 16.36889
974.3542, 16.12462
974.8363, 16.18122
975.3184, 16.32206
975.8005, 16.49518
976.2827, 16.67593
976.7648, 16.63748
977.2469, 16.38298
977.7290, 16.15037
978.2111, 16.02299
978.6932, 16.00542
979.1754, 16.26233
979.6575, 16.60193
980.1396, 16.66066
980.6217, 15.93605
981.1038, 15.52131
981.5859, 15.58127
982.0681, 15.83789
982.5502, 15.98861
983.0323, 16.04813
983.5144, 16.12769
983.9965, 16.24008
984.4786, 16.29797
984.9608, 16.13440
985.4429, 15.97012
985.9250, 16.03105
986.4071, 16.33467
986.8892, 16.40874
987.3713, 16.15867
987.8535, 15.91952
988.3356, 15.76836
988.8177, 15.76085
989.2998, 16.17229
989.7819, 16.84176
990.2640, 17.29293
990.7462, 17.23667
991.2283, 17.07411
991.7104, 16.93812
992.1925, 16.79372
992.6746, 16.58652
993.1567, 16.28149
993.6389, 16.09571
994.1210, 16.04386
994.6031, 16.07557
995.0852, 16.16853
995.5673, 16.30265
996.0494, 16.51206
996.5316, 16.77812
997.0137, 16.86202
997.4958, 16.49664
997.9779, 16.15876
998.4600, 15.97370
998.9421, 15.92453
999.4243, 15.97241
999.9064, 16.11675
1000.388, 16.40190
1000.871, 16.97382
1001.353, 17.37586
1001.835, 16.93612
1002.317, 16.22824
1002.799, 15.97665
1003.281, 16.60222
1003.763, 16.91053
1004.245, 16.81853
1004.728, 16.61344
1005.210, 16.47331
1005.692, 16.40330
1006.174, 16.51586
1006.656, 16.75937
1007.138, 16.78106
1007.620, 16.01691
1008.102, 15.38548
1008.585, 15.44492
1009.067, 15.92367
1009.549, 16.21589
1010.031, 16.31035
1010.513, 16.31507
1010.995, 16.21808
1011.477, 16.16167
1011.959, 16.46293
1012.441, 16.84952
1012.924, 16.88009
1013.406, 16.34791
1013.888, 16.07349
1014.370, 16.36160
1014.852, 16.68124
1015.334, 16.75549
1015.816, 16.62777
1016.298, 16.50293
1016.781, 16.40214
1017.263, 16.47493
1017.745, 17.13156
1018.227, 17.65211
1018.709, 17.39474
1019.191, 16.71929
1019.673, 16.35055
1020.155, 16.46282
1020.637, 16.42588
1021.120, 16.13801
1021.602, 15.86830
1022.084, 15.99373
1022.566, 16.31945
1023.048, 16.49241
1023.530, 16.47702
1024.012, 16.40234
1024.494, 16.12702
1024.976, 16.03583
1025.459, 16.39182
1025.941, 17.02436
1026.423, 17.16061
1026.905, 16.82975
1027.387, 16.55223
1027.869, 16.52711
1028.351, 16.58685
1028.833, 16.59568
1029.316, 16.58766
1029.798, 16.62269
1030.280, 16.83490
1030.762, 16.73046
1031.244, 16.14739
1031.726, 15.65825
1032.208, 15.83705
1032.690, 16.40720
1033.172, 16.59675
1033.655, 16.45373
1034.137, 16.29986
1034.619, 16.23965
1035.101, 16.26615
1035.583, 16.44805
1036.065, 16.67834
1036.547, 16.72087
1037.029, 16.56435
1037.512, 16.61283
1037.994, 16.98153
1038.476, 17.26757
1038.958, 16.95758
1039.440, 16.42043
1039.922, 15.98349
1040.404, 15.67423
1040.886, 15.68867
1041.369, 16.22187
1041.851, 16.63836
1042.333, 16.62424
1042.815, 16.35210
1043.297, 16.22952
1043.779, 16.23364
1044.261, 16.30623
1044.743, 16.46527
1045.225, 16.62379
1045.708, 16.89392
1046.190, 17.03745
1046.672, 16.70575
1047.154, 15.79785
1047.636, 15.63302
1048.118, 16.27454
1048.600, 16.86898
1049.082, 16.53683
1049.564, 16.01458
1050.047, 16.10937
1050.529, 16.68591
1051.011, 16.97865
1051.493, 16.78936
1051.975, 16.58470
1052.457, 16.44185
1052.939, 16.32639
1053.421, 16.11770
1053.904, 15.90790
1054.386, 15.95851
1054.868, 16.35642
1055.350, 16.67988
1055.832, 16.70287
1056.314, 16.62448
1056.796, 16.51896
1057.278, 16.40390
1057.760, 16.48258
1058.243, 16.74281
1058.725, 16.84828
1059.207, 16.50060
1059.689, 16.18295
1060.171, 16.52551
1060.653, 17.09286
1061.135, 17.21852
1061.617, 16.46723
1062.099, 16.16287
1062.582, 16.43684
1063.064, 16.74240
1063.546, 16.51941
1064.028, 16.06098
1064.510, 16.02559
1064.992, 16.33891
1065.474, 16.51550
1065.956, 16.07975
1066.439, 15.86403
1066.921, 16.21871
1067.403, 16.75725
1067.885, 16.76297
1068.367, 16.30182
1068.849, 16.00656
1069.331, 15.98080
1069.813, 15.97478
1070.296, 15.71318
1070.778, 15.46803
1071.260, 15.48796
1071.742, 15.75943
1072.224, 15.99604
1072.706, 16.20986
1073.188, 16.31016
1073.670, 16.24358
1074.152, 16.08826
1074.635, 15.86440
1075.117, 15.65589
1075.599, 15.60220
1076.081, 15.81188
1076.563, 16.02640
1077.045, 16.29099
1077.527, 16.43662
1078.009, 16.25377
1078.491, 15.86090
1078.974, 15.71132
1079.456, 15.78423
1079.938, 15.96583
1080.420, 16.41589
1080.902, 16.71456
1081.384, 16.63143
1081.866, 16.33859
1082.349, 15.98116
1082.831, 15.55268
1083.313, 15.26715
1083.795, 15.14554
1084.277, 15.14735
1084.759, 15.27412
1085.241, 15.48472
1085.723, 15.86242
1086.205, 16.33843
1086.688, 16.38655
1087.170, 15.81841
1087.652, 15.43927
1088.134, 15.48154
1088.616, 15.68308
1089.098, 15.67462
1089.580, 15.55751
1090.062, 15.50520
1090.544, 15.56697
1091.027, 15.59395
1091.509, 15.51764
1091.991, 15.46036
1092.473, 15.47991
1092.955, 15.55873
1093.437, 15.64660
1093.919, 15.73941
1094.401, 15.81841
1094.884, 15.87782
1095.366, 15.92063
1095.848, 15.97276
1096.330, 15.98936
1096.812, 15.89554
1097.294, 15.66103
1097.776, 15.68457
1098.258, 15.96980
1098.740, 16.18919
1099.223, 16.04074
1099.705, 15.81028
1100.187, 15.74463
1100.669, 15.78252
1101.151, 15.74703
1101.633, 15.59232
1102.115, 15.47424
1102.597, 15.40590
1103.079, 15.37648
1103.562, 15.36929
1104.044, 15.39695
1104.526, 15.53022
1105.008, 15.75544
1105.490, 15.82201
1105.972, 15.47717
1106.454, 15.29344
1106.936, 15.46528
1107.419, 15.78399
1107.901, 15.81943
1108.383, 15.67175
1108.865, 15.64736
1109.347, 15.84097
1109.829, 15.95403
1110.311, 15.75749
1110.793, 15.53981
1111.276, 15.44177
1111.758, 15.44949
1112.240, 15.49210
1112.722, 15.56709
1113.204, 15.65402
1113.686, 15.78498
1114.168, 15.84677
1114.650, 15.70607
1115.132, 15.48650
1115.615, 15.32372
1116.097, 15.23547
1116.579, 15.08523
1117.061, 14.86223
1117.543, 14.73996
1118.025, 14.91506
1118.507, 15.18019
1118.989, 15.27921
1119.471, 15.30712
1119.954, 15.49590
1120.436, 16.06574
1120.918, 16.33774
1121.400, 16.23169
1121.882, 15.98010
1122.364, 15.80834
1122.846, 15.63884
1123.328, 15.23372
1123.811, 14.65960
1124.293, 14.36308
1124.775, 14.70727
1125.257, 15.04881
1125.739, 15.31034
1126.221, 15.47568
1126.703, 15.43995
1127.185, 15.29213
1127.667, 15.34922
1128.150, 15.65800
1128.632, 15.85568
1129.114, 15.71108
1129.596, 15.46528
1130.078, 15.14391
1130.560, 14.83950
1131.042, 14.91025
1131.524, 15.29360
1132.007, 15.59424
1132.489, 15.71596
1132.971, 15.71541
1133.453, 15.57068
1133.935, 15.36415
1134.417, 15.12460
1134.899, 14.86080
1135.381, 14.78154
1135.864, 14.88511
1136.346, 15.05475
1136.828, 15.38960
1137.310, 15.50187
1137.792, 14.59696
1138.274, 13.47282
1138.756, 13.30134
1139.238, 14.41509
1139.720, 15.06796
1140.203, 15.23136
1140.685, 15.14828
1141.167, 14.77576
1141.649, 14.40603
1142.131, 14.44166
1142.613, 14.75392
1143.095, 15.07890
1143.577, 15.49203
1144.059, 15.65275
1144.542, 15.51993
1145.024, 15.22253
1145.506, 14.72030
1145.988, 14.21550
1146.470, 14.11957
1146.952, 14.35723
1147.434, 14.54117
1147.916, 14.45855
1148.399, 14.44654
1148.881, 14.55348
1149.363, 14.73345
1149.845, 14.99922
1150.327, 15.27171
1150.809, 15.32084
1151.291, 15.13873
1151.773, 14.94106
1152.255, 14.72709
1152.738, 14.64548
1153.220, 14.80239
1153.702, 15.04194
1154.184, 15.02205
1154.666, 14.81474
1155.148, 14.72844
1155.630, 14.82543
1156.112, 14.89196
1156.594, 14.71041
1157.077, 14.58316
1157.559, 14.69015
1158.041, 14.94945
1158.523, 15.08951
1159.005, 15.11290
1159.487, 15.00435
1159.969, 14.70189
1160.451, 14.49947
1160.934, 14.73770
1161.416, 15.03195
1161.898, 15.04219
1162.380, 14.81418
1162.862, 14.98040
1163.344, 15.51794
1163.826, 15.79550
1164.308, 15.44937
1164.791, 15.00074
1165.273, 14.86530
1165.755, 14.83887
1166.237, 14.69160
1166.719, 14.40176
1167.201, 14.11507
1167.683, 13.81968
1168.165, 13.73159
1168.647, 14.07684
1169.130, 14.53833
1169.612, 14.87776
1170.094, 15.11313
1170.576, 15.25990
1171.058, 15.30451
1171.540, 15.34150
1172.022, 15.37663
1172.504, 15.35872
1172.987, 15.19664
1173.469, 15.00805
1173.951, 14.91491
1174.433, 14.89842
1174.915, 14.92461
1175.397, 15.03309
1175.879, 15.03878
1176.361, 14.91083
1176.844, 14.78578
1177.326, 14.84235
1177.808, 14.92864
1178.290, 14.78610
1178.772, 14.48995
1179.254, 14.37662
1179.736, 14.58793
1180.218, 14.71823
1180.700, 14.70953
1181.182, 14.66871
1181.665, 14.71714
1182.147, 14.80423
1182.629, 14.83603
1183.111, 14.82318
1183.593, 14.88730
1184.075, 15.14883
1184.557, 15.26766
1185.039, 15.16547
1185.522, 14.95881
1186.004, 14.72027
1186.486, 14.52597
1186.968, 14.53585
1187.450, 14.75618
1187.932, 14.96005
1188.414, 15.16456
1188.896, 15.20549
1189.379, 14.97279
1189.861, 14.69977
1190.343, 14.87102
1190.825, 15.23635
1191.307, 15.31548
1191.789, 15.01854
1192.271, 14.72606
1192.753, 14.38124
1193.235, 14.33314
1193.718, 14.83452
1194.200, 15.46495
1194.682, 15.28311
1195.164, 14.66772
1195.646, 14.46018
1196.128, 14.94222
1196.610, 15.08996
1197.092, 14.35664
1197.574, 13.84082
1198.057, 14.05023
1198.539, 14.64778
1199.021, 14.96773
1199.503, 15.06354
1199.985, 15.03838
1200.467, 14.88277
1200.949, 14.73193
1201.431, 14.59959
1201.914, 14.49078
1202.396, 14.38004
1202.878, 14.31895
1203.360, 14.51597
1203.842, 14.86452
1204.324, 15.07833
1204.806, 15.02195
1205.288, 14.96777
1205.771, 14.93090
1206.253, 14.96887
1206.735, 15.18362
1207.217, 15.45732
1207.699, 15.40460
1208.181, 15.13324
1208.663, 14.92885
1209.145, 14.90582
1209.627, 14.94788
1210.109, 15.16882
1210.592, 15.20834
1211.074, 14.59190
1211.556, 13.69172
1212.038, 13.82664
1212.520, 14.67134
1213.002, 15.30633
1213.484, 15.25298
1213.966, 15.18544
1214.449, 15.14648
1214.931, 15.18930
1215.413, 15.46132
1215.895, 15.81621
1216.377, 15.77634
1216.859, 15.45606
1217.341, 15.22220
1217.823, 15.32914
1218.306, 15.35222
1218.788, 15.22053
1219.270, 15.05581
1219.752, 14.94472
1220.234, 14.88380
1220.716, 14.91776
1221.198, 15.00186
1221.680, 14.98390
1222.162, 14.61324
1222.645, 14.45778
1223.127, 14.64556
1223.609, 14.87529
1224.091, 14.83335
1224.573, 14.63551
1225.055, 14.48704
1225.537, 14.40459
1226.019, 14.41923
1226.502, 14.67286
1226.984, 14.80829
1227.466, 14.74683
1227.948, 14.69086
1228.430, 14.89550
1228.912, 15.22115
1229.394, 15.44259
1229.876, 15.55217
1230.359, 15.57172
1230.841, 15.52077
1231.323, 15.33238
1231.805, 14.95899
1232.287, 14.57214
1232.769, 14.33085
1233.251, 14.20170
1233.733, 14.07987
1234.215, 14.00993
1234.698, 14.27048
1235.180, 15.23887
1235.662, 15.66905
1236.144, 15.32770
1236.626, 14.82034
1237.108, 14.80551
1237.590, 14.98789
1238.072, 14.95049
1238.554, 14.74954
1239.037, 14.80667
1239.519, 15.28254
1240.001, 15.59013
1240.483, 15.65871
1240.965, 15.54894
1241.447, 15.10456
1241.929, 14.68175
1242.411, 14.82536
1242.894, 15.37854
1243.376, 15.43066
1243.858, 14.77488
1244.340, 14.49122
1244.822, 14.76394
1245.304, 15.14285
1245.786, 15.27629
1246.268, 15.26623
1246.750, 15.14294
1247.233, 14.95440
1247.715, 14.86834
1248.197, 14.88898
1248.679, 15.02182
1249.161, 15.28687
1249.643, 15.43461
1250.125, 15.03998
1250.607, 14.63475
1251.089, 14.72333
1251.572, 15.10953
1252.054, 15.21056
1252.536, 15.02696
1253.018, 14.93725
1253.500, 14.99776
1253.982, 15.06385
1254.464, 14.95655
1254.946, 14.89814
1255.429, 15.10829
1255.911, 15.41746
1256.393, 15.42423
1256.875, 15.17149
1257.357, 15.08881
1257.839, 15.23643
1258.321, 15.40436
1258.803, 15.53766
1259.286, 15.56279
1259.768, 15.40646
1260.250, 15.18112
1260.732, 15.08883
1261.214, 15.11505
1261.696, 15.23049
1262.178, 15.42947
1262.660, 15.58179
1263.142, 15.76493
1263.625, 15.66380
1264.107, 15.04115
1264.589, 14.32471
1265.071, 14.30377
1265.553, 14.71100
1266.035, 14.88289
1266.517, 14.75708
1266.999, 14.62998
1267.482, 14.50890
1267.964, 14.55772
1268.446, 14.87006
1268.928, 15.23059
1269.410, 15.27610
1269.892, 15.18956
1270.374, 15.28868
1270.856, 15.58455
1271.339, 15.82307
1271.821, 16.08659
1272.303, 15.91836
1272.785, 15.09895
1273.267, 14.34625
1273.749, 14.78256
1274.231, 15.57245
1274.713, 15.72488
1275.195, 15.26700
1275.677, 14.95266
1276.160, 14.78981
1276.642, 14.87808
1277.124, 15.27142
1277.606, 15.62295
1278.088, 15.52514
1278.570, 15.31464
1279.052, 15.26154
1279.534, 15.33075
1280.017, 15.40659
1280.499, 15.49235
1280.981, 15.37802
1281.463, 15.02595
1281.945, 14.69559
1282.427, 14.50273
1282.909, 14.46776
1283.391, 14.68821
1283.874, 15.01116
1284.356, 15.16429
1284.838, 15.17115
1285.320, 15.15400
1285.802, 15.12975
1286.284, 15.16724
1286.766, 15.51353
1287.248, 15.62100
1287.730, 15.20377
1288.213, 14.67084
1288.695, 14.70889
1289.177, 15.07624
1289.659, 15.04765
1290.141, 14.62886
1290.623, 14.42026
1291.105, 14.79987
1291.587, 15.14496
1292.069, 15.39457
1292.552, 15.52497
1293.034, 15.42349
1293.516, 15.23699
1293.998, 15.23545
1294.480, 15.37086
1294.962, 15.28795
1295.444, 14.83807
1295.926, 14.57300
1296.409, 14.54435
1296.891, 14.75952
1297.373, 15.56678
1297.855, 16.32075
1298.337, 16.36386
1298.819, 15.84393
1299.301, 15.23344
1299.783, 14.47840
1300.266, 14.35183
1300.748, 14.91466
1301.230, 15.45433
1301.712, 15.39944
1302.194, 15.25873
1302.676, 15.25775
1303.158, 15.39131
##END=



