##NAMES=Semseyite
##RRUFFID=R080087
##IDEAL CHEMISTRY=Pb^2+^_9_Sb^3+^_8_S^2-^_21_
##LOCALITY=Herja Mine (Kisbánya), Baia Mare (Nagybánya), Maramures County, Romania
##OWNER=RRUFF
##SOURCE=Michael Scott
##DESCRIPTION=Metallic grey tabular crystals, associated with fizelyite
##STATUS=The identification of this mineral is confirmed by single-crystal X-ray diffraction and chemical analysis.
##URL=rruff.info/R080087
##MEASURED CHEMISTRY=Pb_9.11_Ag_0.02_Sb_8.27_S_21_
92.52344, 17310.22
93.00555, 17018.33
93.48767, 17054.22
93.96979, 17880.17
94.45190, 18750.71
94.93402, 19573.32
95.41614, 20106.18
95.89825, 20458.91
96.38037, 20799.83
96.86249, 21115.14
97.34460, 21374.68
97.82672, 21599.13
98.30884, 21802.41
98.79095, 21999.60
99.27307, 22154.55
99.75519, 22243.44
100.2373, 22332.99
100.7194, 22422.29
101.2015, 22441.71
101.6837, 22382.90
102.1658, 22263.59
102.6479, 22080.88
103.1300, 21829.65
103.6121, 21563.94
104.0942, 21288.70
104.5764, 21022.41
105.0585, 20814.61
105.5406, 20678.37
106.0227, 20608.89
106.5048, 20595.59
106.9869, 20632.36
107.4691, 20730.74
107.9512, 20888.49
108.4333, 21101.32
108.9154, 21359.13
109.3975, 21659.57
109.8796, 22006.86
110.3618, 22365.89
110.8439, 22741.24
111.3260, 23123.77
111.8081, 23511.13
112.2902, 23900.46
112.7723, 24291.03
113.2544, 24680.69
113.7366, 25067.90
114.2187, 25457.85
114.7008, 25881.46
115.1829, 26293.64
115.6650, 26659.50
116.1471, 26968.40
116.6293, 27216.66
117.1114, 27390.86
117.5935, 27532.88
118.0756, 27548.59
118.5577, 27401.53
119.0398, 27110.03
119.5220, 26709.32
120.0041, 26201.89
120.4862, 25594.25
120.9683, 24931.82
121.4504, 24187.86
121.9325, 23436.20
122.4147, 22725.89
122.8968, 22055.75
123.3789, 21439.50
123.8610, 20885.88
124.3431, 20393.00
124.8252, 19971.32
125.3074, 19625.56
125.7895, 19350.86
126.2716, 19140.52
126.7537, 19009.32
127.2358, 18927.96
127.7179, 18888.69
128.2001, 18881.79
128.6822, 18893.40
129.1643, 18913.73
129.6464, 18944.62
130.1285, 19008.75
130.6107, 19136.37
131.0928, 19271.91
131.5749, 19402.18
132.0570, 19529.37
132.5391, 19662.87
133.0212, 19809.78
133.5034, 19971.93
133.9855, 20143.65
134.4676, 20324.23
134.9497, 20512.63
135.4318, 20710.77
135.9139, 20917.50
136.3960, 21128.14
136.8782, 21336.09
137.3603, 21540.76
137.8424, 21747.86
138.3245, 21954.06
138.8066, 22163.75
139.2887, 22381.59
139.7709, 22608.53
140.2530, 22839.93
140.7351, 23067.09
141.2172, 23288.67
141.6993, 23521.96
142.1814, 23780.16
142.6636, 24055.83
143.1457, 24323.98
143.6278, 24574.54
144.1099, 24818.46
144.5920, 25067.12
145.0741, 25319.81
145.5563, 25575.36
146.0384, 25845.98
146.5205, 26138.53
147.0026, 26383.84
147.4847, 26553.87
147.9668, 26681.48
148.4490, 26782.73
148.9311, 26860.07
149.4132, 26903.64
149.8953, 26896.52
150.3774, 26826.24
150.8595, 26722.63
151.3417, 26595.86
151.8238, 26441.29
152.3059, 26253.44
152.7880, 26031.89
153.2701, 25779.21
153.7522, 25504.88
154.2344, 25174.81
154.7165, 24862.28
155.1986, 24576.92
155.6807, 24307.81
156.1628, 24036.62
156.6449, 23753.34
157.1271, 23468.30
157.6092, 23228.11
158.0913, 23042.85
158.5734, 22878.45
159.0555, 22722.95
159.5376, 22581.21
160.0198, 22468.10
160.5019, 22396.87
160.9840, 22360.04
161.4661, 22320.85
161.9482, 22267.91
162.4303, 22223.99
162.9125, 22207.24
163.3946, 22216.80
163.8767, 22234.94
164.3588, 22262.45
164.8409, 22288.19
165.3230, 22293.29
165.8052, 22268.34
166.2873, 22227.02
166.7694, 22189.01
167.2515, 22158.36
167.7336, 22116.19
168.2157, 22049.64
168.6979, 21968.04
169.1800, 21879.96
169.6621, 21788.39
170.1442, 21693.12
170.6263, 21591.54
171.1084, 21475.53
171.5906, 21367.00
172.0727, 21279.97
172.5548, 21202.07
173.0369, 21115.56
173.5190, 21008.70
174.0011, 20883.85
174.4833, 20761.25
174.9654, 20637.59
175.4475, 20519.28
175.9296, 20408.85
176.4117, 20305.00
176.8938, 20203.38
177.3760, 20099.97
177.8581, 19994.33
178.3402, 19905.61
178.8223, 19833.86
179.3044, 19776.57
179.7865, 19736.14
180.2687, 19710.52
180.7508, 19694.51
181.2329, 19683.20
181.7150, 19676.48
182.1971, 19688.18
182.6792, 19714.52
183.1614, 19758.75
183.6435, 19824.21
184.1256, 19910.42
184.6077, 20013.11
185.0898, 20129.17
185.5719, 20260.53
186.0541, 20404.56
186.5362, 20554.17
187.0183, 20720.39
187.5004, 20914.27
187.9825, 21137.85
188.4646, 21379.14
188.9468, 21631.88
189.4289, 21894.54
189.9110, 22170.39
190.3931, 22459.73
190.8752, 22762.46
191.3573, 23079.14
191.8395, 23407.65
192.3216, 23758.14
192.8037, 24149.66
193.2858, 24567.24
193.7679, 24981.19
194.2500, 25371.81
194.7322, 25746.95
195.2143, 26139.78
195.6964, 26559.69
196.1785, 26982.60
196.6606, 27397.50
197.1427, 27806.23
197.6249, 28208.57
198.1070, 28603.09
198.5891, 28990.54
199.0712, 29378.43
199.5533, 29762.46
200.0354, 30152.56
200.5176, 30553.18
200.9997, 30960.40
201.4818, 31363.42
201.9639, 31745.75
202.4460, 32105.91
202.9281, 32502.24
203.4103, 32960.01
203.8924, 33431.31
204.3745, 33898.91
204.8566, 34368.92
205.3387, 34849.52
205.8208, 35348.71
206.3030, 35869.71
206.7851, 36400.92
207.2672, 36952.18
207.7493, 37504.36
208.2314, 38045.85
208.7135, 38577.62
209.1957, 39108.02
209.6778, 39647.66
210.1599, 40201.06
210.6420, 40711.57
211.1241, 41187.12
211.6062, 41621.15
212.0884, 42016.18
212.5705, 42367.56
213.0526, 42666.96
213.5347, 42910.57
214.0168, 43092.22
214.4989, 43189.36
214.9811, 43198.51
215.4632, 43135.85
215.9453, 43015.94
216.4274, 42837.75
216.9095, 42582.07
217.3916, 42220.67
217.8737, 41744.27
218.3559, 41261.62
218.8380, 40761.57
219.3201, 40260.30
219.8022, 39768.82
220.2843, 39288.08
220.7664, 38815.48
221.2486, 38345.38
221.7307, 37879.70
222.2128, 37443.80
222.6949, 37042.86
223.1770, 36671.66
223.6591, 36324.45
224.1413, 35999.38
224.6234, 35706.33
225.1055, 35463.34
225.5876, 35258.79
226.0697, 35078.91
226.5518, 34932.63
227.0340, 34803.37
227.5161, 34666.84
227.9982, 34520.12
228.4803, 34375.54
228.9624, 34252.05
229.4445, 34133.41
229.9267, 33995.78
230.4088, 33832.30
230.8909, 33645.04
231.3730, 33438.80
231.8551, 33212.85
232.3372, 32969.51
232.8194, 32709.13
233.3015, 32432.49
233.7836, 32138.93
234.2657, 31830.03
234.7478, 31501.35
235.2299, 31143.12
235.7121, 30750.90
236.1942, 30331.11
236.6763, 29881.49
237.1584, 29412.54
237.6405, 28929.23
238.1227, 28429.79
238.6048, 27922.80
239.0869, 27432.99
239.5690, 26970.16
240.0511, 26504.66
240.5332, 26020.32
241.0154, 25535.72
241.4975, 25075.25
241.9796, 24649.42
242.4617, 24248.71
242.9438, 23855.06
243.4259, 23463.06
243.9081, 23086.23
244.3902, 22739.89
244.8723, 22402.22
245.3544, 22051.50
245.8365, 21677.89
246.3186, 21293.76
246.8008, 20923.89
247.2829, 20594.59
247.7650, 20242.07
248.2471, 19853.13
248.7292, 19447.07
249.2113, 19037.83
249.6935, 18630.99
250.1756, 18228.88
250.6577, 17835.35
251.1398, 17456.21
251.6219, 17081.38
252.1040, 16709.23
252.5862, 16344.65
253.0683, 15990.15
253.5504, 15648.53
254.0325, 15321.37
254.5146, 15011.58
254.9967, 14720.94
255.4789, 14452.97
255.9610, 14210.81
256.4431, 13990.45
256.9252, 13790.39
257.4073, 13609.41
257.8894, 13442.17
258.3716, 13280.54
258.8537, 13122.37
259.3358, 12981.35
259.8179, 12865.48
260.3000, 12761.45
260.7821, 12657.72
261.2643, 12552.11
261.7464, 12449.62
262.2285, 12354.57
262.7106, 12267.24
263.1927, 12189.82
263.6748, 12132.46
264.1570, 12078.70
264.6391, 12014.11
265.1212, 11937.44
265.6033, 11858.12
266.0854, 11785.15
266.5675, 11719.15
267.0497, 11654.03
267.5318, 11595.66
268.0139, 11534.25
268.4960, 11461.62
268.9781, 11377.63
269.4602, 11287.44
269.9424, 11195.26
270.4245, 11099.80
270.9066, 10996.47
271.3887, 10884.84
271.8708, 10765.22
272.3529, 10637.05
272.8351, 10500.50
273.3172, 10360.35
273.7993, 10221.02
274.2814, 10078.22
274.7635, 9921.831
275.2456, 9751.534
275.7278, 9568.816
276.2099, 9371.717
276.6920, 9161.381
277.1741, 8946.364
277.6562, 8729.971
278.1383, 8512.294
278.6205, 8296.150
279.1026, 8078.096
279.5847, 7864.398
280.0668, 7659.155
280.5489, 7461.075
281.0310, 7267.358
281.5132, 7075.560
281.9953, 6889.932
282.4774, 6712.977
282.9595, 6543.223
283.4416, 6389.641
283.9237, 6264.118
284.4059, 6161.374
284.8880, 6056.838
285.3701, 5940.712
285.8522, 5827.870
286.3343, 5732.195
286.8164, 5652.977
287.2986, 5583.488
287.7807, 5522.449
288.2628, 5468.532
288.7449, 5417.254
289.2270, 5365.700
289.7091, 5321.162
290.1913, 5289.808
290.6734, 5269.592
291.1555, 5253.654
291.6376, 5235.235
292.1197, 5219.252
292.6018, 5218.073
293.0840, 5234.728
293.5661, 5260.963
294.0482, 5291.397
294.5303, 5326.692
295.0124, 5369.762
295.4945, 5421.160
295.9767, 5481.003
296.4588, 5548.890
296.9409, 5624.165
297.4230, 5710.188
297.9051, 5820.240
298.3872, 5939.428
298.8694, 6051.268
299.3515, 6151.468
299.8336, 6242.063
300.3157, 6324.250
300.7978, 6397.165
301.2799, 6469.830
301.7621, 6552.722
302.2442, 6633.247
302.7263, 6699.279
303.2084, 6747.690
303.6905, 6787.495
304.1726, 6823.120
304.6548, 6853.803
305.1369, 6897.116
305.6190, 6958.923
306.1011, 7035.495
306.5832, 7122.603
307.0653, 7220.120
307.5475, 7330.486
308.0296, 7451.124
308.5117, 7583.086
308.9938, 7744.162
309.4759, 7942.869
309.9580, 8167.044
310.4402, 8402.602
310.9223, 8651.116
311.4044, 8920.532
311.8865, 9217.162
312.3686, 9537.748
312.8507, 9876.973
313.3329, 10247.60
313.8150, 10614.47
314.2971, 10977.28
314.7792, 11324.92
315.2613, 11638.81
315.7434, 11916.57
316.2256, 12153.02
316.7077, 12340.92
317.1898, 12486.34
317.6719, 12567.41
318.1540, 12558.70
318.6361, 12489.55
319.1183, 12380.39
319.6004, 12230.32
320.0825, 12060.22
320.5646, 11887.58
321.0467, 11706.81
321.5288, 11559.23
322.0110, 11458.42
322.4931, 11399.22
322.9752, 11382.21
323.4573, 11407.86
323.9394, 11469.67
324.4215, 11562.55
324.9037, 11685.83
325.3858, 11842.38
325.8679, 12040.10
326.3500, 12267.71
326.8321, 12523.16
327.3142, 12802.39
327.7964, 13082.04
328.2785, 13365.17
328.7606, 13640.98
329.2427, 13864.11
329.7248, 14044.81
330.2069, 14143.84
330.6891, 14145.76
331.1712, 14060.32
331.6533, 13900.61
332.1354, 13658.95
332.6175, 13353.67
333.0996, 13011.46
333.5818, 12617.17
334.0639, 12229.52
334.5460, 11867.92
335.0281, 11533.87
335.5102, 11232.63
335.9923, 10959.92
336.4745, 10728.95
336.9566, 10555.34
337.4387, 10440.94
337.9208, 10363.51
338.4029, 10324.96
338.8850, 10317.76
339.3671, 10339.34
339.8492, 10391.38
340.3314, 10448.01
340.8135, 10506.59
341.2956, 10560.44
341.7777, 10568.47
342.2598, 10535.81
342.7419, 10431.32
343.2241, 10241.72
343.7062, 9970.486
344.1883, 9624.263
344.6704, 9185.188
345.1525, 8676.552
345.6346, 8140.026
346.1168, 7569.815
346.5989, 7000.005
347.0810, 6438.622
347.5631, 5898.701
348.0452, 5406.583
348.5273, 4970.534
349.0095, 4583.986
349.4916, 4242.458
349.9737, 3947.444
350.4558, 3687.833
350.9379, 3465.348
351.4200, 3276.915
351.9022, 3113.513
352.3843, 2978.562
352.8664, 2860.240
353.3485, 2754.447
353.8306, 2660.135
354.3127, 2573.678
354.7949, 2494.390
355.2770, 2421.823
355.7591, 2354.404
356.2412, 2291.825
356.7233, 2234.932
357.2054, 2185.684
357.6876, 2141.779
358.1697, 2099.678
358.6518, 2058.882
359.1339, 2020.192
359.6160, 1984.933
360.0981, 1952.645
360.5803, 1921.930
361.0624, 1891.935
361.5445, 1864.093
362.0266, 1840.165
362.5087, 1819.872
362.9908, 1801.577
363.4730, 1785.082
363.9551, 1769.590
364.4372, 1752.249
364.9193, 1731.723
365.4014, 1711.843
365.8835, 1694.909
366.3657, 1679.752
366.8478, 1663.476
367.3299, 1644.864
367.8120, 1626.211
368.2941, 1611.497
368.7762, 1601.712
369.2584, 1591.167
369.7405, 1578.850
370.2226, 1565.626
370.7047, 1551.853
371.1868, 1537.654
371.6689, 1524.251
372.1511, 1512.546
372.6332, 1502.655
373.1153, 1494.479
373.5974, 1490.750
374.0795, 1485.844
374.5616, 1475.341
375.0438, 1461.359
375.5259, 1449.687
376.0080, 1443.903
376.4901, 1441.858
376.9722, 1435.946
377.4543, 1422.403
377.9365, 1409.937
378.4186, 1398.820
378.9007, 1389.462
379.3828, 1383.328
379.8649, 1380.546
380.3470, 1378.251
380.8292, 1372.109
381.3113, 1359.479
381.7934, 1350.982
382.2755, 1351.227
382.7576, 1351.049
383.2397, 1344.112
383.7219, 1331.660
384.2040, 1319.560
384.6861, 1312.704
385.1682, 1310.612
385.6503, 1305.739
386.1324, 1293.850
386.6146, 1283.838
387.0967, 1277.709
387.5788, 1274.237
388.0609, 1272.358
388.5430, 1271.601
389.0251, 1270.740
389.5073, 1267.204
389.9894, 1260.003
390.4715, 1251.981
390.9536, 1240.655
391.4357, 1230.672
391.9178, 1225.895
392.4000, 1226.033
392.8821, 1227.188
393.3642, 1225.697
393.8463, 1221.479
394.3284, 1216.892
394.8105, 1211.099
395.2927, 1205.877
395.7748, 1202.368
396.2569, 1199.721
396.7390, 1196.343
397.2211, 1191.202
397.7032, 1185.393
398.1854, 1181.766
398.6675, 1181.410
399.1496, 1179.898
399.6317, 1173.491
400.1138, 1166.971
400.5959, 1164.797
401.0781, 1167.631
401.5602, 1170.838
402.0423, 1170.625
402.5244, 1167.109
403.0065, 1160.902
403.4886, 1149.484
403.9708, 1139.243
404.4529, 1135.039
404.9350, 1135.426
405.4171, 1136.498
405.8992, 1137.961
406.3813, 1138.458
406.8635, 1134.776
407.3456, 1126.310
407.8277, 1119.272
408.3098, 1117.799
408.7919, 1119.125
409.2740, 1118.570
409.7562, 1115.581
410.2383, 1111.470
410.7204, 1106.195
411.2025, 1100.349
411.6846, 1095.593
412.1667, 1092.339
412.6489, 1090.231
413.1310, 1089.223
413.6131, 1089.273
414.0952, 1089.064
414.5773, 1088.857
415.0594, 1087.969
415.5416, 1085.691
416.0237, 1082.049
416.5058, 1077.415
416.9879, 1071.590
417.4700, 1065.108
417.9521, 1060.882
418.4343, 1060.782
418.9164, 1060.279
419.3985, 1057.395
419.8806, 1053.574
420.3627, 1051.426
420.8448, 1051.752
421.3270, 1052.315
421.8091, 1049.463
422.2912, 1040.761
422.7733, 1035.848
423.2554, 1037.329
423.7375, 1040.006
424.2197, 1041.403
424.7018, 1041.286
425.1839, 1040.084
425.6660, 1037.992
426.1481, 1035.198
426.6302, 1032.924
427.1124, 1032.219
427.5945, 1030.756
428.0766, 1027.592
428.5587, 1023.898
429.0408, 1020.805
429.5229, 1018.666
430.0051, 1017.066
430.4872, 1015.416
430.9693, 1013.635
431.4514, 1012.181
431.9335, 1010.528
432.4156, 1009.742
432.8978, 1011.475
433.3799, 1014.512
433.8620, 1015.704
434.3441, 1012.231
434.8262, 1006.265
435.3083, 1004.991
435.7905, 1011.073
436.2726, 1014.443
436.7547, 1007.971
437.2368, 999.0067
437.7189, 994.2357
438.2010, 995.0712
438.6832, 997.3397
439.1653, 997.3636
439.6474, 995.6656
440.1295, 995.3652
440.6116, 997.7370
441.0938, 1000.015
441.5759, 999.2666
442.0580, 996.4054
442.5401, 994.1326
443.0222, 993.6613
443.5043, 993.7946
443.9865, 993.8555
444.4686, 993.6998
444.9507, 991.7512
445.4328, 986.2516
445.9149, 979.5530
446.3970, 977.6245
446.8792, 982.5013
447.3613, 985.4357
447.8434, 983.1120
448.3255, 977.9974
448.8076, 972.0721
449.2897, 965.9163
449.7719, 961.8539
450.2540, 962.7081
450.7361, 968.8599
451.2182, 971.3799
451.7003, 966.6740
452.1824, 962.8478
452.6646, 963.7871
453.1467, 967.3939
453.6288, 970.1769
454.1109, 970.6100
454.5930, 969.2479
455.0751, 967.0735
455.5573, 963.3635
456.0394, 960.2480
456.5215, 957.2251
457.0036, 955.1006
457.4857, 955.0313
457.9678, 956.4252
458.4500, 957.3892
458.9321, 956.4246
459.4142, 953.8256
459.8963, 951.1465
460.3784, 947.4830
460.8605, 945.4593
461.3427, 948.0198
461.8248, 951.1234
462.3069, 950.0096
462.7890, 943.5095
463.2711, 936.5187
463.7532, 935.1442
464.2354, 938.8275
464.7175, 939.4119
465.1996, 934.3125
465.6817, 928.6462
466.1638, 926.0174
466.6459, 925.6332
467.1281, 925.6967
467.6102, 926.5673
468.0923, 926.7697
468.5744, 923.4381
469.0565, 917.0803
469.5386, 913.4396
470.0208, 915.6416
470.5029, 920.6008
470.9850, 923.1447
471.4671, 923.3661
471.9492, 921.9125
472.4313, 917.9293
472.9135, 912.9374
473.3956, 907.9564
473.8777, 903.3326
474.3598, 900.3541
474.8419, 900.4598
475.3240, 903.1512
475.8062, 903.4117
476.2883, 899.4017
476.7704, 895.5980
477.2525, 893.1400
477.7346, 891.2658
478.2167, 888.7980
478.6989, 885.5091
479.1810, 882.5802
479.6631, 881.8187
480.1452, 884.0776
480.6273, 884.1100
481.1094, 880.0250
481.5916, 875.6156
482.0737, 871.6802
482.5558, 868.3395
483.0379, 865.6525
483.5200, 863.6725
484.0021, 862.1419
484.4843, 860.7053
484.9664, 859.4928
485.4485, 857.6639
485.9306, 853.1605
486.4127, 849.6881
486.8948, 851.0355
487.3770, 856.2791
487.8591, 859.9277
488.3412, 858.0562
488.8233, 852.7521
489.3054, 847.6045
489.7875, 842.5969
490.2697, 838.5031
490.7518, 835.8390
491.2339, 834.3954
491.7160, 833.4711
492.1981, 833.0657
492.6802, 833.1916
493.1624, 834.9191
493.6445, 836.7936
494.1266, 835.9950
494.6087, 832.1281
495.0908, 828.4300
495.5729, 828.0343
496.0551, 830.8840
496.5372, 831.7700
497.0193, 829.9222
497.5014, 827.3470
497.9835, 824.1826
498.4656, 820.8190
498.9478, 817.7568
499.4299, 815.1533
499.9120, 812.7567
500.3941, 810.1683
500.8762, 807.1689
501.3583, 804.7829
501.8405, 802.9695
502.3226, 801.8189
502.8047, 802.0648
503.2868, 802.9005
503.7689, 802.9128
504.2510, 801.3640
504.7331, 798.8648
505.2152, 796.5135
505.6974, 794.3698
506.1795, 791.9020
506.6616, 787.9633
507.1437, 784.7361
507.6258, 784.3530
508.1079, 786.3226
508.5901, 787.8763
509.0722, 787.4049
509.5543, 785.8815
510.0364, 785.1449
510.5185, 785.1720
511.0006, 783.2943
511.4828, 776.9229
511.9649, 769.1215
512.4470, 767.0939
512.9291, 772.8873
513.4113, 776.3981
513.8934, 772.7433
514.3755, 766.9460
514.8576, 764.4849
515.3397, 765.5719
515.8218, 766.9959
516.3040, 766.4301
516.7861, 764.0804
517.2682, 761.4633
517.7503, 757.3145
518.2324, 754.5187
518.7145, 754.3944
519.1967, 755.0847
519.6788, 755.0705
520.1609, 753.9736
520.6430, 752.0054
521.1251, 749.2369
521.6072, 745.6777
522.0894, 742.1205
522.5715, 737.6285
523.0536, 734.7045
523.5357, 735.8863
524.0178, 738.1201
524.4999, 737.4508
524.9821, 732.6522
525.4642, 727.3563
525.9463, 724.9634
526.4284, 724.9444
526.9105, 725.1986
527.3926, 725.9424
527.8748, 725.4105
528.3569, 720.8837
528.8390, 713.8270
529.3211, 709.3326
529.8032, 710.5386
530.2853, 711.4179
530.7675, 707.4990
531.2496, 701.1444
531.7317, 697.2326
532.2138, 697.1918
532.6959, 698.6028
533.1780, 698.5125
533.6602, 696.6115
534.1423, 695.0919
534.6244, 694.9274
535.1065, 694.0160
535.5886, 690.9308
536.0707, 686.7740
536.5529, 683.0295
537.0350, 680.3347
537.5171, 678.7559
537.9992, 679.4024
538.4813, 683.5794
538.9634, 683.1049
539.4456, 673.0538
539.9277, 663.2796
540.4098, 657.8646
540.8919, 656.0956
541.3740, 656.7291
541.8561, 660.4200
542.3383, 663.8873
542.8204, 662.5280
543.3025, 656.8199
543.7846, 651.2082
544.2667, 646.4930
544.7488, 642.7553
545.2310, 640.5301
545.7131, 639.6279
546.1952, 638.3588
546.6773, 636.0140
547.1594, 633.6643
547.6415, 632.4325
548.1237, 631.7436
548.6058, 629.7941
549.0879, 625.8043
549.5700, 621.3954
550.0521, 619.4209
550.5342, 621.2369
551.0164, 621.3610
551.4985, 617.5579
551.9806, 614.6055
552.4627, 616.1537
552.9448, 619.8127
553.4269, 620.7211
553.9091, 616.4467
554.3912, 609.7352
554.8733, 605.2463
555.3554, 603.1978
555.8375, 601.7860
556.3196, 601.1080
556.8018, 600.6777
557.2839, 600.2174
557.7660, 599.7316
558.2481, 599.2694
558.7302, 599.0428
559.2123, 598.6158
559.6945, 597.5463
560.1766, 595.8912
560.6587, 593.8025
561.1408, 591.2133
561.6229, 588.5917
562.1050, 586.5790
562.5872, 585.3245
563.0693, 583.6522
563.5514, 580.9045
564.0335, 578.3945
564.5156, 576.7208
564.9977, 575.7855
565.4799, 575.3567
565.9620, 575.3426
566.4441, 575.7635
566.9262, 577.0033
567.4083, 579.8627
567.8904, 580.2646
568.3726, 575.9353
568.8547, 571.3782
569.3368, 567.8287
569.8189, 565.1407
570.3010, 562.9147
570.7831, 560.9432
571.2653, 559.5821
571.7474, 559.7594
572.2295, 561.1876
572.7116, 561.3915
573.1937, 559.6620
573.6758, 557.4561
574.1580, 556.1354
574.6401, 555.3682
575.1222, 553.8246
575.6043, 550.6022
576.0864, 547.4662
576.5685, 545.5843
577.0507, 544.2975
577.5328, 542.3199
578.0149, 539.3834
578.4970, 536.5487
578.9791, 534.9808
579.4612, 534.7283
579.9434, 534.5477
580.4255, 535.5074
580.9076, 535.2476
581.3897, 532.3583
581.8718, 528.5303
582.3539, 525.6571
582.8361, 524.1219
583.3182, 522.8947
583.8003, 521.2027
584.2824, 518.9883
584.7645, 515.5396
585.2466, 510.0966
585.7288, 505.5626
586.2108, 504.0512
586.6929, 503.9981
587.1750, 503.2970
587.6572, 501.7846
588.1393, 499.6910
588.6214, 497.0417
589.1035, 493.9071
589.5856, 490.0607
590.0677, 485.6326
590.5499, 481.6247
591.0320, 478.5856
591.5141, 476.5623
591.9962, 475.8095
592.4783, 478.8191
592.9604, 479.5437
593.4426, 475.9486
593.9247, 471.7162
594.4068, 470.0241
594.8889, 470.1542
595.3710, 468.8560
595.8531, 463.7555
596.3353, 456.5185
596.8174, 450.8419
597.2995, 446.8554
597.7816, 443.9277
598.2637, 442.4451
598.7458, 441.4586
599.2280, 440.2781
599.7101, 438.8874
600.1922, 437.1798
600.6743, 434.4852
601.1564, 432.0081
601.6385, 431.2933
602.1207, 431.6515
602.6028, 431.0298
603.0849, 428.7399
603.5670, 425.3419
604.0491, 421.3221
604.5313, 416.3287
605.0134, 412.9628
605.4955, 412.3109
605.9776, 411.7955
606.4597, 410.9282
606.9418, 409.5852
607.4240, 407.7151
607.9061, 405.3033
608.3882, 402.3221
608.8703, 398.5403
609.3524, 394.0437
609.8345, 389.7664
610.3167, 385.5412
610.7988, 382.0028
611.2809, 379.4998
611.7630, 377.8962
612.2451, 377.4289
612.7272, 378.6290
613.2094, 378.5719
613.6915, 374.7497
614.1736, 369.5883
614.6557, 366.0359
615.1378, 364.2351
615.6199, 363.2627
616.1021, 362.6527
616.5842, 362.2557
617.0663, 361.6841
617.5484, 361.2233
618.0305, 360.0381
618.5126, 357.5785
618.9948, 354.9727
619.4769, 353.3222
619.9590, 352.0185
620.4411, 349.4644
620.9232, 344.6448
621.4053, 338.9925
621.8875, 334.6552
622.3696, 331.6263
622.8517, 329.1538
623.3338, 327.0976
623.8159, 325.6361
624.2980, 325.3337
624.7802, 325.8001
625.2623, 325.7529
625.7444, 325.0863
626.2265, 323.8409
626.7086, 321.9139
627.1907, 319.4705
627.6729, 316.2723
628.1550, 312.4991
628.6371, 309.6986
629.1192, 309.4662
629.6013, 311.3379
630.0834, 311.4146
630.5656, 308.1559
631.0477, 305.6470
631.5298, 304.8944
632.0119, 304.6901
632.4940, 304.2481
632.9761, 303.4963
633.4583, 302.6602
633.9404, 301.9888
634.4225, 301.2132
634.9046, 299.5430
635.3867, 297.1012
635.8688, 295.8132
636.3510, 296.7197
636.8331, 297.9069
637.3152, 296.8830
637.7973, 293.3499
638.2794, 290.6729
638.7615, 289.5241
639.2437, 288.5234
639.7258, 286.7370
640.2079, 284.8868
640.6900, 284.2620
641.1721, 285.0562
641.6542, 286.0181
642.1364, 285.7874
642.6185, 284.4537
643.1006, 283.1541
643.5827, 281.8405
644.0648, 280.6721
644.5469, 279.4029
645.0291, 278.5095
645.5112, 278.8515
645.9933, 280.4528
646.4754, 281.2528
646.9575, 279.6276
647.4396, 277.2491
647.9218, 275.9598
648.4039, 275.5724
648.8860, 275.0311
649.3681, 273.9011
649.8502, 272.4855
650.3323, 271.2615
650.8145, 270.3564
651.2966, 269.0470
651.7787, 267.0709
652.2608, 265.0149
652.7429, 262.7619
653.2250, 260.6667
653.7072, 259.3950
654.1893, 259.0446
654.6714, 258.5504
655.1535, 256.5736
655.6356, 253.6542
656.1177, 251.3512
656.5999, 249.6149
657.0820, 249.6506
657.5641, 253.2531
658.0462, 257.8101
658.5283, 257.7674
659.0104, 252.0869
659.4926, 248.1518
659.9747, 248.0704
660.4568, 249.0031
660.9389, 249.8021
661.4210, 250.1168
661.9031, 249.2656
662.3853, 247.0346
662.8674, 244.6865
663.3495, 244.2458
663.8316, 245.8934
664.3137, 246.5523
664.7958, 245.9672
665.2780, 244.8498
665.7601, 243.3116
666.2422, 241.5022
666.7243, 239.5062
667.2064, 237.2970
667.6885, 235.2481
668.1707, 232.8787
668.6528, 231.1944
669.1349, 232.0499
669.6170, 234.8529
670.0991, 236.9219
670.5812, 236.9954
671.0634, 235.8358
671.5455, 234.7658
672.0276, 234.0033
672.5097, 232.5249
672.9918, 228.9917
673.4739, 226.2263
673.9561, 225.5035
674.4382, 225.8713
674.9203, 226.3764
675.4024, 226.7704
675.8845, 226.3083
676.3666, 223.6298
676.8488, 219.8779
677.3309, 217.7214
677.8130, 217.2591
678.2951, 216.6488
678.7772, 214.8461
679.2593, 212.7368
679.7415, 211.9948
680.2236, 213.2373
680.7057, 213.9938
681.1878, 214.7264
681.6699, 214.4984
682.1520, 212.0684
682.6342, 208.7085
683.1163, 206.5686
683.5984, 206.1936
684.0805, 205.8162
684.5626, 202.8681
685.0447, 198.0850
685.5269, 196.0322
686.0090, 197.4835
686.4911, 197.4911
686.9732, 192.9027
687.4553, 186.6367
687.9374, 183.4873
688.4196, 183.6363
688.9017, 184.1936
689.3838, 185.9458
689.8659, 186.7811
690.3480, 184.8922
690.8301, 181.3651
691.3123, 177.8748
691.7944, 175.0403
692.2765, 172.9309
692.7586, 171.8461
693.2407, 171.6677
693.7228, 170.6501
694.2050, 168.3770
694.6871, 166.3689
695.1692, 165.3554
695.6513, 164.7059
696.1334, 163.7724
696.6155, 162.5425
697.0977, 161.2081
697.5798, 159.9402
698.0619, 158.4716
698.5440, 156.2171
699.0261, 153.6910
699.5082, 151.9900
699.9904, 151.4071
700.4725, 151.3896
700.9546, 151.4026
701.4367, 151.4356
701.9188, 151.2954
702.4009, 150.8693
702.8831, 150.4958
703.3652, 150.7712
703.8473, 150.7368
704.3294, 149.3017
704.8115, 146.7071
705.2936, 144.6240
705.7758, 143.9035
706.2579, 143.7663
706.7400, 144.0368
707.2221, 144.3196
707.7042, 143.4259
708.1863, 141.1628
708.6685, 139.0932
709.1506, 138.7907
709.6327, 139.8966
710.1148, 139.5810
710.5969, 136.3285
711.0790, 134.4545
711.5612, 135.5396
712.0433, 137.1942
712.5254, 138.2807
713.0075, 138.6651
713.4896, 138.2182
713.9717, 136.4488
714.4539, 134.6655
714.9360, 134.1488
715.4181, 134.4737
715.9002, 134.7053
716.3823, 134.6921
716.8644, 134.7106
717.3466, 135.0122
717.8287, 135.4283
718.3108, 135.3291
718.7929, 134.5269
719.2750, 133.5519
719.7571, 131.6606
720.2393, 130.3680
720.7214, 131.1592
721.2035, 132.9406
721.6856, 133.4662
722.1677, 131.7948
722.6498, 129.9013
723.1320, 129.6403
723.6141, 130.2715
724.0962, 130.2574
724.5783, 129.5083
725.0604, 128.7289
725.5425, 128.2993
726.0247, 128.0607
726.5068, 127.6778
726.9889, 127.0690
727.4710, 126.5663
727.9531, 125.4357
728.4352, 125.2461
728.9174, 127.5532
729.3995, 130.6175
729.8816, 132.2507
730.3637, 131.9846
730.8458, 130.8259
731.3279, 128.9476
731.8101, 126.8892
732.2922, 125.5379
732.7743, 124.8547
733.2564, 124.4753
733.7385, 124.2823
734.2206, 124.2655
734.7028, 124.4855
735.1849, 124.9932
735.6670, 124.9540
736.1491, 123.1289
736.6312, 122.3741
737.1133, 124.3177
737.5955, 126.6532
738.0776, 127.2890
738.5597, 126.2672
739.0418, 125.0634
739.5239, 124.5648
740.0060, 124.0745
740.4882, 122.1407
740.9703, 119.5398
741.4524, 119.1394
741.9345, 121.5186
742.4166, 123.9012
742.8987, 123.8973
743.3809, 122.0442
743.8630, 121.0878
744.3451, 122.1418
744.8272, 122.0485
745.3093, 118.9642
745.7914, 116.3986
746.2736, 116.8180
746.7557, 119.0437
747.2378, 120.5064
747.7199, 120.3117
748.2020, 119.6254
748.6841, 119.0226
749.1663, 118.6546
749.6484, 119.2917
750.1305, 120.6758
750.6126, 120.5410
751.0947, 117.5077
751.5768, 113.7370
752.0590, 113.4449
752.5411, 117.8767
753.0232, 119.8227
753.5053, 117.0193
753.9874, 114.7336
754.4695, 115.1151
754.9517, 116.4453
755.4338, 117.0220
755.9159, 116.6346
756.3980, 115.7344
756.8801, 113.8738
757.3622, 112.1464
757.8444, 111.6048
758.3265, 112.0338
758.8086, 113.2129
759.2907, 114.9730
759.7728, 116.2488
760.2549, 115.8212
760.7371, 114.1096
761.2192, 113.8566
761.7013, 115.7623
762.1834, 117.2526
762.6655, 117.9661
763.1476, 118.0401
763.6298, 117.2005
764.1119, 115.8383
764.5940, 115.1201
765.0761, 115.8912
765.5582, 116.0879
766.0403, 113.3672
766.5225, 110.4423
767.0046, 111.0032
767.4867, 114.4067
767.9688, 117.2589
768.4509, 117.8392
768.9330, 117.0623
769.4152, 116.2479
769.8973, 115.3775
770.3794, 114.8851
770.8615, 114.9571
771.3436, 114.8970
771.8257, 114.0747
772.3079, 113.2001
772.7900, 113.6528
773.2721, 115.6278
773.7542, 116.3649
774.2363, 114.3128
774.7184, 112.1640
775.2006, 111.2036
775.6827, 110.9986
776.1648, 111.1933
776.6469, 111.5294
777.1290, 111.3446
777.6111, 109.9231
778.0933, 107.9302
778.5754, 106.9483
779.0575, 106.9389
779.5396, 106.8198
780.0217, 106.2695
780.5038, 106.0407
780.9860, 106.9361
781.4681, 108.5860
781.9502, 109.3664
782.4323, 108.5260
782.9144, 108.0798
783.3965, 108.6153
783.8787, 109.0655
784.3608, 108.5398
784.8429, 107.5825
785.3250, 107.2004
785.8071, 107.7114
786.2892, 108.6201
786.7714, 109.8210
787.2535, 110.9966
787.7356, 111.7062
788.2177, 111.8787
788.6998, 110.9053
789.1819, 108.4284
789.6641, 106.0308
790.1462, 105.8307
790.6283, 107.8133
791.1104, 108.5055
791.5925, 107.0375
792.0746, 105.7357
792.5568, 104.5251
793.0389, 104.0100
793.5210, 105.3373
794.0031, 107.7906
794.4852, 108.9154
794.9673, 107.3428
795.4495, 105.5771
795.9316, 105.0929
796.4137, 105.3728
796.8958, 106.2272
797.3779, 107.2611
797.8600, 107.1152
798.3422, 105.0433
798.8243, 102.4201
799.3064, 101.7138
799.7885, 103.0115
800.2706, 103.2955
800.7527, 101.8884
801.2349, 101.6322
801.7170, 104.7936
802.1991, 108.6430
802.6812, 108.9858
803.1633, 105.8291
803.6454, 103.5593
804.1276, 103.1032
804.6097, 102.9575
805.0918, 102.6980
805.5739, 102.4067
806.0560, 102.1445
806.5381, 101.9515
807.0203, 101.9078
807.5024, 102.0856
807.9845, 102.3593
808.4666, 102.5862
808.9487, 102.7620
809.4308, 102.8703
809.9130, 102.9096
810.3951, 102.9000
810.8772, 102.8837
811.3593, 102.7421
811.8414, 102.1485
812.3235, 100.7624
812.8057, 100.2159
813.2878, 102.1445
813.7699, 102.8450
814.2520, 99.87727
814.7341, 96.18525
815.2162, 94.87746
815.6984, 96.06059
816.1805, 97.50098
816.6626, 98.63103
817.1447, 99.34985
817.6268, 99.32802
818.1089, 98.95364
818.5911, 98.92651
819.0732, 99.25798
819.5553, 99.26696
820.0374, 98.42424
820.5195, 97.44430
821.0016, 98.30688
821.4838, 101.1164
821.9659, 101.5237
822.4480, 98.27043
822.9301, 95.85540
823.4122, 97.10670
823.8943, 100.0484
824.3765, 101.2890
824.8586, 100.6025
825.3407, 99.38101
825.8228, 96.29643
826.3049, 94.34877
826.7870, 95.52406
827.2692, 97.69908
827.7513, 98.79451
828.2334, 98.60243
828.7155, 97.86729
829.1976, 96.78721
829.6797, 95.71302
830.1619, 94.93871
830.6440, 94.49828
831.1261, 94.56826
831.6082, 95.12156
832.0903, 95.80486
832.5724, 96.43581
833.0546, 96.97676
833.5367, 97.40274
834.0188, 97.77248
834.5009, 97.57601
834.9830, 96.52103
835.4651, 95.47593
835.9473, 94.53177
836.4294, 93.93163
836.9115, 94.13133
837.3936, 95.07179
837.8757, 95.56163
838.3578, 94.99020
838.8400, 94.47234
839.3221, 94.48685
839.8042, 94.70739
840.2863, 94.97874
840.7684, 95.14354
841.2505, 94.78722
841.7327, 93.62194
842.2148, 92.49178
842.6969, 92.40632
843.1790, 93.15364
843.6611, 94.58041
844.1432, 96.53296
844.6254, 97.12575
845.1075, 95.43529
845.5896, 92.82600
846.0717, 90.97499
846.5538, 89.88725
847.0359, 89.80553
847.5181, 91.28430
848.0002, 92.69788
848.4823, 94.35301
848.9644, 95.24540
849.4465, 94.21635
849.9286, 91.88371
850.4108, 90.06750
850.8929, 89.02084
851.3750, 88.59708
851.8571, 88.60021
852.3392, 89.33071
852.8214, 92.02249
853.3035, 95.37859
853.7856, 96.57696
854.2677, 94.86951
854.7498, 92.70824
855.2319, 92.73074
855.7141, 93.80048
856.1962, 92.94836
856.6783, 90.52936
857.1604, 89.15408
857.6425, 89.51414
858.1246, 90.30051
858.6068, 90.46343
859.0889, 90.15234
859.5710, 89.91740
860.0531, 89.76587
860.5352, 89.68451
861.0173, 89.89600
861.4995, 89.87965
861.9816, 89.02254
862.4637, 88.00399
862.9458, 87.90498
863.4279, 88.87885
863.9100, 89.31858
864.3922, 88.04597
864.8743, 87.02431
865.3564, 87.73686
865.8385, 89.00470
866.3206, 89.22426
866.8027, 88.47272
867.2849, 88.09348
867.7670, 88.94078
868.2491, 90.12682
868.7312, 90.59430
869.2133, 90.46098
869.6954, 90.04411
870.1776, 89.36960
870.6597, 88.19893
871.1418, 86.31776
871.6239, 84.81430
872.1060, 85.53033
872.5881, 88.43373
873.0703, 88.74367
873.5524, 84.73874
874.0345, 82.62431
874.5166, 85.06497
874.9987, 88.29945
875.4808, 89.56833
875.9630, 89.22951
876.4451, 88.12651
876.9272, 85.64769
877.4093, 83.82830
877.8914, 83.20040
878.3735, 83.20452
878.8557, 83.76274
879.3378, 84.60320
879.8199, 85.66700
880.3020, 86.80434
880.7841, 87.00697
881.2662, 84.78624
881.7484, 82.03136
882.2305, 80.83846
882.7126, 80.99525
883.1947, 82.49471
883.6768, 85.05315
884.1589, 86.96670
884.6411, 87.07439
885.1232, 86.27708
885.6053, 86.50123
886.0874, 87.79468
886.5695, 88.17052
887.0516, 87.41740
887.5338, 86.40192
888.0159, 85.31290
888.4980, 84.33009
888.9801, 83.65468
889.4622, 83.28645
889.9443, 83.18586
890.4265, 83.24715
890.9086, 83.72498
891.3907, 85.26207
891.8728, 86.62334
892.3549, 86.99280
892.8370, 86.64472
893.3192, 86.09240
893.8013, 85.39642
894.2834, 84.93197
894.7655, 85.14223
895.2476, 85.41109
895.7297, 85.36801
896.2119, 84.95843
896.6940, 83.79179
897.1761, 82.05442
897.6582, 81.00022
898.1403, 81.63349
898.6224, 82.99550
899.1046, 83.57537
899.5867, 83.51061
900.0688, 83.50719
900.5509, 83.61759
901.0330, 83.05596
901.5151, 81.28325
901.9973, 79.61328
902.4794, 80.22151
902.9615, 83.11212
903.4436, 84.22694
903.9257, 82.35625
904.4078, 82.06155
904.8900, 86.18250
905.3721, 89.67806
905.8542, 87.66930
906.3363, 82.04228
906.8184, 78.63490
907.3005, 78.17375
907.7827, 78.39886
908.2648, 80.01940
908.7469, 81.16612
909.2290, 80.18121
909.7111, 78.64308
910.1932, 78.88277
910.6754, 80.89017
911.1575, 82.22064
911.6396, 81.22495
912.1217, 79.81442
912.6038, 79.36068
913.0859, 79.55685
913.5681, 80.13097
914.0502, 80.93826
914.5323, 81.87346
915.0144, 82.87337
915.4965, 83.34314
915.9786, 82.22338
916.4607, 80.04880
916.9428, 78.70982
917.4249, 78.16658
917.9070, 77.91214
918.3892, 77.81959
918.8713, 78.11565
919.3534, 79.09834
919.8355, 80.39848
920.3176, 80.74520
920.7997, 79.65988
921.2819, 79.51729
921.7640, 81.04895
922.2461, 82.16558
922.7282, 82.12797
923.2103, 81.20534
923.6924, 79.22574
924.1746, 76.29268
924.6567, 74.66222
925.1388, 75.53471
925.6209, 76.15237
926.1030, 75.48932
926.5851, 74.93517
927.0673, 75.82927
927.5494, 77.38149
928.0315, 77.90822
928.5136, 76.96886
928.9957, 76.36452
929.4778, 77.40315
929.9600, 78.78801
930.4421, 79.72224
930.9242, 80.17673
931.4063, 80.13800
931.8884, 79.63117
932.3705, 78.59578
932.8527, 76.89610
933.3348, 75.36390
933.8169, 75.04015
934.2990, 75.73897
934.7811, 77.54786
935.2632, 80.12590
935.7454, 81.02118
936.2275, 79.42101
936.7096, 77.36516
937.1917, 76.87416
937.6738, 77.50745
938.1559, 77.53738
938.6381, 76.86961
939.1202, 76.31981
939.6023, 75.88571
940.0844, 75.88948
940.5665, 76.67583
941.0486, 77.75026
941.5308, 78.30572
942.0129, 78.28268
942.4950, 78.42329
942.9771, 79.13667
943.4592, 79.39065
943.9413, 78.71564
944.4235, 77.87600
944.9056, 77.32923
945.3877, 76.96997
945.8698, 76.51626
946.3519, 75.87390
946.8340, 75.41965
947.3162, 75.29396
947.7983, 75.32915
948.2804, 75.57430
948.7625, 75.84411
949.2446, 75.97533
949.7267, 75.93388
950.2089, 75.72676
950.6910, 75.37046
951.1731, 74.80138
951.6552, 73.64021
952.1373, 72.47733
952.6194, 72.00396
953.1016, 72.17152
953.5837, 72.83566
954.0658, 73.89143
954.5479, 75.05477
955.0300, 76.23897
955.5121, 77.11433
955.9943, 76.93285
956.4764, 75.90780
956.9585, 74.61803
957.4406, 73.20894
957.9227, 72.79499
958.4048, 73.95484
958.8870, 75.45959
959.3691, 75.61873
959.8512, 74.62665
960.3333, 74.04041
960.8154, 73.89917
961.2975, 73.88897
961.7797, 73.95000
962.2618, 74.17842
962.7439, 74.73445
963.2260, 75.37591
963.7081, 75.54247
964.1902, 75.08980
964.6724, 74.96348
965.1545, 75.68156
965.6366, 75.85924
966.1187, 74.89412
966.6008, 73.54926
967.0829, 71.71365
967.5651, 69.98799
968.0472, 70.49953
968.5293, 74.90446
969.0114, 77.44558
969.4935, 75.59590
969.9756, 73.79931
970.4578, 74.41759
970.9399, 75.82740
971.4220, 76.37576
971.9041, 75.92252
972.3862, 74.82594
972.8683, 72.74407
973.3505, 71.09209
973.8326, 70.80132
974.3147, 71.06046
974.7968, 71.22425
975.2789, 71.36992
975.7610, 71.97307
976.2432, 72.97304
976.7253, 73.31442
977.2074, 71.89173
977.6895, 70.25978
978.1716, 70.32504
978.6537, 71.24256
979.1359, 71.73582
979.6180, 71.67781
980.1001, 71.00671
980.5822, 69.77409
981.0643, 68.90986
981.5464, 69.45900
982.0286, 70.92497
982.5107, 72.54161
982.9928, 74.08672
983.4749, 74.17498
983.9570, 72.72002
984.4391, 71.54741
984.9213, 71.63906
985.4034, 72.23005
985.8855, 72.22535
986.3676, 71.69225
986.8497, 71.14904
987.3318, 70.56841
987.8140, 70.40318
988.2961, 70.87978
988.7782, 71.03065
989.2603, 69.97719
989.7424, 68.64175
990.2245, 69.06788
990.7067, 71.56704
991.1888, 73.37489
991.6709, 74.72358
992.1530, 74.71173
992.6351, 72.11456
993.1172, 69.62498
993.5994, 69.65585
994.0815, 71.29121
994.5636, 71.63277
995.0457, 69.85417
995.5278, 69.11616
996.0099, 70.31697
996.4921, 71.37319
996.9742, 71.92920
997.4563, 71.99388
997.9384, 71.30353
998.4205, 70.12115
998.9026, 69.28912
999.3848, 68.74113
999.8669, 68.98560
1000.349, 70.90859
1000.831, 72.72587
1001.313, 73.93806
1001.795, 74.35120
1002.277, 73.40994
1002.760, 71.46129
1003.242, 69.93816
1003.724, 69.29882
1004.206, 69.14673
1004.688, 69.89000
1005.170, 70.46064
1005.652, 69.75495
1006.134, 68.47230
1006.617, 67.64031
1007.099, 67.42241
1007.581, 67.48579
1008.063, 67.71648
1008.545, 68.04811
1009.027, 68.69422
1009.509, 69.20583
1009.991, 68.88637
1010.473, 68.04591
1010.956, 67.24854
1011.438, 66.72909
1011.920, 66.88548
1012.402, 68.29414
1012.884, 69.74339
1013.366, 69.47705
1013.848, 68.30659
1014.330, 67.70471
1014.813, 67.66656
1015.295, 67.75966
1015.777, 67.82250
1016.259, 67.76201
1016.741, 67.40099
1017.223, 67.08728
1017.705, 67.92365
1018.187, 69.32764
1018.669, 68.73644
1019.152, 66.32927
1019.634, 65.26056
1020.116, 66.66763
1020.598, 68.23117
1021.080, 67.42931
1021.562, 65.27028
1022.044, 64.56265
1022.526, 65.21761
1023.008, 66.75910
1023.491, 69.14742
1023.973, 70.05232
1024.455, 68.35207
1024.937, 66.21313
1025.419, 66.22873
1025.901, 67.81979
1026.383, 68.26122
1026.865, 67.47160
1027.348, 66.55070
1027.830, 65.39153
1028.312, 65.70692
1028.794, 68.77634
1029.276, 71.94253
1029.758, 71.65114
1030.240, 68.44839
1030.722, 66.60179
1031.204, 66.24825
1031.687, 66.82210
1032.169, 68.72453
1032.651, 70.25788
1033.133, 70.68143
1033.615, 70.24129
1034.097, 69.12424
1034.579, 67.38646
1035.061, 65.90638
1035.544, 64.66375
1036.026, 63.70152
1036.508, 62.73067
1036.990, 62.65705
1037.472, 64.65155
1037.954, 66.98013
1038.436, 67.21887
1038.918, 65.45089
1039.401, 64.08633
1039.883, 62.80261
1040.365, 62.57313
1040.847, 64.35033
1041.329, 66.00098
1041.811, 66.59203
1042.293, 66.55988
1042.775, 66.57829
1043.257, 66.62343
1043.740, 65.75204
1044.222, 62.12164
1044.704, 60.42466
1045.186, 62.16962
1045.668, 64.40430
1046.150, 66.46547
1046.632, 67.92226
1047.114, 68.04667
1047.596, 66.92599
1048.079, 65.93513
1048.561, 64.23195
1049.043, 64.13166
1049.525, 67.95483
1050.007, 71.08733
1050.489, 70.64034
1050.971, 68.74660
1051.453, 68.00822
1051.936, 68.43059
1052.418, 68.52641
1052.900, 67.84349
1053.382, 67.18582
1053.864, 66.97972
1054.346, 66.51894
1054.828, 64.69559
1055.310, 62.90586
1055.792, 63.11314
1056.275, 65.09211
1056.757, 66.67863
1057.239, 67.47483
1057.721, 67.68301
1058.203, 67.03727
1058.685, 66.18321
1059.167, 65.46599
1059.649, 64.74440
1060.131, 63.59253
1060.614, 62.21117
1061.096, 61.57885
1061.578, 62.18765
1062.060, 62.94071
1062.542, 63.69899
1063.024, 64.23066
1063.506, 64.43495
1063.988, 64.31741
1064.471, 63.64141
1064.953, 62.64482
1065.435, 62.18599
1065.917, 62.66165
1066.399, 63.07249
1066.881, 62.82247
1067.363, 62.62784
1067.845, 63.07604
1068.328, 63.67377
1068.810, 63.88081
1069.292, 63.72393
1069.774, 63.50106
1070.256, 63.30676
1070.738, 62.97473
1071.220, 61.99310
1071.702, 61.37571
1072.184, 62.20370
1072.667, 63.31193
1073.149, 63.20941
1073.631, 62.35640
1074.113, 62.36525
1074.595, 63.74972
1075.077, 64.83777
1075.559, 64.43144
1076.041, 64.06047
1076.523, 65.00772
1077.006, 66.04028
1077.488, 65.59575
1077.970, 64.33978
1078.452, 64.14769
1078.934, 65.45723
1079.416, 66.18533
1079.898, 64.95042
1080.380, 63.48542
1080.862, 62.18246
1081.345, 61.50378
1081.827, 62.51629
1082.309, 64.20095
1082.791, 64.48305
1083.273, 63.08021
1083.755, 62.00546
1084.237, 62.28313
1084.719, 62.81867
1085.202, 63.05197
1085.684, 63.37686
1086.166, 64.77412
1086.648, 66.13920
1087.130, 65.25481
1087.612, 62.22659
1088.094, 60.22371
1088.576, 60.80585
1089.058, 61.83415
1089.541, 62.94357
1090.023, 63.58822
1090.505, 63.03416
1090.987, 62.00313
1091.469, 61.31569
1091.951, 61.09135
1092.433, 61.25966
1092.915, 61.92958
1093.397, 62.60607
1093.880, 63.50198
1094.362, 63.87724
1094.844, 62.73472
1095.326, 61.25418
1095.808, 61.12171
1096.290, 61.80065
1096.772, 60.97739
1097.254, 57.54662
1097.737, 55.46101
1098.219, 57.14860
1098.701, 59.08566
1099.183, 59.71172
1099.665, 59.85952
1100.147, 60.42562
1100.629, 61.11721
1101.111, 60.96281
1101.594, 59.69202
1102.076, 59.13969
1102.558, 60.94387
1103.040, 61.94407
1103.522, 60.19910
1104.004, 58.22264
1104.486, 57.82204
1104.968, 58.37118
1105.450, 58.82370
1105.932, 59.05975
1106.415, 59.12441
1106.897, 58.91705
1107.379, 58.69889
1107.861, 58.18217
1108.343, 58.05122
1108.825, 59.20678
1109.307, 60.57637
1109.789, 60.49446
1110.272, 59.23293
1110.754, 59.22992
1111.236, 62.14849
1111.718, 63.50080
1112.200, 61.70321
1112.682, 59.80583
1113.164, 58.70312
1113.646, 58.07188
1114.129, 57.51894
1114.611, 57.17901
1115.093, 57.65142
1115.575, 59.49245
1116.057, 60.41404
1116.539, 59.60072
1117.021, 59.10444
1117.503, 59.48128
1117.985, 60.10648
1118.468, 60.85509
1118.950, 61.41448
1119.432, 61.02544
1119.914, 59.54639
1120.396, 58.87670
1120.878, 59.51022
1121.360, 59.87420
1121.842, 59.60231
1122.324, 59.38766
1122.807, 59.62016
1123.289, 60.01460
1123.771, 60.24335
1124.253, 60.30306
1124.735, 60.20780
1125.217, 60.08357
1125.699, 59.23722
1126.181, 57.25184
1126.664, 55.75129
1127.146, 55.33498
1127.628, 55.49179
1128.110, 55.81686
1128.592, 56.28304
1129.074, 56.82325
1129.556, 57.44158
1130.038, 58.12182
1130.521, 58.92574
1131.003, 59.29383
1131.485, 59.05312
1131.967, 58.68238
1132.449, 58.49691
1132.931, 58.28863
1133.413, 57.50961
1133.895, 56.41683
1134.377, 57.19186
1134.859, 59.74719
1135.342, 61.16392
1135.824, 61.06548
1136.306, 60.53139
1136.788, 60.03109
1137.270, 59.25532
1137.752, 57.75483
1138.234, 56.01301
1138.716, 55.11375
1139.199, 55.02687
1139.681, 56.14497
1140.163, 58.09023
1140.645, 58.21454
1141.127, 56.09181
1141.609, 55.27376
1142.091, 58.50233
1142.573, 62.08645
1143.056, 59.50471
1143.538, 54.32909
1144.020, 54.46539
1144.502, 57.93041
1144.984, 59.25876
1145.466, 58.02876
1145.948, 56.61314
1146.430, 56.04602
1146.912, 56.11785
1147.395, 57.11428
1147.877, 58.11257
1148.359, 57.68701
1148.841, 56.86951
1149.323, 57.23981
1149.805, 58.42802
1150.287, 59.39597
1150.769, 59.86898
1151.251, 60.00709
1151.734, 59.84199
1152.216, 59.49101
1152.698, 58.79371
1153.180, 58.18959
1153.662, 58.06725
1154.144, 58.25146
1154.626, 58.83387
1155.108, 59.46570
1155.591, 58.92680
1156.073, 56.54997
1156.555, 55.26846
1157.037, 57.25730
1157.519, 59.01898
1158.001, 58.74826
1158.483, 58.08339
1158.965, 58.47102
1159.448, 59.27545
1159.930, 59.23004
1160.412, 58.24643
1160.894, 57.40496
1161.376, 56.75620
1161.858, 56.36222
1162.340, 56.33409
1162.822, 56.42689
1163.304, 56.31482
1163.786, 56.54093
1164.269, 58.09454
1164.751, 60.28751
1165.233, 60.61472
1165.715, 58.43892
1166.197, 57.23876
1166.679, 57.32230
1167.161, 57.54188
1167.643, 57.73355
1168.126, 57.82673
1168.608, 57.69634
1169.090, 57.65026
1169.572, 58.22325
1170.054, 59.28802
1170.536, 59.97969
1171.018, 60.32576
1171.500, 59.29828
1171.983, 56.72126
1172.465, 55.51343
1172.947, 56.73713
1173.429, 58.42410
1173.911, 58.95781
1174.393, 58.77205
1174.875, 58.56447
1175.357, 58.35955
1175.839, 58.29527
1176.322, 58.31985
1176.804, 58.36490
1177.286, 58.30605
1177.768, 57.30952
1178.250, 55.04835
1178.732, 53.38885
1179.214, 54.61467
1179.696, 56.72282
1180.178, 57.00130
1180.661, 56.39672
1181.143, 56.27930
1181.625, 56.55637
1182.107, 56.71072
1182.589, 56.66572
1183.071, 56.73175
1183.553, 57.11924
1184.035, 57.37782
1184.518, 57.43197
1185.000, 57.01699
1185.482, 55.07088
1185.964, 53.27932
1186.446, 54.11472
1186.928, 56.36916
1187.410, 56.76573
1187.892, 54.69578
1188.375, 53.52001
1188.857, 54.64132
1189.339, 55.80332
1189.821, 56.64187
1190.303, 57.29499
1190.785, 57.96489
1191.267, 58.37962
1191.749, 58.11090
1192.231, 57.35967
1192.714, 56.87275
1193.196, 56.58838
1193.678, 56.93729
1194.160, 58.58001
1194.642, 58.87984
1195.124, 56.73441
1195.606, 54.95292
1196.088, 55.34042
1196.570, 56.41845
1197.053, 56.11961
1197.535, 54.70937
1198.017, 53.16908
1198.499, 51.54212
1198.981, 52.00366
1199.463, 54.56499
1199.945, 56.02896
1200.427, 55.52214
1200.910, 54.70058
1201.392, 54.69479
1201.874, 55.07067
1202.356, 55.12665
1202.838, 55.16138
1203.320, 56.24222
1203.802, 57.64564
1204.284, 57.45182
1204.766, 55.97548
1205.249, 54.93031
1205.731, 54.82192
1206.213, 54.89782
1206.695, 54.74082
1207.177, 54.50069
1207.659, 54.23375
1208.141, 53.99439
1208.623, 53.66447
1209.105, 53.51146
1209.588, 54.00062
1210.070, 54.94542
1210.552, 55.86378
1211.034, 56.73800
1211.516, 56.74580
1211.998, 54.48516
1212.480, 53.11747
1212.962, 54.30399
1213.445, 55.51348
1213.927, 55.18140
1214.409, 54.37150
1214.891, 54.04832
1215.373, 54.25892
1215.855, 55.40221
1216.337, 58.10519
1216.819, 58.83369
1217.302, 57.08421
1217.784, 55.14532
1218.266, 53.26460
1218.748, 52.43162
1219.230, 53.38464
1219.712, 54.62368
1220.194, 54.01152
1220.676, 52.43487
1221.158, 53.32715
1221.641, 55.93902
1222.123, 55.83168
1222.605, 53.38432
1223.087, 51.92183
1223.569, 52.18141
1224.051, 53.22215
1224.533, 54.58759
1225.015, 55.18706
1225.497, 52.86135
1225.980, 50.22589
1226.462, 50.97580
1226.944, 52.80096
1227.426, 52.23661
1227.908, 50.42706
1228.390, 50.39797
1228.872, 52.38572
1229.354, 53.99769
1229.837, 54.24255
1230.319, 54.56416
1230.801, 56.25043
1231.283, 57.07059
1231.765, 54.83420
1232.247, 52.59060
1232.729, 53.17133
1233.211, 55.17423
1233.693, 55.94853
1234.176, 55.54161
1234.658, 55.34962
1235.140, 55.44851
1235.622, 55.55048
1236.104, 55.68918
1236.586, 55.66724
1237.068, 55.42320
1237.550, 54.98464
1238.032, 54.32227
1238.515, 53.70272
1238.997, 53.61794
1239.479, 53.93055
1239.961, 54.44419
1240.443, 54.85281
1240.925, 53.04167
1241.407, 49.61001
1241.889, 48.22542
1242.372, 49.70790
1242.854, 51.67029
1243.336, 52.71137
1243.818, 53.31847
1244.300, 54.09173
1244.782, 54.50554
1245.264, 53.53407
1245.746, 52.31886
1246.229, 52.46931
1246.711, 53.38137
1247.193, 53.64713
1247.675, 53.06499
1248.157, 52.28092
1248.639, 51.08888
1249.121, 50.44276
1249.603, 51.01180
1250.085, 51.45525
1250.568, 51.11289
1251.050, 50.81812
1251.532, 51.16531
1252.014, 51.87429
1252.496, 52.59690
1252.978, 53.26135
1253.460, 52.82673
1253.942, 51.08624
1254.424, 50.72411
1254.907, 51.95974
1255.389, 52.92376
1255.871, 53.09591
1256.353, 52.52383
1256.835, 51.16656
1257.317, 50.05706
1257.799, 50.98745
1258.281, 52.57407
1258.764, 52.01539
1259.246, 50.47717
1259.728, 49.96609
1260.210, 50.32082
1260.692, 50.86680
1261.174, 51.35958
1261.656, 51.52056
1262.138, 51.15184
1262.620, 50.91715
1263.103, 51.14053
1263.585, 51.54259
1264.067, 52.20527
1264.549, 52.78164
1265.031, 53.38251
1265.513, 53.51052
1265.995, 51.93227
1266.477, 49.24015
1266.959, 48.71341
1267.442, 51.31031
1267.924, 51.91898
1268.406, 49.96777
1268.888, 48.73394
1269.370, 48.91879
1269.852, 49.09121
1270.334, 48.49930
1270.816, 48.08918
1271.299, 48.93641
1271.781, 50.45570
1272.263, 51.70542
1272.745, 52.58420
1273.227, 52.52231
1273.709, 51.99937
1274.191, 52.43034
1274.673, 53.59921
1275.156, 54.02497
1275.638, 53.24105
1276.120, 52.11504
1276.602, 50.69182
1277.084, 49.78600
1277.566, 50.13362
1278.048, 50.72744
1278.530, 51.15452
1279.012, 51.36977
1279.495, 51.32129
1279.977, 51.05032
1280.459, 50.68531
1280.941, 50.22862
1281.423, 49.38888
1281.905, 47.71727
1282.387, 47.57727
1282.869, 49.44276
1283.351, 51.01402
1283.834, 51.62871
1284.316, 51.71333
1284.798, 51.55056
1285.280, 51.06942
1285.762, 50.18756
1286.244, 48.92359
##END=



