##NAMES=Senarmontite
##RRUFFID=R060002
##IDEAL CHEMISTRY=Sb^3+^_2_O_3_
##LOCALITY=Chenlong, Xin Yi County, Guizhou Province, China
##OWNER=RRUFF
##SOURCE=Ken Roberts
##DESCRIPTION=Glassy coating over an altered stibnite crystal, mixed with cervantite
##STATUS=The identification of this mineral has been confirmed by X-ray diffraction and chemical analysis
##URL=rruff.info/R060002
##MEASURED CHEMISTRY=core and light rim: (Sb_1.99_As_0.01_)_Î£=2_O_3_
121.0265, 3466.277
121.5086, 3461.413
121.9907, 3457.074
122.4728, 3455.409
122.9550, 3455.456
123.4371, 3454.717
123.9192, 3452.104
124.4013, 3449.018
124.8834, 3447.007
125.3655, 3446.083
125.8476, 3445.622
126.3298, 3444.939
126.8119, 3443.941
127.2940, 3443.832
127.7761, 3446.207
128.2582, 3448.883
128.7404, 3450.738
129.2225, 3451.478
129.7046, 3451.190
130.1867, 3449.674
130.6688, 3445.298
131.1509, 3442.944
131.6331, 3443.996
132.1152, 3446.656
132.5973, 3449.465
133.0794, 3451.717
133.5615, 3453.431
134.0436, 3454.628
134.5258, 3454.802
135.0079, 3454.960
135.4900, 3455.190
135.9721, 3455.493
136.4542, 3455.679
136.9363, 3455.478
137.4185, 3455.056
137.9006, 3456.707
138.3827, 3463.220
138.8648, 3468.830
139.3469, 3470.075
139.8290, 3467.409
140.3112, 3464.413
140.7933, 3464.088
141.2754, 3466.133
141.7575, 3466.989
142.2396, 3465.499
142.7217, 3463.234
143.2039, 3462.122
143.6860, 3462.593
144.1681, 3462.782
144.6502, 3460.792
145.1323, 3457.328
145.6144, 3453.734
146.0966, 3450.399
146.5787, 3447.331
147.0608, 3444.325
147.5429, 3440.375
148.0250, 3438.105
148.5071, 3439.816
148.9893, 3444.347
149.4714, 3448.476
149.9535, 3449.302
150.4356, 3446.515
150.9177, 3444.428
151.3998, 3443.983
151.8820, 3443.542
152.3641, 3441.829
152.8462, 3439.215
153.3283, 3437.435
153.8104, 3438.927
154.2925, 3445.781
154.7747, 3450.006
155.2568, 3449.247
155.7389, 3448.143
156.2210, 3449.932
156.7031, 3455.099
157.1852, 3461.523
157.6673, 3465.848
158.1495, 3465.835
158.6316, 3467.407
159.1137, 3470.927
159.5958, 3475.798
160.0779, 3481.568
160.5600, 3488.122
161.0422, 3495.246
161.5243, 3502.462
162.0064, 3509.167
162.4885, 3517.201
162.9706, 3527.788
163.4527, 3539.950
163.9349, 3551.771
164.4170, 3562.483
164.8991, 3572.564
165.3812, 3582.710
165.8633, 3592.379
166.3454, 3603.608
166.8276, 3618.689
167.3097, 3637.034
167.7918, 3654.490
168.2739, 3668.372
168.7560, 3681.309
169.2381, 3696.277
169.7203, 3713.665
170.2024, 3732.617
170.6845, 3752.221
171.1666, 3772.202
171.6487, 3794.060
172.1308, 3820.110
172.6130, 3847.340
173.0951, 3873.058
173.5772, 3896.154
174.0593, 3918.948
174.5414, 3946.271
175.0235, 3980.975
175.5057, 4014.084
175.9878, 4042.255
176.4699, 4068.762
176.9520, 4096.770
177.4341, 4127.614
177.9162, 4160.806
178.3984, 4195.547
178.8805, 4235.769
179.3626, 4272.206
179.8447, 4301.201
180.3268, 4326.795
180.8089, 4354.351
181.2911, 4386.813
181.7732, 4423.229
182.2553, 4458.626
182.7374, 4491.495
183.2195, 4525.193
183.7016, 4561.942
184.1838, 4599.942
184.6659, 4635.780
185.1480, 4667.313
185.6301, 4695.026
186.1122, 4723.403
186.5943, 4751.640
187.0765, 4780.949
187.5586, 4812.641
188.0407, 4845.943
188.5228, 4878.914
189.0049, 4910.622
189.4870, 4940.405
189.9692, 4967.096
190.4513, 4989.593
190.9334, 5010.082
191.4155, 5030.200
191.8976, 5049.781
192.3797, 5067.604
192.8619, 5083.520
193.3440, 5096.538
193.8261, 5104.718
194.3082, 5107.620
194.7903, 5105.709
195.2724, 5098.434
195.7546, 5085.281
196.2367, 5070.499
196.7188, 5059.394
197.2009, 5047.853
197.6830, 5029.396
198.1651, 5000.530
198.6473, 4964.836
199.1294, 4927.854
199.6115, 4889.601
200.0936, 4850.029
200.5757, 4809.784
201.0578, 4768.126
201.5400, 4723.412
202.0221, 4674.344
202.5042, 4622.320
202.9863, 4570.679
203.4684, 4520.058
203.9505, 4469.242
204.4327, 4416.448
204.9148, 4363.391
205.3969, 4312.316
205.8790, 4264.412
206.3611, 4219.298
206.8432, 4173.950
207.3254, 4127.117
207.8075, 4081.571
208.2896, 4036.849
208.7717, 3994.013
209.2538, 3954.473
209.7359, 3919.604
210.2181, 3888.800
210.7002, 3857.747
211.1823, 3823.255
211.6644, 3791.918
212.1465, 3767.236
212.6286, 3746.500
213.1108, 3724.962
213.5929, 3699.337
214.0750, 3669.973
214.5571, 3642.796
215.0392, 3617.176
215.5213, 3593.917
216.0035, 3574.598
216.4856, 3558.007
216.9677, 3541.861
217.4498, 3524.515
217.9319, 3506.232
218.4140, 3489.015
218.8962, 3472.626
219.3783, 3457.397
219.8604, 3444.141
220.3425, 3432.270
220.8246, 3419.983
221.3067, 3405.933
221.7889, 3390.436
222.2710, 3375.723
222.7531, 3361.173
223.2352, 3347.857
223.7173, 3336.585
224.1994, 3327.124
224.6816, 3318.288
225.1637, 3309.468
225.6458, 3300.735
226.1279, 3292.306
226.6100, 3285.415
227.0921, 3277.633
227.5743, 3266.013
228.0564, 3251.089
228.5385, 3237.997
229.0206, 3230.251
229.5027, 3226.126
229.9848, 3221.623
230.4670, 3216.719
230.9491, 3211.091
231.4312, 3204.052
231.9133, 3195.578
232.3954, 3187.388
232.8775, 3179.943
233.3597, 3173.526
233.8418, 3168.868
234.3239, 3166.883
234.8060, 3164.853
235.2881, 3159.052
235.7702, 3148.920
236.2524, 3140.333
236.7345, 3136.893
237.2166, 3135.495
237.6987, 3133.630
238.1808, 3130.748
238.6629, 3127.579
239.1451, 3125.324
239.6272, 3124.359
240.1093, 3122.321
240.5914, 3116.766
241.0735, 3110.849
241.5556, 3106.790
242.0378, 3105.104
242.5199, 3104.847
243.0020, 3105.335
243.4841, 3107.249
243.9662, 3107.211
244.4483, 3102.632
244.9305, 3097.189
245.4126, 3093.029
245.8947, 3090.667
246.3768, 3089.435
246.8589, 3088.904
247.3410, 3089.933
247.8232, 3088.861
248.3053, 3082.827
248.7874, 3076.538
249.2695, 3073.384
249.7516, 3073.715
250.2337, 3074.898
250.7159, 3073.087
251.1980, 3066.451
251.6801, 3061.901
252.1622, 3061.792
252.6443, 3061.866
253.1264, 3059.234
253.6086, 3053.812
254.0907, 3047.878
254.5728, 3044.425
255.0549, 3044.624
255.5370, 3043.724
256.0191, 3040.739
256.5013, 3037.636
256.9834, 3035.652
257.4655, 3034.760
257.9476, 3034.023
258.4297, 3032.413
258.9118, 3029.703
259.3940, 3026.910
259.8761, 3024.515
260.3582, 3021.633
260.8403, 3017.185
261.3224, 3011.578
261.8045, 3006.517
262.2867, 3003.861
262.7688, 3004.323
263.2509, 3002.211
263.7330, 2996.014
264.2151, 2989.286
264.6972, 2983.127
265.1794, 2977.845
265.6615, 2973.708
266.1436, 2971.221
266.6257, 2970.527
267.1078, 2967.898
267.5899, 2962.180
268.0721, 2956.130
268.5542, 2950.610
269.0363, 2945.732
269.5184, 2941.559
270.0005, 2938.323
270.4826, 2935.884
270.9648, 2932.303
271.4469, 2926.499
271.9290, 2920.937
272.4111, 2916.315
272.8932, 2912.630
273.3753, 2910.017
273.8575, 2908.886
274.3396, 2908.623
274.8217, 2905.917
275.3038, 2898.981
275.7859, 2892.202
276.2680, 2886.766
276.7502, 2882.459
277.2323, 2878.891
277.7144, 2876.012
278.1965, 2873.544
278.6786, 2870.608
279.1607, 2866.819
279.6429, 2863.395
280.1250, 2861.428
280.6071, 2859.956
281.0892, 2856.867
281.5713, 2851.045
282.0534, 2844.320
282.5356, 2840.717
283.0177, 2841.205
283.4998, 2840.747
283.9819, 2836.784
284.4640, 2831.464
284.9461, 2828.557
285.4283, 2829.403
285.9104, 2831.153
286.3925, 2829.345
286.8746, 2823.685
287.3567, 2818.677
287.8388, 2815.519
288.3210, 2813.366
288.8031, 2811.203
289.2852, 2808.838
289.7673, 2806.498
290.2494, 2804.591
290.7315, 2803.074
291.2137, 2801.107
291.6958, 2797.802
292.1779, 2794.390
292.6600, 2792.659
293.1421, 2792.832
293.6242, 2792.638
294.1064, 2789.699
294.5885, 2784.622
295.0706, 2780.886
295.5527, 2779.548
296.0348, 2779.160
296.5169, 2778.985
296.9991, 2778.939
297.4812, 2777.752
297.9633, 2773.675
298.4454, 2768.054
298.9275, 2765.007
299.4096, 2765.906
299.8918, 2767.983
300.3739, 2770.120
300.8560, 2772.114
301.3381, 2772.385
301.8202, 2769.571
302.3023, 2765.030
302.7845, 2761.650
303.2666, 2759.862
303.7487, 2758.257
304.2308, 2756.057
304.7129, 2753.414
305.1950, 2750.853
305.6772, 2748.605
306.1593, 2746.426
306.6414, 2743.644
307.1235, 2740.041
307.6056, 2737.516
308.0877, 2738.007
308.5699, 2740.112
309.0520, 2740.375
309.5341, 2737.663
310.0162, 2734.047
310.4983, 2731.780
310.9804, 2730.638
311.4626, 2729.749
311.9447, 2728.763
312.4268, 2727.868
312.9089, 2727.575
313.3910, 2728.102
313.8731, 2728.278
314.3553, 2726.735
314.8374, 2723.957
315.3195, 2721.462
315.8016, 2719.721
316.2837, 2718.274
316.7658, 2716.488
317.2480, 2714.326
317.7301, 2712.681
318.2122, 2712.863
318.6943, 2713.719
319.1764, 2712.423
319.6585, 2707.009
320.1407, 2701.646
320.6228, 2700.057
321.1049, 2701.755
321.5870, 2703.110
322.0691, 2702.752
322.5512, 2701.019
323.0334, 2698.585
323.5155, 2695.168
323.9976, 2692.062
324.4797, 2690.264
324.9618, 2689.374
325.4439, 2688.098
325.9261, 2685.878
326.4082, 2683.532
326.8903, 2682.292
327.3724, 2682.142
327.8545, 2681.696
328.3366, 2680.175
328.8188, 2678.108
329.3009, 2676.329
329.7830, 2674.950
330.2651, 2673.845
330.7472, 2673.053
331.2293, 2672.488
331.7115, 2671.698
332.1936, 2670.180
332.6757, 2668.643
333.1578, 2668.083
333.6399, 2668.546
334.1220, 2668.692
334.6042, 2667.334
335.0863, 2664.993
335.5684, 2663.693
336.0505, 2664.166
336.5326, 2665.026
337.0147, 2665.453
337.4969, 2665.522
337.9790, 2665.599
338.4611, 2665.969
338.9432, 2666.307
339.4253, 2665.887
339.9074, 2664.546
340.3896, 2663.014
340.8717, 2661.253
341.3538, 2659.530
341.8359, 2658.411
342.3180, 2658.090
342.8001, 2658.270
343.2823, 2658.742
343.7644, 2659.593
344.2465, 2659.922
344.7286, 2659.374
345.2107, 2658.315
345.6928, 2657.063
346.1750, 2655.662
346.6571, 2654.187
347.1392, 2652.479
347.6213, 2650.605
348.1034, 2650.050
348.5855, 2652.527
349.0677, 2654.882
349.5498, 2654.814
350.0319, 2652.643
350.5140, 2650.173
350.9961, 2648.376
351.4782, 2647.172
351.9604, 2646.139
352.4425, 2644.320
352.9246, 2643.749
353.4067, 2646.940
353.8888, 2651.536
354.3709, 2652.875
354.8531, 2648.971
355.3352, 2642.387
355.8173, 2637.825
356.2994, 2635.418
356.7815, 2634.762
357.2636, 2637.133
357.7458, 2640.536
358.2279, 2643.070
358.7100, 2644.399
359.1921, 2645.416
359.6742, 2647.295
360.1563, 2650.512
360.6385, 2651.127
361.1206, 2646.432
361.6027, 2641.856
362.0848, 2640.437
362.5669, 2641.761
363.0490, 2643.752
363.5312, 2644.958
364.0133, 2645.597
364.4954, 2647.528
364.9775, 2652.030
365.4596, 2656.200
365.9417, 2660.027
366.4239, 2663.000
366.9060, 2664.113
367.3881, 2662.976
367.8702, 2660.745
368.3523, 2659.782
368.8344, 2660.625
369.3166, 2662.021
369.7987, 2663.915
370.2808, 2666.344
370.7629, 2669.415
371.2450, 2673.096
371.7271, 2677.224
372.2093, 2681.684
372.6914, 2686.637
373.1735, 2691.047
373.6556, 2695.050
374.1377, 2698.417
374.6198, 2700.283
375.1020, 2701.469
375.5841, 2703.658
376.0662, 2708.059
376.5483, 2714.073
377.0304, 2718.617
377.5125, 2719.517
377.9947, 2722.129
378.4768, 2727.829
378.9589, 2735.201
379.4410, 2743.049
379.9231, 2750.936
380.4052, 2758.719
380.8874, 2766.496
381.3695, 2774.804
381.8516, 2781.186
382.3337, 2782.507
382.8158, 2784.274
383.2979, 2789.880
383.7801, 2798.919
384.2622, 2808.388
384.7443, 2815.567
385.2264, 2820.702
385.7085, 2827.268
386.1906, 2836.355
386.6728, 2845.391
387.1549, 2852.757
387.6370, 2859.543
388.1191, 2867.555
388.6012, 2878.029
389.0833, 2889.243
389.5655, 2897.670
390.0476, 2902.543
390.5297, 2908.123
391.0118, 2915.886
391.4939, 2924.926
391.9760, 2935.261
392.4582, 2946.930
392.9403, 2957.457
393.4224, 2964.298
393.9045, 2967.976
394.3866, 2971.931
394.8687, 2977.247
395.3509, 2981.802
395.8330, 2983.392
396.3151, 2982.788
396.7972, 2982.442
397.2793, 2984.015
397.7614, 2986.042
398.2436, 2986.678
398.7257, 2985.926
399.2078, 2983.552
399.6899, 2978.723
400.1720, 2972.398
400.6541, 2966.721
401.1363, 2961.948
401.6184, 2957.569
402.1005, 2954.446
402.5826, 2951.597
403.0647, 2945.609
403.5468, 2934.684
404.0290, 2922.427
404.5111, 2914.315
404.9932, 2910.619
405.4753, 2906.394
405.9574, 2901.460
406.4395, 2895.173
406.9217, 2885.963
407.4038, 2874.027
407.8859, 2862.695
408.3680, 2854.778
408.8501, 2849.946
409.3322, 2843.952
409.8144, 2835.421
410.2965, 2827.390
410.7786, 2821.421
411.2607, 2816.590
411.7428, 2811.235
412.2249, 2804.715
412.7071, 2797.363
413.1892, 2789.732
413.6713, 2780.769
414.1534, 2773.683
414.6355, 2769.941
415.1176, 2766.926
415.5998, 2762.691
416.0819, 2757.191
416.5640, 2751.698
417.0461, 2747.473
417.5282, 2744.553
418.0103, 2740.486
418.4925, 2733.070
418.9746, 2726.894
419.4567, 2724.102
419.9388, 2722.801
420.4209, 2720.234
420.9030, 2715.166
421.3852, 2708.750
421.8673, 2703.228
422.3494, 2698.417
422.8315, 2694.989
423.3136, 2694.705
423.7957, 2694.378
424.2779, 2691.485
424.7600, 2686.312
425.2421, 2681.530
425.7242, 2679.821
426.2063, 2680.783
426.6884, 2680.512
427.1706, 2678.457
427.6527, 2676.059
428.1348, 2674.072
428.6169, 2672.149
429.0990, 2669.645
429.5811, 2666.096
430.0633, 2662.522
430.5454, 2660.466
431.0275, 2659.969
431.5096, 2659.038
431.9917, 2656.507
432.4738, 2653.972
432.9560, 2653.203
433.4381, 2654.178
433.9202, 2655.280
434.4023, 2656.001
434.8844, 2656.269
435.3665, 2655.473
435.8487, 2653.352
436.3308, 2652.177
436.8129, 2654.443
437.2950, 2659.064
437.7771, 2661.330
438.2592, 2658.987
438.7414, 2656.550
439.2235, 2656.726
439.7056, 2658.660
440.1877, 2660.380
440.6698, 2661.207
441.1519, 2661.372
441.6341, 2661.262
442.1162, 2661.000
442.5983, 2660.025
443.0804, 2656.988
443.5625, 2654.237
444.0446, 2653.531
444.5268, 2654.873
445.0089, 2657.551
445.4910, 2661.379
445.9731, 2665.977
446.4552, 2667.650
446.9373, 2663.162
447.4195, 2659.597
447.9016, 2658.206
448.3837, 2658.140
448.8658, 2658.660
449.3479, 2659.458
449.8300, 2660.254
450.3122, 2660.753
450.7943, 2661.140
451.2764, 2660.516
451.7585, 2657.493
452.2406, 2654.735
452.7227, 2653.215
453.2049, 2652.792
453.6870, 2653.159
454.1691, 2654.545
454.6512, 2656.021
455.1333, 2654.874
455.6154, 2650.170
456.0976, 2645.634
456.5797, 2643.453
457.0618, 2641.264
457.5439, 2636.673
458.0260, 2629.402
458.5081, 2622.343
458.9903, 2618.384
459.4724, 2616.537
459.9545, 2613.145
460.4366, 2607.576
460.9187, 2601.138
461.4008, 2594.158
461.8830, 2587.054
462.3651, 2581.012
462.8472, 2577.492
463.3293, 2573.742
463.8114, 2567.168
464.2935, 2558.504
464.7756, 2550.396
465.2578, 2543.842
465.7399, 2538.208
466.2220, 2532.754
466.7041, 2527.757
467.1862, 2521.739
467.6683, 2513.315
468.1505, 2504.660
468.6326, 2497.532
469.1147, 2491.936
469.5968, 2487.095
470.0789, 2482.451
470.5610, 2478.037
471.0432, 2474.208
471.5253, 2472.289
472.0074, 2469.263
472.4895, 2463.876
472.9716, 2457.729
473.4537, 2452.457
473.9359, 2448.433
474.4180, 2444.893
474.9001, 2440.883
475.3822, 2436.302
475.8643, 2432.354
476.3464, 2430.266
476.8286, 2427.509
477.3107, 2422.395
477.7928, 2416.281
478.2749, 2411.427
478.7570, 2408.934
479.2391, 2407.731
479.7213, 2406.340
480.2034, 2404.811
480.6855, 2402.504
481.1676, 2398.484
481.6497, 2394.338
482.1318, 2391.284
482.6140, 2389.259
483.0961, 2387.710
483.5782, 2386.801
484.0603, 2386.015
484.5424, 2384.660
485.0245, 2382.720
485.5067, 2379.781
485.9888, 2374.849
486.4709, 2369.204
486.9530, 2366.277
487.4351, 2367.367
487.9172, 2368.120
488.3994, 2366.590
488.8815, 2364.061
489.3636, 2362.367
489.8457, 2361.825
490.3278, 2361.394
490.8099, 2360.019
491.2921, 2357.656
491.7742, 2355.726
492.2563, 2355.223
492.7384, 2353.960
493.2205, 2350.728
493.7026, 2346.517
494.1848, 2342.513
494.6669, 2339.212
495.1490, 2336.752
495.6311, 2335.430
496.1132, 2335.513
496.5953, 2335.889
497.0775, 2337.579
497.5596, 2338.574
498.0417, 2337.711
498.5238, 2335.527
499.0059, 2333.353
499.4880, 2332.056
499.9702, 2330.804
500.4523, 2327.280
500.9344, 2320.787
501.4165, 2316.496
501.8986, 2317.758
502.3807, 2320.160
502.8629, 2319.411
503.3450, 2315.551
503.8271, 2311.814
504.3092, 2309.638
504.7913, 2308.569
505.2734, 2308.508
505.7556, 2309.431
506.2377, 2309.132
506.7198, 2305.925
507.2019, 2300.802
507.6840, 2296.849
508.1661, 2294.176
508.6483, 2292.286
509.1304, 2291.599
509.6125, 2291.352
510.0946, 2290.633
510.5767, 2289.325
511.0588, 2287.917
511.5410, 2286.805
512.0231, 2285.988
512.5052, 2285.657
512.9873, 2287.197
513.4694, 2287.547
513.9515, 2285.050
514.4337, 2281.543
514.9158, 2279.225
515.3979, 2278.677
515.8800, 2278.649
516.3621, 2277.336
516.8442, 2274.513
517.3264, 2272.963
517.8085, 2274.494
518.2906, 2274.918
518.7727, 2271.500
519.2548, 2266.055
519.7369, 2261.671
520.2191, 2259.551
520.7012, 2258.346
521.1833, 2256.403
521.6654, 2253.908
522.1475, 2252.452
522.6296, 2252.778
523.1118, 2253.494
523.5939, 2252.959
524.0760, 2251.360
524.5581, 2249.984
525.0402, 2248.744
525.5223, 2248.052
526.0045, 2249.115
526.4866, 2251.040
526.9687, 2251.167
527.4508, 2248.265
527.9329, 2243.530
528.4150, 2238.970
528.8972, 2233.607
529.3793, 2231.031
529.8614, 2233.613
530.3435, 2236.613
530.8256, 2237.438
531.3077, 2236.450
531.7899, 2235.302
532.2720, 2235.035
532.7541, 2234.920
533.2362, 2232.875
533.7183, 2228.109
534.2004, 2223.620
534.6826, 2218.912
535.1647, 2215.427
535.6468, 2215.150
536.1289, 2217.317
536.6110, 2218.385
537.0931, 2215.429
537.5753, 2210.465
538.0574, 2207.053
538.5395, 2205.206
539.0216, 2204.578
539.5037, 2205.599
539.9858, 2207.270
540.4680, 2208.160
540.9501, 2208.458
541.4322, 2207.328
541.9143, 2202.315
542.3964, 2197.246
542.8785, 2196.660
543.3607, 2200.137
543.8428, 2203.832
544.3249, 2205.439
544.8070, 2205.165
545.2891, 2203.743
545.7712, 2200.090
546.2534, 2196.719
546.7355, 2192.820
547.2176, 2189.891
547.6997, 2189.860
548.1818, 2192.135
548.6639, 2194.007
549.1461, 2193.275
549.6282, 2190.511
550.1103, 2187.870
550.5924, 2184.765
551.0745, 2183.232
551.5566, 2185.721
552.0388, 2188.881
552.5209, 2190.080
553.0030, 2189.106
553.4851, 2187.460
553.9672, 2185.228
554.4493, 2183.167
554.9315, 2183.100
555.4136, 2185.136
555.8957, 2186.808
556.3778, 2187.028
556.8599, 2185.817
557.3420, 2182.829
557.8242, 2176.760
558.3063, 2172.323
558.7884, 2171.364
559.2705, 2171.785
559.7526, 2171.692
560.2347, 2171.034
560.7169, 2171.022
561.1990, 2172.709
561.6811, 2175.374
562.1632, 2175.561
562.6453, 2170.844
563.1274, 2167.738
563.6096, 2168.115
564.0917, 2169.204
564.5738, 2168.945
565.0559, 2167.354
565.5380, 2165.846
566.0201, 2165.687
566.5023, 2166.216
566.9844, 2165.664
567.4665, 2163.927
567.9486, 2161.753
568.4307, 2158.706
568.9128, 2156.050
569.3950, 2155.921
569.8771, 2158.645
570.3592, 2160.211
570.8413, 2158.225
571.3234, 2155.207
571.8055, 2153.984
572.2877, 2154.328
572.7698, 2154.080
573.2519, 2151.919
573.7340, 2148.825
574.2161, 2147.324
574.6982, 2148.152
575.1804, 2149.366
575.6625, 2152.280
576.1446, 2154.364
576.6267, 2153.616
577.1088, 2150.689
577.5909, 2147.310
578.0731, 2144.286
578.5552, 2142.103
579.0373, 2142.333
579.5194, 2145.585
580.0015, 2147.815
580.4836, 2147.910
580.9658, 2147.035
581.4479, 2146.318
581.9300, 2145.552
582.4121, 2143.784
582.8942, 2139.323
583.3763, 2134.823
583.8585, 2133.069
584.3406, 2133.556
584.8227, 2134.645
585.3048, 2135.962
585.7869, 2136.798
586.2690, 2135.996
586.7512, 2133.025
587.2333, 2131.078
587.7154, 2130.658
588.1975, 2130.647
588.6796, 2131.023
589.1617, 2131.356
589.6439, 2130.727
590.1260, 2128.871
590.6081, 2127.076
591.0902, 2127.740
591.5723, 2131.335
592.0544, 2132.475
592.5366, 2129.244
593.0187, 2126.200
593.5008, 2125.865
593.9829, 2126.889
594.4650, 2127.331
594.9471, 2126.725
595.4293, 2125.480
595.9114, 2123.299
596.3935, 2120.791
596.8756, 2119.605
597.3577, 2120.027
597.8398, 2120.846
598.3220, 2121.395
598.8041, 2121.564
599.2862, 2120.490
599.7683, 2116.557
600.2504, 2113.768
600.7325, 2113.990
601.2147, 2114.828
601.6968, 2113.808
602.1789, 2110.935
602.6610, 2107.987
603.1431, 2106.331
603.6252, 2105.808
604.1074, 2105.952
604.5895, 2107.231
605.0716, 2107.928
605.5537, 2107.297
606.0358, 2106.131
606.5179, 2104.836
607.0001, 2103.471
607.4822, 2102.179
607.9643, 2100.683
608.4464, 2099.513
608.9285, 2099.987
609.4106, 2101.672
609.8928, 2101.737
610.3749, 2098.774
610.8570, 2094.864
611.3391, 2093.188
611.8212, 2094.564
612.3033, 2095.086
612.7855, 2094.206
613.2676, 2093.108
613.7497, 2092.361
614.2318, 2091.742
614.7139, 2090.726
615.1960, 2089.143
615.6782, 2087.529
616.1603, 2086.797
616.6424, 2087.014
617.1245, 2086.329
617.6066, 2083.831
618.0887, 2081.971
618.5709, 2082.528
619.0530, 2084.228
619.5351, 2085.555
620.0172, 2086.440
620.4993, 2086.267
620.9814, 2083.736
621.4636, 2080.323
621.9457, 2078.489
622.4278, 2078.386
622.9099, 2078.474
623.3920, 2077.735
623.8741, 2076.464
624.3563, 2075.702
624.8384, 2075.935
625.3205, 2075.995
625.8026, 2076.072
626.2847, 2075.813
626.7668, 2074.643
627.2490, 2072.929
627.7311, 2071.733
628.2132, 2071.759
628.6953, 2072.209
629.1774, 2071.487
629.6595, 2069.530
630.1417, 2068.040
630.6238, 2067.488
631.1059, 2067.198
631.5880, 2066.946
632.0701, 2066.534
632.5522, 2065.174
633.0344, 2061.762
633.5165, 2058.549
633.9986, 2056.857
634.4807, 2056.003
634.9628, 2054.585
635.4449, 2052.485
635.9271, 2051.428
636.4092, 2053.317
636.8913, 2057.707
637.3734, 2059.719
637.8555, 2058.112
638.3376, 2056.038
638.8198, 2053.583
639.3019, 2051.216
639.7840, 2049.159
640.2661, 2047.510
640.7482, 2046.461
641.2303, 2046.292
641.7125, 2046.669
642.1946, 2047.511
642.6767, 2048.679
643.1588, 2048.375
643.6409, 2045.639
644.1230, 2042.290
644.6052, 2040.697
645.0873, 2041.187
645.5694, 2040.728
646.0515, 2038.931
646.5336, 2036.647
647.0157, 2033.577
647.4979, 2030.504
647.9800, 2028.464
648.4621, 2027.685
648.9442, 2027.617
649.4263, 2027.982
649.9084, 2028.623
650.3906, 2027.837
650.8727, 2024.925
651.3548, 2022.425
651.8369, 2021.157
652.3190, 2020.795
652.8011, 2021.547
653.2833, 2023.420
653.7654, 2023.980
654.2475, 2020.948
654.7296, 2017.258
655.2117, 2016.160
655.6938, 2016.850
656.1760, 2016.293
656.6581, 2013.255
657.1402, 2009.570
657.6223, 2008.063
658.1044, 2009.309
658.5865, 2009.261
659.0687, 2006.065
659.5508, 2003.653
660.0329, 2003.981
660.5150, 2005.097
660.9971, 2004.425
661.4792, 2001.515
661.9614, 1998.750
662.4435, 1998.921
662.9256, 2000.406
663.4077, 1999.141
663.8898, 1995.017
664.3719, 1990.925
664.8541, 1988.101
665.3362, 1986.107
665.8183, 1984.276
666.3004, 1982.776
666.7825, 1980.823
667.2646, 1977.129
667.7468, 1974.305
668.2289, 1974.291
668.7110, 1975.826
669.1931, 1976.797
669.6752, 1976.522
670.1573, 1975.987
670.6395, 1977.020
671.1216, 1979.335
671.6037, 1978.543
672.0858, 1973.586
672.5679, 1968.777
673.0500, 1965.857
673.5322, 1964.350
674.0143, 1963.610
674.4964, 1963.745
674.9785, 1963.703
675.4606, 1963.500
675.9427, 1962.711
676.4249, 1960.354
676.9070, 1957.155
677.3891, 1954.900
677.8712, 1954.291
678.3533, 1954.683
678.8354, 1955.316
679.3176, 1956.295
679.7997, 1956.461
680.2818, 1955.715
680.7639, 1954.264
681.2460, 1951.286
681.7281, 1948.203
682.2103, 1946.765
682.6924, 1947.238
683.1745, 1947.867
683.6566, 1948.096
684.1387, 1947.727
684.6208, 1946.188
685.1030, 1943.743
685.5851, 1941.453
686.0672, 1939.754
686.5493, 1938.635
687.0314, 1938.246
687.5135, 1938.971
687.9957, 1938.365
688.4778, 1933.784
688.9599, 1930.958
689.4420, 1933.005
689.9241, 1936.629
690.4063, 1938.265
690.8884, 1937.207
691.3705, 1934.814
691.8526, 1930.984
692.3347, 1926.932
692.8168, 1925.155
693.2990, 1925.563
693.7811, 1926.304
694.2632, 1926.633
694.7453, 1927.187
695.2274, 1929.239
695.7095, 1933.480
696.1917, 1934.799
696.6738, 1930.687
697.1559, 1926.952
697.6380, 1925.899
698.1201, 1925.937
698.6022, 1925.078
699.0844, 1923.038
699.5665, 1921.047
700.0486, 1920.261
700.5307, 1920.207
701.0128, 1919.760
701.4949, 1918.927
701.9771, 1917.389
702.4592, 1914.688
702.9413, 1911.944
703.4234, 1910.552
703.9055, 1910.588
704.3876, 1910.611
704.8698, 1910.781
705.3519, 1910.703
705.8340, 1910.044
706.3161, 1909.161
706.7982, 1908.748
707.2803, 1908.689
707.7625, 1907.732
708.2446, 1904.279
708.7267, 1899.943
709.2088, 1899.881
709.6909, 1904.571
710.1730, 1908.523
710.6552, 1910.806
711.1373, 1911.478
711.6194, 1909.709
712.1015, 1906.062
712.5836, 1903.862
713.0657, 1904.277
713.5479, 1904.967
714.0300, 1905.517
714.5121, 1905.717
714.9942, 1905.216
715.4763, 1904.100
715.9584, 1902.886
716.4406, 1901.944
716.9227, 1901.036
717.4048, 1899.277
717.8869, 1896.414
718.3690, 1895.298
718.8511, 1897.521
719.3333, 1899.465
719.8154, 1897.415
720.2975, 1893.249
720.7796, 1891.822
721.2617, 1895.070
721.7438, 1897.760
722.2260, 1897.939
722.7081, 1896.900
723.1902, 1895.637
723.6723, 1894.291
724.1544, 1892.599
724.6365, 1890.389
725.1187, 1888.372
725.6008, 1888.015
726.0829, 1889.477
726.5650, 1890.515
727.0471, 1891.323
727.5292, 1891.082
728.0114, 1888.539
728.4935, 1885.041
728.9756, 1882.762
729.4577, 1882.049
729.9398, 1881.260
730.4219, 1879.439
730.9041, 1877.794
731.3862, 1877.543
731.8683, 1878.175
732.3504, 1878.383
732.8325, 1877.741
733.3146, 1877.121
733.7968, 1877.957
734.2789, 1880.054
734.7610, 1880.006
735.2431, 1876.943
735.7252, 1874.394
736.2073, 1873.814
736.6895, 1874.133
737.1716, 1874.380
737.6537, 1874.534
738.1358, 1873.895
738.6179, 1871.712
739.1000, 1869.352
739.5822, 1867.184
740.0643, 1865.455
740.5464, 1864.320
741.0285, 1863.894
741.5106, 1864.674
741.9927, 1867.532
742.4749, 1871.252
742.9570, 1871.387
743.4391, 1867.307
743.9212, 1863.425
744.4033, 1860.135
744.8854, 1857.914
745.3676, 1857.806
745.8497, 1859.142
746.3318, 1859.752
746.8139, 1859.458
747.2960, 1858.458
747.7781, 1855.746
748.2603, 1853.154
748.7424, 1853.041
749.2245, 1854.714
749.7066, 1855.522
750.1887, 1854.058
750.6708, 1851.572
751.1530, 1849.628
751.6351, 1848.266
752.1172, 1849.035
752.5993, 1853.065
753.0814, 1855.584
753.5635, 1853.449
754.0457, 1848.635
754.5278, 1844.713
755.0099, 1841.432
755.4920, 1839.902
755.9741, 1842.099
756.4562, 1844.132
756.9384, 1843.624
757.4205, 1841.659
757.9026, 1839.885
758.3847, 1838.772
758.8668, 1838.026
759.3489, 1837.169
759.8311, 1836.561
760.3132, 1837.961
760.7953, 1841.446
761.2774, 1843.014
761.7595, 1841.234
762.2416, 1837.709
762.7238, 1833.221
763.2059, 1827.905
763.6880, 1826.274
764.1701, 1832.155
764.6522, 1836.191
765.1343, 1835.600
765.6165, 1833.515
766.0986, 1832.277
766.5807, 1831.883
767.0628, 1831.304
767.5449, 1829.995
768.0270, 1828.514
768.5092, 1827.838
768.9913, 1827.570
769.4734, 1826.027
769.9555, 1823.011
770.4376, 1820.433
770.9197, 1819.478
771.4019, 1819.543
771.8840, 1819.378
772.3661, 1819.336
772.8482, 1818.028
773.3303, 1812.961
773.8124, 1809.541
774.2946, 1810.727
774.7767, 1813.962
775.2588, 1816.547
775.7409, 1817.921
776.2230, 1817.806
776.7051, 1814.582
777.1873, 1810.842
777.6694, 1810.018
778.1515, 1811.353
778.6336, 1812.523
779.1157, 1812.879
779.5978, 1812.768
780.0800, 1812.464
780.5621, 1812.022
781.0442, 1811.793
781.5263, 1811.871
782.0084, 1811.944
782.4905, 1812.107
782.9727, 1812.103
783.4548, 1811.674
783.9369, 1810.971
784.4190, 1810.347
784.9011, 1809.813
785.3832, 1809.507
785.8654, 1810.378
786.3475, 1810.872
786.8296, 1808.567
787.3117, 1804.364
787.7938, 1801.225
788.2759, 1800.462
788.7581, 1801.055
789.2402, 1802.036
789.7223, 1803.330
790.2044, 1802.849
790.6865, 1799.967
791.1686, 1797.995
791.6508, 1798.744
792.1329, 1800.315
792.6150, 1799.994
793.0971, 1797.763
793.5792, 1796.882
794.0613, 1799.783
794.5435, 1801.248
795.0256, 1797.772
795.5077, 1793.406
795.9898, 1792.416
796.4719, 1794.562
796.9540, 1796.884
797.4362, 1797.875
797.9183, 1797.771
798.4004, 1796.313
798.8825, 1793.969
799.3646, 1792.936
799.8467, 1793.507
800.3289, 1793.360
800.8110, 1790.871
801.2931, 1787.399
801.7752, 1785.957
802.2573, 1787.326
802.7394, 1788.076
803.2216, 1787.446
803.7037, 1787.056
804.1858, 1788.307
804.6679, 1789.427
805.1500, 1787.848
805.6321, 1783.592
806.1143, 1780.335
806.5964, 1780.496
807.0785, 1781.715
807.5606, 1782.571
808.0427, 1782.882
808.5248, 1781.830
809.0070, 1779.581
809.4891, 1778.141
809.9712, 1779.187
810.4533, 1781.533
810.9354, 1781.613
811.4175, 1778.944
811.8997, 1778.095
812.3818, 1780.263
812.8639, 1782.642
813.3460, 1783.721
813.8281, 1783.910
814.3102, 1784.180
814.7924, 1784.734
815.2745, 1784.493
815.7566, 1783.083
816.2387, 1781.047
816.7208, 1777.271
817.2029, 1773.726
817.6851, 1773.836
818.1672, 1777.619
818.6493, 1780.599
819.1314, 1778.845
819.6135, 1775.088
820.0956, 1774.185
820.5778, 1775.386
821.0599, 1774.855
821.5420, 1771.765
822.0241, 1769.153
822.5062, 1769.437
822.9883, 1771.625
823.4705, 1772.585
823.9526, 1772.461
824.4347, 1770.682
824.9168, 1765.129
825.3989, 1760.498
825.8810, 1759.060
826.3632, 1759.392
826.8453, 1759.635
827.3274, 1759.550
827.8095, 1759.913
828.2916, 1762.341
828.7737, 1764.006
829.2559, 1761.905
829.7380, 1758.046
830.2201, 1755.464
830.7022, 1754.833
831.1843, 1755.727
831.6664, 1758.237
832.1486, 1761.062
832.6307, 1760.735
833.1128, 1757.456
833.5949, 1755.989
834.0770, 1757.330
834.5591, 1758.639
835.0413, 1758.175
835.5233, 1756.436
836.0054, 1754.466
836.4875, 1751.547
836.9697, 1750.418
837.4518, 1752.928
837.9339, 1754.827
838.4160, 1754.323
838.8981, 1752.742
839.3802, 1751.709
839.8624, 1751.277
840.3445, 1750.084
840.8266, 1746.182
841.3087, 1742.773
841.7908, 1743.433
842.2729, 1746.064
842.7551, 1747.044
843.2372, 1746.093
843.7193, 1745.164
844.2014, 1745.521
844.6835, 1746.148
845.1656, 1744.734
845.6478, 1741.248
846.1299, 1739.542
846.6120, 1740.305
847.0941, 1740.581
847.5762, 1738.904
848.0583, 1736.309
848.5405, 1734.132
849.0226, 1732.355
849.5047, 1731.212
849.9868, 1731.332
850.4689, 1731.210
850.9510, 1730.246
851.4332, 1729.119
851.9153, 1728.271
852.3974, 1727.774
852.8795, 1727.726
853.3616, 1728.390
853.8438, 1728.781
854.3259, 1727.649
854.8080, 1726.056
855.2901, 1725.820
855.7722, 1726.628
856.2543, 1726.699
856.7365, 1725.334
857.2186, 1723.739
857.7007, 1723.462
858.1828, 1724.296
858.6649, 1724.788
859.1470, 1724.992
859.6292, 1724.489
860.1113, 1722.993
860.5934, 1721.159
861.0755, 1719.502
861.5576, 1717.994
862.0397, 1716.432
862.5219, 1713.832
863.0040, 1712.840
863.4861, 1715.883
863.9682, 1718.103
864.4503, 1716.239
864.9324, 1712.307
865.4146, 1708.924
865.8967, 1706.729
866.3788, 1706.365
866.8609, 1710.248
867.3430, 1714.280
867.8251, 1713.620
868.3073, 1710.433
868.7894, 1709.190
869.2715, 1710.487
869.7536, 1712.016
870.2357, 1712.220
870.7178, 1711.430
871.2000, 1709.867
871.6821, 1707.599
872.1642, 1707.391
872.6463, 1710.031
873.1284, 1711.391
873.6105, 1709.075
874.0927, 1705.197
874.5748, 1702.891
875.0569, 1702.237
875.5390, 1702.386
876.0211, 1704.944
876.5032, 1706.175
876.9854, 1704.493
877.4675, 1702.193
877.9496, 1700.801
878.4317, 1700.257
878.9138, 1700.185
879.3959, 1700.911
879.8781, 1700.836
880.3602, 1698.221
880.8423, 1695.168
881.3244, 1693.772
881.8065, 1693.586
882.2886, 1693.325
882.7708, 1692.593
883.2529, 1691.872
883.7350, 1691.789
884.2171, 1691.873
884.6992, 1690.659
885.1813, 1688.400
885.6635, 1687.417
886.1456, 1688.232
886.6277, 1688.803
887.1098, 1687.581
887.5919, 1685.430
888.0740, 1684.706
888.5562, 1686.023
889.0383, 1686.435
889.5204, 1685.712
890.0025, 1684.439
890.4846, 1681.711
890.9667, 1679.334
891.4489, 1679.536
891.9310, 1682.127
892.4131, 1684.427
892.8952, 1687.577
893.3773, 1688.355
893.8594, 1683.017
894.3416, 1677.315
894.8237, 1676.483
895.3058, 1679.153
895.7879, 1681.452
896.2700, 1682.075
896.7521, 1681.512
897.2343, 1679.415
897.7164, 1676.860
898.1985, 1675.493
898.6806, 1674.963
899.1627, 1674.026
899.6448, 1672.434
900.1270, 1670.953
900.6091, 1670.221
901.0912, 1670.052
901.5733, 1670.182
902.0554, 1670.627
902.5375, 1670.082
903.0197, 1668.131
903.5018, 1666.672
903.9839, 1666.875
904.4660, 1667.685
904.9481, 1667.327
905.4302, 1665.591
905.9124, 1664.701
906.3945, 1665.273
906.8766, 1665.791
907.3587, 1666.442
907.8408, 1666.571
908.3229, 1665.313
908.8051, 1663.214
909.2872, 1661.634
909.7693, 1660.784
910.2514, 1660.634
910.7335, 1661.831
911.2156, 1663.076
911.6978, 1663.561
912.1799, 1663.387
912.6620, 1662.669
913.1441, 1661.528
913.6262, 1660.330
914.1083, 1659.147
914.5905, 1658.334
915.0726, 1659.052
915.5547, 1660.344
916.0368, 1659.281
916.5189, 1656.020
917.0010, 1653.820
917.4832, 1654.359
917.9653, 1655.859
918.4474, 1655.658
918.9295, 1653.963
919.4116, 1652.888
919.8937, 1652.427
920.3759, 1652.813
920.8580, 1654.436
921.3401, 1655.997
921.8222, 1656.543
922.3043, 1656.123
922.7864, 1654.857
923.2686, 1651.757
923.7507, 1649.963
924.2328, 1651.033
924.7149, 1651.546
925.1970, 1649.606
925.6791, 1647.071
926.1613, 1646.160
926.6434, 1646.824
927.1255, 1647.084
927.6076, 1646.151
928.0897, 1645.181
928.5718, 1644.359
929.0540, 1643.898
929.5361, 1643.931
930.0182, 1644.492
930.5003, 1645.862
930.9824, 1648.092
931.4645, 1649.918
931.9467, 1650.469
932.4288, 1649.971
932.9109, 1648.049
933.3930, 1645.458
933.8751, 1644.012
934.3572, 1643.892
934.8394, 1643.961
935.3215, 1643.484
935.8036, 1642.787
936.2857, 1642.644
936.7678, 1642.868
937.2499, 1642.037
937.7321, 1640.082
938.2142, 1637.711
938.6963, 1635.045
939.1784, 1632.852
939.6605, 1632.101
940.1426, 1632.505
940.6248, 1632.119
941.1069, 1630.187
941.5890, 1629.983
942.0711, 1633.337
942.5532, 1635.743
943.0353, 1634.061
943.5175, 1630.659
943.9996, 1629.380
944.4817, 1630.384
944.9638, 1631.262
945.4459, 1632.553
945.9280, 1632.849
946.4102, 1630.915
946.8923, 1628.703
947.3744, 1627.334
947.8565, 1626.884
948.3386, 1627.354
948.8207, 1628.853
949.3029, 1630.525
949.7850, 1633.109
950.2671, 1634.553
950.7492, 1632.023
951.2313, 1628.127
951.7134, 1627.242
952.1956, 1629.131
952.6777, 1629.319
953.1598, 1624.705
953.6419, 1620.282
954.1240, 1623.311
954.6061, 1629.381
955.0883, 1629.917
955.5704, 1625.870
956.0525, 1622.792
956.5346, 1622.418
957.0167, 1622.554
957.4988, 1621.105
957.9810, 1618.866
958.4631, 1617.789
958.9452, 1617.838
959.4273, 1618.784
959.9094, 1620.695
960.3915, 1621.700
960.8737, 1620.765
961.3558, 1619.030
961.8379, 1618.232
962.3200, 1618.291
962.8021, 1616.798
963.2842, 1612.790
963.7664, 1610.400
964.2485, 1611.189
964.7306, 1612.054
965.2127, 1610.615
965.6948, 1608.120
966.1769, 1607.579
966.6591, 1609.825
967.1412, 1610.726
967.6233, 1608.214
968.1054, 1607.154
968.5875, 1609.972
969.0696, 1613.430
969.5518, 1615.266
970.0339, 1615.603
970.5160, 1615.232
970.9981, 1614.279
971.4802, 1612.586
971.9623, 1608.671
972.4445, 1605.585
972.9266, 1605.519
973.4087, 1607.007
973.8908, 1608.760
974.3729, 1610.219
974.8550, 1610.274
975.3372, 1607.783
975.8193, 1605.514
976.3014, 1606.500
976.7835, 1607.967
977.2656, 1606.579
977.7477, 1603.165
978.2299, 1599.653
978.7120, 1596.743
979.1941, 1594.743
979.6762, 1593.980
980.1583, 1594.062
980.6404, 1594.629
981.1226, 1595.537
981.6047, 1596.780
982.0868, 1598.095
982.5689, 1598.015
983.0510, 1595.990
983.5331, 1593.863
984.0153, 1593.753
984.4974, 1595.019
984.9795, 1595.926
985.4616, 1596.408
985.9437, 1594.986
986.4258, 1591.295
986.9080, 1589.986
987.3901, 1593.983
987.8722, 1599.643
988.3543, 1601.273
988.8364, 1599.018
989.3185, 1596.604
989.8007, 1593.816
990.2828, 1591.897
990.7649, 1591.249
991.2470, 1591.088
991.7291, 1591.008
992.2112, 1590.978
992.6934, 1591.016
993.1755, 1591.312
993.6576, 1590.559
994.1397, 1587.032
994.6218, 1585.649
995.1039, 1589.394
995.5861, 1593.605
996.0682, 1595.383
996.5503, 1594.856
997.0324, 1591.922
997.5145, 1585.009
997.9966, 1580.509
998.4788, 1579.297
998.9609, 1579.926
999.4430, 1583.971
999.9251, 1587.976
1000.407, 1588.179
1000.889, 1585.659
1001.371, 1584.861
1001.854, 1587.691
1002.336, 1589.043
1002.818, 1585.710
1003.300, 1582.316
1003.782, 1582.077
1004.264, 1582.910
1004.746, 1582.002
1005.228, 1579.514
1005.711, 1577.732
1006.193, 1577.687
1006.675, 1577.980
1007.157, 1577.793
1007.639, 1577.566
1008.121, 1577.415
1008.603, 1577.637
1009.085, 1579.168
1009.567, 1581.725
1010.050, 1583.298
1010.532, 1582.655
1011.014, 1580.945
1011.496, 1578.333
1011.978, 1575.945
1012.460, 1575.973
1012.942, 1577.499
1013.424, 1578.018
1013.906, 1576.951
1014.389, 1575.459
1014.871, 1574.302
1015.353, 1573.434
1015.835, 1572.701
1016.317, 1572.240
1016.799, 1572.752
1017.281, 1573.939
1017.763, 1574.353
1018.246, 1573.552
1018.728, 1572.070
1019.210, 1570.118
1019.692, 1568.498
1020.174, 1569.770
1020.656, 1573.042
1021.138, 1573.228
1021.620, 1570.239
1022.102, 1568.501
1022.585, 1569.718
1023.067, 1571.856
1023.549, 1572.871
1024.031, 1573.054
1024.513, 1573.809
1024.995, 1575.060
1025.477, 1572.873
1025.959, 1566.507
1026.442, 1563.168
1026.924, 1566.391
1027.406, 1570.974
1027.888, 1570.800
1028.370, 1566.911
1028.852, 1564.839
1029.334, 1564.729
1029.816, 1565.621
1030.298, 1567.870
1030.781, 1569.109
1031.263, 1567.968
1031.745, 1566.150
1032.227, 1565.851
1032.709, 1564.813
1033.191, 1564.036
1033.673, 1564.282
1034.155, 1563.276
1034.638, 1564.418
1035.120, 1565.141
1035.602, 1564.014
1036.084, 1562.313
1036.566, 1561.771
1037.048, 1562.285
1037.530, 1561.982
1038.012, 1559.989
1038.495, 1559.237
1038.977, 1560.852
1039.459, 1562.291
1039.941, 1562.719
1040.423, 1562.116
1040.905, 1559.779
1041.387, 1555.881
1041.869, 1554.461
1042.351, 1558.086
1042.833, 1559.873
1043.316, 1557.932
1043.798, 1555.980
1044.280, 1555.442
1044.762, 1555.767
1045.244, 1556.863
1045.726, 1558.572
1046.208, 1558.559
1046.690, 1555.029
1047.173, 1552.384
1047.655, 1551.245
1048.137, 1550.733
1048.619, 1550.490
1049.101, 1550.645
1049.583, 1551.716
1050.065, 1553.543
1050.547, 1554.501
1051.030, 1554.244
1051.512, 1553.369
1051.994, 1551.139
1052.476, 1549.258
1052.958, 1548.651
1053.440, 1548.805
1053.922, 1549.527
1054.404, 1550.534
1054.886, 1550.363
1055.369, 1547.911
1055.851, 1545.789
1056.333, 1544.320
1056.815, 1543.616
1057.297, 1544.312
1057.779, 1545.437
1058.261, 1545.913
1058.743, 1545.725
1059.225, 1545.407
1059.708, 1545.179
1060.190, 1544.634
1060.672, 1543.236
1061.154, 1541.980
1061.636, 1541.596
1062.118, 1541.549
1062.600, 1540.986
1063.082, 1540.118
1063.565, 1540.256
1064.047, 1542.479
1064.529, 1543.527
1065.011, 1541.177
1065.493, 1538.503
1065.975, 1537.070
1066.457, 1536.410
1066.939, 1536.031
1067.422, 1535.840
1067.904, 1535.953
1068.386, 1536.657
1068.868, 1536.542
1069.350, 1533.401
1069.832, 1531.168
1070.314, 1533.289
1070.796, 1536.641
1071.278, 1538.212
1071.760, 1537.889
1072.243, 1536.118
1072.725, 1532.642
1073.207, 1530.620
1073.689, 1532.877
1074.171, 1535.246
1074.653, 1535.394
1075.135, 1534.428
1075.617, 1532.869
1076.100, 1531.372
1076.582, 1531.450
1077.064, 1533.604
1077.546, 1534.938
1078.028, 1533.467
1078.510, 1531.698
1078.992, 1531.192
1079.474, 1530.869
1079.957, 1529.361
1080.439, 1527.307
1080.921, 1526.494
1081.403, 1527.255
1081.885, 1527.119
1082.367, 1523.446
1082.849, 1520.624
1083.331, 1521.336
1083.813, 1523.419
1084.296, 1525.947
1084.778, 1528.048
1085.260, 1528.535
1085.742, 1527.257
1086.224, 1525.254
1086.706, 1522.011
1087.188, 1519.593
1087.670, 1519.599
1088.152, 1520.118
1088.635, 1519.811
1089.117, 1518.988
1089.599, 1518.113
1090.081, 1517.331
1090.563, 1516.922
1091.045, 1517.219
1091.527, 1517.395
1092.009, 1517.062
1092.491, 1516.549
1092.974, 1516.128
1093.456, 1515.611
1093.938, 1514.466
1094.420, 1512.953
1094.902, 1512.288
1095.384, 1513.149
1095.866, 1513.677
1096.348, 1512.316
1096.831, 1511.466
1097.313, 1513.262
1097.795, 1515.520
1098.277, 1515.610
1098.759, 1514.228
1099.241, 1514.187
1099.723, 1516.552
1100.205, 1517.248
1100.688, 1513.453
1101.170, 1509.816
1101.652, 1508.205
1102.134, 1507.554
1102.616, 1507.404
1103.098, 1507.368
1103.580, 1506.535
1104.062, 1504.696
1104.544, 1504.236
1105.026, 1507.664
1105.509, 1509.776
1105.991, 1508.093
1106.473, 1505.740
1106.955, 1504.621
1107.437, 1504.123
1107.919, 1503.115
1108.401, 1501.559
1108.883, 1500.427
1109.366, 1499.564
1109.848, 1499.579
1110.330, 1501.875
1110.812, 1503.496
1111.294, 1502.226
1111.776, 1500.222
1112.258, 1500.275
1112.740, 1501.908
1113.223, 1501.959
1113.705, 1499.510
1114.187, 1497.122
1114.669, 1494.112
1115.151, 1492.280
1115.633, 1493.666
1116.115, 1495.032
1116.597, 1492.983
1117.079, 1489.082
1117.562, 1487.664
1118.044, 1489.459
1118.526, 1490.647
1119.008, 1491.476
1119.490, 1491.203
1119.972, 1488.762
1120.454, 1486.497
1120.936, 1485.750
1121.418, 1486.085
1121.901, 1486.998
1122.383, 1488.517
1122.865, 1488.816
1123.347, 1486.853
1123.829, 1486.471
1124.311, 1488.788
1124.793, 1490.997
1125.275, 1491.762
1125.758, 1492.100
1126.240, 1493.504
1126.722, 1495.406
1127.204, 1494.150
1127.686, 1495.053
1128.168, 1496.438
1128.650, 1493.661
1129.132, 1497.397
1129.615, 1495.018
1130.097, 1490.951
1130.579, 1488.514
1131.061, 1487.530
1131.543, 1487.934
1132.025, 1489.767
1132.507, 1489.630
1132.989, 1487.341
1133.471, 1486.249
1133.953, 1487.138
1134.436, 1487.564
1134.918, 1486.023
1135.400, 1484.168
1135.882, 1484.711
1136.364, 1486.705
1136.846, 1485.170
1137.328, 1480.790
1137.810, 1480.163
1138.293, 1483.668
1138.775, 1486.520
1139.257, 1486.872
1139.739, 1485.641
1140.221, 1483.336
1140.703, 1480.912
1141.185, 1480.247
1141.667, 1481.002
1142.150, 1482.688
1142.632, 1484.870
1143.114, 1486.072
1143.596, 1486.038
1144.078, 1485.665
1144.560, 1485.482
1145.042, 1485.176
1145.524, 1484.142
1146.006, 1482.945
1146.489, 1482.844
1146.971, 1483.099
1147.453, 1482.119
1147.935, 1480.010
1148.417, 1477.627
1148.899, 1475.338
1149.381, 1473.783
1149.863, 1473.392
1150.345, 1473.991
1150.828, 1476.559
1151.310, 1479.081
1151.792, 1478.780
1152.274, 1476.821
1152.756, 1475.429
1153.238, 1475.026
1153.720, 1472.717
1154.202, 1477.392
1154.685, 1479.919
1155.167, 1480.414
1155.649, 1472.789
1156.131, 1475.649
1156.613, 1474.307
1157.095, 1472.793
1157.577, 1477.129
1158.059, 1470.685
1158.542, 1474.928
1159.024, 1474.905
1159.506, 1476.835
1159.988, 1474.536
1160.470, 1473.543
1160.952, 1476.780
1161.434, 1477.675
1161.916, 1474.890
1162.398, 1476.944
1162.880, 1470.352
1163.363, 1471.346
1163.845, 1475.614
1164.327, 1473.042
1164.809, 1475.173
1165.291, 1475.512
1165.773, 1467.711
1166.255, 1474.067
1166.737, 1474.301
1167.220, 1468.247
1167.702, 1474.119
1168.184, 1468.932
1168.666, 1467.693
1169.148, 1469.424
1169.630, 1468.058
1170.112, 1471.575
1170.594, 1470.388
1171.077, 1468.781
1171.559, 1469.008
1172.041, 1464.038
1172.523, 1468.709
1173.005, 1466.795
1173.487, 1468.154
1173.969, 1466.139
1174.451, 1467.684
1174.933, 1466.958
1175.416, 1463.248
1175.898, 1461.218
1176.380, 1464.347
1176.862, 1468.861
1177.344, 1469.290
1177.826, 1466.956
1178.308, 1464.005
1178.790, 1461.073
1179.272, 1459.953
1179.755, 1460.448
1180.237, 1460.886
1180.719, 1460.660
1181.201, 1460.389
1181.683, 1460.640
1182.165, 1460.844
1182.647, 1459.957
1183.129, 1459.154
1183.612, 1460.231
1184.094, 1462.130
1184.576, 1463.124
1185.058, 1462.991
1185.540, 1462.036
1186.022, 1460.014
1186.504, 1458.996
1186.986, 1461.267
1187.469, 1462.991
1187.951, 1461.570
1188.433, 1459.537
1188.915, 1458.680
1189.397, 1458.864
1189.879, 1460.153
1190.361, 1462.491
1190.843, 1462.782
1191.325, 1459.270
1191.807, 1456.067
1192.290, 1451.634
1192.772, 1450.251
1193.254, 1455.706
1193.736, 1461.564
1194.218, 1462.192
1194.700, 1459.087
1195.182, 1455.802
1195.664, 1452.162
1196.147, 1450.918
1196.629, 1452.808
1197.111, 1452.726
1197.593, 1449.464
1198.075, 1447.205
1198.557, 1448.107
1199.039, 1449.537
1199.521, 1448.391
1200.004, 1449.273
1200.486, 1449.659
1200.968, 1448.958
1201.450, 1449.742
1201.932, 1448.816
1202.414, 1446.898
1202.896, 1444.451
1203.378, 1443.246
1203.860, 1444.294
1204.343, 1445.428
1204.825, 1444.154
1205.307, 1441.830
1205.789, 1439.302
1206.271, 1437.571
1206.753, 1439.175
1207.235, 1442.489
1207.717, 1443.334
1208.199, 1441.354
1208.682, 1440.687
1209.164, 1443.995
1209.646, 1446.207
1210.128, 1444.039
1210.610, 1440.959
1211.092, 1438.109
1211.574, 1436.112
1212.056, 1435.745
1212.539, 1436.549
1213.021, 1437.756
1213.503, 1439.371
1213.985, 1440.131
1214.467, 1439.077
1214.949, 1438.658
1215.431, 1439.592
1215.913, 1440.180
1216.396, 1439.844
1216.878, 1438.813
1217.360, 1436.984
1217.842, 1434.948
1218.324, 1434.277
1218.806, 1434.981
1219.288, 1436.361
1219.770, 1438.494
1220.252, 1439.928
1220.734, 1440.456
1221.217, 1438.097
1221.699, 1431.891
1222.181, 1426.965
1222.663, 1428.809
1223.145, 1433.694
1223.627, 1434.959
1224.109, 1433.763
1224.591, 1432.301
1225.074, 1430.891
1225.556, 1430.203
1226.038, 1430.064
1226.520, 1429.286
1227.002, 1427.419
1227.484, 1425.819
1227.966, 1425.756
1228.448, 1425.909
1228.931, 1424.815
1229.413, 1424.063
1229.895, 1425.944
1230.377, 1428.506
1230.859, 1428.379
1231.341, 1429.696
1231.823, 1430.647
1232.305, 1429.425
1232.787, 1431.070
1233.270, 1428.780
1233.752, 1426.534
1234.234, 1424.516
1234.716, 1423.473
1235.198, 1423.923
1235.680, 1425.448
1236.162, 1428.068
1236.644, 1431.066
1237.126, 1430.596
1237.609, 1426.151
1238.091, 1423.394
1238.573, 1422.483
1239.055, 1423.207
1239.537, 1425.532
1240.019, 1426.355
1240.501, 1423.912
1240.983, 1421.285
1241.466, 1422.724
1241.948, 1425.279
1242.430, 1422.652
1242.912, 1417.235
1243.394, 1413.291
1243.876, 1411.109
1244.358, 1410.936
1244.840, 1412.247
1245.323, 1412.856
1245.805, 1411.712
1246.287, 1411.581
1246.769, 1415.907
1247.251, 1419.333
1247.733, 1417.427
1248.215, 1414.895
1248.697, 1416.091
1249.179, 1418.569
1249.661, 1418.566
1250.144, 1416.212
1250.626, 1413.870
1251.108, 1410.968
1251.590, 1410.366
1252.072, 1413.563
1252.554, 1415.665
1253.036, 1415.724
1253.518, 1414.560
1254.001, 1412.177
1254.483, 1410.142
1254.965, 1410.624
1255.447, 1408.795
1255.929, 1407.916
1256.411, 1407.813
1256.893, 1406.462
1257.375, 1407.052
1257.858, 1407.919
1258.340, 1408.625
1258.822, 1408.921
1259.304, 1408.689
1259.786, 1407.820
1260.268, 1405.389
1260.750, 1403.744
1261.232, 1406.534
1261.714, 1410.095
1262.197, 1411.012
1262.679, 1409.871
1263.161, 1406.299
1263.643, 1401.953
1264.125, 1402.027
1264.607, 1408.325
1265.089, 1411.819
1265.571, 1408.539
1266.053, 1405.908
1266.536, 1404.910
1267.018, 1405.017
1267.500, 1406.937
1267.982, 1408.399
1268.464, 1406.867
1268.946, 1403.994
1269.428, 1404.055
1269.910, 1406.878
1270.393, 1407.937
1270.875, 1407.328
1271.357, 1408.121
1271.839, 1410.425
1272.321, 1410.800
1272.803, 1408.250
1273.285, 1405.878
1273.767, 1405.958
1274.250, 1406.930
1274.732, 1406.977
1275.214, 1406.900
1275.696, 1408.022
1276.178, 1409.373
1276.660, 1409.650
1277.142, 1409.044
1277.624, 1408.140
1278.106, 1407.085
1278.589, 1405.941
1279.071, 1404.334
1279.553, 1403.605
1280.035, 1404.423
1280.517, 1405.600
1280.999, 1407.594
1281.481, 1408.707
1281.963, 1407.588
1282.445, 1405.587
1282.928, 1404.472
1283.410, 1404.116
1283.892, 1404.230
1284.374, 1404.813
1284.856, 1403.028
1285.338, 1399.181
1285.820, 1398.328
1286.302, 1401.070
1286.785, 1403.394
1287.267, 1403.527
1287.749, 1403.741
1288.231, 1405.649
##END=



