##NAMES=Senarmontite
##RRUFFID=R060075
##IDEAL CHEMISTRY=Sb^3+^_2_O_3_
##LOCALITY=Djebel Haminate mine, Constantine, Algeria
##OWNER=RRUFF
##SOURCE=University of Arizona Mineral Museum
##DESCRIPTION=Brown octahedra
##STATUS=The identification of this mineral has been confirmed by X-ray diffraction and chemical analysis
##URL=rruff.info/R060075
##MEASURED CHEMISTRY=Sb_2.00_O_3_
93.88477, 131.0625
94.36688, 128.1104
94.84900, 128.2508
95.33112, 131.4856
95.81323, 137.8244
96.29535, 148.6861
96.77747, 162.9907
97.25958, 175.8921
97.74170, 185.9700
98.22382, 196.8937
98.70593, 214.3589
99.18805, 238.3761
99.67017, 269.4632
100.1523, 307.2964
100.6344, 351.5825
101.1165, 405.9913
101.5986, 474.0566
102.0807, 551.9901
102.5629, 620.7417
103.0450, 680.5076
103.5271, 731.9423
104.0092, 773.6992
104.4913, 803.1909
104.9734, 831.2408
105.4556, 860.1041
105.9377, 889.5675
106.4198, 918.8431
106.9019, 946.2563
107.3840, 974.5192
107.8661, 1006.388
108.3483, 1043.360
108.8304, 1082.604
109.3125, 1123.128
109.7946, 1163.929
110.2767, 1209.652
110.7588, 1261.251
111.2410, 1317.935
111.7231, 1378.540
112.2052, 1445.096
112.6873, 1514.553
113.1694, 1585.266
113.6515, 1650.706
114.1337, 1728.906
114.6158, 1818.879
115.0979, 1922.253
115.5800, 2046.201
116.0621, 2179.081
116.5442, 2341.046
117.0264, 2540.843
117.5085, 2760.870
117.9906, 3043.717
118.4727, 3413.790
118.9548, 3865.206
119.4369, 4356.521
119.9191, 5018.118
120.4012, 5664.063
120.8833, 6102.546
121.3654, 6276.144
121.8475, 6222.911
122.3296, 5895.959
122.8118, 5293.470
123.2939, 4652.735
123.7760, 4078.232
124.2581, 3579.710
124.7402, 3163.900
125.2223, 2867.847
125.7045, 2650.363
126.1866, 2474.730
126.6687, 2340.958
127.1508, 2235.570
127.6329, 2151.424
128.1150, 2086.748
128.5972, 2032.664
129.0793, 1985.553
129.5614, 1946.037
130.0435, 1916.641
130.5256, 1898.621
131.0077, 1888.349
131.4899, 1882.028
131.9720, 1879.506
132.4541, 1877.903
132.9362, 1869.443
133.4183, 1852.498
133.9004, 1836.071
134.3826, 1819.441
134.8647, 1803.653
135.3468, 1791.439
135.8289, 1782.732
136.3110, 1776.833
136.7931, 1774.146
137.2753, 1774.779
137.7574, 1774.445
138.2395, 1771.831
138.7216, 1767.537
139.2037, 1765.871
139.6858, 1768.430
140.1680, 1769.498
140.6501, 1762.000
141.1322, 1743.100
141.6143, 1726.888
142.0964, 1719.543
142.5785, 1721.784
143.0607, 1708.499
143.5428, 1675.801
144.0249, 1632.332
144.5070, 1587.456
144.9891, 1540.039
145.4712, 1493.967
145.9534, 1451.124
146.4355, 1410.968
146.9176, 1373.510
147.3997, 1338.102
147.8818, 1305.423
148.3639, 1275.727
148.8461, 1247.258
149.3282, 1223.883
149.8103, 1207.590
150.2924, 1201.211
150.7745, 1195.867
151.2566, 1191.486
151.7388, 1188.096
152.2209, 1185.924
152.7030, 1186.367
153.1851, 1186.856
153.6672, 1186.377
154.1493, 1183.320
154.6315, 1181.417
155.1136, 1180.928
155.5957, 1181.745
156.0778, 1183.434
156.5599, 1185.504
157.0420, 1188.731
157.5242, 1193.549
158.0063, 1198.144
158.4884, 1206.211
158.9705, 1219.914
159.4526, 1238.388
159.9347, 1256.600
160.4169, 1269.270
160.8990, 1283.258
161.3811, 1303.501
161.8632, 1335.182
162.3453, 1369.492
162.8274, 1402.580
163.3096, 1434.761
163.7917, 1470.984
164.2738, 1513.000
164.7559, 1560.064
165.2380, 1611.445
165.7201, 1663.129
166.2023, 1722.024
166.6844, 1790.593
167.1665, 1868.876
167.6486, 1960.137
168.1307, 2056.339
168.6128, 2168.616
169.0950, 2311.556
169.5771, 2476.002
170.0592, 2683.640
170.5413, 2942.354
171.0234, 3251.604
171.5055, 3632.458
171.9877, 4117.530
172.4698, 4683.048
172.9519, 5286.843
173.4340, 5973.648
173.9161, 6658.732
174.3982, 7257.208
174.8804, 7763.548
175.3625, 8206.708
175.8446, 8581.220
176.3267, 8906.130
176.8088, 9223.308
177.2909, 9546.729
177.7731, 9878.465
178.2552, 10221.72
178.7373, 10579.95
179.2194, 10949.02
179.7015, 11319.62
180.1836, 11699.78
180.6658, 12110.54
181.1479, 12574.33
181.6300, 13081.24
182.1121, 13598.95
182.5942, 14114.86
183.0763, 14661.82
183.5585, 15270.03
184.0406, 15946.48
184.5227, 16712.44
185.0048, 17554.91
185.4869, 18495.20
185.9690, 19607.82
186.4511, 20867.99
186.9333, 22353.12
187.4154, 24151.64
187.8975, 26280.34
188.3796, 28762.08
188.8617, 31748.97
189.3438, 35159.45
189.8260, 38757.79
190.3081, 42783.96
190.7902, 46689.47
191.2723, 49714.47
191.7544, 51888.95
192.2365, 52401.87
192.7187, 50193.88
193.2008, 45474.09
193.6829, 40211.48
194.1650, 34405.72
194.6471, 28435.35
195.1292, 23337.74
195.6114, 19112.86
196.0935, 15591.47
196.5756, 12771.61
197.0577, 10647.53
197.5398, 8939.034
198.0219, 7647.541
198.5041, 6705.728
198.9862, 5964.343
199.4683, 5432.068
199.9504, 5032.703
200.4325, 4717.702
200.9146, 4489.861
201.3968, 4311.671
201.8789, 4182.679
202.3610, 4098.424
202.8431, 4039.892
203.3252, 4009.707
203.8073, 3998.360
204.2895, 3996.991
204.7716, 4004.524
205.2537, 4029.971
205.7358, 4075.054
206.2179, 4139.576
206.7000, 4222.850
207.1822, 4324.606
207.6643, 4443.649
208.1464, 4576.682
208.6285, 4721.406
209.1106, 4890.693
209.5927, 5085.669
210.0749, 5306.806
210.5570, 5561.535
211.0391, 5850.056
211.5212, 6167.516
212.0033, 6517.291
212.4854, 6907.862
212.9676, 7302.346
213.4497, 7704.264
213.9318, 8112.558
214.4139, 8474.987
214.8960, 8820.271
215.3781, 9079.829
215.8603, 9197.078
216.3424, 9177.206
216.8245, 8993.760
217.3066, 8614.580
217.7887, 8039.149
218.2708, 7431.731
218.7530, 6762.837
219.2351, 6090.294
219.7172, 5484.997
220.1993, 4938.957
220.6814, 4458.786
221.1635, 4056.124
221.6457, 3728.045
222.1278, 3438.502
222.6099, 3189.527
223.0920, 2971.738
223.5741, 2781.934
224.0562, 2619.907
224.5384, 2479.591
225.0205, 2359.421
225.5026, 2260.463
225.9847, 2176.542
226.4668, 2108.416
226.9489, 2055.124
227.4311, 2018.102
227.9132, 2000.254
228.3953, 1991.226
228.8774, 1989.543
229.3595, 1995.262
229.8416, 2006.000
230.3238, 2019.297
230.8059, 2040.371
231.2880, 2073.797
231.7701, 2117.983
232.2522, 2177.171
232.7343, 2248.026
233.2165, 2330.477
233.6986, 2443.833
234.1807, 2571.446
234.6628, 2746.604
235.1449, 2996.698
235.6270, 3304.075
236.1092, 3714.054
236.5913, 4251.192
237.0734, 4915.321
237.5555, 5632.279
238.0376, 6445.175
238.5197, 7266.493
239.0019, 8006.328
239.4840, 8657.471
239.9661, 9240.231
240.4482, 9743.428
240.9303, 10167.88
241.4124, 10612.09
241.8946, 11070.45
242.3767, 11554.24
242.8588, 12067.68
243.3409, 12613.59
243.8230, 13185.48
244.3051, 13781.26
244.7873, 14401.48
245.2694, 15066.87
245.7515, 15767.72
246.2336, 16524.22
246.7157, 17348.24
247.1978, 18221.49
247.6800, 19198.81
248.1621, 20251.00
248.6442, 21397.27
249.1263, 22739.02
249.6084, 24176.72
250.0905, 25941.88
250.5726, 28187.26
251.0548, 30849.71
251.5369, 34149.07
252.0190, 38124.69
252.5011, 42784.96
252.9832, 47883.96
253.4653, 53573.82
253.9475, 59543.83
254.4296, 65844.58
254.9117, 73485.30
255.3938, 79239.67
255.8759, 83013.48
256.3581, 84688.27
256.8402, 83165.62
257.3223, 77392.48
257.8044, 70056.61
258.2865, 62622.38
258.7686, 54780.83
259.2508, 47858.28
259.7329, 41998.66
260.2150, 37199.20
260.6971, 33028.34
261.1792, 29623.04
261.6613, 26676.88
262.1435, 24039.72
262.6256, 21775.57
263.1077, 19695.40
263.5898, 17809.24
264.0719, 16105.38
264.5540, 14556.60
265.0362, 13154.56
265.5183, 11895.31
266.0004, 10764.47
266.4825, 9777.878
266.9646, 8896.896
267.4467, 8134.860
267.9289, 7471.370
268.4110, 6894.355
268.8931, 6405.950
269.3752, 5973.187
269.8573, 5584.029
270.3394, 5237.461
270.8216, 4923.479
271.3037, 4646.129
271.7858, 4396.146
272.2679, 4164.341
272.7500, 3949.237
273.2321, 3754.984
273.7143, 3584.243
274.1964, 3437.193
274.6785, 3317.307
275.1606, 3227.234
275.6427, 3162.201
276.1248, 3114.754
276.6070, 3084.724
277.0891, 3073.200
277.5712, 3082.040
278.0533, 3111.328
278.5354, 3152.607
279.0175, 3205.573
279.4996, 3270.774
279.9818, 3350.426
280.4639, 3444.759
280.9460, 3544.535
281.4281, 3648.130
281.9102, 3755.016
282.3923, 3857.725
282.8745, 3953.835
283.3566, 4053.620
283.8387, 4167.928
284.3208, 4297.376
284.8029, 4437.260
285.2850, 4580.346
285.7672, 4733.647
286.2493, 4926.600
286.7314, 5159.011
287.2135, 5432.126
287.6956, 5742.312
288.1777, 6092.407
288.6599, 6496.644
289.1420, 6959.619
289.6241, 7481.568
290.1062, 8074.107
290.5883, 8742.625
291.0704, 9440.938
291.5526, 10173.08
292.0347, 10925.53
292.5168, 11608.61
292.9989, 12234.02
293.4810, 12754.15
293.9631, 13084.77
294.4453, 13227.96
294.9274, 13231.56
295.4095, 13097.25
295.8916, 12846.97
296.3737, 12555.24
296.8558, 12248.35
297.3380, 11878.45
297.8201, 11383.83
298.3022, 10762.18
298.7843, 10021.13
299.2664, 9087.934
299.7485, 8034.087
300.2307, 7025.946
300.7128, 6052.760
301.1949, 5175.559
301.6770, 4453.833
302.1591, 3872.872
302.6412, 3396.907
303.1234, 3026.797
303.6055, 2738.337
304.0876, 2494.230
304.5697, 2297.758
305.0518, 2134.893
305.5339, 2004.108
306.0161, 1899.600
306.4982, 1812.299
306.9803, 1742.776
307.4624, 1685.380
307.9445, 1635.561
308.4266, 1593.148
308.9088, 1559.421
309.3909, 1537.223
309.8730, 1523.589
310.3551, 1514.099
310.8372, 1508.125
311.3193, 1504.812
311.8015, 1502.528
312.2836, 1501.642
312.7657, 1505.571
313.2478, 1517.118
313.7299, 1534.008
314.2120, 1554.273
314.6942, 1577.737
315.1763, 1603.819
315.6584, 1634.986
316.1405, 1669.674
316.6226, 1700.039
317.1047, 1722.760
317.5869, 1740.220
318.0690, 1754.495
318.5511, 1768.170
319.0332, 1774.649
319.5153, 1770.838
319.9974, 1757.890
320.4796, 1738.631
320.9617, 1712.920
321.4438, 1681.818
321.9259, 1644.678
322.4080, 1599.012
322.8901, 1554.704
323.3723, 1511.662
323.8544, 1471.821
324.3365, 1437.801
324.8186, 1414.539
325.3007, 1393.475
325.7828, 1372.126
326.2650, 1350.059
326.7471, 1329.579
327.2292, 1309.251
327.7113, 1291.355
328.1934, 1278.004
328.6755, 1274.945
329.1577, 1270.518
329.6398, 1261.528
330.1219, 1247.966
330.6040, 1239.006
331.0861, 1237.059
331.5682, 1237.787
332.0504, 1238.450
332.5325, 1239.093
333.0146, 1239.544
333.4967, 1239.928
333.9788, 1240.114
334.4609, 1239.390
334.9431, 1236.711
335.4252, 1234.574
335.9073, 1233.862
336.3894, 1233.492
336.8715, 1237.875
337.3536, 1249.043
337.8358, 1263.770
338.3179, 1274.444
338.8000, 1278.026
339.2821, 1285.714
339.7642, 1303.709
340.2463, 1333.248
340.7285, 1357.294
341.2106, 1372.784
341.6927, 1387.652
342.1748, 1412.952
342.6569, 1449.928
343.1390, 1487.854
343.6212, 1523.427
344.1033, 1557.133
344.5854, 1589.664
345.0675, 1620.237
345.5496, 1651.443
346.0317, 1685.250
346.5139, 1721.743
346.9960, 1758.706
347.4781, 1796.147
347.9602, 1833.801
348.4423, 1871.230
348.9244, 1908.462
349.4066, 1946.346
349.8887, 1984.289
350.3708, 2023.487
350.8529, 2066.457
351.3350, 2113.676
351.8171, 2164.168
352.2993, 2213.104
352.7814, 2262.435
353.2635, 2320.956
353.7456, 2397.776
354.2277, 2485.489
354.7098, 2573.971
355.1920, 2662.005
355.6741, 2753.292
356.1562, 2850.002
356.6383, 2950.968
357.1204, 3055.961
357.6025, 3167.714
358.0847, 3281.162
358.5668, 3396.426
359.0489, 3513.270
359.5310, 3618.044
360.0131, 3702.556
360.4952, 3771.585
360.9774, 3828.881
361.4595, 3874.523
361.9416, 3910.876
362.4237, 3934.365
362.9058, 3948.533
363.3879, 3964.522
363.8701, 3985.409
364.3522, 4010.186
364.8343, 4036.265
365.3164, 4057.443
365.7985, 4094.285
366.2806, 4148.224
366.7628, 4221.620
367.2449, 4317.181
367.7270, 4434.417
368.2091, 4575.277
368.6912, 4736.965
369.1733, 4914.185
369.6555, 5134.146
370.1376, 5405.770
370.6197, 5715.868
371.1018, 6057.329
371.5839, 6437.069
372.0660, 6840.991
372.5482, 7273.713
373.0303, 7728.962
373.5124, 8180.889
373.9945, 8659.525
374.4766, 9094.850
374.9587, 9461.671
375.4409, 9786.110
375.9230, 9968.234
376.4051, 10002.99
376.8872, 9895.485
377.3693, 9645.396
377.8514, 9232.793
378.3336, 8746.277
378.8157, 8206.522
379.2978, 7607.881
379.7799, 7041.267
380.2620, 6498.656
380.7441, 5994.889
381.2263, 5546.133
381.7084, 5153.444
382.1905, 4801.650
382.6726, 4493.665
383.1547, 4222.622
383.6368, 3980.548
384.1190, 3765.379
384.6011, 3576.171
385.0832, 3416.649
385.5653, 3282.657
386.0474, 3160.835
386.5295, 3050.972
387.0117, 2950.334
387.4938, 2853.136
387.9759, 2761.055
388.4580, 2678.543
388.9401, 2609.641
389.4222, 2550.965
389.9044, 2499.999
390.3865, 2456.465
390.8686, 2416.602
391.3507, 2374.397
391.8328, 2334.506
392.3149, 2304.297
392.7971, 2289.617
393.2792, 2283.207
393.7613, 2282.733
394.2434, 2287.747
394.7255, 2295.404
395.2076, 2305.953
395.6898, 2317.801
396.1719, 2329.906
396.6540, 2342.892
397.1361, 2354.813
397.6182, 2364.967
398.1003, 2373.715
398.5825, 2381.881
399.0646, 2395.598
399.5467, 2403.352
400.0288, 2400.453
400.5109, 2384.055
400.9930, 2365.647
401.4752, 2345.704
401.9573, 2323.479
402.4394, 2298.012
402.9215, 2267.292
403.4036, 2236.882
403.8857, 2209.293
404.3678, 2183.437
404.8499, 2150.292
405.3321, 2107.985
405.8142, 2061.433
406.2963, 2013.780
406.7784, 1964.645
407.2605, 1915.180
407.7426, 1865.290
408.2248, 1815.281
408.7069, 1765.484
409.1890, 1716.779
409.6711, 1667.715
410.1532, 1616.137
410.6353, 1563.330
411.1175, 1516.644
411.5996, 1476.720
412.0817, 1441.028
412.5638, 1407.028
413.0459, 1375.553
413.5280, 1347.256
414.0102, 1322.115
414.4923, 1300.619
414.9744, 1284.171
415.4565, 1272.099
415.9386, 1261.212
416.4207, 1248.561
416.9029, 1236.181
417.3850, 1226.862
417.8671, 1221.309
418.3492, 1216.874
418.8313, 1209.804
419.3134, 1202.861
419.7956, 1200.336
420.2777, 1209.875
420.7598, 1219.231
421.2419, 1219.993
421.7240, 1212.542
422.2061, 1208.950
422.6883, 1215.359
423.1704, 1225.777
423.6525, 1236.130
424.1346, 1245.893
424.6167, 1255.187
425.0988, 1263.002
425.5810, 1270.178
426.0631, 1278.931
426.5452, 1289.490
427.0273, 1301.338
427.5094, 1314.464
427.9915, 1328.824
428.4737, 1344.096
428.9558, 1358.044
429.4379, 1375.205
429.9200, 1400.166
430.4021, 1433.534
430.8842, 1472.150
431.3664, 1513.598
431.8485, 1560.156
432.3306, 1620.547
432.8127, 1694.945
433.2948, 1782.393
433.7769, 1881.055
434.2591, 1991.325
434.7412, 2119.175
435.2233, 2265.125
435.7054, 2427.259
436.1875, 2613.292
436.6696, 2819.130
437.1518, 3019.164
437.6339, 3203.609
438.1160, 3378.200
438.5981, 3549.622
439.0802, 3718.376
439.5623, 3890.521
440.0445, 4064.684
440.5266, 4246.504
441.0087, 4445.259
441.4908, 4661.467
441.9729, 4898.093
442.4550, 5152.254
442.9372, 5428.622
443.4193, 5737.662
443.9014, 6060.167
444.3835, 6433.728
444.8656, 6871.167
445.3477, 7374.963
445.8299, 7942.272
446.3120, 8581.135
446.7941, 9281.119
447.2762, 10026.25
447.7583, 10825.17
448.2404, 11666.70
448.7226, 12570.86
449.2047, 13519.00
449.6868, 14433.96
450.1689, 15357.77
450.6510, 16208.09
451.1331, 16985.96
451.6153, 17738.54
452.0974, 18169.14
452.5795, 18278.29
453.0616, 18062.46
453.5437, 17472.11
454.0258, 16477.09
454.5080, 15337.24
454.9901, 14049.17
455.4722, 12690.13
455.9543, 11420.06
456.4364, 10243.91
456.9185, 9189.179
457.4007, 8270.047
457.8828, 7483.552
458.3649, 6794.899
458.8470, 6210.707
459.3291, 5706.298
459.8112, 5276.534
460.2934, 4912.935
460.7755, 4598.089
461.2576, 4331.163
461.7397, 4101.085
462.2218, 3902.080
462.7039, 3730.702
463.1861, 3580.158
463.6682, 3446.841
464.1503, 3330.106
464.6324, 3231.011
465.1145, 3148.637
465.5966, 3081.133
466.0788, 3034.310
466.5609, 2999.667
467.0430, 2967.041
467.5251, 2928.025
468.0072, 2897.530
468.4893, 2881.865
468.9715, 2880.161
469.4536, 2876.913
469.9357, 2865.743
470.4178, 2859.767
470.8999, 2866.495
471.3820, 2889.958
471.8642, 2914.639
472.3463, 2936.559
472.8284, 2963.721
473.3105, 3010.082
473.7926, 3077.009
474.2747, 3154.278
474.7569, 3237.626
475.2390, 3329.091
475.7211, 3435.663
476.2032, 3557.628
476.6853, 3698.019
477.1674, 3867.005
477.6496, 4057.729
478.1317, 4251.004
478.6138, 4445.175
479.0959, 4637.865
479.5780, 4831.944
480.0602, 5023.441
480.5423, 5199.771
481.0244, 5385.893
481.5065, 5534.377
481.9886, 5616.729
482.4707, 5631.148
482.9529, 5567.278
483.4350, 5406.604
483.9171, 5174.024
484.3992, 4882.850
484.8813, 4507.370
485.3634, 4130.135
485.8456, 3751.609
486.3277, 3389.233
486.8098, 3071.775
487.2919, 2813.295
487.7740, 2586.706
488.2561, 2395.020
488.7383, 2235.638
489.2204, 2094.815
489.7025, 1974.680
490.1846, 1871.970
490.6667, 1786.155
491.1488, 1719.545
491.6310, 1662.261
492.1131, 1614.739
492.5952, 1574.849
493.0773, 1538.500
493.5594, 1505.561
494.0415, 1475.679
494.5237, 1448.599
495.0058, 1424.303
495.4879, 1401.885
495.9700, 1381.496
496.4521, 1363.788
496.9342, 1350.175
497.4164, 1339.188
497.8985, 1328.940
498.3806, 1319.060
498.8627, 1309.971
499.3448, 1300.356
499.8269, 1291.998
500.3091, 1287.483
500.7912, 1291.362
501.2733, 1295.779
501.7554, 1295.968
502.2375, 1293.134
502.7196, 1294.213
503.2018, 1304.204
503.6839, 1315.812
504.1660, 1325.409
504.6481, 1332.298
505.1302, 1339.061
505.6123, 1345.367
506.0945, 1351.782
506.5766, 1359.219
507.0587, 1369.010
507.5408, 1376.537
508.0229, 1381.801
508.5050, 1384.021
508.9872, 1380.557
509.4693, 1371.218
509.9514, 1357.650
510.4335, 1339.379
510.9156, 1317.135
511.3977, 1294.800
511.8799, 1271.984
512.3619, 1252.589
512.8441, 1243.247
513.3262, 1239.916
513.8083, 1232.732
514.2904, 1216.176
514.7725, 1199.813
515.2546, 1193.721
515.7368, 1195.034
516.2189, 1196.187
516.7010, 1192.289
517.1831, 1188.252
517.6652, 1187.986
518.1473, 1191.929
518.6295, 1193.198
519.1116, 1186.280
519.5937, 1178.177
520.0758, 1173.951
520.5579, 1180.691
521.0400, 1182.300
521.5222, 1175.605
522.0043, 1165.066
522.4864, 1158.915
522.9685, 1158.659
523.4506, 1159.531
523.9327, 1160.894
524.4149, 1162.435
524.8970, 1161.440
525.3791, 1157.636
525.8612, 1152.691
526.3433, 1146.574
526.8254, 1139.928
527.3076, 1137.328
527.7897, 1140.076
528.2718, 1142.890
528.7539, 1138.646
529.2360, 1129.701
529.7181, 1121.626
530.2003, 1116.876
530.6824, 1113.367
531.1645, 1109.050
531.6466, 1104.361
532.1287, 1100.607
532.6108, 1099.356
533.0930, 1098.520
533.5751, 1096.724
534.0572, 1093.603
534.5393, 1090.903
535.0214, 1089.704
535.5035, 1088.713
535.9857, 1086.849
536.4678, 1083.929
536.9499, 1080.261
537.4320, 1074.982
537.9141, 1069.294
538.3962, 1066.567
538.8784, 1067.765
539.3605, 1068.807
539.8426, 1068.536
540.3247, 1066.913
540.8068, 1063.010
541.2889, 1056.586
541.7711, 1050.558
542.2532, 1047.888
542.7353, 1047.610
543.2174, 1047.019
543.6995, 1045.845
544.1816, 1043.970
544.6638, 1041.109
545.1459, 1037.480
545.6280, 1033.531
546.1101, 1029.780
546.5922, 1025.448
547.0743, 1018.744
547.5565, 1010.718
548.0386, 1005.350
548.5207, 1007.136
549.0028, 1009.169
549.4849, 1008.175
549.9670, 1003.269
550.4492, 997.8904
550.9313, 991.3405
551.4134, 985.0526
551.8955, 980.1364
552.3776, 977.1836
552.8597, 974.1030
553.3419, 970.7397
553.8240, 967.1639
554.3061, 963.3901
554.7882, 959.3947
555.2703, 955.6953
555.7524, 952.7379
556.2346, 950.1852
556.7167, 947.1356
557.1988, 943.6291
557.6809, 940.2250
558.1630, 937.5179
558.6451, 935.0661
559.1273, 932.1855
559.6094, 928.6655
560.0915, 925.3367
560.5736, 922.7390
561.0557, 920.5815
561.5378, 918.5302
562.0200, 917.0228
562.5021, 915.0032
562.9842, 910.8602
563.4663, 905.8887
563.9484, 903.9606
564.4305, 909.1056
564.9127, 912.5031
565.3948, 911.1673
565.8769, 905.0566
566.3590, 899.8109
566.8411, 895.1317
567.3232, 891.9788
567.8054, 892.0018
568.2875, 895.1793
568.7696, 895.4648
569.2517, 892.1515
569.7338, 886.9583
570.2159, 880.1412
570.6981, 873.0070
571.1802, 869.9073
571.6623, 875.2078
572.1444, 881.4048
572.6265, 879.1656
573.1086, 870.9456
573.5908, 864.4905
574.0729, 865.9485
574.5550, 868.3467
575.0371, 866.5218
575.5192, 859.9269
576.0013, 856.1522
576.4835, 860.5720
576.9656, 865.8519
577.4477, 867.1357
577.9298, 861.2023
578.4119, 857.2914
578.8940, 855.6688
579.3762, 855.8975
579.8583, 857.9111
580.3404, 862.2777
580.8225, 865.4585
581.3046, 866.4432
581.7867, 865.9395
582.2689, 865.6203
582.7510, 865.4709
583.2331, 865.2982
583.7152, 864.8766
584.1973, 864.4044
584.6794, 864.3740
585.1616, 864.7672
585.6437, 864.9090
586.1258, 864.3322
586.6079, 863.2850
587.0900, 861.6862
587.5721, 858.6911
588.0543, 857.3989
588.5364, 861.1080
589.0185, 866.2867
589.5006, 868.5135
589.9827, 865.4499
590.4648, 861.5532
590.9470, 856.4344
591.4291, 850.9178
591.9112, 847.9600
592.3933, 848.2505
592.8754, 849.1335
593.3575, 849.8402
593.8397, 850.3058
594.3218, 849.7402
594.8039, 848.0811
595.2860, 846.4797
595.7681, 846.0915
596.2502, 846.4276
596.7324, 846.7425
597.2145, 847.1649
597.6966, 846.1409
598.1787, 839.8505
598.6608, 832.1000
599.1429, 828.1082
599.6251, 833.4586
600.1072, 838.0201
600.5893, 836.6421
601.0714, 831.7279
601.5535, 828.8254
602.0356, 829.2133
602.5178, 831.3996
602.9999, 836.3195
603.4820, 843.6097
603.9641, 846.4344
604.4462, 843.1295
604.9283, 839.2493
605.4105, 838.2455
605.8926, 840.1063
606.3747, 840.8196
606.8568, 840.1911
607.3389, 839.4082
607.8210, 839.9601
608.3032, 841.3255
608.7853, 842.0666
609.2674, 841.7471
609.7495, 841.1094
610.2316, 841.3535
610.7137, 841.6884
611.1959, 840.7094
611.6780, 834.9941
612.1601, 830.7739
612.6422, 830.7975
613.1243, 834.5426
613.6064, 839.1932
614.0886, 847.6815
614.5707, 853.3333
615.0528, 853.0189
615.5349, 846.2374
616.0170, 842.1277
616.4991, 841.2198
616.9813, 841.6293
617.4634, 842.2147
617.9455, 842.9540
618.4276, 843.2414
618.9097, 842.9720
619.3918, 842.5347
619.8740, 841.7799
620.3561, 841.2214
620.8382, 842.3152
621.3203, 846.6080
621.8024, 850.7809
622.2845, 852.2482
622.7667, 851.7318
623.2488, 850.7970
623.7309, 849.7780
624.2130, 848.6746
624.6951, 847.5063
625.1772, 846.2609
625.6594, 844.8387
626.1415, 842.8192
626.6236, 841.1470
627.1057, 839.8868
627.5878, 838.8839
628.0699, 840.8475
628.5521, 846.7318
629.0342, 852.5552
629.5163, 854.1511
629.9984, 852.2843
630.4805, 850.7002
630.9626, 849.5920
631.4448, 850.1158
631.9269, 855.2648
632.4090, 862.6879
632.8911, 867.9412
633.3732, 867.6096
633.8553, 867.1730
634.3375, 870.2509
634.8196, 875.4635
635.3017, 879.7661
635.7838, 882.7632
636.2659, 884.3204
636.7480, 883.2112
637.2302, 880.0174
637.7123, 880.1442
638.1944, 885.2047
638.6765, 890.4111
639.1586, 893.6836
639.6407, 895.0399
640.1229, 894.8552
640.6050, 892.9047
641.0871, 891.0675
641.5692, 890.9600
642.0513, 892.2982
642.5334, 894.9336
643.0156, 899.2472
643.4977, 902.5638
643.9798, 901.7160
644.4619, 898.7675
644.9440, 896.4307
645.4261, 894.9803
645.9083, 895.0326
646.3904, 898.4252
646.8725, 903.3013
647.3546, 905.5233
647.8367, 902.8256
648.3188, 900.6340
648.8010, 900.3945
649.2831, 901.5345
649.7652, 901.1874
650.2473, 899.1561
650.7294, 896.6360
651.2115, 894.0532
651.6937, 891.4564
652.1758, 888.4075
652.6579, 884.9160
653.1400, 883.1971
653.6221, 886.3431
654.1042, 891.5555
654.5864, 895.2552
655.0685, 896.7574
655.5506, 898.1453
656.0327, 901.3053
656.5148, 904.3983
656.9969, 905.6549
657.4791, 902.6395
657.9612, 900.9221
658.4433, 901.3925
658.9254, 902.8618
659.4075, 903.3923
659.8896, 902.3428
660.3718, 902.9209
660.8539, 906.4369
661.3360, 911.1925
661.8181, 912.7704
662.3002, 911.5118
662.7823, 910.8065
663.2645, 913.3877
663.7466, 916.7204
664.2287, 916.3674
664.7108, 913.1914
665.1929, 911.5137
665.6750, 914.9845
666.1572, 919.6410
666.6393, 922.8235
667.1214, 924.1237
667.6035, 926.3812
668.0856, 932.6093
668.5677, 937.7466
669.0499, 938.7272
669.5320, 933.7686
670.0141, 930.8627
670.4962, 929.8519
670.9783, 931.1973
671.4604, 937.2438
671.9426, 947.1735
672.4247, 952.4329
672.9068, 950.5465
673.3889, 947.2368
673.8710, 949.0510
674.3531, 954.4108
674.8353, 960.1289
675.3174, 965.3231
675.7995, 970.3268
676.2816, 975.1300
676.7637, 979.8151
677.2458, 984.6451
677.7280, 991.7482
678.2101, 996.4958
678.6922, 996.5560
679.1743, 993.1479
679.6564, 993.3146
680.1385, 997.8873
680.6207, 1003.596
681.1028, 1008.932
681.5849, 1014.210
682.0670, 1021.958
682.5491, 1032.203
683.0313, 1041.944
683.5134, 1048.174
683.9955, 1052.976
684.4776, 1059.795
684.9597, 1068.991
685.4418, 1077.839
685.9240, 1083.464
686.4061, 1088.803
686.8882, 1096.213
687.3703, 1106.030
687.8524, 1118.054
688.3345, 1133.354
688.8167, 1149.736
689.2988, 1165.267
689.7809, 1179.749
690.2630, 1193.422
690.7451, 1205.688
691.2272, 1218.672
691.7094, 1236.545
692.1915, 1258.371
692.6736, 1280.741
693.1557, 1301.929
693.6378, 1323.752
694.1199, 1347.427
694.6021, 1373.377
695.0842, 1402.184
695.5663, 1435.357
696.0484, 1469.813
696.5305, 1503.709
697.0126, 1537.341
697.4948, 1573.770
697.9769, 1610.849
698.4590, 1653.515
698.9411, 1704.525
699.4232, 1763.465
699.9053, 1820.766
700.3875, 1875.876
700.8696, 1935.213
701.3517, 2004.409
701.8338, 2080.917
702.3159, 2158.064
702.7980, 2235.948
703.2802, 2315.269
703.7623, 2395.705
704.2444, 2479.316
704.7265, 2568.118
705.2086, 2662.635
705.6907, 2761.389
706.1729, 2866.708
706.6550, 2974.256
707.1371, 3082.086
707.6192, 3189.096
708.1013, 3295.776
708.5834, 3400.692
709.0656, 3507.854
709.5477, 3623.439
710.0298, 3747.128
710.5119, 3864.600
710.9940, 3971.697
711.4761, 4076.449
711.9582, 4194.439
712.4403, 4318.039
712.9224, 4430.975
713.4045, 4528.178
713.8867, 4610.145
714.3688, 4680.712
714.8509, 4735.289
715.3330, 4766.853
715.8151, 4773.488
716.2972, 4756.885
716.7794, 4719.854
717.2615, 4659.808
717.7436, 4562.346
718.2257, 4422.964
718.7078, 4265.044
719.1899, 4096.550
719.6721, 3917.900
720.1542, 3721.365
720.6363, 3510.861
721.1184, 3302.778
721.6005, 3105.493
722.0826, 2918.455
722.5648, 2745.061
723.0469, 2585.351
723.5290, 2439.597
724.0111, 2313.499
724.4932, 2198.563
724.9753, 2090.941
725.4575, 1989.827
725.9396, 1902.191
726.4217, 1831.211
726.9038, 1768.760
727.3859, 1708.576
727.8680, 1650.896
728.3502, 1594.240
728.8323, 1537.540
729.3144, 1487.003
729.7965, 1451.172
730.2786, 1424.394
730.7607, 1397.624
731.2429, 1368.738
731.7250, 1340.908
732.2071, 1314.731
732.6892, 1290.879
733.1713, 1270.093
733.6534, 1254.310
734.1356, 1238.659
734.6177, 1222.849
735.0998, 1207.623
735.5819, 1194.089
736.0640, 1182.324
736.5461, 1171.514
737.0283, 1161.725
737.5104, 1152.309
737.9925, 1141.862
738.4746, 1131.076
738.9567, 1121.999
739.4388, 1116.439
739.9210, 1111.203
740.4031, 1102.611
740.8852, 1093.037
741.3673, 1086.976
741.8494, 1089.312
742.3315, 1090.871
742.8137, 1089.373
743.2958, 1086.122
743.7779, 1084.931
744.2600, 1086.438
744.7421, 1087.149
745.2242, 1085.625
745.7064, 1082.816
746.1885, 1080.907
746.6706, 1079.875
747.1527, 1079.698
747.6348, 1081.670
748.1169, 1083.480
748.5991, 1082.927
749.0812, 1080.358
749.5633, 1077.560
750.0454, 1074.263
750.5275, 1071.738
751.0096, 1071.262
751.4918, 1072.492
751.9739, 1070.412
752.4560, 1063.218
752.9381, 1057.596
753.4202, 1058.303
753.9023, 1063.514
754.3845, 1063.531
754.8666, 1058.584
755.3487, 1053.703
755.8308, 1053.274
756.3129, 1054.365
756.7950, 1053.739
757.2772, 1051.200
757.7593, 1048.705
758.2414, 1047.227
758.7235, 1045.832
759.2056, 1044.456
759.6877, 1043.653
760.1699, 1039.068
760.6520, 1028.700
761.1341, 1018.825
761.6162, 1015.263
762.0983, 1017.065
762.5804, 1015.240
763.0626, 1009.264
763.5447, 1002.631
764.0268, 998.7926
764.5089, 995.9443
764.9910, 991.4791
765.4731, 984.5379
765.9553, 978.7876
766.4374, 976.5929
766.9195, 975.5103
767.4016, 973.5811
767.8837, 970.5317
768.3658, 967.0110
768.8480, 962.5319
769.3301, 958.5067
769.8122, 956.5905
770.2943, 956.6035
770.7764, 957.0529
771.2585, 957.9741
771.7407, 957.9834
772.2228, 954.5638
772.7049, 949.7404
773.1870, 946.5964
773.6691, 946.6508
774.1512, 946.2476
774.6334, 943.5328
775.1155, 939.9155
775.5976, 936.7318
776.0797, 932.7985
776.5618, 932.3177
777.0439, 936.9222
777.5261, 942.6647
778.0082, 944.1971
778.4903, 941.9456
778.9724, 939.7455
779.4545, 938.4373
779.9366, 936.8849
780.4188, 932.2965
780.9009, 927.0773
781.3830, 925.2813
781.8651, 930.8280
782.3472, 935.3127
782.8293, 934.9927
783.3115, 932.5253
783.7936, 931.5583
784.2757, 932.2911
784.7578, 934.4196
785.2399, 938.7996
785.7220, 943.0973
786.2042, 942.1128
786.6863, 936.9035
787.1684, 935.2299
787.6505, 940.4748
788.1326, 946.3740
788.6147, 946.3475
789.0969, 942.7527
789.5790, 939.4328
790.0611, 936.1743
790.5432, 935.0267
791.0253, 938.4173
791.5074, 943.4684
791.9896, 945.7637
792.4717, 944.7694
792.9538, 942.7529
793.4359, 939.8279
793.9180, 936.4686
794.4001, 933.6538
794.8823, 931.1576
795.3644, 927.8433
795.8465, 922.7847
796.3286, 917.8149
796.8107, 914.2703
797.2928, 911.9105
797.7750, 910.2931
798.2571, 912.1171
798.7392, 910.9929
799.2213, 904.0492
799.7034, 894.5956
800.1855, 888.3991
800.6677, 886.1227
801.1498, 883.3798
801.6319, 879.1735
802.1140, 874.3018
802.5961, 869.7207
803.0782, 865.5735
803.5604, 862.4843
804.0425, 862.2466
804.5246, 860.7240
805.0067, 853.3459
805.4888, 843.3694
805.9709, 836.1745
806.4531, 834.8246
806.9352, 833.9763
807.4173, 833.5550
807.8994, 833.0515
808.3815, 830.9502
808.8636, 827.1281
809.3458, 825.7191
809.8279, 828.9244
810.3100, 832.1463
810.7921, 826.6392
811.2742, 816.5150
811.7563, 810.3873
812.2385, 815.0449
812.7206, 819.1826
813.2027, 817.4276
813.6848, 812.3651
814.1669, 808.3221
814.6490, 805.6584
815.1312, 803.6463
815.6133, 802.2693
816.0954, 801.4020
816.5775, 800.9526
817.0596, 800.8659
817.5417, 800.7596
818.0239, 800.6882
818.5060, 800.1964
818.9881, 798.5594
819.4702, 796.2731
819.9523, 794.0764
820.4344, 791.6288
820.9166, 790.0449
821.3987, 790.4670
821.8808, 791.3831
822.3629, 790.7100
822.8450, 787.8383
823.3271, 786.2549
823.8093, 786.7700
824.2914, 787.7843
824.7735, 786.3005
825.2556, 783.4461
825.7377, 782.6976
826.2198, 785.8971
826.7020, 788.6101
827.1841, 786.3182
827.6662, 782.5685
828.1483, 781.4593
828.6304, 787.7885
829.1125, 790.9498
829.5947, 789.6233
830.0768, 786.4871
830.5589, 784.5673
831.0410, 783.8529
831.5231, 783.2402
832.0052, 782.6606
832.4874, 781.8798
832.9695, 779.8741
833.4516, 777.7955
833.9337, 777.4913
834.4158, 779.8282
834.8979, 782.4519
835.3801, 786.5766
835.8622, 789.2114
836.3443, 787.4603
836.8264, 778.3751
837.3085, 773.8746
837.7906, 775.2206
838.2728, 777.6866
838.7549, 775.6450
839.2370, 770.8353
839.7191, 769.2640
840.2012, 771.7392
840.6833, 775.1034
841.1655, 777.9792
841.6476, 780.1171
842.1297, 781.3477
842.6118, 781.6169
843.0939, 780.9762
843.5760, 778.7380
844.0582, 776.6174
844.5403, 776.0574
845.0224, 777.1259
845.5045, 776.3105
845.9866, 773.5035
846.4688, 771.1421
846.9509, 772.3237
847.4330, 774.4843
847.9151, 773.4532
848.3972, 769.0567
848.8793, 766.6805
849.3615, 770.4699
849.8436, 774.9173
850.3257, 777.3082
850.8078, 777.6191
851.2899, 777.4260
851.7720, 776.6968
852.2542, 775.5317
852.7363, 773.2769
853.2184, 770.8217
853.7005, 771.1205
854.1826, 773.7350
854.6647, 775.9528
855.1469, 776.3647
855.6290, 775.6811
856.1111, 773.4108
856.5932, 770.0138
857.0753, 768.9639
857.5574, 772.2002
858.0396, 774.4098
858.5217, 773.4847
859.0038, 770.5971
859.4859, 770.0435
859.9680, 771.5923
860.4501, 772.6971
860.9323, 772.0213
861.4144, 770.5551
861.8965, 768.7726
862.3786, 766.9911
862.8607, 765.9220
863.3428, 766.5739
863.8250, 766.9783
864.3071, 766.2955
864.7892, 765.3722
865.2713, 765.9341
865.7534, 768.0690
866.2355, 771.3192
866.7177, 776.5936
867.1998, 780.5759
867.6819, 776.3787
868.1640, 767.8170
868.6461, 762.5891
869.1282, 764.5754
869.6104, 767.3686
870.0925, 769.8204
870.5746, 771.0907
871.0567, 770.0047
871.5388, 765.0931
872.0209, 762.2242
872.5031, 761.8972
872.9852, 763.1924
873.4673, 766.0099
873.9494, 769.5602
874.4315, 771.1187
874.9136, 769.9844
875.3958, 769.3223
875.8779, 772.6505
876.3600, 776.4572
876.8421, 777.5457
877.3242, 774.4802
877.8063, 771.9755
878.2885, 769.3785
878.7706, 768.4960
879.2527, 772.0433
879.7348, 779.0746
880.2169, 781.3079
880.6990, 778.7825
881.1812, 776.0845
881.6633, 777.1564
882.1454, 779.1181
882.6275, 778.6977
883.1096, 775.9903
883.5917, 775.6804
884.0739, 782.0094
884.5560, 786.5323
885.0381, 785.6003
885.5202, 780.6343
886.0023, 779.6283
886.4844, 782.5189
886.9666, 785.5792
887.4487, 786.7083
887.9308, 787.3302
888.4129, 789.4134
888.8950, 792.3863
889.3771, 794.7191
889.8593, 795.4194
890.3414, 795.9837
890.8235, 796.4297
891.3056, 797.1345
891.7877, 799.2667
892.2698, 803.1668
892.7520, 805.2650
893.2341, 804.4544
893.7162, 802.5083
894.1983, 800.1932
894.6804, 798.8709
895.1625, 801.5385
895.6447, 811.7823
896.1268, 819.8016
896.6089, 819.7723
897.0910, 817.3510
897.5731, 818.2554
898.0552, 824.2606
898.5374, 826.5355
899.0195, 823.9668
899.5016, 821.5670
899.9837, 826.0884
900.4658, 833.7891
900.9479, 836.2052
901.4301, 832.4844
901.9122, 828.6470
902.3943, 827.8001
902.8764, 828.0499
903.3585, 828.0376
903.8406, 827.6732
904.3228, 829.3895
904.8049, 834.1483
905.2870, 837.8652
905.7691, 838.3363
906.2512, 836.3246
906.7333, 833.0636
907.2155, 828.9750
907.6976, 826.1019
908.1797, 826.9473
908.6618, 827.8839
909.1439, 827.0067
909.6260, 824.6263
910.1082, 821.7543
910.5903, 817.4217
911.0724, 815.2958
911.5545, 816.6542
912.0366, 819.7223
912.5187, 821.8268
913.0009, 822.9254
913.4830, 822.8082
913.9651, 821.2939
914.4472, 818.9081
914.9293, 815.2548
915.4114, 811.2871
915.8936, 808.0922
916.3757, 805.7935
916.8578, 804.0807
917.3399, 802.6246
917.8220, 802.4662
918.3041, 806.1938
918.7863, 812.2357
919.2684, 813.4052
919.7505, 809.2916
920.2326, 804.5049
920.7147, 800.4861
921.1968, 798.4901
921.6790, 800.8857
922.1611, 808.0090
922.6432, 810.2977
923.1253, 804.9678
923.6074, 800.3179
924.0895, 800.1516
924.5717, 803.0409
925.0538, 803.8939
925.5359, 803.1303
926.0180, 802.7538
926.5001, 804.8888
926.9822, 806.6667
927.4644, 805.8885
927.9465, 803.4537
928.4286, 801.3801
928.9107, 800.0721
929.3928, 798.5889
929.8749, 796.4229
930.3571, 794.6962
930.8392, 795.5365
931.3213, 798.3588
931.8034, 800.8536
932.2855, 802.7390
932.7676, 803.3323
933.2498, 800.1050
933.7319, 796.6271
934.2140, 796.7325
934.6961, 802.8833
935.1782, 805.2221
935.6603, 802.4913
936.1425, 798.6163
936.6246, 795.8528
937.1067, 794.0662
937.5888, 793.0115
938.0709, 792.5262
938.5530, 791.3288
939.0352, 786.4254
939.5173, 782.5806
939.9994, 783.9912
940.4815, 789.5118
940.9636, 792.9672
941.4457, 793.6796
941.9279, 793.6898
942.4100, 793.6956
942.8921, 792.9524
943.3742, 788.4200
943.8563, 781.7399
944.3384, 778.3257
944.8206, 780.5610
945.3027, 784.5709
945.7848, 790.2316
946.2669, 795.2813
946.7490, 796.7452
947.2311, 792.0829
947.7133, 790.6864
948.1954, 793.2059
948.6775, 797.0720
949.1596, 800.7721
949.6417, 803.8937
950.1238, 805.0544
950.6060, 804.2849
951.0881, 803.2321
951.5702, 803.0609
952.0523, 802.6457
952.5344, 800.5868
953.0165, 797.4438
953.4987, 797.3124
953.9808, 801.1720
954.4629, 803.5525
954.9450, 801.6102
955.4271, 798.3739
955.9092, 800.0760
956.3914, 804.7753
956.8735, 807.7801
957.3556, 805.6927
957.8376, 804.1244
958.3198, 806.0004
958.8019, 808.7893
959.2840, 809.2493
959.7661, 806.4044
960.2482, 807.6395
960.7303, 814.1744
961.2125, 820.2742
961.6946, 819.5922
962.1767, 815.4152
962.6588, 812.1451
963.1409, 810.2455
963.6230, 809.0615
964.1052, 809.0122
964.5873, 808.9630
965.0694, 808.2599
965.5515, 807.1556
966.0336, 807.5493
966.5157, 809.4342
966.9979, 810.2726
967.4800, 807.8806
967.9621, 805.4386
968.4442, 808.0078
968.9263, 812.8872
969.4084, 815.1164
969.8906, 808.9543
970.3727, 806.4794
970.8548, 810.6393
971.3369, 816.1557
971.8190, 817.0009
972.3011, 813.5630
972.7833, 808.6417
973.2654, 802.3048
973.7475, 798.9717
974.2296, 807.3579
974.7117, 816.3996
975.1938, 814.7891
975.6760, 801.2681
976.1581, 794.6493
976.6402, 799.1857
977.1223, 803.3431
977.6044, 802.3497
978.0865, 798.2338
978.5687, 796.6091
979.0508, 796.8768
979.5329, 796.6711
980.0150, 793.7315
980.4971, 791.8898
980.9792, 794.6057
981.4614, 799.0740
981.9435, 801.3593
982.4256, 800.8356
982.9077, 799.6797
983.3898, 797.7581
983.8719, 796.1095
984.3541, 796.1436
984.8362, 797.0631
985.3183, 797.2590
985.8004, 796.6193
986.2825, 796.3102
986.7646, 796.9075
987.2468, 797.8941
987.7289, 799.3719
988.2110, 801.0244
988.6931, 801.2594
989.1752, 800.0555
989.6573, 797.8715
990.1395, 794.4922
990.6216, 790.8822
991.1037, 787.6290
991.5858, 785.0889
992.0679, 783.8212
992.5500, 783.8267
993.0322, 785.8714
993.5143, 792.0942
993.9964, 797.4620
994.4785, 795.8951
994.9606, 788.5688
995.4427, 785.0333
995.9249, 785.6668
996.4070, 788.2139
996.8891, 793.7445
997.3712, 798.2621
997.8533, 798.4166
998.3354, 794.4286
998.8176, 790.2047
999.2997, 785.2294
999.7818, 781.4908
1000.264, 779.4136
1000.746, 779.1205
1001.228, 781.9911
1001.710, 786.7597
1002.192, 790.4073
1002.674, 791.9366
1003.157, 792.5261
1003.639, 793.4319
1004.121, 792.8767
1004.603, 788.5861
1005.085, 779.4378
1005.567, 776.9668
1006.049, 781.6631
1006.531, 786.7839
1007.014, 786.9110
1007.496, 785.3688
1007.978, 786.6829
1008.460, 789.9641
1008.942, 791.4755
1009.424, 788.3934
1009.906, 785.7772
1010.388, 784.6617
1010.870, 784.0698
1011.353, 781.8212
1011.835, 778.3778
1012.317, 776.5172
1012.799, 776.8499
1013.281, 778.1636
1013.763, 781.2825
1014.245, 783.7638
1014.727, 782.6560
1015.210, 777.3339
1015.692, 775.2473
1016.174, 777.2789
1016.656, 779.1234
1017.138, 777.8192
1017.620, 775.5516
1018.102, 777.5354
1018.584, 782.2295
1019.066, 785.4719
1019.549, 786.0496
1020.031, 784.2551
1020.513, 777.7654
1020.995, 770.8982
1021.477, 769.0153
1021.959, 772.1682
1022.441, 774.5732
1022.923, 775.7234
1023.406, 777.2260
1023.888, 781.3816
1024.370, 785.8041
1024.852, 788.6810
1025.334, 789.7997
1025.816, 788.5973
1026.298, 783.5840
1026.780, 779.9545
1027.262, 779.6479
1027.745, 781.1144
1028.227, 781.0790
1028.709, 780.1010
1029.191, 779.8315
1029.673, 781.2420
1030.155, 782.2198
1030.637, 780.9659
1031.119, 779.5776
1031.602, 780.1758
1032.084, 783.2542
1032.566, 782.3828
1033.048, 777.2593
1033.530, 773.6186
1034.012, 777.7288
1034.494, 783.5626
1034.976, 784.1661
1035.458, 780.9924
1035.941, 779.0782
1036.423, 780.2834
1036.905, 781.6918
1037.387, 783.4593
1037.869, 784.4804
1038.351, 782.2953
1038.833, 778.0080
1039.315, 775.2931
1039.797, 774.6677
1040.280, 775.2479
1040.762, 777.5607
1041.244, 779.9226
1041.726, 781.0042
1042.208, 781.0563
1042.690, 782.6613
1043.172, 785.9660
1043.654, 788.9152
1044.137, 791.0677
1044.619, 791.9325
1045.101, 789.5106
1045.583, 785.9214
1046.065, 784.6307
1046.547, 788.7703
1047.029, 790.8256
1047.511, 790.0745
1047.994, 788.0180
1048.476, 784.7635
1048.958, 781.2029
1049.440, 782.1395
1049.922, 786.8003
1050.404, 789.6714
1050.886, 784.3090
1051.368, 780.0036
1051.850, 783.4162
1052.333, 790.1293
1052.815, 791.6100
1053.297, 787.3527
1053.779, 782.6939
1054.261, 778.0219
1054.743, 775.4934
1055.225, 779.5879
1055.707, 785.6705
1056.189, 788.1973
1056.672, 786.1850
1057.154, 785.9611
1057.636, 789.0790
1058.118, 791.7049
1058.600, 792.3424
1059.082, 791.5535
1059.564, 790.0412
1060.046, 788.2535
1060.529, 787.5640
1061.011, 789.2184
1061.493, 790.4874
1061.975, 789.3645
1062.457, 788.1028
1062.939, 788.8058
1063.421, 791.6771
1063.903, 792.6239
1064.385, 791.6295
1064.868, 791.0939
1065.350, 792.9866
1065.832, 795.7375
1066.314, 798.7571
1066.796, 801.5106
1067.278, 802.5233
1067.760, 800.9771
1068.242, 800.1323
1068.724, 801.0383
1069.207, 800.8802
1069.689, 793.1007
1070.171, 782.8556
1070.653, 781.0632
1071.135, 788.8741
1071.617, 796.1926
1072.099, 799.7487
1072.581, 801.5220
1073.064, 801.8812
1073.546, 801.1785
1074.028, 800.4176
1074.510, 799.6083
1074.992, 798.7926
1075.474, 798.0432
1075.956, 797.1147
1076.438, 794.8165
1076.921, 792.9609
1077.403, 793.7483
1077.885, 797.7078
1078.367, 800.0209
1078.849, 800.6298
1079.331, 800.2798
1079.813, 799.5388
1080.295, 797.9948
1080.777, 793.3259
1081.260, 787.6151
1081.742, 785.6041
1082.224, 791.9093
1082.706, 797.0173
1083.188, 800.4811
1083.670, 802.7083
1084.152, 803.9362
1084.634, 804.2990
1085.116, 804.1752
1085.599, 803.5928
1086.081, 802.6155
1086.563, 800.2950
1087.045, 798.7289
1087.527, 799.0703
1088.009, 800.4374
1088.491, 801.0832
1088.973, 801.0145
1089.455, 800.0737
1089.938, 797.9921
1090.420, 796.6498
1090.902, 799.1267
1091.384, 801.9095
1091.866, 800.9952
1092.348, 796.2369
1092.830, 795.8646
1093.312, 800.7504
1093.795, 805.3468
1094.277, 807.8086
1094.759, 808.4360
1095.241, 806.2860
1095.723, 803.0548
1096.205, 801.6124
1096.687, 803.6909
1097.169, 805.2094
1097.651, 805.8771
1098.134, 805.9464
1098.616, 805.0258
1099.098, 803.7333
1099.580, 804.7703
1100.062, 807.4921
1100.544, 809.3773
1101.026, 808.9659
1101.508, 807.8467
1101.990, 805.4799
1102.473, 803.5099
1102.955, 804.7706
1103.437, 809.0035
1103.919, 809.0750
1104.401, 804.5646
1104.883, 800.9729
1105.365, 803.7687
1105.847, 807.3839
1106.330, 807.7234
1106.812, 805.6586
1107.294, 805.1014
1107.776, 806.4506
1108.258, 806.6107
1108.740, 804.7431
1109.222, 802.7340
1109.704, 802.4261
1110.187, 803.2629
1110.669, 805.2784
1111.151, 808.5991
1111.633, 809.0074
1112.115, 804.9541
1112.597, 801.4797
1113.079, 800.1904
1113.561, 800.6140
1114.043, 802.0016
1114.526, 804.3820
1115.008, 808.3934
1115.490, 816.1822
1115.972, 819.3462
1116.454, 812.2649
1116.936, 805.4222
1117.418, 805.0846
1117.900, 809.7957
1118.382, 812.8864
1118.865, 814.4479
1119.347, 815.0067
1119.829, 813.8346
1120.311, 812.9619
1120.793, 814.3507
1121.275, 815.6489
1121.757, 813.9674
1122.239, 809.0707
1122.722, 806.7264
1123.204, 807.0277
1123.686, 808.4874
1124.168, 811.9096
1124.650, 814.3451
1125.132, 812.1259
1125.614, 807.5084
1126.096, 806.7758
1126.578, 811.1561
1127.061, 813.1445
1127.543, 811.5242
1128.025, 810.2400
1128.507, 815.2172
1128.989, 821.1996
1129.471, 821.7455
1129.953, 816.9664
1130.435, 813.0775
1130.917, 810.1393
1131.400, 809.3526
1131.882, 811.3871
1132.364, 814.6935
1132.846, 817.9235
1133.328, 820.4541
1133.810, 821.1551
1134.292, 819.7249
1134.774, 817.8311
1135.257, 815.1048
1135.739, 813.1122
1136.221, 812.1141
1136.703, 812.5233
1137.185, 816.4499
1137.667, 822.5924
1138.149, 827.5216
1138.631, 830.8007
1139.114, 831.2463
1139.596, 825.0736
1140.078, 819.1812
1140.560, 817.3694
1141.042, 819.1398
1141.524, 822.0667
1142.006, 825.8102
1142.488, 828.6380
1142.970, 830.1709
1143.453, 829.9432
1143.935, 824.7205
1144.417, 819.8060
1144.899, 821.0870
1145.381, 829.3420
1145.863, 833.1525
1146.345, 832.6354
1146.827, 831.4165
1147.309, 831.7621
1147.792, 832.3035
1148.274, 831.7601
1148.756, 830.8662
1149.238, 831.2164
1149.720, 833.3959
1150.202, 833.1307
1150.684, 829.8730
1151.166, 827.7441
1151.649, 832.9757
1152.131, 838.7386
1152.613, 836.6040
1153.095, 829.1365
1153.577, 827.7210
1154.059, 835.3680
1154.541, 840.1546
1155.023, 839.9258
1155.505, 838.9328
1155.988, 842.8821
1156.470, 848.2345
1156.952, 850.3804
1157.434, 849.1414
1157.916, 847.7504
1158.398, 846.3405
1158.880, 845.4761
1159.362, 845.4118
1159.844, 845.6574
1160.327, 845.6239
1160.809, 845.3455
1161.291, 844.3002
1161.773, 842.1754
1162.255, 842.9308
1162.737, 849.1725
1163.219, 854.9766
1163.701, 858.8766
1164.184, 860.6068
1164.666, 858.5482
1165.148, 854.0873
1165.630, 849.6683
1166.112, 844.8358
1166.594, 844.8517
1167.076, 856.2552
1167.558, 865.3717
1168.041, 864.9513
1168.523, 858.5122
1169.005, 857.2802
1169.487, 859.6943
1169.969, 860.4054
1170.451, 855.9860
1170.933, 853.7822
1171.415, 859.3563
1171.897, 864.6455
1172.380, 863.8702
1172.862, 858.6445
1173.344, 859.3350
1173.826, 864.5641
1174.308, 867.8771
1174.790, 864.5537
1175.272, 861.5217
1175.754, 861.7859
1176.236, 863.3090
1176.719, 864.7077
1177.201, 865.9691
1177.683, 866.7227
1178.165, 867.0754
1178.647, 867.9333
1179.129, 870.5957
1179.611, 872.9540
1180.093, 874.0592
1180.576, 874.2762
1181.058, 874.1134
1181.540, 873.5671
1182.022, 870.8665
1182.504, 866.1310
1182.986, 863.4376
1183.468, 867.5406
1183.950, 872.2539
1184.432, 874.5065
1184.915, 874.7482
1185.397, 873.2072
1185.879, 869.7682
1186.361, 869.0216
1186.843, 871.3644
1187.325, 872.6788
1187.807, 867.7490
1188.289, 862.8328
1188.771, 862.7829
1189.254, 865.8841
1189.736, 868.2743
1190.218, 869.9365
1190.700, 871.0381
1191.182, 871.5793
1191.664, 871.9387
1192.146, 871.9333
1192.628, 872.3207
1193.111, 874.9349
1193.593, 878.3739
1194.075, 876.9912
1194.557, 870.2089
1195.039, 866.5928
1195.521, 867.9738
1196.003, 870.6865
1196.485, 872.2302
1196.968, 873.0386
1197.450, 873.1296
1197.932, 872.7443
1198.414, 873.0399
1198.896, 874.0187
1199.378, 875.7866
1199.860, 878.6222
1200.342, 880.9551
1200.824, 880.9943
1201.307, 880.0953
1201.789, 879.0526
1202.271, 878.0706
1202.753, 878.9332
1203.235, 881.8712
1203.717, 883.4581
1204.199, 882.3815
1204.681, 880.7520
1205.163, 879.9401
1205.646, 880.0916
1206.128, 882.0282
1206.610, 885.6362
1207.092, 886.9209
1207.574, 885.7709
1208.056, 884.1873
1208.538, 882.5859
1209.020, 881.6036
1209.503, 881.8659
1209.985, 883.1039
1210.467, 885.8287
1210.949, 890.0690
1211.431, 889.9598
1211.913, 885.1412
1212.395, 882.0731
1212.877, 884.2491
1213.359, 887.1520
1213.842, 885.8970
1214.324, 883.3568
1214.806, 882.8521
1215.288, 884.5182
1215.770, 887.3900
1216.252, 891.5500
1216.734, 894.3883
1217.216, 893.9274
1217.698, 893.0213
1218.181, 894.8931
1218.663, 897.2805
1219.145, 897.1252
1219.627, 894.0394
1220.109, 892.5262
1220.591, 892.5909
1221.073, 894.4235
1221.555, 900.0975
1222.038, 904.5417
1222.520, 901.8201
1223.002, 896.7156
1223.484, 895.3618
1223.966, 898.3862
1224.448, 899.2390
1224.930, 897.9474
1225.412, 897.4108
1225.895, 900.2959
1226.377, 903.0859
1226.859, 902.4797
1227.341, 900.9249
1227.823, 901.8141
1228.305, 905.6008
1228.787, 905.8934
1229.269, 902.8912
1229.751, 900.3981
1230.234, 900.8248
1230.716, 902.1686
1231.198, 903.8002
1231.680, 905.2975
1232.162, 906.4635
1232.644, 907.3542
1233.126, 905.3086
1233.608, 900.6465
1234.090, 897.3634
1234.573, 899.4461
1235.055, 901.6017
1235.537, 900.0541
1236.019, 897.9924
1236.501, 899.1919
1236.983, 903.5138
1237.465, 904.9775
1237.947, 903.9066
1238.430, 903.4497
1238.912, 906.5008
1239.394, 909.2100
1239.876, 910.3600
1240.358, 910.0372
1240.840, 907.0486
1241.322, 902.1387
1241.804, 902.4338
1242.286, 907.1896
1242.769, 910.5239
1243.251, 905.5677
1243.733, 904.0571
1244.215, 912.1991
1244.697, 921.5096
1245.179, 923.4594
1245.661, 919.4583
1246.143, 914.7449
1246.625, 909.9417
1247.108, 906.9635
1247.590, 906.5922
1248.072, 908.6108
1248.554, 914.1600
1249.036, 919.7433
1249.518, 921.7723
1250.000, 921.0739
1250.482, 919.2972
1250.965, 916.8747
1251.447, 915.1782
1251.929, 913.7927
1252.411, 915.2394
1252.893, 921.1716
1253.375, 926.6380
1253.857, 925.6017
1254.339, 921.2189
1254.822, 919.2932
1255.304, 919.5602
1255.786, 920.3690
1256.268, 921.6385
1256.750, 922.8029
1257.232, 923.7632
1257.714, 924.8412
1258.196, 926.7487
1258.678, 928.6473
1259.161, 929.3836
1259.643, 929.0927
1260.125, 928.1755
1260.607, 926.2046
1261.089, 925.3275
1261.571, 925.9155
1262.053, 926.0978
1262.535, 922.8185
1263.017, 919.6268
1263.500, 920.9219
1263.982, 925.0854
1264.464, 927.8577
1264.946, 928.8444
1265.428, 929.0960
1265.910, 928.5491
1266.392, 929.4229
1266.874, 936.0485
1267.357, 942.0668
1267.839, 942.3556
1268.321, 938.7039
1268.803, 934.1880
1269.285, 928.6281
1269.767, 926.2238
1270.249, 927.1130
1270.731, 929.7866
1271.214, 935.7657
1271.696, 940.4664
1272.178, 940.8549
1272.660, 938.9393
1273.142, 935.5199
1273.624, 931.1779
1274.106, 932.4305
1274.588, 938.7969
1275.070, 944.7738
1275.552, 948.8519
1276.035, 950.0936
1276.517, 947.5965
1276.999, 943.4778
1277.481, 938.7433
1277.963, 934.1997
1278.445, 932.9067
1278.927, 934.4731
1279.409, 936.8151
1279.892, 940.1654
1280.374, 942.4780
1280.856, 943.0884
1281.338, 943.6356
1281.820, 946.0516
1282.302, 949.1689
1282.784, 950.6309
1283.266, 950.8795
1283.749, 951.3401
1284.231, 952.2737
1284.713, 953.9210
1285.195, 956.7208
1285.677, 958.3182
1286.159, 956.7343
1286.641, 953.0875
1287.123, 945.8657
1287.605, 938.4391
1288.088, 938.2252
1288.570, 948.2500
1289.052, 953.2985
1289.534, 952.9841
1290.016, 951.7687
1290.498, 951.7502
1290.980, 952.8459
1291.462, 956.0106
1291.944, 959.6503
1292.427, 961.6526
1292.909, 961.9396
1293.391, 962.2281
1293.873, 962.4510
1294.355, 961.9598
1294.837, 958.8773
1295.319, 957.1361
1295.801, 959.8782
1296.284, 963.3920
1296.766, 965.1991
1297.248, 965.4828
1297.730, 964.6024
1298.212, 962.9327
1298.694, 961.7513
1299.176, 961.7896
1299.658, 961.8361
1300.141, 961.1860
1300.623, 961.4762
1301.105, 964.2958
1301.587, 968.3776
1302.069, 971.7306
1302.551, 974.0784
1303.033, 974.7744
1303.515, 973.0353
1303.997, 970.7308
1304.479, 967.4312
1304.962, 965.4590
1305.444, 965.9489
##END=



