##NAMES=Senegalite
##RRUFFID=R050239
##IDEAL CHEMISTRY=Al_2_PO_4_(OH)_3_&#183;H_2_O
##LOCALITY=Kourondicko iron ore (magnetite) deposit, Faleme River Basin, Senegal
##OWNER=RRUFF
##SOURCE=Marcus Origlieri
##DESCRIPTION=Colorless prismatic crystals
##STATUS=The identification of this mineral has been confirmed by X-ray diffraction and chemical analysis
##URL=rruff.info/R050239
##MEASURED CHEMISTRY=Al_2.00_P_1.00_O_4_(OH)_3_Â·H_2_O
92.29974, 0.0000000E+00
92.78186, 0.0000000E+00
93.26398, 0.0000000E+00
93.74609, 37.42969
94.22821, 36.33751
94.71033, 36.68324
95.19244, 38.31442
95.67456, 40.61595
96.15668, 43.34972
96.63879, 46.54412
97.12091, 50.39550
97.60303, 55.00212
98.08514, 60.06338
98.56726, 64.96671
99.04938, 69.71092
99.53149, 74.83581
100.0136, 80.55605
100.4957, 86.84301
100.9778, 93.66814
101.4600, 100.7972
101.9421, 108.5842
102.4242, 118.0122
102.9063, 129.5700
103.3884, 141.7016
103.8705, 153.2565
104.3527, 164.2149
104.8348, 175.0475
105.3169, 185.9883
105.7990, 196.9268
106.2811, 207.7674
106.7632, 218.3667
107.2454, 228.9163
107.7275, 239.4316
108.2096, 250.3181
108.6917, 260.7771
109.1738, 270.3539
109.6559, 278.8042
110.1381, 288.5258
110.6202, 299.7069
111.1023, 312.1772
111.5844, 325.7625
112.0665, 340.2112
112.5486, 356.1705
113.0308, 374.0098
113.5129, 394.3031
113.9950, 415.2067
114.4771, 437.0034
114.9592, 459.0955
115.4413, 480.9030
115.9235, 501.6033
116.4056, 522.3807
116.8877, 543.5947
117.3698, 566.1259
117.8519, 588.1783
118.3340, 609.4652
118.8162, 629.8681
119.2983, 649.0137
119.7804, 666.3267
120.2625, 682.8123
120.7446, 699.1816
121.2267, 716.2118
121.7089, 732.5239
122.1910, 747.1281
122.6731, 760.2133
123.1552, 772.6252
123.6373, 784.3993
124.1194, 795.8760
124.6016, 807.6635
125.0837, 819.4721
125.5658, 831.7863
126.0479, 844.8060
126.5300, 858.5638
127.0121, 873.6026
127.4943, 890.0589
127.9764, 908.0431
128.4585, 928.2657
128.9406, 949.9625
129.4227, 974.1750
129.9048, 1002.564
130.3869, 1035.150
130.8691, 1071.707
131.3512, 1114.538
131.8333, 1162.440
132.3154, 1208.444
132.7975, 1251.962
133.2796, 1291.733
133.7618, 1320.253
134.2439, 1334.511
134.7260, 1331.870
135.2081, 1314.874
135.6902, 1286.606
136.1723, 1256.599
136.6545, 1228.273
137.1366, 1201.710
137.6187, 1178.145
138.1008, 1157.187
138.5829, 1139.289
139.0650, 1125.380
139.5472, 1115.807
140.0293, 1108.368
140.5114, 1101.640
140.9935, 1095.230
141.4756, 1091.045
141.9577, 1088.961
142.4399, 1089.075
142.9220, 1092.051
143.4041, 1098.585
143.8862, 1106.631
144.3683, 1115.588
144.8504, 1127.138
145.3326, 1135.646
145.8147, 1141.145
146.2968, 1143.465
146.7789, 1139.714
147.2610, 1126.499
147.7431, 1110.661
148.2253, 1096.645
148.7074, 1083.806
149.1895, 1073.776
149.6716, 1067.512
150.1537, 1065.042
150.6358, 1062.730
151.1180, 1060.044
151.6001, 1057.801
152.0822, 1056.719
152.5643, 1057.731
153.0464, 1058.894
153.5285, 1059.923
154.0107, 1060.774
154.4928, 1061.789
154.9749, 1063.291
155.4570, 1064.865
155.9391, 1066.100
156.4212, 1065.992
156.9034, 1066.450
157.3855, 1068.368
157.8676, 1072.193
158.3497, 1075.185
158.8318, 1075.554
159.3139, 1075.150
159.7961, 1076.321
160.2782, 1080.050
160.7603, 1085.106
161.2424, 1091.051
161.7245, 1097.861
162.2066, 1105.383
162.6888, 1112.117
163.1709, 1119.663
163.6530, 1130.627
164.1351, 1146.940
164.6172, 1166.224
165.0993, 1188.581
165.5815, 1216.584
166.0636, 1240.028
166.5457, 1258.013
167.0278, 1268.212
167.5099, 1265.714
167.9920, 1238.657
168.4742, 1203.423
168.9563, 1172.244
169.4384, 1146.781
169.9205, 1126.638
170.4026, 1112.583
170.8847, 1103.692
171.3669, 1097.717
171.8490, 1094.351
172.3311, 1092.871
172.8132, 1092.536
173.2953, 1093.211
173.7774, 1094.975
174.2596, 1097.927
174.7417, 1102.022
175.2238, 1107.123
175.7059, 1114.570
176.1880, 1122.550
176.6701, 1128.325
177.1523, 1130.705
177.6344, 1131.463
178.1165, 1132.374
178.5986, 1133.396
179.0807, 1134.281
179.5628, 1134.421
180.0450, 1134.328
180.5271, 1135.064
181.0092, 1137.071
181.4913, 1139.824
181.9734, 1142.740
182.4555, 1145.800
182.9377, 1148.661
183.4198, 1150.139
183.9019, 1151.110
184.3840, 1154.413
184.8661, 1162.347
185.3482, 1171.766
185.8304, 1176.514
186.3125, 1176.548
186.7946, 1175.033
187.2767, 1174.085
187.7588, 1173.737
188.2409, 1174.088
188.7231, 1174.634
189.2052, 1176.150
189.6873, 1180.890
190.1694, 1189.001
190.6515, 1198.854
191.1336, 1209.563
191.6158, 1220.977
192.0979, 1231.849
192.5800, 1242.355
193.0621, 1252.035
193.5442, 1259.886
194.0263, 1266.205
194.5085, 1269.468
194.9906, 1266.544
195.4727, 1257.705
195.9548, 1249.973
196.4369, 1245.228
196.9190, 1243.224
197.4012, 1242.717
197.8833, 1243.642
198.3654, 1246.309
198.8475, 1250.604
199.3296, 1256.452
199.8117, 1265.487
200.2939, 1278.412
200.7760, 1294.921
201.2581, 1313.405
201.7402, 1333.712
202.2223, 1356.136
202.7044, 1383.051
203.1866, 1415.432
203.6687, 1443.412
204.1508, 1466.521
204.6329, 1484.128
205.1150, 1484.999
205.5971, 1466.866
206.0793, 1436.990
206.5614, 1401.200
207.0435, 1358.155
207.5256, 1317.369
208.0077, 1280.796
208.4898, 1248.446
208.9720, 1221.897
209.4541, 1201.833
209.9362, 1186.339
210.4183, 1173.166
210.9004, 1162.197
211.3825, 1154.396
211.8647, 1150.676
212.3468, 1151.112
212.8289, 1150.721
213.3110, 1149.064
213.7931, 1147.225
214.2752, 1146.556
214.7574, 1147.329
215.2395, 1148.484
215.7216, 1149.709
216.2037, 1150.982
216.6858, 1153.090
217.1679, 1156.450
217.6500, 1160.143
218.1322, 1162.726
218.6143, 1163.192
219.0964, 1165.223
219.5785, 1170.347
220.0606, 1178.846
220.5427, 1184.908
221.0249, 1187.310
221.5070, 1188.589
221.9891, 1191.473
222.4712, 1196.049
222.9533, 1202.140
223.4354, 1210.005
223.9176, 1219.894
224.3997, 1228.756
224.8818, 1236.102
225.3639, 1243.050
225.8460, 1251.009
226.3281, 1260.388
226.8103, 1269.772
227.2924, 1278.053
227.7745, 1285.124
228.2566, 1295.915
228.7387, 1312.381
229.2208, 1330.500
229.7030, 1345.713
230.1851, 1357.033
230.6672, 1367.692
231.1493, 1378.297
231.6314, 1388.857
232.1135, 1399.101
232.5957, 1409.588
233.0778, 1419.166
233.5599, 1426.936
234.0420, 1434.252
234.5241, 1437.071
235.0062, 1434.147
235.4884, 1425.508
235.9705, 1414.228
236.4526, 1398.868
236.9347, 1382.208
237.4168, 1366.345
237.8989, 1349.986
238.3811, 1337.004
238.8632, 1328.544
239.3453, 1324.546
239.8274, 1322.109
240.3095, 1322.060
240.7916, 1322.599
241.2738, 1322.438
241.7559, 1322.279
242.2380, 1319.997
242.7201, 1314.916
243.2022, 1307.146
243.6843, 1299.044
244.1665, 1290.713
244.6486, 1281.910
245.1307, 1272.292
245.6128, 1261.077
246.0949, 1250.680
246.5770, 1241.336
247.0592, 1233.053
247.5413, 1225.906
248.0234, 1220.326
248.5055, 1215.412
248.9876, 1210.601
249.4697, 1205.686
249.9519, 1201.121
250.4340, 1196.366
250.9161, 1191.820
251.3982, 1190.327
251.8803, 1193.680
252.3624, 1197.553
252.8446, 1199.031
253.3267, 1196.797
253.8088, 1195.285
254.2909, 1194.744
254.7730, 1195.179
255.2551, 1196.660
255.7373, 1199.490
256.2194, 1202.886
256.7015, 1206.521
257.1836, 1210.757
257.6657, 1214.345
258.1478, 1217.153
258.6299, 1219.303
259.1121, 1221.109
259.5942, 1222.181
260.0763, 1223.644
260.5584, 1226.208
261.0405, 1230.320
261.5226, 1234.082
262.0048, 1237.455
262.4869, 1240.454
262.9690, 1243.021
263.4511, 1244.649
263.9332, 1246.894
264.4153, 1250.564
264.8975, 1256.120
265.3796, 1261.305
265.8617, 1265.865
266.3438, 1270.305
266.8259, 1275.757
267.3080, 1282.413
267.7902, 1289.433
268.2723, 1295.886
268.7544, 1301.389
269.2365, 1309.774
269.7186, 1321.234
270.2007, 1335.306
270.6829, 1351.181
271.1650, 1368.831
271.6471, 1388.301
272.1292, 1409.615
272.6113, 1432.809
273.0934, 1456.566
273.5756, 1481.719
274.0577, 1505.567
274.5398, 1525.790
275.0219, 1542.735
275.5040, 1553.631
275.9861, 1557.630
276.4683, 1554.820
276.9504, 1545.630
277.4325, 1529.117
277.9146, 1508.679
278.3967, 1486.200
278.8788, 1461.106
279.3610, 1440.153
279.8431, 1425.453
280.3252, 1416.433
280.8073, 1409.365
281.2894, 1404.046
281.7715, 1401.518
282.2537, 1403.304
282.7358, 1409.471
283.2179, 1416.679
283.7000, 1424.329
284.1821, 1432.605
284.6642, 1441.622
285.1464, 1451.312
285.6285, 1462.594
286.1106, 1476.192
286.5927, 1492.057
287.0748, 1509.464
287.5569, 1528.108
288.0391, 1548.592
288.5212, 1571.732
289.0033, 1597.608
289.4854, 1626.187
289.9675, 1658.348
290.4496, 1693.710
290.9318, 1729.717
291.4139, 1767.302
291.8960, 1803.381
292.3781, 1833.797
292.8602, 1858.650
293.3423, 1875.969
293.8245, 1886.445
294.3066, 1888.915
294.7887, 1878.236
295.2708, 1853.180
295.7529, 1819.812
296.2350, 1782.440
296.7172, 1742.230
297.1993, 1704.142
297.6814, 1668.786
298.1635, 1636.995
298.6456, 1611.180
299.1277, 1591.284
299.6099, 1576.237
300.0920, 1566.574
300.5741, 1561.222
301.0562, 1557.922
301.5383, 1557.842
302.0204, 1558.154
302.5026, 1555.072
302.9847, 1548.597
303.4668, 1539.298
303.9489, 1525.906
304.4310, 1510.256
304.9131, 1494.901
305.3953, 1480.053
305.8774, 1466.636
306.3595, 1455.375
306.8416, 1446.432
307.3237, 1440.429
307.8058, 1439.229
308.2880, 1440.796
308.7701, 1442.612
309.2522, 1443.878
309.7343, 1445.828
310.2164, 1449.246
310.6985, 1454.134
311.1807, 1460.389
311.6628, 1469.710
312.1449, 1479.475
312.6270, 1487.119
313.1091, 1492.035
313.5912, 1495.815
314.0734, 1498.637
314.5555, 1501.020
315.0376, 1503.945
315.5197, 1507.987
316.0018, 1512.545
316.4839, 1517.183
316.9661, 1521.859
317.4482, 1526.699
317.9303, 1531.319
318.4124, 1536.240
318.8945, 1542.148
319.3766, 1549.033
319.8588, 1557.158
320.3409, 1567.144
320.8230, 1579.002
321.3051, 1590.364
321.7872, 1599.944
322.2693, 1609.121
322.7515, 1618.987
323.2336, 1628.327
323.7157, 1639.936
324.1978, 1654.910
324.6799, 1672.803
325.1620, 1691.748
325.6442, 1711.932
326.1263, 1732.718
326.6084, 1753.798
327.0905, 1775.595
327.5726, 1797.004
328.0547, 1820.293
328.5369, 1843.167
329.0190, 1860.276
329.5011, 1872.260
329.9832, 1877.754
330.4653, 1876.228
330.9474, 1867.290
331.4296, 1852.373
331.9117, 1830.335
332.3938, 1802.794
332.8759, 1771.671
333.3580, 1733.876
333.8401, 1696.677
334.3223, 1661.701
334.8044, 1628.647
335.2865, 1599.119
335.7686, 1573.661
336.2507, 1551.378
336.7328, 1531.776
337.2150, 1514.545
337.6971, 1500.441
338.1792, 1490.035
338.6613, 1482.908
339.1434, 1475.775
339.6255, 1468.128
340.1076, 1461.608
340.5898, 1457.625
341.0719, 1456.611
341.5540, 1455.575
342.0361, 1454.657
342.5182, 1453.139
343.0003, 1449.213
343.4825, 1442.775
343.9646, 1434.891
344.4467, 1425.366
344.9288, 1414.527
345.4109, 1405.256
345.8930, 1397.884
346.3752, 1391.599
346.8573, 1385.211
347.3394, 1378.770
347.8215, 1373.561
348.3036, 1370.322
348.7857, 1368.673
349.2679, 1367.865
349.7500, 1367.961
350.2321, 1367.918
350.7142, 1366.005
351.1963, 1363.075
351.6784, 1361.642
352.1606, 1362.862
352.6427, 1365.485
353.1248, 1368.163
353.6069, 1370.860
354.0890, 1373.190
354.5711, 1374.436
355.0533, 1375.293
355.5354, 1376.711
356.0175, 1378.827
356.4996, 1381.671
356.9817, 1385.631
357.4638, 1390.394
357.9460, 1395.202
358.4281, 1399.295
358.9102, 1403.531
359.3923, 1408.808
359.8744, 1415.346
360.3565, 1421.601
360.8387, 1425.076
361.3208, 1428.172
361.8029, 1433.845
362.2850, 1447.017
362.7671, 1459.407
363.2492, 1466.398
363.7314, 1468.387
364.2135, 1471.328
364.6956, 1478.412
365.1777, 1486.382
365.6598, 1493.007
366.1419, 1498.891
366.6241, 1502.170
367.1062, 1501.116
367.5883, 1497.027
368.0704, 1493.684
368.5525, 1492.660
369.0346, 1491.532
369.5168, 1489.332
369.9989, 1485.555
370.4810, 1481.846
370.9631, 1478.508
371.4452, 1475.107
371.9273, 1470.911
372.4095, 1464.523
372.8916, 1459.485
373.3737, 1456.913
373.8558, 1456.895
374.3379, 1456.049
374.8200, 1453.310
375.3022, 1451.166
375.7843, 1452.245
376.2664, 1458.058
376.7485, 1462.010
377.2306, 1462.928
377.7127, 1461.565
378.1949, 1460.410
378.6770, 1459.656
379.1591, 1458.344
379.6412, 1455.393
380.1233, 1450.747
380.6054, 1448.050
381.0876, 1448.002
381.5697, 1448.488
382.0518, 1446.091
382.5339, 1440.983
383.0160, 1435.719
383.4981, 1430.958
383.9803, 1426.870
384.4624, 1424.465
384.9445, 1423.797
385.4266, 1423.361
385.9087, 1421.788
386.3908, 1419.402
386.8730, 1417.037
387.3551, 1414.978
387.8372, 1412.909
388.3193, 1410.375
388.8014, 1407.469
389.2835, 1404.538
389.7657, 1401.773
390.2478, 1399.104
390.7299, 1396.501
391.2120, 1393.971
391.6941, 1391.458
392.1762, 1388.022
392.6584, 1384.748
393.1405, 1383.297
393.6226, 1386.385
394.1047, 1389.703
394.5868, 1390.627
395.0689, 1389.158
395.5511, 1388.117
396.0332, 1388.760
396.5153, 1390.091
396.9974, 1391.344
397.4795, 1391.287
397.9616, 1392.396
398.4438, 1396.354
398.9259, 1402.004
399.4080, 1405.715
399.8901, 1404.819
400.3722, 1403.967
400.8543, 1404.816
401.3365, 1407.738
401.8186, 1411.395
402.3007, 1417.308
402.7828, 1423.019
403.2649, 1425.181
403.7470, 1421.350
404.2292, 1418.617
404.7113, 1418.733
405.1934, 1421.427
405.6755, 1423.549
406.1576, 1424.822
406.6397, 1426.116
407.1219, 1428.181
407.6040, 1431.156
408.0861, 1433.746
408.5682, 1435.681
409.0503, 1437.444
409.5324, 1440.036
410.0146, 1443.481
410.4967, 1447.368
410.9788, 1451.550
411.4609, 1455.997
411.9430, 1460.827
412.4251, 1466.099
412.9073, 1471.399
413.3894, 1476.593
413.8715, 1481.596
414.3536, 1486.039
414.8357, 1489.460
415.3178, 1492.701
415.8000, 1496.955
416.2821, 1502.036
416.7642, 1506.948
417.2463, 1510.810
417.7284, 1514.326
418.2105, 1518.381
418.6927, 1523.445
419.1748, 1527.866
419.6569, 1530.327
420.1390, 1531.661
420.6211, 1533.073
421.1032, 1533.387
421.5854, 1535.441
422.0675, 1541.625
422.5496, 1551.806
423.0317, 1560.501
423.5138, 1564.817
423.9959, 1568.171
424.4781, 1572.861
424.9602, 1579.239
425.4423, 1586.739
425.9244, 1596.335
426.4065, 1607.002
426.8886, 1616.402
427.3708, 1622.882
427.8529, 1630.280
428.3350, 1639.928
428.8171, 1652.129
429.2992, 1664.550
429.7813, 1677.387
430.2635, 1690.154
430.7456, 1702.371
431.2277, 1713.707
431.7098, 1725.607
432.1919, 1738.285
432.6740, 1751.686
433.1562, 1765.636
433.6383, 1780.106
434.1204, 1795.192
434.6025, 1810.550
435.0846, 1826.394
435.5667, 1844.501
436.0489, 1865.453
436.5310, 1887.055
437.0131, 1906.020
437.4952, 1923.198
437.9773, 1941.305
438.4594, 1962.524
438.9415, 1984.301
439.4236, 2003.353
439.9058, 2019.929
440.3879, 2035.001
440.8700, 2050.522
441.3521, 2064.497
441.8342, 2074.552
442.3163, 2079.652
442.7985, 2082.726
443.2806, 2085.416
443.7627, 2087.182
444.2448, 2087.211
444.7269, 2086.406
445.2090, 2082.677
445.6912, 2074.655
446.1733, 2062.291
446.6554, 2048.437
447.1375, 2032.670
447.6196, 2016.336
448.1017, 2000.245
448.5839, 1983.948
449.0660, 1968.726
449.5481, 1954.940
450.0302, 1942.246
450.5123, 1930.074
450.9944, 1918.927
451.4766, 1907.626
451.9587, 1895.428
452.4408, 1882.118
452.9229, 1871.168
453.4050, 1862.836
453.8871, 1855.875
454.3693, 1848.992
454.8514, 1842.116
455.3335, 1836.180
455.8156, 1831.028
456.2977, 1827.210
456.7798, 1825.523
457.2620, 1825.981
457.7441, 1829.010
458.2262, 1836.038
458.7083, 1845.564
459.1904, 1854.340
459.6725, 1862.178
460.1547, 1870.562
460.6368, 1880.296
461.1189, 1891.580
461.6010, 1904.570
462.0831, 1919.289
462.5652, 1935.755
463.0474, 1954.030
463.5295, 1974.045
464.0116, 1995.196
464.4937, 2017.177
464.9758, 2040.033
465.4579, 2063.513
465.9401, 2087.454
466.4222, 2112.387
466.9043, 2138.617
467.3864, 2165.624
467.8685, 2192.919
468.3506, 2222.115
468.8328, 2249.576
469.3149, 2274.217
469.7970, 2296.674
470.2791, 2320.050
470.7612, 2345.457
471.2433, 2369.859
471.7255, 2391.536
472.2076, 2409.878
472.6897, 2430.120
473.1718, 2453.391
473.6539, 2476.992
474.1360, 2497.286
474.6182, 2514.061
475.1003, 2532.204
475.5824, 2553.097
476.0645, 2575.747
476.5466, 2598.460
477.0287, 2621.138
477.5109, 2641.451
477.9930, 2659.683
478.4751, 2674.134
478.9572, 2682.646
479.4393, 2685.371
479.9214, 2678.531
480.4036, 2658.923
480.8857, 2627.727
481.3678, 2586.511
481.8499, 2533.031
482.3320, 2472.737
482.8141, 2406.847
483.2963, 2336.730
483.7784, 2267.126
484.2605, 2197.126
484.7426, 2131.176
485.2247, 2071.714
485.7068, 2020.281
486.1890, 1972.248
486.6711, 1925.835
487.1532, 1883.344
487.6353, 1846.435
488.1174, 1817.194
488.5995, 1791.467
489.0817, 1768.931
489.5638, 1749.694
490.0459, 1733.628
490.5280, 1721.039
491.0101, 1710.711
491.4922, 1702.161
491.9744, 1695.321
492.4565, 1690.103
492.9386, 1686.705
493.4207, 1683.685
493.9028, 1679.361
494.3849, 1673.924
494.8671, 1669.008
495.3492, 1665.056
495.8313, 1661.513
496.3134, 1657.253
496.7955, 1652.607
497.2776, 1648.692
497.7598, 1647.581
498.2419, 1646.779
498.7240, 1643.282
499.2061, 1636.962
499.6882, 1630.776
500.1703, 1626.813
500.6525, 1623.667
501.1346, 1619.961
501.6167, 1614.304
502.0988, 1609.613
502.5809, 1607.575
503.0630, 1606.954
503.5452, 1605.241
504.0273, 1601.388
504.5094, 1597.047
504.9915, 1592.228
505.4736, 1586.857
505.9557, 1582.862
506.4379, 1580.798
506.9200, 1579.346
507.4021, 1577.639
507.8842, 1575.598
508.3663, 1573.667
508.8484, 1572.022
509.3306, 1570.297
509.8127, 1567.910
510.2948, 1564.910
510.7769, 1561.370
511.2590, 1556.787
511.7411, 1552.034
512.2233, 1549.451
512.7054, 1548.903
513.1875, 1548.928
513.6696, 1548.627
514.1517, 1548.194
514.6339, 1547.945
515.1160, 1547.969
515.5981, 1547.862
516.0802, 1546.765
516.5623, 1545.499
517.0444, 1545.166
517.5266, 1547.837
518.0087, 1549.714
518.4908, 1548.531
518.9729, 1545.091
519.4550, 1543.130
519.9371, 1544.936
520.4193, 1546.844
520.9014, 1547.324
521.3835, 1545.927
521.8656, 1545.032
522.3477, 1544.683
522.8298, 1544.795
523.3120, 1545.450
523.7941, 1546.859
524.2762, 1547.766
524.7583, 1547.801
525.2404, 1547.484
525.7225, 1548.301
526.2047, 1550.250
526.6868, 1551.637
527.1689, 1550.699
527.6510, 1548.777
528.1331, 1549.892
528.6152, 1553.978
529.0974, 1557.961
529.5795, 1558.681
530.0616, 1558.104
530.5437, 1559.289
531.0258, 1563.660
531.5079, 1567.489
531.9901, 1567.036
532.4722, 1564.906
532.9543, 1565.135
533.4364, 1571.862
533.9185, 1578.228
534.4006, 1581.266
534.8828, 1581.387
535.3649, 1583.323
535.8470, 1588.647
536.3291, 1594.674
536.8112, 1600.530
537.2933, 1606.530
537.7755, 1610.784
538.2576, 1612.346
538.7397, 1613.399
539.2218, 1616.553
539.7039, 1621.986
540.1860, 1627.232
540.6682, 1631.921
541.1503, 1635.986
541.6324, 1639.176
542.1145, 1641.546
542.5966, 1643.758
543.0787, 1646.460
543.5609, 1649.115
544.0430, 1650.648
544.5251, 1651.109
545.0072, 1651.509
545.4893, 1652.401
545.9714, 1653.692
546.4536, 1655.501
546.9357, 1658.418
547.4178, 1660.382
547.8999, 1659.373
548.3820, 1657.248
548.8641, 1656.569
549.3463, 1659.908
549.8284, 1662.381
550.3105, 1662.132
550.7926, 1659.928
551.2747, 1659.971
551.7568, 1663.408
552.2390, 1667.219
552.7211, 1670.423
553.2032, 1673.126
553.6853, 1673.518
554.1674, 1670.992
554.6495, 1668.047
555.1317, 1667.245
555.6138, 1668.391
556.0959, 1669.906
556.5780, 1671.570
557.0601, 1673.450
557.5422, 1676.034
558.0244, 1678.986
558.5065, 1681.299
558.9886, 1682.340
559.4707, 1682.653
559.9528, 1682.198
560.4349, 1681.186
560.9171, 1680.879
561.3992, 1682.312
561.8813, 1684.261
562.3634, 1685.977
562.8455, 1687.329
563.3276, 1688.497
563.8098, 1689.321
564.2919, 1690.000
564.7740, 1690.754
565.2561, 1691.834
565.7382, 1692.359
566.2203, 1692.070
566.7025, 1691.263
567.1846, 1690.671
567.6667, 1690.315
568.1488, 1690.138
568.6309, 1690.391
569.1130, 1690.814
569.5952, 1690.119
570.0773, 1688.346
570.5594, 1686.838
571.0415, 1686.935
571.5236, 1687.850
572.0057, 1688.242
572.4879, 1687.887
572.9700, 1687.479
573.4521, 1687.946
573.9342, 1688.487
574.4163, 1688.102
574.8984, 1684.221
575.3806, 1681.939
575.8627, 1684.019
576.3448, 1688.792
576.8269, 1691.637
577.3090, 1690.202
577.7911, 1689.102
578.2733, 1689.572
578.7554, 1691.573
579.2375, 1693.601
579.7196, 1695.681
580.2017, 1697.705
580.6838, 1699.228
581.1660, 1700.259
581.6481, 1703.036
582.1302, 1707.977
582.6123, 1713.269
583.0944, 1716.449
583.5765, 1718.176
584.0587, 1720.258
584.5408, 1723.002
585.0229, 1726.630
585.5050, 1732.225
585.9871, 1738.953
586.4692, 1744.672
586.9513, 1747.976
587.4334, 1750.557
587.9155, 1752.262
588.3976, 1753.330
588.8798, 1757.072
589.3619, 1767.457
589.8440, 1777.889
590.3261, 1784.873
590.8082, 1786.887
591.2903, 1790.486
591.7725, 1796.458
592.2546, 1802.878
592.7367, 1807.594
593.2188, 1810.415
593.7009, 1813.291
594.1830, 1816.629
594.6652, 1819.951
595.1473, 1822.586
595.6294, 1824.589
596.1115, 1826.223
596.5936, 1827.602
597.0757, 1828.711
597.5579, 1829.297
598.0400, 1829.514
598.5221, 1830.106
599.0042, 1832.198
599.4863, 1834.308
599.9684, 1835.417
600.4506, 1835.314
600.9327, 1834.904
601.4148, 1833.682
601.8969, 1832.691
602.3790, 1832.739
602.8611, 1834.438
603.3433, 1836.044
603.8254, 1837.645
604.3075, 1838.981
604.7896, 1839.338
605.2717, 1838.480
605.7538, 1838.361
606.2360, 1839.667
606.7181, 1841.814
607.2002, 1843.432
607.6823, 1844.582
608.1644, 1845.747
608.6465, 1846.386
609.1287, 1847.609
609.6108, 1851.463
610.0929, 1857.828
610.5750, 1863.848
611.0571, 1867.361
611.5392, 1870.285
612.0214, 1874.060
612.5035, 1879.005
612.9856, 1884.680
613.4677, 1891.477
613.9498, 1898.808
614.4319, 1906.147
614.9141, 1913.656
615.3962, 1920.986
615.8783, 1927.888
616.3604, 1934.758
616.8425, 1942.424
617.3246, 1950.923
617.8068, 1959.490
618.2889, 1968.182
618.7710, 1976.345
619.2531, 1981.578
619.7352, 1984.239
620.2173, 1987.040
620.6995, 1993.865
621.1816, 2000.651
621.6637, 2002.013
622.1458, 1997.578
622.6279, 1992.279
623.1100, 1988.961
623.5922, 1985.667
624.0743, 1980.739
624.5564, 1972.804
625.0385, 1965.412
625.5206, 1959.401
626.0027, 1953.894
626.4849, 1947.937
626.9670, 1941.260
627.4491, 1934.868
627.9312, 1929.284
628.4133, 1923.770
628.8954, 1916.093
629.3776, 1906.285
629.8597, 1896.951
630.3418, 1889.289
630.8239, 1882.666
631.3060, 1875.624
631.7881, 1868.336
632.2703, 1861.924
632.7524, 1857.914
633.2345, 1854.556
633.7166, 1850.355
634.1987, 1845.174
634.6808, 1839.346
635.1630, 1832.598
635.6451, 1825.478
636.1272, 1818.325
636.6093, 1810.971
637.0914, 1803.999
637.5735, 1797.291
638.0557, 1791.126
638.5378, 1786.325
639.0199, 1783.294
639.5020, 1779.120
639.9841, 1773.127
640.4662, 1765.962
640.9484, 1757.996
641.4305, 1749.573
641.9126, 1742.656
642.3947, 1738.690
642.8768, 1736.226
643.3589, 1733.457
643.8411, 1730.557
644.3232, 1728.363
644.8053, 1728.452
645.2874, 1728.407
645.7695, 1726.534
646.2516, 1722.522
646.7338, 1718.783
647.2159, 1716.124
647.6980, 1713.449
648.1801, 1710.174
648.6622, 1706.006
649.1443, 1701.998
649.6265, 1698.232
650.1086, 1694.409
650.5907, 1690.606
651.0728, 1686.704
651.5549, 1680.938
652.0370, 1672.317
652.5192, 1663.592
653.0013, 1659.602
653.4834, 1658.627
653.9655, 1656.631
654.4476, 1650.125
654.9297, 1643.962
655.4119, 1642.057
655.8940, 1643.063
656.3761, 1642.811
656.8582, 1639.054
657.3403, 1634.907
657.8224, 1631.016
658.3046, 1627.445
658.7867, 1625.185
659.2688, 1624.722
659.7509, 1624.625
660.2330, 1624.200
660.7151, 1623.441
661.1973, 1622.499
661.6794, 1621.340
662.1615, 1620.225
662.6436, 1619.304
663.1257, 1618.621
663.6078, 1618.203
664.0900, 1618.002
664.5721, 1618.378
665.0542, 1620.135
665.5363, 1622.432
666.0184, 1624.218
666.5005, 1624.388
666.9827, 1625.095
667.4648, 1627.489
667.9469, 1630.598
668.4290, 1632.423
668.9111, 1631.488
669.3932, 1632.067
669.8754, 1635.349
670.3575, 1640.499
670.8396, 1644.907
671.3217, 1648.525
671.8038, 1651.899
672.2859, 1655.800
672.7681, 1659.386
673.2502, 1660.289
673.7323, 1658.899
674.2144, 1658.047
674.6965, 1661.248
675.1786, 1664.705
675.6608, 1664.585
676.1429, 1660.343
676.6250, 1656.919
677.1071, 1657.294
677.5892, 1657.944
678.0714, 1656.393
678.5535, 1651.516
679.0356, 1647.530
679.5177, 1644.885
679.9998, 1642.509
680.4819, 1638.955
680.9641, 1634.113
681.4462, 1631.100
681.9283, 1630.655
682.4104, 1631.023
682.8925, 1629.761
683.3746, 1627.351
683.8568, 1625.153
684.3389, 1623.682
684.8210, 1622.425
685.3031, 1620.659
685.7852, 1618.859
686.2673, 1618.009
686.7495, 1618.958
687.2316, 1620.323
687.7137, 1622.283
688.1958, 1624.454
688.6779, 1624.980
689.1600, 1622.854
689.6422, 1621.299
690.1243, 1621.559
690.6064, 1623.448
691.0885, 1626.158
691.5706, 1629.744
692.0527, 1632.485
692.5349, 1632.131
693.0170, 1630.557
693.4991, 1631.091
693.9812, 1633.889
694.4633, 1637.302
694.9454, 1641.145
695.4276, 1644.559
695.9097, 1646.605
696.3918, 1646.302
696.8739, 1647.199
697.3560, 1650.370
697.8381, 1654.494
698.3203, 1658.743
698.8024, 1663.443
699.2845, 1667.134
699.7666, 1669.494
700.2487, 1671.272
700.7308, 1673.472
701.2130, 1676.026
701.6951, 1678.412
702.1772, 1680.397
702.6593, 1682.444
703.1414, 1685.555
703.6235, 1689.055
704.1057, 1691.616
704.5878, 1691.953
705.0699, 1692.054
705.5520, 1692.830
706.0341, 1694.014
706.5162, 1694.720
706.9984, 1694.474
707.4805, 1694.439
707.9626, 1695.356
708.4447, 1696.716
708.9268, 1695.461
709.4089, 1691.275
709.8911, 1686.998
710.3732, 1683.971
710.8553, 1681.939
711.3374, 1680.572
711.8195, 1679.774
712.3016, 1678.758
712.7838, 1676.909
713.2659, 1674.666
713.7480, 1672.222
714.2301, 1669.557
714.7122, 1667.324
715.1943, 1666.824
715.6765, 1665.864
716.1586, 1663.024
716.6407, 1657.588
717.1228, 1653.020
717.6049, 1649.302
718.0870, 1646.466
718.5692, 1644.674
719.0513, 1643.887
719.5334, 1643.888
720.0155, 1644.841
720.4976, 1645.472
720.9797, 1644.145
721.4619, 1641.680
721.9440, 1639.250
722.4261, 1636.920
722.9082, 1635.295
723.3903, 1635.247
723.8724, 1635.823
724.3546, 1635.774
724.8367, 1634.259
725.3188, 1633.023
725.8009, 1631.956
726.2830, 1631.366
726.7651, 1632.229
727.2473, 1634.783
727.7294, 1636.177
728.2115, 1635.285
728.6936, 1633.396
729.1757, 1632.748
729.6578, 1633.131
730.1400, 1633.817
730.6221, 1634.902
731.1042, 1635.791
731.5863, 1636.296
732.0684, 1636.303
732.5505, 1635.421
733.0327, 1632.325
733.5148, 1629.665
733.9969, 1628.208
734.4790, 1627.882
734.9611, 1628.296
735.4432, 1629.878
735.9254, 1630.756
736.4075, 1629.550
736.8896, 1626.977
737.3717, 1626.107
737.8538, 1626.829
738.3359, 1627.501
738.8181, 1626.399
739.3002, 1625.059
739.7823, 1625.523
740.2644, 1627.852
740.7465, 1629.238
741.2286, 1626.845
741.7108, 1624.595
742.1929, 1625.146
742.6750, 1629.200
743.1571, 1631.840
743.6392, 1632.615
744.1213, 1632.816
744.6035, 1633.640
745.0856, 1634.954
745.5677, 1634.587
746.0498, 1632.279
746.5319, 1629.985
747.0140, 1629.589
747.4962, 1630.370
747.9783, 1631.516
748.4604, 1633.145
748.9425, 1633.980
749.4246, 1632.440
749.9067, 1630.411
750.3889, 1629.676
750.8710, 1631.755
751.3531, 1632.755
751.8352, 1632.472
752.3173, 1631.419
752.7994, 1629.637
753.2816, 1627.060
753.7637, 1626.889
754.2458, 1630.142
754.7279, 1633.774
755.2100, 1633.527
755.6921, 1630.919
756.1743, 1628.883
756.6564, 1627.961
757.1385, 1628.434
757.6206, 1632.279
758.1027, 1637.043
758.5848, 1639.055
759.0670, 1634.812
759.5491, 1632.065
760.0312, 1631.922
760.5133, 1633.267
760.9954, 1633.999
761.4775, 1634.079
761.9597, 1634.342
762.4418, 1635.109
762.9239, 1635.975
763.4060, 1636.266
763.8881, 1636.104
764.3702, 1635.824
764.8524, 1634.844
765.3345, 1634.519
765.8166, 1636.195
766.2987, 1639.074
766.7808, 1641.127
767.2629, 1642.043
767.7451, 1641.989
768.2272, 1640.427
768.7093, 1638.082
769.1914, 1637.388
769.6735, 1638.508
770.1556, 1639.470
770.6378, 1639.371
771.1199, 1638.788
771.6020, 1638.938
772.0841, 1639.584
772.5662, 1639.868
773.0483, 1638.505
773.5305, 1637.408
774.0126, 1638.111
774.4947, 1640.231
774.9768, 1641.619
775.4589, 1641.378
775.9410, 1641.167
776.4232, 1641.559
776.9053, 1642.380
777.3874, 1642.380
777.8695, 1641.465
778.3516, 1640.965
778.8337, 1641.895
779.3159, 1643.564
779.7980, 1644.789
780.2801, 1645.559
780.7622, 1645.850
781.2443, 1645.109
781.7264, 1644.356
782.2086, 1643.967
782.6907, 1644.003
783.1728, 1645.133
783.6548, 1648.260
784.1370, 1651.184
784.6191, 1653.195
785.1012, 1654.289
785.5833, 1654.208
786.0654, 1652.821
786.5475, 1652.156
787.0297, 1654.348
787.5118, 1657.761
787.9939, 1659.662
788.4760, 1660.080
788.9581, 1659.575
789.4402, 1657.746
789.9224, 1655.685
790.4045, 1653.751
790.8866, 1651.953
791.3687, 1651.599
791.8508, 1653.588
792.3329, 1655.582
792.8151, 1656.350
793.2972, 1656.052
793.7793, 1656.502
794.2614, 1657.730
794.7435, 1658.859
795.2256, 1658.816
795.7078, 1658.531
796.1899, 1659.262
796.6720, 1661.030
797.1541, 1663.171
797.6362, 1666.367
798.1183, 1668.989
798.6005, 1669.898
799.0826, 1668.981
799.5647, 1667.789
800.0468, 1665.865
800.5289, 1664.633
801.0110, 1664.923
801.4932, 1666.626
801.9753, 1669.457
802.4574, 1673.367
802.9395, 1676.636
803.4216, 1678.155
803.9037, 1678.315
804.3859, 1676.997
804.8680, 1674.273
805.3501, 1672.230
805.8322, 1671.148
806.3143, 1671.346
806.7964, 1673.124
807.2786, 1676.534
807.7607, 1680.364
808.2428, 1685.141
808.7249, 1688.442
809.2070, 1686.908
809.6891, 1682.734
810.1713, 1684.353
810.6534, 1691.345
811.1355, 1697.328
811.6176, 1697.281
812.0997, 1695.103
812.5818, 1692.840
813.0640, 1690.656
813.5461, 1691.303
814.0282, 1698.162
814.5103, 1704.465
814.9924, 1707.081
815.4745, 1706.141
815.9567, 1705.926
816.4388, 1706.426
816.9209, 1707.485
817.4030, 1709.496
817.8851, 1711.806
818.3672, 1712.994
818.8494, 1713.194
819.3315, 1713.684
819.8136, 1715.781
820.2957, 1717.853
820.7778, 1718.807
821.2599, 1718.584
821.7421, 1718.920
822.2242, 1720.208
822.7063, 1721.305
823.1884, 1721.582
823.6705, 1721.239
824.1526, 1721.339
824.6348, 1721.854
825.1169, 1722.434
825.5990, 1722.717
826.0811, 1723.014
826.5632, 1724.019
827.0453, 1725.486
827.5275, 1725.970
828.0096, 1723.563
828.4917, 1721.579
828.9738, 1721.493
829.4559, 1722.978
829.9380, 1723.398
830.4202, 1722.464
830.9023, 1722.117
831.3844, 1723.872
831.8665, 1726.454
832.3486, 1726.436
832.8307, 1724.436
833.3129, 1723.138
833.7950, 1725.821
834.2771, 1727.939
834.7592, 1725.626
835.2413, 1720.081
835.7234, 1717.394
836.2056, 1719.667
836.6877, 1721.859
837.1698, 1722.897
837.6519, 1722.803
838.1340, 1721.074
838.6161, 1717.824
839.0983, 1715.641
839.5804, 1716.139
840.0625, 1717.614
840.5446, 1718.094
841.0267, 1717.954
841.5089, 1718.116
841.9910, 1719.952
842.4731, 1720.922
842.9552, 1719.576
843.4373, 1717.106
843.9194, 1716.109
844.4016, 1717.048
844.8837, 1717.423
845.3658, 1716.602
845.8479, 1715.058
846.3300, 1713.181
846.8121, 1711.252
847.2943, 1710.066
847.7764, 1710.143
848.2585, 1710.685
848.7406, 1711.807
849.2227, 1712.932
849.7048, 1713.073
850.1870, 1711.125
850.6691, 1710.014
851.1512, 1710.166
851.6333, 1710.973
852.1154, 1711.806
852.5975, 1712.585
853.0797, 1712.435
853.5618, 1710.971
854.0439, 1709.418
854.5260, 1708.886
855.0081, 1709.068
855.4902, 1709.544
855.9724, 1710.143
856.4545, 1711.198
856.9366, 1713.293
857.4187, 1715.418
857.9008, 1716.768
858.3829, 1717.312
858.8651, 1716.812
859.3472, 1714.978
859.8293, 1713.352
860.3114, 1714.092
860.7935, 1715.977
861.2756, 1716.823
861.7578, 1716.305
862.2399, 1715.129
862.7220, 1713.158
863.2041, 1711.044
863.6862, 1709.151
864.1683, 1707.443
864.6505, 1706.703
865.1326, 1707.470
865.6147, 1707.854
866.0968, 1705.825
866.5789, 1702.258
867.0610, 1700.787
867.5432, 1701.414
868.0253, 1702.900
868.5074, 1705.290
868.9895, 1707.505
869.4716, 1708.738
869.9537, 1708.950
870.4359, 1708.396
870.9180, 1705.491
871.4001, 1704.438
871.8822, 1707.709
872.3643, 1714.041
872.8464, 1716.597
873.3286, 1715.541
873.8107, 1713.990
874.2928, 1713.488
874.7749, 1713.436
875.2570, 1713.068
875.7391, 1712.594
876.2213, 1712.690
876.7034, 1715.007
877.1855, 1716.149
877.6676, 1714.819
878.1497, 1712.062
878.6318, 1710.436
879.1140, 1710.049
879.5961, 1710.045
880.0782, 1710.266
880.5603, 1710.672
881.0424, 1711.298
881.5245, 1712.071
882.0067, 1712.834
882.4888, 1713.765
882.9709, 1714.357
883.4530, 1713.906
883.9351, 1713.294
884.4172, 1713.557
884.8994, 1714.717
885.3815, 1716.947
885.8636, 1720.735
886.3457, 1724.018
886.8278, 1723.443
887.3099, 1720.485
887.7921, 1718.722
888.2742, 1718.833
888.7563, 1719.498
889.2384, 1720.073
889.7205, 1720.753
890.2026, 1721.591
890.6848, 1722.351
891.1669, 1724.601
891.6490, 1729.230
892.1311, 1733.206
892.6132, 1733.851
893.0953, 1731.951
893.5775, 1730.932
894.0596, 1730.786
894.5417, 1730.338
895.0238, 1727.506
895.5059, 1725.126
895.9880, 1725.952
896.4702, 1729.836
896.9523, 1732.183
897.4344, 1732.012
897.9165, 1731.608
898.3986, 1731.828
898.8807, 1732.351
899.3629, 1731.736
899.8450, 1730.189
900.3271, 1729.330
900.8092, 1730.622
901.2913, 1732.149
901.7734, 1732.145
902.2556, 1731.171
902.7377, 1730.395
903.2198, 1730.295
903.7019, 1730.126
904.1840, 1729.579
904.6661, 1729.163
905.1483, 1729.982
905.6304, 1731.954
906.1125, 1733.317
906.5946, 1733.679
907.0767, 1733.634
907.5588, 1733.766
908.0410, 1733.840
908.5231, 1733.484
909.0052, 1732.259
909.4873, 1731.535
909.9694, 1731.567
910.4515, 1732.015
910.9337, 1732.648
911.4158, 1733.450
911.8979, 1734.799
912.3800, 1736.748
912.8621, 1738.160
913.3442, 1737.246
913.8264, 1735.812
914.3085, 1736.555
914.7906, 1739.401
915.2727, 1740.673
915.7548, 1737.195
916.2369, 1734.244
916.7191, 1734.132
917.2012, 1736.155
917.6833, 1736.058
918.1654, 1733.795
918.6475, 1731.635
919.1296, 1730.225
919.6118, 1729.880
920.0939, 1731.905
920.5760, 1735.284
921.0581, 1737.608
921.5402, 1737.143
922.0223, 1736.695
922.5045, 1736.842
922.9866, 1737.284
923.4687, 1737.624
923.9508, 1737.852
924.4329, 1737.811
924.9150, 1737.373
925.3972, 1737.036
925.8793, 1737.505
926.3614, 1738.348
926.8435, 1738.823
927.3256, 1738.545
927.8077, 1738.835
928.2899, 1741.052
928.7720, 1743.036
929.2541, 1743.438
929.7362, 1742.161
930.2183, 1740.916
930.7004, 1739.651
931.1826, 1739.378
931.6647, 1742.169
932.1468, 1745.620
932.6289, 1746.781
933.1110, 1745.763
933.5931, 1743.576
934.0753, 1737.433
934.5574, 1734.008
935.0395, 1736.160
935.5216, 1742.160
936.0037, 1746.685
936.4858, 1749.805
936.9680, 1750.783
937.4501, 1748.676
937.9322, 1745.766
938.4143, 1744.359
938.8964, 1744.261
939.3785, 1745.252
939.8607, 1748.198
940.3428, 1750.592
940.8249, 1751.969
941.3070, 1752.625
941.7891, 1752.421
942.2712, 1751.250
942.7534, 1751.957
943.2355, 1754.886
943.7176, 1757.719
944.1997, 1758.650
944.6818, 1758.274
945.1639, 1756.879
945.6461, 1754.520
946.1282, 1752.704
946.6103, 1751.786
947.0924, 1751.590
947.5745, 1752.254
948.0566, 1753.638
948.5388, 1755.466
949.0209, 1757.645
949.5030, 1758.052
949.9851, 1754.102
950.4672, 1749.710
950.9493, 1748.883
951.4315, 1750.487
951.9136, 1752.288
952.3957, 1754.518
952.8778, 1755.694
953.3599, 1755.146
953.8420, 1754.162
954.3242, 1754.749
954.8063, 1756.638
955.2884, 1757.810
955.7705, 1757.955
956.2526, 1757.543
956.7347, 1755.523
957.2169, 1754.067
957.6990, 1755.906
958.1811, 1762.409
958.6632, 1765.812
959.1453, 1764.733
959.6274, 1762.788
960.1096, 1761.412
960.5917, 1760.722
961.0738, 1762.136
961.5559, 1765.133
962.0380, 1766.566
962.5201, 1762.254
963.0023, 1758.322
963.4844, 1759.018
963.9665, 1762.860
964.4486, 1765.917
964.9307, 1768.420
965.4128, 1768.971
965.8950, 1766.755
966.3771, 1763.885
966.8592, 1763.481
967.3413, 1764.854
967.8234, 1766.258
968.3055, 1767.382
968.7877, 1768.381
969.2698, 1769.263
969.7519, 1770.134
970.2340, 1771.229
970.7161, 1772.690
971.1982, 1773.118
971.6804, 1772.421
972.1625, 1771.208
972.6446, 1769.105
973.1267, 1767.073
973.6088, 1766.922
974.0909, 1768.421
974.5731, 1770.730
975.0552, 1774.390
975.5373, 1777.743
976.0194, 1780.523
976.5015, 1782.554
976.9836, 1782.952
977.4658, 1781.504
977.9479, 1782.196
978.4300, 1786.253
978.9121, 1790.643
979.3942, 1791.827
979.8763, 1791.397
980.3585, 1791.389
980.8406, 1792.216
981.3226, 1793.417
981.8047, 1795.792
982.2869, 1797.402
982.7690, 1796.499
983.2511, 1793.603
983.7332, 1793.947
984.2153, 1797.321
984.6974, 1800.689
985.1796, 1801.665
985.6617, 1802.466
986.1438, 1804.581
986.6259, 1807.867
987.1080, 1811.927
987.5901, 1817.190
988.0723, 1822.466
988.5544, 1828.377
989.0365, 1832.659
989.5186, 1829.834
990.0007, 1822.464
990.4828, 1818.816
990.9650, 1820.746
991.4471, 1823.911
991.9292, 1826.128
992.4113, 1828.328
992.8934, 1831.591
993.3755, 1836.094
993.8577, 1838.541
994.3398, 1838.533
994.8219, 1838.652
995.3040, 1839.986
995.7861, 1842.594
996.2682, 1847.468
996.7504, 1853.751
997.2325, 1859.077
997.7146, 1860.640
998.1967, 1863.639
998.6788, 1870.947
999.1609, 1878.940
999.6431, 1881.281
1000.125, 1878.022
1000.607, 1878.098
1001.089, 1882.860
1001.572, 1889.503
1002.054, 1896.486
1002.536, 1903.362
1003.018, 1909.701
1003.500, 1915.270
1003.982, 1921.211
1004.464, 1927.776
1004.946, 1934.161
1005.428, 1939.348
1005.911, 1944.421
1006.393, 1953.184
1006.875, 1964.970
1007.357, 1976.388
1007.839, 1985.392
1008.321, 1994.619
1008.803, 2006.623
1009.285, 2019.116
1009.768, 2028.367
1010.250, 2032.429
1010.732, 2041.588
1011.214, 2057.155
1011.696, 2073.493
1012.178, 2084.381
1012.660, 2092.518
1013.142, 2102.039
1013.624, 2113.204
1014.107, 2124.375
1014.589, 2134.860
1015.071, 2145.248
1015.553, 2155.276
1016.035, 2165.437
1016.517, 2178.087
1016.999, 2192.835
1017.481, 2205.717
1017.964, 2213.910
1018.446, 2223.037
1018.928, 2239.181
1019.410, 2258.618
1019.892, 2276.789
1020.374, 2292.691
1020.856, 2308.304
1021.338, 2323.704
1021.820, 2338.653
1022.303, 2351.845
1022.785, 2364.605
1023.267, 2380.488
1023.749, 2399.183
1024.231, 2418.482
1024.713, 2438.442
1025.195, 2457.520
1025.677, 2474.746
1026.160, 2490.818
1026.642, 2507.548
1027.124, 2525.004
1027.606, 2541.663
1028.088, 2557.101
1028.570, 2572.508
1029.052, 2591.045
1029.534, 2609.401
1030.016, 2623.835
1030.499, 2633.271
1030.981, 2641.769
1031.463, 2651.387
1031.945, 2657.135
1032.427, 2655.819
1032.909, 2649.048
1033.391, 2642.879
1033.873, 2636.352
1034.355, 2625.388
1034.838, 2604.671
1035.320, 2582.926
1035.802, 2565.598
1036.284, 2548.753
1036.766, 2527.517
1037.248, 2501.653
1037.730, 2472.866
1038.212, 2441.243
1038.695, 2408.656
1039.177, 2376.645
1039.659, 2345.192
1040.141, 2314.396
1040.623, 2284.351
1041.105, 2256.316
1041.587, 2229.673
1042.069, 2206.093
1042.552, 2186.723
1043.034, 2169.605
1043.516, 2149.753
1043.998, 2127.764
1044.480, 2107.067
1044.962, 2087.877
1045.444, 2071.270
1045.926, 2059.532
1046.408, 2049.484
1046.891, 2038.266
1047.373, 2025.498
1047.855, 2014.755
1048.337, 2006.145
1048.819, 1998.748
1049.301, 1992.458
1049.783, 1986.737
1050.265, 1979.938
1050.747, 1973.089
1051.230, 1968.865
1051.712, 1970.678
1052.194, 1971.395
1052.676, 1970.132
1053.158, 1967.873
1053.640, 1965.286
1054.122, 1962.739
1054.604, 1961.730
1055.087, 1962.414
1055.569, 1964.173
1056.051, 1968.064
1056.533, 1971.548
1057.015, 1971.745
1057.497, 1970.079
1057.979, 1974.274
1058.461, 1984.907
1058.943, 1994.275
1059.426, 1999.549
1059.908, 2003.570
1060.390, 2009.598
1060.872, 2016.611
1061.354, 2023.315
1061.836, 2029.472
1062.318, 2034.958
1062.800, 2039.557
1063.282, 2043.990
1063.765, 2048.848
1064.247, 2053.952
1064.729, 2059.380
1065.211, 2064.639
1065.693, 2067.532
1066.175, 2067.456
1066.657, 2064.208
1067.139, 2055.648
1067.622, 2045.110
1068.104, 2037.091
1068.586, 2031.763
1069.068, 2024.995
1069.550, 2016.359
1070.032, 2006.029
1070.514, 1991.991
1070.996, 1978.010
1071.479, 1967.748
1071.961, 1961.183
1072.443, 1953.543
1072.925, 1944.071
1073.407, 1934.944
1073.889, 1926.299
1074.371, 1919.016
1074.853, 1915.143
1075.335, 1913.266
1075.818, 1910.297
1076.300, 1904.648
1076.782, 1901.056
1077.264, 1903.370
1077.746, 1905.105
1078.228, 1901.795
1078.710, 1894.654
1079.192, 1892.002
1079.674, 1893.305
1080.156, 1894.629
1080.639, 1894.156
1081.121, 1892.816
1081.603, 1890.715
1082.085, 1888.231
1082.567, 1885.926
1083.049, 1883.706
1083.531, 1882.226
1084.013, 1881.600
1084.496, 1880.960
1084.978, 1879.392
1085.460, 1877.490
1085.942, 1876.147
1086.424, 1875.203
1086.906, 1873.341
1087.388, 1869.527
1087.870, 1866.586
1088.353, 1865.372
1088.835, 1864.754
1089.317, 1862.803
1089.799, 1860.016
1090.281, 1857.419
1090.763, 1855.134
1091.245, 1853.554
1091.727, 1854.273
1092.209, 1854.096
1092.692, 1850.687
1093.174, 1845.189
1093.656, 1844.330
1094.138, 1847.501
1094.620, 1849.352
1095.102, 1847.027
1095.584, 1844.161
1096.066, 1843.628
1096.548, 1843.828
1097.031, 1842.799
1097.513, 1840.215
1097.995, 1837.779
1098.477, 1835.484
1098.959, 1833.499
1099.441, 1831.766
1099.923, 1830.570
1100.405, 1830.759
1100.888, 1831.738
1101.370, 1831.780
1101.852, 1829.930
1102.334, 1828.144
1102.816, 1826.528
1103.298, 1825.131
1103.780, 1824.174
1104.262, 1823.403
1104.745, 1822.007
1105.227, 1819.973
1105.709, 1818.477
1106.191, 1818.740
1106.673, 1818.685
1107.155, 1817.166
1107.637, 1815.243
1108.119, 1816.133
1108.601, 1819.223
1109.083, 1820.299
1109.566, 1818.057
1110.048, 1815.788
1110.530, 1816.402
1111.012, 1817.282
1111.494, 1815.786
1111.976, 1812.195
1112.458, 1812.099
1112.940, 1815.667
1113.423, 1818.940
1113.905, 1820.528
1114.387, 1820.680
1114.869, 1818.239
1115.351, 1815.138
1115.833, 1814.450
1116.315, 1818.240
1116.797, 1819.200
1117.280, 1816.506
1117.762, 1814.029
1118.244, 1815.000
1118.726, 1817.709
1119.208, 1819.586
1119.690, 1820.761
1120.172, 1821.671
1120.654, 1822.500
1121.136, 1822.915
1121.619, 1822.633
1122.101, 1822.355
1122.583, 1822.873
1123.065, 1824.022
1123.547, 1825.515
1124.029, 1827.256
1124.511, 1828.599
1124.993, 1829.752
1125.475, 1829.727
1125.958, 1828.085
1126.440, 1825.298
1126.922, 1821.619
1127.404, 1817.370
1127.886, 1815.350
1128.368, 1816.203
1128.850, 1818.039
1129.332, 1819.974
1129.815, 1822.015
1130.297, 1824.324
1130.779, 1826.804
1131.261, 1829.108
1131.743, 1831.275
1132.225, 1831.872
1132.707, 1829.814
1133.189, 1827.615
1133.672, 1827.668
1134.154, 1828.949
1134.636, 1830.390
1135.118, 1831.859
1135.600, 1833.396
1136.082, 1834.949
1136.564, 1836.919
1137.046, 1840.207
1137.528, 1843.332
1138.010, 1842.870
1138.493, 1840.985
1138.975, 1841.691
1139.457, 1848.829
1139.939, 1853.906
1140.421, 1856.337
1140.903, 1857.913
1141.385, 1859.625
1141.867, 1861.732
1142.350, 1865.006
1142.832, 1869.250
1143.314, 1873.809
1143.796, 1878.771
1144.278, 1883.525
1144.760, 1888.102
1145.242, 1892.258
1145.724, 1895.048
1146.207, 1897.125
1146.689, 1900.939
1147.171, 1906.581
1147.653, 1913.152
1148.135, 1921.101
1148.617, 1928.646
1149.099, 1935.546
1149.581, 1941.478
1150.063, 1945.256
1150.546, 1947.265
1151.028, 1950.843
1151.510, 1956.664
1151.992, 1961.548
1152.474, 1964.033
1152.956, 1964.136
1153.438, 1960.322
1153.920, 1954.246
1154.402, 1953.733
1154.885, 1958.571
1155.367, 1959.670
1155.849, 1953.724
1156.331, 1946.099
1156.813, 1940.448
1157.295, 1935.900
1157.777, 1932.099
1158.259, 1928.981
1158.742, 1924.307
1159.224, 1918.036
1159.706, 1911.452
1160.188, 1904.913
1160.670, 1898.641
1161.152, 1892.567
1161.634, 1887.034
1162.116, 1882.661
1162.599, 1879.798
1163.081, 1876.397
1163.563, 1872.167
1164.045, 1868.734
1164.527, 1867.729
1165.009, 1867.469
1165.491, 1865.692
1165.973, 1862.963
1166.455, 1860.437
1166.938, 1858.278
1167.420, 1856.347
1167.902, 1854.511
1168.384, 1853.375
1168.866, 1854.426
1169.348, 1855.966
1169.830, 1854.781
1170.312, 1851.603
1170.794, 1848.936
1171.277, 1847.544
1171.759, 1846.585
1172.241, 1845.711
1172.723, 1845.923
1173.205, 1849.837
1173.687, 1854.975
1174.169, 1856.169
1174.651, 1853.583
1175.134, 1850.667
1175.616, 1847.684
1176.098, 1845.703
1176.580, 1844.867
1177.062, 1845.114
1177.544, 1846.956
1178.026, 1849.656
1178.508, 1851.819
1178.990, 1853.240
1179.473, 1852.908
1179.955, 1847.938
1180.437, 1844.424
1180.919, 1844.609
1181.401, 1846.536
1181.883, 1846.222
1182.365, 1844.364
1182.847, 1843.074
1183.329, 1842.764
1183.812, 1842.753
1184.294, 1843.081
1184.776, 1843.274
1185.258, 1843.087
1185.740, 1842.691
1186.222, 1842.785
1186.704, 1843.137
1187.186, 1842.680
1187.669, 1840.841
1188.151, 1839.365
1188.633, 1838.863
1189.115, 1839.297
1189.597, 1840.871
1190.079, 1843.264
1190.561, 1845.140
1191.043, 1846.529
1191.526, 1847.543
1192.008, 1848.145
1192.490, 1848.485
1192.972, 1848.875
1193.454, 1848.714
1193.936, 1847.288
1194.418, 1844.849
1194.900, 1843.915
1195.382, 1844.329
1195.865, 1845.037
1196.347, 1846.132
1196.829, 1846.568
1197.311, 1845.105
1197.793, 1843.409
1198.275, 1842.831
1198.757, 1843.377
1199.239, 1844.838
1199.721, 1847.066
1200.204, 1848.623
1200.686, 1848.325
1201.168, 1847.652
1201.650, 1846.805
1202.132, 1846.298
1202.614, 1846.863
1203.096, 1848.476
1203.578, 1849.317
1204.061, 1849.411
1204.543, 1849.766
1205.025, 1851.659
1205.507, 1853.217
1205.989, 1852.754
1206.471, 1851.758
1206.953, 1852.405
1207.435, 1854.648
1207.917, 1855.944
1208.400, 1856.165
1208.882, 1855.817
1209.364, 1854.315
1209.846, 1853.305
1210.328, 1854.256
1210.810, 1856.022
1211.292, 1856.809
1211.774, 1856.666
1212.256, 1857.434
1212.739, 1859.258
1213.221, 1860.502
1213.703, 1858.971
1214.185, 1857.707
1214.667, 1858.927
1215.149, 1861.361
1215.631, 1862.933
1216.113, 1863.646
1216.596, 1863.185
1217.078, 1861.464
1217.560, 1860.166
1218.042, 1860.862
1218.524, 1861.856
1219.006, 1862.562
1219.488, 1862.700
1219.970, 1860.968
1220.453, 1857.655
1220.935, 1856.545
1221.417, 1858.390
1221.899, 1860.186
1222.381, 1859.682
1222.863, 1858.896
1223.345, 1859.245
1223.827, 1860.066
1224.309, 1859.177
1224.792, 1856.864
1225.274, 1855.485
1225.756, 1855.526
1226.238, 1856.056
1226.720, 1856.489
1227.202, 1857.311
1227.684, 1859.218
1228.166, 1861.423
1228.648, 1861.059
1229.131, 1858.605
1229.613, 1856.550
1230.095, 1855.356
1230.577, 1855.214
1231.059, 1858.167
1231.541, 1859.982
1232.023, 1857.977
1232.505, 1853.622
1232.988, 1851.516
1233.470, 1851.369
1233.952, 1852.395
1234.434, 1854.933
1234.916, 1856.146
1235.398, 1853.730
1235.880, 1850.626
1236.362, 1847.950
1236.844, 1845.783
1237.327, 1844.548
1237.809, 1844.066
1238.291, 1843.735
1238.773, 1843.381
1239.255, 1843.255
1239.737, 1843.417
1240.219, 1843.890
1240.701, 1844.686
1241.183, 1845.801
1241.666, 1847.220
1242.148, 1848.977
1242.630, 1851.456
1243.112, 1855.657
1243.594, 1857.419
1244.076, 1854.178
1244.558, 1851.123
1245.040, 1850.754
1245.523, 1852.262
1246.005, 1854.270
1246.487, 1856.400
1246.969, 1857.822
1247.451, 1858.151
1247.933, 1858.124
1248.415, 1857.528
1248.897, 1857.352
1249.380, 1858.436
1249.862, 1859.956
1250.344, 1860.098
1250.826, 1859.384
1251.308, 1858.756
1251.790, 1858.385
1252.272, 1858.299
1252.754, 1858.350
1253.236, 1859.201
1253.719, 1861.788
1254.201, 1864.767
1254.683, 1866.836
1255.165, 1867.518
1255.647, 1865.588
1256.129, 1858.784
1256.611, 1855.852
1257.093, 1857.538
1257.575, 1859.453
1258.058, 1858.862
1258.540, 1857.522
1259.022, 1856.599
1259.504, 1856.723
1259.986, 1859.593
1260.468, 1866.548
1260.950, 1868.963
1261.432, 1866.473
1261.915, 1863.760
1262.397, 1863.881
1262.879, 1864.313
1263.361, 1861.464
1263.843, 1858.361
1264.325, 1859.730
1264.807, 1866.656
1265.289, 1867.881
1265.771, 1863.575
1266.254, 1860.068
1266.736, 1861.595
1267.218, 1863.993
1267.700, 1865.550
1268.182, 1865.767
1268.664, 1863.627
1269.146, 1859.205
1269.628, 1857.615
1270.110, 1858.718
1270.593, 1861.621
1271.075, 1868.458
1271.557, 1873.252
1272.039, 1870.526
1272.521, 1867.111
1273.003, 1868.675
1273.485, 1874.150
1273.967, 1876.780
1274.450, 1877.006
1274.932, 1876.634
1275.414, 1876.594
1275.896, 1875.752
1276.378, 1873.186
1276.860, 1870.936
1277.342, 1870.646
1277.824, 1871.735
1278.306, 1872.816
1278.789, 1873.706
1279.271, 1873.874
1279.753, 1871.799
1280.235, 1871.601
1280.717, 1874.171
1281.199, 1876.756
1281.681, 1877.166
1282.163, 1876.603
1282.646, 1877.661
1283.128, 1879.331
1283.610, 1879.331
1284.092, 1875.338
1284.574, 1874.862
1285.056, 1878.676
1285.538, 1881.922
1286.020, 1880.765
1286.502, 1878.380
1286.984, 1878.789
1287.467, 1880.150
1287.949, 1879.051
1288.431, 1874.274
1288.913, 1874.308
1289.395, 1879.265
1289.877, 1883.339
1290.359, 1882.916
1290.841, 1880.947
1291.324, 1877.964
1291.806, 1875.675
1292.288, 1876.241
1292.770, 1879.608
1293.252, 1880.512
1293.734, 1879.337
1294.216, 1879.147
1294.698, 1882.405
1295.181, 1885.199
1295.663, 1885.796
1296.145, 1885.245
1296.627, 1883.370
1297.109, 1880.960
1297.591, 1882.832
1298.073, 1887.483
1298.555, 1890.006
1299.037, 1887.114
1299.520, 1885.253
1300.002, 1885.580
1300.484, 1886.808
1300.966, 1888.185
1301.448, 1889.489
1301.930, 1891.013
1302.412, 1892.299
1302.894, 1892.208
1303.376, 1889.313
1303.859, 1888.223
1304.341, 1889.014
1304.823, 1890.207
1305.305, 1890.570
1305.787, 1890.366
##END=



