##NAMES=Sengierite
##RRUFFID=R100186
##IDEAL CHEMISTRY=Cu^2+^_2_(U^6+^O_2_)_2_(V^5+^O_4_)_2_(OH)_2_&#183;6H_2_O
##LOCALITY=Shinkolobwe mine, Katanga, Congo
##OWNER=RRUFF
##SOURCE=William W Pinch
##DESCRIPTION=Lime green thin plates
##STATUS=The identification of this mineral has been confirmed by single-crystal X-ray diffraction.
##URL=rruff.info/R100186
112.3007, 99.38577
112.7828, 99.21041
113.2649, 99.47254
113.7471, 100.1366
114.2292, 100.7345
114.7113, 101.4880
115.1934, 101.9342
115.6755, 101.5677
116.1576, 100.6171
116.6397, 99.84116
117.1219, 100.1826
117.6040, 102.2710
118.0861, 103.5343
118.5682, 103.5588
119.0503, 103.2338
119.5324, 102.9865
120.0146, 102.9439
120.4967, 103.0517
120.9788, 103.2254
121.4609, 103.5618
121.9430, 103.8166
122.4251, 103.7301
122.9073, 103.6448
123.3894, 104.0913
123.8715, 105.3504
124.3536, 106.9612
124.8357, 107.6256
125.3178, 106.9611
125.8000, 106.4365
126.2821, 106.9667
126.7642, 108.2084
127.2463, 108.8062
127.7284, 107.8227
128.2105, 106.0121
128.6927, 104.8139
129.1748, 104.4260
129.6569, 104.4044
130.1390, 104.4907
130.6211, 104.7663
131.1032, 104.6579
131.5854, 103.3062
132.0675, 101.6516
132.5496, 100.6416
133.0317, 100.7683
133.5138, 101.5392
133.9959, 101.7968
134.4781, 101.3842
134.9602, 100.6303
135.4423, 99.23614
135.9244, 97.69212
136.4065, 96.68616
136.8886, 96.70281
137.3708, 97.65041
137.8529, 98.24546
138.3350, 98.21601
138.8171, 98.08230
139.2992, 97.93395
139.7813, 97.77464
140.2635, 97.56039
140.7456, 97.23560
141.2277, 96.76539
141.7098, 96.53385
142.1919, 96.67031
142.6740, 96.88294
143.1561, 96.99064
143.6383, 96.99207
144.1204, 97.05684
144.6025, 97.43883
145.0846, 98.22591
145.5667, 98.53104
146.0488, 97.85972
146.5310, 96.89814
147.0131, 96.36851
147.4952, 96.41687
147.9773, 96.78625
148.4594, 97.35483
148.9415, 98.07972
149.4237, 98.63394
149.9058, 98.73338
150.3879, 98.55759
150.8700, 98.64393
151.3521, 99.26909
151.8342, 99.91125
152.3164, 100.1010
152.7985, 99.88684
153.2806, 99.64378
153.7627, 99.65686
154.2448, 99.93052
154.7269, 100.2077
155.2091, 100.3763
155.6912, 100.6065
156.1733, 101.0259
156.6554, 101.6298
157.1375, 102.2766
157.6196, 102.7824
158.1018, 103.0741
158.5839, 103.4372
159.0660, 104.0524
159.5481, 104.6252
160.0302, 104.9456
160.5123, 104.9707
160.9945, 104.8272
161.4766, 104.7091
161.9587, 104.3436
162.4408, 104.4716
162.9229, 105.5204
163.4050, 106.8197
163.8871, 107.7072
164.3693, 107.9423
164.8514, 107.8166
165.3335, 108.0416
165.8156, 109.0494
166.2977, 109.8025
166.7798, 110.0580
167.2620, 110.0198
167.7441, 109.9520
168.2262, 109.9394
168.7083, 110.0338
169.1904, 110.4680
169.6725, 111.7037
170.1547, 112.4320
170.6368, 111.7814
171.1189, 110.1086
171.6010, 108.5997
172.0831, 107.6923
172.5652, 107.3970
173.0474, 107.6119
173.5295, 108.6838
174.0116, 109.6056
174.4937, 109.3374
174.9758, 107.8825
175.4579, 106.7960
175.9401, 107.1412
176.4222, 108.0289
176.9043, 108.5362
177.3864, 108.4829
177.8685, 108.0549
178.3506, 107.4072
178.8328, 106.4545
179.3149, 105.5847
179.7970, 104.9787
180.2791, 104.4870
180.7612, 103.9717
181.2433, 103.3637
181.7255, 102.7698
182.2076, 102.4491
182.6897, 102.6112
183.1718, 102.6656
183.6539, 102.5079
184.1360, 102.1949
184.6181, 101.7733
185.1003, 101.2624
185.5824, 100.6737
186.0645, 100.0486
186.5466, 99.24929
187.0287, 98.58861
187.5108, 98.33986
187.9930, 98.19434
188.4751, 97.70979
188.9572, 96.62124
189.4393, 95.07906
189.9214, 93.93748
190.4035, 93.62504
190.8857, 93.24004
191.3678, 92.44815
191.8499, 91.48698
192.3320, 90.75552
192.8141, 90.48842
193.2962, 90.66038
193.7784, 91.11875
194.2605, 92.40633
194.7426, 93.34556
195.2247, 93.35421
195.7068, 92.65492
196.1889, 91.88564
196.6711, 91.40058
197.1532, 91.17603
197.6353, 91.00827
198.1174, 90.71762
198.5995, 90.63227
199.0816, 91.07774
199.5638, 91.97562
200.0459, 92.78506
200.5280, 93.13374
201.0101, 93.17671
201.4922, 93.40098
201.9743, 93.88896
202.4565, 94.49777
202.9386, 95.20903
203.4207, 96.03371
203.9028, 96.63767
204.3849, 96.60213
204.8670, 96.30806
205.3492, 96.32790
205.8313, 96.91793
206.3134, 97.65783
206.7955, 97.96734
207.2776, 97.73691
207.7597, 97.58689
208.2419, 97.87012
208.7240, 98.35364
209.2061, 98.86440
209.6882, 99.38819
210.1703, 99.83200
210.6524, 100.0105
211.1346, 99.83787
211.6167, 99.60776
212.0988, 99.52174
212.5809, 99.38771
213.0630, 98.96220
213.5451, 98.11766
214.0273, 97.06824
214.5094, 96.31434
214.9915, 96.03517
215.4736, 95.74361
215.9557, 95.49285
216.4378, 95.12292
216.9200, 94.35691
217.4021, 93.05631
217.8842, 91.53801
218.3663, 90.74349
218.8484, 91.41035
219.3305, 91.76963
219.8127, 91.31030
220.2948, 90.58604
220.7769, 90.27551
221.2590, 90.68853
221.7411, 91.47356
222.2232, 91.58271
222.7054, 90.14006
223.1875, 89.02776
223.6696, 88.50768
224.1517, 88.31637
224.6338, 88.18541
225.1159, 87.99563
225.5980, 87.74213
226.0802, 87.40737
226.5623, 86.91705
227.0444, 86.43184
227.5265, 86.02367
228.0086, 85.60947
228.4907, 85.04673
228.9729, 84.26555
229.4550, 83.39449
229.9371, 82.78808
230.4192, 82.59794
230.9013, 82.41345
231.3834, 82.13631
231.8656, 81.83725
232.3477, 81.65910
232.8298, 81.67905
233.3119, 81.75208
233.7940, 81.50569
234.2761, 80.76526
234.7583, 80.20257
235.2404, 80.20742
235.7225, 80.46614
236.2046, 80.39633
236.6867, 79.75518
237.1688, 78.84207
237.6510, 78.09387
238.1331, 77.44225
238.6152, 77.12601
239.0973, 77.63025
239.5794, 78.50533
240.0615, 78.70090
240.5437, 77.76283
241.0258, 76.42561
241.5079, 75.65417
241.9900, 75.42122
242.4721, 75.29663
242.9542, 75.21740
243.4364, 75.11671
243.9185, 74.76585
244.4006, 73.98684
244.8827, 73.20128
245.3648, 72.90926
245.8469, 73.04213
246.3290, 73.11362
246.8112, 72.79592
247.2933, 72.22662
247.7754, 71.85328
248.2575, 71.86142
248.7396, 71.84969
249.2217, 71.38824
249.7039, 70.61794
250.1860, 70.03075
250.6681, 70.06963
251.1502, 70.53439
251.6323, 70.63226
252.1144, 70.08344
252.5966, 69.56908
253.0787, 69.59362
253.5608, 69.95562
254.0429, 70.20251
254.5250, 70.05289
255.0071, 69.58801
255.4893, 69.05336
255.9714, 68.17502
256.4535, 67.71516
256.9356, 68.35401
257.4177, 69.51733
257.8998, 70.24516
258.3820, 69.89353
258.8641, 68.78172
259.3462, 68.02387
259.8283, 67.72301
260.3104, 67.64725
260.7925, 67.75617
261.2747, 67.98666
261.7568, 68.31144
262.2389, 68.77888
262.7210, 69.22184
263.2031, 69.05059
263.6852, 67.56405
264.1674, 66.69090
264.6495, 67.25286
265.1316, 68.40401
265.6137, 69.25651
266.0958, 69.42368
266.5779, 69.14794
267.0601, 68.99592
267.5422, 69.07089
268.0243, 69.08678
268.5064, 68.90100
268.9885, 68.69910
269.4706, 68.62950
269.9528, 68.74651
270.4349, 69.03167
270.9170, 69.52819
271.3991, 70.64304
271.8812, 71.11643
272.3633, 70.38302
272.8455, 69.39737
273.3276, 68.85339
273.8097, 68.92801
274.2918, 69.37984
274.7739, 69.87159
275.2560, 70.45014
275.7382, 70.96626
276.2202, 71.54050
276.7024, 71.98170
277.1845, 72.06907
277.6666, 71.83069
278.1487, 71.55866
278.6308, 71.60571
279.1129, 72.04055
279.5951, 72.57600
280.0772, 73.30553
280.5593, 74.03745
281.0414, 74.66662
281.5235, 75.19678
282.0056, 75.69213
282.4878, 76.20292
282.9699, 76.72087
283.4520, 77.34719
283.9341, 78.07841
284.4162, 78.90454
284.8983, 80.03926
285.3805, 81.29614
285.8626, 82.17150
286.3447, 82.19608
286.8268, 81.39528
287.3089, 81.36443
287.7910, 82.64091
288.2732, 84.03699
288.7553, 85.41959
289.2374, 86.66420
289.7195, 87.52867
290.2016, 87.82934
290.6837, 87.71329
291.1659, 88.02389
291.6480, 89.13506
292.1301, 90.22876
292.6122, 91.29972
293.0943, 92.24257
293.5764, 92.88022
294.0586, 93.12672
294.5407, 93.12004
295.0228, 93.23479
295.5049, 93.60014
295.9870, 93.93594
296.4691, 94.13228
296.9513, 94.33806
297.4334, 94.82320
297.9155, 95.65491
298.3976, 96.48922
298.8797, 96.72815
299.3618, 95.91025
299.8440, 95.31813
300.3261, 94.88850
300.8082, 94.71933
301.2903, 95.10680
301.7724, 96.01836
302.2545, 96.84560
302.7367, 96.83325
303.2188, 95.68035
303.7009, 94.78323
304.1830, 94.37570
304.6651, 94.00425
305.1472, 93.33984
305.6294, 92.40691
306.1115, 91.48866
306.5936, 90.85337
307.0757, 90.52451
307.5578, 89.93413
308.0399, 88.87893
308.5221, 87.81371
309.0042, 86.80650
309.4863, 85.93800
309.9684, 85.44939
310.4505, 85.56532
310.9326, 86.14005
311.4148, 86.13023
311.8969, 85.09276
312.3790, 84.08250
312.8611, 83.17088
313.3432, 82.48239
313.8253, 82.25989
314.3075, 82.64002
314.7896, 83.39116
315.2717, 83.92724
315.7538, 84.14503
316.2359, 84.29574
316.7180, 84.20638
317.2001, 84.14327
317.6823, 84.45420
318.1644, 85.23231
318.6465, 86.20642
319.1286, 86.96310
319.6107, 87.31159
320.0928, 87.90165
320.5750, 89.02974
321.0571, 90.18983
321.5392, 90.92399
322.0213, 91.21812
322.5034, 91.45876
322.9855, 92.02675
323.4677, 92.97737
323.9498, 93.93138
324.4319, 94.95179
324.9140, 95.91932
325.3961, 96.73556
325.8782, 97.44026
326.3604, 98.17942
326.8425, 99.06865
327.3246, 100.0833
327.8067, 100.9542
328.2888, 101.5795
328.7709, 102.2019
329.2531, 102.9472
329.7352, 103.7175
330.2173, 104.3059
330.6994, 104.6020
331.1815, 104.7615
331.6636, 105.2102
332.1458, 106.1844
332.6279, 107.1768
333.1100, 108.3143
333.5921, 109.3890
334.0742, 110.1298
334.5563, 110.4765
335.0385, 110.6973
335.5206, 111.1881
336.0027, 112.1193
336.4848, 112.8909
336.9669, 113.4402
337.4490, 113.9048
337.9312, 114.3413
338.4133, 114.7741
338.8954, 115.2315
339.3775, 115.7440
339.8596, 116.3190
340.3417, 116.8685
340.8239, 117.5721
341.3060, 118.0718
341.7881, 118.1035
342.2702, 117.8381
342.7523, 117.6113
343.2344, 117.6279
343.7166, 117.8533
344.1987, 118.1202
344.6808, 118.4267
345.1629, 118.7848
345.6450, 119.1554
346.1271, 119.5931
346.6093, 120.1810
347.0914, 120.9409
347.5735, 121.8022
348.0556, 122.6432
348.5377, 123.6416
349.0198, 124.2724
349.5020, 123.9229
349.9841, 123.7078
350.4662, 124.5776
350.9483, 126.5053
351.4304, 128.6384
351.9125, 130.0332
352.3947, 130.5598
352.8768, 131.2003
353.3589, 131.5880
353.8410, 132.4452
354.3231, 134.4490
354.8052, 137.1199
355.2874, 139.4506
355.7695, 140.6938
356.2516, 141.0848
356.7337, 142.0220
357.2158, 144.0687
357.6979, 145.9140
358.1800, 147.2216
358.6621, 148.2645
359.1443, 149.3573
359.6264, 150.6264
360.1085, 151.9150
360.5906, 152.9601
361.0727, 153.7412
361.5548, 154.3180
362.0370, 154.4594
362.5191, 154.5916
363.0012, 155.0245
363.4833, 155.7598
363.9654, 156.5274
364.4475, 157.0511
364.9297, 157.3156
365.4118, 157.6006
365.8939, 158.1715
366.3760, 158.4445
366.8581, 158.0140
367.3402, 157.1300
367.8224, 156.3155
368.3045, 155.9213
368.7866, 155.7741
369.2687, 155.4087
369.7508, 154.9173
370.2329, 153.9710
370.7151, 152.2170
371.1972, 150.1109
371.6793, 147.9990
372.1614, 145.9756
372.6435, 144.1165
373.1256, 142.6343
373.6078, 141.5726
374.0899, 140.3135
374.5720, 138.7698
375.0541, 136.9178
375.5362, 134.6685
376.0183, 132.0526
376.5005, 129.3943
376.9826, 126.8742
377.4647, 124.4699
377.9468, 122.0910
378.4289, 119.7486
378.9110, 117.3942
379.3932, 114.8671
379.8753, 112.3089
380.3574, 110.0043
380.8395, 107.9780
381.3216, 106.2998
381.8037, 105.3126
382.2859, 105.0370
382.7680, 104.3503
383.2501, 102.5098
383.7322, 100.1253
384.2143, 98.12641
384.6964, 96.53519
385.1786, 95.35275
385.6607, 94.70862
386.1428, 94.49049
386.6249, 94.46442
387.1070, 94.65697
387.5891, 94.80705
388.0713, 94.56186
388.5534, 93.96146
389.0355, 93.30808
389.5176, 92.32713
389.9997, 91.52930
390.4818, 91.51118
390.9640, 92.27271
391.4461, 93.31187
391.9282, 94.39920
392.4103, 95.46795
392.8924, 96.22327
393.3745, 96.39197
393.8567, 96.57514
394.3388, 97.01401
394.8209, 97.63090
395.3030, 98.28500
395.7851, 98.93513
396.2672, 99.56886
396.7494, 100.1755
397.2315, 100.7640
397.7136, 101.2890
398.1957, 101.7881
398.6778, 102.2001
399.1599, 102.4237
399.6420, 102.4798
400.1241, 102.5175
400.6063, 102.6477
401.0884, 102.8673
401.5705, 103.3400
402.0526, 104.5517
402.5347, 105.4486
403.0168, 105.5362
403.4990, 105.1315
403.9811, 104.7951
404.4632, 104.8017
404.9453, 104.9183
405.4274, 104.5203
405.9095, 102.8697
406.3917, 101.9858
406.8738, 102.4150
407.3559, 103.1934
407.8380, 103.8382
408.3201, 104.1725
408.8022, 104.0431
409.2844, 103.1931
409.7665, 101.5655
410.2486, 100.1714
410.7307, 99.38857
411.2128, 98.42995
411.6949, 96.76505
412.1771, 94.83341
412.6592, 93.41430
413.1413, 92.97073
413.6234, 92.97539
414.1055, 92.30510
414.5876, 90.82920
415.0698, 89.05431
415.5519, 86.62255
416.0340, 84.25906
416.5161, 82.55216
416.9982, 81.53477
417.4803, 80.68863
417.9625, 79.55125
418.4446, 78.18155
418.9267, 76.95671
419.4088, 75.94538
419.8909, 75.01708
420.3730, 74.03641
420.8552, 73.07728
421.3373, 72.33333
421.8194, 72.02579
422.3015, 71.79900
422.7836, 71.15282
423.2657, 70.09500
423.7479, 69.15092
424.2300, 68.53761
424.7121, 68.15169
425.1942, 67.84052
425.6763, 67.64025
426.1584, 67.33865
426.6406, 66.64178
427.1227, 65.84144
427.6048, 65.49145
428.0869, 65.70279
428.5690, 66.08572
429.0511, 66.37228
429.5333, 66.53298
430.0154, 66.36132
430.4975, 65.38145
430.9796, 64.51580
431.4617, 64.43487
431.9438, 64.89184
432.4260, 65.22037
432.9081, 65.10063
433.3902, 64.69198
433.8723, 64.35094
434.3544, 63.87236
434.8365, 63.83357
435.3187, 64.64385
435.8008, 65.64159
436.2829, 66.33882
436.7650, 66.65237
437.2471, 66.66959
437.7292, 66.40921
438.2114, 65.85232
438.6935, 65.74440
439.1756, 66.52403
439.6577, 67.27354
440.1398, 67.81789
440.6219, 68.19945
441.1040, 68.49670
441.5862, 68.74193
442.0683, 68.89561
442.5504, 68.78196
443.0325, 68.13059
443.5146, 68.05013
443.9967, 69.17390
444.4789, 70.44267
444.9610, 71.34616
445.4431, 71.89189
445.9252, 72.32574
446.4073, 72.72240
446.8894, 73.15379
447.3716, 73.96220
447.8537, 75.33321
448.3358, 76.61482
448.8179, 77.46654
449.3000, 78.10570
449.7821, 78.65437
450.2643, 79.05351
450.7464, 79.76574
451.2285, 81.41271
451.7106, 83.79732
452.1927, 85.90582
452.6748, 87.54355
453.1570, 88.83178
453.6391, 89.62704
454.1212, 90.07049
454.6033, 90.89843
455.0854, 92.47676
455.5675, 94.35979
456.0497, 96.25056
456.5318, 98.11440
457.0139, 99.82361
457.4960, 101.2212
457.9781, 102.5367
458.4602, 104.4444
458.9424, 107.1136
459.4245, 109.8933
459.9066, 112.9003
460.3887, 115.8281
460.8708, 118.3308
461.3529, 120.3764
461.8351, 122.1772
462.3172, 123.9113
462.7993, 125.5609
463.2814, 127.3895
463.7635, 129.7355
464.2456, 131.8594
464.7278, 133.5200
465.2099, 134.8815
465.6920, 136.1131
466.1741, 137.2968
466.6562, 138.5343
467.1383, 140.1059
467.6205, 142.3476
468.1026, 143.9068
468.5847, 144.1642
469.0668, 144.2410
469.5489, 144.6387
470.0310, 145.2760
470.5132, 145.7995
470.9953, 145.9290
471.4774, 145.8623
471.9595, 146.2594
472.4416, 147.4007
472.9237, 147.9562
473.4059, 146.8683
473.8880, 145.3184
474.3701, 144.4429
474.8522, 144.3935
475.3343, 144.2810
475.8164, 143.4870
476.2986, 142.2114
476.7807, 140.9595
477.2628, 139.8229
477.7449, 138.5360
478.2270, 136.8220
478.7091, 134.7721
479.1913, 132.8305
479.6734, 131.0228
480.1555, 129.3255
480.6376, 127.9336
481.1197, 126.6229
481.6018, 124.8345
482.0839, 122.3633
482.5660, 119.6694
483.0482, 117.4137
483.5303, 115.8319
484.0124, 113.8278
484.4945, 110.6087
484.9766, 107.7398
485.4587, 106.3624
485.9409, 106.0135
486.4230, 105.4526
486.9051, 103.9611
487.3872, 101.9112
487.8693, 100.4473
488.3514, 100.1691
488.8336, 99.31516
489.3157, 97.10295
489.7978, 94.88394
490.2799, 93.76584
490.7620, 93.62080
491.2441, 93.39378
491.7263, 92.08671
492.2084, 90.00935
492.6905, 88.73122
493.1726, 88.57470
493.6547, 88.44963
494.1368, 88.06691
494.6190, 87.41685
495.1011, 86.32783
495.5832, 84.69576
496.0653, 83.23006
496.5474, 82.64239
497.0295, 82.66054
497.5117, 82.43159
497.9938, 81.77506
498.4759, 81.11126
498.9580, 80.88641
499.4401, 80.97210
499.9222, 80.68778
500.4044, 79.62406
500.8865, 78.56103
501.3686, 78.00465
501.8507, 77.72280
502.3328, 77.21204
502.8149, 76.29943
503.2971, 75.18301
503.7792, 74.11827
504.2613, 73.05128
504.7434, 72.23767
505.2255, 71.84544
505.7076, 71.51222
506.1898, 71.11075
506.6719, 70.62980
507.1540, 70.06666
507.6361, 69.41454
508.1182, 68.73222
508.6003, 68.20000
509.0825, 67.97128
509.5646, 67.47720
510.0467, 66.28130
510.5288, 65.13470
511.0109, 64.50562
511.4930, 64.31023
511.9752, 64.12798
512.4573, 63.63534
512.9394, 63.01968
513.4215, 62.73669
513.9036, 62.82888
514.3857, 62.99247
514.8679, 63.24617
515.3500, 63.40773
515.8321, 63.17785
516.3142, 62.49102
516.7963, 61.96668
517.2784, 61.92381
517.7606, 62.17375
518.2427, 62.54485
518.7248, 63.00161
519.2069, 63.29536
519.6890, 63.18566
520.1711, 62.80579
520.6533, 62.83528
521.1354, 63.51971
521.6175, 64.21479
522.0996, 65.01374
522.5817, 65.65997
523.0638, 65.68645
523.5460, 65.14138
524.0281, 64.72387
524.5102, 65.15953
524.9923, 66.41445
525.4744, 67.35374
525.9565, 67.60835
526.4387, 68.01477
526.9208, 68.98156
527.4029, 70.05411
527.8850, 70.67613
528.3671, 70.72874
528.8492, 70.70108
529.3314, 71.17654
529.8135, 72.08603
530.2956, 72.73750
530.7777, 73.00770
531.2598, 73.19216
531.7419, 73.40967
532.2241, 73.67626
532.7062, 74.02821
533.1883, 74.46334
533.6704, 75.00204
534.1525, 75.82520
534.6346, 76.74792
535.1168, 77.27376
535.5989, 77.26292
536.0810, 77.14802
536.5631, 77.38990
537.0452, 78.01096
537.5273, 78.38626
538.0095, 78.30523
538.4916, 78.23806
538.9737, 78.42030
539.4558, 78.70559
539.9379, 78.84391
540.4200, 78.76223
540.9022, 78.62783
541.3843, 78.70322
541.8664, 79.06432
542.3485, 79.20597
542.8306, 78.97189
543.3127, 78.67471
543.7948, 78.22941
544.2769, 77.83801
544.7590, 77.87134
545.2411, 78.51384
545.7233, 79.25719
546.2054, 79.28251
546.6875, 78.67065
547.1696, 78.72783
547.6517, 79.99065
548.1339, 81.30644
548.6160, 81.30062
549.0981, 80.52015
549.5802, 80.58716
550.0623, 82.53236
550.5444, 84.62261
551.0266, 85.82212
551.5087, 86.32291
551.9908, 86.37112
552.4729, 86.00788
552.9550, 85.87294
553.4371, 86.84234
553.9193, 89.17803
554.4014, 91.07095
554.8835, 92.48764
555.3656, 93.57165
555.8477, 93.89882
556.3298, 94.09133
556.8120, 95.18644
557.2941, 97.53124
557.7762, 100.2239
558.2583, 101.8656
558.7404, 102.2552
559.2225, 103.2183
559.7047, 105.0763
560.1868, 107.1659
560.6689, 109.2514
561.1510, 111.3129
561.6331, 113.3328
562.1152, 115.2861
562.5974, 117.2305
563.0795, 119.4147
563.5616, 121.6621
564.0437, 123.1281
564.5258, 123.4614
565.0079, 123.9110
565.4901, 125.8197
565.9722, 129.0946
566.4543, 131.5221
566.9364, 132.5367
567.4185, 133.3613
567.9006, 134.4253
568.3828, 135.5954
568.8649, 136.7326
569.3470, 137.7729
569.8291, 138.6428
570.3112, 139.2653
570.7933, 139.6509
571.2755, 139.6299
571.7576, 138.9277
572.2397, 138.1400
572.7218, 137.1699
573.2039, 136.3080
573.6860, 135.9973
574.1682, 136.3266
574.6503, 136.6553
575.1324, 136.5513
575.6145, 135.9654
576.0966, 134.4942
576.5787, 131.8675
577.0609, 129.3335
577.5430, 127.7763
578.0251, 126.8260
578.5072, 125.5808
578.9893, 123.9748
579.4714, 122.1833
579.9536, 120.2738
580.4357, 118.2168
580.9178, 115.8832
581.3999, 113.3100
581.8820, 110.7561
582.3641, 108.4313
582.8463, 106.2847
583.3284, 103.9863
583.8105, 101.1997
584.2926, 98.74973
584.7747, 96.97734
585.2568, 95.32490
585.7390, 93.25546
586.2211, 90.83989
586.7032, 88.63975
587.1853, 87.16200
587.6674, 86.10727
588.1495, 84.65641
588.6317, 82.74363
589.1138, 80.82812
589.5959, 79.08183
590.0780, 77.35838
590.5601, 75.35676
591.0422, 73.08102
591.5244, 71.30679
592.0065, 70.69491
592.4886, 70.35760
592.9707, 69.47887
593.4528, 68.17593
593.9349, 66.90491
594.4171, 65.85428
594.8992, 65.06219
595.3813, 64.63617
595.8634, 64.81090
596.3455, 64.64831
596.8276, 64.09611
597.3098, 63.31476
597.7919, 62.14762
598.2740, 60.85270
598.7561, 59.84630
599.2382, 59.30265
599.7203, 58.98126
600.2025, 58.55907
600.6846, 58.03963
601.1667, 57.61684
601.6488, 57.34183
602.1309, 57.10469
602.6130, 56.84278
603.0952, 56.56455
603.5773, 56.29571
604.0594, 56.06127
604.5415, 55.79382
605.0236, 55.50894
605.5057, 55.14835
605.9879, 54.52856
606.4700, 53.65984
606.9521, 52.90700
607.4342, 52.59918
607.9163, 52.66880
608.3984, 52.59649
608.8806, 52.16074
609.3627, 51.88945
609.8448, 52.02817
610.3269, 52.19133
610.8090, 51.90452
611.2911, 51.28753
611.7733, 51.03532
612.2554, 51.86661
612.7375, 53.17344
613.2196, 53.38963
613.7017, 52.39070
614.1838, 51.64819
614.6660, 51.73004
615.1481, 52.09092
615.6302, 52.08474
616.1123, 51.74023
616.5944, 51.43465
617.0765, 51.16945
617.5587, 51.03792
618.0408, 51.18722
618.5229, 51.50861
619.0050, 51.77445
619.4871, 51.90440
619.9692, 51.94796
620.4514, 51.94427
620.9335, 51.85918
621.4156, 51.99193
621.8977, 52.64919
622.3798, 53.16240
622.8619, 53.26038
623.3441, 53.17534
623.8262, 53.13022
624.3083, 53.18404
624.7904, 53.38828
625.2725, 53.88459
625.7546, 54.55428
626.2367, 54.98879
626.7188, 55.13194
627.2009, 55.52465
627.6830, 56.62698
628.1652, 58.01749
628.6473, 58.66194
629.1294, 58.32087
629.6115, 58.15648
630.0936, 58.28167
630.5757, 58.68634
631.0579, 59.54068
631.5400, 60.66508
632.0221, 61.59870
632.5042, 62.09586
632.9863, 62.45454
633.4684, 63.23084
633.9506, 64.48791
634.4327, 65.91261
634.9148, 67.97466
635.3969, 69.55398
635.8790, 69.71287
636.3611, 69.16488
636.8433, 69.20706
637.3254, 70.33580
637.8075, 71.52552
638.2896, 71.82269
638.7717, 71.71639
639.2538, 72.32417
639.7360, 73.76485
640.2181, 75.02811
640.7002, 75.37047
641.1823, 75.00349
641.6644, 74.78718
642.1465, 74.62556
642.6287, 74.77438
643.1108, 75.69051
643.5929, 76.52775
644.0750, 76.70089
644.5571, 76.29524
645.0392, 75.65300
645.5214, 74.89575
646.0035, 74.23340
646.4856, 74.16886
646.9677, 74.69848
647.4498, 74.85290
647.9319, 74.32230
648.4141, 73.68186
648.8962, 73.51341
649.3783, 73.63750
649.8604, 73.37402
650.3425, 72.38860
650.8246, 71.39134
651.3068, 70.70450
651.7889, 70.13740
652.2710, 69.44296
652.7531, 68.60425
653.2352, 67.78099
653.7173, 67.09754
654.1995, 66.53096
654.6816, 66.01226
655.1637, 65.67004
655.6458, 65.06998
656.1279, 63.70735
656.6100, 62.43456
657.0922, 61.90716
657.5743, 61.91631
658.0564, 61.68390
658.5385, 60.74445
659.0206, 59.67921
659.5027, 59.00683
659.9849, 58.65596
660.4670, 58.44648
660.9491, 58.34185
661.4312, 58.29209
661.9133, 58.29351
662.3954, 58.32237
662.8776, 58.04420
663.3597, 56.80753
663.8418, 56.12550
664.3239, 56.53863
664.8060, 57.26209
665.2881, 57.64514
665.7703, 57.70227
666.2524, 57.87994
666.7345, 58.57826
667.2166, 59.38219
667.6987, 59.42132
668.1808, 58.71947
668.6630, 58.14154
669.1451, 57.84905
669.6272, 57.83974
670.1093, 58.27137
670.5914, 59.07909
671.0735, 59.46724
671.5557, 58.83339
672.0378, 58.50049
672.5199, 59.31359
673.0020, 60.39867
673.4841, 60.64296
673.9662, 60.03957
674.4484, 59.52830
674.9305, 59.87822
675.4126, 60.79534
675.8947, 61.28501
676.3768, 61.25249
676.8589, 61.21019
677.3411, 61.25872
677.8232, 61.32802
678.3053, 61.27272
678.7874, 61.17357
679.2695, 61.34100
679.7516, 61.99794
680.2338, 62.74578
680.7159, 63.43819
681.1980, 64.03574
681.6801, 64.53288
682.1622, 64.90114
682.6443, 64.91264
683.1265, 64.26228
683.6086, 63.24786
684.0907, 63.43809
684.5728, 65.69640
685.0549, 67.26521
685.5370, 67.21839
686.0192, 66.86731
686.5013, 66.82174
686.9834, 67.08571
687.4655, 67.56455
687.9476, 68.36700
688.4297, 69.10999
688.9119, 69.33128
689.3940, 69.25275
689.8761, 69.35288
690.3582, 69.72147
690.8403, 70.32676
691.3224, 71.18133
691.8046, 72.22543
692.2867, 73.19634
692.7688, 74.16885
693.2509, 74.93928
693.7330, 75.28138
694.2151, 75.63252
694.6973, 76.19620
695.1794, 76.99023
695.6615, 78.04198
696.1436, 79.44443
696.6257, 80.82359
697.1078, 81.63571
697.5900, 82.07449
698.0721, 82.87933
698.5542, 84.16757
699.0363, 85.51971
699.5184, 86.65310
700.0005, 87.63322
700.4827, 88.67073
700.9648, 89.68070
701.4469, 90.88938
701.9290, 92.26275
702.4111, 93.86966
702.8932, 96.02816
703.3754, 98.39720
703.8575, 100.2447
704.3396, 101.2215
704.8217, 102.0914
705.3038, 103.7943
705.7859, 106.1813
706.2681, 108.6089
706.7502, 111.0418
707.2323, 113.3528
707.7144, 115.4342
708.1965, 117.3932
708.6786, 119.4870
709.1607, 121.7579
709.6428, 124.0308
710.1249, 125.8164
710.6071, 128.0951
711.0892, 131.6704
711.5713, 136.0399
712.0534, 140.3284
712.5355, 144.2634
713.0176, 148.1278
713.4998, 152.4122
713.9819, 156.9590
714.4640, 160.9580
714.9461, 164.3147
715.4282, 167.4922
715.9103, 170.4105
716.3925, 173.5019
716.8746, 177.6106
717.3567, 182.8480
717.8388, 187.8615
718.3209, 192.4843
718.8030, 196.9010
719.2852, 201.0526
719.7673, 205.1087
720.2494, 209.2253
720.7315, 213.4741
721.2136, 218.0614
721.6957, 223.3848
722.1779, 229.1077
722.6600, 233.9318
723.1421, 237.8150
723.6242, 241.3794
724.1063, 244.6622
724.5884, 247.8833
725.0706, 251.3033
725.5527, 254.9179
726.0348, 258.2764
726.5169, 261.7324
726.9990, 264.4886
727.4811, 265.6530
727.9633, 266.3854
728.4454, 268.0117
728.9275, 270.5241
729.4096, 273.0679
729.8917, 275.2030
730.3738, 276.6379
730.8560, 276.4110
731.3381, 274.4612
731.8202, 273.1198
732.3023, 273.0177
732.7844, 272.9519
733.2665, 272.1189
733.7487, 270.5938
734.2308, 268.7496
734.7129, 266.4165
735.1950, 264.1115
735.6771, 262.3694
736.1592, 260.3207
736.6414, 257.0887
737.1235, 252.9730
737.6056, 248.8107
738.0877, 244.9433
738.5698, 241.1731
739.0519, 237.2302
739.5341, 233.1295
740.0162, 228.8806
740.4983, 224.4433
740.9804, 220.1420
741.4625, 216.2714
741.9446, 212.5351
742.4268, 208.3189
742.9089, 203.4843
743.3910, 198.9109
743.8731, 195.1157
744.3552, 191.1131
744.8373, 186.1997
745.3195, 180.8857
745.8016, 175.6792
746.2837, 170.8294
746.7658, 166.7292
747.2479, 164.1118
747.7300, 162.3382
748.2122, 159.6459
748.6943, 156.0181
749.1764, 152.1678
749.6585, 148.1783
750.1406, 144.3450
750.6227, 140.9558
751.1049, 138.0169
751.5870, 135.1328
752.0691, 132.1983
752.5512, 129.4605
753.0333, 126.9641
753.5154, 124.6664
753.9976, 122.6303
754.4797, 120.7638
754.9618, 118.7967
755.4439, 116.5602
755.9260, 114.2428
756.4081, 112.0322
756.8903, 109.9453
757.3724, 108.1935
757.8545, 106.8253
758.3366, 105.2482
758.8187, 102.9694
759.3008, 100.4079
759.7830, 98.63993
760.2651, 98.17864
760.7472, 97.29240
761.2293, 95.63217
761.7114, 93.97309
762.1935, 92.63337
762.6757, 91.48398
763.1578, 90.37074
763.6399, 89.25196
764.1220, 88.01814
764.6041, 86.39594
765.0862, 84.72349
765.5684, 83.51121
766.0505, 82.71911
766.5326, 82.21905
767.0147, 81.98492
767.4968, 81.71816
767.9789, 81.08625
768.4611, 80.09703
768.9432, 79.05368
769.4253, 77.81855
769.9074, 76.75928
770.3895, 76.12959
770.8716, 75.50990
771.3538, 74.53683
771.8359, 73.33643
772.3180, 72.36799
772.8001, 71.91540
773.2822, 71.44457
773.7643, 70.42954
774.2465, 69.25689
774.7286, 68.58064
775.2107, 68.36504
775.6928, 68.09898
776.1749, 67.50368
776.6570, 66.62616
777.1392, 65.42075
777.6213, 63.74604
778.1034, 62.82326
778.5855, 63.09876
779.0676, 63.27153
779.5497, 62.55122
780.0319, 61.55339
780.5140, 61.11645
780.9961, 61.29391
781.4782, 61.40675
781.9603, 61.41017
782.4424, 61.17790
782.9246, 60.37680
783.4067, 59.40814
783.8888, 58.94021
784.3709, 59.02805
784.8530, 59.10807
785.3351, 58.71563
785.8173, 58.03027
786.2994, 57.48894
786.7815, 57.09379
787.2636, 56.69932
787.7457, 56.26179
788.2278, 55.88195
788.7100, 55.64729
789.1921, 55.53160
789.6742, 55.43787
790.1563, 55.38182
790.6384, 55.31809
791.1205, 55.23132
791.6026, 55.15025
792.0847, 55.14728
792.5668, 55.14187
793.0490, 55.00464
793.5311, 54.69809
794.0132, 54.28329
794.4953, 53.69943
794.9774, 53.09330
795.4595, 52.75501
795.9417, 52.65400
796.4238, 52.57195
796.9059, 52.43122
797.3880, 52.37807
797.8701, 52.60235
798.3522, 53.07856
798.8344, 53.36864
799.3165, 53.35642
799.7986, 53.38169
800.2807, 53.53671
800.7628, 53.70788
801.2449, 53.95625
801.7271, 54.16068
802.2092, 53.92389
802.6913, 52.82305
803.1734, 52.10695
803.6555, 52.71442
804.1376, 53.82198
804.6198, 54.65453
805.1019, 55.17071
805.5840, 55.49825
806.0661, 55.69344
806.5482, 55.86668
807.0303, 56.18760
807.5125, 56.63301
807.9946, 56.92359
808.4767, 56.99988
808.9588, 57.30108
809.4409, 58.11535
809.9230, 58.97751
810.4052, 59.31896
810.8873, 59.13664
811.3694, 59.10458
811.8515, 59.24968
812.3336, 59.50403
812.8157, 59.79154
813.2979, 60.23445
813.7800, 61.08657
814.2621, 62.16767
814.7442, 63.02702
815.2263, 63.48289
815.7084, 63.62607
816.1906, 63.33908
816.6727, 62.86666
817.1548, 62.76969
817.6369, 63.03220
818.1190, 63.24098
818.6011, 63.21187
819.0833, 63.05965
819.5654, 62.96220
820.0475, 62.92712
820.5296, 62.67666
821.0117, 61.99859
821.4938, 61.53877
821.9760, 61.63799
822.4581, 61.86947
822.9402, 61.96102
823.4223, 61.89425
823.9044, 61.60698
824.3865, 61.11699
824.8687, 60.36216
825.3508, 58.90419
825.8329, 57.48108
826.3150, 56.86340
826.7971, 56.93093
827.2792, 57.31676
827.7614, 57.87038
828.2435, 58.03444
828.7256, 56.67168
829.2077, 54.34382
829.6898, 53.42188
830.1719, 53.96559
830.6541, 54.22320
831.1362, 53.51678
831.6183, 52.38945
832.1004, 51.41720
832.5825, 50.60549
833.0646, 50.07056
833.5468, 50.08252
834.0289, 49.95690
834.5110, 49.42108
834.9931, 48.91271
835.4752, 48.72010
835.9573, 48.77185
836.4395, 48.89971
836.9216, 49.16056
837.4037, 49.15896
837.8858, 48.55621
838.3679, 47.68700
838.8500, 46.81523
839.3322, 45.98829
839.8143, 45.17681
840.2964, 44.39324
840.7785, 43.86943
841.2606, 43.96488
841.7427, 44.49404
842.2249, 44.73059
842.7070, 44.66585
843.1891, 44.45044
843.6712, 44.04779
844.1533, 43.74865
844.6354, 43.85151
845.1176, 44.25816
845.5997, 44.48479
846.0818, 44.33913
846.5639, 44.31617
847.0460, 44.63206
847.5281, 44.83372
848.0103, 44.68291
848.4924, 44.29381
848.9745, 43.75185
849.4566, 43.07514
849.9387, 42.66738
850.4208, 43.05541
850.9030, 43.51319
851.3851, 43.30779
851.8672, 42.70375
852.3493, 42.16850
852.8314, 41.82720
853.3135, 41.67369
853.7957, 41.72718
854.2778, 41.90234
854.7599, 42.00010
855.2420, 42.02312
855.7241, 42.14310
856.2062, 42.43005
856.6884, 42.53477
857.1705, 42.19397
857.6526, 41.65444
858.1347, 41.36518
858.6168, 41.36844
859.0989, 41.43723
859.5811, 41.64903
860.0632, 41.82383
860.5453, 42.12551
861.0274, 42.21791
861.5095, 41.56313
861.9916, 40.37060
862.4738, 39.60994
862.9559, 39.70845
863.4380, 40.13024
863.9201, 40.85854
864.4022, 41.50152
864.8843, 41.48455
865.3665, 40.92955
865.8486, 40.31211
866.3307, 39.83968
866.8128, 39.47384
867.2949, 39.19027
867.7770, 38.97609
868.2592, 38.75900
868.7413, 38.53839
869.2234, 38.41422
869.7055, 38.43365
870.1876, 38.47459
870.6697, 38.43020
871.1519, 38.30785
871.6340, 38.14539
872.1161, 37.90245
872.5981, 37.69634
873.0803, 37.54944
873.5624, 37.42295
874.0445, 37.15265
874.5266, 36.96122
875.0087, 37.32021
875.4908, 38.33611
875.9730, 38.91978
876.4551, 38.26440
876.9372, 37.53682
877.4193, 37.57996
877.9014, 37.91946
878.3835, 37.82141
878.8657, 37.29722
879.3478, 36.94904
879.8299, 37.17790
880.3120, 37.56943
880.7941, 37.56535
881.2762, 37.25026
881.7584, 36.74475
882.2405, 36.11010
882.7226, 36.01556
883.2047, 36.82049
883.6868, 37.80160
884.1689, 37.91937
884.6511, 37.21108
885.1332, 36.92640
885.6153, 37.32903
886.0974, 37.41438
886.5795, 36.83738
887.0616, 36.07854
887.5438, 35.31741
888.0259, 34.66787
888.5080, 34.50928
888.9901, 35.15547
889.4722, 35.55731
889.9543, 35.28819
890.4365, 35.04292
890.9186, 35.28642
891.4007, 35.72420
891.8828, 35.94510
892.3649, 35.89188
892.8470, 35.76488
893.3292, 35.70517
893.8113, 35.58441
894.2934, 35.18364
894.7755, 34.67805
895.2576, 34.35851
895.7397, 34.25654
896.2219, 34.32588
896.7040, 34.54832
897.1861, 34.77567
897.6682, 34.73263
898.1503, 34.47027
898.6324, 34.38722
899.1146, 34.48713
899.5967, 34.83052
900.0788, 35.56962
900.5609, 36.04813
901.0430, 35.49231
901.5251, 34.13839
902.0073, 33.49035
902.4894, 33.99318
902.9715, 34.28550
903.4536, 34.25114
903.9357, 34.05135
904.4178, 33.50916
904.9000, 32.97122
905.3821, 33.02132
905.8642, 33.74085
906.3463, 34.24438
906.8284, 34.32755
907.3105, 34.13903
907.7927, 33.47530
908.2748, 32.76722
908.7569, 32.39697
909.2390, 32.40205
909.7211, 32.76634
910.2032, 33.55559
910.6854, 34.25321
911.1675, 34.24591
911.6496, 33.91943
912.1317, 33.94047
912.6138, 34.22231
913.0959, 34.34935
913.5781, 34.19650
914.0602, 33.89537
914.5423, 33.53120
915.0244, 33.17160
915.5065, 33.01513
915.9886, 33.06264
916.4708, 33.30272
916.9529, 33.81454
917.4350, 34.05040
917.9171, 33.61097
918.3992, 32.90419
918.8813, 32.65462
919.3635, 32.92424
919.8456, 33.17285
920.3277, 33.45815
920.8098, 33.62848
921.2919, 33.64465
921.7740, 33.54004
922.2562, 33.22480
922.7383, 32.80912
923.2204, 32.61577
923.7025, 32.71599
924.1846, 32.95034
924.6667, 33.55308
925.1489, 33.98959
925.6310, 33.80607
926.1131, 33.32446
926.5952, 32.95631
927.0773, 32.78072
927.5594, 32.71526
928.0416, 32.80627
928.5237, 32.83895
929.0058, 32.42904
929.4879, 31.93057
929.9700, 32.00910
930.4521, 32.55968
930.9343, 32.97634
931.4164, 33.00392
931.8985, 32.87454
932.3806, 32.80609
932.8627, 32.81665
933.3448, 33.05468
933.8270, 33.48129
934.3091, 33.62194
934.7912, 33.36234
935.2733, 32.99170
935.7554, 32.66265
936.2375, 32.49547
936.7197, 32.90017
937.2018, 34.10233
937.6839, 34.51777
938.1660, 33.79845
938.6481, 33.16510
939.1302, 32.97921
939.6124, 33.08450
940.0945, 33.40242
940.5766, 33.89899
941.0587, 34.25890
941.5408, 34.48140
942.0229, 34.57540
942.5051, 34.42493
942.9872, 34.27315
943.4693, 34.11292
943.9514, 34.08847
944.4335, 34.54527
944.9156, 35.48531
945.3978, 36.03148
945.8799, 35.24588
946.3620, 34.77713
946.8441, 35.86108
947.3262, 37.37658
947.8083, 38.16189
948.2905, 38.34843
948.7726, 38.61230
949.2547, 39.20219
949.7368, 39.90163
950.2189, 40.57092
950.7010, 41.21825
951.1832, 41.85955
951.6653, 42.49163
952.1474, 43.06892
952.6295, 43.61065
953.1116, 44.23368
953.5938, 45.00001
954.0759, 46.00389
954.5580, 47.61607
955.0400, 49.64457
955.5222, 50.90919
956.0043, 51.40109
956.4864, 52.23657
956.9685, 53.81303
957.4506, 55.56328
957.9327, 56.95360
958.4149, 58.02839
958.8970, 58.89607
959.3791, 59.51000
959.8612, 60.16295
960.3433, 60.86156
960.8254, 61.64300
961.3076, 62.59129
961.7897, 63.54362
962.2718, 64.31763
962.7539, 64.91566
963.2360, 65.18680
963.7181, 65.13761
964.2003, 64.74175
964.6824, 63.54856
965.1645, 62.49335
965.6466, 62.35850
966.1287, 62.57336
966.6108, 62.07827
967.0930, 60.69579
967.5751, 59.50752
968.0572, 58.88173
968.5393, 58.31101
969.0214, 57.71869
969.5035, 56.99604
969.9857, 56.06820
970.4678, 54.93156
970.9499, 53.59583
971.4320, 52.06035
971.9141, 50.37718
972.3962, 48.38687
972.8784, 46.44535
973.3605, 44.99638
973.8426, 43.75706
974.3247, 42.25921
974.8068, 40.47675
975.2889, 38.61074
975.7711, 36.71569
976.2532, 35.12336
976.7353, 34.40949
977.2174, 34.14921
977.6995, 33.57280
978.1816, 32.72255
978.6638, 31.84534
979.1459, 31.03402
979.6280, 30.45942
980.1101, 30.28724
980.5922, 30.34289
981.0743, 30.33165
981.5565, 30.23842
982.0386, 29.88635
982.5207, 29.27706
983.0028, 28.89674
983.4849, 28.96246
983.9670, 29.02028
984.4492, 28.51768
984.9313, 27.63758
985.4134, 27.28695
985.8955, 27.54735
986.3776, 27.75287
986.8597, 27.86484
987.3419, 27.79636
987.8240, 27.43398
988.3061, 26.99897
988.7882, 26.80158
989.2703, 26.84144
989.7524, 26.96661
990.2346, 27.30455
990.7167, 27.44098
991.1988, 27.25974
991.6809, 26.95308
992.1630, 26.42984
992.6451, 25.95188
993.1273, 26.12910
993.6094, 27.12913
994.0915, 27.54859
994.5736, 26.79390
995.0557, 26.26034
995.5378, 26.35890
996.0200, 26.61317
996.5021, 26.79882
996.9842, 26.87842
997.4663, 26.81331
997.9484, 26.59820
998.4305, 26.23939
998.9127, 25.37448
999.3948, 24.82145
999.8769, 25.33628
1000.359, 25.99639
1000.841, 25.73875
1001.323, 24.90759
1001.805, 24.63898
1002.287, 25.33459
1002.770, 26.00534
1003.252, 26.17584
1003.734, 26.10604
1004.216, 25.78643
1004.698, 25.46597
1005.180, 25.60925
1005.662, 26.06820
1006.144, 26.10802
1006.627, 25.33677
1007.109, 24.66349
1007.591, 25.11479
1008.073, 24.66365
1008.555, 25.65791
1009.037, 25.04868
1009.519, 25.20397
1010.001, 26.12140
1010.483, 26.64826
1010.966, 26.07670
1011.448, 25.20860
1011.930, 24.89252
1012.412, 25.00417
1012.894, 25.49795
1013.376, 26.18918
1013.858, 26.50100
1014.340, 26.32565
1014.823, 25.95868
1015.305, 25.58054
1015.787, 25.27177
1016.269, 25.20587
1016.751, 25.32047
1017.233, 25.39635
1017.715, 25.42466
1018.197, 25.41586
1018.679, 25.37309
1019.162, 25.30655
1019.644, 25.23058
1020.126, 25.11373
1020.608, 24.79484
1021.090, 24.80827
1021.572, 24.82637
1022.054, 24.70791
1022.536, 25.03708
1023.018, 25.05509
1023.501, 25.10489
1023.983, 25.55053
1024.465, 25.39751
1024.947, 25.29397
1025.429, 25.31196
1025.911, 24.78902
1026.393, 24.61323
1026.875, 24.41158
1027.358, 23.97814
1027.840, 23.76956
1028.322, 24.36125
1028.804, 25.43412
1029.286, 25.52754
1029.768, 24.19706
1030.250, 23.84989
1030.732, 25.03139
1031.214, 25.81219
1031.697, 25.35600
1032.179, 24.50315
1032.661, 24.01633
1033.143, 23.87559
1033.625, 23.98710
1034.107, 24.40153
1034.589, 24.97830
1035.071, 26.02401
1035.553, 26.66335
1036.036, 26.42520
1036.518, 25.82734
1037.000, 25.27015
1037.482, 24.79416
1037.964, 24.65260
1038.446, 25.19561
1038.928, 25.37874
1039.410, 24.79830
1039.893, 24.40550
1040.375, 24.72193
1040.857, 25.20288
1041.339, 25.31396
1041.821, 25.11777
1042.303, 24.93985
1042.785, 24.65897
1043.267, 24.64337
1043.750, 25.21441
1044.232, 25.67099
1044.714, 25.77026
1045.196, 25.63993
1045.678, 25.27721
1046.160, 24.77712
1046.642, 24.54977
1047.124, 24.82429
1047.606, 24.93830
1048.089, 24.55451
1048.571, 24.30378
1049.053, 24.56413
1049.535, 24.97750
1050.017, 25.22732
1050.499, 25.31068
1050.981, 25.30766
1051.463, 25.16354
1051.945, 25.11603
1052.428, 25.34093
1052.910, 25.52093
1053.392, 25.55183
1053.874, 25.43944
1054.356, 25.06488
1054.838, 24.55790
1055.320, 24.35112
1055.802, 24.61060
1056.285, 24.89463
1056.767, 25.18610
1057.249, 25.34307
1057.731, 25.15055
1058.213, 24.90323
1058.695, 24.99942
1059.177, 25.29270
1059.659, 25.24393
1060.141, 24.63561
1060.624, 24.13143
1061.106, 23.83644
1061.588, 23.85135
1062.070, 24.60008
1062.552, 25.38354
1063.034, 25.44340
1063.516, 24.94893
1063.998, 24.47322
1064.480, 24.13387
1064.963, 23.96621
1065.445, 24.16691
1065.927, 24.31909
1066.409, 24.12929
1066.891, 23.84954
1067.373, 23.68444
1067.855, 23.64963
1068.337, 23.76604
1068.820, 24.05346
1069.302, 24.18156
1069.784, 23.79363
1070.266, 23.48015
1070.748, 23.64174
1071.230, 23.93878
1071.712, 24.08234
1072.194, 24.09731
1072.677, 24.10346
1073.159, 24.12704
1073.641, 24.11469
1074.123, 24.01980
1074.605, 23.91300
1075.087, 23.84429
1075.569, 23.76655
1076.051, 23.55626
1076.533, 23.33864
1077.016, 23.39532
1077.498, 23.74851
1077.980, 24.00531
1078.462, 23.94729
1078.944, 23.83546
1079.426, 23.68149
1079.908, 23.63616
1080.390, 24.00903
1080.872, 24.47974
1081.354, 24.44823
1081.837, 23.91352
1082.319, 23.59419
1082.801, 23.93787
1083.283, 24.19585
1083.765, 23.87674
1084.247, 23.49331
1084.729, 23.35327
1085.211, 23.42410
1085.694, 23.79202
1086.176, 24.32370
1086.658, 24.41435
1087.140, 23.61521
1087.622, 23.06911
1088.104, 23.59601
1088.586, 24.14491
1089.068, 23.96913
1089.551, 23.49959
1090.033, 23.28774
1090.515, 23.28400
1090.997, 23.04398
1091.479, 22.31374
1091.961, 21.96143
1092.443, 22.72671
1092.925, 23.44927
1093.407, 23.49524
1093.890, 23.23204
1094.372, 22.91361
1094.854, 22.63180
1095.336, 22.50817
1095.818, 22.57837
1096.300, 22.70462
1096.782, 23.03910
1097.264, 23.16357
1097.746, 22.67168
1098.229, 22.13646
1098.711, 22.11366
1099.193, 22.34118
1099.675, 22.20568
1100.157, 21.62295
1100.639, 21.36613
1101.121, 21.75134
1101.603, 22.30774
1102.086, 23.39082
1102.568, 24.09294
1103.050, 23.42009
1103.532, 22.26763
1104.014, 21.96402
1104.496, 22.51815
1104.978, 22.87079
1105.460, 22.76009
1105.943, 22.58508
1106.425, 22.16005
1106.907, 21.98109
1107.389, 22.54242
1107.871, 23.25521
1108.353, 23.52300
1108.835, 23.38063
1109.317, 23.07673
1109.799, 22.42253
1110.281, 22.12159
1110.764, 22.47533
1111.246, 22.85554
1111.728, 23.18341
1112.210, 23.38101
1112.692, 23.36724
1113.174, 23.18001
1113.656, 22.85766
1114.138, 22.28236
1114.621, 22.12150
1115.103, 22.80849
1115.585, 23.19653
1116.067, 22.93621
1116.549, 22.55344
1117.031, 22.25447
1117.513, 22.09413
1117.995, 22.21173
1118.478, 22.61167
1118.960, 22.83003
1119.442, 22.78482
1119.924, 22.75574
1120.406, 22.80755
1120.888, 22.78510
1121.370, 22.57478
1121.852, 22.33026
1122.334, 22.21404
1122.817, 22.22214
1123.299, 22.36984
1123.781, 22.76024
1124.263, 22.84436
1124.745, 22.54345
1125.227, 22.14249
1125.709, 21.66205
1126.191, 21.32857
1126.673, 21.36535
1127.156, 21.61871
1127.638, 21.67114
1128.120, 21.50320
1128.602, 21.79481
1129.084, 22.61493
1129.566, 23.15427
1130.048, 23.23372
1130.530, 23.15306
1131.013, 23.06820
1131.495, 23.01480
1131.977, 23.09293
1132.459, 23.22232
1132.941, 22.87861
1133.423, 22.12119
1133.905, 21.89326
1134.387, 22.27141
1134.870, 22.52541
1135.352, 22.36738
1135.834, 22.21228
1136.316, 22.49408
1136.798, 22.41240
1137.280, 22.93615
1137.762, 22.61517
1138.244, 22.55646
1138.726, 22.69286
1139.208, 22.43015
1139.691, 21.71704
1140.173, 21.39943
1140.655, 22.05410
1141.137, 22.87514
1141.619, 22.79505
1142.101, 22.21990
1142.583, 21.72970
1143.065, 21.37222
1143.548, 21.23717
1144.030, 21.30715
1144.512, 21.53442
1144.994, 21.88725
1145.476, 22.12192
1145.958, 21.89411
1146.440, 21.65163
1146.922, 21.96447
1147.405, 22.43869
1147.887, 22.58752
1148.369, 22.48680
1148.851, 22.34646
1149.333, 22.22875
1149.815, 22.15408
1150.297, 22.12082
1150.779, 22.16321
1151.261, 22.46988
1151.744, 22.67486
1152.226, 22.36786
1152.708, 21.90815
1153.190, 21.78501
1153.672, 21.90543
1154.154, 21.81578
1154.636, 21.36980
1155.118, 21.03563
1155.600, 20.91101
1156.083, 20.97414
1156.565, 21.52014
1157.047, 21.94165
1157.529, 21.56160
1158.011, 20.90759
1158.493, 20.92829
1158.975, 21.65383
1159.457, 22.09259
1159.940, 21.89592
1160.422, 21.89029
1160.904, 22.35429
1161.386, 22.64014
1161.868, 22.40350
1162.350, 22.04348
1162.832, 21.87244
1163.314, 21.88581
1163.796, 22.11384
1164.279, 22.65372
1164.761, 22.83975
1165.243, 22.57864
1165.725, 22.27573
1166.207, 21.98213
1166.689, 21.74319
1167.171, 21.58385
1167.653, 21.49346
1168.135, 21.45101
1168.618, 21.46592
1169.100, 21.61713
1169.582, 21.90165
1170.064, 22.15858
1170.546, 22.37185
1171.028, 22.40311
1171.510, 22.20655
1171.992, 22.15116
1172.474, 22.57982
1172.957, 23.08795
1173.439, 22.92537
1173.921, 22.28773
1174.403, 21.59913
1174.885, 20.97041
1175.367, 20.74623
1175.849, 20.93622
1176.331, 21.35144
1176.814, 21.89709
1177.296, 22.34157
1177.778, 22.38959
1178.260, 22.35311
1178.742, 22.71564
1179.224, 23.12733
1179.706, 23.12992
1180.188, 22.78969
1180.671, 22.15693
1181.153, 21.37790
1181.635, 20.99579
1182.117, 21.31844
1182.599, 21.80935
1183.081, 22.40068
1183.563, 22.80919
1184.045, 22.79885
1184.527, 22.57067
1185.010, 22.28977
1185.492, 21.96639
1185.974, 21.49311
1186.456, 20.82681
1186.938, 20.57328
1187.420, 21.15122
1187.902, 21.66011
1188.384, 22.09977
1188.866, 22.25911
1189.349, 21.71513
1189.831, 21.18089
1190.313, 21.57291
1190.795, 22.56086
1191.277, 22.78979
1191.759, 22.03015
1192.241, 21.51227
1192.723, 21.25826
1193.206, 21.17920
1193.688, 21.26688
1194.170, 21.52973
1194.652, 22.03922
1195.134, 22.46570
1195.616, 22.27849
1196.098, 21.67587
1196.580, 21.54241
1197.063, 21.82532
1197.545, 22.03066
1198.027, 22.10400
1198.509, 21.80922
1198.991, 21.13690
1199.473, 20.86238
1199.955, 21.57315
1200.437, 22.48974
1200.919, 22.53313
1201.401, 22.14167
1201.884, 21.99420
1202.366, 22.04167
1202.848, 22.26818
1203.330, 22.55765
1203.812, 22.59732
1204.294, 22.31941
1204.776, 22.04970
1205.258, 21.96078
1205.741, 21.96518
1206.223, 22.08851
1206.705, 22.19752
1207.187, 22.09632
1207.669, 21.98907
1208.151, 22.25945
1208.633, 22.74023
1209.115, 22.78805
1209.598, 22.18488
1210.080, 21.80316
1210.562, 21.99353
1211.044, 22.08704
1211.526, 21.81665
1212.008, 21.59229
1212.490, 21.62509
1212.972, 21.77091
1213.454, 21.83078
1213.937, 21.86320
1214.419, 22.23513
1214.901, 23.15134
1215.383, 23.22394
1215.865, 22.21743
1216.347, 21.91043
1216.829, 22.80894
1217.311, 23.42300
1217.793, 22.82574
1218.276, 23.43313
1218.758, 22.33290
1219.240, 23.31361
1219.722, 23.36796
1220.204, 22.77958
1220.686, 22.53742
1221.168, 22.64698
1221.650, 22.89340
1222.133, 23.14268
1222.615, 22.95297
1223.097, 22.00632
1223.579, 21.21453
1224.061, 21.73010
1224.543, 21.17262
1225.025, 22.08498
1225.507, 21.47233
1225.990, 21.75497
1226.472, 22.53725
1226.954, 22.81385
1227.436, 22.47626
1227.918, 22.33732
1228.400, 22.91826
1228.882, 23.10119
1229.364, 22.01439
1229.846, 21.28565
1230.328, 22.04965
1230.811, 22.89330
1231.293, 22.59431
1231.775, 21.74840
1232.257, 21.47371
1232.739, 21.76573
1233.221, 21.94692
1233.703, 21.98123
1234.185, 22.05906
1234.668, 22.18841
1235.150, 22.43532
1235.632, 22.84832
1236.114, 23.15712
1236.596, 23.14451
1237.078, 22.93826
1237.560, 22.82119
1238.042, 22.67098
1238.525, 21.78937
1239.007, 20.57279
1239.489, 20.38608
1239.971, 21.13214
1240.453, 21.90152
1240.935, 22.39741
1241.417, 22.80070
1241.899, 23.30490
1242.381, 23.46576
1242.864, 22.50163
1243.346, 21.51999
1243.828, 21.45675
1244.310, 21.87703
1244.792, 22.56091
1245.274, 23.18697
1245.756, 23.02196
1246.238, 21.97405
1246.720, 21.48765
1247.203, 22.54502
1247.685, 22.92860
1248.167, 22.00931
1248.649, 21.10612
1249.131, 20.46598
1249.613, 20.23952
1250.095, 20.69716
1250.577, 21.41221
1251.059, 21.47335
1251.542, 21.87406
1252.024, 22.24495
1252.506, 22.19478
1252.988, 22.72587
1253.470, 22.72367
1253.952, 22.60595
1254.434, 22.51970
1254.916, 22.62812
1255.399, 23.09404
1255.881, 23.37774
1256.363, 22.45896
1256.845, 21.23958
1257.327, 21.09161
1257.809, 21.49758
1258.291, 21.69349
1258.773, 21.72696
1259.255, 21.97295
1259.738, 22.44932
1260.220, 22.73446
1260.702, 22.64326
1261.184, 22.45010
1261.666, 22.03588
1262.148, 21.81314
1262.630, 22.23603
1263.112, 22.59451
1263.594, 22.09594
1264.077, 21.45887
1264.559, 21.93616
1265.041, 23.29592
1265.523, 23.42407
1266.005, 22.00156
1266.487, 21.23204
1266.969, 21.21760
1267.451, 21.57339
1267.934, 22.22505
1268.416, 22.64963
1268.898, 22.54644
1269.380, 22.25128
1269.862, 22.10846
1270.344, 22.12149
1270.826, 22.54496
1271.308, 22.97798
1271.791, 22.36381
1272.273, 21.26651
1272.755, 21.07333
1273.237, 21.74519
1273.719, 22.10564
1274.201, 21.72425
1274.683, 21.58129
1275.165, 22.50181
1275.647, 23.19003
1276.130, 23.07737
1276.612, 22.69431
1277.094, 22.17003
1277.576, 21.68634
1278.058, 21.42653
1278.540, 21.34595
1279.022, 21.31438
1279.504, 21.32239
1279.986, 21.57235
1280.469, 22.13957
1280.951, 22.30868
1281.433, 21.95047
1281.915, 22.11719
1282.397, 23.19767
1282.879, 23.95965
1283.361, 23.38831
1283.843, 22.30227
1284.326, 21.67151
1284.808, 21.49496
##END=



