##NAMES=Serandite
##RRUFFID=R040056
##IDEAL CHEMISTRY=NaMn^2+^_2_Si_3_O_8_(OH)
##LOCALITY=Mont Saint-Hilaire, Rouville County, Quebec, Canada
##OWNER=RRUFF
##SOURCE=Bob Downs
##DESCRIPTION=Pink prismatic crystals
##STATUS=The identification of this mineral has been confirmed by X-ray diffraction and chemical analysis
##URL=rruff.info/R040056
##MEASURED CHEMISTRY=Na_1.01_Mn^2+^_1.93_Ca_0.05_Si_3.00_O_8_(OH)
87.29187, 37.63128
87.77399, 44.02315
88.25610, 48.59579
88.73822, 44.70127
89.22034, 35.71324
89.70245, 28.81974
90.18457, 29.68438
90.66669, 34.31319
91.14880, 37.47815
91.63092, 38.06178
92.11304, 37.46824
92.59515, 37.41967
93.07727, 37.83898
93.55939, 37.96182
94.04150, 36.60293
94.52362, 34.29015
95.00574, 33.00877
95.48786, 33.76660
95.96998, 35.86334
96.45210, 37.25993
96.93421, 37.88469
97.41633, 38.08155
97.89845, 38.29167
98.38056, 38.52785
98.86268, 38.46682
99.34480, 37.83909
99.82691, 36.61146
100.3090, 35.51964
100.7911, 34.40920
101.2733, 33.58143
101.7554, 33.91839
102.2375, 35.93471
102.7196, 37.87539
103.2017, 38.38026
103.6838, 36.35828
104.1660, 35.92009
104.6481, 37.83628
105.1302, 41.91952
105.6123, 45.77206
106.0944, 49.19607
106.5765, 52.55725
107.0587, 56.15355
107.5408, 60.65010
108.0229, 64.55412
108.5050, 66.78259
108.9871, 65.83304
109.4692, 68.89305
109.9514, 77.23872
110.4335, 89.29645
110.9156, 102.8352
111.3977, 118.5556
111.8798, 135.2347
112.3620, 151.5868
112.8441, 162.5663
113.3262, 182.2560
113.8083, 212.8595
114.2904, 253.8887
114.7725, 302.9985
115.2547, 353.2661
115.7368, 415.0826
116.2189, 494.6595
116.7010, 624.8717
117.1831, 746.2195
117.6652, 850.0787
118.1474, 934.4406
118.6295, 967.3206
119.1116, 903.9029
119.5937, 788.8887
120.0758, 674.5021
120.5579, 566.3641
121.0401, 475.1596
121.5222, 412.3697
122.0043, 379.8451
122.4864, 362.1141
122.9685, 351.6089
123.4506, 347.7435
123.9328, 349.2103
124.4149, 357.8879
124.8970, 370.6977
125.3791, 383.6178
125.8612, 395.5844
126.3433, 408.3106
126.8255, 424.4969
127.3076, 443.6403
127.7897, 462.6578
128.2718, 478.7852
128.7539, 493.0208
129.2360, 507.7728
129.7182, 522.5894
130.2003, 539.0355
130.6824, 560.7728
131.1645, 588.0086
131.6466, 618.1916
132.1287, 652.0320
132.6109, 688.6505
133.0930, 719.0656
133.5751, 740.4518
134.0572, 753.0805
134.5393, 755.9153
135.0215, 747.1759
135.5036, 733.3880
135.9857, 723.3209
136.4678, 717.2354
136.9499, 712.8007
137.4320, 710.3589
137.9142, 710.5662
138.3963, 707.2162
138.8784, 702.6559
139.3605, 692.6016
139.8426, 664.3679
140.3247, 612.6442
140.8069, 555.3301
141.2890, 501.2000
141.7711, 446.5388
142.2532, 405.0949
142.7353, 380.3814
143.2174, 370.3982
143.6996, 360.0126
144.1817, 347.6115
144.6638, 336.5130
145.1459, 329.3765
145.6280, 328.0581
146.1101, 327.7870
146.5923, 328.5392
147.0744, 330.6365
147.5565, 330.1255
148.0386, 324.1739
148.5207, 317.0198
149.0028, 313.6381
149.4850, 314.0602
149.9671, 318.2435
150.4492, 327.0693
150.9313, 343.9740
151.4134, 357.3154
151.8955, 362.9263
152.3777, 365.5457
152.8598, 373.2431
153.3419, 392.2124
153.8240, 411.6508
154.3061, 428.0354
154.7882, 439.3591
155.2704, 449.8438
155.7525, 457.0231
156.2346, 463.2001
156.7167, 475.1757
157.1988, 497.8483
157.6809, 524.5211
158.1631, 551.4122
158.6452, 577.6143
159.1273, 604.0603
159.6094, 629.3331
160.0915, 654.0600
160.5736, 683.0656
161.0558, 723.6461
161.5379, 766.6708
162.0200, 804.4382
162.5021, 830.6010
162.9842, 853.9049
163.4663, 876.7573
163.9485, 899.2273
164.4306, 922.9549
164.9127, 944.3175
165.3948, 968.3904
165.8769, 1001.745
166.3591, 1054.230
166.8412, 1112.231
167.3233, 1168.061
167.8054, 1221.823
168.2875, 1271.225
168.7696, 1323.076
169.2518, 1369.662
169.7339, 1395.973
170.2160, 1392.655
170.6981, 1366.574
171.1802, 1321.734
171.6623, 1255.927
172.1445, 1180.432
172.6266, 1097.302
173.1087, 1010.239
173.5908, 930.8130
174.0729, 864.3805
174.5550, 810.6592
175.0372, 771.6051
175.5193, 750.4317
176.0014, 738.7934
176.4835, 728.4474
176.9656, 719.5983
177.4477, 713.5919
177.9299, 717.7270
178.4120, 725.2511
178.8941, 721.9373
179.3762, 700.1787
179.8583, 668.5162
180.3404, 638.9214
180.8226, 611.2315
181.3047, 584.2322
181.7868, 555.8301
182.2689, 527.0061
182.7510, 501.8062
183.2331, 482.0456
183.7153, 466.7557
184.1974, 453.3668
184.6795, 441.8676
185.1616, 433.5103
185.6437, 431.7057
186.1258, 435.3466
186.6080, 438.1414
187.0901, 435.6031
187.5722, 429.8724
188.0543, 429.0891
188.5364, 434.0753
189.0185, 441.2368
189.5007, 444.6797
189.9828, 444.7221
190.4649, 447.7143
190.9470, 459.3232
191.4291, 477.6560
191.9112, 491.2733
192.3934, 498.6450
192.8755, 502.9639
193.3576, 508.8529
193.8397, 516.2375
194.3218, 526.3281
194.8039, 541.0314
195.2861, 560.3315
195.7682, 578.0338
196.2503, 593.6106
196.7324, 607.5447
197.2145, 621.2439
197.6967, 635.1115
198.1788, 647.0782
198.6609, 654.5226
199.1430, 657.1464
199.6251, 662.4592
200.1072, 672.3978
200.5894, 685.1286
201.0715, 695.3326
201.5536, 703.0699
202.0357, 707.7110
202.5178, 708.1765
202.9999, 703.9947
203.4821, 698.5772
203.9642, 691.6970
204.4463, 683.9459
204.9284, 678.5526
205.4105, 675.4064
205.8926, 674.8658
206.3748, 677.7180
206.8569, 684.5333
207.3390, 692.3251
207.8211, 701.2766
208.3032, 711.1658
208.7853, 717.0816
209.2675, 717.8049
209.7496, 716.9631
210.2317, 719.1628
210.7138, 726.1078
211.1959, 730.1766
211.6780, 727.6340
212.1602, 718.2808
212.6423, 716.3158
213.1244, 724.0638
213.6065, 736.1385
214.0886, 745.6874
214.5707, 751.4910
215.0529, 757.7204
215.5350, 765.6226
216.0171, 775.3060
216.4992, 785.1167
216.9813, 794.4623
217.4634, 804.5691
217.9456, 817.1570
218.4277, 832.5302
218.9098, 849.9189
219.3919, 869.4514
219.8740, 891.8176
220.3561, 912.6262
220.8383, 930.2626
221.3204, 947.7425
221.8025, 971.4991
222.2846, 1006.981
222.7667, 1038.852
223.2488, 1061.238
223.7310, 1070.989
224.2131, 1080.186
224.6952, 1087.954
225.1773, 1095.565
225.6594, 1105.813
226.1415, 1120.318
226.6237, 1134.854
227.1058, 1147.199
227.5879, 1154.412
228.0700, 1166.731
228.5521, 1186.398
229.0343, 1210.416
229.5164, 1231.157
229.9985, 1246.965
230.4806, 1261.708
230.9627, 1276.731
231.4448, 1291.108
231.9270, 1308.372
232.4091, 1331.779
232.8912, 1357.808
233.3733, 1374.329
233.8554, 1377.647
234.3375, 1376.885
234.8197, 1377.364
235.3018, 1383.266
235.7839, 1381.299
236.2660, 1369.857
236.7481, 1350.118
237.2302, 1326.475
237.7124, 1298.072
238.1945, 1266.995
238.6766, 1234.646
239.1587, 1201.273
239.6408, 1165.643
240.1229, 1125.873
240.6051, 1083.594
241.0872, 1047.604
241.5693, 1019.054
242.0514, 995.2744
242.5335, 974.8166
243.0156, 957.5359
243.4978, 943.4957
243.9799, 933.3440
244.4620, 926.6465
244.9441, 919.9288
245.4262, 910.8406
245.9083, 904.6462
246.3905, 904.7415
246.8726, 912.4877
247.3547, 923.8990
247.8368, 940.6060
248.3189, 961.2604
248.8010, 976.2090
249.2832, 978.4086
249.7653, 984.0326
250.2474, 1005.311
250.7295, 1048.195
251.2116, 1093.184
251.6937, 1139.379
252.1759, 1186.120
252.6580, 1231.042
253.1401, 1272.408
253.6222, 1313.774
254.1043, 1357.203
254.5864, 1401.942
255.0686, 1451.187
255.5507, 1507.038
256.0328, 1568.700
256.5149, 1626.135
256.9970, 1683.260
257.4792, 1730.223
257.9613, 1757.398
258.4434, 1757.101
258.9255, 1756.414
259.4076, 1762.499
259.8897, 1772.677
260.3719, 1763.152
260.8540, 1727.148
261.3361, 1682.181
261.8182, 1641.253
262.3003, 1603.510
262.7824, 1571.453
263.2646, 1546.015
263.7467, 1526.753
264.2288, 1511.934
264.7109, 1501.736
265.1930, 1495.720
265.6751, 1494.059
266.1573, 1497.797
266.6394, 1502.778
267.1215, 1509.750
267.6036, 1517.749
268.0857, 1520.147
268.5678, 1515.249
269.0500, 1508.365
269.5321, 1506.058
270.0142, 1512.186
270.4963, 1505.025
270.9784, 1476.610
271.4605, 1432.084
271.9427, 1399.659
272.4248, 1382.177
272.9069, 1369.403
273.3890, 1353.049
273.8711, 1331.934
274.3532, 1313.030
274.8354, 1296.181
275.3175, 1282.537
275.7996, 1278.203
276.2817, 1284.699
276.7638, 1295.545
277.2459, 1306.153
277.7281, 1316.396
278.2102, 1327.948
278.6923, 1342.017
279.1744, 1357.188
279.6565, 1365.404
280.1386, 1364.273
280.6208, 1367.152
281.1029, 1386.759
281.5850, 1423.365
282.0671, 1458.181
282.5492, 1488.971
283.0313, 1515.652
283.5135, 1539.057
283.9956, 1559.692
284.4777, 1573.220
284.9598, 1572.157
285.4419, 1557.849
285.9240, 1550.094
286.4062, 1554.802
286.8883, 1564.474
287.3704, 1561.070
287.8525, 1544.218
288.3346, 1522.681
288.8167, 1502.305
289.2989, 1482.681
289.7810, 1462.848
290.2631, 1443.296
290.7452, 1422.497
291.2273, 1395.254
291.7094, 1362.135
292.1916, 1331.376
292.6737, 1309.420
293.1558, 1294.640
293.6379, 1282.514
294.1200, 1272.993
294.6021, 1264.580
295.0843, 1255.044
295.5664, 1244.588
296.0485, 1233.928
296.5306, 1224.424
297.0127, 1215.141
297.4948, 1202.945
297.9770, 1186.770
298.4591, 1169.479
298.9412, 1156.646
299.4233, 1146.492
299.9054, 1131.423
300.3875, 1103.266
300.8697, 1068.255
301.3518, 1035.387
301.8339, 1005.478
302.3160, 979.4354
302.7981, 960.9999
303.2803, 947.9114
303.7624, 934.2433
304.2445, 916.4699
304.7266, 896.4396
305.2087, 875.0518
305.6909, 852.1687
306.1730, 830.4859
306.6551, 814.7297
307.1372, 802.1816
307.6193, 787.0002
308.1014, 760.2328
308.5836, 733.3597
309.0657, 717.9157
309.5478, 715.5346
310.0299, 716.0904
310.5120, 714.8313
310.9941, 711.8134
311.4763, 707.0739
311.9584, 697.8828
312.4405, 689.0231
312.9226, 684.4958
313.4047, 684.6469
313.8868, 683.7882
314.3690, 675.9628
314.8511, 666.4566
315.3332, 661.2909
315.8153, 667.3383
316.2974, 674.2391
316.7795, 676.0459
317.2617, 672.7993
317.7438, 671.8033
318.2259, 675.8765
318.7080, 683.4008
319.1901, 692.9078
319.6722, 706.4617
320.1544, 719.5884
320.6365, 731.1393
321.1186, 741.1248
321.6007, 749.3949
322.0828, 754.1022
322.5649, 758.1068
323.0471, 763.3605
323.5292, 769.5558
324.0113, 777.6909
324.4934, 790.2820
324.9755, 805.9478
325.4576, 817.2365
325.9398, 818.2008
326.4219, 818.2360
326.9040, 822.1044
327.3861, 837.2513
327.8682, 847.4591
328.3503, 851.9394
328.8325, 851.2505
329.3146, 847.2454
329.7967, 838.3593
330.2788, 827.6998
330.7609, 816.3055
331.2430, 803.5502
331.7252, 791.4735
332.2073, 781.7503
332.6894, 772.2847
333.1715, 757.3820
333.6536, 731.5763
334.1357, 708.9222
334.6179, 696.1229
335.1000, 697.0350
335.5821, 691.3892
336.0642, 675.8958
336.5463, 656.8170
337.0284, 644.6646
337.5106, 641.7142
337.9927, 639.0393
338.4748, 634.0615
338.9569, 626.7266
339.4390, 617.6088
339.9211, 605.7424
340.4033, 594.1261
340.8854, 586.6115
341.3675, 583.2693
341.8496, 582.6338
342.3317, 585.4191
342.8138, 590.6777
343.2960, 593.1919
343.7781, 592.7189
344.2602, 590.7527
344.7423, 587.5715
345.2244, 583.4612
345.7065, 581.9337
346.1887, 583.9990
346.6708, 588.9751
347.1529, 595.8012
347.6350, 604.4164
348.1171, 613.4114
348.5992, 622.3757
349.0814, 630.8307
349.5635, 637.1084
350.0456, 640.3857
350.5277, 642.2402
351.0098, 642.8943
351.4919, 643.1909
351.9741, 647.6837
352.4562, 664.8684
352.9383, 686.4391
353.4204, 697.5123
353.9025, 693.3102
354.3846, 688.6409
354.8668, 699.3669
355.3489, 720.4566
355.8310, 739.6695
356.3131, 750.1840
356.7952, 756.4474
357.2773, 762.0149
357.7595, 767.1002
358.2416, 772.2312
358.7237, 776.8342
359.2058, 781.8859
359.6879, 788.6869
360.1700, 800.1335
360.6522, 811.4576
361.1343, 820.3080
361.6164, 826.5730
362.0985, 831.6906
362.5806, 837.7706
363.0627, 842.1961
363.5449, 842.6650
364.0270, 836.0302
364.5091, 828.0051
364.9912, 820.9709
365.4734, 814.3763
365.9555, 804.1455
366.4376, 786.8590
366.9197, 767.6658
367.4018, 749.3857
367.8839, 734.5544
368.3661, 717.7180
368.8482, 697.0487
369.3303, 674.1135
369.8124, 653.5305
370.2945, 635.8001
370.7766, 619.8859
371.2588, 605.4786
371.7409, 593.2623
372.2230, 580.3372
372.7051, 565.0449
373.1872, 550.2850
373.6693, 541.8807
374.1515, 543.2670
374.6336, 543.3625
375.1157, 537.9758
375.5978, 526.8016
376.0799, 518.4803
376.5620, 513.6320
377.0442, 510.4894
377.5263, 507.7491
378.0084, 505.7824
378.4905, 501.0878
378.9726, 491.6102
379.4547, 479.0410
379.9369, 469.5654
380.4190, 463.2786
380.9011, 459.9109
381.3832, 460.6757
381.8653, 464.8281
382.3474, 467.2758
382.8296, 466.5669
383.3117, 464.7357
383.7938, 466.2051
384.2759, 470.4527
384.7580, 473.0112
385.2401, 469.5741
385.7223, 462.8539
386.2044, 457.7074
386.6865, 454.4814
387.1686, 453.3576
387.6507, 455.6800
388.1328, 460.3161
388.6150, 464.4796
389.0971, 466.3185
389.5792, 467.4865
390.0613, 469.2481
390.5434, 471.6728
391.0255, 474.8217
391.5077, 480.4915
391.9898, 486.3620
392.4719, 489.7778
392.9540, 485.4762
393.4361, 482.6071
393.9182, 486.9582
394.4004, 497.2936
394.8825, 505.0121
395.3646, 502.9674
395.8467, 500.1928
396.3288, 502.6125
396.8109, 516.7608
397.2931, 528.2091
397.7752, 534.2531
398.2573, 536.0589
398.7394, 536.6478
399.2215, 531.3884
399.7036, 529.3646
400.1858, 534.1066
400.6679, 547.9299
401.1500, 561.2203
401.6321, 573.9479
402.1142, 586.1743
402.5963, 597.9891
403.0785, 609.5100
403.5606, 620.4209
404.0427, 630.5384
404.5248, 639.9502
405.0069, 649.0047
405.4890, 656.3376
405.9712, 666.4705
406.4533, 684.3530
406.9354, 710.8987
407.4175, 737.7085
407.8996, 764.8943
408.3817, 790.6023
408.8639, 807.6741
409.3460, 815.8896
409.8281, 824.6105
410.3102, 840.6168
410.7923, 862.3797
411.2744, 883.0604
411.7566, 901.9917
412.2387, 920.8038
412.7208, 944.8658
413.2029, 971.0997
413.6850, 989.7059
414.1671, 990.2858
414.6493, 983.3021
415.1314, 984.1017
415.6135, 992.8262
416.0956, 997.7310
416.5777, 989.1712
417.0598, 971.9282
417.5420, 951.8042
418.0241, 930.4719
418.5062, 907.1204
418.9883, 880.0450
419.4704, 850.1940
419.9525, 822.0685
420.4347, 797.5551
420.9168, 775.3933
421.3989, 754.6589
421.8810, 735.5728
422.3631, 717.6121
422.8452, 700.6901
423.3274, 685.0225
423.8095, 670.7145
424.2916, 657.3683
424.7737, 646.0549
425.2558, 637.9703
425.7379, 634.0378
426.2201, 626.1155
426.7022, 610.8458
427.1843, 594.5011
427.6664, 582.3723
428.1486, 575.0802
428.6307, 570.7704
429.1128, 571.2391
429.5949, 574.2060
430.0770, 569.0237
430.5591, 553.0356
431.0413, 537.2288
431.5234, 528.1375
432.0055, 525.8723
432.4876, 525.2994
432.9697, 526.5000
433.4518, 528.6034
433.9340, 530.9268
434.4161, 533.3347
434.8982, 534.2861
435.3803, 532.4017
435.8624, 528.8057
436.3445, 525.3541
436.8267, 522.0844
437.3088, 520.5269
437.7909, 523.0750
438.2730, 528.0807
438.7551, 532.6297
439.2372, 535.8445
439.7194, 538.4803
440.2015, 541.7546
440.6836, 545.1094
441.1657, 546.6950
441.6478, 543.5045
442.1299, 539.6324
442.6121, 537.8096
443.0942, 538.5089
443.5763, 540.8142
444.0584, 544.3846
444.5405, 549.3785
445.0226, 556.0667
445.5048, 567.9655
445.9869, 577.9659
446.4690, 583.6278
446.9511, 584.8578
447.4332, 586.5527
447.9153, 588.5367
448.3975, 591.2484
448.8796, 594.6226
449.3617, 596.3721
449.8438, 603.7060
450.3259, 619.4407
450.8080, 639.8301
451.2902, 655.2205
451.7723, 664.1053
452.2544, 672.8688
452.7365, 683.7681
453.2186, 696.9017
453.7007, 710.8753
454.1829, 725.9881
454.6650, 741.1623
455.1471, 755.2851
455.6292, 768.4424
456.1113, 779.8413
456.5934, 787.6703
457.0756, 795.3946
457.5577, 809.4473
458.0398, 829.3134
458.5219, 852.1740
459.0040, 880.7131
459.4861, 909.4943
459.9683, 930.1861
460.4504, 942.0640
460.9325, 946.0299
461.4146, 939.2040
461.8967, 925.5397
462.3788, 911.6620
462.8610, 901.0237
463.3431, 889.9485
463.8252, 876.5700
464.3073, 860.8769
464.7894, 844.0233
465.2715, 820.9540
465.7537, 800.2393
466.2358, 787.8495
466.7179, 792.9245
467.2000, 795.2026
467.6821, 790.0198
468.1642, 781.7373
468.6464, 779.7305
469.1285, 787.7702
469.6106, 796.4869
470.0927, 803.2864
470.5748, 808.0237
471.0569, 811.5302
471.5391, 812.9592
472.0212, 814.6956
472.5033, 819.1703
472.9854, 826.4927
473.4675, 834.9095
473.9496, 844.2407
474.4318, 854.2836
474.9139, 864.7980
475.3960, 875.7834
475.8781, 886.5764
476.3602, 894.8586
476.8423, 902.8462
477.3245, 917.0681
477.8066, 938.8257
478.2887, 960.0190
478.7708, 970.4320
479.2529, 975.1985
479.7350, 983.5745
480.2172, 1003.227
480.6993, 1024.055
481.1814, 1037.244
481.6635, 1044.802
482.1456, 1056.869
482.6277, 1083.397
483.1099, 1112.029
483.5920, 1133.875
484.0741, 1141.257
484.5562, 1155.308
485.0383, 1187.448
485.5204, 1226.178
486.0026, 1254.348
486.4847, 1258.365
486.9668, 1268.334
487.4489, 1292.762
487.9310, 1330.254
488.4131, 1361.251
488.8953, 1381.927
489.3774, 1402.935
489.8595, 1433.382
490.3416, 1475.775
490.8238, 1511.257
491.3059, 1537.613
491.7880, 1558.809
492.2701, 1583.658
492.7522, 1611.896
493.2343, 1630.373
493.7165, 1629.391
494.1986, 1615.989
494.6807, 1608.707
495.1628, 1607.232
495.6449, 1601.737
496.1270, 1582.861
496.6092, 1555.355
497.0913, 1524.661
497.5734, 1489.104
498.0555, 1457.677
498.5376, 1439.672
499.0197, 1430.124
499.5019, 1418.471
499.9840, 1398.667
500.4661, 1377.573
500.9482, 1357.703
501.4303, 1339.417
501.9124, 1322.288
502.3946, 1305.683
502.8767, 1290.707
503.3588, 1278.075
503.8409, 1266.906
504.3230, 1259.768
504.8051, 1260.680
505.2873, 1264.413
505.7694, 1256.687
506.2515, 1231.933
506.7336, 1210.186
507.2157, 1200.610
507.6978, 1202.523
508.1800, 1200.119
508.6621, 1193.763
509.1442, 1181.505
509.6263, 1157.697
510.1084, 1124.951
510.5905, 1097.842
511.0727, 1080.652
511.5548, 1066.752
512.0369, 1045.788
512.5190, 1019.677
513.0011, 995.0341
513.4832, 980.2198
513.9653, 965.5068
514.4474, 937.4852
514.9296, 895.1960
515.4117, 860.9654
515.8938, 852.6823
516.3759, 854.1793
516.8580, 851.0691
517.3401, 835.8600
517.8223, 821.1843
518.3044, 809.3090
518.7865, 799.8036
519.2687, 791.2532
519.7508, 779.1171
520.2329, 773.2959
520.7150, 779.6362
521.1971, 799.9628
521.6793, 808.9161
522.1614, 802.7857
522.6435, 791.6451
523.1256, 784.2031
523.6077, 781.0167
524.0898, 775.9180
524.5720, 768.2335
525.0541, 758.0735
525.5362, 744.8558
526.0183, 728.9431
526.5004, 712.6279
526.9825, 696.9415
527.4647, 681.7144
527.9468, 665.4762
528.4289, 648.2444
528.9110, 632.5567
529.3931, 620.4339
529.8752, 610.5508
530.3574, 601.5833
530.8395, 593.1131
531.3216, 585.5394
531.8037, 577.8107
532.2858, 571.1783
532.7679, 567.6862
533.2501, 570.5851
533.7322, 574.0392
534.2143, 576.5188
534.6964, 578.0040
535.1785, 578.8260
535.6606, 577.4414
536.1428, 577.1704
536.6249, 580.6278
537.1070, 589.6495
537.5891, 595.7032
538.0712, 597.6632
538.5533, 597.8103
539.0355, 599.7902
539.5176, 603.6201
539.9997, 607.6889
540.4818, 611.0265
540.9639, 614.5151
541.4460, 621.6508
541.9282, 631.9317
542.4103, 640.3335
542.8924, 640.4327
543.3745, 637.4142
543.8566, 638.9655
544.3387, 647.0901
544.8209, 654.5734
545.3030, 657.7896
545.7851, 657.2233
546.2672, 653.4824
546.7493, 639.3844
547.2314, 629.9625
547.7136, 633.1982
548.1957, 646.3086
548.6778, 654.5559
549.1599, 652.4114
549.6420, 649.7206
550.1241, 650.6203
550.6063, 656.6382
551.0884, 658.0194
551.5705, 652.6930
552.0526, 646.1222
552.5347, 644.7470
553.0168, 649.1033
553.4990, 650.7437
553.9811, 647.0687
554.4632, 641.6466
554.9453, 643.3521
555.4274, 650.9058
555.9095, 655.4635
556.3917, 648.9008
556.8738, 638.0674
557.3559, 633.2865
557.8380, 634.6713
558.3201, 636.6761
558.8022, 633.9891
559.2844, 630.9630
559.7665, 632.6008
560.2486, 644.7536
560.7307, 652.0926
561.2128, 644.7170
561.6949, 630.4990
562.1771, 622.3160
562.6592, 627.1089
563.1413, 632.6127
563.6234, 637.8710
564.1055, 642.5095
564.5876, 642.8322
565.0698, 637.2120
565.5519, 630.4936
566.0340, 624.3957
566.5161, 618.7675
566.9982, 618.7376
567.4803, 625.7606
567.9625, 633.5071
568.4446, 633.0551
568.9267, 626.1993
569.4088, 620.5145
569.8909, 618.2018
570.3730, 617.8492
570.8552, 617.6089
571.3373, 617.8148
571.8194, 619.5245
572.3015, 626.4426
572.7836, 632.6660
573.2657, 632.7548
573.7479, 625.9974
574.2300, 621.6721
574.7121, 624.8051
575.1942, 629.9414
575.6763, 633.1520
576.1584, 632.6589
576.6406, 632.4650
577.1227, 632.3148
577.6048, 632.6243
578.0869, 634.7912
578.5690, 640.1682
579.0511, 642.2858
579.5333, 637.6568
580.0154, 628.8870
580.4975, 627.5857
580.9796, 633.9948
581.4617, 640.3723
581.9438, 639.9802
582.4260, 635.9143
582.9081, 635.5441
583.3902, 639.7202
583.8723, 644.2115
584.3544, 644.7453
584.8365, 643.6450
585.3187, 644.1309
585.8008, 649.2697
586.2829, 653.3281
586.7650, 653.3586
587.2471, 650.6608
587.7292, 648.1692
588.2114, 644.2960
588.6935, 643.0082
589.1756, 646.2784
589.6577, 654.1823
590.1398, 660.2937
590.6219, 664.8491
591.1041, 667.2998
591.5862, 665.9452
592.0683, 660.2868
592.5504, 659.2676
593.0325, 664.0035
593.5146, 671.2574
593.9968, 678.3847
594.4789, 684.7415
594.9610, 687.1335
595.4431, 681.9557
595.9252, 675.8451
596.4073, 678.0394
596.8895, 686.0161
597.3716, 692.1393
597.8537, 690.3322
598.3358, 687.1871
598.8179, 686.5120
599.3000, 688.6224
599.7822, 691.5027
600.2643, 696.9993
600.7464, 701.4136
601.2285, 701.9000
601.7106, 692.9064
602.1927, 691.7089
602.6749, 702.1489
603.1570, 716.5664
603.6391, 722.4095
604.1212, 718.0521
604.6033, 718.1486
605.0854, 728.3017
605.5676, 743.2972
606.0497, 750.7499
606.5318, 751.3027
607.0139, 749.9026
607.4960, 746.9256
607.9781, 744.9256
608.4603, 748.5170
608.9424, 757.7875
609.4245, 766.1497
609.9066, 767.8203
610.3887, 767.9556
610.8708, 770.9475
611.3530, 778.9169
611.8351, 787.2732
612.3172, 796.4349
612.7993, 805.0842
613.2814, 811.2467
613.7635, 814.3118
614.2457, 816.0942
614.7278, 816.4854
615.2099, 815.9235
615.6920, 815.2067
616.1741, 813.9490
616.6563, 815.3281
617.1384, 821.2374
617.6205, 831.0720
618.1026, 844.6700
618.5847, 861.9179
619.0668, 876.8303
619.5490, 882.7465
620.0311, 883.8267
620.5132, 885.3678
620.9953, 888.1858
621.4774, 891.9427
621.9595, 897.5340
622.4417, 903.6102
622.9238, 908.4949
623.4059, 906.8123
623.8880, 909.8557
624.3701, 922.7859
624.8522, 941.5087
625.3344, 954.6974
625.8165, 959.6628
626.2986, 965.1276
626.7807, 975.1154
627.2628, 988.7070
627.7449, 996.4130
628.2271, 997.5456
628.7092, 999.4901
629.1913, 1008.554
629.6734, 1022.679
630.1555, 1036.653
630.6376, 1049.809
631.1198, 1063.906
631.6019, 1081.392
632.0840, 1100.589
632.5661, 1118.884
633.0482, 1137.560
633.5303, 1152.929
634.0125, 1160.268
634.4946, 1163.678
634.9767, 1172.080
635.4588, 1190.605
635.9409, 1208.864
636.4230, 1225.047
636.9052, 1239.023
637.3873, 1250.442
637.8694, 1257.071
638.3515, 1268.741
638.8336, 1293.253
639.3157, 1328.773
639.7979, 1362.487
640.2800, 1394.136
640.7621, 1422.957
641.2442, 1445.102
641.7263, 1464.816
642.2084, 1489.182
642.6906, 1520.280
643.1727, 1553.983
643.6548, 1585.389
644.1370, 1618.194
644.6191, 1657.477
645.1012, 1704.702
645.5833, 1758.717
646.0654, 1819.089
646.5475, 1885.979
647.0297, 1964.395
647.5118, 2060.150
647.9939, 2153.933
648.4760, 2232.042
648.9581, 2299.277
649.4402, 2391.349
649.9224, 2508.889
650.4045, 2639.264
650.8866, 2772.887
651.3687, 2910.969
651.8508, 3055.561
652.3329, 3206.578
652.8151, 3366.446
653.2972, 3529.034
653.7793, 3706.660
654.2614, 3914.991
654.7435, 4173.814
655.2256, 4441.914
655.7078, 4700.308
656.1899, 4961.193
656.6720, 5249.020
657.1541, 5566.065
657.6362, 5911.360
658.1183, 6288.579
658.6005, 6693.266
659.0826, 7104.251
659.5647, 7519.375
660.0468, 7962.312
660.5289, 8451.967
661.0110, 8984.115
661.4932, 9549.395
661.9753, 10148.32
662.4574, 10787.67
662.9395, 11496.28
663.4216, 12235.38
663.9037, 12975.26
664.3859, 13713.92
664.8680, 14440.88
665.3501, 15215.08
665.8322, 15942.68
666.3143, 16536.50
666.7964, 17016.60
667.2786, 17313.02
667.7607, 17441.02
668.2428, 17367.20
668.7249, 17016.05
669.2070, 16362.69
669.6891, 15542.70
670.1713, 14549.56
670.6534, 13445.97
671.1355, 12373.97
671.6176, 11340.45
672.0997, 10355.77
672.5818, 9402.362
673.0640, 8520.494
673.5461, 7747.260
674.0282, 7079.808
674.5103, 6481.604
674.9924, 5951.246
675.4745, 5479.749
675.9567, 5057.125
676.4388, 4687.630
676.9209, 4368.762
677.4030, 4115.760
677.8851, 3895.995
678.3672, 3680.495
678.8494, 3462.582
679.3315, 3274.209
679.8136, 3117.020
680.2957, 2983.274
680.7778, 2862.344
681.2599, 2754.489
681.7421, 2655.978
682.2242, 2567.821
682.7063, 2486.797
683.1884, 2407.461
683.6705, 2332.324
684.1526, 2269.133
684.6348, 2224.016
685.1169, 2187.927
685.5990, 2157.930
686.0811, 2133.873
686.5632, 2113.772
687.0453, 2096.466
687.5275, 2084.152
688.0096, 2077.187
688.4917, 2075.520
688.9738, 2081.304
689.4559, 2094.216
689.9380, 2115.698
690.4202, 2149.818
690.9023, 2193.292
691.3844, 2235.576
691.8665, 2275.762
692.3486, 2318.816
692.8307, 2365.335
693.3129, 2418.610
693.7950, 2483.411
694.2771, 2561.572
694.7592, 2649.522
695.2413, 2749.119
695.7234, 2857.377
696.2056, 2970.308
696.6877, 3087.048
697.1698, 3209.269
697.6519, 3338.783
698.1340, 3472.696
698.6161, 3601.255
699.0983, 3724.823
699.5804, 3848.123
700.0625, 3976.822
700.5446, 4103.559
701.0267, 4220.833
701.5089, 4325.484
701.9910, 4401.299
702.4731, 4442.793
702.9552, 4447.513
703.4373, 4411.392
703.9194, 4334.081
704.4016, 4225.418
704.8837, 4071.395
705.3658, 3899.371
705.8479, 3721.213
706.3300, 3536.495
706.8121, 3354.661
707.2943, 3172.656
707.7764, 2999.094
708.2585, 2841.741
708.7406, 2699.583
709.2227, 2556.163
709.7048, 2405.523
710.1870, 2269.010
710.6691, 2171.409
711.1512, 2100.272
711.6333, 2035.081
712.1154, 1971.444
712.5975, 1908.301
713.0797, 1839.578
713.5618, 1772.345
714.0439, 1719.678
714.5260, 1694.427
715.0081, 1671.361
715.4902, 1647.637
715.9724, 1624.017
716.4545, 1602.188
716.9366, 1582.587
717.4187, 1563.293
717.9008, 1544.195
718.3829, 1524.939
718.8651, 1508.077
719.3472, 1492.238
719.8293, 1468.927
720.3114, 1426.698
720.7935, 1378.691
721.2756, 1335.303
721.7578, 1297.797
722.2399, 1262.377
722.7220, 1229.618
723.2041, 1197.663
723.6862, 1164.241
724.1683, 1127.847
724.6505, 1098.490
725.1326, 1078.655
725.6147, 1060.741
726.0968, 1036.775
726.5789, 1007.196
727.0610, 984.1038
727.5432, 969.0079
728.0253, 957.4427
728.5074, 945.3907
728.9895, 933.6066
729.4716, 923.2399
729.9537, 914.9650
730.4359, 907.3451
730.9180, 901.0046
731.4001, 894.5110
731.8822, 885.8929
732.3643, 872.2246
732.8464, 859.6216
733.3286, 847.8734
733.8107, 837.9413
734.2928, 833.1036
734.7749, 834.0829
735.2570, 834.1455
735.7391, 830.5612
736.2213, 825.6823
736.7034, 825.3998
737.1855, 828.4327
737.6676, 829.6845
738.1497, 825.5983
738.6318, 819.5078
739.1140, 813.0163
739.5961, 806.4376
740.0782, 801.0561
740.5603, 799.4930
741.0424, 796.8426
741.5245, 790.3646
742.0067, 780.1621
742.4888, 773.2912
742.9709, 769.4285
743.4530, 769.8142
743.9351, 778.6044
744.4172, 793.0557
744.8994, 798.6140
745.3815, 795.0449
745.8636, 788.8979
746.3457, 782.5766
746.8278, 778.0792
747.3099, 779.0730
747.7921, 787.5552
748.2742, 792.7371
748.7563, 790.2851
749.2384, 783.5662
749.7205, 775.2333
750.2026, 764.9487
750.6848, 753.1445
751.1669, 737.0913
751.6490, 724.3225
752.1311, 726.6965
752.6132, 742.5336
753.0953, 755.0862
753.5775, 761.6279
754.0596, 763.7415
754.5417, 760.0316
755.0238, 753.7009
755.5059, 750.5491
755.9880, 755.5975
756.4702, 759.4344
756.9523, 755.9605
757.4344, 749.5139
757.9165, 748.3182
758.3986, 757.4833
758.8807, 763.1270
759.3629, 762.4111
759.8450, 757.6898
760.3271, 753.8416
760.8092, 750.8640
761.2913, 750.5771
761.7734, 754.9464
762.2556, 760.9407
762.7377, 764.2155
763.2198, 765.2908
763.7019, 765.7687
764.1840, 768.1529
764.6661, 768.4327
765.1483, 760.9727
765.6304, 747.9067
766.1125, 745.0963
766.5947, 762.6935
767.0768, 775.4795
767.5589, 772.5560
768.0410, 757.0056
768.5231, 752.1606
769.0052, 758.5490
769.4874, 765.4780
769.9695, 765.3983
770.4516, 761.9113
770.9337, 761.8857
771.4158, 764.9976
771.8979, 766.4523
772.3801, 760.2509
772.8622, 754.2135
773.3443, 754.7101
773.8264, 763.7797
774.3085, 766.9531
774.7906, 759.8856
775.2728, 752.2644
775.7549, 749.3734
776.2370, 751.3572
776.7191, 755.1036
777.2012, 760.6686
777.6833, 767.5509
778.1655, 778.4162
778.6476, 789.4069
779.1297, 792.1283
779.6118, 785.0516
780.0939, 777.2349
780.5760, 772.2892
781.0582, 769.7294
781.5403, 769.3259
782.0224, 771.8890
782.5045, 774.9272
782.9866, 778.8789
783.4688, 782.7052
783.9509, 785.1099
784.4330, 786.0490
784.9151, 788.3738
785.3972, 792.5117
785.8793, 797.2557
786.3615, 803.4459
786.8436, 808.6680
787.3257, 807.8539
787.8078, 797.0881
788.2899, 787.5414
788.7720, 785.8796
789.2542, 787.8398
789.7363, 788.1942
790.2184, 783.0240
790.7005, 782.3681
791.1826, 787.4757
791.6647, 796.1628
792.1469, 807.2475
792.6290, 820.4782
793.1111, 827.1302
793.5932, 824.0687
794.0753, 817.6508
794.5574, 813.9232
795.0396, 812.6351
795.5217, 813.3262
796.0038, 817.0406
796.4859, 821.1406
796.9680, 826.2197
797.4501, 830.6758
797.9323, 830.9962
798.4144, 822.5801
798.8965, 821.1968
799.3786, 831.9734
799.8607, 847.5793
800.3428, 852.6280
800.8250, 848.3707
801.3071, 845.6257
801.7892, 848.5905
802.2713, 853.5784
802.7534, 856.9641
803.2355, 859.4869
803.7177, 862.6966
804.1998, 871.5248
804.6819, 876.1606
805.1640, 869.1688
805.6461, 856.9138
806.1282, 853.6349
806.6104, 862.4105
807.0925, 869.8433
807.5746, 872.3373
808.0567, 871.6815
808.5388, 870.9975
809.0209, 870.4854
809.5031, 871.0243
809.9852, 871.5024
810.4673, 874.6642
810.9494, 885.5976
811.4315, 900.9614
811.9136, 911.9468
812.3958, 912.6089
812.8779, 912.7948
813.3600, 914.2080
813.8421, 916.7787
814.3242, 920.6570
814.8063, 926.0463
815.2885, 930.9470
815.7706, 933.9902
816.2527, 936.7862
816.7348, 943.9405
817.2169, 953.7394
817.6990, 960.5504
818.1812, 959.7162
818.6633, 956.9641
819.1454, 953.8578
819.6275, 951.1276
820.1096, 951.5284
820.5917, 954.8857
821.0739, 962.1403
821.5560, 976.3126
822.0381, 993.3437
822.5202, 997.2108
823.0023, 988.4655
823.4844, 983.0975
823.9666, 993.1937
824.4487, 1006.480
824.9308, 1005.118
825.4129, 993.6332
825.8950, 986.1033
826.3771, 991.6683
826.8593, 998.4494
827.3414, 1002.825
827.8235, 1004.944
828.3056, 1005.114
828.7877, 1002.624
829.2698, 1000.521
829.7520, 999.6852
830.2341, 1000.091
830.7162, 1002.916
831.1983, 1007.363
831.6804, 1009.647
832.1625, 1004.525
832.6447, 999.3632
833.1268, 1000.841
833.6089, 1006.928
834.0910, 1010.592
834.5731, 1009.608
835.0552, 1006.397
835.5374, 999.1375
836.0195, 990.5021
836.5016, 992.5605
836.9837, 1005.818
837.4658, 1015.921
837.9479, 1015.206
838.4301, 1010.230
838.9122, 1011.363
839.3943, 1016.859
839.8764, 1021.508
840.3585, 1022.363
840.8406, 1022.669
841.3228, 1024.020
841.8049, 1025.841
842.2870, 1026.312
842.7691, 1025.509
843.2512, 1022.725
843.7333, 1016.359
844.2155, 1009.296
844.6976, 1008.841
845.1797, 1014.098
845.6618, 1020.776
846.1439, 1029.851
846.6260, 1036.467
847.1082, 1033.208
847.5903, 1024.792
848.0724, 1021.936
848.5545, 1034.513
849.0366, 1043.636
849.5187, 1045.473
850.0009, 1042.600
850.4830, 1040.805
850.9651, 1040.146
851.4472, 1039.137
851.9293, 1037.307
852.4114, 1035.043
852.8936, 1030.427
853.3757, 1026.043
853.8578, 1027.277
854.3399, 1045.568
854.8220, 1059.266
855.3041, 1055.547
855.7863, 1044.007
856.2684, 1041.948
856.7505, 1053.618
857.2326, 1061.939
857.7147, 1064.187
858.1968, 1062.083
858.6790, 1055.648
859.1611, 1046.953
859.6432, 1043.671
860.1253, 1050.028
860.6074, 1057.816
861.0895, 1060.046
861.5717, 1060.625
862.0538, 1064.812
862.5359, 1079.247
863.0180, 1089.405
863.5001, 1094.362
863.9822, 1095.666
864.4644, 1094.511
864.9465, 1091.075
865.4286, 1088.384
865.9107, 1086.954
866.3928, 1086.367
866.8749, 1086.605
867.3571, 1087.242
867.8392, 1087.911
868.3213, 1089.283
868.8034, 1088.905
869.2855, 1083.280
869.7676, 1077.788
870.2498, 1077.250
870.7319, 1082.733
871.2140, 1086.603
871.6961, 1088.287
872.1782, 1089.477
872.6603, 1091.875
873.1425, 1095.029
873.6246, 1098.430
874.1067, 1102.104
874.5888, 1104.514
875.0709, 1102.373
875.5530, 1100.445
876.0352, 1103.347
876.5173, 1112.965
876.9994, 1117.451
877.4815, 1115.262
877.9636, 1112.019
878.4457, 1111.185
878.9279, 1112.687
879.4100, 1117.393
879.8921, 1125.147
880.3742, 1131.683
880.8563, 1131.690
881.3384, 1131.184
881.8206, 1134.621
882.3027, 1142.516
882.7848, 1152.310
883.2669, 1166.746
883.7490, 1177.861
884.2311, 1179.852
884.7133, 1175.321
885.1954, 1180.764
885.6775, 1195.651
886.1596, 1212.739
886.6417, 1233.020
887.1238, 1249.318
887.6060, 1249.815
888.0881, 1238.962
888.5702, 1237.121
889.0523, 1259.803
889.5344, 1280.451
890.0166, 1290.367
890.4987, 1294.345
890.9808, 1310.770
891.4630, 1339.788
891.9451, 1367.342
892.4272, 1387.667
892.9093, 1404.472
893.3914, 1421.014
893.8735, 1438.558
894.3557, 1459.620
894.8378, 1490.234
895.3199, 1518.604
895.8020, 1540.313
896.2841, 1558.598
896.7662, 1579.414
897.2484, 1605.128
897.7305, 1619.125
898.2126, 1617.134
898.6947, 1607.350
899.1768, 1599.979
899.6589, 1593.281
900.1411, 1583.581
900.6232, 1569.854
901.1053, 1553.784
901.5874, 1532.002
902.0695, 1510.874
902.5516, 1497.542
903.0338, 1496.404
903.5159, 1487.215
903.9980, 1466.605
904.4801, 1447.743
904.9622, 1447.398
905.4443, 1457.672
905.9265, 1457.991
906.4086, 1445.735
906.8907, 1436.285
907.3728, 1444.517
907.8549, 1454.423
908.3370, 1452.938
908.8192, 1437.831
909.3013, 1428.425
909.7834, 1424.259
910.2655, 1427.128
910.7476, 1441.710
911.2297, 1463.988
911.7119, 1480.469
912.1940, 1491.458
912.6761, 1498.454
913.1582, 1497.962
913.6403, 1497.771
914.1224, 1503.800
914.6046, 1515.005
915.0867, 1522.533
915.5688, 1522.799
916.0509, 1527.629
916.5330, 1543.466
917.0151, 1563.031
917.4973, 1567.138
917.9794, 1558.283
918.4615, 1547.119
918.9436, 1534.938
919.4257, 1525.959
919.9078, 1525.786
920.3900, 1529.746
920.8721, 1529.413
921.3542, 1520.030
921.8363, 1513.299
922.3184, 1509.813
922.8005, 1509.660
923.2827, 1514.766
923.7648, 1523.677
924.2469, 1530.171
924.7290, 1533.312
925.2111, 1532.910
925.6932, 1526.683
926.1754, 1518.139
926.6575, 1510.365
927.1396, 1503.218
927.6217, 1499.128
928.1038, 1498.183
928.5859, 1500.253
929.0681, 1506.468
929.5502, 1516.063
930.0323, 1524.562
930.5144, 1531.794
930.9965, 1535.731
931.4786, 1528.082
931.9608, 1522.263
932.4429, 1531.034
932.9250, 1553.893
933.4071, 1572.399
933.8892, 1587.160
934.3713, 1593.840
934.8535, 1587.550
935.3356, 1574.567
935.8177, 1574.116
936.2998, 1584.943
936.7819, 1600.313
937.2640, 1621.085
937.7462, 1640.555
938.2283, 1650.762
938.7104, 1656.838
939.1925, 1669.381
939.6746, 1696.947
940.1567, 1716.628
940.6389, 1722.918
941.1210, 1726.422
941.6031, 1743.394
942.0852, 1771.087
942.5673, 1799.661
943.0494, 1827.647
943.5316, 1853.788
944.0137, 1875.591
944.4958, 1896.133
944.9779, 1917.737
945.4600, 1940.087
945.9421, 1964.974
946.4243, 1991.116
946.9064, 2022.508
947.3885, 2066.412
947.8706, 2118.480
948.3527, 2157.985
948.8348, 2186.180
949.3170, 2216.548
949.7991, 2255.464
950.2812, 2301.480
950.7633, 2357.706
951.2454, 2421.855
951.7275, 2477.573
952.2097, 2518.948
952.6918, 2566.776
953.1739, 2627.216
953.6560, 2696.362
954.1381, 2764.909
954.6202, 2834.751
955.1024, 2912.857
955.5845, 3010.011
956.0666, 3102.601
956.5487, 3165.549
957.0308, 3221.619
957.5129, 3302.635
957.9951, 3418.884
958.4772, 3531.268
958.9593, 3638.183
959.4414, 3741.076
959.9235, 3837.666
960.4056, 3933.389
960.8878, 4044.973
961.3699, 4173.673
961.8520, 4302.677
962.3341, 4421.734
962.8162, 4539.702
963.2983, 4666.711
963.7805, 4803.165
964.2626, 4915.530
964.7447, 5000.112
965.2268, 5093.298
965.7089, 5222.356
966.1910, 5364.218
966.6732, 5475.800
967.1553, 5564.923
967.6374, 5653.548
968.1195, 5752.411
968.6016, 5847.614
969.0837, 5936.151
969.5659, 6017.825
970.0480, 6092.780
970.5301, 6162.651
971.0122, 6207.078
971.4943, 6218.088
971.9764, 6224.191
972.4586, 6273.844
972.9407, 6331.274
973.4228, 6343.393
973.9049, 6287.438
974.3870, 6237.162
974.8691, 6214.429
975.3513, 6191.363
975.8334, 6154.018
976.3155, 6102.331
976.7976, 6034.215
977.2797, 5949.621
977.7618, 5865.169
978.2440, 5793.621
978.7261, 5725.203
979.2082, 5648.818
979.6903, 5567.349
980.1724, 5494.717
980.6545, 5429.715
981.1367, 5379.312
981.6188, 5347.862
982.1009, 5327.745
982.5830, 5304.243
983.0651, 5278.147
983.5472, 5254.470
984.0294, 5237.111
984.5115, 5213.980
984.9936, 5174.923
985.4757, 5127.162
985.9578, 5076.359
986.4399, 5017.990
986.9221, 4975.854
987.4042, 4955.332
987.8863, 4932.097
988.3684, 4875.143
988.8505, 4804.683
989.3326, 4772.171
989.8148, 4774.633
990.2969, 4776.066
990.7790, 4753.542
991.2611, 4731.379
991.7432, 4721.694
992.2253, 4720.621
992.7075, 4714.506
993.1896, 4701.979
993.6717, 4697.624
994.1538, 4705.937
994.6359, 4723.617
995.1180, 4750.576
995.6002, 4782.461
996.0823, 4812.865
996.5644, 4842.983
997.0465, 4864.062
997.5286, 4869.261
998.0107, 4871.983
998.4929, 4888.275
998.9750, 4916.429
999.4571, 4914.891
999.9392, 4882.951
1000.421, 4846.093
1000.903, 4825.316
1001.386, 4805.905
1001.868, 4773.383
1002.350, 4729.604
1002.832, 4692.440
1003.314, 4655.705
1003.796, 4643.477
1004.278, 4668.697
1004.760, 4713.579
1005.242, 4737.254
1005.725, 4748.898
1006.207, 4775.444
1006.689, 4825.203
1007.171, 4891.938
1007.653, 4964.846
1008.135, 5059.870
1008.617, 5193.359
1009.099, 5373.346
1009.582, 5545.762
1010.064, 5708.512
1010.546, 5871.559
1011.028, 6027.429
1011.510, 6199.225
1011.992, 6433.925
1012.474, 6725.510
1012.956, 7002.649
1013.439, 7224.792
1013.921, 7453.023
1014.403, 7704.803
1014.885, 7973.110
1015.367, 8254.218
1015.849, 8544.645
1016.331, 8801.204
1016.813, 9015.150
1017.295, 9189.032
1017.778, 9338.515
1018.260, 9439.021
1018.742, 9459.333
1019.224, 9384.238
1019.706, 9265.159
1020.188, 9103.523
1020.670, 8892.191
1021.152, 8610.136
1021.635, 8276.572
1022.117, 7934.583
1022.599, 7585.296
1023.081, 7230.728
1023.563, 6860.559
1024.045, 6497.399
1024.527, 6139.518
1025.009, 5794.860
1025.491, 5481.620
1025.974, 5199.284
1026.456, 4942.322
1026.938, 4707.903
1027.420, 4495.737
1027.902, 4304.065
1028.384, 4131.068
1028.866, 3978.727
1029.348, 3850.788
1029.830, 3726.772
1030.313, 3601.228
1030.795, 3485.532
1031.277, 3390.525
1031.759, 3311.268
1032.241, 3224.585
1032.723, 3133.081
1033.205, 3046.557
1033.687, 2967.569
1034.170, 2897.827
1034.652, 2840.000
1035.134, 2790.921
1035.616, 2742.897
1036.098, 2693.523
1036.580, 2657.756
1037.062, 2639.516
1037.544, 2622.985
1038.026, 2588.289
1038.509, 2545.563
1038.991, 2508.926
1039.473, 2480.851
1039.955, 2450.227
1040.437, 2409.407
1040.919, 2374.006
1041.401, 2351.370
1041.883, 2338.594
1042.365, 2327.958
1042.848, 2318.482
1043.330, 2304.066
1043.812, 2276.083
1044.294, 2251.641
1044.776, 2247.336
1045.258, 2250.014
1045.740, 2240.761
1046.222, 2214.837
1046.705, 2193.588
1047.187, 2178.319
1047.669, 2164.215
1048.151, 2144.973
1048.633, 2125.407
1049.115, 2112.591
1049.597, 2106.455
1050.079, 2103.559
1050.562, 2106.813
1051.044, 2108.125
1051.526, 2105.286
1052.008, 2099.489
1052.490, 2094.039
1052.972, 2088.296
1053.454, 2078.736
1053.936, 2063.074
1054.418, 2047.773
1054.901, 2034.918
1055.383, 2026.058
1055.865, 2024.524
1056.347, 2032.256
1056.829, 2030.371
1057.311, 2017.234
1057.793, 2004.200
1058.275, 1998.818
1058.757, 1997.509
1059.240, 1994.316
1059.722, 1990.846
1060.204, 1991.527
1060.686, 2007.605
1061.168, 2013.446
1061.650, 2002.239
1062.132, 1985.060
1062.614, 1977.967
1063.097, 1978.303
1063.579, 1972.582
1064.061, 1958.886
1064.543, 1947.204
1065.025, 1942.847
1065.507, 1943.613
1065.989, 1952.370
1066.471, 1966.451
1066.953, 1966.505
1067.436, 1951.276
1067.918, 1934.481
1068.400, 1918.812
1068.882, 1908.213
1069.364, 1912.412
1069.846, 1923.000
1070.328, 1926.829
1070.810, 1914.406
1071.292, 1908.795
1071.775, 1913.568
1072.257, 1919.473
1072.739, 1919.109
1073.221, 1914.215
1073.703, 1910.234
1074.185, 1907.186
1074.667, 1904.534
1075.150, 1905.623
1075.632, 1902.838
1076.114, 1890.768
1076.596, 1874.522
1077.078, 1862.636
1077.560, 1855.262
1078.042, 1844.856
1078.524, 1829.070
1079.006, 1818.955
1079.489, 1833.684
1079.971, 1852.393
1080.453, 1853.880
1080.935, 1834.394
1081.417, 1823.523
1081.899, 1823.511
1082.381, 1825.190
1082.863, 1824.990
1083.345, 1824.283
1083.828, 1826.683
1084.310, 1830.269
1084.792, 1830.772
1085.274, 1823.592
1085.756, 1820.077
1086.238, 1827.026
1086.720, 1831.873
1087.202, 1820.654
1087.685, 1796.899
1088.167, 1792.791
1088.649, 1806.160
1089.131, 1813.818
1089.613, 1794.507
1090.095, 1773.370
1090.577, 1766.045
1091.059, 1766.161
1091.542, 1759.767
1092.024, 1745.397
1092.506, 1737.319
1092.988, 1738.323
1093.470, 1740.819
1093.952, 1735.401
1094.434, 1728.400
1094.916, 1727.563
1095.398, 1733.951
1095.880, 1736.194
1096.363, 1730.787
1096.845, 1728.886
1097.327, 1735.950
1097.809, 1746.647
1098.291, 1750.799
1098.773, 1749.965
1099.255, 1747.131
1099.737, 1742.530
1100.220, 1737.362
1100.702, 1726.923
1101.184, 1721.766
1101.666, 1734.527
1102.148, 1761.213
1102.630, 1760.995
1103.112, 1737.387
1103.594, 1717.593
1104.077, 1724.837
1104.559, 1731.626
1105.041, 1719.015
1105.523, 1698.163
1106.005, 1687.160
1106.487, 1686.921
1106.969, 1691.053
1107.451, 1699.428
1107.933, 1708.000
1108.416, 1715.181
1108.898, 1719.096
1109.380, 1716.931
1109.862, 1708.981
1110.344, 1700.707
1110.826, 1691.655
1111.308, 1684.359
1111.790, 1679.347
1112.272, 1676.569
1112.755, 1676.519
1113.237, 1678.540
1113.719, 1681.970
1114.201, 1687.272
1114.683, 1690.880
1115.165, 1692.010
1115.647, 1691.218
1116.129, 1688.582
1116.612, 1684.229
1117.094, 1677.988
1117.576, 1670.361
1118.058, 1663.352
1118.540, 1657.566
1119.022, 1652.985
1119.504, 1648.066
1119.986, 1645.771
1120.469, 1649.636
1120.951, 1659.929
1121.433, 1670.323
1121.915, 1680.662
1122.397, 1687.780
1122.879, 1690.211
1123.361, 1687.972
1123.843, 1675.258
1124.325, 1658.578
1124.807, 1657.169
1125.290, 1676.574
1125.772, 1683.768
1126.254, 1671.894
1126.736, 1660.593
1127.218, 1675.043
1127.700, 1698.338
1128.182, 1712.490
1128.664, 1715.691
1129.147, 1712.700
1129.629, 1700.267
1130.111, 1692.214
1130.593, 1694.685
1131.075, 1699.554
1131.557, 1687.170
1132.039, 1668.515
1132.521, 1666.895
1133.004, 1693.631
1133.486, 1712.041
1133.968, 1711.987
1134.450, 1705.938
1134.932, 1698.432
1135.414, 1690.433
1135.896, 1685.303
1136.378, 1682.834
1136.860, 1682.316
1137.343, 1684.762
1137.825, 1687.030
1138.307, 1686.627
1138.789, 1686.547
1139.271, 1688.644
1139.753, 1692.930
1140.235, 1704.765
1140.717, 1723.396
1141.199, 1735.747
1141.682, 1730.322
1142.164, 1719.713
1142.646, 1707.579
1143.128, 1696.796
1143.610, 1692.927
1144.092, 1697.001
1144.574, 1699.580
1145.056, 1699.823
1145.539, 1697.952
1146.021, 1689.281
1146.503, 1682.573
1146.985, 1688.205
1147.467, 1704.734
1147.949, 1713.658
1148.431, 1712.388
1148.913, 1714.055
1149.396, 1722.737
1149.878, 1731.662
1150.360, 1732.101
1150.842, 1728.049
1151.324, 1723.857
1151.806, 1719.816
1152.288, 1719.876
1152.770, 1726.881
1153.252, 1730.326
1153.734, 1723.774
1154.217, 1714.729
1154.699, 1719.887
1155.181, 1732.229
1155.663, 1737.985
1156.145, 1730.765
1156.627, 1722.968
1157.109, 1713.817
1157.591, 1708.973
1158.074, 1713.924
1158.556, 1725.276
1159.038, 1734.200
1159.520, 1740.103
1160.002, 1741.013
1160.484, 1724.285
1160.966, 1719.694
1161.448, 1744.260
1161.931, 1769.188
1162.413, 1762.310
1162.895, 1730.847
1163.377, 1716.733
1163.859, 1719.428
1164.341, 1722.962
1164.823, 1717.866
1165.305, 1712.915
1165.787, 1711.316
1166.270, 1712.146
1166.752, 1714.652
1167.234, 1718.721
1167.716, 1723.188
1168.198, 1727.939
1168.680, 1729.775
1169.162, 1722.149
1169.644, 1715.109
1170.126, 1715.083
1170.609, 1720.094
1171.091, 1725.450
1171.573, 1731.114
1172.055, 1738.084
1172.537, 1747.196
1173.019, 1753.652
1173.501, 1752.317
1173.983, 1747.406
1174.466, 1739.405
1174.948, 1729.787
1175.430, 1733.615
1175.912, 1751.933
1176.394, 1764.219
1176.876, 1761.885
1177.358, 1756.949
1177.840, 1758.158
1178.323, 1765.014
1178.805, 1781.408
1179.287, 1810.125
1179.769, 1811.745
1180.251, 1781.956
1180.733, 1760.594
1181.215, 1772.797
1181.697, 1794.221
1182.179, 1800.727
1182.661, 1796.176
1183.144, 1784.265
1183.626, 1759.235
1184.108, 1748.192
1184.590, 1752.398
1185.072, 1763.707
1185.554, 1782.938
1186.036, 1801.229
1186.518, 1805.422
1187.001, 1800.444
1187.483, 1797.668
1187.965, 1804.359
1188.447, 1799.460
1188.929, 1779.098
1189.411, 1759.460
1189.893, 1755.666
1190.375, 1760.849
1190.858, 1767.888
1191.340, 1775.671
1191.822, 1781.168
1192.304, 1782.694
1192.786, 1784.249
1193.268, 1785.979
1193.750, 1788.604
1194.232, 1795.759
1194.714, 1802.826
1195.197, 1799.930
1195.679, 1788.197
1196.161, 1783.310
1196.643, 1793.227
1197.125, 1799.594
1197.607, 1797.826
1198.089, 1794.502
1198.571, 1800.713
1199.054, 1811.025
1199.536, 1815.039
1200.018, 1811.521
1200.500, 1812.524
1200.982, 1824.170
1201.464, 1832.495
1201.946, 1833.372
1202.428, 1829.543
1202.911, 1823.145
1203.393, 1816.317
1203.875, 1813.552
1204.357, 1816.297
1204.839, 1818.222
1205.321, 1816.846
1205.803, 1817.480
1206.285, 1823.220
1206.767, 1830.685
1207.250, 1830.737
1207.732, 1827.797
1208.214, 1832.292
1208.696, 1850.778
1209.178, 1861.309
1209.660, 1858.331
1210.142, 1852.950
1210.624, 1851.186
1211.106, 1850.233
1211.589, 1838.112
1212.071, 1822.474
1212.553, 1822.342
1213.035, 1855.273
1213.517, 1875.227
1213.999, 1873.778
1214.481, 1866.547
1214.963, 1862.016
1215.446, 1859.745
1215.928, 1860.143
1216.410, 1861.680
1216.892, 1860.219
1217.374, 1847.842
1217.856, 1843.991
1218.338, 1853.093
1218.820, 1864.422
1219.302, 1868.173
1219.785, 1868.812
1220.267, 1881.435
1220.749, 1900.926
1221.231, 1910.920
1221.713, 1895.698
1222.195, 1885.254
1222.677, 1882.591
1223.159, 1884.279
1223.641, 1890.613
1224.124, 1897.598
1224.606, 1893.825
1225.088, 1882.237
1225.570, 1875.658
1226.052, 1884.163
1226.534, 1889.747
1227.016, 1891.299
1227.498, 1888.602
1227.981, 1875.020
1228.463, 1859.982
1228.945, 1864.785
1229.427, 1886.730
1229.909, 1904.083
1230.391, 1910.339
1230.873, 1913.282
1231.355, 1913.748
1231.838, 1911.473
1232.320, 1901.925
1232.802, 1891.484
1233.284, 1892.882
1233.766, 1905.258
1234.248, 1914.952
1234.730, 1920.746
1235.212, 1920.078
1235.694, 1909.833
1236.177, 1900.741
1236.659, 1911.908
1237.141, 1929.814
1237.623, 1933.955
1238.105, 1923.448
1238.587, 1918.059
1239.069, 1920.907
1239.551, 1925.302
1240.033, 1930.514
1240.516, 1934.600
1240.998, 1935.162
1241.480, 1932.973
1241.962, 1924.807
1242.444, 1911.351
1242.926, 1918.319
1243.408, 1955.206
1243.890, 1976.600
1244.373, 1967.934
1244.855, 1949.186
1245.337, 1935.881
1245.819, 1930.749
1246.301, 1940.589
1246.783, 1966.182
1247.265, 1981.579
1247.747, 1986.004
1248.229, 1984.870
1248.712, 1978.694
1249.194, 1971.516
1249.676, 1966.113
1250.158, 1963.223
1250.640, 1965.650
1251.122, 1973.093
1251.604, 1970.392
1252.086, 1956.475
1252.568, 1956.399
1253.051, 1984.542
1253.533, 2010.754
1254.015, 2000.462
1254.497, 1980.592
1254.979, 1978.939
1255.461, 1993.664
1255.943, 1993.057
1256.425, 1977.793
1256.908, 1969.940
1257.390, 1979.219
1257.872, 1992.234
1258.354, 2006.126
1258.836, 2013.202
1259.318, 2005.679
1259.800, 1986.154
1260.282, 1975.562
1260.765, 1973.501
1261.247, 1977.582
1261.729, 1990.545
1262.211, 2000.757
1262.693, 2000.050
1263.175, 1996.219
1263.657, 1992.244
1264.139, 1989.886
1264.621, 2002.192
1265.104, 2025.149
1265.586, 2041.795
1266.068, 2044.362
1266.550, 2042.899
1267.032, 2037.359
1267.514, 2032.849
1267.996, 2032.745
1268.478, 2035.653
1268.960, 2035.917
1269.443, 2035.006
1269.925, 2037.765
1270.407, 2050.281
1270.889, 2055.131
1271.371, 2043.732
1271.853, 2037.446
1272.335, 2055.257
##END=



