##NAMES=Serandite
##RRUFFID=R050261
##IDEAL CHEMISTRY=NaMn^2+^_2_Si_3_O_8_(OH)
##LOCALITY=Mont Saint-Hilaire, Rouville County, Quebec, Canada
##OWNER=RRUFF
##SOURCE=Marcus Origlieri
##DESCRIPTION=Orange tabular single crystal associated with aegirine and microcline
##STATUS=The identification of this mineral has been confirmed by X-ray diffraction and chemical analysis
##URL=rruff.info/R050261
##MEASURED CHEMISTRY=Na_0.96_(Mn_0.92_Ca_0.06_Fe_0.01_)_2_Si_3.03_O_8_(OH)
93.02344, 15.54501
93.50555, 15.72401
93.98767, 15.78979
94.46979, 15.02613
94.95190, 14.19223
95.43402, 15.17647
95.91614, 18.09080
96.39825, 22.29846
96.88037, 26.99481
97.36249, 32.20502
97.84460, 38.09499
98.32672, 44.80809
98.80884, 52.27449
99.29095, 60.35400
99.77307, 68.78333
100.2552, 77.88273
100.7373, 88.10844
101.2194, 99.25326
101.7015, 111.9332
102.1837, 126.8400
102.6658, 144.2372
103.1479, 162.1043
103.6300, 180.1429
104.1121, 198.4040
104.5942, 216.9737
105.0764, 235.5611
105.5585, 255.0536
106.0406, 276.6757
106.5227, 301.7985
107.0048, 326.3590
107.4869, 349.7865
107.9690, 372.1026
108.4512, 392.8737
108.9333, 411.3778
109.4154, 428.8740
109.8975, 446.6589
110.3796, 460.9532
110.8617, 479.4023
111.3439, 504.1195
111.8260, 536.6707
112.3081, 570.0863
112.7902, 602.2513
113.2723, 635.4792
113.7544, 672.4824
114.2366, 713.2725
114.7187, 758.2874
115.2008, 807.0231
115.6829, 858.4727
116.1650, 915.8984
116.6471, 984.2540
117.1293, 1060.013
117.6114, 1135.699
118.0935, 1227.764
118.5756, 1307.208
119.0577, 1355.471
119.5398, 1361.626
120.0220, 1344.491
120.5041, 1301.700
120.9862, 1239.458
121.4683, 1182.960
121.9504, 1144.844
122.4325, 1120.302
122.9147, 1104.031
123.3968, 1096.748
123.8789, 1095.400
124.3610, 1098.756
124.8431, 1106.542
125.3252, 1115.741
125.8074, 1122.379
126.2895, 1128.834
126.7716, 1139.646
127.2537, 1156.970
127.7358, 1179.635
128.2179, 1205.953
128.7001, 1235.833
129.1822, 1268.722
129.6643, 1304.188
130.1464, 1342.166
130.6285, 1382.394
131.1106, 1424.432
131.5928, 1468.588
132.0749, 1517.013
132.5570, 1569.554
133.0391, 1623.715
133.5212, 1678.395
134.0033, 1730.698
134.4855, 1766.982
134.9676, 1784.245
135.4497, 1789.297
135.9318, 1786.019
136.4139, 1772.867
136.8960, 1754.567
137.3782, 1740.114
137.8603, 1730.248
138.3424, 1720.113
138.8245, 1708.131
139.3066, 1694.875
139.7887, 1675.992
140.2709, 1651.327
140.7530, 1621.033
141.2351, 1583.916
141.7172, 1536.316
142.1993, 1489.162
142.6814, 1449.685
143.1636, 1417.614
143.6457, 1392.428
144.1278, 1374.647
144.6099, 1363.779
145.0920, 1355.304
145.5741, 1349.490
146.0563, 1345.572
146.5384, 1342.918
147.0205, 1340.524
147.5026, 1340.922
147.9847, 1345.702
148.4668, 1355.160
148.9490, 1361.721
149.4311, 1363.074
149.9132, 1362.992
150.3953, 1364.916
150.8774, 1369.328
151.3595, 1375.206
151.8417, 1382.873
152.3238, 1392.810
152.8059, 1401.853
153.2880, 1408.846
153.7701, 1415.305
154.2522, 1422.950
154.7344, 1432.869
155.2165, 1443.020
155.6986, 1452.846
156.1807, 1462.337
156.6628, 1471.769
157.1449, 1479.963
157.6271, 1488.264
158.1092, 1498.591
158.5913, 1512.211
159.0734, 1527.115
159.5555, 1543.016
160.0376, 1560.800
160.5198, 1576.896
161.0019, 1589.814
161.4840, 1600.402
161.9661, 1609.742
162.4482, 1619.377
162.9303, 1627.132
163.4125, 1631.460
163.8946, 1631.034
164.3767, 1629.724
164.8588, 1627.290
165.3409, 1625.075
165.8230, 1626.221
166.3052, 1633.604
166.7873, 1644.058
167.2694, 1655.500
167.7515, 1668.467
168.2336, 1680.563
168.7157, 1691.286
169.1978, 1700.107
169.6800, 1705.681
170.1621, 1708.775
170.6442, 1707.606
171.1263, 1700.207
171.6084, 1685.033
172.0905, 1665.072
172.5727, 1640.121
173.0548, 1611.412
173.5369, 1584.501
174.0190, 1562.612
174.5011, 1544.557
174.9832, 1528.590
175.4654, 1513.514
175.9475, 1501.132
176.4296, 1493.788
176.9117, 1491.162
177.3938, 1490.732
177.8759, 1491.836
178.3581, 1493.675
178.8402, 1494.765
179.3223, 1494.843
179.8044, 1493.813
180.2865, 1491.394
180.7686, 1487.610
181.2508, 1482.871
181.7329, 1476.821
182.2150, 1469.998
182.6971, 1463.925
183.1792, 1459.330
183.6613, 1455.683
184.1435, 1451.717
184.6256, 1447.343
185.1077, 1444.046
185.5898, 1443.112
186.0719, 1444.414
186.5540, 1447.503
187.0362, 1453.300
187.5183, 1460.522
188.0004, 1464.824
188.4825, 1465.896
188.9646, 1467.159
189.4467, 1473.167
189.9289, 1483.315
190.4110, 1492.460
190.8931, 1497.967
191.3752, 1501.101
191.8573, 1507.213
192.3394, 1516.653
192.8216, 1527.658
193.3037, 1538.675
193.7858, 1549.694
194.2679, 1560.062
194.7500, 1569.482
195.2321, 1577.996
195.7143, 1586.217
196.1964, 1594.169
196.6785, 1601.564
197.1606, 1608.119
197.6427, 1613.916
198.1248, 1618.583
198.6070, 1621.417
199.0891, 1622.621
199.5712, 1625.594
200.0533, 1630.711
200.5354, 1636.635
201.0175, 1641.989
201.4997, 1647.009
201.9818, 1649.894
202.4639, 1649.448
202.9460, 1645.670
203.4281, 1642.589
203.9102, 1640.430
204.3924, 1638.590
204.8745, 1636.095
205.3566, 1632.771
205.8387, 1629.635
206.3208, 1626.750
206.8029, 1624.012
207.2851, 1623.589
207.7672, 1626.379
208.2493, 1630.202
208.7314, 1631.251
209.2135, 1628.414
209.6956, 1626.628
210.1778, 1628.052
210.6599, 1633.147
211.1420, 1637.046
211.6241, 1639.046
212.1062, 1640.603
212.5883, 1644.069
213.0705, 1649.932
213.5526, 1656.384
214.0347, 1662.775
214.5168, 1669.176
214.9989, 1675.359
215.4810, 1681.206
215.9632, 1686.949
216.4453, 1692.564
216.9274, 1697.285
217.4095, 1703.818
217.8916, 1713.795
218.3737, 1728.202
218.8559, 1739.651
219.3380, 1746.563
219.8201, 1751.800
220.3022, 1760.225
220.7843, 1773.673
221.2664, 1786.224
221.7486, 1795.728
222.2307, 1801.321
222.7128, 1807.977
223.1949, 1816.887
223.6770, 1825.895
224.1591, 1831.448
224.6413, 1832.793
225.1234, 1832.277
225.6055, 1830.201
226.0876, 1826.078
226.5697, 1823.091
227.0518, 1822.189
227.5340, 1821.688
228.0161, 1818.764
228.4982, 1811.456
228.9803, 1805.179
229.4624, 1801.509
229.9445, 1800.665
230.4267, 1801.204
230.9088, 1803.780
231.3909, 1807.225
231.8730, 1809.929
232.3551, 1811.719
232.8372, 1813.103
233.3194, 1814.352
233.8015, 1815.664
234.2836, 1815.805
234.7657, 1814.958
235.2478, 1812.831
235.7299, 1808.858
236.2121, 1802.230
236.6942, 1795.224
237.1763, 1788.582
237.6584, 1782.579
238.1405, 1775.010
238.6226, 1764.789
239.1048, 1754.030
239.5869, 1745.340
240.0690, 1739.433
240.5511, 1734.345
241.0332, 1729.604
241.5153, 1725.208
241.9975, 1721.253
242.4796, 1717.109
242.9617, 1713.994
243.4438, 1713.663
243.9259, 1718.348
244.4080, 1721.677
244.8902, 1721.427
245.3723, 1717.163
245.8544, 1716.317
246.3365, 1720.199
246.8186, 1726.251
247.3007, 1731.877
247.7829, 1735.997
248.2650, 1741.733
248.7471, 1749.630
249.2292, 1759.741
249.7113, 1771.641
250.1934, 1785.996
250.6756, 1801.492
251.1577, 1817.079
251.6398, 1832.379
252.1219, 1848.483
252.6040, 1865.459
253.0861, 1883.189
253.5683, 1902.660
254.0504, 1924.580
254.5325, 1947.481
255.0146, 1970.200
255.4967, 1992.787
255.9788, 2015.486
256.4609, 2038.935
256.9431, 2062.642
257.4252, 2084.377
257.9073, 2104.843
258.3894, 2122.433
258.8715, 2136.147
259.3536, 2146.221
259.8358, 2152.094
260.3179, 2153.497
260.8000, 2150.660
261.2821, 2144.632
261.7642, 2134.444
262.2463, 2122.615
262.7285, 2109.821
263.2106, 2094.303
263.6927, 2083.878
264.1748, 2080.893
264.6569, 2083.134
265.1390, 2082.076
265.6212, 2075.836
266.1033, 2070.242
266.5854, 2068.956
267.0675, 2073.342
267.5496, 2076.914
268.0317, 2079.634
268.5139, 2081.138
268.9960, 2080.266
269.4781, 2076.649
269.9602, 2071.666
270.4423, 2066.347
270.9244, 2061.182
271.4066, 2052.830
271.8887, 2040.474
272.3708, 2025.640
272.8529, 2011.534
273.3350, 1998.280
273.8171, 1985.319
274.2993, 1971.737
274.7814, 1957.386
275.2635, 1945.555
275.7456, 1936.330
276.2277, 1929.471
276.7098, 1925.198
277.1920, 1923.864
277.6741, 1923.090
278.1562, 1921.802
278.6383, 1919.994
279.1204, 1919.609
279.6025, 1920.768
280.0847, 1923.043
280.5668, 1925.442
281.0489, 1927.770
281.5310, 1932.726
282.0131, 1943.046
282.4952, 1957.476
282.9774, 1964.842
283.4595, 1964.008
283.9416, 1961.021
284.4237, 1962.901
284.9058, 1969.627
285.3879, 1974.974
285.8701, 1976.996
286.3522, 1976.518
286.8343, 1976.803
287.3164, 1978.037
287.7985, 1978.478
288.2806, 1975.947
288.7628, 1970.750
289.2449, 1966.099
289.7270, 1962.634
290.2091, 1960.135
290.6912, 1958.701
291.1733, 1958.387
291.6555, 1957.119
292.1376, 1952.145
292.6197, 1944.503
293.1018, 1939.247
293.5839, 1937.823
294.0660, 1938.143
294.5482, 1936.824
295.0303, 1933.974
295.5124, 1930.626
295.9945, 1926.813
296.4766, 1922.973
296.9587, 1920.756
297.4409, 1920.776
297.9230, 1921.014
298.4051, 1918.779
298.8872, 1914.408
299.3693, 1909.258
299.8514, 1903.578
300.3336, 1897.738
300.8157, 1892.904
301.2978, 1889.433
301.7799, 1885.182
302.2620, 1876.747
302.7441, 1865.618
303.2263, 1855.758
303.7084, 1849.890
304.1905, 1845.746
304.6726, 1840.147
305.1547, 1833.029
305.6368, 1826.010
306.1190, 1820.590
306.6011, 1816.214
307.0832, 1812.096
307.5653, 1807.777
308.0474, 1803.699
308.5295, 1800.916
309.0117, 1799.207
309.4938, 1796.647
309.9759, 1790.816
310.4580, 1783.809
310.9401, 1778.205
311.4222, 1774.433
311.9044, 1772.552
312.3865, 1773.671
312.8686, 1777.053
313.3507, 1780.053
313.8328, 1781.053
314.3149, 1781.145
314.7971, 1781.020
315.2792, 1780.221
315.7613, 1780.412
316.2434, 1783.148
316.7255, 1787.469
317.2076, 1791.311
317.6898, 1791.834
318.1719, 1793.110
318.6540, 1798.130
319.1361, 1808.402
319.6182, 1817.806
320.1003, 1823.953
320.5825, 1828.081
321.0646, 1831.889
321.5467, 1834.994
322.0288, 1838.631
322.5109, 1843.447
322.9930, 1849.557
323.4752, 1855.674
323.9573, 1861.514
324.4394, 1867.254
324.9215, 1873.051
325.4036, 1878.921
325.8857, 1884.845
326.3679, 1891.156
326.8500, 1897.809
327.3321, 1903.395
327.8142, 1907.617
328.2963, 1910.934
328.7784, 1913.618
329.2606, 1917.004
329.7427, 1918.138
330.2248, 1916.079
330.7069, 1911.536
331.1890, 1907.380
331.6711, 1904.884
332.1533, 1901.391
332.6354, 1895.609
333.1175, 1886.297
333.5996, 1877.417
334.0817, 1868.925
334.5638, 1860.853
335.0460, 1853.263
335.5281, 1846.245
336.0102, 1839.382
336.4923, 1832.499
336.9744, 1825.546
337.4565, 1818.490
337.9387, 1810.911
338.4208, 1803.652
338.9029, 1797.818
339.3850, 1793.578
339.8671, 1790.126
340.3492, 1787.195
340.8313, 1784.859
341.3134, 1784.098
341.7956, 1785.463
342.2777, 1786.742
342.7598, 1785.693
343.2419, 1782.241
343.7240, 1779.496
344.2061, 1777.788
344.6883, 1777.302
345.1704, 1778.942
345.6525, 1782.841
346.1346, 1787.038
346.6167, 1790.273
347.0988, 1792.724
347.5810, 1795.254
348.0631, 1797.996
348.5452, 1800.650
349.0273, 1802.504
349.5094, 1803.718
349.9915, 1805.336
350.4737, 1807.374
350.9558, 1810.224
351.4379, 1815.124
351.9200, 1822.189
352.4021, 1829.528
352.8842, 1836.066
353.3664, 1841.580
353.8485, 1845.535
354.3306, 1846.500
354.8127, 1846.913
355.2948, 1849.837
355.7769, 1855.003
356.2591, 1860.400
356.7412, 1863.722
357.2233, 1866.909
357.7054, 1872.703
358.1875, 1883.430
358.6696, 1893.710
359.1518, 1899.050
359.6339, 1900.892
360.1160, 1902.677
360.5981, 1905.086
361.0802, 1908.619
361.5623, 1914.352
362.0445, 1923.242
362.5266, 1930.362
363.0087, 1932.327
363.4908, 1931.622
363.9729, 1931.389
364.4550, 1933.289
364.9372, 1935.068
365.4193, 1936.662
365.9014, 1938.070
366.3835, 1936.765
366.8656, 1930.839
367.3477, 1922.832
367.8299, 1914.494
368.3120, 1904.731
368.7941, 1896.137
369.2762, 1890.398
369.7583, 1886.485
370.2404, 1879.681
370.7226, 1867.624
371.2047, 1855.087
371.6868, 1843.848
372.1689, 1834.168
372.6510, 1825.106
373.1331, 1816.002
373.6153, 1807.829
374.0974, 1802.436
374.5795, 1801.204
375.0616, 1800.094
375.5437, 1798.135
376.0258, 1795.342
376.5080, 1791.430
376.9901, 1785.617
377.4722, 1780.115
377.9543, 1777.043
378.4364, 1776.627
378.9185, 1777.341
379.4007, 1779.378
379.8828, 1782.037
380.3649, 1783.095
380.8470, 1782.446
381.3291, 1780.984
381.8112, 1778.599
382.2934, 1775.580
382.7755, 1774.602
383.2576, 1776.353
383.7397, 1778.765
384.2218, 1778.484
384.7039, 1776.011
385.1861, 1774.107
385.6682, 1774.539
386.1503, 1776.260
386.6324, 1777.404
387.1145, 1777.941
387.5966, 1777.986
388.0788, 1776.685
388.5609, 1775.087
389.0430, 1775.157
389.5251, 1778.398
390.0072, 1782.379
390.4893, 1785.170
390.9715, 1786.853
391.4536, 1787.893
391.9357, 1787.792
392.4178, 1787.578
392.8999, 1788.034
393.3820, 1789.263
393.8642, 1791.312
394.3463, 1795.622
394.8284, 1800.542
395.3105, 1803.466
395.7926, 1800.506
396.2747, 1798.305
396.7569, 1800.057
397.2390, 1806.068
397.7211, 1811.463
398.2032, 1813.760
398.6853, 1815.969
399.1674, 1820.260
399.6496, 1829.189
400.1317, 1837.376
400.6138, 1843.755
401.0959, 1848.984
401.5780, 1855.508
402.0602, 1864.945
402.5423, 1873.719
403.0244, 1879.869
403.5065, 1881.875
403.9886, 1886.909
404.4707, 1896.570
404.9529, 1907.715
405.4350, 1915.706
405.9171, 1919.323
406.3992, 1923.835
406.8813, 1930.726
407.3634, 1939.680
407.8456, 1949.010
408.3277, 1958.761
408.8098, 1968.785
409.2919, 1979.222
409.7740, 1990.036
410.2561, 1999.411
410.7383, 2006.598
411.2204, 2013.316
411.7025, 2023.204
412.1846, 2035.918
412.6667, 2048.635
413.1488, 2060.894
413.6310, 2071.826
414.1131, 2079.155
414.5952, 2082.673
415.0773, 2084.365
415.5594, 2086.403
416.0415, 2087.834
416.5237, 2086.878
417.0058, 2081.852
417.4879, 2075.447
417.9700, 2070.265
418.4521, 2065.784
418.9342, 2059.859
419.4164, 2050.949
419.8985, 2040.360
420.3806, 2028.909
420.8627, 2016.163
421.3448, 2003.985
421.8269, 1992.427
422.3091, 1981.911
422.7912, 1972.951
423.2733, 1966.803
423.7554, 1961.136
424.2375, 1955.672
424.7196, 1950.461
425.2018, 1944.010
425.6839, 1934.153
426.1660, 1924.592
426.6481, 1917.468
427.1302, 1915.087
427.6123, 1911.657
428.0945, 1906.221
428.5766, 1899.915
429.0587, 1895.469
429.5408, 1893.797
430.0229, 1892.047
430.5050, 1888.907
430.9872, 1884.293
431.4693, 1881.211
431.9514, 1879.838
432.4335, 1879.425
432.9156, 1879.613
433.3977, 1880.416
433.8799, 1879.998
434.3620, 1877.406
434.8441, 1873.977
435.3262, 1873.183
435.8083, 1874.885
436.2904, 1876.438
436.7726, 1875.845
437.2547, 1873.938
437.7368, 1872.752
438.2189, 1872.532
438.7010, 1872.392
439.1831, 1871.127
439.6652, 1869.374
440.1473, 1868.341
440.6295, 1868.618
441.1116, 1869.739
441.5937, 1872.199
442.0758, 1875.568
442.5579, 1877.521
443.0400, 1873.902
443.5222, 1870.318
444.0043, 1871.601
444.4864, 1881.028
444.9685, 1888.863
445.4506, 1890.543
445.9327, 1889.138
446.4149, 1889.067
446.8970, 1892.195
447.3791, 1895.659
447.8612, 1899.165
448.3433, 1902.699
448.8254, 1904.809
449.3076, 1903.464
449.7897, 1902.570
450.2718, 1904.763
450.7539, 1912.415
451.2360, 1917.666
451.7181, 1919.481
452.2003, 1919.398
452.6824, 1920.278
453.1645, 1922.112
453.6466, 1924.957
454.1287, 1928.854
454.6108, 1933.814
455.0930, 1939.818
455.5751, 1947.133
456.0572, 1954.090
456.5393, 1958.084
457.0214, 1959.954
457.5035, 1964.306
457.9857, 1972.729
458.4678, 1982.363
458.9499, 1989.283
459.4320, 1993.909
459.9141, 1997.881
460.3962, 2002.839
460.8784, 2007.205
461.3605, 2008.650
461.8426, 2007.122
462.3247, 2005.130
462.8068, 2004.531
463.2889, 2004.244
463.7711, 2003.130
464.2532, 2000.642
464.7353, 1997.608
465.2174, 1993.964
465.6995, 1990.011
466.1816, 1986.392
466.6638, 1981.841
467.1459, 1978.994
467.6280, 1979.195
468.1101, 1983.187
468.5922, 1986.975
469.0743, 1990.918
469.5565, 1994.279
470.0386, 1996.291
470.5207, 1996.007
471.0028, 1996.280
471.4849, 1997.283
471.9670, 1999.076
472.4492, 2001.865
472.9313, 2005.699
473.4134, 2010.407
473.8955, 2016.019
474.3776, 2022.545
474.8597, 2029.840
475.3419, 2038.181
475.8240, 2046.002
476.3061, 2051.618
476.7882, 2055.268
477.2703, 2057.879
477.7524, 2059.188
478.2346, 2060.366
478.7167, 2062.649
479.1988, 2066.117
479.6809, 2071.079
480.1630, 2078.878
480.6451, 2087.583
481.1273, 2095.090
481.6094, 2101.242
482.0915, 2107.601
482.5736, 2115.572
483.0557, 2124.008
483.5378, 2131.886
484.0200, 2138.799
484.5021, 2145.251
484.9842, 2150.345
485.4663, 2154.999
485.9484, 2161.625
486.4305, 2171.543
486.9127, 2182.491
487.3948, 2194.349
487.8769, 2207.429
488.3590, 2218.259
488.8411, 2225.493
489.3232, 2232.005
489.8054, 2240.250
490.2875, 2250.776
490.7696, 2261.161
491.2517, 2271.142
491.7338, 2280.848
492.2159, 2290.271
492.6981, 2299.487
493.1802, 2308.573
493.6623, 2319.164
494.1444, 2329.779
494.6265, 2333.479
495.1086, 2330.239
495.5908, 2323.539
496.0729, 2314.050
496.5550, 2303.468
497.0371, 2295.843
497.5192, 2293.059
498.0013, 2290.617
498.4835, 2284.019
498.9656, 2274.754
499.4477, 2266.097
499.9298, 2260.326
500.4119, 2254.735
500.8940, 2246.978
501.3762, 2237.090
501.8583, 2229.611
502.3404, 2228.241
502.8225, 2227.970
503.3046, 2225.643
503.7867, 2219.303
504.2689, 2213.597
504.7510, 2208.195
505.2331, 2203.733
505.7152, 2201.349
506.1973, 2202.472
506.6794, 2202.856
507.1616, 2201.360
507.6437, 2198.235
508.1258, 2195.308
508.6079, 2192.531
509.0900, 2190.087
509.5721, 2188.574
510.0543, 2187.792
510.5364, 2185.375
511.0185, 2180.976
511.5006, 2175.899
511.9827, 2172.219
512.4648, 2169.262
512.9470, 2164.816
513.4291, 2157.479
513.9112, 2149.071
514.3933, 2141.246
514.8754, 2133.918
515.3575, 2126.789
515.8397, 2118.894
516.3218, 2111.665
516.8039, 2106.529
517.2860, 2103.933
517.7681, 2100.977
518.2502, 2095.113
518.7324, 2089.176
519.2145, 2085.701
519.6966, 2087.033
520.1787, 2088.423
520.6608, 2089.422
521.1429, 2090.190
521.6251, 2091.179
522.1072, 2092.653
522.5893, 2093.921
523.0714, 2094.934
523.5535, 2095.696
524.0356, 2095.620
524.5178, 2094.984
524.9999, 2092.704
525.4820, 2087.179
525.9641, 2078.840
526.4462, 2070.847
526.9283, 2063.633
527.4105, 2056.748
527.8926, 2049.221
528.3747, 2041.334
528.8568, 2034.142
529.3389, 2028.648
529.8210, 2023.618
530.3032, 2017.685
530.7853, 2011.028
531.2674, 2004.705
531.7495, 1999.555
532.2316, 1994.778
532.7137, 1989.478
533.1959, 1982.809
533.6780, 1978.231
534.1601, 1977.878
534.6422, 1979.368
535.1243, 1980.255
535.6064, 1980.275
536.0886, 1979.730
536.5707, 1978.108
537.0528, 1976.014
537.5349, 1975.647
538.0170, 1978.100
538.4991, 1979.592
538.9813, 1978.092
539.4634, 1973.851
539.9455, 1971.786
540.4276, 1972.130
540.9097, 1973.426
541.3918, 1974.551
541.8740, 1975.542
542.3561, 1976.503
542.8382, 1977.366
543.3203, 1978.428
543.8024, 1979.439
544.2845, 1980.898
544.7667, 1983.939
545.2488, 1992.083
545.7309, 1999.395
546.2130, 2000.913
546.6951, 1997.647
547.1772, 1994.292
547.6594, 1991.352
548.1415, 1989.937
548.6236, 1991.091
549.1057, 1995.835
549.5878, 1999.746
550.0699, 2002.627
550.5521, 2004.516
551.0342, 2005.322
551.5163, 2004.345
551.9984, 2003.933
552.4805, 2004.738
552.9626, 2005.943
553.4448, 2005.316
553.9269, 2002.539
554.4090, 2000.317
554.8911, 1999.295
555.3732, 1999.691
555.8553, 2003.564
556.3375, 2010.796
556.8196, 2016.734
557.3017, 2016.527
557.7838, 2012.964
558.2659, 2010.442
558.7480, 2009.539
559.2302, 2009.556
559.7123, 2010.405
560.1944, 2011.717
560.6765, 2013.017
561.1586, 2014.390
561.6407, 2015.481
562.1229, 2016.069
562.6050, 2016.277
563.0871, 2016.478
563.5692, 2016.217
564.0513, 2016.515
564.5334, 2017.937
565.0156, 2020.551
565.4977, 2022.475
565.9798, 2023.839
566.4619, 2024.281
566.9440, 2023.205
567.4261, 2020.490
567.9083, 2018.163
568.3904, 2016.189
568.8725, 2015.197
569.3546, 2016.994
569.8367, 2020.802
570.3188, 2023.044
570.8010, 2021.746
571.2831, 2019.430
571.7652, 2018.833
572.2473, 2019.813
572.7294, 2021.897
573.2115, 2026.194
573.6937, 2030.465
574.1758, 2033.321
574.6579, 2034.638
575.1400, 2035.020
575.6221, 2033.193
576.1042, 2031.507
576.5864, 2031.664
577.0685, 2035.565
577.5506, 2037.951
578.0327, 2037.683
578.5148, 2036.751
578.9969, 2038.194
579.4791, 2043.136
579.9612, 2046.156
580.4433, 2045.245
580.9254, 2042.462
581.4075, 2043.692
581.8896, 2048.872
582.3718, 2054.208
582.8539, 2058.330
583.3360, 2061.021
583.8181, 2061.001
584.3002, 2058.395
584.7823, 2056.016
585.2645, 2056.948
585.7466, 2058.678
586.2287, 2058.192
586.7108, 2054.033
587.1929, 2050.963
587.6750, 2050.982
588.1571, 2053.288
588.6392, 2056.934
589.1213, 2065.799
589.6035, 2071.064
590.0856, 2069.743
590.5677, 2064.446
591.0498, 2062.442
591.5319, 2065.150
592.0140, 2067.823
592.4962, 2068.295
592.9783, 2067.070
593.4604, 2069.188
593.9425, 2075.074
594.4246, 2080.319
594.9067, 2080.141
595.3889, 2076.627
595.8710, 2076.265
596.3531, 2079.764
596.8352, 2084.548
597.3173, 2090.017
597.7994, 2094.802
598.2816, 2096.583
598.7637, 2092.480
599.2458, 2088.878
599.7279, 2089.374
600.2100, 2092.501
600.6921, 2095.448
601.1743, 2098.527
601.6564, 2100.449
602.1385, 2100.019
602.6206, 2097.771
603.1027, 2098.111
603.5848, 2102.532
604.0670, 2106.695
604.5491, 2108.058
605.0312, 2106.518
605.5133, 2107.006
605.9954, 2109.775
606.4775, 2113.049
606.9597, 2114.962
607.4418, 2115.912
607.9239, 2117.225
608.4060, 2119.005
608.8881, 2121.521
609.3702, 2126.180
609.8524, 2131.563
610.3345, 2135.147
610.8166, 2134.527
611.2987, 2133.432
611.7808, 2132.871
612.2629, 2133.112
612.7451, 2134.920
613.2272, 2141.165
613.7093, 2146.237
614.1914, 2147.916
614.6735, 2146.159
615.1556, 2146.177
615.6378, 2148.487
616.1199, 2151.507
616.6020, 2154.286
617.0841, 2156.821
617.5662, 2159.480
618.0483, 2162.238
618.5305, 2165.173
619.0126, 2168.764
619.4947, 2172.619
619.9768, 2175.617
620.4589, 2177.128
620.9410, 2178.694
621.4232, 2182.467
621.9053, 2187.238
622.3874, 2190.794
622.8695, 2190.981
623.3516, 2191.188
623.8337, 2192.478
624.3159, 2194.873
624.7980, 2198.292
625.2801, 2203.268
625.7622, 2208.714
626.2443, 2214.444
626.7264, 2220.483
627.2086, 2226.332
627.6907, 2232.444
628.1728, 2237.081
628.6549, 2237.489
629.1370, 2234.336
629.6191, 2235.292
630.1013, 2241.135
630.5834, 2249.060
631.0655, 2256.926
631.5476, 2264.570
632.0297, 2271.500
632.5118, 2277.195
632.9940, 2283.070
633.4761, 2290.428
633.9582, 2298.642
634.4403, 2306.547
634.9224, 2312.992
635.4045, 2319.972
635.8867, 2328.021
636.3688, 2337.115
636.8509, 2346.776
637.3330, 2357.152
637.8151, 2367.958
638.2972, 2379.409
638.7794, 2391.355
639.2615, 2401.698
639.7436, 2410.186
640.2257, 2419.076
640.7078, 2429.980
641.1899, 2442.727
641.6721, 2456.876
642.1542, 2472.610
642.6363, 2488.521
643.1184, 2501.765
643.6005, 2515.181
644.0826, 2532.422
644.5648, 2556.042
645.0469, 2580.324
645.5290, 2602.017
646.0111, 2623.483
646.4932, 2648.235
646.9753, 2678.228
647.4575, 2709.737
647.9396, 2741.284
648.4217, 2774.271
648.9038, 2811.505
649.3859, 2853.250
649.8680, 2899.638
650.3502, 2951.316
650.8323, 3007.522
651.3144, 3064.593
651.7965, 3123.136
652.2786, 3186.272
652.7607, 3254.519
653.2429, 3329.634
653.7250, 3414.344
654.2071, 3508.085
654.6892, 3606.253
655.1713, 3705.105
655.6534, 3809.017
656.1356, 3921.592
656.6177, 4042.909
657.0998, 4173.540
657.5819, 4311.322
658.0640, 4459.984
658.5461, 4620.881
659.0283, 4792.294
659.5104, 4981.804
659.9925, 5189.563
660.4746, 5414.587
660.9567, 5656.138
661.4388, 5913.931
661.9210, 6185.850
662.4031, 6469.604
662.8852, 6764.188
663.3673, 7072.333
663.8494, 7389.631
664.3315, 7702.016
664.8137, 8016.192
665.2958, 8312.208
665.7779, 8588.986
666.2600, 8841.876
666.7421, 9026.098
667.2242, 9142.708
667.7064, 9174.788
668.1885, 9117.954
668.6706, 8969.844
669.1527, 8750.292
669.6348, 8445.069
670.1169, 8094.396
670.5991, 7711.094
671.0812, 7296.754
671.5633, 6883.777
672.0454, 6471.364
672.5275, 6074.362
673.0096, 5707.396
673.4918, 5372.677
673.9739, 5071.366
674.4560, 4805.156
674.9381, 4567.841
675.4202, 4355.181
675.9023, 4165.221
676.3845, 3997.882
676.8666, 3858.075
677.3487, 3732.092
677.8308, 3622.101
678.3129, 3524.629
678.7950, 3434.893
679.2772, 3353.923
679.7593, 3280.248
680.2414, 3213.199
680.7235, 3153.560
681.2056, 3102.918
681.6877, 3061.971
682.1699, 3024.595
682.6520, 2987.162
683.1341, 2951.634
683.6162, 2922.626
684.0983, 2899.545
684.5804, 2878.708
685.0626, 2857.475
685.5447, 2837.957
686.0268, 2821.282
686.5089, 2807.665
686.9910, 2797.175
687.4731, 2791.103
687.9553, 2787.135
688.4374, 2783.749
688.9195, 2779.960
689.4016, 2779.899
689.8837, 2783.843
690.3658, 2790.900
690.8480, 2800.257
691.3301, 2811.815
691.8122, 2825.220
692.2943, 2840.369
692.7764, 2857.415
693.2585, 2875.896
693.7407, 2896.741
694.2228, 2921.337
694.7049, 2951.292
695.1870, 2983.664
695.6691, 3015.379
696.1512, 3048.573
696.6334, 3088.550
697.1155, 3140.407
697.5976, 3192.785
698.0797, 3244.036
698.5618, 3294.282
699.0439, 3344.735
699.5261, 3396.085
700.0082, 3443.853
700.4903, 3486.447
700.9724, 3523.847
701.4545, 3559.972
701.9366, 3593.646
702.4188, 3615.253
702.9009, 3617.183
703.3830, 3605.039
703.8651, 3583.820
704.3472, 3553.992
704.8293, 3514.012
705.3115, 3457.858
705.7936, 3395.679
706.2757, 3332.610
706.7578, 3268.034
707.2399, 3205.314
707.7220, 3144.028
708.2042, 3084.339
708.6863, 3025.801
709.1684, 2967.864
709.6505, 2918.550
710.1326, 2878.741
710.6147, 2843.741
711.0969, 2808.206
711.5790, 2773.684
712.0611, 2743.172
712.5432, 2717.318
713.0253, 2694.851
713.5074, 2676.172
713.9896, 2660.158
714.4717, 2645.460
714.9538, 2631.251
715.4359, 2619.298
715.9180, 2610.500
716.4001, 2603.741
716.8823, 2597.139
717.3644, 2590.703
717.8465, 2584.901
718.3286, 2580.743
718.8107, 2576.235
719.2928, 2565.780
719.7750, 2550.302
720.2571, 2536.496
720.7392, 2529.883
721.2213, 2523.732
721.7034, 2508.879
722.1855, 2488.329
722.6677, 2471.060
723.1498, 2464.681
723.6319, 2458.743
724.1140, 2448.847
724.5961, 2435.169
725.0782, 2420.624
725.5604, 2402.938
726.0425, 2388.818
726.5246, 2382.140
727.0067, 2381.993
727.4888, 2378.704
727.9709, 2372.190
728.4531, 2365.659
728.9352, 2361.875
729.4173, 2359.476
729.8994, 2355.884
730.3815, 2350.997
730.8636, 2346.966
731.3458, 2347.321
731.8279, 2347.495
732.3100, 2343.534
732.7921, 2333.310
733.2742, 2325.703
733.7563, 2322.466
734.2385, 2320.716
734.7206, 2318.417
735.2027, 2315.266
735.6848, 2313.633
736.1669, 2313.817
736.6490, 2314.569
737.1312, 2314.591
737.6133, 2314.103
738.0954, 2313.896
738.5775, 2314.313
739.0596, 2314.000
739.5417, 2309.971
740.0239, 2305.420
740.5060, 2304.246
740.9881, 2310.438
741.4702, 2315.213
741.9523, 2317.410
742.4344, 2317.191
742.9166, 2313.920
743.3987, 2305.864
743.8808, 2301.089
744.3629, 2301.551
744.8450, 2304.086
745.3271, 2302.646
745.8093, 2298.175
746.2914, 2295.932
746.7735, 2298.488
747.2556, 2302.165
747.7377, 2304.031
748.2198, 2304.261
748.7020, 2303.224
749.1841, 2299.276
749.6662, 2296.063
750.1483, 2294.780
750.6304, 2295.026
751.1125, 2295.887
751.5947, 2298.048
752.0768, 2298.989
752.5589, 2297.372
753.0410, 2294.626
753.5231, 2296.056
754.0052, 2301.141
754.4874, 2303.882
754.9695, 2298.728
755.4516, 2291.740
755.9337, 2290.684
756.4158, 2294.216
756.8979, 2297.756
757.3801, 2299.926
757.8622, 2301.135
758.3443, 2301.175
758.8264, 2300.215
759.3085, 2299.637
759.7906, 2299.111
760.2728, 2299.637
760.7549, 2302.155
761.2370, 2306.060
761.7191, 2307.750
762.2012, 2307.226
762.6833, 2306.203
763.1655, 2305.326
763.6476, 2304.801
764.1297, 2304.942
764.6118, 2305.730
765.0939, 2306.977
765.5760, 2309.854
766.0582, 2312.101
766.5403, 2311.869
767.0224, 2308.790
767.5045, 2307.922
767.9866, 2310.417
768.4688, 2313.232
768.9509, 2314.935
769.4330, 2315.552
769.9151, 2314.901
770.3972, 2312.922
770.8793, 2311.636
771.3615, 2313.731
771.8436, 2316.929
772.3257, 2317.284
772.8078, 2314.528
773.2899, 2313.064
773.7720, 2316.496
774.2542, 2320.884
774.7363, 2323.866
775.2184, 2325.237
775.7005, 2325.168
776.1826, 2322.709
776.6647, 2320.451
777.1469, 2320.796
777.6290, 2323.593
778.1111, 2323.921
778.5932, 2321.500
779.0753, 2319.397
779.5574, 2321.363
780.0396, 2324.881
780.5217, 2326.056
781.0038, 2324.055
781.4859, 2322.861
781.9680, 2324.935
782.4501, 2327.969
782.9323, 2330.352
783.4144, 2332.085
783.8965, 2332.617
784.3785, 2331.123
784.8607, 2329.871
785.3428, 2331.245
785.8249, 2334.919
786.3070, 2337.905
786.7891, 2339.958
787.2712, 2341.348
787.7534, 2342.094
788.2355, 2342.409
788.7176, 2342.472
789.1997, 2342.188
789.6818, 2342.213
790.1639, 2343.283
790.6461, 2344.392
791.1282, 2344.540
791.6103, 2342.542
792.0924, 2343.122
792.5745, 2347.114
793.0566, 2351.817
793.5388, 2354.829
794.0209, 2356.276
794.5030, 2356.290
794.9851, 2354.739
795.4672, 2353.328
795.9493, 2354.034
796.4315, 2355.519
796.9136, 2356.161
797.3957, 2355.278
797.8778, 2354.861
798.3599, 2355.878
798.8420, 2357.258
799.3242, 2358.259
799.8063, 2358.951
800.2884, 2358.835
800.7705, 2357.601
801.2526, 2356.520
801.7347, 2356.870
802.2169, 2358.448
802.6990, 2360.858
803.1811, 2364.101
803.6632, 2367.515
804.1453, 2371.271
804.6274, 2374.482
805.1096, 2376.218
805.5917, 2375.729
806.0738, 2375.063
806.5559, 2373.720
807.0380, 2372.952
807.5201, 2373.947
808.0023, 2376.879
808.4844, 2380.061
808.9665, 2383.599
809.4486, 2386.401
809.9307, 2387.390
810.4128, 2386.839
810.8950, 2384.605
811.3771, 2380.238
811.8592, 2377.453
812.3413, 2379.325
812.8234, 2382.969
813.3055, 2386.176
813.7877, 2388.947
814.2698, 2390.603
814.7519, 2390.625
815.2340, 2390.394
815.7161, 2391.156
816.1982, 2392.820
816.6804, 2394.335
817.1625, 2395.656
817.6446, 2396.676
818.1267, 2396.871
818.6088, 2396.911
819.0909, 2397.683
819.5731, 2399.385
820.0552, 2401.161
820.5373, 2402.712
821.0194, 2404.175
821.5015, 2405.552
821.9836, 2406.714
822.4658, 2408.507
822.9479, 2411.177
823.4300, 2413.653
823.9121, 2414.993
824.3942, 2415.427
824.8763, 2415.665
825.3585, 2415.753
825.8406, 2415.462
826.3227, 2413.969
826.8048, 2412.530
827.2869, 2412.449
827.7690, 2414.174
828.2512, 2414.989
828.7333, 2413.648
829.2154, 2412.779
829.6975, 2414.020
830.1796, 2417.370
830.6617, 2420.073
831.1439, 2422.103
831.6260, 2423.482
832.1081, 2423.799
832.5902, 2423.683
833.0723, 2423.688
833.5544, 2423.932
834.0366, 2425.344
834.5187, 2430.506
835.0008, 2434.992
835.4829, 2435.531
835.9650, 2432.284
836.4471, 2431.231
836.9293, 2432.741
837.4114, 2435.335
837.8935, 2438.774
838.3756, 2442.614
838.8577, 2445.356
839.3398, 2447.098
839.8220, 2448.543
840.3041, 2450.025
840.7862, 2451.496
841.2683, 2453.127
841.7504, 2454.818
842.2325, 2455.863
842.7147, 2454.905
843.1968, 2454.980
843.6789, 2457.495
844.1610, 2461.605
844.6431, 2463.240
845.1252, 2462.340
845.6074, 2461.122
846.0895, 2460.376
846.5716, 2460.067
847.0537, 2460.175
847.5358, 2460.697
848.0179, 2461.610
848.5001, 2462.573
848.9822, 2464.298
849.4643, 2467.852
849.9464, 2472.246
850.4285, 2475.164
850.9106, 2476.199
851.3928, 2477.015
851.8749, 2477.843
852.3570, 2478.802
852.8391, 2480.340
853.3212, 2482.206
853.8033, 2483.594
854.2855, 2483.858
854.7676, 2484.112
855.2497, 2485.088
855.7318, 2486.530
856.2139, 2488.075
856.6960, 2490.198
857.1782, 2491.606
857.6603, 2492.130
858.1424, 2492.078
858.6245, 2491.521
859.1066, 2490.581
859.5887, 2490.879
860.0709, 2492.892
860.5530, 2495.318
861.0351, 2497.390
861.5172, 2498.775
861.9993, 2498.675
862.4814, 2495.835
862.9636, 2494.424
863.4457, 2496.425
863.9278, 2499.509
864.4099, 2502.286
864.8920, 2504.913
865.3741, 2505.760
865.8563, 2504.401
866.3384, 2503.327
866.8205, 2504.727
867.3026, 2508.084
867.7847, 2513.198
868.2668, 2520.143
868.7490, 2525.575
869.2311, 2527.103
869.7132, 2527.146
870.1953, 2527.060
870.6774, 2526.932
871.1595, 2526.225
871.6417, 2524.310
872.1238, 2523.653
872.6059, 2526.896
873.0880, 2532.463
873.5701, 2533.943
874.0522, 2531.909
874.5344, 2530.430
875.0165, 2532.708
875.4986, 2535.763
875.9807, 2537.954
876.4628, 2539.182
876.9449, 2539.253
877.4271, 2536.169
877.9092, 2535.669
878.3913, 2540.431
878.8734, 2548.262
879.3555, 2552.417
879.8376, 2553.142
880.3198, 2552.647
880.8019, 2550.872
881.2840, 2549.576
881.7661, 2550.622
882.2482, 2553.378
882.7303, 2556.627
883.2125, 2558.794
883.6946, 2563.366
884.1767, 2572.578
884.6588, 2582.869
885.1409, 2587.886
885.6230, 2587.384
886.1052, 2589.472
886.5873, 2595.890
887.0694, 2603.635
887.5515, 2609.003
888.0336, 2613.402
888.5157, 2618.733
888.9979, 2625.296
889.4800, 2633.175
889.9621, 2642.783
890.4442, 2653.522
890.9263, 2665.481
891.4084, 2679.156
891.8906, 2689.978
892.3727, 2697.542
892.8548, 2704.741
893.3369, 2713.797
893.8190, 2724.243
894.3011, 2735.990
894.7833, 2748.842
895.2654, 2760.128
895.7475, 2766.462
896.2296, 2772.793
896.7117, 2782.907
897.1938, 2796.214
897.6760, 2805.630
898.1581, 2810.879
898.6402, 2812.956
899.1223, 2811.299
899.6044, 2807.439
900.0865, 2805.541
900.5687, 2804.655
901.0508, 2801.349
901.5329, 2792.012
902.0150, 2781.795
902.4971, 2772.741
902.9792, 2764.696
903.4614, 2757.086
903.9435, 2749.874
904.4256, 2742.992
904.9077, 2736.464
905.3898, 2729.987
905.8719, 2722.052
906.3541, 2713.651
906.8362, 2708.265
907.3183, 2707.639
907.8004, 2707.496
908.2825, 2703.818
908.7646, 2699.931
909.2468, 2699.854
909.7289, 2707.053
910.2110, 2710.043
910.6931, 2707.569
911.1752, 2703.736
911.6573, 2701.936
912.1395, 2701.833
912.6216, 2701.795
913.1037, 2701.768
913.5858, 2703.116
914.0679, 2708.995
914.5500, 2714.803
915.0322, 2716.691
915.5143, 2714.354
915.9964, 2713.201
916.4785, 2714.059
916.9606, 2714.708
917.4427, 2714.304
917.9249, 2713.014
918.4070, 2710.513
918.8891, 2707.305
919.3712, 2706.157
919.8533, 2710.274
920.3354, 2715.055
920.8176, 2717.692
921.2997, 2718.636
921.7818, 2718.852
922.2639, 2718.292
922.7460, 2717.298
923.2281, 2715.488
923.7103, 2713.912
924.1924, 2714.706
924.6745, 2717.337
925.1566, 2718.731
925.6387, 2718.128
926.1208, 2717.470
926.6030, 2718.237
927.0851, 2719.695
927.5672, 2721.093
928.0493, 2722.072
928.5314, 2723.940
929.0135, 2727.324
929.4957, 2730.367
929.9778, 2731.321
930.4599, 2730.688
930.9420, 2731.818
931.4241, 2734.537
931.9063, 2736.923
932.3884, 2737.197
932.8705, 2737.179
933.3526, 2738.044
933.8347, 2739.800
934.3168, 2742.124
934.7990, 2744.880
935.2811, 2748.546
935.7632, 2753.870
936.2453, 2759.453
936.7274, 2761.102
937.2095, 2759.852
937.6917, 2759.925
938.1738, 2762.585
938.6559, 2767.067
939.1380, 2774.070
939.6201, 2782.033
940.1022, 2788.771
940.5844, 2793.375
941.0665, 2798.198
941.5486, 2803.195
942.0307, 2808.408
942.5128, 2813.636
942.9949, 2819.132
943.4771, 2826.015
943.9592, 2834.254
944.4413, 2843.419
944.9234, 2854.394
945.4055, 2865.096
945.8876, 2872.814
946.3698, 2877.758
946.8519, 2888.114
947.3340, 2905.694
947.8161, 2924.055
948.2982, 2941.783
948.7803, 2958.081
949.2625, 2968.804
949.7446, 2976.204
950.2267, 2987.691
950.7088, 3009.400
951.1909, 3031.937
951.6730, 3049.812
952.1552, 3066.227
952.6373, 3085.990
953.1194, 3109.893
953.6015, 3134.896
954.0836, 3160.697
954.5657, 3186.973
955.0479, 3213.866
955.5300, 3240.626
956.0121, 3265.397
956.4942, 3287.804
956.9763, 3312.632
957.4584, 3342.519
957.9406, 3375.366
958.4227, 3410.769
958.9048, 3447.948
959.3869, 3484.832
959.8690, 3521.249
960.3511, 3558.794
960.8333, 3599.067
961.3154, 3640.156
961.7975, 3680.520
962.2796, 3719.898
962.7617, 3757.052
963.2438, 3785.265
963.7260, 3819.078
964.2081, 3865.206
964.6902, 3916.290
965.1723, 3963.958
965.6544, 4008.209
966.1365, 4052.055
966.6187, 4096.204
967.1008, 4137.552
967.5829, 4172.708
968.0650, 4203.830
968.5471, 4233.033
969.0292, 4260.306
969.5114, 4289.878
969.9935, 4327.463
970.4756, 4361.908
970.9577, 4389.458
971.4398, 4410.195
971.9219, 4423.776
972.4041, 4430.790
972.8862, 4439.534
973.3683, 4459.845
973.8504, 4478.018
974.3325, 4482.456
974.8146, 4476.760
975.2968, 4468.567
975.7789, 4461.305
976.2610, 4447.109
976.7431, 4423.693
977.2252, 4396.092
977.7073, 4371.936
978.1895, 4349.767
978.6716, 4323.818
979.1537, 4292.920
979.6358, 4262.500
980.1179, 4238.125
980.6000, 4214.179
981.0822, 4184.781
981.5643, 4149.905
982.0463, 4120.939
982.5284, 4099.062
983.0106, 4078.452
983.4927, 4055.217
983.9748, 4032.668
984.4569, 4019.251
984.9390, 4012.152
985.4211, 4002.885
985.9033, 3985.086
986.3854, 3967.883
986.8675, 3954.931
987.3496, 3943.568
987.8317, 3931.040
988.3138, 3917.364
988.7960, 3901.371
989.2781, 3882.629
989.7602, 3865.064
990.2423, 3852.420
990.7244, 3843.250
991.2065, 3836.636
991.6887, 3832.441
992.1708, 3827.907
992.6529, 3822.076
993.1350, 3816.266
993.6171, 3810.224
994.0992, 3804.820
994.5814, 3803.337
995.0635, 3805.627
995.5456, 3811.094
996.0277, 3822.031
996.5098, 3831.822
996.9919, 3834.165
997.4741, 3832.777
997.9562, 3833.085
998.4383, 3838.410
998.9204, 3839.483
999.4025, 3835.698
999.8846, 3828.806
1000.367, 3819.386
1000.849, 3808.336
1001.331, 3798.435
1001.813, 3789.634
1002.295, 3780.365
1002.777, 3768.217
1003.259, 3756.853
1003.742, 3748.384
1004.224, 3742.203
1004.706, 3735.796
1005.188, 3728.451
1005.670, 3727.979
1006.152, 3737.953
1006.634, 3752.149
1007.116, 3760.974
1007.599, 3769.460
1008.081, 3785.663
1008.563, 3813.819
1009.045, 3843.822
1009.527, 3873.622
1010.009, 3906.053
1010.491, 3942.071
1010.973, 3982.460
1011.455, 4031.091
1011.938, 4087.504
1012.420, 4148.088
1012.902, 4210.679
1013.384, 4275.781
1013.866, 4344.702
1014.348, 4416.915
1014.830, 4487.293
1015.312, 4554.227
1015.794, 4625.918
1016.277, 4705.817
1016.759, 4784.133
1017.241, 4847.475
1017.723, 4898.228
1018.205, 4942.485
1018.687, 4981.780
1019.169, 5006.595
1019.651, 5014.664
1020.134, 5004.512
1020.616, 4975.237
1021.098, 4927.817
1021.580, 4867.192
1022.062, 4793.302
1022.544, 4711.467
1023.026, 4621.061
1023.508, 4526.200
1023.990, 4431.200
1024.473, 4335.360
1024.955, 4237.978
1025.437, 4132.500
1025.919, 4035.938
1026.401, 3950.023
1026.883, 3872.293
1027.365, 3801.511
1027.847, 3737.152
1028.330, 3678.204
1028.812, 3624.892
1029.294, 3573.996
1029.776, 3522.884
1030.258, 3475.510
1030.740, 3435.058
1031.222, 3400.048
1031.704, 3366.996
1032.187, 3335.749
1032.669, 3307.146
1033.151, 3281.372
1033.633, 3257.420
1034.115, 3233.295
1034.597, 3210.501
1035.079, 3191.282
1035.561, 3177.148
1036.043, 3163.878
1036.526, 3151.429
1037.008, 3139.056
1037.490, 3126.299
1037.972, 3113.285
1038.454, 3099.597
1038.936, 3085.743
1039.418, 3073.586
1039.900, 3065.109
1040.382, 3057.622
1040.865, 3051.119
1041.347, 3044.422
1041.829, 3035.426
1042.311, 3023.238
1042.793, 3014.142
1043.275, 3008.947
1043.757, 3004.824
1044.239, 2998.989
1044.722, 2992.578
1045.204, 2987.124
1045.686, 2982.719
1046.168, 2977.590
1046.650, 2970.241
1047.132, 2964.298
1047.614, 2961.240
1048.096, 2959.789
1048.578, 2956.681
1049.061, 2952.438
1049.543, 2948.807
1050.025, 2946.484
1050.507, 2944.486
1050.989, 2942.829
1051.471, 2940.822
1051.953, 2937.649
1052.435, 2932.991
1052.917, 2930.168
1053.400, 2929.232
1053.882, 2929.212
1054.364, 2930.704
1054.846, 2931.805
1055.328, 2929.242
1055.810, 2924.556
1056.292, 2921.784
1056.774, 2924.167
1057.257, 2924.333
1057.739, 2920.617
1058.221, 2916.533
1058.703, 2917.840
1059.185, 2922.161
1059.667, 2921.377
1060.149, 2914.921
1060.631, 2909.397
1061.114, 2909.886
1061.596, 2910.590
1062.078, 2908.147
1062.560, 2903.759
1063.042, 2901.902
1063.524, 2902.610
1064.006, 2903.072
1064.488, 2902.427
1064.970, 2901.522
1065.453, 2901.893
1065.935, 2902.100
1066.417, 2900.053
1066.899, 2894.223
1067.381, 2891.135
1067.863, 2891.536
1068.345, 2892.537
1068.827, 2892.846
1069.309, 2892.360
1069.792, 2890.113
1070.274, 2886.859
1070.756, 2884.746
1071.238, 2886.383
1071.720, 2886.911
1072.202, 2884.265
1072.684, 2881.214
1073.166, 2881.360
1073.649, 2884.348
1074.131, 2885.240
1074.613, 2883.799
1075.095, 2881.343
1075.577, 2877.831
1076.059, 2874.521
1076.541, 2872.052
1077.023, 2870.521
1077.505, 2870.051
1077.988, 2870.878
1078.470, 2871.614
1078.952, 2872.081
1079.434, 2871.929
1079.916, 2869.883
1080.398, 2867.343
1080.880, 2866.495
1081.362, 2867.986
1081.844, 2868.581
1082.327, 2868.115
1082.809, 2866.226
1083.291, 2861.539
1083.773, 2856.258
1084.255, 2857.998
1084.737, 2864.547
1085.219, 2868.598
1085.701, 2866.697
1086.183, 2863.723
1086.666, 2860.364
1087.148, 2857.753
1087.630, 2857.387
1088.112, 2859.468
1088.594, 2858.174
1089.076, 2853.634
1089.558, 2849.569
1090.040, 2848.560
1090.523, 2848.749
1091.005, 2850.039
1091.487, 2851.238
1091.969, 2849.091
1092.451, 2841.223
1092.933, 2838.173
1093.415, 2841.707
1093.897, 2846.753
1094.380, 2848.223
1094.862, 2847.777
1095.344, 2847.803
1095.826, 2848.385
1096.308, 2847.941
1096.790, 2845.729
1097.272, 2842.739
1097.754, 2838.353
1098.236, 2834.432
1098.719, 2835.875
1099.201, 2840.820
1099.683, 2843.517
1100.165, 2842.209
1100.647, 2841.209
1101.129, 2842.813
1101.611, 2845.118
1102.093, 2847.789
1102.575, 2850.368
1103.058, 2848.368
1103.540, 2842.212
1104.022, 2837.247
1104.504, 2836.143
1104.986, 2836.160
1105.468, 2835.592
1105.950, 2834.862
1106.432, 2834.395
1106.915, 2834.024
1107.397, 2834.719
1107.879, 2836.505
1108.361, 2839.114
1108.843, 2844.467
1109.325, 2848.962
1109.807, 2846.941
1110.289, 2840.464
1110.771, 2835.013
1111.254, 2830.746
1111.736, 2829.521
1112.218, 2832.013
1112.700, 2836.228
1113.182, 2841.547
1113.664, 2846.466
1114.146, 2846.595
1114.628, 2842.231
1115.110, 2838.966
1115.593, 2840.166
1116.075, 2841.327
1116.557, 2841.192
1117.039, 2840.386
1117.521, 2840.214
1118.003, 2840.487
1118.485, 2840.346
1118.967, 2839.648
1119.450, 2838.627
1119.932, 2835.371
1120.414, 2834.037
1120.896, 2838.552
1121.378, 2847.133
1121.860, 2849.448
1122.342, 2845.669
1122.824, 2841.464
1123.307, 2837.827
1123.789, 2836.631
1124.271, 2842.093
1124.753, 2849.275
1125.235, 2852.581
1125.717, 2851.327
1126.199, 2849.909
1126.681, 2848.117
1127.163, 2847.586
1127.646, 2849.689
1128.128, 2852.941
1128.610, 2856.997
1129.092, 2860.394
1129.574, 2860.272
1130.056, 2851.344
1130.538, 2848.243
1131.020, 2852.841
1131.502, 2857.940
1131.985, 2856.612
1132.467, 2852.172
1132.949, 2851.435
1133.431, 2853.739
1133.913, 2856.462
1134.395, 2859.410
1134.877, 2861.659
1135.359, 2863.173
1135.842, 2863.883
1136.324, 2863.211
1136.806, 2861.696
1137.288, 2861.435
1137.770, 2862.452
1138.252, 2862.992
1138.734, 2861.525
1139.216, 2860.235
1139.698, 2859.820
1140.181, 2860.102
1140.663, 2861.256
1141.145, 2862.979
1141.627, 2862.279
1142.109, 2858.372
1142.591, 2855.987
1143.073, 2859.919
1143.555, 2864.854
1144.037, 2867.687
1144.520, 2868.629
1145.002, 2868.453
1145.484, 2867.165
1145.966, 2866.384
1146.448, 2866.579
1146.930, 2867.376
1147.412, 2869.598
1147.894, 2871.494
1148.377, 2870.963
1148.859, 2867.947
1149.341, 2865.665
1149.823, 2864.170
1150.305, 2863.082
1150.787, 2862.478
1151.269, 2861.847
1151.751, 2860.370
1152.234, 2858.628
1152.716, 2857.284
1153.198, 2855.993
1153.680, 2857.400
1154.162, 2862.451
1154.644, 2866.208
1155.126, 2864.548
1155.608, 2860.626
1156.090, 2857.948
1156.573, 2856.964
1157.055, 2858.604
1157.537, 2867.723
1158.019, 2871.481
1158.501, 2867.886
1158.983, 2863.721
1159.465, 2864.973
1159.947, 2869.275
1160.429, 2872.728
1160.912, 2875.058
1161.394, 2875.698
1161.876, 2872.034
1162.358, 2870.212
1162.840, 2871.259
1163.322, 2873.777
1163.804, 2877.357
1164.286, 2880.964
1164.769, 2880.494
1165.251, 2876.507
1165.733, 2874.917
1166.215, 2881.531
1166.697, 2886.541
1167.179, 2887.077
1167.661, 2885.612
1168.143, 2885.828
1168.625, 2887.324
1169.108, 2888.883
1169.590, 2890.316
1170.072, 2891.090
1170.554, 2890.103
1171.036, 2889.423
1171.518, 2890.167
1172.000, 2889.333
1172.482, 2891.083
1172.964, 2889.391
1173.447, 2888.781
1173.929, 2889.864
1174.411, 2890.277
1174.893, 2886.852
1175.375, 2884.302
1175.857, 2885.673
1176.339, 2889.663
1176.821, 2891.395
1177.304, 2891.088
1177.786, 2890.475
1178.268, 2889.805
1178.750, 2889.663
1179.232, 2890.702
1179.714, 2892.162
1180.196, 2893.716
1180.678, 2895.238
1181.161, 2895.251
1181.643, 2893.907
1182.125, 2893.292
1182.607, 2894.313
1183.089, 2895.948
1183.571, 2897.920
1184.053, 2899.870
1184.535, 2901.615
1185.017, 2903.209
1185.500, 2903.404
1185.982, 2902.252
1186.464, 2901.336
1186.946, 2901.393
1187.428, 2901.906
1187.910, 2902.225
1188.392, 2902.886
1188.874, 2904.624
1189.356, 2907.553
1189.839, 2909.928
1190.321, 2911.694
1190.803, 2912.527
1191.285, 2911.344
1191.767, 2910.074
1192.249, 2910.323
1192.731, 2911.444
1193.213, 2912.543
1193.696, 2913.704
1194.178, 2914.377
1194.660, 2914.595
1195.142, 2914.287
1195.624, 2913.042
1196.106, 2911.699
1196.588, 2910.860
1197.070, 2910.555
1197.552, 2910.874
1198.035, 2912.125
1198.517, 2912.670
1198.999, 2912.436
1199.481, 2911.705
1199.963, 2909.471
1200.445, 2907.902
1200.927, 2909.370
1201.409, 2912.922
1201.891, 2915.852
1202.374, 2917.663
1202.856, 2921.336
1203.338, 2927.483
1203.820, 2931.453
1204.302, 2926.194
1204.784, 2919.539
1205.266, 2919.192
1205.748, 2923.591
1206.231, 2925.841
1206.713, 2925.057
1207.195, 2926.374
1207.677, 2930.698
1208.159, 2934.630
1208.641, 2933.812
1209.123, 2932.236
1209.605, 2933.768
1210.088, 2937.963
1210.570, 2942.017
1211.052, 2946.436
1211.534, 2946.883
1212.016, 2942.257
1212.498, 2936.574
1212.980, 2932.597
1213.462, 2930.376
1213.944, 2930.505
1214.427, 2932.669
1214.909, 2934.843
1215.391, 2937.222
1215.873, 2937.784
1216.355, 2935.696
1216.837, 2934.444
1217.319, 2939.327
1217.801, 2945.167
1218.283, 2946.792
1218.766, 2944.609
1219.248, 2943.659
1219.730, 2944.142
1220.212, 2944.108
1220.694, 2942.996
1221.176, 2942.031
1221.658, 2942.390
1222.140, 2943.414
1222.623, 2944.541
1223.105, 2945.780
1223.587, 2947.777
1224.069, 2950.699
1224.551, 2951.682
1225.033, 2949.429
1225.515, 2947.864
1225.997, 2951.698
1226.479, 2956.915
1226.962, 2959.921
1227.444, 2960.950
1227.926, 2962.287
1228.408, 2963.930
1228.890, 2964.261
1229.372, 2962.493
1229.854, 2960.668
1230.336, 2959.987
1230.818, 2960.398
1231.301, 2962.344
1231.783, 2965.401
1232.265, 2967.144
1232.747, 2967.605
1233.229, 2967.901
1233.711, 2968.252
1234.193, 2968.883
1234.675, 2970.447
1235.158, 2971.928
1235.640, 2973.108
1236.122, 2973.633
1236.604, 2969.495
1237.086, 2961.534
1237.568, 2957.644
1238.050, 2961.647
1238.532, 2965.877
1239.015, 2965.249
1239.497, 2963.421
1239.979, 2962.933
1240.461, 2963.478
1240.943, 2963.246
1241.425, 2962.423
1241.907, 2961.905
1242.389, 2962.029
1242.871, 2962.447
1243.354, 2962.779
1243.836, 2963.590
1244.318, 2965.021
1244.800, 2967.175
1245.282, 2971.125
1245.764, 2976.284
1246.246, 2980.183
1246.728, 2981.872
1247.210, 2982.819
1247.693, 2981.940
1248.175, 2982.444
1248.657, 2986.807
1249.139, 2993.191
1249.621, 2995.346
1250.103, 2994.344
1250.585, 2993.064
1251.067, 2991.755
1251.550, 2992.191
1252.032, 2996.161
1252.514, 2999.372
1252.996, 2998.933
1253.478, 2996.920
1253.960, 2999.590
1254.442, 3004.439
1254.924, 3005.774
1255.406, 3000.205
1255.889, 2997.077
1256.371, 2998.648
1256.853, 2999.083
1257.335, 2994.034
1257.817, 2987.827
1258.299, 2988.755
1258.781, 2993.922
1259.263, 2998.716
1259.745, 3002.558
1260.228, 3003.881
1260.710, 3001.972
1261.192, 3000.305
1261.674, 3000.691
1262.156, 3001.994
1262.638, 3002.160
1263.120, 3002.437
1263.602, 3005.019
1264.085, 3010.841
1264.567, 3014.858
1265.049, 3017.054
1265.531, 3017.644
1266.013, 3016.462
1266.495, 3014.167
1266.977, 3009.927
1267.459, 3005.861
1267.942, 3004.796
1268.424, 3006.783
1268.906, 3008.975
1269.388, 3011.395
1269.870, 3014.105
1270.352, 3017.482
1270.834, 3020.445
1271.316, 3022.884
1271.798, 3023.869
1272.281, 3022.034
1272.763, 3017.910
1273.245, 3017.999
1273.727, 3021.616
1274.209, 3023.885
1274.691, 3022.056
1275.173, 3020.808
1275.655, 3022.999
1276.137, 3026.034
1276.620, 3028.763
1277.102, 3030.969
1277.584, 3030.708
1278.066, 3029.163
1278.548, 3030.839
1279.030, 3039.015
1279.512, 3044.671
1279.994, 3044.334
1280.476, 3043.009
1280.959, 3042.645
1281.441, 3043.370
1281.923, 3046.931
1282.405, 3051.435
1282.887, 3052.281
1283.369, 3046.577
1283.851, 3044.665
1284.333, 3048.349
1284.816, 3052.671
1285.298, 3055.569
1285.780, 3057.703
1286.262, 3060.709
1286.744, 3063.361
1287.226, 3063.024
1287.708, 3065.897
1288.190, 3069.277
1288.672, 3068.432
1289.155, 3074.864
1289.637, 3074.767
1290.119, 3071.861
1290.601, 3067.184
1291.083, 3063.587
1291.565, 3065.072
1292.047, 3071.077
1292.529, 3075.917
1293.011, 3079.595
1293.494, 3080.265
1293.976, 3076.328
1294.458, 3073.341
1294.940, 3076.489
1295.422, 3080.660
1295.904, 3082.414
1296.386, 3082.371
1296.868, 3082.695
1297.351, 3083.413
1297.833, 3084.827
1298.315, 3087.134
1298.797, 3089.385
1299.279, 3091.867
1299.761, 3092.923
1300.243, 3091.386
1300.725, 3089.204
1301.208, 3091.391
1301.690, 3095.243
1302.172, 3094.126
1302.654, 3086.235
1303.136, 3082.966
1303.618, 3088.011
1304.100, 3091.372
1304.582, 3091.448
1305.064, 3088.821
##END=



