##NAMES=Serendibite
##RRUFFID=R070622
##IDEAL CHEMISTRY=Ca_4_(Mg_6_Al_6_)O_4_[Si_6_B_3_Al_3_O_36_]
##LOCALITY=Sri Lanka
##OWNER=RRUFF
##SOURCE=Shinichi Kihara
##DESCRIPTION=Deep blue-green vitreous crystals with conchoidal fracture.
##STATUS=The identification of this mineral has been confirmed by single-crystal X-ray diffraction.
##URL=rruff.info/R070622
95.89557, 6547.607
96.37769, 6943.081
96.85980, 7329.600
97.34192, 7708.500
97.82404, 8085.329
98.30615, 8466.021
98.78827, 8844.189
99.27039, 9205.761
99.75250, 9562.913
100.2346, 9897.749
100.7167, 10190.72
101.1989, 10422.16
101.6810, 10577.50
102.1631, 10579.17
102.6452, 10607.83
103.1273, 10613.28
103.6094, 10556.29
104.0916, 10462.62
104.5737, 10413.17
105.0558, 10442.06
105.5379, 10469.22
106.0200, 10448.83
106.5021, 10388.01
106.9843, 10317.15
107.4664, 10260.82
107.9485, 10220.06
108.4306, 10182.43
108.9127, 10132.88
109.3948, 10093.60
109.8770, 10075.10
110.3591, 10080.10
110.8412, 10106.10
111.3233, 10152.62
111.8054, 10257.61
112.2875, 10325.80
112.7697, 10335.56
113.2518, 10314.02
113.7339, 10287.18
114.2160, 10267.81
114.6981, 10256.39
115.1802, 10259.22
115.6624, 10280.99
116.1445, 10308.53
116.6266, 10340.02
117.1087, 10374.32
117.5908, 10410.02
118.0729, 10448.04
118.5551, 10487.44
119.0372, 10514.91
119.5193, 10514.15
120.0014, 10510.89
120.4835, 10531.11
120.9656, 10580.09
121.4478, 10635.30
121.9299, 10662.62
122.4120, 10668.02
122.8941, 10695.74
123.3762, 10789.21
123.8583, 10919.74
124.3405, 11001.26
124.8226, 10994.27
125.3047, 10958.44
125.7868, 10944.76
126.2689, 10953.88
126.7510, 10981.89
127.2332, 11033.33
127.7153, 11112.79
128.1974, 11181.37
128.6795, 11219.40
129.1616, 11249.34
129.6437, 11281.39
130.1259, 11318.45
130.6080, 11364.14
131.0901, 11433.11
131.5722, 11566.79
132.0543, 11646.56
132.5364, 11623.89
133.0186, 11555.34
133.5007, 11502.19
133.9828, 11500.04
134.4649, 11539.26
134.9470, 11551.52
135.4291, 11501.07
135.9113, 11457.93
136.3934, 11438.12
136.8755, 11437.38
137.3576, 11445.48
137.8397, 11456.12
138.3218, 11471.10
138.8040, 11466.27
139.2861, 11421.65
139.7682, 11376.99
140.2503, 11355.81
140.7324, 11359.71
141.2145, 11374.58
141.6967, 11386.94
142.1788, 11397.94
142.6609, 11398.50
143.1430, 11376.27
143.6251, 11347.85
144.1072, 11332.70
144.5894, 11336.28
145.0715, 11351.52
145.5536, 11371.13
146.0357, 11396.23
146.5178, 11417.24
146.9999, 11429.87
147.4821, 11435.32
147.9642, 11436.68
148.4463, 11429.54
148.9284, 11424.40
149.4105, 11434.96
149.8927, 11465.09
150.3748, 11498.19
150.8569, 11520.14
151.3390, 11530.02
151.8211, 11537.38
152.3032, 11536.72
152.7854, 11539.13
153.2675, 11558.41
153.7496, 11603.79
154.2317, 11655.53
154.7138, 11675.24
155.1959, 11646.02
155.6781, 11619.36
156.1602, 11605.30
156.6423, 11603.61
157.1244, 11617.97
157.6065, 11655.36
158.0886, 11707.34
158.5708, 11729.43
159.0529, 11689.28
159.5350, 11651.78
160.0171, 11640.31
160.4992, 11642.77
160.9813, 11634.27
161.4635, 11591.81
161.9456, 11510.90
162.4277, 11460.20
162.9098, 11472.54
163.3919, 11482.95
163.8740, 11461.28
164.3562, 11411.80
164.8383, 11360.73
165.3204, 11337.16
165.8025, 11353.29
166.2846, 11353.33
166.7667, 11322.56
167.2489, 11288.24
167.7310, 11272.74
168.2131, 11279.13
168.6952, 11289.63
169.1773, 11278.66
169.6594, 11232.60
170.1416, 11197.44
170.6237, 11181.75
171.1058, 11175.84
171.5879, 11168.44
172.0700, 11155.98
172.5521, 11141.94
173.0343, 11132.38
173.5164, 11125.71
173.9985, 11125.14
174.4806, 11135.93
174.9627, 11153.72
175.4448, 11168.37
175.9270, 11176.09
176.4091, 11178.42
176.8912, 11179.52
177.3733, 11180.89
177.8554, 11177.97
178.3375, 11163.15
178.8197, 11138.23
179.3018, 11121.29
179.7839, 11126.82
180.2660, 11141.04
180.7481, 11141.88
181.2302, 11117.54
181.7124, 11096.33
182.1945, 11124.08
182.6766, 11214.54
183.1587, 11270.55
183.6408, 11202.66
184.1229, 11091.49
184.6051, 11012.10
185.0872, 10991.21
185.5693, 11010.33
186.0514, 11040.63
186.5335, 11090.94
187.0156, 11132.33
187.4978, 11158.99
187.9799, 11170.76
188.4620, 11163.48
188.9441, 11128.20
189.4262, 11075.76
189.9083, 11051.47
190.3905, 11084.24
190.8726, 11107.23
191.3547, 11087.88
191.8368, 11047.03
192.3189, 11020.71
192.8010, 11037.05
193.2832, 11093.29
193.7653, 11131.93
194.2474, 11133.24
194.7295, 11133.73
195.2116, 11140.93
195.6937, 11154.63
196.1759, 11172.95
196.6580, 11196.68
197.1401, 11228.61
197.6222, 11239.59
198.1043, 11212.90
198.5864, 11182.13
199.0686, 11158.53
199.5507, 11142.72
200.0328, 11130.66
200.5149, 11118.56
200.9970, 11106.60
201.4791, 11093.18
201.9613, 11071.99
202.4434, 11054.26
202.9255, 11048.13
203.4076, 11053.59
203.8897, 11063.57
204.3718, 11069.65
204.8540, 11069.47
205.3361, 11072.26
205.8182, 11089.55
206.3003, 11102.72
206.7824, 11092.30
207.2645, 11055.45
207.7467, 11010.98
208.2288, 10984.27
208.7109, 10982.71
209.1930, 10982.81
209.6751, 10985.86
210.1572, 10989.23
210.6394, 10990.67
211.1215, 10989.66
211.6036, 10985.40
212.0857, 10973.70
212.5678, 10948.41
213.0499, 10937.06
213.5321, 10956.14
214.0142, 10989.44
214.4963, 11013.22
214.9784, 11020.28
215.4605, 11015.65
215.9426, 11005.32
216.4248, 10988.56
216.9069, 10971.91
217.3890, 10949.82
217.8711, 10929.37
218.3532, 10929.41
218.8353, 10961.83
219.3175, 11008.08
219.7996, 11040.41
220.2817, 11059.40
220.7638, 11067.76
221.2459, 11057.61
221.7280, 11035.26
222.2102, 11027.70
222.6923, 11051.94
223.1744, 11085.79
223.6565, 11097.47
224.1386, 11083.35
224.6207, 11063.65
225.1029, 11045.88
225.5850, 11031.19
226.0671, 11032.34
226.5492, 11071.99
227.0313, 11113.67
227.5134, 11113.41
227.9956, 11061.48
228.4777, 10999.21
228.9598, 10953.89
229.4419, 10925.65
229.9240, 10917.69
230.4061, 10949.62
230.8883, 10991.00
231.3704, 11013.20
231.8525, 11010.96
232.3346, 10998.03
232.8167, 10987.17
233.2988, 10978.72
233.7810, 10968.58
234.2631, 10954.53
234.7452, 10938.68
235.2273, 10919.38
235.7094, 10894.97
236.1915, 10876.71
236.6737, 10886.25
237.1558, 10932.91
237.6379, 10959.55
238.1200, 10920.49
238.6021, 10871.05
239.0842, 10855.85
239.5664, 10888.92
240.0485, 10935.04
240.5306, 10941.53
241.0127, 10894.89
241.4948, 10856.63
241.9769, 10847.85
242.4591, 10849.50
242.9412, 10847.31
243.4233, 10836.89
243.9054, 10825.82
244.3875, 10829.91
244.8696, 10860.53
245.3518, 10873.67
245.8339, 10841.20
246.3160, 10800.00
246.7981, 10779.32
247.2802, 10788.72
247.7623, 10813.88
248.2445, 10829.00
248.7266, 10823.18
249.2087, 10834.17
249.6908, 10883.01
250.1729, 10940.57
250.6550, 10988.58
251.1372, 11021.06
251.6193, 11033.59
252.1014, 11013.60
252.5835, 10940.14
253.0656, 10879.01
253.5477, 10840.77
254.0299, 10814.96
254.5120, 10793.54
254.9941, 10773.85
255.4762, 10758.29
255.9583, 10752.90
256.4405, 10767.11
256.9226, 10772.28
257.4047, 10766.26
257.8868, 10751.62
258.3689, 10723.24
258.8510, 10680.83
259.3332, 10641.18
259.8153, 10638.92
260.2974, 10704.13
260.7795, 10748.38
261.2616, 10755.41
261.7437, 10748.17
262.2259, 10743.45
262.7080, 10746.57
263.1901, 10753.46
263.6722, 10755.40
264.1543, 10741.74
264.6364, 10744.90
265.1186, 10782.10
265.6007, 10824.24
266.0828, 10851.20
266.5649, 10856.70
267.0470, 10845.60
267.5291, 10821.67
268.0113, 10762.04
268.4934, 10736.37
268.9755, 10765.12
269.4576, 10810.63
269.9397, 10851.32
270.4218, 10879.71
270.9040, 10894.35
271.3861, 10888.03
271.8682, 10833.94
272.3503, 10815.04
272.8324, 10853.77
273.3145, 10906.07
273.7967, 10942.24
274.2788, 10956.25
274.7609, 10961.25
275.2430, 10976.78
275.7251, 11012.21
276.2072, 11036.10
276.6894, 11040.90
277.1715, 11041.89
277.6536, 11053.81
278.1357, 11076.07
278.6178, 11091.87
279.0999, 11075.14
279.5821, 11002.36
280.0642, 10964.00
280.5463, 10974.84
281.0284, 11001.33
281.5105, 11031.49
281.9926, 11060.44
282.4748, 11083.75
282.9569, 11095.90
283.4390, 11094.85
283.9211, 11090.07
284.4032, 11079.13
284.8853, 11067.20
285.3675, 11048.04
285.8496, 11027.29
286.3317, 11023.89
286.8138, 11062.42
287.2959, 11156.81
287.7780, 11215.19
288.2602, 11205.94
288.7423, 11192.82
289.2244, 11202.32
289.7065, 11232.30
290.1886, 11266.27
290.6707, 11289.10
291.1529, 11299.44
291.6350, 11315.64
292.1171, 11351.74
292.5992, 11379.99
293.0813, 11382.57
293.5634, 11368.53
294.0456, 11359.74
294.5277, 11373.24
295.0098, 11408.66
295.4919, 11447.40
295.9740, 11501.09
296.4561, 11545.96
296.9383, 11577.12
297.4204, 11595.03
297.9025, 11600.03
298.3846, 11590.92
298.8667, 11569.93
299.3488, 11555.73
299.8310, 11551.46
300.3131, 11551.36
300.7952, 11563.05
301.2773, 11576.38
301.7594, 11574.84
302.2415, 11547.50
302.7237, 11503.42
303.2058, 11477.74
303.6879, 11402.54
304.1700, 11462.94
304.6521, 11493.45
305.1342, 11495.67
305.6164, 11384.86
306.0985, 11420.00
306.5806, 11396.65
307.0627, 11370.90
307.5448, 11426.58
308.0269, 11332.21
308.5091, 11386.60
308.9912, 11429.70
309.4733, 11459.97
309.9554, 11466.78
310.4375, 11462.72
310.9196, 11473.65
311.4018, 11517.21
311.8839, 11533.85
312.3660, 11492.71
312.8481, 11442.34
313.3302, 11417.48
313.8123, 11425.71
314.2945, 11449.35
314.7766, 11467.18
315.2587, 11479.47
315.7408, 11484.44
316.2229, 11477.97
316.7050, 11467.29
317.1872, 11454.57
317.6693, 11440.69
318.1514, 11427.29
318.6335, 11415.73
319.1156, 11406.02
319.5977, 11398.34
320.0799, 11384.59
320.5620, 11380.88
321.0441, 11404.15
321.5262, 11446.88
322.0083, 11482.44
322.4904, 11483.04
322.9726, 11451.04
323.4547, 11437.67
323.9368, 11457.01
324.4189, 11478.62
324.9010, 11492.05
325.3831, 11497.45
325.8653, 11495.99
326.3474, 11485.16
326.8295, 11468.40
327.3116, 11459.32
327.7937, 11462.47
328.2758, 11464.98
328.7580, 11459.84
329.2401, 11450.89
329.7222, 11443.74
330.2043, 11441.17
330.6864, 11441.22
331.1685, 11437.80
331.6507, 11426.96
332.1328, 11426.30
332.6149, 11461.33
333.0970, 11503.56
333.5791, 11521.54
334.0612, 11502.04
334.5434, 11468.92
335.0255, 11445.23
335.5076, 11430.71
335.9897, 11430.38
336.4718, 11457.39
336.9539, 11492.67
337.4361, 11516.29
337.9182, 11525.63
338.4003, 11528.50
338.8824, 11531.46
339.3645, 11533.62
339.8466, 11526.32
340.3288, 11497.00
340.8109, 11470.87
341.2930, 11480.49
341.7751, 11526.86
342.2572, 11567.82
342.7393, 11575.10
343.2215, 11562.63
343.7036, 11565.21
344.1857, 11593.06
344.6678, 11624.79
345.1499, 11639.34
345.6320, 11639.07
346.1142, 11628.95
346.5963, 11592.05
347.0784, 11554.42
347.5605, 11556.40
348.0426, 11603.47
348.5247, 11651.34
349.0069, 11661.88
349.4890, 11639.17
349.9711, 11625.83
350.4532, 11626.83
350.9353, 11635.76
351.4174, 11646.89
351.8996, 11661.05
352.3817, 11687.32
352.8638, 11739.16
353.3459, 11804.66
353.8280, 11828.61
354.3102, 11767.36
354.7923, 11717.65
355.2744, 11729.45
355.7565, 11777.96
356.2386, 11808.57
356.7207, 11794.94
357.2029, 11759.41
357.6850, 11759.15
358.1671, 11833.43
358.6492, 11878.71
359.1313, 11862.04
359.6134, 11819.75
360.0956, 11790.30
360.5777, 11784.56
361.0598, 11793.04
361.5419, 11803.34
362.0240, 11820.81
362.5061, 11825.45
362.9883, 11806.39
363.4704, 11783.82
363.9525, 11772.90
364.4346, 11773.41
364.9167, 11772.73
365.3988, 11755.45
365.8810, 11716.12
366.3631, 11710.02
366.8452, 11782.62
367.3273, 11839.94
367.8094, 11840.89
368.2915, 11800.78
368.7737, 11753.50
369.2558, 11718.37
369.7379, 11697.54
370.2200, 11706.20
370.7021, 11788.00
371.1842, 11841.88
371.6664, 11832.11
372.1485, 11793.00
372.6306, 11762.74
373.1127, 11756.76
373.5948, 11766.78
374.0769, 11779.64
374.5591, 11800.95
375.0412, 11809.76
375.5233, 11786.14
376.0054, 11760.63
376.4875, 11756.64
376.9696, 11777.22
377.4518, 11804.02
377.9339, 11820.08
378.4160, 11825.33
378.8981, 11822.75
379.3802, 11802.87
379.8623, 11785.97
380.3445, 11789.23
380.8266, 11807.66
381.3087, 11820.62
381.7908, 11811.35
382.2729, 11787.31
382.7550, 11770.43
383.2372, 11763.25
383.7193, 11757.81
384.2014, 11748.59
384.6835, 11737.57
385.1656, 11728.31
385.6477, 11721.93
386.1299, 11717.38
386.6120, 11711.77
387.0941, 11705.25
387.5762, 11704.96
388.0583, 11714.05
388.5404, 11732.18
389.0226, 11758.87
389.5047, 11803.32
389.9868, 11836.60
390.4689, 11838.21
390.9510, 11818.53
391.4331, 11799.55
391.9153, 11786.84
392.3974, 11780.51
392.8795, 11783.57
393.3616, 11800.18
393.8437, 11807.74
394.3258, 11801.55
394.8080, 11786.27
395.2901, 11760.26
395.7722, 11725.61
396.2543, 11698.02
396.7364, 11692.63
397.2185, 11711.35
397.7007, 11729.16
398.1828, 11753.40
398.6649, 11769.52
399.1470, 11767.49
399.6291, 11752.65
400.1112, 11735.45
400.5934, 11721.13
401.0755, 11711.13
401.5576, 11711.28
402.0397, 11727.14
402.5218, 11747.06
403.0039, 11787.02
403.4861, 11822.05
403.9682, 11820.93
404.4503, 11776.33
404.9324, 11717.03
405.4145, 11685.66
405.8966, 11689.13
406.3788, 11699.07
406.8609, 11730.29
407.3430, 11754.32
407.8251, 11753.43
408.3072, 11730.60
408.7893, 11702.16
409.2715, 11673.11
409.7536, 11647.08
410.2357, 11656.10
410.7178, 11723.88
411.1999, 11787.70
411.6820, 11824.79
412.1642, 11838.99
412.6463, 11833.60
413.1284, 11805.43
413.6105, 11764.84
414.0926, 11716.61
414.5747, 11658.24
415.0569, 11630.06
415.5390, 11662.24
416.0211, 11723.00
416.5032, 11771.67
416.9853, 11808.47
417.4674, 11827.31
417.9496, 11811.58
418.4317, 11776.23
418.9138, 11761.68
419.3959, 11781.83
419.8780, 11803.10
420.3601, 11779.52
420.8423, 11709.04
421.3244, 11664.28
421.8065, 11682.37
422.2886, 11708.08
422.7707, 11682.50
423.2528, 11614.18
423.7350, 11569.70
424.2171, 11600.54
424.6992, 11694.01
425.1813, 11742.72
425.6634, 11709.23
426.1455, 11682.75
426.6277, 11687.31
427.1098, 11709.77
427.5919, 11734.87
428.0740, 11756.55
428.5561, 11770.87
429.0382, 11769.38
429.5204, 11741.02
430.0025, 11718.44
430.4846, 11710.48
430.9667, 11700.20
431.4488, 11674.18
431.9309, 11634.39
432.4131, 11594.03
432.8952, 11561.23
433.3773, 11536.68
433.8594, 11533.71
434.3415, 11571.04
434.8236, 11603.83
435.3058, 11619.99
435.7879, 11621.19
436.2700, 11608.79
436.7521, 11581.27
437.2342, 11545.66
437.7163, 11507.44
438.1985, 11465.08
438.6806, 11437.36
439.1627, 11432.63
439.6448, 11444.14
440.1269, 11469.56
440.6090, 11510.73
441.0912, 11540.31
441.5733, 11543.30
442.0554, 11524.38
442.5375, 11483.04
443.0196, 11412.60
443.5017, 11358.10
443.9839, 11370.56
444.4660, 11444.67
444.9481, 11490.33
445.4302, 11491.52
445.9123, 11473.30
446.3944, 11438.63
446.8766, 11395.90
447.3587, 11369.58
447.8408, 11373.73
448.3229, 11397.81
448.8050, 11411.21
449.2871, 11403.72
449.7693, 11398.63
450.2514, 11394.97
450.7335, 11395.06
451.2156, 11406.08
451.6977, 11426.60
452.1798, 11441.66
452.6620, 11431.42
453.1441, 11390.51
453.6262, 11365.12
454.1083, 11360.21
454.5904, 11367.34
455.0725, 11398.11
455.5547, 11437.52
456.0368, 11458.63
456.5189, 11444.31
457.0010, 11409.92
457.4832, 11389.28
457.9653, 11385.52
458.4474, 11384.21
458.9295, 11378.24
459.4116, 11375.33
459.8937, 11385.75
460.3759, 11411.20
460.8580, 11432.10
461.3401, 11429.40
461.8222, 11411.19
462.3043, 11403.24
462.7864, 11410.92
463.2686, 11421.71
463.7507, 11427.04
464.2328, 11426.82
464.7149, 11420.44
465.1970, 11400.08
465.6791, 11380.20
466.1613, 11372.60
466.6434, 11374.06
467.1255, 11372.94
467.6076, 11363.34
468.0897, 11348.81
468.5718, 11337.97
469.0540, 11325.95
469.5361, 11325.64
470.0182, 11359.41
470.5003, 11390.90
470.9824, 11376.87
471.4645, 11320.33
471.9467, 11270.18
472.4288, 11279.80
472.9109, 11352.24
473.3930, 11389.34
473.8751, 11364.18
474.3572, 11331.44
474.8394, 11294.24
475.3215, 11261.19
475.8036, 11244.47
476.2857, 11250.36
476.7678, 11267.87
477.2499, 11286.99
477.7321, 11311.07
478.2142, 11306.74
478.6963, 11245.33
479.1784, 11172.85
479.6605, 11119.14
480.1426, 11085.84
480.6248, 11077.29
481.1069, 11117.07
481.5890, 11174.99
482.0711, 11198.77
482.5532, 11184.22
483.0353, 11161.05
483.5175, 11145.62
483.9996, 11137.08
484.4817, 11130.42
484.9638, 11135.93
485.4459, 11130.72
485.9280, 11094.74
486.4102, 11046.66
486.8923, 11016.12
487.3744, 11011.63
487.8565, 11018.19
488.3386, 11014.69
488.8207, 10995.07
489.3029, 10987.35
489.7850, 11008.53
490.2671, 11023.11
490.7492, 11012.22
491.2313, 10982.09
491.7134, 10948.14
492.1956, 10918.64
492.6777, 10893.13
493.1598, 10868.40
493.6419, 10840.13
494.1240, 10824.54
494.6061, 10827.09
495.0883, 10842.80
495.5704, 10878.03
496.0525, 10931.64
496.5346, 10971.79
497.0167, 10967.73
497.4988, 10932.67
497.9810, 10902.37
498.4631, 10877.97
498.9452, 10864.94
499.4273, 10873.61
499.9094, 10897.27
500.3915, 10910.62
500.8737, 10904.83
501.3558, 10896.28
501.8379, 10888.16
502.3200, 10883.96
502.8021, 10894.11
503.2842, 10922.83
503.7664, 10956.53
504.2485, 10974.91
504.7306, 10975.28
505.2127, 10966.35
505.6948, 10941.04
506.1769, 10914.11
506.6591, 10888.33
507.1412, 10867.50
507.6233, 10859.70
508.1054, 10871.93
508.5875, 10895.94
509.0696, 10905.99
509.5518, 10896.93
510.0339, 10885.91
510.5160, 10869.11
510.9981, 10856.93
511.4802, 10862.07
511.9623, 10884.68
512.4445, 10903.83
512.9266, 10905.75
513.4087, 10892.80
513.8908, 10866.72
514.3729, 10823.98
514.8550, 10786.69
515.3372, 10765.90
515.8193, 10763.71
516.3014, 10782.47
516.7835, 10852.81
517.2656, 10905.65
517.7477, 10893.52
518.2299, 10847.06
518.7120, 10820.87
519.1941, 10830.42
519.6762, 10849.73
520.1583, 10844.03
520.6404, 10804.96
521.1226, 10777.83
521.6047, 10759.31
522.0868, 10753.75
522.5689, 10769.73
523.0510, 10798.89
523.5331, 10828.21
524.0153, 10852.04
524.4974, 10868.46
524.9795, 10874.33
525.4616, 10870.32
525.9437, 10851.79
526.4258, 10796.44
526.9080, 10745.10
527.3901, 10727.58
527.8722, 10741.93
528.3543, 10766.22
528.8364, 10802.67
529.3185, 10836.54
529.8007, 10843.58
530.2828, 10823.49
530.7649, 10789.49
531.2470, 10740.73
531.7291, 10688.31
532.2112, 10665.25
532.6934, 10688.16
533.1755, 10702.77
533.6576, 10693.45
534.1397, 10673.82
534.6218, 10655.35
535.1039, 10640.47
535.5861, 10627.84
536.0682, 10616.67
536.5503, 10606.78
537.0324, 10595.25
537.5145, 10573.15
537.9966, 10561.68
538.4788, 10568.51
538.9609, 10585.79
539.4430, 10610.65
539.9251, 10641.88
540.4072, 10662.66
540.8893, 10645.80
541.3715, 10597.65
541.8536, 10572.14
542.3357, 10583.96
542.8178, 10596.64
543.2999, 10576.84
543.7820, 10536.85
544.2642, 10509.04
544.7463, 10505.78
545.2284, 10507.71
545.7105, 10499.12
546.1926, 10487.79
546.6747, 10497.03
547.1569, 10535.13
547.6390, 10572.90
548.1211, 10567.33
548.6032, 10500.46
549.0853, 10461.35
549.5674, 10455.08
550.0496, 10466.45
550.5317, 10507.56
551.0138, 10558.46
551.4959, 10583.35
551.9780, 10563.43
552.4601, 10522.06
552.9423, 10499.92
553.4244, 10498.83
553.9065, 10505.16
554.3886, 10526.59
554.8707, 10544.12
555.3528, 10534.16
555.8350, 10504.92
556.3171, 10496.01
556.7992, 10542.49
557.2813, 10602.60
557.7634, 10638.10
558.2455, 10649.03
558.7277, 10632.11
559.2098, 10578.42
559.6919, 10514.92
560.1740, 10494.24
560.6561, 10545.55
561.1382, 10577.66
561.6204, 10571.01
562.1025, 10560.74
562.5846, 10574.63
563.0667, 10605.79
563.5488, 10627.30
564.0309, 10620.38
564.5131, 10597.33
564.9952, 10598.03
565.4773, 10637.15
565.9594, 10657.37
566.4415, 10622.43
566.9236, 10582.26
567.4058, 10574.88
567.8879, 10598.47
568.3700, 10616.81
568.8521, 10603.32
569.3342, 10576.85
569.8163, 10569.03
570.2985, 10579.16
570.7806, 10581.55
571.2627, 10560.62
571.7448, 10527.41
572.2269, 10509.11
572.7090, 10510.14
573.1912, 10515.49
573.6733, 10533.28
574.1554, 10547.75
574.6375, 10542.18
575.1196, 10520.32
575.6017, 10500.67
576.0839, 10497.17
576.5660, 10504.26
577.0481, 10498.04
577.5302, 10466.30
578.0123, 10450.67
578.4944, 10486.83
578.9766, 10523.69
579.4587, 10516.53
579.9408, 10466.21
580.4229, 10422.67
580.9050, 10422.05
581.3871, 10441.78
581.8693, 10441.83
582.3514, 10422.30
582.8335, 10416.82
583.3156, 10449.40
583.7977, 10498.91
584.2798, 10510.80
584.7620, 10459.84
585.2441, 10424.63
585.7262, 10418.46
586.2083, 10425.46
586.6904, 10438.66
587.1725, 10454.26
587.6547, 10467.28
588.1368, 10475.08
588.6189, 10476.12
589.1010, 10462.66
589.5831, 10426.57
590.0652, 10398.37
590.5474, 10393.00
591.0295, 10391.93
591.5116, 10378.22
591.9937, 10353.16
592.4758, 10338.13
592.9579, 10355.96
593.4401, 10382.47
593.9222, 10382.22
594.4043, 10358.20
594.8864, 10340.71
595.3685, 10347.30
595.8506, 10361.81
596.3328, 10349.40
596.8149, 10286.11
597.2970, 10243.54
597.7791, 10223.65
598.2612, 10223.19
598.7433, 10259.15
599.2255, 10312.64
599.7076, 10338.79
600.1897, 10308.07
600.6718, 10246.84
601.1539, 10211.83
601.6360, 10206.53
602.1182, 10206.94
602.6003, 10211.12
603.0824, 10217.06
603.5645, 10223.48
604.0466, 10230.19
604.5287, 10236.39
605.0109, 10250.98
605.4930, 10257.21
605.9751, 10231.66
606.4572, 10185.50
606.9393, 10151.40
607.4214, 10141.42
607.9036, 10147.85
608.3857, 10160.95
608.8678, 10186.72
609.3499, 10197.40
609.8320, 10175.99
610.3141, 10158.99
610.7963, 10161.55
611.2784, 10177.43
611.7605, 10195.44
612.2426, 10211.31
612.7247, 10227.97
613.2068, 10253.29
613.6890, 10285.35
614.1711, 10304.24
614.6532, 10306.05
615.1353, 10297.44
615.6174, 10277.46
616.0995, 10250.17
616.5817, 10235.01
617.0638, 10236.30
617.5459, 10246.07
618.0280, 10269.16
618.5101, 10295.66
618.9922, 10307.75
619.4744, 10303.86
619.9565, 10305.08
620.4386, 10339.31
620.9207, 10403.81
621.4028, 10414.09
621.8849, 10315.83
622.3671, 10253.25
622.8492, 10298.16
623.3313, 10375.30
623.8134, 10411.45
624.2955, 10394.34
624.7776, 10362.58
625.2598, 10330.06
625.7419, 10302.51
626.2240, 10291.88
626.7061, 10298.16
627.1882, 10309.34
627.6703, 10320.38
628.1525, 10329.40
628.6346, 10331.16
629.1167, 10319.63
629.5988, 10309.91
630.0809, 10309.37
630.5630, 10304.42
631.0452, 10274.93
631.5273, 10232.83
632.0094, 10214.40
632.4915, 10246.74
632.9736, 10298.51
633.4557, 10306.65
633.9379, 10268.47
634.4200, 10227.70
634.9021, 10189.23
635.3842, 10157.52
635.8663, 10142.15
636.3484, 10139.81
636.8306, 10129.64
637.3127, 10094.22
637.7948, 10064.74
638.2769, 10068.33
638.7590, 10087.38
639.2411, 10087.93
639.7233, 10060.86
640.2054, 10025.95
640.6875, 10005.48
641.1696, 9999.354
641.6517, 10009.31
642.1339, 10056.81
642.6160, 10087.82
643.0981, 10079.18
643.5802, 10049.77
644.0623, 10015.91
644.5444, 9979.427
645.0266, 9954.870
645.5087, 9955.487
645.9908, 9972.656
646.4729, 9997.140
646.9550, 10026.78
647.4371, 10050.39
647.9193, 10063.16
648.4014, 10062.74
648.8835, 10040.89
649.3656, 9963.299
649.8477, 9920.435
650.3298, 9937.614
650.8120, 9964.700
651.2941, 9975.627
651.7762, 9970.745
652.2583, 9956.157
652.7404, 9929.684
653.2225, 9909.143
653.7047, 9936.269
654.1868, 10005.51
654.6689, 10032.01
655.1510, 9985.877
655.6331, 9926.201
656.1152, 9906.245
656.5974, 9925.729
657.0795, 9943.894
657.5616, 9962.726
658.0437, 9977.690
658.5258, 9984.435
659.0079, 9987.913
659.4901, 9996.176
659.9722, 10009.54
660.4543, 10018.71
660.9364, 10013.45
661.4185, 9996.405
661.9006, 9984.142
662.3828, 9977.779
662.8649, 9972.751
663.3470, 9966.089
663.8291, 9961.369
664.3112, 9964.333
664.7933, 9975.770
665.2755, 9983.269
665.7576, 9984.545
666.2397, 9979.266
666.7218, 9965.133
667.2039, 9944.245
667.6860, 9920.140
668.1682, 9894.225
668.6503, 9870.429
669.1324, 9854.165
669.6145, 9844.522
670.0966, 9847.522
670.5787, 9875.229
671.0609, 9899.815
671.5430, 9915.687
672.0251, 9920.025
672.5072, 9904.739
672.9893, 9862.640
673.4714, 9825.975
673.9536, 9817.849
674.4357, 9827.138
674.9178, 9841.615
675.3999, 9857.986
675.8820, 9862.187
676.3641, 9842.751
676.8463, 9810.139
677.3284, 9798.934
677.8105, 9826.076
678.2926, 9842.924
678.7747, 9847.328
679.2568, 9842.593
679.7390, 9825.232
680.2211, 9800.263
680.7032, 9780.217
681.1853, 9774.602
681.6674, 9766.713
682.1495, 9729.304
682.6317, 9673.847
683.1138, 9642.283
683.5959, 9643.644
684.0780, 9655.634
684.5601, 9659.671
685.0422, 9656.932
685.5244, 9660.097
686.0065, 9685.229
686.4886, 9695.040
686.9707, 9677.743
687.4528, 9649.836
687.9349, 9621.059
688.4171, 9594.418
688.8992, 9572.820
689.3813, 9556.574
689.8634, 9548.001
690.3455, 9557.621
690.8276, 9582.846
691.3098, 9592.120
691.7919, 9573.146
692.2740, 9548.091
692.7561, 9545.214
693.2382, 9567.413
693.7203, 9562.385
694.2025, 9497.120
694.6846, 9447.151
695.1667, 9449.285
695.6488, 9468.613
696.1309, 9464.105
696.6130, 9430.729
697.0952, 9395.923
697.5773, 9384.376
698.0594, 9387.962
698.5415, 9382.278
699.0236, 9366.610
699.5057, 9360.720
699.9879, 9374.267
700.4700, 9396.647
700.9521, 9414.907
701.4342, 9429.466
701.9163, 9436.404
702.3984, 9429.194
702.8806, 9421.527
703.3627, 9416.238
703.8448, 9415.313
704.3269, 9421.214
704.8090, 9434.429
705.2911, 9452.483
705.7733, 9486.321
706.2554, 9524.627
706.7375, 9503.492
707.2196, 9411.529
707.7017, 9348.680
708.1838, 9369.114
708.6660, 9427.323
709.1481, 9447.082
709.6302, 9419.518
710.1123, 9399.089
710.5944, 9395.021
711.0765, 9393.410
711.5587, 9389.940
712.0408, 9383.140
712.5229, 9368.445
713.0050, 9345.226
713.4871, 9325.864
713.9692, 9330.793
714.4514, 9353.609
714.9335, 9355.804
715.4156, 9332.594
715.8977, 9311.936
716.3798, 9306.192
716.8619, 9310.980
717.3441, 9318.144
717.8262, 9326.406
718.3083, 9341.352
718.7904, 9376.977
719.2725, 9405.801
719.7546, 9409.044
720.2368, 9395.729
720.7189, 9382.111
721.2010, 9374.001
721.6831, 9367.333
722.1652, 9358.159
722.6473, 9346.459
723.1295, 9328.447
723.6116, 9300.854
724.0937, 9289.233
724.5758, 9313.550
725.0579, 9354.097
725.5400, 9368.706
726.0222, 9345.763
726.5043, 9333.276
726.9864, 9336.673
727.4685, 9348.286
727.9506, 9381.834
728.4327, 9415.529
728.9149, 9405.094
729.3970, 9336.040
729.8791, 9264.794
730.3612, 9258.074
730.8433, 9301.050
731.3254, 9341.108
731.8076, 9376.764
732.2897, 9395.965
732.7718, 9389.301
733.2539, 9367.097
733.7360, 9347.602
734.2181, 9325.479
734.7003, 9321.593
735.1824, 9357.126
735.6645, 9388.081
736.1466, 9391.168
736.6287, 9377.316
737.1108, 9363.434
737.5930, 9354.609
738.0751, 9348.540
738.5572, 9340.414
739.0393, 9333.868
739.5214, 9340.074
740.0035, 9359.175
740.4857, 9380.238
740.9678, 9398.455
741.4499, 9415.775
741.9320, 9438.923
742.4141, 9481.405
742.8962, 9482.896
743.3784, 9394.025
743.8605, 9323.584
744.3426, 9317.582
744.8247, 9347.238
745.3068, 9381.053
745.7889, 9411.169
746.2711, 9424.188
746.7532, 9390.283
747.2353, 9343.283
747.7174, 9348.051
748.1995, 9396.559
748.6816, 9426.098
749.1638, 9409.604
749.6459, 9375.755
750.1280, 9368.339
750.6101, 9393.354
751.0922, 9402.945
751.5743, 9379.427
752.0565, 9364.438
752.5386, 9381.707
753.0207, 9405.123
753.5028, 9399.198
753.9849, 9360.937
754.4670, 9340.116
754.9492, 9378.862
755.4313, 9430.831
755.9134, 9451.417
756.3955, 9447.255
756.8776, 9438.554
757.3597, 9431.938
757.8419, 9422.962
758.3240, 9403.479
758.8061, 9374.975
759.2882, 9372.411
759.7703, 9414.993
760.2524, 9436.105
760.7346, 9398.293
761.2167, 9345.101
761.6988, 9319.973
762.1809, 9321.888
762.6630, 9324.154
763.1451, 9313.813
763.6273, 9309.833
764.1094, 9329.181
764.5915, 9358.444
765.0736, 9386.968
765.5557, 9407.697
766.0378, 9399.657
766.5200, 9333.813
767.0021, 9237.673
767.4842, 9199.782
767.9663, 9224.425
768.4484, 9255.186
768.9305, 9281.664
769.4127, 9306.096
769.8948, 9339.493
770.3769, 9377.784
770.8590, 9368.310
771.3411, 9256.264
771.8232, 9171.043
772.3054, 9153.665
772.7875, 9162.256
773.2696, 9166.421
773.7517, 9162.874
774.2338, 9158.854
774.7159, 9158.998
775.1981, 9158.689
775.6802, 9147.505
776.1623, 9130.205
776.6444, 9128.265
777.1265, 9145.499
777.6086, 9161.081
778.0908, 9159.862
778.5729, 9146.563
779.0550, 9138.493
779.5371, 9146.476
780.0192, 9138.446
780.5013, 9089.295
780.9835, 9048.915
781.4656, 9043.601
781.9477, 9062.713
782.4298, 9086.049
782.9119, 9109.313
783.3940, 9133.305
783.8762, 9172.101
784.3583, 9203.395
784.8404, 9187.239
785.3225, 9135.136
785.8046, 9098.336
786.2867, 9101.649
786.7689, 9122.544
787.2510, 9125.391
787.7331, 9108.917
788.2152, 9093.802
788.6973, 9074.523
789.1794, 9072.387
789.6616, 9115.833
790.1437, 9168.210
790.6258, 9167.397
791.1079, 9104.536
791.5900, 9063.144
792.0721, 9074.287
792.5543, 9089.647
793.0364, 9081.290
793.5185, 9063.644
794.0006, 9061.210
794.4827, 9077.140
794.9648, 9090.268
795.4470, 9077.668
795.9291, 9053.636
796.4112, 9051.813
796.8933, 9069.596
797.3754, 9082.287
797.8575, 9083.296
798.3397, 9076.523
798.8218, 9064.424
799.3039, 9047.655
799.7860, 9036.156
800.2681, 9027.423
800.7502, 9028.351
801.2324, 9051.765
801.7145, 9073.810
802.1966, 9077.159
802.6787, 9065.550
803.1608, 9052.096
803.6429, 9035.902
804.1251, 9028.987
804.6072, 9049.029
805.0893, 9077.917
805.5714, 9088.977
806.0535, 9082.598
806.5356, 9076.148
807.0178, 9079.819
807.4999, 9086.481
807.9820, 9083.539
808.4641, 9070.846
808.9462, 9048.958
809.4283, 9012.269
809.9105, 8983.922
810.3926, 8976.537
810.8747, 8984.437
811.3568, 8999.316
811.8389, 9027.694
812.3210, 9040.028
812.8032, 9015.186
813.2853, 8995.621
813.7674, 9010.368
814.2495, 9037.145
814.7316, 9045.369
815.2137, 9029.105
815.6959, 9004.771
816.1780, 8974.304
816.6601, 8949.092
817.1422, 8952.525
817.6243, 8976.209
818.1064, 8988.779
818.5886, 8981.670
819.0707, 8971.791
819.5528, 8977.861
820.0349, 8994.851
820.5170, 8983.724
820.9991, 8925.385
821.4813, 8895.353
821.9634, 8927.800
822.4455, 8967.488
822.9276, 8964.926
823.4097, 8935.476
823.8918, 8929.597
824.3740, 8976.994
824.8561, 9006.603
825.3382, 8972.198
825.8203, 8933.368
826.3024, 8951.997
826.7845, 9007.689
827.2667, 9039.312
827.7488, 9019.999
828.2310, 8981.809
828.7131, 8956.193
829.1952, 8940.641
829.6773, 8925.270
830.1594, 8910.520
830.6415, 8915.550
831.1237, 8952.313
831.6058, 8995.722
832.0879, 9007.267
832.5700, 8983.186
833.0521, 8965.506
833.5342, 8954.531
834.0164, 8949.551
834.4985, 8948.311
834.9806, 8954.717
835.4627, 8982.668
835.9448, 9027.673
836.4269, 9046.143
836.9091, 9003.825
837.3912, 8960.965
837.8733, 8946.265
838.3554, 8945.880
838.8375, 8949.815
839.3196, 8952.582
839.8018, 8942.250
840.2839, 8907.788
840.7660, 8870.970
841.2481, 8870.182
841.7302, 8896.073
842.2123, 8905.733
842.6945, 8894.102
843.1766, 8889.676
843.6587, 8910.426
844.1408, 8943.516
844.6229, 8962.286
845.1050, 8963.200
845.5872, 8963.205
846.0693, 8960.098
846.5514, 8959.289
847.0335, 8964.851
847.5156, 8972.414
847.9977, 8980.438
848.4799, 8988.963
848.9620, 8984.108
849.4441, 8940.054
849.9262, 8906.442
850.4083, 8921.533
850.8904, 8957.063
851.3726, 8976.534
851.8547, 8976.318
852.3368, 8976.450
852.8189, 8993.829
853.3010, 9011.292
853.7831, 8988.775
854.2653, 8941.429
854.7474, 8939.849
855.2295, 8993.982
855.7116, 9041.114
856.1937, 9039.620
856.6758, 9009.749
857.1580, 9002.058
857.6401, 9026.063
858.1222, 9037.891
858.6043, 9029.946
859.0864, 9021.796
859.5685, 9021.196
860.0507, 9025.472
860.5328, 9033.769
861.0149, 9047.292
861.4970, 9051.090
861.9791, 9031.292
862.4612, 9013.933
862.9434, 9010.008
863.4255, 9015.817
863.9076, 9029.801
864.3897, 9049.243
864.8718, 9066.047
865.3539, 9075.816
865.8361, 9079.770
866.3182, 9073.789
866.8003, 9064.192
867.2824, 9066.834
867.7645, 9083.707
868.2466, 9113.491
868.7288, 9158.486
869.2109, 9200.360
869.6930, 9192.680
870.1751, 9127.463
870.6572, 9087.873
871.1393, 9078.586
871.6215, 9089.490
872.1036, 9125.677
872.5857, 9171.180
873.0678, 9201.951
873.5499, 9216.533
874.0320, 9223.715
874.5142, 9220.648
874.9963, 9213.717
875.4784, 9202.813
875.9605, 9190.098
876.4426, 9174.288
876.9247, 9157.796
877.4069, 9150.581
877.8890, 9163.826
878.3711, 9175.296
878.8532, 9159.629
879.3353, 9137.152
879.8174, 9135.702
880.2996, 9155.562
880.7817, 9187.116
881.2638, 9226.288
881.7459, 9260.677
882.2280, 9269.853
882.7101, 9257.859
883.1923, 9243.131
883.6744, 9225.493
884.1565, 9230.087
884.6386, 9270.788
885.1207, 9323.695
885.6028, 9363.959
886.0850, 9391.761
886.5671, 9371.206
887.0492, 9257.354
887.5313, 9178.182
888.0134, 9174.201
888.4955, 9195.144
888.9777, 9212.492
889.4598, 9226.492
889.9419, 9239.921
890.4240, 9258.435
890.9061, 9265.639
891.3882, 9240.094
891.8704, 9217.357
892.3525, 9234.620
892.8346, 9270.716
893.3167, 9281.396
893.7988, 9253.974
894.2809, 9221.274
894.7631, 9212.468
895.2452, 9211.148
895.7273, 9187.183
896.2094, 9151.683
896.6915, 9143.473
897.1736, 9169.299
897.6558, 9192.667
898.1379, 9180.815
898.6200, 9147.271
899.1021, 9132.096
899.5842, 9135.887
900.0663, 9134.381
900.5485, 9122.086
901.0306, 9115.282
901.5127, 9127.004
901.9948, 9146.603
902.4769, 9148.660
902.9590, 9123.745
903.4412, 9112.647
903.9233, 9118.207
904.4054, 9134.169
904.8875, 9183.158
905.3696, 9224.910
905.8517, 9207.942
906.3339, 9135.634
906.8160, 9078.698
907.2981, 9053.400
907.7802, 9047.141
908.2623, 9065.063
908.7444, 9091.801
909.2266, 9117.476
909.7087, 9138.286
910.1908, 9147.576
910.6729, 9140.609
911.1550, 9133.951
911.6371, 9151.572
912.1193, 9174.598
912.6014, 9164.179
913.0835, 9129.607
913.5656, 9114.122
914.0477, 9131.646
914.5298, 9153.615
915.0120, 9148.653
915.4941, 9123.153
915.9762, 9099.693
916.4583, 9078.271
916.9404, 9067.630
917.4225, 9072.478
917.9047, 9073.927
918.3868, 9055.050
918.8689, 9025.337
919.3510, 8945.420
919.8331, 9009.666
920.3152, 9049.140
920.7974, 9065.093
921.2795, 8991.784
921.7616, 9030.118
922.2437, 9021.501
922.7258, 9009.445
923.2079, 9058.979
923.6901, 8990.534
924.1722, 9035.910
924.6543, 9033.644
925.1364, 9050.881
925.6185, 9020.886
926.1006, 9003.416
926.5828, 9030.031
927.0649, 9029.785
927.5470, 8988.223
928.0291, 8997.331
928.5112, 8911.508
928.9933, 8906.028
929.4755, 8950.306
929.9576, 8972.103
930.4397, 8991.251
930.9218, 9003.377
931.4039, 9015.937
931.8860, 9041.525
932.3682, 9068.818
932.8503, 9066.113
933.3324, 9039.800
933.8145, 9026.817
934.2966, 9034.324
934.7787, 9034.448
935.2609, 9003.651
935.7430, 8964.382
936.2251, 8982.880
936.7072, 9071.010
937.1893, 9100.362
937.6714, 9046.883
938.1536, 9002.809
938.6357, 9011.528
939.1178, 9040.129
939.5999, 9044.224
940.0820, 9022.276
940.5641, 9007.179
941.0463, 9003.834
941.5284, 8999.894
942.0105, 8991.887
942.4926, 8984.477
942.9747, 8980.729
943.4568, 8979.879
943.9390, 8981.126
944.4211, 8988.476
944.9032, 8985.768
945.3853, 8946.293
945.8674, 8919.529
946.3495, 8950.388
946.8317, 9004.284
947.3138, 9032.250
947.7959, 9027.379
948.2780, 9016.372
948.7601, 9013.374
949.2422, 9010.442
949.7244, 8993.410
950.2065, 8976.291
950.6886, 8992.714
951.1707, 9030.907
951.6528, 9030.163
952.1349, 8959.144
952.6171, 8888.955
953.0992, 8922.341
953.5813, 9015.493
954.0634, 9062.650
954.5455, 9064.980
955.0276, 9038.310
955.5098, 8988.218
955.9919, 8946.358
956.4740, 8945.187
956.9561, 8969.497
957.4382, 8967.220
957.9203, 8936.917
958.4025, 8916.616
958.8846, 8910.623
959.3667, 8916.701
959.8488, 8939.467
960.3309, 8961.747
960.8130, 8949.237
961.2952, 8894.837
961.7773, 8875.176
962.2594, 8910.890
962.7415, 8939.583
963.2236, 8947.196
963.7057, 8942.532
964.1879, 8925.919
964.6700, 8902.088
965.1521, 8893.105
965.6342, 8906.771
966.1163, 8920.919
966.5984, 8940.679
967.0806, 8953.074
967.5627, 8952.843
968.0448, 8941.254
968.5269, 8911.976
969.0090, 8866.342
969.4911, 8843.232
969.9733, 8868.649
970.4554, 8902.701
970.9375, 8939.135
971.4196, 8965.708
971.9017, 8962.406
972.3839, 8939.857
972.8660, 8928.779
973.3481, 8941.490
973.8302, 8958.108
974.3123, 8971.588
974.7944, 8975.439
975.2766, 8953.070
975.7587, 8918.235
976.2408, 8901.919
976.7229, 8907.635
977.2050, 8909.471
977.6871, 8885.697
978.1693, 8857.312
978.6514, 8858.936
979.1335, 8880.256
979.6156, 8896.547
980.0977, 8904.921
980.5798, 8903.066
981.0620, 8889.998
981.5441, 8875.687
982.0262, 8873.519
982.5083, 8880.094
982.9904, 8878.677
983.4725, 8869.669
983.9547, 8868.786
984.4368, 8879.343
984.9189, 8897.650
985.4010, 8924.019
985.8831, 8949.259
986.3652, 8948.729
986.8474, 8917.208
987.3295, 8900.589
987.8116, 8903.922
988.2937, 8904.471
988.7758, 8892.061
989.2579, 8879.533
989.7401, 8883.407
990.2222, 8900.039
990.7043, 8896.648
991.1864, 8857.569
991.6685, 8832.174
992.1506, 8832.210
992.6328, 8834.314
993.1149, 8826.820
993.5970, 8814.656
994.0791, 8804.023
994.5612, 8794.081
995.0433, 8792.787
995.5255, 8818.868
996.0076, 8828.637
996.4897, 8792.259
996.9718, 8755.063
997.4539, 8754.935
997.9360, 8780.227
998.4182, 8798.745
998.9003, 8807.235
999.3824, 8801.254
999.8645, 8760.214
1000.347, 8726.018
1000.829, 8728.758
1001.311, 8745.897
1001.793, 8752.193
1002.275, 8744.848
1002.757, 8730.518
1003.239, 8704.729
1003.721, 8686.949
1004.204, 8692.396
1004.686, 8707.334
1005.168, 8726.367
1005.650, 8742.150
1006.132, 8740.940
1006.614, 8720.657
1007.096, 8698.414
1007.578, 8687.374
1008.060, 8678.305
1008.543, 8657.259
1009.025, 8634.730
1009.507, 8626.080
1009.989, 8632.304
1010.471, 8652.975
1010.953, 8688.023
1011.435, 8716.150
1011.917, 8712.813
1012.400, 8688.861
1012.882, 8655.889
1013.364, 8619.283
1013.846, 8591.363
1014.328, 8575.222
1014.810, 8573.466
1015.292, 8589.121
1015.774, 8611.994
1016.256, 8631.685
1016.739, 8644.655
1017.221, 8635.259
1017.703, 8605.323
1018.185, 8568.294
1018.667, 8528.594
1019.149, 8502.813
1019.631, 8510.122
1020.113, 8533.945
1020.596, 8521.624
1021.078, 8477.330
1021.560, 8463.280
1022.042, 8486.307
1022.524, 8502.847
1023.006, 8493.273
1023.488, 8470.453
1023.970, 8447.892
1024.452, 8427.913
1024.935, 8432.884
1025.417, 8466.738
1025.899, 8483.588
1026.381, 8474.178
1026.863, 8454.962
1027.345, 8432.045
1027.827, 8413.332
1028.309, 8416.550
1028.792, 8444.083
1029.274, 8451.126
1029.756, 8429.975
1030.238, 8417.281
1030.720, 8426.926
1031.202, 8433.708
1031.684, 8415.157
1032.166, 8381.973
1032.648, 8365.236
1033.130, 8369.064
1033.613, 8374.351
1034.095, 8378.960
1034.577, 8390.873
1035.059, 8423.352
1035.541, 8449.646
1036.023, 8441.231
1036.505, 8403.752
1036.987, 8368.897
1037.470, 8330.425
1037.952, 8307.617
1038.434, 8317.497
1038.916, 8319.098
1039.398, 8279.586
1039.880, 8236.627
1040.362, 8239.885
1040.844, 8287.919
1041.327, 8322.609
1041.809, 8356.580
1042.291, 8358.144
1042.773, 8284.532
1043.255, 8223.646
1043.737, 8232.922
1044.219, 8273.292
1044.701, 8283.518
1045.183, 8258.651
1045.666, 8253.849
1046.148, 8297.425
1046.630, 8327.495
1047.112, 8328.424
1047.594, 8316.491
1048.076, 8293.382
1048.558, 8267.754
1049.040, 8256.323
1049.522, 8263.070
1050.005, 8266.260
1050.487, 8258.366
1050.969, 8251.523
1051.451, 8250.822
1051.933, 8251.468
1052.415, 8254.527
1052.897, 8254.912
1053.379, 8238.247
1053.862, 8196.153
1054.344, 8164.257
1054.826, 8160.401
1055.308, 8157.062
1055.790, 8140.512
1056.272, 8120.320
1056.754, 8101.036
1057.236, 8086.796
1057.719, 8089.547
1058.201, 8118.782
1058.683, 8143.737
1059.165, 8154.492
1059.647, 8158.902
1060.129, 8163.125
1060.611, 8162.180
1061.093, 8146.332
1061.575, 8118.866
1062.057, 8096.195
1062.540, 8080.824
1063.022, 8076.416
1063.504, 8101.382
1063.986, 8119.531
1064.468, 8095.724
1064.950, 8057.548
1065.432, 8042.881
1065.914, 8053.509
1066.397, 8066.126
1066.879, 8078.172
1067.361, 8080.369
1067.843, 8062.833
1068.325, 8039.904
1068.807, 8012.421
1069.289, 7991.380
1069.771, 7999.509
1070.254, 8034.737
1070.736, 8053.462
1071.218, 8024.332
1071.700, 7997.731
1072.182, 7999.500
1072.664, 8011.032
1073.146, 8024.179
1073.628, 8033.389
1074.110, 8031.425
1074.593, 8017.391
1075.075, 7997.560
1075.557, 7962.308
1076.039, 7938.157
1076.521, 7954.681
1077.003, 7972.510
1077.485, 7940.037
1077.967, 7890.533
1078.450, 7899.337
1078.932, 7977.834
1079.414, 8030.461
1079.896, 7993.675
1080.378, 7948.258
1080.860, 7933.884
1081.342, 7928.817
1081.824, 7912.910
1082.307, 7891.289
1082.789, 7873.181
1083.271, 7860.927
1083.753, 7869.905
1084.235, 7931.498
1084.717, 7984.716
1085.199, 7998.592
1085.681, 7990.681
1086.163, 7973.757
1086.646, 7948.832
1087.128, 7907.580
1087.610, 7847.659
1088.092, 7810.224
1088.574, 7828.321
1089.056, 7852.647
1089.538, 7862.677
1090.020, 7865.508
1090.502, 7869.702
1090.985, 7871.599
1091.467, 7857.455
1091.949, 7822.910
1092.431, 7803.922
1092.913, 7831.502
1093.395, 7854.814
1093.877, 7844.327
1094.359, 7825.374
1094.842, 7815.243
1095.324, 7815.985
1095.806, 7833.839
1096.288, 7873.305
1096.770, 7888.585
1097.252, 7839.020
1097.734, 7796.456
1098.216, 7798.438
1098.698, 7811.661
1099.181, 7810.680
1099.663, 7798.005
1100.145, 7778.914
1100.627, 7751.169
1101.109, 7746.266
1101.591, 7800.180
1102.073, 7840.471
1102.555, 7831.651
1103.037, 7809.860
1103.520, 7801.024
1104.002, 7801.455
1104.484, 7799.185
1104.966, 7791.870
1105.448, 7788.364
1105.930, 7779.030
1106.412, 7788.930
1106.894, 7871.098
1107.377, 7930.126
1107.859, 7862.137
1108.341, 7733.279
1108.823, 7688.510
1109.305, 7753.677
1109.787, 7795.873
1110.269, 7787.260
1110.751, 7777.616
1111.234, 7779.280
1111.716, 7780.379
1112.198, 7770.224
1112.680, 7755.310
1113.162, 7748.328
1113.644, 7750.285
1114.126, 7754.725
1114.608, 7762.235
1115.090, 7771.385
1115.573, 7785.139
1116.055, 7796.842
1116.537, 7808.821
1117.019, 7812.340
1117.501, 7787.080
1117.983, 7728.477
1118.465, 7693.512
1118.947, 7688.157
1119.429, 7694.786
1119.912, 7722.479
1120.394, 7740.937
1120.876, 7727.808
1121.358, 7702.482
1121.840, 7696.910
1122.322, 7711.205
1122.804, 7716.706
1123.286, 7707.841
1123.769, 7710.037
1124.251, 7732.223
1124.733, 7749.796
1125.215, 7750.449
1125.697, 7739.206
1126.179, 7718.343
1126.661, 7691.508
1127.143, 7704.437
1127.625, 7767.966
1128.108, 7796.069
1128.590, 7776.378
1129.072, 7735.934
1129.554, 7681.213
1130.036, 7637.493
1130.518, 7639.497
1131.000, 7675.176
1131.482, 7687.966
1131.964, 7678.166
1132.447, 7672.948
1132.929, 7674.666
1133.411, 7696.556
1133.893, 7745.962
1134.375, 7777.384
1134.857, 7737.008
1135.339, 7660.336
1135.821, 7641.199
1136.304, 7670.520
1136.786, 7704.596
1137.268, 7737.951
1137.750, 7754.841
1138.232, 7751.251
1138.714, 7748.778
1139.196, 7769.131
1139.678, 7788.963
1140.161, 7753.184
1140.643, 7691.158
1141.125, 7683.335
1141.607, 7718.172
1142.089, 7743.997
1142.571, 7747.665
1143.053, 7739.381
1143.535, 7723.435
1144.017, 7708.960
1144.500, 7708.120
1144.982, 7714.151
1145.464, 7721.998
1145.946, 7727.071
1146.428, 7714.714
1146.910, 7689.365
1147.392, 7682.221
1147.874, 7712.241
1148.356, 7738.729
1148.839, 7724.169
1149.321, 7698.280
1149.803, 7682.247
1150.285, 7675.683
1150.767, 7679.501
1151.249, 7690.625
1151.731, 7699.979
1152.213, 7703.447
1152.696, 7714.890
1153.178, 7767.218
1153.660, 7796.546
1154.142, 7740.293
1154.624, 7670.186
1155.106, 7655.848
1155.588, 7680.479
1156.070, 7696.239
1156.552, 7694.850
1157.035, 7692.732
1157.517, 7702.366
1157.999, 7698.987
1158.481, 7651.917
1158.963, 7615.569
1159.445, 7636.070
1159.927, 7683.756
1160.409, 7709.340
1160.891, 7711.112
1161.374, 7713.346
1161.856, 7714.592
1162.338, 7719.475
1162.820, 7735.963
1163.302, 7742.259
1163.784, 7721.655
1164.266, 7696.852
1164.748, 7698.274
1165.231, 7718.811
1165.713, 7708.389
1166.195, 7652.149
1166.677, 7638.480
1167.159, 7683.104
1167.641, 7713.936
1168.123, 7703.465
1168.605, 7689.384
1169.088, 7707.585
1169.570, 7741.050
1170.052, 7742.652
1170.534, 7715.009
1171.016, 7699.316
1171.498, 7695.611
1171.980, 7681.590
1172.462, 7653.027
1172.944, 7638.503
1173.427, 7658.209
1173.909, 7685.371
1174.391, 7669.792
1174.873, 7635.869
1175.355, 7657.278
1175.837, 7711.846
1176.319, 7728.984
1176.801, 7707.082
1177.283, 7691.453
1177.766, 7701.463
1178.248, 7716.840
1178.730, 7721.042
1179.212, 7719.579
1179.694, 7717.286
1180.176, 7714.045
1180.658, 7705.956
1181.140, 7697.928
1181.623, 7703.096
1182.105, 7723.085
1182.587, 7740.290
1183.069, 7746.416
1183.551, 7747.283
1184.033, 7748.810
1184.515, 7743.098
1184.997, 7698.631
1185.479, 7659.564
1185.962, 7708.403
1186.444, 7828.578
1186.926, 7882.686
1187.408, 7807.994
1187.890, 7752.871
1188.372, 7751.930
1188.854, 7753.504
1189.336, 7736.050
1189.818, 7718.355
1190.301, 7715.541
1190.783, 7723.381
1191.265, 7730.885
1191.747, 7737.540
1192.229, 7749.364
1192.711, 7775.485
1193.193, 7772.981
1193.675, 7718.950
1194.158, 7689.757
1194.640, 7738.258
1195.122, 7808.227
1195.604, 7813.964
1196.086, 7769.118
1196.568, 7754.343
1197.050, 7768.163
1197.532, 7780.020
1198.015, 7786.628
1198.497, 7788.608
1198.979, 7786.216
1199.461, 7778.106
1199.943, 7759.701
1200.425, 7744.562
1200.907, 7764.452
1201.389, 7800.650
1201.871, 7813.661
1202.354, 7807.664
1202.836, 7794.711
1203.318, 7781.053
1203.800, 7780.794
1204.282, 7803.618
##END=



