##NAMES=Serendibite
##RRUFFID=R070622
##IDEAL CHEMISTRY=Ca_4_(Mg_6_Al_6_)O_4_[Si_6_B_3_Al_3_O_36_]
##LOCALITY=Sri Lanka
##OWNER=RRUFF
##SOURCE=Shinichi Kihara
##DESCRIPTION=Deep blue-green vitreous crystals with conchoidal fracture.
##STATUS=The identification of this mineral has been confirmed by single-crystal X-ray diffraction.
##URL=rruff.info/R070622
131.7175, 11840.81
132.1996, 12017.58
132.6818, 12261.12
133.1639, 12563.73
133.6460, 12807.04
134.1281, 12992.19
134.6102, 13116.58
135.0923, 13161.92
135.5745, 13112.95
136.0566, 13053.41
136.5387, 13022.08
137.0208, 13022.98
137.5029, 13031.33
137.9850, 13046.55
138.4672, 13068.18
138.9493, 13097.32
139.4314, 13141.99
139.9135, 13180.96
140.3956, 13193.73
140.8777, 13157.42
141.3599, 13147.23
141.8420, 13176.08
142.3241, 13245.36
142.8062, 13319.13
143.2883, 13331.03
143.7704, 13316.01
144.2526, 13317.53
144.7347, 13337.08
145.2168, 13369.84
145.6989, 13418.76
146.1810, 13497.71
146.6631, 13555.49
147.1453, 13581.75
147.6274, 13589.37
148.1095, 13602.29
148.5916, 13623.82
149.0737, 13648.25
149.5558, 13674.17
150.0379, 13715.66
150.5201, 13741.15
151.0022, 13733.11
151.4843, 13702.70
151.9664, 13697.00
152.4485, 13747.49
152.9306, 13807.59
153.4128, 13849.33
153.8949, 13860.31
154.3770, 13861.93
154.8591, 13861.03
155.3412, 13857.71
155.8233, 13838.96
156.3055, 13790.29
156.7876, 13728.76
157.2697, 13671.96
157.7518, 13618.45
158.2339, 13575.03
158.7160, 13547.12
159.1982, 13538.68
159.6803, 13529.27
160.1624, 13527.10
160.6445, 13517.60
161.1266, 13475.89
161.6087, 13340.27
162.0909, 13201.90
162.5730, 13126.22
163.0551, 13156.45
163.5372, 13188.89
164.0193, 13166.90
164.5014, 13102.68
164.9836, 13034.52
165.4657, 12975.62
165.9478, 12925.51
166.4299, 12882.75
166.9120, 12834.07
167.3941, 12805.43
167.8763, 12834.07
168.3584, 12914.04
168.8405, 12978.67
169.3226, 12966.16
169.8047, 12913.07
170.2868, 12873.92
170.7690, 12880.87
171.2511, 12905.63
171.7332, 12927.12
172.2153, 12946.02
172.6974, 12944.00
173.1795, 12873.49
173.6617, 12765.38
174.1438, 12695.60
174.6259, 12734.40
175.1080, 12825.71
175.5901, 12885.21
176.0722, 12903.73
176.5544, 12898.48
177.0365, 12881.33
177.5186, 12854.51
178.0007, 12829.01
178.4828, 12808.17
178.9649, 12793.87
179.4471, 12792.98
179.9292, 12814.41
180.4113, 12838.85
180.8934, 12828.96
181.3755, 12787.24
181.8576, 12749.66
182.3397, 12764.50
182.8219, 12813.42
183.3040, 12819.38
183.7861, 12734.75
184.2682, 12610.81
184.7503, 12576.43
185.2324, 12638.16
185.7146, 12716.20
186.1967, 12724.82
186.6788, 12671.91
187.1609, 12627.06
187.6430, 12618.68
188.1251, 12637.97
188.6073, 12651.66
189.0894, 12660.75
189.5715, 12658.96
190.0536, 12626.11
190.5357, 12562.28
191.0178, 12516.79
191.5000, 12525.00
191.9821, 12581.37
192.4642, 12609.87
192.9463, 12603.92
193.4284, 12580.33
193.9105, 12567.09
194.3927, 12564.95
194.8748, 12569.44
195.3569, 12572.96
195.8390, 12575.15
196.3211, 12610.96
196.8032, 12701.46
197.2854, 12811.83
197.7675, 12842.54
198.2496, 12781.63
198.7317, 12692.54
199.2138, 12609.11
199.6959, 12527.16
200.1780, 12477.07
200.6602, 12468.07
201.1423, 12493.16
201.6244, 12523.64
202.1065, 12564.57
202.5886, 12597.59
203.0707, 12600.44
203.5529, 12564.79
204.0350, 12540.37
204.5171, 12542.27
204.9992, 12568.58
205.4813, 12584.12
205.9634, 12589.21
206.4456, 12583.86
206.9277, 12563.56
207.4098, 12521.07
207.8919, 12488.49
208.3740, 12480.38
208.8561, 12500.05
209.3383, 12497.95
209.8204, 12463.58
210.3025, 12419.25
210.7846, 12401.72
211.2667, 12422.03
211.7488, 12441.28
212.2310, 12439.29
212.7131, 12403.78
213.1952, 12405.73
213.6773, 12460.65
214.1594, 12543.15
214.6415, 12601.13
215.1236, 12634.58
215.6058, 12643.14
216.0879, 12615.87
216.5700, 12526.28
217.0521, 12485.62
217.5342, 12516.09
218.0163, 12593.20
218.4985, 12635.70
218.9806, 12623.29
219.4627, 12608.68
219.9448, 12627.15
220.4269, 12702.56
220.9090, 12746.78
221.3912, 12735.48
221.8733, 12683.53
222.3554, 12682.85
222.8375, 12771.24
223.3196, 12859.73
223.8017, 12880.15
224.2839, 12787.05
224.7660, 12723.83
225.2481, 12718.78
225.7302, 12766.60
226.2123, 12790.53
226.6944, 12777.17
227.1766, 12754.71
227.6587, 12749.09
228.1408, 12773.00
228.6229, 12789.58
229.1050, 12794.32
229.5871, 12787.60
230.0693, 12763.89
230.5514, 12712.04
231.0335, 12653.98
231.5156, 12613.72
231.9977, 12599.31
232.4798, 12588.16
232.9619, 12576.20
233.4441, 12563.64
233.9262, 12547.21
234.4083, 12517.66
234.8904, 12490.97
235.3725, 12491.13
235.8546, 12537.13
236.3368, 12577.94
236.8189, 12598.44
237.3010, 12595.39
237.7831, 12584.44
238.2652, 12557.00
238.7473, 12526.47
239.2295, 12518.12
239.7116, 12552.23
240.1937, 12576.18
240.6758, 12566.02
241.1579, 12500.35
241.6400, 12469.17
242.1222, 12487.69
242.6043, 12534.58
243.0864, 12567.37
243.5685, 12592.76
244.0506, 12593.83
244.5327, 12554.67
245.0149, 12435.82
245.4970, 12375.26
245.9791, 12403.32
246.4612, 12482.20
246.9433, 12506.42
247.4254, 12445.67
247.9075, 12374.78
248.3897, 12326.62
248.8718, 12305.64
249.3539, 12298.97
249.8360, 12312.91
250.3181, 12340.48
250.8002, 12354.84
251.2824, 12346.80
251.7645, 12339.79
252.2466, 12351.02
252.7287, 12398.91
253.2108, 12419.40
253.6929, 12401.80
254.1751, 12353.91
254.6572, 12306.35
255.1393, 12252.88
255.6214, 12209.40
256.1035, 12189.72
256.5856, 12209.53
257.0677, 12209.56
257.5499, 12167.47
258.0320, 12097.63
258.5141, 12095.27
258.9962, 12196.28
259.4783, 12306.38
259.9604, 12350.98
260.4426, 12297.73
260.9247, 12273.77
261.4068, 12308.75
261.8889, 12391.15
262.3710, 12428.67
262.8531, 12404.03
263.3353, 12365.09
263.8174, 12347.84
264.2995, 12353.43
264.7816, 12379.12
265.2637, 12431.64
265.7458, 12506.15
266.2280, 12563.30
266.7101, 12599.34
267.1922, 12624.84
267.6743, 12646.81
268.1564, 12663.52
268.6385, 12685.40
269.1207, 12718.54
269.6028, 12760.22
270.0849, 12782.05
270.5670, 12776.32
271.0491, 12767.45
271.5313, 12776.22
272.0134, 12802.22
272.4955, 12852.65
272.9776, 12951.30
273.4597, 13083.64
273.9418, 13112.56
274.4240, 13007.37
274.9061, 12878.50
275.3882, 12852.87
275.8703, 12944.17
276.3524, 13018.76
276.8345, 13036.59
277.3167, 13006.25
277.7988, 12990.25
278.2809, 12991.74
278.7630, 12997.90
279.2451, 12993.45
279.7272, 12977.77
280.2094, 12966.31
280.6915, 12969.00
281.1736, 12981.09
281.6557, 12961.10
282.1378, 12898.29
282.6199, 12848.84
283.1021, 12898.89
283.5842, 13045.52
284.0663, 13158.40
284.5484, 13183.96
285.0305, 13141.06
285.5126, 13110.39
285.9948, 13090.69
286.4769, 13086.87
286.9590, 13118.59
287.4411, 13180.34
287.9232, 13219.51
288.4053, 13198.31
288.8874, 13142.26
289.3695, 13139.83
289.8517, 13195.25
290.3338, 13265.97
290.8159, 13304.17
291.2980, 13316.19
291.7801, 13335.23
292.2622, 13371.19
292.7444, 13423.26
293.2265, 13499.78
293.7086, 13602.55
294.1907, 13700.10
294.6728, 13760.51
295.1549, 13789.26
295.6371, 13801.30
296.1192, 13787.17
296.6013, 13765.44
297.0834, 13776.03
297.5655, 13820.12
298.0476, 13863.80
298.5298, 13863.22
299.0119, 13837.58
299.4940, 13832.87
299.9761, 13892.34
300.4582, 13970.56
300.9403, 14007.90
301.4225, 14003.27
301.9046, 13983.14
302.3867, 13969.41
302.8688, 13954.92
303.3509, 13927.22
303.8330, 13851.55
304.3152, 13777.99
304.7973, 13770.28
305.2794, 13827.61
305.7615, 13878.45
306.2436, 13859.36
306.7257, 13805.62
307.2079, 13766.65
307.6900, 13787.57
308.1721, 13811.11
308.6542, 13790.05
309.1363, 13726.09
309.6184, 13661.01
310.1006, 13616.51
310.5827, 13585.50
311.0648, 13560.02
311.5469, 13540.53
312.0290, 13522.65
312.5111, 13500.92
312.9933, 13475.81
313.4754, 13459.53
313.9575, 13474.57
314.4396, 13492.98
314.9217, 13488.68
315.4038, 13428.22
315.8860, 13367.89
316.3681, 13322.90
316.8502, 13293.97
317.3323, 13285.46
317.8144, 13324.99
318.2965, 13372.03
318.7787, 13394.89
319.2608, 13368.24
319.7429, 13335.76
320.2250, 13298.98
320.7071, 13260.36
321.1892, 13241.95
321.6713, 13279.47
322.1534, 13319.55
322.6356, 13328.08
323.1177, 13255.27
323.5998, 13201.78
324.0819, 13191.10
324.5640, 13217.06
325.0461, 13229.51
325.5283, 13206.25
326.0104, 13183.02
326.4925, 13179.19
326.9746, 13221.81
327.4567, 13248.41
327.9388, 13256.09
328.4210, 13245.75
328.9031, 13220.39
329.3852, 13164.29
329.8673, 13109.32
330.3494, 13071.60
330.8315, 13059.23
331.3137, 13047.24
331.7958, 13030.55
332.2779, 13013.88
332.7600, 13015.78
333.2421, 13045.71
333.7242, 13077.83
334.2064, 13099.43
334.6885, 13108.08
335.1706, 13114.29
335.6527, 13117.73
336.1348, 13119.75
336.6169, 13125.93
337.0991, 13140.13
337.5812, 13146.40
338.0633, 13129.03
338.5454, 13084.10
339.0275, 13065.23
339.5096, 13076.91
339.9918, 13111.50
340.4739, 13163.19
340.9560, 13234.89
341.4381, 13294.41
341.9202, 13315.97
342.4023, 13305.46
342.8845, 13313.90
343.3666, 13345.05
343.8487, 13387.35
344.3308, 13428.58
344.8129, 13468.12
345.2950, 13503.13
345.7772, 13524.79
346.2593, 13540.90
346.7414, 13575.93
347.2235, 13632.53
347.7056, 13695.38
348.1877, 13758.79
348.6699, 13817.72
349.1520, 13853.65
349.6341, 13837.88
350.1162, 13803.27
350.5983, 13799.43
351.0804, 13827.77
351.5626, 13859.70
352.0447, 13869.56
352.5268, 13866.79
353.0089, 13867.61
353.4910, 13875.98
353.9731, 13891.76
354.4552, 13917.86
354.9373, 13953.31
355.4195, 13987.74
355.9016, 14012.32
356.3837, 14033.10
356.8658, 14056.97
357.3479, 14099.57
357.8300, 14132.40
358.3122, 14134.46
358.7943, 14111.28
359.2764, 14093.10
359.7585, 14100.92
360.2406, 14113.89
360.7227, 14116.99
361.2049, 14102.93
361.6870, 14084.04
362.1691, 14050.00
362.6512, 14010.27
363.1333, 13998.84
363.6154, 14065.53
364.0976, 14130.30
364.5797, 14151.80
365.0618, 14082.53
365.5439, 14035.53
366.0260, 14021.51
366.5081, 14033.80
366.9903, 14056.94
367.4724, 14108.14
367.9545, 14152.49
368.4366, 14176.81
368.9187, 14171.16
369.4008, 14172.92
369.8830, 14195.71
370.3651, 14218.51
370.8472, 14201.56
371.3293, 14117.68
371.8114, 14046.69
372.2935, 14015.52
372.7757, 14028.58
373.2578, 14043.62
373.7399, 14062.38
374.2220, 14080.47
374.7041, 14091.11
375.1862, 14093.00
375.6684, 14095.78
376.1505, 14105.17
376.6326, 14118.51
377.1147, 14111.60
377.5968, 14078.65
378.0789, 14052.04
378.5611, 14072.72
379.0432, 14135.53
379.5253, 14185.65
380.0074, 14204.40
380.4895, 14205.55
380.9716, 14220.19
381.4538, 14247.98
381.9359, 14276.48
382.4180, 14294.51
382.9001, 14306.01
383.3822, 14321.04
383.8643, 14344.58
384.3465, 14367.14
384.8286, 14367.97
385.3107, 14354.38
385.7928, 14355.25
386.2749, 14409.69
386.7570, 14478.37
387.2391, 14515.72
387.7213, 14507.09
388.2034, 14488.64
388.6855, 14469.24
389.1676, 14458.26
389.6497, 14475.54
390.1318, 14572.06
390.6140, 14667.81
391.0961, 14706.49
391.5782, 14671.62
392.0603, 14645.58
392.5424, 14671.85
393.0245, 14719.63
393.5067, 14750.73
393.9888, 14731.20
394.4709, 14718.56
394.9530, 14736.71
395.4351, 14789.56
395.9172, 14824.75
396.3994, 14810.32
396.8815, 14791.62
397.3636, 14806.53
397.8457, 14910.53
398.3278, 14973.64
398.8099, 14957.14
399.2921, 14877.03
399.7742, 14859.20
400.2563, 14939.20
400.7384, 15033.49
401.2205, 15091.81
401.7026, 15100.36
402.1848, 15116.87
402.6669, 15154.65
403.1490, 15196.42
403.6311, 15187.32
404.1132, 15111.00
404.5953, 15048.71
405.0775, 15053.71
405.5596, 15124.92
406.0417, 15159.64
406.5238, 15146.96
407.0059, 15119.58
407.4880, 15130.67
407.9702, 15176.08
408.4523, 15208.03
408.9344, 15194.56
409.4165, 15154.03
409.8986, 15136.29
410.3807, 15142.30
410.8629, 15151.44
411.3450, 15145.79
411.8271, 15129.13
412.3092, 15108.49
412.7913, 15075.39
413.2734, 15049.60
413.7556, 15053.30
414.2377, 15083.71
414.7198, 15122.58
415.2019, 15158.45
415.6840, 15197.22
416.1661, 15247.33
416.6483, 15325.42
417.1304, 15389.29
417.6125, 15412.76
418.0946, 15405.27
418.5767, 15389.20
419.0588, 15347.64
419.5410, 15317.88
420.0230, 15324.00
420.5052, 15387.62
420.9873, 15432.49
421.4694, 15443.21
421.9515, 15429.86
422.4336, 15406.48
422.9157, 15344.65
423.3979, 15305.92
423.8800, 15312.14
424.3621, 15369.88
424.8442, 15406.08
425.3263, 15422.22
425.8084, 15415.98
426.2906, 15373.80
426.7727, 15266.78
427.2548, 15214.72
427.7369, 15257.54
428.2190, 15365.33
428.7011, 15400.54
429.1833, 15347.68
429.6654, 15282.73
430.1475, 15259.28
430.6296, 15274.31
431.1117, 15271.46
431.5938, 15239.39
432.0760, 15199.37
432.5581, 15193.93
433.0402, 15217.92
433.5223, 15230.52
434.0044, 15201.73
434.4865, 15149.74
434.9687, 15105.99
435.4508, 15071.62
435.9329, 15049.65
436.4150, 15059.16
436.8971, 15081.55
437.3792, 15083.50
437.8614, 15018.48
438.3435, 14955.56
438.8256, 14954.42
439.3077, 15007.62
439.7898, 15055.56
440.2719, 15066.29
440.7541, 15061.25
441.2362, 15057.48
441.7183, 15062.33
442.2004, 15063.36
442.6825, 15049.97
443.1646, 15029.60
443.6468, 15022.27
444.1289, 15035.18
444.6110, 15057.82
445.0931, 15086.42
445.5752, 15119.74
446.0573, 15161.60
446.5395, 15222.22
447.0216, 15284.74
447.5037, 15326.82
447.9858, 15336.34
448.4679, 15351.76
448.9500, 15389.23
449.4322, 15444.60
449.9143, 15460.69
450.3964, 15425.02
450.8785, 15386.32
451.3606, 15386.85
451.8427, 15426.72
452.3249, 15477.24
452.8070, 15540.56
453.2891, 15604.27
453.7712, 15642.77
454.2533, 15657.74
454.7354, 15663.67
455.2175, 15667.10
455.6996, 15668.30
456.1818, 15662.90
456.6639, 15647.76
457.1460, 15645.00
457.6281, 15688.53
458.1102, 15757.63
458.5923, 15815.24
459.0745, 15835.69
459.5566, 15846.55
460.0387, 15866.29
460.5208, 15894.58
461.0029, 15921.43
461.4850, 15938.37
461.9672, 15954.17
462.4493, 15975.66
462.9314, 16014.28
463.4135, 16044.98
463.8956, 16059.32
464.3777, 16061.39
464.8599, 16064.58
465.3420, 16078.87
465.8241, 16084.46
466.3062, 16070.24
466.7883, 16024.31
467.2704, 16003.45
467.7526, 16028.13
468.2347, 16058.86
468.7168, 16039.23
469.1989, 15952.31
469.6810, 15879.75
470.1631, 15847.16
470.6453, 15845.06
471.1274, 15826.08
471.6095, 15790.32
472.0916, 15741.34
472.5737, 15667.07
473.0558, 15577.53
473.5380, 15526.47
474.0201, 15530.35
474.5022, 15554.28
474.9843, 15560.86
475.4664, 15548.58
475.9485, 15512.10
476.4307, 15412.36
476.9128, 15305.12
477.3949, 15265.51
477.8770, 15300.69
478.3591, 15328.74
478.8412, 15284.85
479.3234, 15210.13
479.8055, 15151.78
480.2876, 15131.72
480.7697, 15123.75
481.2518, 15128.83
481.7339, 15142.24
482.2161, 15139.56
482.6982, 15099.62
483.1803, 15055.30
483.6624, 15022.99
484.1445, 15007.60
484.6266, 14993.19
485.1088, 14969.63
485.5909, 14952.24
486.0730, 14971.82
486.5551, 15056.16
487.0372, 15109.68
487.5193, 15090.55
488.0014, 15006.54
488.4836, 14983.60
488.9657, 15033.72
489.4478, 15097.27
489.9299, 15120.05
490.4120, 15106.63
490.8941, 15103.66
491.3763, 15124.32
491.8584, 15148.95
492.3405, 15145.17
492.8226, 15117.13
493.3047, 15083.45
493.7868, 15038.28
494.2690, 15001.68
494.7511, 15006.41
495.2332, 15057.84
495.7153, 15111.33
496.1974, 15143.30
496.6795, 15158.63
497.1617, 15164.17
497.6438, 15142.33
498.1259, 15130.58
498.6080, 15153.02
499.0901, 15201.32
499.5722, 15230.22
500.0544, 15196.40
500.5365, 15168.96
501.0186, 15183.74
501.5007, 15270.81
501.9828, 15333.42
502.4649, 15362.14
502.9471, 15372.41
503.4292, 15387.62
503.9113, 15412.36
504.3934, 15429.24
504.8755, 15431.33
505.3576, 15421.70
505.8398, 15416.54
506.3219, 15415.42
506.8040, 15423.38
507.2861, 15449.80
507.7682, 15490.78
508.2503, 15524.56
508.7325, 15544.63
509.2146, 15564.63
509.6967, 15610.18
510.1788, 15671.63
510.6609, 15718.78
511.1430, 15719.05
511.6252, 15708.12
512.1072, 15720.04
512.5894, 15756.02
513.0715, 15796.20
513.5536, 15828.43
514.0357, 15860.64
514.5178, 15900.34
514.9999, 15977.66
515.4821, 16029.25
515.9642, 16016.81
516.4463, 15966.14
516.9284, 15959.40
517.4105, 16046.14
517.8926, 16124.72
518.3748, 16160.11
518.8569, 16143.97
519.3390, 16134.13
519.8211, 16129.60
520.3032, 16132.99
520.7853, 16151.10
521.2675, 16186.73
521.7496, 16211.79
522.2317, 16217.16
522.7138, 16211.97
523.1959, 16222.42
523.6780, 16247.30
524.1602, 16265.71
524.6423, 16260.47
525.1244, 16240.47
525.6065, 16224.36
526.0886, 16214.90
526.5707, 16197.92
527.0529, 16156.73
527.5350, 16101.47
528.0171, 16047.32
528.4992, 15979.75
528.9813, 15933.33
529.4634, 15949.95
529.9456, 16011.22
530.4277, 16027.66
530.9098, 15916.66
531.3919, 15800.55
531.8740, 15743.67
532.3561, 15782.69
532.8383, 15803.08
533.3204, 15805.37
533.8025, 15788.54
534.2846, 15744.25
534.7667, 15651.35
535.2488, 15590.48
535.7310, 15588.01
536.2131, 15629.23
536.6952, 15646.95
537.1773, 15638.91
537.6594, 15627.67
538.1415, 15631.43
538.6237, 15645.45
539.1058, 15652.53
539.5879, 15651.76
540.0700, 15641.21
540.5521, 15610.91
541.0342, 15569.45
541.5164, 15534.79
541.9985, 15508.65
542.4806, 15496.30
542.9627, 15519.53
543.4448, 15568.90
543.9269, 15586.32
544.4091, 15508.80
544.8912, 15421.78
545.3733, 15375.68
545.8554, 15392.72
546.3375, 15417.99
546.8196, 15446.60
547.3018, 15481.28
547.7839, 15528.06
548.2660, 15603.96
548.7481, 15657.52
549.2302, 15671.89
549.7123, 15654.19
550.1945, 15645.91
550.6766, 15647.15
551.1587, 15656.72
551.6408, 15681.30
552.1229, 15716.29
552.6050, 15732.54
553.0872, 15725.79
553.5693, 15710.13
554.0514, 15690.21
554.5335, 15673.89
555.0156, 15681.14
555.4977, 15734.87
555.9799, 15802.12
556.4620, 15865.62
556.9441, 15922.92
557.4262, 15961.71
557.9083, 15961.20
558.3904, 15951.04
558.8726, 15947.63
559.3547, 15952.42
559.8368, 15965.31
560.3189, 15998.98
560.8010, 16034.54
561.2831, 16050.41
561.7653, 16034.47
562.2474, 16020.10
562.7295, 16009.65
563.2116, 16005.12
563.6937, 16019.96
564.1758, 16059.61
564.6580, 16093.78
565.1401, 16102.35
565.6222, 16089.25
566.1043, 16079.61
566.5864, 16075.69
567.0685, 16067.92
567.5507, 16038.87
568.0327, 15998.97
568.5148, 15969.74
568.9969, 15958.83
569.4791, 15960.28
569.9612, 15985.21
570.4433, 16021.58
570.9254, 16031.39
571.4075, 15951.76
571.8896, 15879.90
572.3718, 15879.75
572.8539, 15981.22
573.3360, 16031.30
573.8181, 15967.65
574.3002, 15881.00
574.7823, 15849.38
575.2645, 15909.35
575.7466, 15935.31
576.2287, 15902.76
576.7108, 15837.92
577.1929, 15805.74
577.6750, 15810.27
578.1572, 15811.99
578.6393, 15787.54
579.1214, 15746.09
579.6035, 15722.03
580.0856, 15715.35
580.5677, 15715.43
581.0499, 15719.07
581.5320, 15722.29
582.0141, 15717.10
582.4962, 15696.09
582.9783, 15680.38
583.4604, 15693.97
583.9426, 15719.96
584.4247, 15728.77
584.9068, 15692.51
585.3889, 15656.81
585.8710, 15633.72
586.3531, 15623.68
586.8353, 15625.19
587.3174, 15659.16
587.7995, 15678.18
588.2816, 15647.88
588.7637, 15549.10
589.2458, 15482.68
589.7280, 15452.14
590.2101, 15449.54
590.6922, 15479.35
591.1743, 15536.73
591.6564, 15566.36
592.1385, 15537.55
592.6207, 15487.15
593.1028, 15480.45
593.5849, 15509.03
594.0670, 15530.68
594.5491, 15519.06
595.0313, 15490.63
595.5134, 15452.88
595.9955, 15404.36
596.4776, 15372.16
596.9597, 15385.31
597.4418, 15410.24
597.9240, 15416.35
598.4061, 15369.23
598.8882, 15342.59
599.3703, 15356.63
599.8524, 15388.84
600.3345, 15381.97
600.8167, 15319.94
601.2988, 15262.06
601.7809, 15223.19
602.2630, 15205.03
602.7451, 15233.36
603.2272, 15312.34
603.7094, 15381.84
604.1915, 15382.86
604.6736, 15337.92
605.1557, 15299.61
605.6378, 15276.86
606.1199, 15259.29
606.6021, 15234.63
607.0842, 15210.24
607.5663, 15198.38
608.0484, 15204.75
608.5305, 15223.24
609.0126, 15257.67
609.4948, 15304.95
609.9769, 15345.80
610.4590, 15375.94
610.9411, 15400.87
611.4232, 15421.97
611.9053, 15439.07
612.3875, 15453.42
612.8696, 15465.53
613.3517, 15473.26
613.8338, 15465.42
614.3159, 15443.06
614.7980, 15452.50
615.2802, 15509.88
615.7623, 15584.65
616.2444, 15632.72
616.7265, 15658.72
617.2086, 15678.86
617.6907, 15705.75
618.1729, 15726.73
618.6550, 15721.35
619.1371, 15694.02
619.6192, 15684.80
620.1013, 15740.59
620.5834, 15798.21
621.0656, 15814.41
621.5477, 15754.00
622.0298, 15724.01
622.5119, 15744.38
622.9940, 15783.45
623.4761, 15806.25
623.9583, 15808.38
624.4404, 15808.46
624.9225, 15806.92
625.4046, 15807.41
625.8867, 15830.42
626.3688, 15873.87
626.8510, 15891.66
627.3331, 15835.98
627.8152, 15746.53
628.2973, 15694.86
628.7794, 15680.58
629.2615, 15671.77
629.7437, 15654.73
630.2258, 15628.06
630.7079, 15587.74
631.1900, 15523.25
631.6721, 15468.36
632.1542, 15438.49
632.6364, 15421.89
633.1185, 15403.23
633.6006, 15386.31
634.0826, 15360.61
634.5648, 15321.08
635.0469, 15273.12
635.5290, 15236.04
636.0111, 15211.53
636.4932, 15192.14
636.9753, 15178.98
637.4575, 15168.83
637.9396, 15143.92
638.4217, 15103.76
638.9038, 15065.86
639.3859, 15045.99
639.8680, 15036.28
640.3502, 15027.45
640.8323, 15019.88
641.3144, 15005.41
641.7965, 14963.37
642.2786, 14916.08
642.7607, 14894.55
643.2429, 14931.56
643.7250, 14964.64
644.2071, 14983.22
644.6892, 14989.28
645.1713, 14989.80
645.6534, 14981.57
646.1356, 14975.43
646.6177, 14977.17
647.0998, 14986.00
647.5819, 14998.27
648.0640, 15016.33
648.5461, 15016.23
649.0283, 14957.59
649.5104, 14868.59
649.9925, 14805.72
650.4746, 14779.01
650.9567, 14779.67
651.4388, 14797.72
651.9210, 14840.34
652.4031, 14917.62
652.8852, 15115.37
653.3673, 15259.22
653.8494, 15282.85
654.3315, 15209.94
654.8137, 15140.18
655.2958, 15070.00
655.7779, 15007.31
656.2600, 14952.00
656.7421, 14904.41
657.2242, 14882.38
657.7064, 14887.77
658.1885, 14906.14
658.6706, 14934.81
659.1527, 14967.34
659.6348, 14979.87
660.1169, 14965.79
660.5991, 14949.89
661.0812, 14959.54
661.5633, 14980.14
662.0454, 14990.60
662.5275, 14934.11
663.0096, 14919.90
663.4918, 15038.42
663.9739, 15232.97
664.4560, 15319.97
664.9381, 15200.09
665.4202, 15103.69
665.9023, 15110.17
666.3845, 15208.24
666.8666, 15228.85
667.3487, 15159.12
667.8308, 15067.38
668.3129, 14992.22
668.7950, 14934.42
669.2772, 14897.75
669.7593, 14883.41
670.2414, 14881.83
670.7235, 14895.56
671.2056, 14912.61
671.6877, 14913.79
672.1699, 14875.54
672.6520, 14849.47
673.1341, 14876.21
673.6162, 14926.18
674.0983, 14942.02
674.5804, 14872.45
675.0626, 14824.04
675.5447, 14830.38
676.0268, 14875.68
676.5089, 14863.63
676.9910, 14778.22
677.4731, 14705.01
677.9553, 14705.68
678.4374, 14761.40
678.9195, 14781.00
679.4016, 14763.92
679.8837, 14730.72
680.3658, 14678.54
680.8480, 14629.36
681.3301, 14617.63
681.8122, 14665.31
682.2943, 14701.57
682.7764, 14683.73
683.2585, 14639.44
683.7407, 14602.00
684.2228, 14582.96
684.7049, 14562.51
685.1870, 14531.73
685.6691, 14501.26
686.1512, 14507.78
686.6334, 14565.24
687.1155, 14592.39
687.5976, 14539.47
688.0797, 14441.43
688.5618, 14416.35
689.0439, 14458.54
689.5261, 14501.87
690.0082, 14501.83
690.4903, 14477.63
690.9724, 14444.11
691.4545, 14400.95
691.9366, 14370.77
692.4188, 14365.05
692.9009, 14375.26
693.3830, 14396.29
693.8651, 14460.20
694.3472, 14477.67
694.8293, 14421.25
695.3115, 14341.73
695.7936, 14310.68
696.2757, 14333.90
696.7578, 14365.70
697.2399, 14404.14
697.7220, 14434.85
698.2042, 14415.53
698.6863, 14357.93
699.1684, 14316.20
699.6505, 14328.74
700.1326, 14362.24
700.6147, 14398.50
701.0968, 14433.83
701.5789, 14448.20
702.0610, 14406.85
702.5432, 14365.29
703.0253, 14355.98
703.5074, 14387.35
703.9895, 14410.64
704.4716, 14428.88
704.9537, 14434.50
705.4359, 14413.24
705.9180, 14364.03
706.4001, 14338.90
706.8822, 14344.93
707.3643, 14366.58
707.8464, 14398.63
708.3286, 14430.88
708.8107, 14435.92
709.2928, 14378.47
709.7749, 14331.41
710.2570, 14352.27
710.7391, 14418.28
711.2213, 14479.85
711.7034, 14530.14
712.1855, 14568.40
712.6676, 14597.61
713.1497, 14616.36
713.6318, 14615.44
714.1140, 14591.78
714.5961, 14557.20
715.0782, 14500.65
715.5603, 14434.34
716.0424, 14447.65
716.5245, 14541.93
717.0067, 14628.37
717.4888, 14616.44
717.9709, 14560.60
718.4530, 14531.52
718.9351, 14541.24
719.4172, 14566.05
719.8994, 14606.72
720.3815, 14650.66
720.8636, 14685.26
721.3457, 14712.98
721.8278, 14723.17
722.3099, 14702.02
722.7921, 14673.81
723.2742, 14682.73
723.7563, 14733.22
724.2384, 14771.33
724.7205, 14779.75
725.2026, 14773.17
725.6848, 14777.63
726.1669, 14791.02
726.6490, 14804.33
727.1311, 14807.34
727.6132, 14813.60
728.0953, 14837.65
728.5775, 14876.99
729.0596, 14909.70
729.5417, 14919.20
730.0238, 14930.93
730.5059, 14959.04
730.9880, 15006.67
731.4702, 15033.33
731.9523, 15031.36
732.4344, 15027.59
732.9165, 15044.37
733.3986, 15078.56
733.8807, 15111.29
734.3629, 15141.56
734.8450, 15163.28
735.3271, 15156.12
735.8092, 15140.97
736.2913, 15151.97
736.7734, 15219.91
737.2556, 15270.97
737.7377, 15250.32
738.2198, 15202.67
738.7019, 15194.89
739.1840, 15241.57
739.6661, 15310.56
740.1483, 15417.14
740.6304, 15531.20
741.1125, 15570.69
741.5946, 15533.15
742.0767, 15489.38
742.5588, 15464.42
743.0410, 15451.21
743.5231, 15435.53
744.0052, 15419.88
744.4873, 15414.89
744.9694, 15433.39
745.4515, 15458.64
745.9337, 15481.78
746.4158, 15502.21
746.8979, 15518.39
747.3800, 15527.07
747.8621, 15534.27
748.3442, 15540.32
748.8264, 15543.48
749.3085, 15567.50
749.7906, 15619.53
750.2727, 15661.21
750.7548, 15642.22
751.2369, 15584.36
751.7191, 15551.44
752.2012, 15555.66
752.6833, 15568.07
753.1654, 15560.11
753.6475, 15549.67
754.1296, 15558.68
754.6118, 15621.92
755.0939, 15662.78
755.5760, 15654.39
756.0581, 15623.46
756.5402, 15604.87
757.0223, 15600.76
757.5045, 15601.23
757.9866, 15605.26
758.4687, 15611.12
758.9508, 15615.87
759.4329, 15619.15
759.9150, 15620.34
760.3972, 15618.45
760.8793, 15614.27
761.3614, 15609.86
761.8435, 15603.87
762.3256, 15591.83
762.8077, 15564.45
763.2899, 15538.22
763.7720, 15521.29
764.2541, 15513.10
764.7362, 15505.01
765.2183, 15501.58
765.7004, 15488.18
766.1825, 15447.21
766.6646, 15385.35
767.1467, 15363.89
767.6288, 15383.85
768.1110, 15389.37
768.5931, 15307.44
769.0752, 15200.23
769.5573, 15143.28
770.0394, 15152.71
770.5215, 15173.20
771.0037, 15192.78
771.4858, 15208.84
771.9679, 15220.12
772.4500, 15233.06
772.9321, 15224.82
773.4142, 15187.42
773.8964, 15141.79
774.3785, 15114.21
774.8606, 15102.80
775.3427, 15088.38
775.8248, 15064.29
776.3069, 15044.80
776.7891, 15051.75
777.2712, 15072.67
777.7533, 15086.22
778.2354, 15083.22
778.7175, 15073.84
779.1996, 15056.50
779.6818, 15035.85
780.1639, 15022.71
780.6460, 15021.71
781.1281, 15018.59
781.6102, 15009.53
782.0923, 14997.07
782.5745, 14983.05
783.0566, 14968.74
783.5387, 14972.56
784.0208, 15028.61
784.5029, 15089.92
784.9850, 15092.47
785.4672, 15048.09
785.9493, 15008.68
786.4314, 14996.70
786.9135, 14994.68
787.3956, 14993.89
787.8777, 14994.24
788.3599, 15010.50
788.8420, 15052.85
789.3241, 15088.45
789.8062, 15095.46
790.2883, 15078.25
790.7704, 15071.26
791.2526, 15074.61
791.7347, 15078.50
792.2168, 15068.89
792.6989, 15059.09
793.1810, 15067.18
793.6631, 15097.04
794.1453, 15124.71
794.6274, 15146.33
795.1095, 15158.39
795.5916, 15155.21
796.0737, 15125.41
796.5558, 15121.11
797.0380, 15152.26
797.5201, 15186.85
798.0022, 15191.03
798.4843, 15169.77
798.9664, 15145.56
799.4485, 15119.75
799.9307, 15102.80
800.4128, 15111.15
800.8949, 15131.64
801.3770, 15148.34
801.8591, 15165.28
802.3412, 15165.06
802.8234, 15118.69
803.3055, 15066.57
803.7876, 15061.97
804.2697, 15128.86
804.7518, 15149.47
805.2339, 15091.43
805.7161, 15011.54
806.1982, 15021.21
806.6803, 15093.59
807.1624, 15127.36
807.6445, 15059.31
808.1266, 14984.15
808.6088, 14984.27
809.0909, 15028.63
809.5730, 15055.57
810.0551, 15023.93
810.5372, 15005.03
811.0193, 15022.33
811.5015, 15056.99
811.9836, 15052.47
812.4657, 15002.04
812.9478, 14964.22
813.4299, 14961.40
813.9120, 14981.21
814.3942, 15007.76
814.8763, 15037.33
815.3584, 15056.15
815.8405, 15064.31
816.3226, 15052.86
816.8047, 14981.86
817.2869, 14870.87
817.7690, 14861.92
818.2511, 15061.78
818.7332, 15205.74
819.2153, 15191.45
819.6974, 15050.58
820.1796, 14955.93
820.6617, 14907.76
821.1438, 14887.03
821.6259, 14894.92
822.1080, 14916.29
822.5901, 14934.61
823.0723, 14948.89
823.5544, 14954.51
824.0365, 14950.96
824.5186, 14936.88
825.0007, 14899.17
825.4828, 14835.96
825.9650, 14820.98
826.4471, 14868.11
826.9292, 14927.74
827.4113, 14980.01
827.8934, 15021.14
828.3755, 15020.31
828.8577, 14978.43
829.3398, 14944.73
829.8219, 14974.84
830.3040, 15019.44
830.7861, 15027.00
831.2682, 14986.56
831.7503, 14965.60
832.2324, 15019.55
832.7145, 15060.96
833.1967, 15032.18
833.6788, 14915.70
834.1609, 14872.55
834.6430, 14912.84
835.1251, 14973.75
835.6072, 15008.75
836.0894, 15022.02
836.5715, 15012.67
837.0536, 14977.66
837.5357, 14959.80
838.0178, 14998.07
838.4999, 15054.19
838.9821, 15102.21
839.4642, 15147.02
839.9463, 15154.48
840.4284, 15102.65
840.9105, 15048.07
841.3926, 15046.84
841.8748, 15093.79
842.3569, 15124.83
842.8390, 15134.82
843.3211, 15135.59
843.8032, 15137.78
844.2853, 15137.82
844.7675, 15130.39
845.2496, 15112.46
845.7317, 15094.42
846.2138, 15062.21
846.6959, 15043.52
847.1780, 15067.90
847.6602, 15154.99
848.1423, 15198.88
848.6244, 15186.15
849.1065, 15159.53
849.5886, 15163.13
850.0707, 15190.37
850.5529, 15227.23
851.0350, 15273.91
851.5171, 15317.19
851.9992, 15354.17
852.4813, 15379.88
852.9634, 15389.41
853.4456, 15366.77
853.9277, 15353.78
854.4098, 15351.53
854.8919, 15357.42
855.3740, 15371.55
855.8561, 15393.11
856.3383, 15413.30
856.8204, 15432.55
857.3025, 15443.00
857.7846, 15430.02
858.2667, 15406.56
858.7488, 15387.94
859.2310, 15371.64
859.7131, 15374.41
860.1952, 15412.37
860.6773, 15463.51
861.1594, 15510.86
861.6415, 15555.22
862.1237, 15586.31
862.6058, 15598.88
863.0879, 15612.81
863.5700, 15668.36
864.0521, 15741.33
864.5342, 15773.18
865.0164, 15731.13
865.4985, 15708.42
865.9806, 15792.31
866.4627, 15903.69
866.9448, 15951.56
867.4269, 15897.53
867.9091, 15845.93
868.3912, 15786.35
868.8733, 15751.29
869.3554, 15804.00
869.8375, 15924.79
870.3196, 16000.09
870.8018, 16005.40
871.2839, 15995.50
871.7660, 16012.95
872.2481, 16045.25
872.7302, 16078.02
873.2123, 16108.49
873.6945, 16139.39
874.1766, 16176.21
874.6587, 16208.14
875.1408, 16220.37
875.6229, 16211.39
876.1050, 16213.06
876.5872, 16229.29
877.0693, 16251.63
877.5514, 16279.57
878.0335, 16304.67
878.5156, 16310.47
878.9977, 16284.00
879.4799, 16268.92
879.9620, 16295.75
880.4441, 16330.64
880.9262, 16343.81
881.4083, 16329.04
881.8904, 16316.08
882.3726, 16306.49
882.8547, 16296.48
883.3368, 16270.70
883.8189, 16242.63
884.3010, 16250.02
884.7831, 16303.27
885.2653, 16359.25
885.7474, 16385.78
886.2295, 16406.57
886.7116, 16446.02
887.1937, 16523.39
887.6758, 16566.49
888.1580, 16569.15
888.6401, 16549.03
889.1222, 16506.66
889.6043, 16452.14
890.0864, 16449.84
890.5685, 16509.24
891.0507, 16554.83
891.5328, 16513.11
892.0149, 16439.44
892.4970, 16384.54
892.9791, 16363.24
893.4612, 16330.99
893.9434, 16263.84
894.4255, 16213.27
894.9076, 16224.06
895.3897, 16294.14
895.8718, 16323.06
896.3539, 16307.58
896.8361, 16288.43
897.3181, 16307.85
897.8002, 16336.20
898.2823, 16334.70
898.7645, 16297.20
899.2466, 16275.30
899.7287, 16297.99
900.2108, 16325.49
900.6929, 16341.00
901.1750, 16344.49
901.6572, 16342.17
902.1393, 16333.80
902.6214, 16322.84
903.1035, 16308.70
903.5856, 16295.11
904.0677, 16290.52
904.5499, 16293.81
905.0320, 16290.32
905.5141, 16257.40
905.9962, 16232.52
906.4783, 16237.24
906.9604, 16268.24
907.4426, 16284.36
907.9247, 16282.33
908.4068, 16284.22
908.8889, 16316.94
909.3710, 16353.80
909.8531, 16323.43
910.3353, 16243.18
910.8174, 16190.40
911.2995, 16226.78
911.7816, 16276.68
912.2637, 16318.07
912.7458, 16345.96
913.2280, 16331.81
913.7101, 16256.84
914.1922, 16205.88
914.6743, 16215.37
915.1564, 16257.96
915.6385, 16280.15
916.1207, 16283.37
916.6028, 16272.38
917.0849, 16225.57
917.5670, 16189.57
918.0491, 16202.95
918.5313, 16242.53
919.0134, 16244.86
919.4955, 16179.26
919.9776, 16152.79
920.4597, 16199.65
920.9418, 16272.96
921.4240, 16275.54
921.9061, 16229.68
922.3882, 16216.78
922.8703, 16283.07
923.3524, 16354.19
923.8345, 16391.35
924.3167, 16401.45
924.7988, 16393.25
925.2809, 16360.16
925.7630, 16327.24
926.2451, 16297.47
926.7272, 16266.45
927.2094, 16217.42
927.6915, 16159.98
928.1736, 16136.50
928.6557, 16157.54
929.1378, 16196.89
929.6199, 16257.53
930.1021, 16313.30
930.5842, 16334.53
931.0663, 16288.80
931.5484, 16273.85
932.0305, 16303.92
932.5126, 16338.61
932.9948, 16337.88
933.4769, 16309.43
933.9590, 16290.37
934.4411, 16282.90
934.9232, 16295.92
935.4053, 16373.57
935.8875, 16447.90
936.3696, 16452.26
936.8517, 16366.58
937.3338, 16317.12
937.8159, 16321.82
938.2980, 16338.63
938.7802, 16349.31
939.2623, 16353.74
939.7444, 16350.74
940.2265, 16340.49
940.7086, 16325.01
941.1907, 16295.82
941.6729, 16270.09
942.1550, 16264.73
942.6371, 16276.95
943.1192, 16279.63
943.6013, 16262.16
944.0834, 16252.44
944.5656, 16261.68
945.0477, 16282.33
945.5298, 16293.96
946.0119, 16297.45
946.4940, 16297.85
946.9761, 16302.68
947.4583, 16299.82
947.9404, 16274.29
948.4225, 16235.70
948.9046, 16205.05
949.3867, 16183.15
949.8688, 16170.58
950.3510, 16166.63
950.8331, 16172.61
951.3152, 16193.20
951.7973, 16225.97
952.2794, 16266.08
952.7615, 16321.71
953.2437, 16354.67
953.7258, 16303.21
954.2079, 16230.10
954.6900, 16208.79
955.1721, 16283.02
955.6542, 16334.24
956.1364, 16362.60
956.6185, 16368.38
957.1006, 16340.51
957.5827, 16290.07
958.0648, 16259.29
958.5469, 16252.37
959.0291, 16250.12
959.5112, 16238.93
959.9933, 16228.53
960.4754, 16226.29
960.9575, 16233.14
961.4396, 16245.35
961.9218, 16265.11
962.4039, 16283.49
962.8860, 16299.79
963.3680, 16309.71
963.8502, 16288.61
964.3323, 16244.29
964.8144, 16220.70
965.2965, 16252.46
965.7786, 16301.02
966.2607, 16365.17
966.7429, 16431.16
967.2250, 16444.35
967.7071, 16384.78
968.1892, 16343.41
968.6713, 16345.64
969.1534, 16378.53
969.6356, 16437.38
970.1177, 16506.70
970.5998, 16549.02
971.0819, 16536.75
971.5640, 16514.06
972.0461, 16488.09
972.5283, 16464.92
973.0104, 16452.15
973.4925, 16450.68
973.9746, 16455.39
974.4567, 16466.61
974.9388, 16479.34
975.4210, 16486.72
975.9031, 16491.88
976.3852, 16503.05
976.8673, 16524.83
977.3494, 16532.97
977.8315, 16505.86
978.3137, 16474.64
978.7958, 16455.62
979.2779, 16449.16
979.7600, 16452.17
980.2421, 16465.09
980.7242, 16486.74
981.2064, 16530.41
981.6885, 16573.49
982.1706, 16591.51
982.6527, 16584.77
983.1348, 16561.34
983.6169, 16479.59
984.0991, 16437.14
984.5812, 16475.35
985.0633, 16560.71
985.5454, 16592.55
986.0275, 16573.94
986.5096, 16538.26
986.9918, 16476.66
987.4739, 16435.98
987.9560, 16478.83
988.4381, 16565.42
988.9202, 16632.11
989.4023, 16675.85
989.8845, 16682.71
990.3666, 16646.09
990.8487, 16583.49
991.3308, 16499.55
991.8129, 16405.44
992.2950, 16358.29
992.7772, 16368.87
993.2593, 16385.88
993.7414, 16379.58
994.2235, 16361.50
994.7056, 16338.81
995.1877, 16310.99
995.6699, 16286.16
996.1520, 16263.54
996.6341, 16245.33
997.1162, 16235.55
997.5983, 16230.44
998.0804, 16222.04
998.5626, 16210.61
999.0447, 16197.35
999.5268, 16185.13
1000.009, 16168.79
1000.491, 16136.37
1000.973, 16100.51
1001.455, 16098.94
1001.937, 16136.03
1002.419, 16164.72
1002.902, 16169.83
1003.384, 16166.75
1003.866, 16179.68
1004.348, 16196.53
1004.830, 16197.51
1005.312, 16166.62
1005.794, 16137.71
1006.276, 16113.75
1006.759, 16094.61
1007.241, 16074.43
1007.723, 16054.88
1008.205, 16074.72
1008.687, 16137.80
1009.169, 16186.24
1009.651, 16158.82
1010.133, 16107.85
1010.615, 16076.65
1011.098, 16069.48
1011.580, 16063.77
1012.062, 16061.82
1012.544, 16053.78
1013.026, 16036.35
1013.508, 16009.75
1013.990, 15966.73
1014.472, 15913.87
1014.955, 15873.71
1015.437, 15856.51
1015.919, 15854.47
1016.401, 15882.69
1016.883, 15917.49
1017.365, 15916.00
1017.847, 15868.56
1018.329, 15835.47
1018.811, 15825.79
1019.294, 15825.05
1019.776, 15816.32
1020.258, 15805.47
1020.740, 15802.32
1021.222, 15810.45
1021.704, 15814.28
1022.186, 15802.87
1022.668, 15793.60
1023.151, 15798.24
1023.633, 15814.41
1024.115, 15814.07
1024.597, 15798.16
1025.079, 15785.79
1025.561, 15798.79
1026.043, 15810.97
1026.525, 15798.26
1027.007, 15767.68
1027.490, 15746.04
1027.972, 15740.28
1028.454, 15730.47
1028.936, 15708.00
1029.418, 15689.57
1029.900, 15717.45
1030.382, 15770.04
1030.864, 15788.64
1031.346, 15742.73
1031.829, 15708.97
1032.311, 15751.05
1032.793, 15795.11
1033.275, 15771.43
1033.757, 15661.09
1034.239, 15634.58
1034.721, 15696.93
1035.203, 15777.53
1035.686, 15849.95
1036.168, 15893.89
1036.650, 15872.11
1037.132, 15793.58
1037.614, 15725.56
1038.096, 15684.91
1038.578, 15650.32
1039.060, 15610.08
1039.542, 15580.62
1040.025, 15623.00
1040.507, 15715.42
1040.989, 15766.75
1041.471, 15732.46
1041.953, 15686.69
1042.435, 15658.89
1042.917, 15650.96
1043.399, 15668.76
1043.881, 15729.12
1044.364, 15744.25
1044.846, 15704.96
1045.328, 15666.90
1045.810, 15695.24
1046.292, 15745.99
1046.774, 15750.28
1047.256, 15708.49
1047.738, 15670.18
1048.221, 15648.49
1048.703, 15637.43
1049.185, 15641.35
1049.667, 15651.78
1050.149, 15641.76
1050.631, 15613.75
1051.113, 15582.93
1051.595, 15549.59
1052.078, 15523.70
1052.560, 15512.17
1053.042, 15512.33
1053.524, 15521.48
1054.006, 15540.95
1054.488, 15567.33
1054.970, 15606.64
1055.452, 15629.28
1055.934, 15589.04
1056.417, 15523.63
1056.899, 15499.68
1057.381, 15517.90
1057.863, 15532.07
1058.345, 15524.74
1058.827, 15510.82
1059.309, 15491.16
1059.791, 15470.47
1060.273, 15470.08
1060.756, 15486.40
1061.238, 15490.21
1061.720, 15468.95
1062.202, 15436.88
1062.684, 15394.03
1063.166, 15352.25
1063.648, 15327.11
1064.130, 15317.23
1064.612, 15330.96
1065.095, 15374.33
1065.577, 15417.89
1066.059, 15434.26
1066.541, 15433.18
1067.023, 15432.36
1067.505, 15431.70
1067.987, 15419.13
1068.469, 15367.90
1068.952, 15332.08
1069.434, 15331.01
1069.916, 15354.19
1070.398, 15376.28
1070.880, 15396.70
1071.362, 15409.34
1071.844, 15411.38
1072.326, 15407.60
1072.808, 15397.53
1073.291, 15385.29
1073.773, 15376.49
1074.255, 15374.84
1074.737, 15363.43
1075.219, 15341.67
1075.701, 15312.62
1076.183, 15261.43
1076.665, 15213.75
1077.147, 15216.58
1077.630, 15263.54
1078.112, 15305.89
1078.594, 15338.90
1079.076, 15350.73
1079.558, 15329.96
1080.040, 15296.05
1080.522, 15290.47
1081.004, 15308.90
1081.487, 15334.83
1081.969, 15369.31
1082.451, 15392.12
1082.933, 15379.50
1083.415, 15356.93
1083.897, 15347.55
1084.379, 15353.49
1084.861, 15352.30
1085.344, 15342.88
1085.826, 15333.57
1086.308, 15332.88
1086.790, 15332.88
1087.272, 15318.84
1087.754, 15296.95
1088.236, 15291.74
1088.718, 15319.57
1089.200, 15344.19
1089.682, 15364.50
1090.165, 15373.16
1090.647, 15344.97
1091.129, 15297.88
1091.611, 15285.18
1092.093, 15324.75
1092.575, 15347.66
1093.057, 15298.78
1093.539, 15248.32
1094.022, 15240.20
1094.504, 15269.33
1094.986, 15267.17
1095.468, 15235.18
1095.950, 15209.63
1096.432, 15210.29
1096.914, 15223.21
1097.396, 15241.14
1097.879, 15262.66
1098.361, 15286.13
1098.843, 15315.94
1099.325, 15331.98
1099.807, 15329.55
1100.289, 15325.42
1100.771, 15346.26
1101.253, 15373.32
1101.735, 15373.58
1102.218, 15344.38
1102.700, 15323.31
1103.182, 15339.61
1103.664, 15335.77
1104.146, 15280.47
1104.628, 15202.15
1105.110, 15191.71
1105.592, 15232.50
1106.074, 15259.53
1106.557, 15238.33
1107.039, 15220.75
1107.521, 15236.42
1108.003, 15263.50
1108.485, 15280.18
1108.967, 15284.17
1109.449, 15304.08
1109.931, 15341.70
1110.414, 15361.78
1110.896, 15317.84
1111.378, 15263.18
1111.860, 15245.40
1112.342, 15259.23
1112.824, 15269.59
1113.306, 15276.05
1113.788, 15273.78
1114.271, 15258.69
1114.753, 15243.20
1115.235, 15241.74
1115.717, 15253.17
1116.199, 15281.53
1116.681, 15336.17
1117.163, 15362.28
1117.645, 15321.62
1118.127, 15293.09
1118.609, 15329.28
1119.092, 15405.74
1119.574, 15420.06
1120.056, 15384.83
1120.538, 15355.88
1121.020, 15373.73
1121.502, 15387.39
1121.984, 15357.70
1122.466, 15325.46
1122.949, 15352.34
1123.431, 15440.86
1123.913, 15468.94
1124.395, 15424.46
1124.877, 15368.33
1125.359, 15349.97
1125.841, 15341.30
1126.323, 15317.09
1126.806, 15279.11
1127.288, 15257.73
1127.770, 15252.84
1128.252, 15269.16
1128.734, 15317.42
1129.216, 15367.81
1129.698, 15381.42
1130.180, 15370.24
1130.662, 15350.23
1131.145, 15317.47
1131.627, 15297.16
1132.109, 15291.76
1132.591, 15296.00
1133.073, 15314.20
1133.555, 15337.33
1134.037, 15327.46
1134.519, 15295.87
1135.001, 15288.47
1135.484, 15349.53
1135.966, 15407.13
1136.448, 15450.28
1136.930, 15474.31
1137.412, 15462.95
1137.894, 15423.22
1138.376, 15403.32
1138.858, 15410.03
1139.340, 15416.74
1139.823, 15404.92
1140.305, 15388.45
1140.787, 15373.63
1141.269, 15361.67
1141.751, 15358.18
1142.233, 15363.34
1142.715, 15377.70
1143.197, 15408.04
1143.680, 15433.51
1144.162, 15427.70
1144.644, 15409.31
1145.126, 15402.51
1145.608, 15413.70
1146.090, 15417.87
1146.572, 15414.14
1147.054, 15407.96
1147.536, 15399.21
1148.019, 15392.86
1148.501, 15394.80
1148.983, 15404.75
1149.465, 15422.49
1149.947, 15459.38
1150.429, 15480.28
1150.911, 15475.41
1151.393, 15465.05
1151.875, 15477.00
1152.358, 15501.53
1152.840, 15521.51
1153.322, 15534.90
1153.804, 15538.87
1154.286, 15543.62
1154.768, 15518.97
1155.250, 15429.99
1155.732, 15325.94
1156.215, 15373.65
1156.697, 15527.77
1157.179, 15617.72
1157.661, 15566.74
1158.143, 15506.31
1158.625, 15501.43
1159.107, 15502.92
1159.589, 15464.87
1160.072, 15390.77
1160.554, 15398.00
1161.036, 15479.03
1161.518, 15545.69
1162.000, 15519.39
1162.482, 15488.85
1162.964, 15523.07
1163.446, 15578.10
1163.928, 15563.87
1164.411, 15463.54
1164.893, 15470.97
1165.375, 15615.86
1165.857, 15740.30
1166.339, 15679.06
1166.821, 15562.93
1167.303, 15492.36
1167.785, 15474.11
1168.267, 15484.58
1168.750, 15537.30
1169.232, 15549.76
1169.714, 15487.67
1170.196, 15412.30
1170.678, 15399.90
1171.160, 15420.11
1171.642, 15433.16
1172.124, 15427.28
1172.607, 15439.88
1173.089, 15478.81
1173.571, 15510.45
1174.053, 15510.46
1174.535, 15496.10
1175.017, 15489.56
1175.499, 15493.87
1175.981, 15516.59
1176.464, 15596.03
1176.946, 15632.40
1177.428, 15603.24
1177.910, 15567.98
1178.392, 15599.60
1178.874, 15662.09
1179.356, 15663.28
1179.838, 15608.25
1180.320, 15564.06
1180.802, 15564.72
1181.285, 15568.15
1181.767, 15564.77
1182.249, 15560.43
1182.731, 15574.35
1183.213, 15595.16
1183.695, 15576.43
1184.177, 15505.89
1184.659, 15457.63
1185.142, 15467.20
1185.624, 15509.01
1186.106, 15594.66
1186.588, 15692.48
1187.070, 15651.47
1187.552, 15509.73
1188.034, 15451.78
1188.516, 15589.43
1188.999, 15704.37
1189.481, 15666.40
1189.963, 15581.84
1190.445, 15526.52
1190.927, 15499.52
1191.409, 15475.83
1191.891, 15456.29
1192.373, 15450.81
1192.855, 15490.97
1193.338, 15517.71
1193.820, 15480.51
1194.302, 15420.92
1194.784, 15396.75
1195.266, 15409.32
1195.748, 15432.89
1196.230, 15466.26
1196.712, 15492.82
1197.194, 15492.73
1197.677, 15488.76
1198.159, 15504.29
1198.641, 15528.34
1199.123, 15520.02
1199.605, 15475.92
1200.087, 15456.96
1200.569, 15477.30
1201.051, 15511.03
1201.533, 15546.29
1202.016, 15574.21
1202.498, 15581.33
1202.980, 15569.01
1203.462, 15570.03
1203.944, 15585.52
1204.426, 15594.81
1204.908, 15583.16
1205.390, 15576.10
1205.873, 15615.48
1206.355, 15666.63
1206.837, 15682.78
1207.319, 15655.40
1207.801, 15629.07
1208.283, 15603.64
1208.765, 15585.45
1209.247, 15579.25
1209.729, 15583.01
1210.212, 15606.89
1210.694, 15637.20
1211.176, 15640.79
1211.658, 15602.94
1212.140, 15585.73
1212.622, 15595.63
1213.104, 15607.80
1213.586, 15595.85
1214.068, 15577.42
1214.551, 15567.87
1215.033, 15568.81
1215.515, 15585.69
1215.997, 15626.74
1216.479, 15655.57
1216.961, 15667.48
1217.443, 15659.78
1217.925, 15602.49
1218.408, 15540.11
1218.890, 15533.80
1219.372, 15590.40
1219.854, 15628.47
1220.336, 15642.31
1220.818, 15645.76
1221.300, 15640.59
1221.782, 15632.93
1222.265, 15621.72
1222.747, 15618.00
1223.229, 15644.61
1223.711, 15722.10
1224.193, 15750.53
1224.675, 15720.32
1225.157, 15672.84
1225.639, 15613.55
1226.121, 15566.16
1226.604, 15571.35
1227.086, 15613.16
1227.568, 15663.23
1228.050, 15734.34
1228.532, 15769.60
1229.014, 15762.23
1229.496, 15744.65
1229.978, 15742.46
1230.460, 15743.84
1230.943, 15723.58
1231.425, 15692.85
1231.907, 15685.02
1232.389, 15703.32
1232.871, 15756.05
1233.353, 15857.31
1233.835, 15941.14
1234.317, 15922.27
1234.800, 15858.48
1235.282, 15817.49
1235.764, 15801.84
1236.246, 15800.05
1236.728, 15821.80
1237.210, 15823.01
1237.692, 15794.95
1238.174, 15746.76
1238.656, 15650.42
1239.139, 15565.29
1239.621, 15589.64
1240.103, 15735.44
1240.585, 15818.69
1241.067, 15821.95
1241.549, 15796.55
1242.031, 15744.54
1242.513, 15702.58
1242.995, 15733.96
1243.478, 15796.08
1243.960, 15831.37
1244.442, 15824.32
1244.924, 15831.31
1245.406, 15857.63
1245.888, 15873.31
1246.370, 15855.46
1246.852, 15834.42
1247.335, 15859.17
1247.817, 15902.50
1248.299, 15920.12
1248.781, 15896.87
1249.263, 15886.84
1249.745, 15893.82
1250.227, 15889.03
1250.709, 15834.43
1251.192, 15775.16
1251.674, 15763.32
1252.156, 15781.66
1252.638, 15793.30
1253.120, 15788.91
1253.602, 15804.71
1254.084, 15843.68
1254.566, 15888.72
1255.048, 15943.23
1255.531, 15982.64
1256.013, 15973.26
1256.495, 15930.50
1256.977, 15906.08
1257.459, 15904.49
1257.941, 15892.11
1258.423, 15863.34
1258.905, 15841.86
1259.387, 15856.23
1259.870, 15879.87
1260.352, 15890.15
1260.834, 15890.71
1261.316, 15897.13
1261.798, 15909.40
1262.280, 15933.36
1262.762, 15973.91
1263.244, 16002.23
1263.726, 15987.66
1264.209, 15955.82
1264.691, 15911.88
1265.173, 15867.29
1265.655, 15891.33
1266.137, 15979.40
1266.619, 16026.45
1267.101, 15991.66
1267.583, 15955.03
1268.066, 15975.52
1268.548, 16013.27
1269.030, 16044.71
1269.512, 16067.18
1269.994, 16056.83
1270.476, 16018.63
1270.958, 15989.91
1271.440, 15981.15
1271.922, 15990.20
1272.405, 16032.56
1272.887, 16077.24
1273.369, 16104.80
1273.851, 16116.22
1274.333, 16108.71
1274.815, 16089.00
1275.297, 16089.68
1275.779, 16164.29
1276.261, 16202.38
1276.744, 16149.28
1277.226, 16081.75
1277.708, 16060.09
1278.190, 16076.63
1278.672, 16115.15
1279.154, 16165.55
1279.636, 16186.32
1280.118, 16112.48
1280.601, 16078.22
1281.083, 16116.71
1281.565, 16172.55
1282.047, 16178.54
1282.529, 16161.22
1283.011, 16192.78
1283.493, 16263.19
1283.975, 16301.74
1284.458, 16255.63
1284.940, 16226.98
1285.422, 16228.12
1285.904, 16247.56
1286.386, 16287.42
1286.868, 16328.36
1287.350, 16334.95
1287.832, 16309.57
1288.314, 16298.57
1288.797, 16317.51
1289.279, 16316.33
1289.761, 16283.12
1290.243, 16239.34
1290.725, 16191.69
1291.207, 16159.29
1291.689, 16171.21
1292.171, 16225.75
1292.653, 16267.84
1293.136, 16301.12
1293.618, 16308.20
1294.100, 16280.16
1294.582, 16244.53
1295.064, 16228.42
1295.546, 16216.92
1296.028, 16195.31
1296.510, 16168.11
##END=



