##NAMES=Serpierite
##RRUFFID=R060475
##IDEAL CHEMISTRY=Ca(Cu^2+^,Zn^2+^)_4_(S^6+^O_4_)_2_(OH)_6_&#183;3H_2_O
##LOCALITY=Oh mine, Gila County, Arizona, USA
##OWNER=RRUFF
##SOURCE=Michael Scott
##DESCRIPTION=Divergent sprays of blue bladed crystals associated with ktenasite, R090002
##STATUS=The identification of this mineral has been confirmed by single-crystal X-ray diffraction.
##URL=rruff.info/R060475
201.5261, 40.68481
202.0082, 39.82883
202.4904, 38.54543
202.9725, 37.29973
203.4546, 36.23558
203.9367, 35.40844
204.4188, 34.89881
204.9009, 34.87228
205.3831, 35.49855
205.8652, 36.09907
206.3473, 36.62108
206.8294, 37.13241
207.3115, 37.64203
207.7936, 38.16396
208.2758, 38.74831
208.7579, 39.58059
209.2400, 41.31705
209.7221, 41.73414
210.2042, 39.81893
210.6863, 37.53589
211.1685, 36.11595
211.6506, 35.83855
212.1327, 36.29270
212.6148, 36.94793
213.0969, 38.12148
213.5790, 38.75832
214.0612, 38.74648
214.5433, 38.31895
215.0254, 37.46870
215.5075, 36.25014
215.9896, 35.04047
216.4717, 34.37582
216.9539, 34.42214
217.4360, 34.75010
217.9181, 35.49764
218.4002, 36.45189
218.8823, 37.64685
219.3644, 39.09402
219.8466, 40.15652
220.3287, 39.68043
220.8108, 37.26295
221.2929, 35.64548
221.7750, 35.94795
222.2571, 36.95486
222.7393, 36.97428
223.2214, 35.52966
223.7035, 33.85508
224.1856, 33.58809
224.6677, 34.59585
225.1498, 35.78609
225.6320, 37.14541
226.1141, 38.45420
226.5962, 39.36767
227.0783, 39.83281
227.5604, 39.88359
228.0425, 39.28457
228.5247, 38.20864
229.0068, 37.37572
229.4889, 37.19647
229.9710, 37.44653
230.4531, 37.54674
230.9352, 37.23452
231.4174, 37.23363
231.8995, 38.65834
232.3816, 40.91529
232.8637, 42.30262
233.3458, 41.34014
233.8279, 38.81015
234.3101, 37.30205
234.7922, 37.32845
235.2743, 37.67830
235.7564, 37.61488
236.2385, 37.31942
236.7206, 37.15542
237.2028, 37.30737
237.6849, 37.75301
238.1670, 38.42858
238.6491, 39.48856
239.1312, 40.55921
239.6133, 41.62151
240.0955, 42.57885
240.5776, 43.27905
241.0597, 43.59605
241.5418, 43.59051
242.0239, 43.51379
242.5060, 43.11084
242.9882, 43.01615
243.4703, 43.85060
243.9524, 44.99307
244.4345, 45.47918
244.9166, 44.65342
245.3987, 42.86481
245.8809, 41.79495
246.3630, 42.07890
246.8451, 42.31510
247.3272, 42.14104
247.8093, 41.77185
248.2914, 41.48527
248.7736, 41.42875
249.2557, 41.57420
249.7378, 41.80524
250.2199, 42.09558
250.7020, 42.52701
251.1841, 43.34428
251.6663, 44.22597
252.1484, 44.80825
252.6305, 44.91892
253.1126, 44.62056
253.5947, 44.09386
254.0768, 42.80880
254.5590, 41.95588
255.0411, 41.77359
255.5232, 41.98666
256.0053, 42.27417
256.4874, 42.50137
256.9695, 42.78514
257.4517, 43.41072
257.9338, 45.62619
258.4159, 46.62305
258.8980, 45.73996
259.3801, 43.91130
259.8622, 41.84480
260.3444, 39.81464
260.8265, 38.14983
261.3086, 37.50711
261.7907, 38.88456
262.2728, 39.75888
262.7549, 40.32699
263.2371, 40.27119
263.7192, 38.75341
264.2013, 35.62802
264.6834, 32.45552
265.1655, 31.73970
265.6476, 35.21612
266.1298, 36.94526
266.6119, 35.02427
267.0940, 32.30194
267.5761, 31.77441
268.0582, 33.95792
268.5403, 36.64277
269.0225, 37.13093
269.5046, 34.70492
269.9867, 33.22222
270.4688, 33.25505
270.9509, 33.96181
271.4330, 34.89750
271.9152, 35.94864
272.3973, 36.62844
272.8794, 36.28242
273.3615, 34.82280
273.8436, 34.09454
274.3257, 34.56502
274.8079, 35.46301
275.2900, 36.44831
275.7721, 37.43945
276.2542, 37.93897
276.7363, 37.52970
277.2184, 36.19970
277.7006, 34.64442
278.1827, 31.97538
278.6648, 29.80059
279.1469, 29.41260
279.6290, 30.68357
280.1111, 32.64788
280.5933, 35.37562
281.0754, 38.09351
281.5575, 38.60188
282.0396, 35.27645
282.5217, 31.74723
283.0038, 30.16712
283.4860, 30.30992
283.9681, 31.08791
284.4502, 32.40902
284.9323, 33.72907
285.4144, 33.97057
285.8965, 32.82867
286.3787, 31.42824
286.8608, 30.11464
287.3429, 28.98611
287.8250, 28.44483
288.3071, 28.80164
288.7892, 29.57928
289.2714, 30.09875
289.7535, 30.35212
290.2356, 30.49236
290.7177, 30.55109
291.1998, 30.54949
291.6819, 30.52410
292.1641, 30.44436
292.6462, 30.42203
293.1283, 30.69674
293.6104, 31.22183
294.0925, 31.51101
294.5746, 31.22746
295.0568, 30.60102
295.5389, 29.92310
296.0210, 29.02753
296.5031, 28.68410
296.9852, 30.46172
297.4673, 33.49038
297.9495, 35.24366
298.4316, 33.76354
298.9137, 30.97698
299.3958, 29.90466
299.8779, 30.91458
300.3600, 32.17080
300.8422, 32.31776
301.3243, 31.90577
301.8064, 31.91152
302.2885, 33.01575
302.7706, 34.17027
303.2527, 33.77953
303.7349, 31.68545
304.2170, 30.32652
304.6991, 31.49195
305.1812, 33.78140
305.6633, 35.29743
306.1454, 35.67615
306.6276, 35.59674
307.1097, 35.65594
307.5918, 35.83135
308.0739, 35.65315
308.5560, 34.53879
309.0381, 33.40476
309.5203, 33.46162
310.0024, 34.87088
310.4845, 36.08469
310.9666, 35.47365
311.4487, 33.56219
311.9308, 33.07916
312.4130, 35.11692
312.8951, 37.94071
313.3772, 40.22255
313.8593, 41.96023
314.3414, 42.90179
314.8235, 42.55687
315.3057, 41.34168
315.7878, 40.28412
316.2699, 39.45135
316.7520, 38.82841
317.2341, 38.65768
317.7162, 38.69603
318.1984, 38.35536
318.6805, 36.69918
319.1626, 34.87831
319.6447, 34.97068
320.1268, 37.32842
320.6089, 39.83043
321.0911, 41.33622
321.5732, 42.23215
322.0553, 43.05201
322.5374, 44.11474
323.0195, 44.78780
323.5016, 44.05199
323.9838, 41.88807
324.4659, 40.21871
324.9480, 39.92460
325.4301, 40.44189
325.9122, 41.10892
326.3943, 41.94135
326.8765, 42.68602
327.3586, 43.32573
327.8407, 43.78907
328.3228, 43.57467
328.8049, 42.24166
329.2870, 40.63586
329.7692, 39.33684
330.2513, 38.36592
330.7334, 38.31347
331.2155, 40.51478
331.6976, 43.74885
332.1797, 44.91352
332.6619, 43.15357
333.1440, 40.82256
333.6261, 39.88958
334.1082, 39.87638
334.5903, 39.70984
335.0724, 38.87077
335.5546, 37.81187
336.0367, 37.06384
336.5188, 36.63286
337.0009, 36.50789
337.4830, 36.79914
337.9651, 37.37934
338.4473, 38.04911
338.9294, 39.01414
339.4115, 39.70698
339.8936, 39.42189
340.3757, 38.30667
340.8578, 37.52443
341.3400, 37.69092
341.8221, 38.20589
342.3042, 38.12180
342.7863, 37.35343
343.2684, 36.52302
343.7505, 35.85258
344.2327, 35.34686
344.7148, 35.04615
345.1969, 34.99715
345.6790, 35.05107
346.1611, 35.07595
346.6432, 35.07386
347.1254, 35.00769
347.6075, 34.74203
348.0896, 34.46803
348.5717, 34.67141
349.0538, 35.42958
349.5359, 35.63519
350.0181, 34.07370
350.5002, 31.21071
350.9823, 29.27712
351.4644, 29.12514
351.9465, 29.31606
352.4286, 28.54748
352.9108, 27.13630
353.3929, 26.74297
353.8750, 28.53713
354.3571, 31.48760
354.8392, 33.01419
355.3214, 32.80246
355.8035, 32.17057
356.2856, 31.40532
356.7677, 30.56604
357.2498, 29.64635
357.7319, 28.58371
358.2141, 27.78465
358.6962, 28.00611
359.1783, 29.49657
359.6604, 30.40827
360.1425, 30.29801
360.6246, 29.66788
361.1068, 28.59311
361.5889, 27.20074
362.0710, 26.53237
362.5531, 27.68856
363.0352, 30.63575
363.5173, 32.50853
363.9995, 32.89632
364.4816, 32.74672
364.9637, 32.17488
365.4458, 31.40102
365.9279, 30.83555
366.4100, 30.64384
366.8922, 30.91557
367.3743, 32.03465
367.8564, 35.92653
368.3385, 37.91149
368.8206, 35.76943
369.3027, 32.10043
369.7849, 29.85778
370.2670, 29.87304
370.7491, 31.12319
371.2312, 32.28765
371.7133, 33.42901
372.1954, 34.20550
372.6776, 34.89577
373.1597, 35.03050
373.6418, 33.84138
374.1239, 31.68122
374.6060, 29.82780
375.0881, 29.28688
375.5703, 30.03554
376.0524, 31.10104
376.5345, 32.99311
377.0166, 34.61992
377.4987, 36.00498
377.9808, 36.90540
378.4630, 36.77983
378.9451, 35.36939
379.4272, 33.38263
379.9093, 32.53261
380.3914, 33.60128
380.8735, 34.56755
381.3557, 35.40812
381.8378, 36.09426
382.3199, 36.55671
382.8020, 36.81819
383.2841, 37.02613
383.7662, 37.40614
384.2484, 38.05241
384.7305, 38.21252
385.2126, 36.90006
385.6947, 36.04983
386.1768, 36.66142
386.6589, 38.19104
387.1411, 39.44682
387.6232, 39.62571
388.1053, 39.15326
388.5874, 39.68184
389.0695, 42.11039
389.5516, 43.82254
390.0338, 43.76870
390.5159, 43.08960
390.9980, 42.86958
391.4801, 43.40471
391.9622, 44.06907
392.4443, 43.91693
392.9265, 42.80104
393.4086, 42.32933
393.8907, 43.48743
394.3728, 44.59462
394.8549, 44.41058
395.3370, 43.24195
395.8192, 42.38247
396.3013, 42.91573
396.7834, 44.38440
397.2655, 45.31687
397.7476, 45.68623
398.2297, 45.57912
398.7119, 44.41386
399.1940, 42.98913
399.6761, 42.43323
400.1582, 43.24899
400.6403, 44.50943
401.1224, 45.30471
401.6046, 45.66615
402.0867, 46.03198
402.5688, 46.57495
403.0509, 47.12418
403.5330, 47.43636
404.0151, 47.50454
404.4973, 47.65607
404.9794, 47.89517
405.4615, 48.34883
405.9436, 49.38522
406.4257, 51.11326
406.9078, 52.82573
407.3900, 53.89085
407.8721, 54.41349
408.3542, 55.04090
408.8363, 55.70455
409.3184, 56.58191
409.8005, 57.90022
410.2827, 59.55193
410.7648, 61.17876
411.2469, 62.65575
411.7290, 63.95438
412.2111, 64.98492
412.6932, 65.77049
413.1754, 66.29624
413.6575, 66.26603
414.1396, 66.12931
414.6217, 66.21405
415.1038, 66.62392
415.5859, 67.59958
416.0681, 69.45473
416.5502, 72.28706
417.0323, 74.98344
417.5144, 78.33833
417.9965, 80.77438
418.4786, 80.66462
418.9608, 79.27206
419.4429, 79.25529
419.9250, 82.05984
420.4071, 86.41772
420.8892, 88.78237
421.3713, 87.48270
421.8535, 86.59588
422.3356, 86.32035
422.8177, 86.41656
423.2998, 86.78359
423.7819, 87.35837
424.2640, 88.03701
424.7462, 88.77430
425.2283, 89.60395
425.7104, 90.03410
426.1925, 90.06898
426.6746, 89.64256
427.1567, 88.18655
427.6389, 86.38528
428.1210, 85.39794
428.6031, 85.88651
429.0852, 87.01326
429.5673, 87.32938
430.0494, 87.06388
430.5316, 85.19212
431.0137, 78.60586
431.4958, 72.29314
431.9779, 70.24387
432.4600, 72.39734
432.9421, 74.59830
433.4243, 73.14818
433.9064, 69.00877
434.3885, 66.49030
434.8706, 66.30862
435.3527, 66.52773
435.8348, 65.84789
436.3170, 64.72935
436.7991, 63.94745
437.2812, 63.84256
437.7633, 63.92116
438.2454, 63.56113
438.7275, 62.87912
439.2097, 62.79082
439.6918, 63.85166
440.1739, 65.28294
440.6560, 65.78596
441.1381, 65.28526
441.6202, 65.09918
442.1024, 66.18191
442.5845, 67.44572
443.0666, 67.31673
443.5487, 65.76363
444.0308, 64.48019
444.5129, 64.85545
444.9951, 66.67606
445.4772, 67.82589
445.9593, 67.75436
446.4414, 67.75282
446.9235, 68.47292
447.4056, 69.43225
447.8878, 69.88693
448.3699, 69.58617
448.8520, 68.82359
449.3341, 68.00589
449.8162, 67.03307
450.2983, 66.31672
450.7805, 65.90208
451.2626, 65.65965
451.7447, 65.39189
452.2268, 65.23033
452.7089, 65.60909
453.1910, 66.91429
453.6732, 68.78623
454.1553, 69.62180
454.6374, 68.56039
455.1195, 67.91486
455.6016, 68.43865
456.0837, 69.22890
456.5659, 69.42125
457.0480, 68.90494
457.5301, 68.37325
458.0122, 68.77974
458.4943, 70.09328
458.9764, 70.50240
459.4586, 69.27477
459.9407, 68.15094
460.4228, 68.07927
460.9049, 68.70979
461.3870, 69.48212
461.8691, 70.34593
462.3513, 71.03294
462.8334, 70.94611
463.3155, 70.13449
463.7976, 69.97807
464.2797, 71.32264
464.7618, 73.00258
465.2440, 73.29412
465.7261, 72.16178
466.2082, 71.64445
466.6903, 73.09421
467.1724, 75.16727
467.6545, 76.25799
468.1367, 76.25652
468.6188, 75.73913
469.1009, 74.90078
469.5830, 73.90742
470.0651, 73.57768
470.5472, 74.27967
471.0294, 75.07641
471.5115, 76.00471
471.9936, 76.78396
472.4757, 76.81208
472.9578, 76.01187
473.4399, 75.28807
473.9221, 75.79649
474.4042, 77.82448
474.8863, 79.42546
475.3684, 80.23747
475.8505, 81.07290
476.3326, 82.40494
476.8148, 83.92764
477.2969, 85.10954
477.7790, 85.68568
478.2611, 85.81618
478.7432, 85.85231
479.2253, 85.91029
479.7075, 85.53477
480.1896, 84.04627
480.6717, 82.63442
481.1538, 82.10278
481.6359, 82.31176
482.1180, 82.44319
482.6002, 81.66699
483.0823, 80.49957
483.5644, 80.78004
484.0465, 83.15920
484.5286, 84.55553
485.0107, 82.72306
485.4929, 79.60316
485.9750, 77.44927
486.4571, 76.60244
486.9392, 76.16594
487.4213, 75.78202
487.9034, 75.39303
488.3856, 74.98805
488.8677, 74.61544
489.3498, 73.75998
489.8319, 71.66916
490.3140, 68.50768
490.7961, 66.45729
491.2783, 66.84629
491.7604, 66.91290
492.2425, 64.84214
492.7246, 61.66268
493.2067, 59.30279
493.6888, 58.44473
494.1710, 58.46832
494.6531, 58.51981
495.1352, 58.79102
495.6173, 58.43092
496.0994, 57.39626
496.5815, 55.87655
497.0637, 53.48820
497.5458, 50.72373
498.0279, 48.50623
498.5100, 47.35432
498.9921, 47.06398
499.4742, 47.30548
499.9564, 48.68296
500.4385, 49.02949
500.9206, 46.89281
501.4027, 44.54864
501.8848, 43.42521
502.3669, 43.47937
502.8491, 43.78542
503.3312, 43.88515
503.8133, 43.73676
504.2954, 43.13578
504.7775, 41.98549
505.2596, 40.85176
505.7418, 40.01015
506.2239, 39.33556
506.7060, 38.68232
507.1881, 38.09124
507.6702, 37.32385
508.1523, 36.24438
508.6345, 34.91695
509.1166, 33.35062
509.5987, 31.53991
510.0808, 29.81574
510.5629, 28.38492
511.0450, 27.27765
511.5272, 26.65912
512.0093, 26.61974
512.4914, 26.88340
512.9735, 27.68989
513.4556, 28.62227
513.9377, 29.04770
514.4199, 28.83273
514.9020, 28.50196
515.3841, 28.75845
515.8662, 29.73978
516.3483, 30.35700
516.8304, 30.29025
517.3126, 30.18531
517.7947, 30.21178
518.2768, 30.31334
518.7589, 30.47636
519.2410, 30.71377
519.7231, 30.73191
520.2053, 30.01129
520.6874, 28.50049
521.1695, 26.94777
521.6516, 24.99530
522.1337, 23.64131
522.6158, 23.90313
523.0980, 25.25990
523.5801, 26.20812
524.0622, 25.96985
524.5443, 25.34274
525.0264, 25.29219
525.5085, 25.66858
525.9907, 25.44643
526.4728, 24.02578
526.9549, 22.39299
527.4370, 22.09217
527.9191, 23.30812
528.4012, 24.54232
528.8834, 26.42062
529.3655, 27.61250
529.8476, 26.30936
530.3297, 23.45943
530.8118, 21.97741
531.2939, 23.52342
531.7761, 26.77287
532.2582, 28.33334
532.7403, 27.20955
533.2224, 26.15757
533.7045, 24.94080
534.1866, 24.04543
534.6688, 23.81165
535.1509, 24.16131
535.6330, 24.87255
536.1151, 25.99089
536.5972, 27.12204
537.0793, 27.05898
537.5615, 25.48471
538.0436, 24.00632
538.5257, 22.79644
539.0078, 22.13197
539.4899, 22.62035
539.9720, 24.17320
540.4542, 25.16306
540.9363, 24.21080
541.4184, 22.52034
541.9005, 21.79334
542.3826, 22.06607
542.8647, 22.70798
543.3469, 23.50375
543.8290, 24.34861
544.3111, 25.00316
544.7932, 25.62018
545.2753, 25.74118
545.7574, 24.59317
546.2396, 23.42770
546.7217, 23.48012
547.2038, 24.63360
547.6859, 25.94034
548.1680, 26.78056
548.6501, 27.16040
549.1323, 27.07476
549.6144, 26.23720
550.0965, 25.41529
550.5786, 24.36481
551.0607, 23.60177
551.5428, 23.71076
552.0250, 24.57291
552.5071, 25.38118
552.9892, 25.41095
553.4713, 24.99967
553.9534, 25.23425
554.4355, 26.27557
554.9177, 27.15903
555.3998, 27.56093
555.8819, 27.54587
556.3640, 27.18940
556.8461, 26.44856
557.3282, 25.71904
557.8104, 24.93898
558.2925, 24.37249
558.7746, 24.61926
559.2567, 25.55648
559.7388, 26.02171
560.2209, 25.18533
560.7031, 23.58925
561.1852, 22.96042
561.6673, 24.00771
562.1494, 25.07284
562.6315, 26.40154
563.1136, 27.53379
563.5958, 28.23594
564.0779, 28.44024
564.5600, 27.96038
565.0421, 26.49555
565.5242, 24.55015
566.0063, 24.04349
566.4885, 25.73644
566.9706, 26.64915
567.4527, 25.19331
567.9348, 23.37435
568.4169, 22.46984
568.8990, 22.50826
569.3812, 22.95656
569.8633, 23.65641
570.3454, 24.54375
570.8275, 25.79814
571.3096, 27.34381
571.7917, 28.04638
572.2739, 27.14217
572.7560, 25.61105
573.2381, 25.30693
573.7202, 26.62370
574.2023, 27.51822
574.6844, 27.63136
575.1666, 27.41697
575.6487, 27.02862
576.1308, 26.57796
576.6129, 26.29558
577.0950, 26.31266
577.5771, 26.42036
578.0593, 25.98284
578.5414, 24.31785
579.0235, 23.98210
579.5056, 27.19856
579.9877, 29.80940
580.4698, 29.26725
580.9520, 26.67248
581.4341, 24.75917
581.9162, 24.88766
582.3983, 25.92823
582.8804, 26.63409
583.3625, 26.98601
583.8447, 26.58722
584.3268, 25.01208
584.8089, 23.42797
585.2910, 23.19065
585.7731, 24.16550
586.2552, 24.96170
586.7374, 24.71343
587.2195, 25.04019
587.7016, 27.41949
588.1837, 30.77823
588.6658, 33.24135
589.1479, 34.25139
589.6301, 34.54306
590.1122, 35.01283
590.5943, 35.71009
591.0764, 36.09602
591.5585, 35.64177
592.0406, 35.49941
592.5228, 36.14424
593.0049, 37.14827
593.4870, 37.94823
593.9691, 38.41154
594.4512, 38.96992
594.9333, 40.05434
595.4155, 41.58905
595.8976, 43.32557
596.3797, 45.34519
596.8618, 47.11972
597.3439, 48.19836
597.8260, 48.85860
598.3082, 49.82471
598.7903, 51.28377
599.2724, 52.57439
599.7545, 53.02131
600.2366, 53.48124
600.7188, 55.45448
601.2009, 58.62215
601.6830, 60.66637
602.1651, 59.87711
602.6472, 57.15301
603.1293, 55.85697
603.6115, 56.89448
604.0936, 57.72430
604.5757, 58.00555
605.0578, 58.19552
605.5399, 58.85048
606.0220, 59.69119
606.5042, 59.77033
606.9863, 58.27824
607.4684, 56.17309
607.9505, 54.97403
608.4326, 54.66420
608.9147, 54.61293
609.3969, 54.67487
609.8790, 54.91712
610.3611, 55.68473
610.8432, 56.89334
611.3253, 57.26689
611.8074, 56.19932
612.2896, 54.75936
612.7717, 53.21737
613.2538, 51.76598
613.7359, 50.88975
614.2180, 50.66768
614.7001, 50.29618
615.1823, 48.63218
615.6644, 45.54765
616.1465, 43.89473
616.6286, 45.07938
617.1107, 45.78418
617.5928, 44.80714
618.0750, 43.17774
618.5571, 41.94853
619.0392, 41.31876
619.5213, 40.79030
620.0034, 39.81330
620.4855, 38.71166
620.9677, 38.44325
621.4498, 39.08580
621.9319, 39.24735
622.4140, 38.06925
622.8961, 36.18248
623.3782, 34.94463
623.8604, 34.57581
624.3425, 34.06921
624.8246, 33.17377
625.3067, 32.23465
625.7888, 31.39465
626.2709, 30.71032
626.7531, 30.25865
627.2352, 30.08317
627.7173, 30.07831
628.1994, 30.11623
628.6815, 30.25852
629.1636, 30.07229
629.6458, 29.16265
630.1279, 28.40766
630.6100, 28.21487
631.0921, 28.45800
631.5742, 29.01128
632.0563, 30.02830
632.5385, 30.78605
633.0206, 30.51320
633.5027, 29.67606
633.9848, 29.12590
634.4669, 28.99541
634.9490, 29.33732
635.4312, 30.40062
635.9133, 31.83804
636.3954, 31.99353
636.8775, 29.11410
637.3596, 27.29416
637.8417, 27.00132
638.3239, 27.53279
638.8060, 28.91772
639.2881, 30.71223
639.7702, 31.83042
640.2523, 31.49100
640.7344, 30.46120
641.2166, 30.18294
641.6987, 30.67830
642.1808, 31.50815
642.6629, 32.98851
643.1450, 34.13501
643.6271, 33.46484
644.1093, 31.59311
644.5914, 30.85800
645.0735, 33.39642
645.5556, 35.05142
646.0377, 32.92158
646.5198, 29.12336
647.0020, 26.47775
647.4841, 25.60382
647.9662, 26.15995
648.4483, 28.33451
648.9304, 31.43463
649.4125, 29.93270
649.8947, 19.02963
650.3768, 12.65103
650.8589, 16.76706
651.3410, 23.14954
651.8231, 26.57663
652.3052, 26.93843
652.7874, 26.38828
653.2695, 25.53494
653.7516, 24.74900
654.2337, 24.68424
654.7158, 25.15002
655.1979, 25.19679
655.6801, 24.50141
656.1622, 23.63441
656.6443, 23.22361
657.1264, 23.29805
657.6085, 23.29647
658.0906, 23.05459
658.5728, 22.95204
659.0549, 23.38621
659.5370, 23.81893
660.0191, 23.57334
660.5012, 22.64023
660.9833, 21.69223
661.4655, 21.35785
661.9476, 21.38190
662.4297, 20.81334
662.9118, 19.50564
663.3939, 18.78841
663.8760, 19.22526
664.3582, 20.24084
664.8403, 21.41231
665.3224, 22.70764
665.8045, 23.36943
666.2866, 22.72811
666.7687, 21.99965
667.2509, 21.88643
667.7330, 22.13053
668.2151, 22.24434
668.6972, 22.11856
669.1793, 22.08638
669.6614, 22.60135
670.1436, 23.57677
670.6257, 23.69283
671.1078, 22.38862
671.5899, 21.38630
672.0720, 21.20821
672.5541, 21.48591
673.0363, 22.26657
673.5184, 23.41858
674.0005, 23.92422
674.4826, 22.97316
674.9647, 21.48370
675.4468, 19.83760
675.9290, 18.39695
676.4111, 18.59857
676.8932, 20.92404
677.3753, 23.42675
677.8574, 23.71497
678.3395, 21.67874
678.8217, 20.27987
679.3038, 19.66977
679.7859, 19.55226
680.2680, 20.44034
680.7501, 21.41964
681.2322, 21.56545
681.7144, 20.87493
682.1965, 20.14056
682.6786, 19.72559
683.1607, 19.68897
683.6428, 20.47827
684.1249, 21.93331
684.6071, 22.49789
685.0892, 21.51694
685.5713, 20.19445
686.0534, 19.93434
686.5355, 20.81854
687.0176, 21.36900
687.4998, 21.46447
687.9819, 21.41221
688.4640, 21.47560
688.9461, 21.31251
689.4282, 20.28883
689.9103, 18.54014
690.3925, 17.09054
690.8746, 16.73300
691.3567, 17.19954
691.8388, 18.11773
692.3209, 19.53080
692.8030, 20.14849
693.2852, 19.21478
693.7673, 18.16884
694.2494, 18.70208
694.7315, 20.68771
695.2136, 21.98036
695.6957, 22.12650
696.1779, 22.03083
696.6600, 22.04968
697.1421, 21.96281
697.6242, 21.39252
698.1063, 20.39109
698.5884, 19.43922
699.0706, 18.89518
699.5527, 18.67535
700.0348, 18.56414
700.5169, 18.57409
700.9990, 18.56720
701.4811, 18.25490
701.9633, 18.28486
702.4454, 19.82413
702.9275, 22.24652
703.4096, 23.38922
703.8917, 22.36566
704.3738, 20.85074
704.8560, 18.91819
705.3381, 17.22242
705.8202, 16.79387
706.3023, 17.51577
706.7844, 18.15276
707.2665, 17.78547
707.7487, 17.00751
708.2308, 17.67998
708.7129, 20.31185
709.1950, 21.96778
709.6771, 21.78487
710.1592, 21.24207
710.6414, 21.31434
711.1235, 21.72144
711.6056, 21.88990
712.0877, 21.76417
712.5698, 21.30241
713.0519, 20.36217
713.5341, 19.15177
714.0162, 17.41660
714.4983, 15.53762
714.9804, 15.10057
715.4625, 17.12887
715.9446, 20.26094
716.4268, 21.45287
716.9089, 20.12449
717.3910, 19.54179
717.8731, 20.67934
718.3552, 21.33774
718.8373, 19.63757
719.3195, 17.19521
719.8016, 16.48152
720.2837, 18.09630
720.7658, 19.94172
721.2479, 21.51385
721.7300, 22.46102
722.2122, 22.16051
722.6943, 20.85957
723.1764, 19.25817
723.6585, 17.64726
724.1406, 16.48794
724.6227, 16.64834
725.1049, 18.33455
725.5870, 19.37210
726.0691, 19.45855
726.5512, 19.37139
727.0333, 19.52662
727.5154, 19.54808
727.9976, 18.89406
728.4797, 17.54691
728.9618, 16.42147
729.4439, 15.64387
729.9260, 15.47759
730.4081, 16.70087
730.8903, 18.66369
731.3724, 19.66834
731.8545, 19.27427
732.3366, 18.73699
732.8187, 19.51474
733.3008, 21.41518
733.7830, 22.01937
734.2651, 20.54776
734.7472, 19.46508
735.2293, 19.55667
735.7114, 20.02765
736.1935, 20.40883
736.6757, 20.69371
737.1578, 20.97784
737.6399, 21.46716
738.1220, 21.73237
738.6041, 21.33590
739.0862, 20.58848
739.5684, 19.97799
740.0505, 19.57195
740.5326, 19.19859
741.0147, 18.74789
741.4968, 18.19793
741.9789, 17.39089
742.4611, 16.11406
742.9432, 15.36757
743.4253, 15.32005
743.9074, 15.74660
744.3895, 16.82411
744.8716, 18.18000
745.3538, 19.16202
745.8359, 19.70723
746.3180, 19.75224
746.8001, 18.76711
747.2822, 17.63174
747.7643, 17.37442
748.2465, 17.80914
748.7286, 18.08597
749.2107, 17.81790
749.6928, 17.38095
750.1749, 17.30991
750.6570, 17.61241
751.1392, 18.23124
751.6213, 19.50366
752.1034, 20.30065
752.5855, 19.67149
753.0676, 18.68543
753.5497, 18.92273
754.0319, 20.45478
754.5140, 21.05783
754.9961, 19.10102
755.4782, 17.21592
755.9603, 17.09528
756.4424, 18.04614
756.9246, 19.16341
757.4067, 20.12675
757.8888, 20.68088
758.3709, 20.59742
758.8530, 19.95580
759.3351, 18.68798
759.8173, 16.55872
760.2994, 15.98062
760.7815, 18.14446
761.2636, 20.77593
761.7457, 22.17987
762.2278, 22.42372
762.7100, 22.01323
763.1921, 20.72791
763.6742, 19.14330
764.1563, 16.62468
764.6384, 14.48984
765.1205, 14.00032
765.6027, 14.83247
766.0848, 16.01043
766.5669, 17.11502
767.0490, 17.91362
767.5311, 17.77396
768.0132, 16.96811
768.4954, 17.26279
768.9775, 18.94182
769.4596, 20.10622
769.9417, 19.65792
770.4238, 18.45574
770.9059, 17.99137
771.3881, 18.47664
771.8702, 18.89269
772.3523, 19.54101
772.8344, 19.76940
773.3165, 18.61322
773.7986, 17.35472
774.2808, 17.86735
774.7629, 20.09466
775.2450, 21.70904
775.7271, 20.66995
776.2092, 18.60512
776.6913, 18.08165
777.1735, 18.68940
777.6556, 18.50257
778.1377, 17.03507
778.6198, 15.99680
779.1019, 17.04774
779.5840, 19.61632
780.0662, 20.70854
780.5483, 19.29612
781.0304, 18.35362
781.5125, 18.54916
781.9946, 18.75048
782.4767, 18.06747
782.9589, 17.08117
783.4410, 17.02323
783.9231, 18.36497
784.4052, 19.75423
784.8873, 20.78863
785.3694, 21.15535
785.8516, 19.95026
786.3337, 17.67651
786.8158, 16.01467
787.2979, 15.63647
787.7800, 16.00281
788.2621, 16.43760
788.7443, 16.94657
789.2264, 17.88934
789.7085, 19.62719
790.1906, 20.78378
790.6727, 20.78618
791.1548, 20.21279
791.6370, 19.67381
792.1191, 19.11843
792.6012, 18.16376
793.0833, 15.79021
793.5654, 14.20233
794.0475, 14.74498
794.5297, 16.12530
795.0118, 17.07880
795.4939, 17.56831
795.9760, 18.22667
796.4581, 19.45299
796.9402, 20.67990
797.4224, 20.91378
797.9045, 20.31885
798.3866, 20.18700
798.8687, 20.75249
799.3508, 20.43011
799.8329, 17.94141
800.3151, 14.82554
800.7972, 14.03020
801.2793, 16.21062
801.7614, 18.15107
802.2435, 20.64795
802.7256, 21.96722
803.2078, 20.53937
803.6899, 18.37754
804.1720, 17.62383
804.6541, 18.38457
805.1362, 19.27139
805.6183, 19.93622
806.1005, 19.93579
806.5826, 18.07149
807.0647, 15.34130
807.5468, 14.21963
808.0289, 14.99452
808.5110, 15.91316
808.9932, 15.66831
809.4753, 14.93835
809.9574, 15.85795
810.4395, 19.21696
810.9216, 20.50516
811.4037, 18.08247
811.8859, 15.93370
812.3680, 16.28031
812.8501, 17.99945
813.3322, 19.74174
813.8143, 21.57101
814.2964, 22.52193
814.7786, 22.01165
815.2607, 20.95481
815.7428, 19.52302
816.2249, 18.05005
816.7070, 17.04961
817.1891, 16.54455
817.6713, 15.95340
818.1534, 14.55357
818.6355, 13.23515
819.1176, 13.99723
819.5997, 16.58904
820.0818, 19.36814
820.5640, 22.21168
821.0461, 23.59480
821.5282, 22.02945
822.0103, 18.67462
822.4924, 17.13183
822.9745, 18.60392
823.4567, 19.18350
823.9388, 17.90176
824.4209, 16.84637
824.9030, 17.12907
825.3851, 17.86323
825.8672, 17.72673
826.3494, 16.55819
826.8315, 15.79607
827.3136, 16.59365
827.7957, 17.61313
828.2778, 17.35713
828.7599, 16.62921
829.2421, 17.23870
829.7242, 19.30082
830.2063, 21.09242
830.6884, 21.29026
831.1705, 20.36785
831.6526, 19.30737
832.1348, 18.09233
832.6169, 17.49162
833.0990, 17.80627
833.5811, 18.03232
834.0632, 17.43398
834.5453, 16.46395
835.0275, 16.11360
835.5096, 16.55565
835.9917, 17.14431
836.4738, 18.57689
836.9559, 19.33160
837.4380, 18.12978
837.9202, 16.40248
838.4023, 15.90994
838.8844, 16.71068
839.3665, 17.32470
839.8486, 16.77883
840.3307, 15.92273
840.8129, 15.56388
841.2950, 15.54572
841.7771, 15.63387
842.2592, 15.75472
842.7413, 15.68517
843.2234, 15.23768
843.7056, 14.82186
844.1877, 15.55326
844.6698, 17.61665
845.1519, 18.30765
845.6340, 16.95849
846.1161, 15.93622
846.5983, 16.46121
847.0804, 17.60643
847.5625, 18.20182
848.0446, 18.25501
848.5267, 17.69065
849.0089, 15.43414
849.4910, 13.94093
849.9731, 14.40027
850.4552, 15.51839
850.9373, 16.09758
851.4194, 16.24232
851.9016, 16.86781
852.3837, 18.62037
852.8658, 20.05412
853.3479, 19.46397
853.8300, 17.84295
854.3121, 16.64119
854.7943, 16.07264
855.2764, 16.69341
855.7585, 18.76107
856.2406, 20.77175
856.7227, 20.65886
857.2048, 18.58930
857.6870, 16.45976
858.1691, 13.87644
858.6512, 13.03085
859.1333, 15.39548
859.6154, 18.19323
860.0975, 19.16706
860.5797, 18.47425
861.0618, 17.13683
861.5439, 14.07388
862.0260, 12.18657
862.5081, 12.40170
862.9902, 13.23666
863.4724, 13.89307
863.9545, 14.53338
864.4366, 15.89945
864.9187, 18.11765
865.4008, 19.30932
865.8829, 17.06536
866.3651, 14.09206
866.8472, 13.78551
867.3293, 15.19598
867.8114, 15.98768
868.2935, 15.65637
868.7756, 14.82938
869.2578, 13.88502
869.7399, 13.10203
870.2220, 13.25487
870.7041, 14.38100
871.1862, 15.79790
871.6683, 17.67175
872.1505, 19.01365
872.6326, 19.28650
873.1147, 18.74410
873.5968, 17.59260
874.0789, 15.48591
874.5610, 14.67541
875.0432, 16.26690
875.5253, 17.63810
876.0074, 18.24201
876.4895, 18.35847
876.9716, 18.04755
877.4537, 17.46863
877.9359, 17.07662
878.4180, 17.11736
878.9001, 17.13507
879.3822, 16.47448
879.8643, 15.91290
880.3464, 16.66417
880.8286, 18.27211
881.3107, 19.44548
881.7928, 19.69473
882.2749, 19.23475
882.7570, 18.11345
883.2391, 16.54248
883.7213, 15.02461
884.2034, 13.59294
884.6855, 13.02501
885.1676, 13.62435
885.6497, 14.19408
886.1318, 13.70667
886.6140, 12.57525
887.0961, 12.26599
887.5782, 13.30067
888.0603, 13.78290
888.5424, 12.99590
889.0245, 12.63396
889.5067, 14.08393
889.9888, 15.88665
890.4709, 16.11858
890.9530, 14.72813
891.4351, 13.91989
891.9172, 14.17667
892.3994, 15.05818
892.8815, 17.52181
893.3636, 19.66815
893.8457, 19.11054
894.3278, 16.56049
894.8099, 14.53554
895.2921, 14.11699
895.7742, 14.35197
896.2563, 14.33590
896.7384, 14.37891
897.2205, 15.44478
897.7026, 17.12296
898.1848, 17.51278
898.6669, 16.08051
899.1490, 14.39813
899.6311, 14.00021
900.1132, 14.56356
900.5953, 14.78721
901.0775, 14.59047
901.5596, 15.19113
902.0417, 17.22943
902.5238, 18.41445
903.0059, 16.90959
903.4880, 14.17322
903.9702, 13.30266
904.4523, 14.97367
904.9344, 15.79811
905.4165, 14.98422
905.8986, 14.35016
906.3807, 14.57805
906.8629, 14.92216
907.3450, 14.46347
907.8271, 13.48880
908.3092, 13.39222
908.7913, 15.33362
909.2734, 16.52559
909.7556, 14.61732
910.2377, 12.38919
910.7198, 12.65605
911.2019, 14.45644
911.6840, 15.50895
912.1661, 15.17427
912.6483, 14.61433
913.1304, 15.00348
913.6125, 14.18253
914.0946, 14.78822
914.5767, 13.12332
915.0588, 11.97132
915.5410, 11.59991
916.0231, 12.09103
916.5052, 13.59120
916.9873, 15.44886
917.4694, 16.56163
917.9515, 16.93995
918.4337, 15.81674
918.9158, 12.51866
919.3979, 10.98536
919.8800, 13.21422
920.3621, 16.42750
920.8442, 17.82276
921.3264, 17.52021
921.8085, 16.71927
922.2906, 14.44646
922.7727, 13.27405
923.2548, 13.95836
923.7369, 15.01062
924.2191, 16.23786
924.7012, 17.16847
925.1833, 16.94423
925.6654, 15.42121
926.1475, 14.10238
926.6296, 13.15259
927.1118, 12.85081
927.5939, 13.63033
928.0760, 14.92090
928.5581, 16.49919
929.0402, 17.99784
929.5223, 18.48397
930.0045, 17.41521
930.4866, 16.18172
930.9687, 16.18633
931.4508, 16.74743
931.9329, 16.88410
932.4150, 16.62061
932.8972, 16.15728
933.3793, 15.57643
933.8614, 14.98802
934.3435, 14.44879
934.8256, 14.06367
935.3077, 14.24267
935.7899, 14.92437
936.2720, 15.15808
936.7541, 14.80863
937.2362, 14.27681
937.7183, 13.57441
938.2004, 13.44771
938.6826, 15.41140
939.1647, 19.57199
939.6468, 20.60626
940.1289, 16.79909
940.6110, 14.05472
941.0931, 13.90724
941.5753, 14.54473
942.0574, 14.85850
942.5395, 14.97649
943.0216, 15.25599
943.5037, 15.74502
943.9858, 16.24713
944.4680, 16.80761
944.9501, 17.30428
945.4322, 18.01243
945.9143, 18.40730
946.3964, 17.55467
946.8785, 15.79214
947.3607, 14.82611
947.8428, 15.40002
948.3249, 16.46015
948.8070, 17.78679
949.2891, 19.04147
949.7712, 19.94569
950.2534, 20.50858
950.7355, 20.75398
951.2176, 20.70857
951.6997, 20.47279
952.1818, 20.03288
952.6639, 19.55925
953.1461, 19.16800
953.6282, 18.95723
954.1103, 19.27954
954.5924, 20.07792
955.0745, 20.88076
955.5566, 21.46299
956.0388, 21.75550
956.5209, 21.64050
957.0030, 21.16099
957.4851, 20.40571
957.9672, 19.37539
958.4493, 18.70193
958.9315, 18.51047
959.4136, 18.88700
959.8957, 20.03795
960.3778, 21.51645
960.8599, 22.06826
961.3420, 21.38879
961.8242, 21.41211
962.3063, 22.57248
962.7884, 23.34989
963.2705, 23.08472
963.7526, 22.45124
964.2347, 21.97696
964.7169, 21.69804
965.1990, 21.88404
965.6811, 22.42575
966.1632, 23.61946
966.6453, 26.47781
967.1274, 28.82368
967.6096, 29.53078
968.0917, 29.34669
968.5738, 28.89646
969.0559, 28.32154
969.5380, 28.64706
970.0201, 31.25952
970.5023, 33.29379
970.9844, 32.63420
971.4665, 32.00156
971.9486, 34.01664
972.4307, 37.66632
972.9128, 40.67316
973.3950, 42.43850
973.8771, 43.85723
974.3592, 44.54927
974.8413, 46.06656
975.3234, 50.02446
975.8055, 55.54722
976.2877, 61.76843
976.7698, 68.25680
977.2519, 74.07070
977.7340, 78.72332
978.2161, 83.92935
978.6982, 91.27127
979.1804, 100.5421
979.6625, 111.3458
980.1446, 123.6432
980.6267, 137.1343
981.1088, 151.8921
981.5909, 169.5048
982.0731, 191.1727
982.5552, 215.7581
983.0373, 241.4156
983.5194, 268.2501
984.0015, 297.7538
984.4836, 330.0542
984.9658, 363.1966
985.4479, 397.1104
985.9300, 427.3668
986.4121, 450.6279
986.8942, 465.8413
987.3763, 468.3703
987.8585, 457.2593
988.3406, 438.6841
988.8227, 411.2250
989.3048, 381.9020
989.7869, 352.9380
990.2690, 324.8812
990.7512, 298.4733
991.2333, 273.6945
991.7154, 250.9485
992.1975, 230.7254
992.6796, 211.4845
993.1617, 193.8479
993.6439, 176.2287
994.1260, 157.0224
994.6081, 137.7442
995.0902, 119.9849
995.5723, 103.6889
996.0544, 90.48447
996.5366, 82.10227
997.0187, 74.32820
997.5008, 65.89503
997.9829, 58.48711
998.4650, 53.80536
998.9471, 50.52949
999.4293, 46.14777
999.9114, 40.20471
1000.393, 35.83958
1000.876, 34.61804
1001.358, 34.26780
1001.840, 34.83642
1002.322, 35.05109
1002.804, 33.44186
1003.286, 30.65134
1003.768, 28.22637
1004.250, 26.59715
1004.733, 25.36109
1005.215, 24.48908
1005.697, 23.74334
1006.179, 22.92257
1006.661, 22.14289
1007.143, 21.48882
1007.625, 21.02993
1008.107, 20.96190
1008.589, 21.40018
1009.072, 21.79889
1009.554, 21.98061
1010.036, 21.64252
1010.518, 19.81389
1011.000, 17.40290
1011.482, 16.26801
1011.964, 16.53268
1012.446, 16.99825
1012.929, 16.99302
1013.411, 17.13565
1013.893, 18.70523
1014.375, 20.69544
1014.857, 20.96252
1015.339, 19.80445
1015.821, 18.09682
1016.303, 16.22693
1016.785, 15.27809
1017.268, 16.07355
1017.750, 17.64425
1018.232, 18.56026
1018.714, 18.88435
1019.196, 18.72001
1019.678, 18.15127
1020.160, 17.92762
1020.642, 18.24896
1021.125, 18.39891
1021.607, 17.78639
1022.089, 16.67607
1022.571, 15.48692
1023.053, 14.25230
1023.535, 13.91249
1024.017, 14.53722
1024.499, 15.20293
1024.981, 15.67991
1025.464, 15.59380
1025.946, 14.40818
1026.428, 12.75308
1026.910, 12.87183
1027.392, 15.05708
1027.874, 15.99671
1028.356, 15.19683
1028.838, 15.26729
1029.321, 17.65204
1029.803, 19.50304
1030.285, 17.59111
1030.767, 13.09439
1031.249, 11.55749
1031.731, 14.14760
1032.213, 15.10633
1032.695, 13.65790
1033.177, 12.05153
1033.660, 10.56929
1034.142, 10.23226
1034.624, 12.79327
1035.106, 17.45047
1035.588, 18.95731
1036.070, 15.45301
1036.552, 13.27655
1037.034, 13.00125
1037.516, 13.29902
1037.999, 14.10131
1038.481, 14.81372
1038.963, 14.65048
1039.445, 13.76375
1039.927, 13.33430
1040.409, 13.52292
1040.891, 13.88672
1041.373, 14.47858
1041.855, 15.17251
1042.338, 16.39781
1042.820, 17.35325
1043.302, 16.77757
1043.784, 14.98091
1044.266, 14.36479
1044.748, 16.08924
1045.230, 17.15775
1045.712, 16.70057
1046.195, 16.42372
1046.677, 17.72004
1047.159, 19.02623
1047.641, 18.06044
1048.123, 15.28015
1048.605, 14.19365
1049.087, 16.75715
1049.569, 18.13305
1050.052, 16.31860
1050.534, 14.72781
1051.016, 15.31392
1051.498, 16.65615
1051.980, 17.22901
1052.462, 17.00746
1052.944, 16.56431
1053.426, 15.56363
1053.908, 15.23649
1054.391, 16.54108
1054.873, 17.79720
1055.355, 18.20740
1055.837, 18.07833
1056.319, 17.53287
1056.801, 16.77968
1057.283, 16.60279
1057.765, 17.42714
1058.248, 18.26015
1058.730, 18.88673
1059.212, 19.36554
1059.694, 19.46708
1060.176, 19.62224
1060.658, 20.63739
1061.140, 22.21724
1061.622, 22.86429
1062.104, 21.72061
1062.587, 20.92520
1063.069, 21.73282
1063.551, 22.55307
1064.033, 22.34905
1064.515, 21.72950
1064.997, 21.57213
1065.479, 21.72224
1065.961, 21.18921
1066.443, 19.37026
1066.926, 18.01909
1067.408, 18.02604
1067.890, 18.50605
1068.372, 19.21846
1068.854, 19.90842
1069.336, 20.28211
1069.818, 20.40106
1070.300, 20.45718
1070.782, 20.36978
1071.265, 20.91087
1071.747, 23.52338
1072.229, 25.59189
1072.711, 25.39216
1073.193, 23.93470
1073.675, 21.51179
1074.157, 18.97883
1074.639, 18.39665
1075.122, 20.62234
1075.604, 22.56073
1076.086, 22.69464
1076.568, 22.25620
1077.050, 21.83753
1077.532, 21.31412
1078.014, 20.33577
1078.496, 19.16025
1078.979, 18.40172
1079.461, 18.21585
1079.943, 18.43388
1080.425, 19.35467
1080.907, 20.20052
1081.389, 20.78543
1081.871, 20.88312
1082.353, 19.89275
1082.835, 18.36854
1083.318, 17.50757
1083.800, 17.57345
1084.282, 17.66486
1084.764, 17.10970
1085.246, 16.85196
1085.728, 17.79559
1086.210, 18.83941
1086.692, 18.90261
1087.175, 18.40753
1087.657, 18.37672
1088.139, 18.92384
1088.621, 18.87108
1089.103, 17.24326
1089.585, 15.63537
1090.067, 13.92060
1090.549, 13.29481
1091.031, 15.70367
1091.514, 19.27496
1091.996, 21.30104
1092.478, 21.45760
1092.960, 20.83881
1093.442, 19.44714
1093.924, 18.01414
1094.406, 16.05136
1094.888, 14.94475
1095.370, 16.21722
1095.853, 18.47603
1096.335, 19.94189
1096.817, 20.60029
1097.299, 21.58154
1097.781, 23.72810
1098.263, 24.80880
1098.745, 22.81097
1099.227, 21.11398
1099.709, 22.18735
1100.192, 23.93318
1100.674, 23.90628
1101.156, 22.49852
1101.638, 21.72268
1102.120, 22.21039
1102.602, 22.36375
1103.084, 21.06876
1103.566, 20.29892
1104.049, 21.73481
1104.531, 23.21105
1105.013, 22.22358
1105.495, 19.96367
1105.977, 19.61101
1106.459, 21.88549
1106.941, 23.69449
1107.423, 24.71305
1107.906, 24.94992
1108.388, 23.63477
1108.870, 22.32443
1109.352, 22.11688
1109.834, 22.57211
1110.316, 22.84774
1110.798, 22.87479
1111.280, 23.26729
1111.762, 25.37307
1112.245, 25.88749
1112.727, 22.24378
1113.209, 19.40905
1113.691, 20.52370
1114.173, 23.32024
1114.655, 25.06023
1115.137, 25.79648
1115.619, 26.47104
1116.102, 27.05668
1116.584, 27.63243
1117.066, 28.40766
1117.548, 28.86374
1118.030, 28.81641
1118.512, 28.37530
1118.994, 27.52989
1119.476, 26.38703
1119.958, 25.27124
1120.441, 23.65055
1120.923, 23.97001
1121.405, 27.85671
1121.887, 29.96862
1122.369, 28.03748
1122.851, 25.65205
1123.333, 25.45796
1123.815, 26.64402
1124.297, 27.47469
1124.780, 27.94279
1125.262, 28.16848
1125.744, 27.85174
1126.226, 27.67011
1126.708, 26.22378
1127.190, 24.59345
1127.672, 22.89237
1128.154, 21.94614
1128.636, 23.21494
1129.119, 26.32865
1129.601, 28.07016
1130.083, 28.31672
1130.565, 28.82427
1131.047, 29.90433
1131.529, 29.66681
1132.011, 27.13184
1132.493, 24.68861
1132.976, 24.94162
1133.458, 23.81598
1133.940, 23.58028
1134.422, 24.41431
1134.904, 23.97573
1135.386, 25.21585
1135.868, 25.96750
1136.350, 25.63362
1136.833, 24.18035
1137.315, 21.38301
1137.797, 18.75016
1138.279, 19.41102
1138.761, 22.22149
1139.243, 23.15605
1139.725, 22.59300
1140.207, 22.23728
1140.689, 22.33810
1141.172, 22.36880
1141.654, 22.07709
1142.136, 21.56249
1142.618, 20.94765
1143.100, 20.16290
1143.582, 19.14370
1144.064, 17.84064
1144.546, 15.49152
1145.029, 12.81197
1145.511, 12.19867
1145.993, 14.15863
1146.475, 16.72736
1146.957, 18.83610
1147.439, 20.33709
1147.921, 21.20258
1148.403, 21.28053
1148.885, 19.62438
1149.368, 17.40938
1149.850, 16.91414
1150.332, 18.02329
1150.814, 18.67279
1151.296, 17.97338
1151.778, 17.00331
1152.260, 16.19954
1152.742, 15.59160
1153.224, 15.41879
1153.707, 15.26629
1154.189, 14.49942
1154.671, 13.44499
1155.153, 12.92543
1155.635, 13.10796
1156.117, 13.43649
1156.599, 13.81223
1157.081, 14.19935
1157.563, 14.69787
1158.046, 15.08314
1158.528, 14.85820
1159.010, 14.66129
1159.492, 15.90156
1159.974, 18.24695
1160.456, 18.55603
1160.938, 14.63009
1161.420, 12.45055
1161.903, 13.48599
1162.385, 14.52705
1162.867, 14.71920
1163.349, 14.60826
1163.831, 14.63573
1164.313, 14.64998
1164.795, 14.15451
1165.277, 12.95595
1165.760, 12.95172
1166.242, 14.54939
1166.724, 16.24084
1167.206, 18.29685
1167.688, 18.49959
1168.170, 14.99692
1168.652, 11.16156
1169.134, 11.64377
1169.616, 15.26202
1170.099, 16.21526
1170.581, 14.46214
1171.063, 13.72725
1171.545, 14.24470
1172.027, 14.57001
1172.509, 14.25949
1172.991, 14.06086
1173.473, 14.59697
1173.956, 15.26485
1174.438, 14.76949
1174.920, 13.62011
1175.402, 13.60108
1175.884, 14.41276
1176.366, 14.94106
1176.848, 15.06153
1177.330, 15.42928
1177.813, 16.26390
1178.295, 16.07329
1178.777, 12.85093
1179.259, 8.910610
1179.741, 6.504572
1180.223, 5.678759
1180.705, 7.070242
1181.187, 9.903991
1181.669, 13.34079
1182.151, 16.66061
1182.634, 17.70929
1183.116, 14.88115
1183.598, 12.01921
1184.080, 11.63170
1184.562, 11.66927
1185.044, 10.57901
1185.526, 9.365662
1186.008, 9.332689
1186.490, 10.02382
1186.973, 9.921564
1187.455, 8.675969
1187.937, 8.628477
1188.419, 11.94600
1188.901, 13.94728
1189.383, 12.30983
1189.865, 10.82152
1190.347, 12.15120
1190.830, 13.98055
1191.312, 13.42256
1191.794, 11.16055
1192.276, 10.66987
1192.758, 12.70292
1193.240, 13.88312
1193.722, 13.80298
1194.204, 14.24190
1194.687, 16.04887
1195.169, 16.89334
1195.651, 15.00787
1196.133, 12.16348
1196.615, 11.30859
1197.097, 12.00057
1197.579, 11.14690
1198.061, 8.901177
1198.543, 8.828300
1199.026, 11.04152
1199.508, 11.73877
1199.990, 9.725113
1200.472, 7.759988
1200.954, 8.046035
1201.436, 9.530172
1201.918, 11.01606
1202.400, 12.32355
1202.883, 13.08615
1203.365, 13.36559
1203.847, 13.05970
1204.329, 12.43863
1204.811, 12.49677
1205.293, 13.55826
1205.775, 14.28650
1206.257, 13.54962
1206.740, 12.45853
1207.222, 11.37856
1207.704, 10.73425
1208.186, 11.39425
1208.668, 12.45915
1209.150, 12.48706
1209.632, 11.56302
1210.114, 10.93559
1210.596, 10.93941
1211.078, 11.05297
1211.561, 11.39403
1212.043, 11.52645
1212.525, 10.93992
1213.007, 10.53002
1213.489, 11.43384
1213.971, 12.41920
1214.453, 11.08745
1214.935, 7.694611
1215.417, 7.195711
1215.900, 10.68694
1216.382, 13.00053
1216.864, 13.89642
1217.346, 13.04570
1217.828, 9.839380
1218.310, 7.730785
1218.792, 9.613839
1219.274, 13.13255
1219.757, 13.87657
1220.239, 12.43790
1220.721, 11.39296
1221.203, 10.78924
1221.685, 11.18940
1222.167, 12.37958
1222.649, 12.90210
1223.131, 12.28292
1223.614, 11.24822
1224.096, 10.07279
1224.578, 9.568689
1225.060, 11.28726
1225.542, 13.59243
1226.024, 14.61432
1226.506, 14.79359
1226.988, 14.78720
1227.470, 14.75797
1227.953, 14.92215
1228.435, 15.36881
1228.917, 15.08139
1229.399, 12.29108
1229.881, 10.69671
1230.363, 12.62499
1230.845, 14.80876
1231.327, 16.06651
1231.810, 15.99800
1232.292, 13.02723
1232.774, 8.389484
1233.256, 7.223646
1233.738, 10.81726
1234.220, 12.23868
1234.702, 10.75022
1235.184, 9.400045
1235.667, 8.637444
1236.149, 8.496677
1236.631, 9.049495
1237.113, 10.00400
1237.595, 11.06206
1238.077, 12.16956
1238.559, 13.43495
1239.041, 14.63309
1239.523, 14.45458
1240.005, 13.07372
1240.488, 11.44850
1240.970, 9.874958
1241.452, 8.455548
1241.934, 7.223349
1242.416, 6.846879
1242.898, 8.617268
1243.380, 10.75341
1243.862, 11.42259
1244.344, 11.52432
1244.827, 12.22927
1245.309, 13.05278
1245.791, 12.87445
1246.273, 11.79125
1246.755, 11.06868
1247.237, 11.16107
1247.719, 11.15475
1248.201, 10.52503
1248.684, 10.21722
1249.166, 10.64843
1249.648, 11.33892
1250.130, 12.29239
1250.612, 13.07277
1251.094, 13.01645
1251.576, 12.26541
1252.058, 11.70313
1252.541, 11.31301
1253.023, 11.31170
1253.505, 11.75313
1253.987, 11.88919
1254.469, 11.53281
1254.951, 11.70023
1255.433, 13.03634
1255.915, 14.03224
1256.397, 12.43140
1256.880, 9.840693
1257.362, 9.619628
1257.844, 10.64945
1258.326, 10.81600
1258.808, 10.27373
1259.290, 9.646502
1259.772, 9.192196
1260.254, 9.322535
1260.737, 10.30447
1261.219, 11.06655
1261.701, 11.23825
1262.183, 10.79174
1262.665, 8.630927
1263.147, 6.990814
1263.629, 8.048748
1264.111, 10.26872
1264.594, 11.64602
1265.076, 12.14106
1265.558, 11.89617
1266.040, 12.41575
1266.522, 12.58311
1267.004, 11.89284
1267.486, 12.56557
1267.968, 11.43855
1268.450, 10.18007
1268.932, 9.603505
1269.415, 9.511113
1269.897, 9.741169
1270.379, 10.14814
1270.861, 10.33794
1271.343, 10.73846
1271.825, 10.83890
1272.307, 11.45317
1272.789, 11.96045
1273.271, 12.23892
1273.754, 12.01423
1274.236, 11.20566
1274.718, 10.54002
1275.200, 10.64101
1275.682, 10.79762
1276.164, 10.33559
1276.646, 10.06069
1277.128, 10.86921
1277.611, 11.93979
1278.093, 12.18974
1278.575, 11.87941
1279.057, 12.06440
1279.539, 12.86278
1280.021, 13.45228
1280.503, 13.85747
1280.985, 13.98844
1281.468, 13.86900
1281.950, 13.24399
1282.432, 11.87895
1282.914, 10.82102
1283.396, 11.00983
1283.878, 11.73426
1284.360, 11.63168
1284.842, 11.01242
1285.324, 10.75388
##END=



