##NAMES=Serpierite
##RRUFFID=R060475
##IDEAL CHEMISTRY=Ca(Cu^2+^,Zn^2+^)_4_(S^6+^O_4_)_2_(OH)_6_&#183;3H_2_O
##LOCALITY=Oh mine, Gila County, Arizona, USA
##OWNER=RRUFF
##SOURCE=Michael Scott
##DESCRIPTION=Divergent sprays of blue bladed crystals associated with ktenasite, R090002
##STATUS=The identification of this mineral has been confirmed by single-crystal X-ray diffraction.
##URL=rruff.info/R060475
177.7553, 4350.588
178.2374, 4391.309
178.7195, 4422.009
179.2017, 4445.451
179.6838, 4465.293
180.1659, 4486.920
180.6480, 4510.877
181.1301, 4534.127
181.6122, 4553.964
182.0944, 4571.114
182.5765, 4587.216
183.0586, 4603.114
183.5407, 4618.570
184.0228, 4634.653
184.5049, 4651.732
184.9871, 4666.627
185.4692, 4672.938
185.9513, 4672.310
186.4334, 4673.473
186.9155, 4682.209
187.3976, 4696.026
187.8798, 4706.274
188.3619, 4711.805
188.8440, 4716.569
189.3261, 4726.368
189.8082, 4740.906
190.2903, 4755.789
190.7725, 4768.569
191.2546, 4779.800
191.7367, 4791.309
192.2188, 4802.886
192.7009, 4815.571
193.1830, 4831.678
193.6652, 4851.148
194.1473, 4870.313
194.6294, 4886.162
195.1115, 4899.065
195.5936, 4914.596
196.0757, 4933.924
196.5579, 4954.473
197.0400, 4970.961
197.5221, 4983.083
198.0042, 4994.529
198.4863, 5007.312
198.9684, 5021.396
199.4506, 5036.594
199.9327, 5053.671
200.4148, 5070.742
200.8969, 5083.025
201.3790, 5090.083
201.8611, 5095.653
202.3433, 5101.585
202.8254, 5107.879
203.3075, 5114.795
203.7896, 5122.255
204.2717, 5130.310
204.7538, 5139.664
205.2360, 5150.995
205.7181, 5160.814
206.2002, 5165.540
206.6823, 5163.593
207.1644, 5166.776
207.6465, 5177.946
208.1287, 5193.622
208.6108, 5202.755
209.0929, 5202.733
209.5750, 5203.269
210.0571, 5211.635
210.5392, 5230.485
211.0214, 5244.446
211.5035, 5250.574
211.9856, 5251.549
212.4677, 5257.447
212.9498, 5270.699
213.4319, 5283.801
213.9141, 5291.803
214.3962, 5292.967
214.8783, 5295.820
215.3604, 5301.665
215.8425, 5309.703
216.3246, 5316.361
216.8067, 5321.236
217.2889, 5325.545
217.7710, 5330.204
218.2531, 5335.705
218.7352, 5339.665
219.2173, 5340.892
219.6994, 5340.299
220.1816, 5342.502
220.6637, 5348.390
221.1458, 5355.265
221.6279, 5361.392
222.1100, 5366.501
222.5921, 5371.669
223.0743, 5377.582
223.5564, 5383.692
224.0385, 5387.426
224.5206, 5387.859
225.0027, 5387.500
225.4848, 5387.831
225.9670, 5389.034
226.4491, 5390.851
226.9312, 5393.556
227.4133, 5396.982
227.8954, 5400.040
228.3775, 5401.673
228.8597, 5404.462
229.3418, 5410.227
229.8239, 5420.518
230.3060, 5430.063
230.7881, 5438.457
231.2702, 5445.688
231.7524, 5451.179
232.2345, 5452.721
232.7166, 5455.245
233.1987, 5462.122
233.6808, 5476.654
234.1629, 5487.700
234.6451, 5493.089
235.1272, 5494.296
235.6093, 5498.117
236.0914, 5505.520
236.5735, 5514.192
237.0556, 5523.456
237.5378, 5535.747
238.0199, 5543.250
238.5020, 5543.335
238.9841, 5538.447
239.4662, 5538.515
239.9483, 5546.692
240.4305, 5555.855
240.9126, 5562.340
241.3947, 5565.093
241.8768, 5567.776
242.3589, 5570.471
242.8410, 5573.271
243.3232, 5576.294
243.8053, 5578.431
244.2874, 5582.244
244.7695, 5589.411
245.2516, 5602.540
245.7337, 5612.811
246.2159, 5618.699
246.6980, 5621.553
247.1801, 5625.858
247.6622, 5632.590
248.1443, 5639.138
248.6264, 5644.157
249.1086, 5647.109
249.5907, 5649.733
250.0728, 5651.630
250.5549, 5653.389
251.0370, 5656.973
251.5191, 5664.722
252.0013, 5670.822
252.4834, 5672.280
252.9655, 5666.521
253.4476, 5663.184
253.9297, 5663.059
254.4118, 5665.104
254.8940, 5667.419
255.3761, 5671.543
255.8582, 5673.162
256.3403, 5670.041
256.8224, 5660.742
257.3046, 5650.991
257.7867, 5639.989
258.2688, 5628.946
258.7509, 5620.677
259.2330, 5616.600
259.7151, 5612.359
260.1973, 5606.250
260.6794, 5598.092
261.1615, 5589.177
261.6436, 5579.224
262.1257, 5568.936
262.6078, 5559.807
263.0900, 5552.904
263.5721, 5545.092
264.0542, 5534.671
264.5363, 5520.642
265.0184, 5511.010
265.5005, 5506.982
265.9827, 5505.938
266.4648, 5503.816
266.9469, 5499.802
267.4290, 5497.324
267.9111, 5498.471
268.3932, 5503.675
268.8754, 5503.797
269.3575, 5496.948
269.8396, 5487.690
270.3217, 5481.314
270.8038, 5477.584
271.2859, 5477.263
271.7681, 5481.463
272.2502, 5489.900
272.7323, 5497.064
273.2144, 5503.258
273.6965, 5507.216
274.1786, 5506.559
274.6608, 5500.174
275.1429, 5495.397
275.6250, 5494.811
276.1071, 5497.622
276.5892, 5496.853
277.0714, 5491.235
277.5535, 5485.727
278.0356, 5485.681
278.5177, 5491.675
278.9998, 5496.912
279.4819, 5500.307
279.9641, 5501.805
280.4462, 5500.696
280.9283, 5496.593
281.4104, 5491.438
281.8925, 5487.011
282.3746, 5483.369
282.8568, 5478.007
283.3389, 5469.403
283.8210, 5459.911
284.3031, 5456.880
284.7852, 5461.060
285.2673, 5466.489
285.7495, 5468.935
286.2316, 5468.736
286.7137, 5469.018
287.1958, 5469.946
287.6779, 5472.029
288.1600, 5477.089
288.6422, 5485.164
289.1243, 5492.780
289.6064, 5496.764
290.0885, 5497.909
290.5706, 5500.377
291.0527, 5504.479
291.5349, 5509.783
292.0170, 5516.034
292.4991, 5523.015
292.9812, 5529.847
293.4633, 5536.660
293.9454, 5542.921
294.4276, 5546.215
294.9097, 5545.836
295.3918, 5545.021
295.8739, 5548.384
296.3560, 5555.150
296.8381, 5561.705
297.3203, 5565.239
297.8024, 5567.561
298.2845, 5573.167
298.7666, 5582.511
299.2487, 5591.829
299.7308, 5596.452
300.2130, 5597.938
300.6951, 5600.689
301.1772, 5607.414
301.6593, 5615.902
302.1414, 5623.474
302.6235, 5630.040
303.1057, 5635.462
303.5878, 5638.700
304.0699, 5640.748
304.5520, 5643.366
305.0341, 5647.071
305.5162, 5651.667
305.9984, 5657.429
306.4805, 5664.154
306.9626, 5670.776
307.4447, 5676.076
307.9268, 5680.952
308.4089, 5686.475
308.8911, 5693.017
309.3732, 5700.166
309.8553, 5707.291
310.3374, 5714.636
310.8195, 5723.194
311.3016, 5733.736
311.7838, 5745.482
312.2659, 5758.304
312.7480, 5773.139
313.2301, 5786.458
313.7122, 5793.916
314.1943, 5798.424
314.6765, 5805.972
315.1586, 5821.916
315.6407, 5839.848
316.1228, 5855.958
316.6049, 5869.358
317.0870, 5882.417
317.5692, 5896.412
318.0513, 5910.578
318.5334, 5923.749
319.0155, 5935.790
319.4976, 5946.592
319.9797, 5955.114
320.4619, 5960.982
320.9440, 5968.665
321.4261, 5981.283
321.9082, 5995.412
322.3903, 6007.752
322.8724, 6016.894
323.3546, 6024.755
323.8367, 6031.319
324.3188, 6036.641
324.8009, 6042.216
325.2830, 6052.081
325.7651, 6059.971
326.2473, 6061.828
326.7294, 6050.875
327.2115, 6041.547
327.6936, 6034.837
328.1757, 6030.903
328.6578, 6029.749
329.1400, 6035.264
329.6221, 6040.531
330.1042, 6042.570
330.5863, 6038.642
331.0684, 6036.098
331.5505, 6035.475
332.0327, 6036.036
332.5148, 6036.145
332.9969, 6034.819
333.4790, 6033.916
333.9611, 6033.745
334.4432, 6033.904
334.9254, 6035.913
335.4075, 6041.530
335.8896, 6047.162
336.3717, 6047.393
336.8538, 6040.001
337.3359, 6032.212
337.8180, 6025.212
338.3001, 6019.080
338.7823, 6018.102
339.2644, 6025.226
339.7465, 6032.025
340.2286, 6029.334
340.7107, 6015.663
341.1928, 6002.261
341.6750, 5991.453
342.1571, 5982.736
342.6392, 5974.698
343.1213, 5967.337
343.6034, 5960.629
344.0855, 5954.533
344.5677, 5949.108
345.0498, 5943.890
345.5319, 5938.531
346.0140, 5933.939
346.4961, 5932.800
346.9782, 5934.952
347.4604, 5936.256
347.9425, 5933.363
348.4246, 5927.552
348.9067, 5923.753
349.3888, 5922.452
349.8709, 5922.032
350.3531, 5920.515
350.8352, 5918.186
351.3173, 5916.138
351.7994, 5913.787
352.2815, 5912.282
352.7636, 5914.055
353.2458, 5919.040
353.7279, 5924.710
354.2100, 5929.778
354.6921, 5933.866
355.1742, 5936.427
355.6563, 5937.814
356.1385, 5936.984
356.6206, 5930.796
357.1027, 5920.518
357.5848, 5912.714
358.0669, 5914.060
358.5490, 5918.299
359.0312, 5919.290
359.5133, 5914.690
359.9954, 5909.483
360.4775, 5905.802
360.9596, 5903.688
361.4417, 5903.201
361.9239, 5906.704
362.4060, 5910.146
362.8881, 5911.150
363.3702, 5909.132
363.8523, 5906.681
364.3344, 5904.360
364.8166, 5902.167
365.2987, 5900.081
365.7808, 5896.651
366.2629, 5894.854
366.7450, 5896.005
367.2271, 5900.086
367.7093, 5904.133
368.1914, 5908.916
368.6735, 5912.771
369.1556, 5914.580
369.6377, 5911.086
370.1198, 5909.388
370.6020, 5909.882
371.0841, 5912.292
371.5662, 5916.031
372.0483, 5923.780
372.5304, 5929.408
373.0125, 5929.473
373.4947, 5920.257
373.9768, 5916.276
374.4589, 5919.348
374.9410, 5926.138
375.4231, 5931.380
375.9052, 5934.729
376.3874, 5937.974
376.8695, 5942.248
377.3516, 5947.601
377.8337, 5949.492
378.3158, 5947.092
378.7979, 5944.050
379.2801, 5944.055
379.7622, 5947.272
380.2443, 5950.938
380.7264, 5954.123
381.2085, 5957.800
381.6906, 5965.842
382.1728, 5978.269
382.6549, 5989.446
383.1370, 5993.156
383.6191, 5991.745
384.1012, 5995.377
384.5833, 6006.061
385.0655, 6018.183
385.5476, 6023.250
386.0297, 6023.033
386.5118, 6023.912
386.9939, 6030.321
387.4760, 6039.156
387.9582, 6046.143
388.4403, 6051.289
388.9224, 6055.440
389.4045, 6058.615
389.8866, 6061.482
390.3687, 6064.990
390.8509, 6069.528
391.3330, 6074.855
391.8151, 6081.729
392.2972, 6089.628
392.7793, 6096.387
393.2614, 6100.123
393.7436, 6102.811
394.2257, 6105.315
394.7078, 6106.194
395.1899, 6110.695
395.6720, 6122.763
396.1541, 6139.171
396.6363, 6154.775
397.1184, 6168.700
397.6005, 6181.190
398.0826, 6191.851
398.5647, 6200.399
399.0468, 6209.393
399.5290, 6218.724
400.0111, 6228.789
400.4932, 6239.889
400.9753, 6251.472
401.4574, 6264.983
401.9395, 6281.306
402.4217, 6299.826
402.9038, 6317.161
403.3859, 6332.401
403.8680, 6347.851
404.3501, 6364.822
404.8322, 6383.717
405.3144, 6402.027
405.7965, 6418.821
406.2786, 6435.860
406.7607, 6455.570
407.2428, 6477.873
407.7249, 6503.452
408.2071, 6533.476
408.6892, 6567.063
409.1713, 6596.767
409.6534, 6621.772
410.1355, 6648.193
410.6176, 6683.617
411.0998, 6726.359
411.5819, 6765.490
412.0640, 6797.936
412.5461, 6827.467
413.0282, 6861.078
413.5103, 6898.039
413.9925, 6934.809
414.4746, 6968.172
414.9567, 7000.796
415.4388, 7036.607
415.9209, 7076.442
416.4030, 7117.458
416.8852, 7161.702
417.3673, 7205.276
417.8494, 7242.014
418.3315, 7263.245
418.8136, 7282.567
419.2957, 7309.881
419.7779, 7343.910
420.2600, 7377.249
420.7421, 7408.723
421.2242, 7436.907
421.7063, 7459.709
422.1884, 7475.143
422.6706, 7489.386
423.1527, 7508.692
423.6348, 7527.434
424.1169, 7535.189
424.5990, 7522.117
425.0811, 7505.824
425.5633, 7491.140
426.0454, 7478.406
426.5275, 7464.867
427.0096, 7452.985
427.4917, 7437.926
427.9738, 7415.151
428.4560, 7380.928
428.9381, 7346.769
429.4202, 7314.912
429.9023, 7284.146
430.3844, 7247.638
430.8665, 7203.407
431.3487, 7159.660
431.8308, 7120.243
432.3129, 7085.412
432.7950, 7053.315
433.2771, 7024.107
433.7592, 6997.747
434.2414, 6973.969
434.7235, 6952.771
435.2056, 6933.616
435.6877, 6916.624
436.1698, 6901.552
436.6519, 6887.559
437.1341, 6874.718
437.6162, 6863.456
438.0983, 6854.956
438.5804, 6847.952
439.0625, 6839.931
439.5446, 6830.000
440.0268, 6820.693
440.5089, 6814.325
440.9910, 6810.201
441.4731, 6807.010
441.9552, 6805.321
442.4373, 6803.317
442.9195, 6799.176
443.4016, 6792.877
443.8837, 6787.432
444.3658, 6785.324
444.8479, 6783.688
445.3300, 6780.241
445.8122, 6771.936
446.2943, 6764.967
446.7764, 6760.711
447.2585, 6758.453
447.7406, 6756.442
448.2227, 6758.681
448.7049, 6756.992
449.1870, 6747.653
449.6691, 6728.907
450.1512, 6714.016
450.6333, 6704.636
451.1154, 6697.670
451.5976, 6690.533
452.0797, 6683.623
452.5618, 6675.730
453.0439, 6666.074
453.5260, 6655.832
454.0081, 6648.428
454.4903, 6644.331
454.9724, 6640.114
455.4545, 6631.814
455.9366, 6620.754
456.4187, 6617.047
456.9008, 6621.797
457.3830, 6629.337
457.8651, 6633.162
458.3472, 6634.197
458.8293, 6635.374
459.3114, 6637.481
459.7935, 6640.171
460.2757, 6643.982
460.7578, 6648.346
461.2399, 6650.810
461.7220, 6647.890
462.2041, 6643.420
462.6862, 6641.011
463.1684, 6641.377
463.6505, 6643.210
464.1326, 6649.536
464.6147, 6655.972
465.0968, 6656.867
465.5789, 6642.632
466.0611, 6630.855
466.5432, 6628.607
467.0253, 6635.095
467.5074, 6639.117
467.9895, 6637.308
468.4716, 6634.548
468.9538, 6632.926
469.4359, 6631.938
469.9180, 6633.308
470.4001, 6638.428
470.8822, 6644.819
471.3643, 6648.455
471.8465, 6647.967
472.3286, 6648.490
472.8107, 6651.788
473.2928, 6657.121
473.7749, 6660.339
474.2570, 6661.024
474.7392, 6661.440
475.2213, 6663.130
475.7034, 6666.008
476.1855, 6670.037
476.6676, 6675.818
477.1497, 6680.892
477.6319, 6680.618
478.1140, 6676.629
478.5961, 6674.124
479.0782, 6675.956
479.5603, 6680.139
480.0424, 6685.333
480.5246, 6691.294
481.0067, 6695.937
481.4888, 6697.377
481.9709, 6697.186
482.4530, 6696.776
482.9352, 6696.654
483.4173, 6695.568
483.8994, 6691.495
484.3815, 6686.378
484.8636, 6683.243
485.3457, 6682.688
485.8279, 6684.190
486.3100, 6689.176
486.7921, 6697.646
487.2742, 6702.469
487.7563, 6701.576
488.2384, 6699.407
488.7206, 6698.917
489.2027, 6702.590
489.6848, 6701.089
490.1669, 6692.029
490.6490, 6680.376
491.1311, 6674.675
491.6133, 6676.076
492.0954, 6675.665
492.5775, 6669.472
493.0596, 6659.634
493.5417, 6654.563
494.0238, 6654.251
494.5060, 6654.754
494.9881, 6654.117
495.4702, 6651.857
495.9523, 6646.058
496.4344, 6635.673
496.9165, 6625.104
497.3987, 6620.821
497.8808, 6619.281
498.3629, 6613.922
498.8450, 6597.234
499.3271, 6579.945
499.8092, 6570.242
500.2914, 6566.758
500.7735, 6562.326
501.2556, 6553.906
501.7377, 6543.905
502.2198, 6533.627
502.7019, 6522.946
503.1841, 6512.777
503.6662, 6502.979
504.1483, 6493.954
504.6304, 6486.380
505.1125, 6482.008
505.5946, 6476.285
506.0768, 6467.279
506.5589, 6456.178
507.0410, 6449.479
507.5231, 6448.712
508.0052, 6447.854
508.4873, 6443.180
508.9695, 6434.658
509.4516, 6427.110
509.9337, 6420.346
510.4158, 6415.196
510.8979, 6414.807
511.3800, 6417.513
511.8622, 6415.393
512.3443, 6404.068
512.8264, 6390.290
513.3085, 6382.791
513.7906, 6380.495
514.2728, 6379.497
514.7549, 6378.474
515.2370, 6377.313
515.7191, 6376.680
516.2012, 6376.803
516.6833, 6374.385
517.1655, 6364.636
517.6476, 6353.508
518.1297, 6346.120
518.6118, 6346.966
519.0939, 6347.400
519.5760, 6345.892
520.0582, 6343.106
520.5403, 6340.453
521.0224, 6336.035
521.5045, 6334.422
521.9866, 6337.467
522.4688, 6345.141
522.9509, 6352.554
523.4330, 6360.603
523.9151, 6366.228
524.3972, 6364.936
524.8793, 6356.432
525.3615, 6354.262
525.8436, 6360.729
526.3257, 6370.523
526.8078, 6375.935
527.2899, 6377.656
527.7720, 6379.048
528.2542, 6382.475
528.7363, 6385.399
529.2184, 6384.236
529.7005, 6379.375
530.1826, 6372.903
530.6647, 6362.783
531.1469, 6353.723
531.6290, 6350.677
532.1111, 6355.776
532.5932, 6360.192
533.0753, 6359.624
533.5574, 6357.106
534.0396, 6355.788
534.5217, 6359.218
535.0038, 6360.489
535.4859, 6357.036
535.9680, 6350.709
536.4501, 6347.280
536.9323, 6347.732
537.4144, 6349.476
537.8965, 6352.048
538.3786, 6355.467
538.8607, 6356.919
539.3428, 6355.779
539.8250, 6354.315
540.3071, 6355.298
540.7892, 6358.251
541.2713, 6358.310
541.7534, 6353.536
542.2355, 6348.862
542.7177, 6353.042
543.1998, 6363.462
543.6819, 6371.712
544.1640, 6373.000
544.6461, 6370.956
545.1282, 6366.948
545.6104, 6361.758
546.0925, 6359.892
546.5746, 6366.792
547.0567, 6375.659
547.5388, 6382.122
548.0209, 6385.193
548.5031, 6387.078
548.9852, 6386.528
549.4673, 6385.813
549.9494, 6387.459
550.4315, 6394.739
550.9136, 6399.051
551.3958, 6397.914
551.8779, 6393.549
552.3600, 6393.229
552.8421, 6398.363
553.3242, 6402.439
553.8063, 6402.458
554.2885, 6398.903
554.7706, 6394.980
555.2527, 6390.548
555.7348, 6387.449
556.2169, 6389.185
556.6990, 6393.487
557.1812, 6393.826
557.6633, 6388.321
558.1454, 6382.312
558.6275, 6381.354
559.1096, 6383.492
559.5917, 6385.218
560.0739, 6384.643
560.5560, 6383.808
561.0381, 6382.483
561.5202, 6381.367
562.0023, 6383.383
562.4844, 6395.765
562.9666, 6405.774
563.4487, 6405.927
563.9308, 6393.080
564.4129, 6385.979
564.8950, 6387.292
565.3771, 6391.319
565.8593, 6393.250
566.3414, 6392.242
566.8235, 6392.964
567.3056, 6396.904
567.7877, 6401.158
568.2698, 6399.282
568.7520, 6391.718
569.2341, 6385.778
569.7162, 6384.828
570.1983, 6386.920
570.6804, 6389.531
571.1625, 6392.446
571.6447, 6393.762
572.1268, 6389.719
572.6089, 6385.055
573.0910, 6384.939
573.5731, 6390.509
574.0552, 6396.418
574.5374, 6399.702
575.0195, 6402.465
575.5016, 6406.655
575.9837, 6415.673
576.4658, 6422.113
576.9479, 6423.398
577.4301, 6421.933
577.9122, 6422.370
578.3943, 6424.600
578.8764, 6428.658
579.3585, 6435.341
579.8406, 6443.896
580.3228, 6449.392
580.8049, 6451.563
581.2870, 6452.264
581.7691, 6452.448
582.2512, 6452.251
582.7333, 6452.295
583.2155, 6452.805
583.6976, 6452.794
584.1797, 6449.557
584.6617, 6445.728
585.1439, 6445.592
585.6260, 6450.875
586.1081, 6459.353
586.5902, 6474.058
587.0723, 6490.625
587.5544, 6500.377
588.0366, 6492.161
588.5187, 6485.663
589.0008, 6488.281
589.4829, 6499.559
589.9650, 6508.433
590.4471, 6513.327
590.9293, 6517.478
591.4114, 6521.892
591.8935, 6526.235
592.3756, 6533.323
592.8577, 6544.257
593.3398, 6554.890
593.8220, 6559.541
594.3041, 6559.292
594.7862, 6563.192
595.2683, 6574.315
595.7504, 6586.583
596.2325, 6590.647
596.7147, 6589.611
597.1968, 6591.342
597.6789, 6600.890
598.1610, 6613.303
598.6431, 6628.086
599.1252, 6643.669
599.6074, 6653.198
600.0895, 6646.881
600.5716, 6640.286
601.0537, 6641.844
601.5358, 6654.533
602.0179, 6663.748
602.5001, 6667.438
602.9822, 6669.482
603.4643, 6672.693
603.9464, 6677.424
604.4285, 6682.178
604.9106, 6687.108
605.3928, 6691.692
605.8749, 6694.181
606.3570, 6694.914
606.8391, 6698.744
607.3212, 6709.386
607.8033, 6720.950
608.2855, 6723.174
608.7676, 6718.120
609.2497, 6713.591
609.7318, 6716.427
610.2139, 6719.532
610.6960, 6716.470
611.1782, 6707.134
611.6603, 6698.417
612.1424, 6693.737
612.6245, 6689.622
613.1066, 6684.170
613.5887, 6677.788
614.0709, 6668.675
614.5530, 6655.197
615.0351, 6640.545
615.5172, 6627.774
615.9993, 6617.008
616.4814, 6607.376
616.9636, 6598.905
617.4457, 6591.315
617.9278, 6583.693
618.4099, 6576.121
618.8920, 6569.837
619.3741, 6566.962
619.8563, 6564.266
620.3384, 6555.698
620.8205, 6542.424
621.3026, 6530.531
621.7847, 6523.812
622.2668, 6519.522
622.7490, 6516.612
623.2311, 6515.206
623.7132, 6512.170
624.1953, 6503.477
624.6774, 6495.249
625.1595, 6492.218
625.6417, 6500.307
626.1238, 6502.008
626.6059, 6494.495
627.0880, 6483.957
627.5701, 6478.764
628.0522, 6479.481
628.5344, 6480.593
629.0165, 6480.879
629.4986, 6481.026
629.9807, 6482.656
630.4628, 6485.453
630.9449, 6487.845
631.4271, 6488.126
631.9092, 6488.067
632.3913, 6489.570
632.8734, 6492.422
633.3555, 6495.610
633.8376, 6498.181
634.3198, 6501.137
634.8019, 6505.578
635.2840, 6512.229
635.7661, 6516.884
636.2482, 6518.214
636.7303, 6518.262
637.2125, 6518.330
637.6946, 6518.474
638.1767, 6518.630
638.6588, 6518.693
639.1409, 6519.131
639.6230, 6521.731
640.1052, 6526.224
640.5873, 6526.875
641.0694, 6520.378
641.5515, 6512.695
642.0336, 6514.478
642.5157, 6522.795
642.9979, 6529.111
643.4800, 6527.379
643.9621, 6523.568
644.4442, 6521.667
644.9263, 6521.384
645.4084, 6520.631
645.8906, 6517.497
646.3727, 6514.860
646.8548, 6514.973
647.3369, 6518.718
647.8190, 6518.497
648.3011, 6513.002
648.7833, 6505.536
649.2654, 6497.837
649.7475, 6489.579
650.2296, 6484.748
650.7117, 6484.201
651.1938, 6484.506
651.6760, 6480.387
652.1581, 6473.507
652.6402, 6469.443
653.1223, 6470.667
653.6044, 6472.860
654.0865, 6472.384
654.5687, 6469.998
655.0508, 6467.208
655.5329, 6465.290
656.0150, 6462.284
656.4971, 6455.093
656.9792, 6445.402
657.4614, 6442.164
657.9435, 6451.560
658.4256, 6459.054
658.9077, 6459.096
659.3898, 6452.064
659.8719, 6448.578
660.3541, 6449.710
660.8362, 6449.295
661.3183, 6439.698
661.8004, 6424.553
662.2825, 6419.430
662.7646, 6425.695
663.2468, 6433.070
663.7289, 6433.093
664.2110, 6428.591
664.6931, 6422.592
665.1752, 6414.314
665.6573, 6408.634
666.1395, 6409.920
666.6216, 6414.177
667.1037, 6416.468
667.5858, 6412.170
668.0679, 6411.141
668.5500, 6415.666
669.0322, 6423.195
669.5143, 6428.463
669.9964, 6431.562
670.4785, 6431.575
670.9606, 6426.346
671.4427, 6419.071
671.9249, 6420.106
672.4070, 6428.421
672.8891, 6436.005
673.3712, 6437.739
673.8533, 6436.354
674.3354, 6434.513
674.8176, 6432.344
675.2997, 6430.046
675.7818, 6426.418
676.2639, 6423.752
676.7460, 6423.823
677.2281, 6427.701
677.7103, 6431.017
678.1924, 6433.754
678.6745, 6435.735
679.1566, 6436.435
679.6387, 6435.168
680.1208, 6436.271
680.6030, 6440.695
681.0851, 6445.505
681.5672, 6445.908
682.0493, 6443.205
682.5314, 6443.641
683.0135, 6449.967
683.4957, 6456.784
683.9778, 6457.873
684.4599, 6455.383
684.9420, 6453.364
685.4241, 6453.463
685.9063, 6454.189
686.3884, 6455.838
686.8705, 6457.843
687.3526, 6458.105
687.8347, 6454.574
688.3168, 6452.406
688.7990, 6453.651
689.2811, 6457.646
689.7632, 6459.412
690.2453, 6458.694
690.7274, 6457.758
691.2095, 6458.160
691.6917, 6459.317
692.1738, 6459.713
692.6559, 6459.267
693.1380, 6457.638
693.6201, 6452.688
694.1022, 6447.430
694.5844, 6444.923
695.0665, 6445.830
695.5486, 6447.222
696.0307, 6447.135
696.5128, 6447.648
696.9949, 6450.709
697.4771, 6459.244
697.9592, 6464.263
698.4413, 6465.501
698.9234, 6463.670
699.4055, 6458.403
699.8876, 6449.688
700.3698, 6444.323
700.8519, 6444.701
701.3340, 6446.060
701.8161, 6439.854
702.2982, 6429.374
702.7803, 6422.869
703.2625, 6426.133
703.7446, 6431.122
704.2267, 6432.225
704.7088, 6431.071
705.1909, 6431.239
705.6730, 6436.286
706.1552, 6439.545
706.6373, 6438.257
707.1194, 6433.603
707.6015, 6431.256
708.0836, 6431.332
708.5657, 6433.071
709.0479, 6436.834
709.5300, 6441.809
710.0121, 6444.949
710.4942, 6446.210
710.9763, 6445.792
711.4584, 6442.354
711.9406, 6438.102
712.4227, 6436.528
712.9048, 6437.707
713.3869, 6437.469
713.8690, 6433.044
714.3511, 6427.223
714.8333, 6421.297
715.3154, 6414.542
715.7975, 6411.938
716.2796, 6417.718
716.7617, 6422.773
717.2438, 6418.465
717.7260, 6403.603
718.2081, 6393.916
718.6902, 6390.894
719.1723, 6391.330
719.6544, 6391.598
720.1365, 6392.412
720.6187, 6396.310
721.1008, 6405.373
721.5829, 6412.813
722.0650, 6410.731
722.5471, 6404.810
723.0292, 6402.667
723.5114, 6411.646
723.9935, 6417.975
724.4756, 6416.623
724.9577, 6412.319
725.4398, 6413.401
725.9219, 6421.665
726.4041, 6429.812
726.8862, 6436.753
727.3683, 6442.054
727.8504, 6443.724
728.3325, 6442.229
728.8146, 6440.752
729.2968, 6441.842
729.7789, 6442.716
730.2610, 6438.880
730.7431, 6431.914
731.2252, 6427.069
731.7073, 6429.854
732.1895, 6432.109
732.6716, 6429.385
733.1537, 6422.055
733.6358, 6417.313
734.1179, 6415.784
734.6000, 6415.998
735.0822, 6418.642
735.5643, 6423.103
736.0464, 6421.509
736.5285, 6413.593
737.0106, 6405.726
737.4927, 6402.339
737.9749, 6402.085
738.4570, 6403.115
738.9391, 6405.287
739.4212, 6407.658
739.9033, 6411.553
740.3854, 6414.048
740.8676, 6412.146
741.3497, 6403.594
741.8318, 6398.390
742.3139, 6399.177
742.7960, 6400.966
743.2781, 6400.396
743.7603, 6397.155
744.2424, 6393.606
744.7245, 6389.648
745.2066, 6386.239
745.6887, 6383.930
746.1708, 6383.021
746.6530, 6385.057
747.1351, 6391.146
747.6172, 6395.929
748.0993, 6393.237
748.5814, 6388.113
749.0635, 6386.292
749.5457, 6391.660
750.0278, 6396.123
750.5099, 6396.330
750.9920, 6396.438
751.4741, 6402.331
751.9562, 6416.325
752.4384, 6425.024
752.9205, 6425.409
753.4026, 6421.894
753.8847, 6420.317
754.3668, 6420.645
754.8489, 6423.567
755.3311, 6431.724
755.8132, 6437.845
756.2953, 6431.653
756.7774, 6419.624
757.2595, 6413.255
757.7416, 6425.093
758.2238, 6432.498
758.7059, 6426.215
759.1880, 6413.307
759.6701, 6409.155
760.1522, 6417.419
760.6343, 6422.698
761.1165, 6420.194
761.5986, 6413.456
762.0807, 6411.034
762.5628, 6412.373
763.0449, 6414.073
763.5270, 6414.701
764.0092, 6414.842
764.4913, 6415.026
764.9734, 6415.142
765.4555, 6414.891
765.9376, 6412.938
766.4197, 6411.805
766.9019, 6413.163
767.3840, 6416.179
767.8661, 6416.983
768.3482, 6414.821
768.8303, 6412.459
769.3124, 6410.740
769.7946, 6409.728
770.2767, 6409.803
770.7588, 6410.887
771.2409, 6412.293
771.7230, 6415.055
772.2051, 6416.964
772.6873, 6414.384
773.1694, 6408.150
773.6515, 6404.562
774.1336, 6408.911
774.6157, 6413.456
775.0978, 6415.028
775.5800, 6413.732
776.0621, 6411.225
776.5442, 6406.725
777.0263, 6403.329
777.5084, 6403.272
777.9905, 6405.775
778.4727, 6406.976
778.9548, 6406.944
779.4369, 6407.558
779.9190, 6411.215
780.4011, 6415.361
780.8832, 6417.511
781.3654, 6417.437
781.8475, 6416.561
782.3296, 6414.583
782.8117, 6412.542
783.2938, 6410.826
783.7759, 6409.412
784.2581, 6409.190
784.7402, 6410.705
785.2223, 6412.029
785.7044, 6413.006
786.1865, 6412.923
786.6686, 6407.019
787.1508, 6395.317
787.6329, 6385.414
788.1150, 6383.195
788.5971, 6385.255
789.0792, 6389.242
789.5613, 6395.214
790.0435, 6399.621
790.5256, 6400.390
791.0077, 6400.208
791.4898, 6399.963
791.9719, 6399.181
792.4540, 6401.282
792.9362, 6406.720
793.4183, 6412.542
793.9004, 6417.478
794.3825, 6420.674
794.8646, 6418.239
795.3467, 6409.815
795.8289, 6402.503
796.3110, 6403.328
796.7931, 6406.462
797.2752, 6407.477
797.7573, 6405.916
798.2394, 6401.919
798.7216, 6392.707
799.2037, 6384.439
799.6858, 6381.804
800.1679, 6385.940
800.6500, 6387.010
801.1321, 6384.666
801.6143, 6381.756
802.0964, 6380.173
802.5785, 6380.036
803.0606, 6382.650
803.5427, 6388.411
804.0248, 6391.858
804.5070, 6386.367
804.9891, 6379.546
805.4712, 6377.446
805.9533, 6382.523
806.4354, 6386.343
806.9175, 6387.510
807.3997, 6389.257
807.8818, 6395.562
808.3639, 6406.132
808.8460, 6409.759
809.3281, 6405.714
809.8102, 6399.056
810.2924, 6392.490
810.7745, 6386.992
811.2566, 6384.579
811.7387, 6385.943
812.2208, 6386.536
812.7029, 6382.939
813.1851, 6379.194
813.6672, 6378.103
814.1493, 6380.069
814.6314, 6383.435
815.1135, 6388.711
815.5956, 6394.040
816.0778, 6398.844
816.5599, 6402.515
817.0420, 6400.486
817.5241, 6392.305
818.0062, 6386.017
818.4883, 6389.211
818.9705, 6396.379
819.4526, 6403.065
819.9347, 6408.960
820.4168, 6411.539
820.8989, 6407.937
821.3810, 6402.903
821.8632, 6398.757
822.3453, 6395.695
822.8274, 6391.665
823.3095, 6386.503
823.7916, 6382.451
824.2737, 6383.483
824.7559, 6386.462
825.2380, 6383.588
825.7201, 6374.725
826.2022, 6367.712
826.6843, 6369.529
827.1664, 6373.179
827.6486, 6373.603
828.1307, 6369.644
828.6128, 6367.722
829.0949, 6368.122
829.5770, 6370.001
830.0591, 6374.108
830.5413, 6379.825
831.0234, 6379.519
831.5055, 6373.236
831.9876, 6368.068
832.4697, 6371.953
832.9518, 6377.735
833.4340, 6376.168
833.9161, 6367.425
834.3982, 6361.500
834.8803, 6364.842
835.3624, 6368.939
835.8445, 6370.573
836.3267, 6369.771
836.8088, 6365.910
837.2909, 6358.119
837.7730, 6351.528
838.2551, 6349.339
838.7372, 6350.356
839.2194, 6352.365
839.7015, 6355.090
840.1836, 6356.835
840.6657, 6353.391
841.1478, 6351.527
841.6299, 6359.201
842.1121, 6374.425
842.5942, 6378.167
843.0763, 6361.443
843.5584, 6347.518
844.0405, 6344.225
844.5226, 6349.026
845.0048, 6352.859
845.4869, 6355.683
845.9690, 6357.521
846.4511, 6358.696
846.9332, 6358.599
847.4153, 6355.297
847.8975, 6350.139
848.3796, 6346.866
848.8617, 6349.640
849.3438, 6351.355
849.8259, 6349.845
850.3080, 6346.087
850.7902, 6341.847
851.2723, 6336.708
851.7544, 6334.322
852.2365, 6336.483
852.7186, 6340.814
853.2007, 6343.027
853.6829, 6343.902
854.1650, 6345.611
854.6471, 6349.775
855.1292, 6353.871
855.6113, 6356.875
856.0934, 6358.831
856.5756, 6359.843
857.0577, 6359.082
857.5398, 6359.175
858.0219, 6360.875
858.5040, 6362.733
858.9861, 6361.470
859.4683, 6357.913
859.9504, 6357.077
860.4325, 6360.900
860.9146, 6365.104
861.3967, 6366.200
861.8788, 6365.170
862.3610, 6363.254
862.8431, 6361.057
863.3252, 6357.280
863.8073, 6350.852
864.2894, 6344.040
864.7715, 6338.682
865.2537, 6334.774
865.7358, 6335.475
866.2179, 6342.089
866.7000, 6346.827
867.1821, 6338.434
867.6642, 6324.693
868.1464, 6317.073
868.6285, 6317.842
869.1106, 6320.889
869.5927, 6324.703
870.0748, 6329.372
870.5569, 6335.838
871.0391, 6345.211
871.5212, 6346.050
872.0033, 6335.743
872.4854, 6326.392
872.9675, 6329.318
873.4496, 6339.287
873.9318, 6344.303
874.4139, 6344.068
874.8960, 6341.656
875.3781, 6336.366
875.8602, 6331.600
876.3423, 6330.642
876.8245, 6333.578
877.3066, 6332.497
877.7887, 6324.740
878.2708, 6320.036
878.7529, 6324.879
879.2350, 6334.997
879.7172, 6333.485
880.1993, 6322.362
880.6814, 6313.671
881.1635, 6316.725
881.6456, 6322.239
882.1277, 6322.852
882.6099, 6320.211
883.0920, 6319.454
883.5741, 6322.209
884.0562, 6325.750
884.5383, 6330.293
885.0204, 6334.486
885.5026, 6333.870
885.9847, 6328.881
886.4668, 6328.572
886.9489, 6337.405
887.4310, 6347.318
887.9131, 6349.357
888.3953, 6346.616
888.8774, 6343.832
889.3595, 6343.992
889.8416, 6341.754
890.3237, 6334.240
890.8058, 6326.107
891.2880, 6322.286
891.7701, 6323.151
892.2522, 6325.298
892.7343, 6329.037
893.2164, 6330.404
893.6985, 6320.956
894.1807, 6308.282
894.6628, 6304.784
895.1449, 6313.898
895.6270, 6320.624
896.1091, 6317.649
896.5912, 6312.249
897.0734, 6308.601
897.5555, 6306.860
898.0376, 6306.149
898.5197, 6306.735
899.0018, 6307.360
899.4839, 6307.202
899.9661, 6306.575
900.4482, 6306.265
900.9303, 6306.131
901.4124, 6305.091
901.8945, 6300.234
902.3766, 6296.615
902.8588, 6297.285
903.3409, 6301.295
903.8230, 6304.442
904.3051, 6306.174
904.7872, 6309.142
905.2693, 6315.407
905.7515, 6321.808
906.2336, 6320.071
906.7157, 6312.979
907.1978, 6308.756
907.6799, 6312.589
908.1620, 6317.732
908.6442, 6323.677
909.1263, 6328.178
909.6084, 6327.190
910.0905, 6317.283
910.5726, 6311.730
911.0547, 6312.642
911.5369, 6316.019
912.0190, 6316.342
912.5011, 6314.870
912.9832, 6315.928
913.4653, 6320.970
913.9474, 6323.750
914.4296, 6315.811
914.9117, 6306.843
915.3938, 6306.193
915.8759, 6317.288
916.3580, 6323.230
916.8401, 6322.597
917.3223, 6320.061
917.8044, 6318.315
918.2865, 6317.291
918.7686, 6316.933
919.2507, 6317.191
919.7328, 6317.382
920.2150, 6318.704
920.6971, 6318.490
921.1792, 6314.202
921.6613, 6306.450
922.1434, 6299.917
922.6255, 6293.708
923.1077, 6291.453
923.5898, 6295.483
924.0719, 6302.740
924.5540, 6306.809
925.0361, 6307.877
925.5182, 6306.541
926.0004, 6300.750
926.4825, 6296.077
926.9646, 6296.913
927.4467, 6300.579
927.9288, 6303.065
928.4109, 6303.057
928.8931, 6304.341
929.3752, 6308.614
929.8573, 6311.045
930.3394, 6303.656
930.8215, 6289.757
931.3036, 6281.346
931.7858, 6280.132
932.2679, 6280.719
932.7500, 6280.399
933.2321, 6279.754
933.7142, 6280.032
934.1964, 6281.959
934.6785, 6278.796
935.1606, 6268.156
935.6427, 6258.523
936.1248, 6253.951
936.6069, 6253.951
937.0891, 6258.837
937.5712, 6267.546
938.0533, 6274.537
938.5354, 6275.283
939.0175, 6274.798
939.4996, 6275.460
939.9818, 6276.940
940.4639, 6278.321
940.9460, 6279.642
941.4281, 6280.061
941.9102, 6278.977
942.3923, 6277.570
942.8745, 6278.190
943.3566, 6280.095
943.8387, 6280.545
944.3208, 6277.807
944.8029, 6277.711
945.2850, 6288.055
945.7672, 6299.872
946.2493, 6304.283
946.7314, 6299.253
947.2135, 6295.240
947.6956, 6292.783
948.1777, 6289.781
948.6599, 6282.167
949.1420, 6273.483
949.6241, 6273.943
950.1062, 6282.666
950.5883, 6290.873
951.0704, 6292.842
951.5526, 6294.011
952.0347, 6297.860
952.5168, 6303.228
952.9989, 6305.521
953.4810, 6304.406
953.9631, 6301.365
954.4453, 6295.924
954.9274, 6290.395
955.4095, 6288.766
955.8916, 6290.003
956.3737, 6292.042
956.8558, 6295.578
957.3380, 6297.408
957.8201, 6295.742
958.3022, 6292.437
958.7843, 6288.544
959.2664, 6283.268
959.7485, 6283.097
960.2307, 6288.869
960.7128, 6294.967
961.1949, 6294.823
961.6770, 6292.699
962.1591, 6294.638
962.6412, 6300.918
963.1234, 6308.514
963.6055, 6318.027
964.0876, 6326.721
964.5697, 6333.308
965.0518, 6338.261
965.5339, 6344.468
966.0161, 6351.885
966.4982, 6357.592
966.9803, 6357.742
967.4624, 6360.047
967.9445, 6378.147
968.4266, 6403.100
968.9088, 6419.786
969.3909, 6416.117
969.8730, 6415.354
970.3551, 6418.599
970.8372, 6425.883
971.3193, 6437.929
971.8015, 6454.448
972.2836, 6472.810
972.7657, 6492.768
973.2478, 6516.350
973.7299, 6544.607
974.2120, 6577.984
974.6942, 6616.565
975.1763, 6660.592
975.6584, 6711.466
976.1405, 6769.357
976.6226, 6834.121
977.1047, 6905.363
977.5869, 6983.735
978.0690, 7068.605
978.5511, 7160.029
979.0332, 7260.547
979.5153, 7369.425
979.9974, 7491.692
980.4796, 7624.576
980.9617, 7775.809
981.4438, 7954.849
981.9259, 8168.681
982.4080, 8394.004
982.8901, 8630.181
983.3723, 8880.603
983.8544, 9160.005
984.3365, 9452.205
984.8186, 9736.312
985.3007, 10010.28
985.7828, 10242.39
986.2650, 10457.51
986.7471, 10586.08
987.2292, 10603.55
987.7113, 10516.05
988.1934, 10340.22
988.6755, 10073.10
989.1577, 9779.759
989.6398, 9473.825
990.1219, 9177.134
990.6040, 8915.512
991.0861, 8683.064
991.5682, 8470.168
992.0504, 8286.334
992.5325, 8104.006
993.0146, 7917.690
993.4967, 7735.990
993.9788, 7560.657
994.4609, 7392.557
994.9431, 7237.689
995.4252, 7095.926
995.9073, 6971.665
996.3894, 6870.059
996.8715, 6783.687
997.3536, 6706.419
997.8358, 6639.187
998.3179, 6582.697
998.8000, 6537.822
999.2821, 6501.175
999.7642, 6472.654
1000.246, 6449.720
1000.728, 6429.655
1001.211, 6411.350
1001.693, 6392.489
1002.175, 6370.990
1002.657, 6351.535
1003.139, 6335.956
1003.621, 6323.842
1004.103, 6315.122
1004.585, 6310.359
1005.068, 6305.655
1005.550, 6300.881
1006.032, 6296.508
1006.514, 6293.234
1006.996, 6290.142
1007.478, 6286.567
1007.960, 6282.141
1008.442, 6275.640
1008.924, 6261.116
1009.407, 6251.911
1009.889, 6252.873
1010.371, 6258.451
1010.853, 6256.588
1011.335, 6248.435
1011.817, 6242.164
1012.299, 6240.660
1012.781, 6237.424
1013.263, 6223.407
1013.746, 6208.119
1014.228, 6201.875
1014.710, 6207.726
1015.192, 6210.088
1015.674, 6208.379
1016.156, 6205.286
1016.638, 6201.518
1017.120, 6197.858
1017.603, 6195.037
1018.085, 6193.567
1018.567, 6195.539
1019.049, 6206.915
1019.531, 6215.290
1020.013, 6214.618
1020.495, 6210.208
1020.977, 6210.359
1021.459, 6215.141
1021.942, 6215.877
1022.424, 6210.865
1022.906, 6206.291
1023.388, 6210.929
1023.870, 6216.984
1024.352, 6216.081
1024.834, 6206.927
1025.316, 6198.435
1025.799, 6190.625
1026.281, 6185.294
1026.763, 6183.541
1027.245, 6184.654
1027.727, 6188.319
1028.209, 6193.282
1028.691, 6195.078
1029.173, 6190.497
1029.656, 6184.712
1030.138, 6178.907
1030.620, 6173.783
1031.102, 6169.624
1031.584, 6165.914
1032.066, 6166.029
1032.548, 6170.236
1033.030, 6175.375
1033.512, 6178.568
1033.995, 6181.278
1034.477, 6186.247
1034.959, 6192.757
1035.441, 6195.927
1035.923, 6190.796
1036.405, 6188.287
1036.887, 6191.986
1037.369, 6197.745
1037.851, 6197.293
1038.334, 6191.856
1038.816, 6185.431
1039.298, 6178.355
1039.780, 6173.183
1040.262, 6173.507
1040.744, 6174.846
1041.226, 6173.067
1041.708, 6167.809
1042.191, 6165.959
1042.673, 6167.725
1043.155, 6171.097
1043.637, 6175.580
1044.119, 6180.584
1044.601, 6185.969
1045.083, 6191.215
1045.565, 6194.930
1046.047, 6197.138
1046.530, 6196.594
1047.012, 6191.047
1047.494, 6185.963
1047.976, 6188.677
1048.458, 6197.452
1048.940, 6202.884
1049.422, 6204.415
1049.904, 6208.361
1050.386, 6225.727
1050.869, 6240.208
1051.351, 6236.896
1051.833, 6221.622
1052.315, 6219.155
1052.797, 6231.249
1053.279, 6242.872
1053.761, 6250.331
1054.243, 6255.118
1054.726, 6257.979
1055.208, 6259.926
1055.690, 6262.120
1056.172, 6264.222
1056.654, 6268.933
1057.136, 6278.046
1057.618, 6286.736
1058.100, 6291.611
1058.583, 6293.859
1059.065, 6298.643
1059.547, 6305.261
1060.029, 6310.465
1060.511, 6310.290
1060.993, 6310.876
1061.475, 6316.120
1061.957, 6322.968
1062.439, 6326.405
1062.922, 6325.524
1063.404, 6331.221
1063.886, 6345.197
1064.368, 6357.435
1064.850, 6356.554
1065.332, 6351.361
1065.814, 6350.025
1066.296, 6353.010
1066.778, 6357.958
1067.261, 6365.787
1067.743, 6372.382
1068.225, 6376.063
1068.707, 6378.896
1069.189, 6385.369
1069.671, 6393.809
1070.153, 6400.115
1070.635, 6402.630
1071.118, 6405.166
1071.600, 6411.933
1072.082, 6416.396
1072.564, 6414.154
1073.046, 6405.904
1073.528, 6399.068
1074.010, 6393.710
1074.492, 6388.814
1074.974, 6385.221
1075.457, 6380.558
1075.939, 6372.790
1076.421, 6362.893
1076.903, 6352.496
1077.385, 6340.079
1077.867, 6329.267
1078.349, 6311.541
1078.831, 6293.222
1079.313, 6275.816
1079.796, 6260.997
1080.278, 6253.435
1080.760, 6251.842
1081.242, 6247.286
1081.724, 6233.991
1082.206, 6221.020
1082.688, 6209.691
1083.170, 6200.505
1083.652, 6195.760
1084.135, 6194.186
1084.617, 6190.708
1085.099, 6184.110
1085.581, 6178.014
1086.063, 6175.379
1086.545, 6173.233
1087.027, 6168.990
1087.509, 6167.783
1087.992, 6161.607
1088.474, 6164.408
1088.956, 6166.277
1089.438, 6164.934
1089.920, 6161.996
1090.402, 6155.849
1090.884, 6150.461
1091.366, 6152.185
1091.849, 6166.850
1092.331, 6174.224
1092.813, 6172.566
1093.295, 6169.501
1093.777, 6170.658
1094.259, 6174.142
1094.741, 6177.269
1095.223, 6179.647
1095.705, 6180.194
1096.188, 6174.568
1096.670, 6172.429
1097.152, 6175.928
1097.634, 6182.331
1098.116, 6189.328
1098.598, 6196.328
1099.080, 6199.636
1099.562, 6199.010
1100.044, 6199.637
1100.527, 6208.494
1101.009, 6215.708
1101.491, 6214.754
1101.973, 6208.352
1102.455, 6204.302
1102.937, 6202.667
1103.419, 6203.002
1103.901, 6206.007
1104.384, 6207.982
1104.866, 6202.041
1105.348, 6195.432
1105.830, 6196.882
1106.312, 6208.704
1106.794, 6213.807
1107.276, 6210.376
1107.758, 6207.196
1108.240, 6207.870
1108.723, 6211.490
1109.205, 6218.062
1109.687, 6226.140
1110.169, 6232.877
1110.651, 6235.191
1111.133, 6240.958
1111.615, 6253.650
1112.097, 6264.504
1112.579, 6264.587
1113.062, 6257.533
1113.544, 6256.042
1114.026, 6259.438
1114.508, 6264.025
1114.990, 6268.315
1115.472, 6273.335
1115.954, 6282.041
1116.436, 6289.439
1116.919, 6286.181
1117.401, 6273.602
1117.883, 6271.458
1118.365, 6281.547
1118.847, 6292.674
1119.329, 6297.961
1119.811, 6300.617
1120.293, 6301.910
1120.776, 6302.302
1121.258, 6302.377
1121.740, 6301.749
1122.222, 6304.229
1122.704, 6310.859
1123.186, 6319.272
1123.668, 6328.771
1124.150, 6337.680
1124.632, 6343.228
1125.115, 6344.539
1125.597, 6350.120
1126.079, 6360.331
1126.561, 6374.062
1127.043, 6391.970
1127.525, 6411.755
1128.007, 6431.026
1128.489, 6449.213
1128.971, 6464.947
1129.454, 6477.119
1129.936, 6489.623
1130.418, 6504.491
1130.900, 6517.026
1131.382, 6522.217
1131.864, 6523.950
1132.346, 6537.315
1132.828, 6558.036
1133.311, 6572.021
1133.793, 6569.962
1134.275, 6564.165
1134.757, 6556.922
1135.239, 6547.545
1135.721, 6535.133
1136.203, 6519.766
1136.685, 6500.937
1137.167, 6478.937
1137.650, 6458.566
1138.132, 6447.079
1138.614, 6433.120
1139.096, 6408.948
1139.578, 6379.531
1140.060, 6351.916
1140.542, 6325.936
1141.024, 6304.767
1141.506, 6288.982
1141.989, 6275.371
1142.471, 6262.196
1142.953, 6249.490
1143.435, 6237.329
1143.917, 6225.718
1144.399, 6213.580
1144.881, 6200.640
1145.363, 6189.947
1145.846, 6182.633
1146.328, 6176.300
1146.810, 6167.429
1147.292, 6158.818
1147.774, 6154.107
1148.256, 6154.068
1148.738, 6150.810
1149.220, 6142.415
1149.703, 6137.655
1150.185, 6141.648
1150.667, 6146.627
1151.149, 6138.330
1151.631, 6124.176
1152.113, 6117.203
1152.595, 6124.632
1153.077, 6121.937
1153.559, 6103.487
1154.042, 6085.216
1154.524, 6076.070
1155.006, 6072.283
1155.488, 6066.448
1155.970, 6058.972
1156.452, 6050.971
1156.934, 6041.747
1157.416, 6034.097
1157.898, 6028.895
1158.381, 6024.353
1158.863, 6018.588
1159.345, 6015.244
1159.827, 6012.433
1160.309, 6008.984
1160.791, 6008.576
1161.273, 6006.958
1161.755, 6005.125
1162.238, 6003.591
1162.720, 6001.515
1163.202, 5996.812
1163.684, 5990.374
1164.166, 5989.491
1164.648, 5993.696
1165.130, 5995.970
1165.612, 5990.581
1166.094, 5984.315
1166.577, 5979.694
1167.059, 5976.306
1167.541, 5973.995
1168.023, 5972.680
1168.505, 5971.346
1168.987, 5969.955
1169.469, 5966.219
1169.951, 5953.690
1170.433, 5943.206
1170.916, 5943.257
1171.398, 5949.771
1171.880, 5953.813
1172.362, 5955.383
1172.844, 5952.306
1173.326, 5943.240
1173.808, 5936.547
1174.290, 5944.574
1174.773, 5953.213
1175.255, 5947.788
1175.737, 5932.044
1176.219, 5928.909
1176.701, 5939.236
1177.183, 5942.829
1177.665, 5932.450
1178.147, 5920.289
1178.630, 5917.932
1179.112, 5919.647
1179.594, 5920.205
1180.076, 5919.302
1180.558, 5918.494
1181.040, 5917.829
1181.522, 5917.182
1182.004, 5916.677
1182.486, 5915.816
1182.969, 5911.981
1183.451, 5908.576
1183.933, 5910.981
1184.415, 5921.330
1184.897, 5925.162
1185.379, 5921.650
1185.861, 5916.296
1186.343, 5910.185
1186.825, 5905.955
1187.308, 5908.542
1187.790, 5914.483
1188.272, 5918.755
1188.754, 5922.279
1189.236, 5917.580
1189.718, 5902.709
1190.200, 5890.142
1190.682, 5889.911
1191.165, 5895.023
1191.647, 5898.831
1192.129, 5900.641
1192.611, 5898.614
1193.093, 5889.254
1193.575, 5883.935
1194.057, 5883.586
1194.539, 5884.168
1195.021, 5881.864
1195.504, 5878.960
1195.986, 5878.502
1196.468, 5880.028
1196.950, 5882.237
1197.432, 5885.591
1197.914, 5888.193
1198.396, 5890.417
1198.878, 5889.835
1199.360, 5880.225
1199.843, 5868.871
1200.325, 5869.118
1200.807, 5877.831
1201.289, 5880.106
1201.771, 5869.475
1202.253, 5861.591
1202.735, 5858.262
1203.217, 5858.144
1203.700, 5860.569
1204.182, 5864.819
1204.664, 5870.942
1205.146, 5878.244
1205.628, 5882.836
1206.110, 5883.563
1206.592, 5882.039
1207.074, 5877.198
1207.557, 5873.487
1208.039, 5877.834
1208.521, 5885.985
1209.003, 5892.202
1209.485, 5895.967
1209.967, 5899.178
1210.449, 5904.263
1210.931, 5903.309
1211.413, 5892.969
1211.896, 5880.659
1212.378, 5876.045
1212.860, 5875.985
1213.342, 5877.516
1213.824, 5880.287
1214.306, 5877.596
1214.788, 5866.234
1215.270, 5857.399
1215.752, 5854.478
1216.235, 5854.407
1216.717, 5855.007
1217.199, 5854.517
1217.681, 5849.209
1218.163, 5838.058
1218.645, 5830.837
1219.127, 5828.717
1219.609, 5828.944
1220.092, 5831.413
1220.574, 5834.059
1221.056, 5833.859
1221.538, 5831.781
1222.020, 5828.681
1222.502, 5824.362
1222.984, 5821.920
1223.466, 5821.285
1223.948, 5823.139
1224.431, 5829.086
1224.913, 5834.672
1225.395, 5832.058
1225.877, 5825.581
1226.359, 5821.217
1226.841, 5820.439
1227.323, 5819.606
1227.805, 5818.792
1228.287, 5817.655
1228.770, 5816.669
1229.252, 5814.154
1229.734, 5804.654
1230.216, 5793.800
1230.698, 5789.951
1231.180, 5796.023
1231.662, 5800.947
1232.144, 5805.146
1232.627, 5806.110
1233.109, 5802.142
1233.591, 5795.470
1234.073, 5787.032
1234.555, 5778.479
1235.037, 5772.280
1235.519, 5769.247
1236.001, 5764.270
1236.484, 5756.768
1236.966, 5753.868
1237.448, 5761.924
1237.930, 5771.938
1238.412, 5776.108
1238.894, 5775.950
1239.376, 5772.398
1239.858, 5764.631
1240.340, 5760.720
1240.823, 5760.639
1241.305, 5763.884
1241.787, 5773.530
1242.269, 5781.350
1242.751, 5777.278
1243.233, 5768.819
1243.715, 5765.715
1244.197, 5768.770
1244.679, 5770.320
1245.162, 5770.417
1245.644, 5770.158
1246.126, 5771.117
1246.608, 5770.842
1247.090, 5766.442
1247.572, 5760.936
1248.054, 5757.820
1248.536, 5757.247
1249.019, 5757.761
1249.501, 5759.287
1249.983, 5759.975
1250.465, 5757.276
1250.947, 5755.454
1251.429, 5759.225
1251.911, 5762.750
1252.393, 5759.013
1252.875, 5748.625
1253.358, 5746.247
1253.840, 5750.725
1254.322, 5754.885
1254.804, 5755.748
1255.286, 5754.344
1255.768, 5749.985
1256.250, 5744.471
1256.732, 5737.706
1257.214, 5730.859
1257.697, 5733.228
1258.179, 5742.773
1258.661, 5749.710
1259.143, 5748.149
1259.625, 5745.798
1260.107, 5743.704
1260.589, 5742.309
1261.071, 5742.010
1261.554, 5742.702
1262.036, 5745.054
1262.518, 5748.104
1263.000, 5748.791
1263.482, 5743.498
1263.964, 5739.057
1264.446, 5735.603
1264.928, 5733.774
1265.411, 5735.750
1265.893, 5738.825
1266.375, 5736.889
1266.857, 5731.765
1267.339, 5728.485
1267.821, 5729.017
1268.303, 5731.345
1268.785, 5736.626
1269.267, 5739.672
1269.750, 5734.917
1270.232, 5726.771
1270.714, 5719.063
1271.196, 5712.746
1271.678, 5710.495
1272.160, 5714.281
1272.642, 5714.651
1273.124, 5710.696
1273.606, 5708.536
1274.089, 5715.725
1274.571, 5723.470
1275.053, 5722.516
1275.535, 5717.001
1276.017, 5714.859
1276.499, 5717.138
1276.981, 5716.646
1277.463, 5713.308
1277.946, 5709.342
1278.428, 5706.337
1278.910, 5703.232
1279.392, 5698.461
1279.874, 5694.124
1280.356, 5693.056
1280.838, 5695.224
1281.320, 5695.929
1281.802, 5695.194
1282.285, 5693.753
1282.767, 5690.482
1283.249, 5688.522
1283.731, 5689.801
1284.213, 5691.831
1284.695, 5692.056
1285.177, 5691.079
1285.659, 5692.255
1286.141, 5695.114
1286.624, 5697.764
1287.106, 5700.153
1287.588, 5700.834
1288.070, 5699.172
1288.552, 5697.015
1289.034, 5695.631
1289.516, 5695.014
1289.998, 5696.672
1290.481, 5698.953
1290.963, 5697.525
1291.445, 5686.218
1291.927, 5680.431
1292.409, 5681.126
1292.891, 5683.829
1293.373, 5684.728
1293.855, 5686.346
1294.338, 5695.537
1294.820, 5706.667
1295.302, 5707.907
1295.784, 5695.910
1296.266, 5685.805
1296.748, 5677.503
1297.230, 5672.546
1297.712, 5673.451
1298.194, 5676.104
1298.677, 5678.087
1299.159, 5679.203
1299.641, 5679.249
1300.123, 5678.157
1300.605, 5674.064
1301.087, 5667.296
1301.569, 5661.180
1302.051, 5659.150
1302.533, 5654.097
1303.016, 5643.333
##END=



