##NAMES=Sewardite
##RRUFFID=R141206
##IDEAL CHEMISTRY=CaFe^3+^_2_(As^5+^O_4_)_2_(OH)_2_
##LOCALITY=Tsumeb, Namibia
##OWNER=RRUFF
##SOURCE=Shields Flynn
##DESCRIPTION=Reddish crystalline massive in scorodite
##STATUS=The identification of this mineral has been confirmed only by single crystal X-ray diffraction.
##URL=rruff.info/R141206
113.4069, 2776.681
113.8890, 2844.662
114.3712, 2908.477
114.8533, 2967.053
115.3354, 3021.664
115.8175, 3072.766
116.2996, 3121.227
116.7817, 3165.394
117.2639, 3204.906
117.7460, 3240.373
118.2281, 3272.528
118.7102, 3300.844
119.1923, 3326.620
119.6744, 3349.996
120.1566, 3370.717
120.6387, 3390.392
121.1208, 3408.589
121.6029, 3426.218
122.0850, 3445.017
122.5671, 3466.488
123.0493, 3489.161
123.5314, 3511.749
124.0135, 3534.252
124.4956, 3555.913
124.9777, 3574.660
125.4598, 3591.281
125.9420, 3608.681
126.4241, 3628.256
126.9062, 3649.863
127.3883, 3673.499
127.8704, 3699.707
128.3525, 3727.130
128.8347, 3754.347
129.3168, 3781.399
129.7989, 3807.113
130.2810, 3830.506
130.7631, 3851.792
131.2452, 3873.017
131.7274, 3895.769
132.2095, 3918.305
132.6916, 3935.955
133.1737, 3948.708
133.6558, 3957.529
134.1379, 3963.608
134.6201, 3966.972
135.1022, 3967.451
135.5843, 3965.932
136.0664, 3961.863
136.5485, 3949.751
137.0306, 3927.809
137.5128, 3901.824
137.9949, 3877.159
138.4770, 3853.311
138.9591, 3832.862
139.4412, 3816.611
139.9233, 3804.802
140.4055, 3795.101
140.8876, 3787.123
141.3697, 3781.515
141.8518, 3779.423
142.3339, 3781.259
142.8160, 3785.512
143.2982, 3791.709
143.7803, 3799.745
144.2624, 3809.961
144.7445, 3822.816
145.2266, 3837.768
145.7087, 3852.903
146.1909, 3868.082
146.6730, 3884.010
147.1551, 3901.496
147.6372, 3923.646
148.1193, 3941.995
148.6014, 3956.863
149.0836, 3968.045
149.5657, 3975.245
150.0478, 3978.366
150.5299, 3977.488
151.0120, 3972.554
151.4941, 3961.898
151.9763, 3949.196
152.4584, 3934.301
152.9405, 3917.268
153.4226, 3898.268
153.9047, 3875.951
154.3868, 3852.503
154.8690, 3829.111
155.3511, 3803.709
155.8332, 3780.692
156.3153, 3761.945
156.7974, 3746.979
157.2795, 3731.756
157.7617, 3714.516
158.2438, 3697.242
158.7259, 3681.376
159.2080, 3668.335
159.6901, 3655.793
160.1722, 3643.740
160.6544, 3632.085
161.1365, 3619.032
161.6186, 3603.559
162.1007, 3586.654
162.5828, 3568.831
163.0649, 3550.418
163.5471, 3531.111
164.0292, 3511.501
164.5113, 3491.573
164.9934, 3468.540
165.4755, 3439.958
165.9576, 3407.558
166.4398, 3373.914
166.9219, 3341.646
167.4040, 3306.786
167.8861, 3265.789
168.3682, 3217.991
168.8503, 3170.095
169.3325, 3125.667
169.8146, 3083.917
170.2967, 3044.210
170.7788, 3006.410
171.2609, 2969.899
171.7430, 2933.702
172.2252, 2897.217
172.7073, 2864.250
173.1894, 2838.553
173.6715, 2818.542
174.1536, 2801.439
174.6357, 2784.542
175.1179, 2769.926
175.6000, 2760.749
176.0821, 2757.877
176.5642, 2757.500
177.0463, 2756.185
177.5284, 2754.390
178.0106, 2753.542
178.4927, 2754.211
178.9748, 2756.368
179.4569, 2759.983
179.9390, 2765.129
180.4211, 2771.626
180.9033, 2780.139
181.3854, 2790.291
181.8675, 2799.984
182.3496, 2808.347
182.8317, 2815.379
183.3138, 2821.451
183.7960, 2826.488
184.2781, 2830.685
184.7602, 2834.729
185.2423, 2838.449
185.7244, 2840.204
186.2065, 2837.680
186.6887, 2832.073
187.1708, 2828.001
187.6529, 2826.195
188.1350, 2825.536
188.6171, 2824.156
189.0992, 2822.057
189.5814, 2820.175
190.0635, 2818.762
190.5456, 2817.930
191.0277, 2818.403
191.5098, 2820.115
191.9919, 2823.396
192.4741, 2828.917
192.9562, 2836.664
193.4383, 2846.292
193.9204, 2857.327
194.4025, 2869.817
194.8846, 2884.831
195.3668, 2902.927
195.8489, 2923.118
196.3310, 2943.314
196.8131, 2963.535
197.2952, 2983.445
197.7773, 3003.187
198.2595, 3022.686
198.7416, 3041.836
199.2237, 3061.372
199.7058, 3079.761
200.1879, 3092.168
200.6700, 3098.202
201.1522, 3100.624
201.6343, 3101.302
202.1164, 3100.350
202.5985, 3096.539
203.0806, 3089.461
203.5627, 3079.616
204.0449, 3068.617
204.5270, 3056.496
205.0091, 3043.037
205.4912, 3026.914
205.9733, 3007.023
206.4554, 2991.277
206.9376, 2981.534
207.4197, 2976.343
207.9018, 2969.289
208.3839, 2959.026
208.8660, 2950.352
209.3481, 2946.945
209.8303, 2949.654
210.3124, 2953.818
210.7945, 2958.946
211.2766, 2965.192
211.7587, 2973.359
212.2408, 2983.630
212.7230, 2995.549
213.2051, 3008.872
213.6872, 3023.484
214.1693, 3039.965
214.6514, 3058.501
215.1335, 3078.880
215.6157, 3099.401
216.0978, 3120.213
216.5799, 3141.030
217.0620, 3161.813
217.5441, 3182.491
218.0262, 3203.321
218.5084, 3224.257
218.9905, 3245.619
219.4726, 3267.681
219.9547, 3290.540
220.4368, 3314.579
220.9189, 3340.293
221.4011, 3369.540
221.8832, 3396.186
222.3653, 3419.206
222.8474, 3439.322
223.3295, 3461.040
223.8116, 3485.219
224.2938, 3508.942
224.7759, 3530.052
225.2580, 3546.635
225.7401, 3564.925
226.2222, 3586.449
226.7043, 3609.973
227.1865, 3631.432
227.6686, 3650.024
228.1507, 3667.052
228.6328, 3683.104
229.1149, 3698.561
229.5970, 3711.937
230.0792, 3722.213
230.5613, 3730.357
231.0434, 3739.770
231.5255, 3750.799
232.0076, 3762.527
232.4897, 3774.851
232.9719, 3789.807
233.4540, 3800.626
233.9361, 3805.032
234.4182, 3805.365
234.9003, 3810.189
235.3824, 3822.576
235.8646, 3835.064
236.3467, 3843.693
236.8288, 3846.024
237.3109, 3849.734
237.7930, 3854.823
238.2751, 3861.372
238.7573, 3869.889
239.2394, 3882.210
239.7215, 3893.685
240.2036, 3902.106
240.6857, 3905.914
241.1678, 3909.995
241.6500, 3914.383
242.1321, 3918.969
242.6142, 3923.468
243.0963, 3927.085
243.5784, 3931.773
244.0605, 3938.628
244.5427, 3949.201
245.0248, 3957.953
245.5069, 3963.651
245.9890, 3968.109
246.4711, 3975.340
246.9532, 3986.886
247.4354, 3998.881
247.9175, 4009.501
248.3996, 4017.733
248.8817, 4028.296
249.3638, 4041.652
249.8459, 4057.171
250.3281, 4073.839
250.8102, 4092.397
251.2923, 4110.988
251.7744, 4128.868
252.2565, 4145.163
252.7386, 4164.029
253.2208, 4186.634
253.7029, 4210.947
254.1850, 4233.888
254.6671, 4253.885
255.1492, 4275.630
255.6313, 4300.982
256.1135, 4330.583
256.5956, 4358.591
257.0777, 4385.124
257.5598, 4409.447
258.0419, 4430.399
258.5240, 4447.242
259.0062, 4461.728
259.4883, 4474.409
259.9704, 4485.110
260.4525, 4493.234
260.9346, 4498.561
261.4167, 4501.505
261.8989, 4503.136
262.3810, 4505.139
262.8631, 4501.406
263.3452, 4490.052
263.8273, 4470.978
264.3094, 4449.880
264.7916, 4426.931
265.2737, 4401.424
265.7558, 4371.804
266.2379, 4337.236
266.7200, 4302.203
267.2021, 4267.931
267.6843, 4234.069
268.1664, 4195.357
268.6485, 4150.512
269.1306, 4103.548
269.6127, 4058.117
270.0948, 4014.527
270.5770, 3971.380
271.0591, 3928.563
271.5412, 3886.331
272.0233, 3844.713
272.5054, 3804.204
272.9875, 3764.595
273.4697, 3725.879
273.9518, 3687.591
274.4339, 3651.046
274.9160, 3616.912
275.3981, 3584.465
275.8802, 3550.402
276.3624, 3514.790
276.8445, 3479.421
277.3266, 3445.428
277.8087, 3412.860
278.2908, 3381.279
278.7729, 3350.704
279.2551, 3321.111
279.7372, 3293.669
280.2193, 3268.650
280.7014, 3243.493
281.1835, 3216.405
281.6656, 3187.420
282.1478, 3158.284
282.6299, 3128.647
283.1120, 3099.727
283.5941, 3073.908
284.0762, 3051.201
284.5583, 3029.407
285.0405, 3007.578
285.5226, 2985.694
286.0047, 2963.604
286.4868, 2941.301
286.9689, 2918.781
287.4510, 2895.626
287.9332, 2871.901
288.4153, 2848.930
288.8974, 2828.257
289.3795, 2809.015
289.8616, 2788.445
290.3438, 2766.378
290.8259, 2744.106
291.3080, 2722.750
291.7901, 2702.455
292.2722, 2682.905
292.7543, 2664.612
293.2365, 2646.936
293.7186, 2628.422
294.2007, 2609.219
294.6828, 2589.883
295.1649, 2570.556
295.6470, 2551.584
296.1292, 2533.467
296.6113, 2516.704
297.0934, 2500.770
297.5755, 2485.144
298.0576, 2469.656
298.5397, 2453.326
299.0219, 2434.255
299.5040, 2413.688
299.9861, 2394.531
300.4682, 2377.436
300.9503, 2361.830
301.4324, 2347.438
301.9146, 2334.104
302.3967, 2320.493
302.8788, 2305.503
303.3609, 2289.922
303.8430, 2275.333
304.3251, 2262.209
304.8073, 2249.091
305.2894, 2233.456
305.7715, 2216.612
306.2536, 2201.322
306.7357, 2190.636
307.2178, 2181.455
307.7000, 2170.566
308.1821, 2157.519
308.6642, 2144.413
309.1463, 2132.914
309.6284, 2122.373
310.1105, 2111.624
310.5927, 2099.101
311.0748, 2087.127
311.5569, 2077.713
312.0390, 2070.886
312.5211, 2064.046
313.0032, 2055.128
313.4854, 2045.586
313.9675, 2037.079
314.4496, 2030.757
314.9317, 2025.131
315.4138, 2019.387
315.8959, 2013.675
316.3781, 2008.616
316.8602, 2005.260
317.3423, 2002.301
317.8244, 1998.803
318.3065, 1994.439
318.7886, 1989.712
319.2708, 1984.284
319.7529, 1978.564
320.2350, 1973.688
320.7171, 1970.228
321.1992, 1967.541
321.6813, 1965.267
322.1635, 1963.127
322.6456, 1961.855
323.1277, 1962.562
323.6098, 1964.044
324.0919, 1964.301
324.5740, 1961.946
325.0562, 1959.275
325.5383, 1956.970
326.0204, 1955.161
326.5025, 1953.329
326.9846, 1950.609
327.4667, 1948.224
327.9489, 1947.455
328.4310, 1950.499
328.9131, 1952.763
329.3952, 1953.359
329.8773, 1952.259
330.3594, 1951.364
330.8416, 1950.516
331.3237, 1950.029
331.8058, 1950.049
332.2879, 1950.038
332.7700, 1951.504
333.2521, 1955.030
333.7343, 1960.191
334.2164, 1964.957
334.6985, 1969.009
335.1806, 1973.039
335.6627, 1977.484
336.1448, 1982.546
336.6270, 1987.097
337.1091, 1990.572
337.5912, 1993.868
338.0733, 1999.162
338.5554, 2007.003
339.0375, 2014.920
339.5197, 2021.892
340.0018, 2027.805
340.4839, 2033.836
340.9660, 2039.664
341.4481, 2046.070
341.9302, 2054.229
342.4124, 2064.345
342.8945, 2074.152
343.3766, 2082.572
343.8587, 2090.163
344.3408, 2100.317
344.8229, 2113.272
345.3051, 2126.801
345.7872, 2138.348
346.2693, 2148.320
346.7514, 2159.901
347.2335, 2173.696
347.7156, 2189.360
348.1978, 2206.281
348.6799, 2224.422
349.1620, 2243.091
349.6441, 2262.075
350.1262, 2281.263
350.6083, 2300.114
351.0905, 2318.574
351.5726, 2337.422
352.0547, 2357.783
352.5368, 2379.375
353.0189, 2401.348
353.5010, 2423.202
353.9832, 2445.225
354.4653, 2467.976
354.9474, 2491.710
355.4295, 2515.010
355.9116, 2536.930
356.3937, 2557.805
356.8759, 2577.842
357.3580, 2597.927
357.8401, 2616.759
358.3222, 2632.915
358.8043, 2646.849
359.2864, 2660.362
359.7686, 2675.151
360.2507, 2689.636
360.7328, 2702.202
361.2149, 2711.796
361.6970, 2720.785
362.1791, 2731.817
362.6613, 2742.957
363.1434, 2749.781
363.6255, 2746.911
364.1076, 2742.529
364.5897, 2740.614
365.0718, 2742.577
365.5540, 2743.672
366.0361, 2742.787
366.5182, 2740.695
367.0003, 2738.332
367.4824, 2737.919
367.9645, 2735.124
368.4467, 2728.197
368.9288, 2717.067
369.4109, 2706.625
369.8930, 2696.304
370.3751, 2687.190
370.8572, 2680.210
371.3394, 2677.806
371.8215, 2673.591
372.3036, 2666.688
372.7857, 2657.651
373.2678, 2648.254
373.7499, 2637.905
374.2321, 2628.018
374.7142, 2619.495
375.1963, 2612.685
375.6784, 2605.181
376.1605, 2596.376
376.6426, 2587.657
377.1248, 2581.931
377.6069, 2579.695
378.0890, 2577.073
378.5711, 2573.314
379.0532, 2568.214
379.5353, 2559.894
380.0175, 2547.753
380.4996, 2535.090
380.9817, 2524.904
381.4638, 2517.053
381.9459, 2510.109
382.4280, 2504.225
382.9102, 2498.598
383.3923, 2491.598
383.8744, 2483.283
384.3565, 2475.015
384.8386, 2468.308
385.3207, 2462.171
385.8029, 2454.648
386.2850, 2445.295
386.7671, 2435.469
387.2492, 2426.352
387.7313, 2417.757
388.2134, 2409.444
388.6956, 2402.152
389.1777, 2394.685
389.6598, 2385.384
390.1419, 2374.428
390.6240, 2364.118
391.1061, 2357.066
391.5883, 2350.828
392.0704, 2342.665
392.5525, 2330.073
393.0346, 2317.942
393.5167, 2308.263
393.9988, 2300.655
394.4810, 2293.885
394.9631, 2287.996
395.4452, 2282.473
395.9273, 2277.300
396.4094, 2272.942
396.8915, 2267.411
397.3737, 2258.871
397.8558, 2249.412
398.3379, 2241.608
398.8200, 2237.285
399.3021, 2232.900
399.7842, 2227.566
400.2664, 2221.266
400.7485, 2215.624
401.2306, 2211.153
401.7127, 2206.852
402.1948, 2202.179
402.6769, 2197.351
403.1591, 2191.521
403.6412, 2184.052
404.1233, 2175.823
404.6054, 2168.981
405.0875, 2164.069
405.5696, 2159.172
406.0518, 2153.567
406.5339, 2147.261
407.0160, 2140.601
407.4981, 2133.544
407.9802, 2126.562
408.4623, 2120.112
408.9445, 2114.198
409.4266, 2109.069
409.9087, 2104.770
410.3908, 2101.362
410.8729, 2099.101
411.3550, 2097.990
411.8372, 2097.673
412.3193, 2097.969
412.8014, 2098.860
413.2835, 2100.219
413.7656, 2101.961
414.2477, 2104.408
414.7299, 2107.643
415.2120, 2111.799
415.6941, 2117.132
416.1762, 2124.773
416.6583, 2132.982
417.1404, 2139.911
417.6226, 2145.614
418.1047, 2151.725
418.5868, 2159.665
419.0689, 2168.245
419.5510, 2176.438
420.0331, 2183.415
420.5153, 2190.604
420.9974, 2198.344
421.4795, 2206.663
421.9616, 2215.305
422.4437, 2225.698
422.9258, 2235.312
423.4080, 2243.218
423.8901, 2249.483
424.3722, 2254.033
424.8543, 2255.352
425.3364, 2255.756
425.8185, 2257.492
426.3007, 2261.478
426.7828, 2265.575
427.2649, 2269.819
427.7470, 2274.021
428.2291, 2277.156
428.7112, 2279.437
429.1934, 2280.181
429.6755, 2278.720
430.1576, 2274.584
430.6397, 2270.351
431.1218, 2265.789
431.6039, 2261.599
432.0861, 2259.355
432.5682, 2259.238
433.0503, 2258.289
433.5324, 2255.333
434.0145, 2250.802
434.4966, 2245.855
434.9788, 2240.487
435.4609, 2235.553
435.9430, 2231.556
436.4251, 2228.534
436.9072, 2226.921
437.3893, 2227.412
437.8715, 2227.733
438.3536, 2224.901
438.8357, 2219.720
439.3178, 2214.429
439.7999, 2209.532
440.2820, 2205.393
440.7642, 2202.726
441.2463, 2201.519
441.7284, 2200.217
442.2105, 2197.195
442.6926, 2193.952
443.1747, 2191.973
443.6569, 2193.228
444.1390, 2193.856
444.6211, 2191.900
445.1032, 2188.301
445.5853, 2185.866
446.0674, 2186.283
446.5496, 2186.945
447.0317, 2186.811
447.5138, 2185.458
447.9959, 2184.775
448.4780, 2185.167
448.9601, 2186.038
449.4423, 2186.697
449.9244, 2186.467
450.4065, 2187.565
450.8886, 2190.570
451.3707, 2195.138
451.8528, 2199.982
452.3350, 2205.162
452.8171, 2210.458
453.2992, 2215.741
453.7813, 2220.998
454.2634, 2226.560
454.7455, 2232.354
455.2277, 2238.683
455.7098, 2246.266
456.1919, 2254.882
456.6740, 2263.702
457.1561, 2272.303
457.6382, 2280.865
458.1204, 2289.414
458.6025, 2298.037
459.0846, 2306.724
459.5667, 2315.476
460.0488, 2324.438
460.5309, 2334.000
461.0131, 2344.362
461.4952, 2354.597
461.9773, 2363.089
462.4594, 2371.123
462.9415, 2380.705
463.4236, 2394.102
463.9058, 2407.634
464.3879, 2420.263
464.8700, 2431.749
465.3521, 2441.894
465.8342, 2448.346
466.3163, 2455.211
466.7985, 2465.029
467.2806, 2480.742
467.7627, 2494.250
468.2448, 2504.117
468.7269, 2512.136
469.2090, 2520.891
469.6912, 2530.560
470.1733, 2540.874
470.6554, 2552.263
471.1375, 2564.455
471.6196, 2574.695
472.1017, 2582.606
472.5839, 2589.624
473.0660, 2596.821
473.5481, 2604.176
474.0302, 2611.227
474.5123, 2617.864
474.9944, 2624.479
475.4766, 2632.057
475.9587, 2640.374
476.4408, 2647.821
476.9229, 2653.149
477.4050, 2657.574
477.8871, 2663.403
478.3693, 2670.455
478.8514, 2676.888
479.3335, 2680.692
479.8156, 2683.478
480.2977, 2687.167
480.7798, 2692.263
481.2620, 2697.593
481.7441, 2702.975
482.2262, 2707.988
482.7083, 2712.018
483.1904, 2714.716
483.6725, 2716.460
484.1547, 2716.833
484.6368, 2715.961
485.1189, 2715.673
485.6010, 2717.057
486.0831, 2718.390
486.5652, 2718.698
487.0474, 2717.038
487.5295, 2716.394
488.0116, 2717.235
488.4937, 2718.746
488.9758, 2719.813
489.4579, 2720.335
489.9401, 2720.668
490.4222, 2720.610
490.9043, 2720.466
491.3864, 2721.835
491.8685, 2724.879
492.3506, 2728.397
492.8328, 2731.208
493.3149, 2733.699
493.7970, 2737.560
494.2791, 2742.882
494.7612, 2749.972
495.2433, 2760.045
495.7255, 2772.294
496.2076, 2784.729
496.6897, 2796.431
497.1718, 2808.253
497.6539, 2820.421
498.1360, 2833.107
498.6182, 2847.260
499.1003, 2863.356
499.5824, 2881.066
500.0645, 2900.531
500.5466, 2922.948
501.0287, 2942.896
501.5109, 2957.058
501.9930, 2968.804
502.4751, 2981.323
502.9572, 2994.930
503.4393, 3009.409
503.9214, 3025.625
504.4036, 3042.603
504.8857, 3057.641
505.3678, 3071.629
505.8499, 3082.374
506.3320, 3088.538
506.8141, 3089.864
507.2963, 3090.653
507.7784, 3090.992
508.2605, 3090.606
508.7426, 3090.189
509.2247, 3089.486
509.7068, 3084.563
510.1890, 3074.596
510.6711, 3060.297
511.1532, 3042.203
511.6353, 3020.571
512.1174, 2997.307
512.5995, 2972.526
513.0817, 2946.867
513.5638, 2921.192
514.0459, 2895.490
514.5280, 2869.142
515.0101, 2842.389
515.4922, 2814.388
515.9744, 2784.507
516.4565, 2751.447
516.9386, 2718.448
517.4207, 2685.945
517.9028, 2654.322
518.3849, 2624.190
518.8671, 2596.089
519.3492, 2569.049
519.8313, 2542.375
520.3134, 2516.343
520.7955, 2491.791
521.2776, 2469.108
521.7598, 2447.184
522.2419, 2425.593
522.7240, 2404.110
523.2061, 2383.430
523.6882, 2363.438
524.1703, 2344.336
524.6525, 2326.307
525.1346, 2309.287
525.6167, 2293.469
526.0988, 2279.524
526.5809, 2266.379
527.0630, 2251.860
527.5452, 2236.324
528.0273, 2221.436
528.5094, 2207.829
528.9915, 2195.499
529.4736, 2184.412
529.9557, 2174.541
530.4379, 2165.325
530.9200, 2156.351
531.4021, 2147.742
531.8842, 2139.545
532.3663, 2131.394
532.8484, 2124.147
533.3306, 2118.391
533.8127, 2113.653
534.2948, 2109.124
534.7769, 2105.130
535.2590, 2100.810
535.7411, 2095.882
536.2233, 2090.403
536.7054, 2084.980
537.1875, 2079.345
537.6696, 2074.460
538.1517, 2071.085
538.6339, 2069.372
539.1160, 2067.829
539.5981, 2066.431
540.0802, 2065.126
540.5623, 2063.288
541.0444, 2061.229
541.5266, 2060.783
542.0087, 2063.159
542.4908, 2066.656
542.9729, 2068.970
543.4550, 2070.260
543.9371, 2071.281
544.4193, 2071.724
544.9014, 2072.551
545.3835, 2074.917
545.8656, 2078.998
546.3477, 2082.641
546.8298, 2084.609
547.3120, 2085.989
547.7941, 2087.640
548.2762, 2089.193
548.7583, 2091.722
549.2404, 2095.714
549.7225, 2100.582
550.2047, 2105.421
550.6868, 2110.465
551.1689, 2115.035
551.6510, 2118.876
552.1331, 2122.085
552.6152, 2125.048
553.0974, 2127.729
553.5795, 2130.474
554.0616, 2133.327
554.5437, 2136.419
555.0258, 2140.611
555.5079, 2146.134
555.9901, 2151.791
556.4722, 2156.222
556.9543, 2159.945
557.4364, 2163.975
557.9185, 2168.519
558.4006, 2173.603
558.8828, 2179.366
559.3649, 2185.664
559.8470, 2192.310
560.3291, 2200.476
560.8112, 2207.732
561.2933, 2212.633
561.7755, 2215.074
562.2576, 2217.701
562.7397, 2220.160
563.2218, 2223.398
563.7039, 2228.195
564.1860, 2236.028
564.6682, 2241.508
565.1503, 2244.001
565.6324, 2245.071
566.1145, 2246.734
566.5966, 2249.163
567.0787, 2251.037
567.5609, 2251.974
568.0430, 2252.428
568.5251, 2253.093
569.0072, 2254.034
569.4893, 2255.558
569.9714, 2259.117
570.4536, 2262.785
570.9357, 2263.182
571.4178, 2260.457
571.8999, 2257.900
572.3820, 2258.115
572.8641, 2259.165
573.3463, 2259.363
573.8284, 2258.242
574.3105, 2256.628
574.7926, 2254.646
575.2747, 2252.317
575.7568, 2249.683
576.2390, 2247.199
576.7211, 2243.664
577.2032, 2238.249
577.6853, 2231.725
578.1674, 2227.142
578.6495, 2225.239
579.1317, 2223.180
579.6138, 2220.138
580.0959, 2216.033
580.5780, 2209.582
581.0601, 2200.521
581.5422, 2191.531
582.0244, 2185.056
582.5065, 2180.335
582.9886, 2175.592
583.4707, 2170.495
583.9528, 2165.503
584.4349, 2161.808
584.9171, 2158.273
585.3992, 2153.200
585.8813, 2145.102
586.3634, 2136.256
586.8455, 2126.925
587.3276, 2117.479
587.8098, 2109.335
588.2919, 2103.946
588.7740, 2098.674
589.2561, 2093.139
589.7382, 2087.357
590.2203, 2079.421
590.7025, 2068.163
591.1846, 2056.988
591.6667, 2048.331
592.1488, 2042.359
592.6309, 2036.337
593.1130, 2030.282
593.5952, 2023.711
594.0773, 2015.658
594.5594, 2006.487
595.0415, 1997.824
595.5236, 1990.244
596.0057, 1982.888
596.4879, 1974.063
596.9700, 1964.754
597.4521, 1957.356
597.9342, 1955.445
598.4163, 1953.549
598.8984, 1948.806
599.3806, 1941.273
599.8627, 1932.477
600.3448, 1921.030
600.8269, 1909.857
601.3090, 1900.260
601.7911, 1892.540
602.2733, 1885.095
602.7554, 1878.038
603.2375, 1871.100
603.7196, 1864.127
604.2017, 1857.040
604.6838, 1850.088
605.1660, 1843.159
605.6481, 1836.578
606.1302, 1831.180
606.6123, 1826.746
607.0944, 1822.249
607.5765, 1817.174
608.0587, 1811.918
608.5408, 1806.732
609.0229, 1801.682
609.5050, 1796.829
609.9871, 1792.533
610.4692, 1788.219
610.9514, 1783.495
611.4335, 1778.258
611.9156, 1773.082
612.3977, 1768.325
612.8798, 1763.449
613.3619, 1758.143
613.8441, 1751.844
614.3262, 1746.380
614.8083, 1741.981
615.2904, 1738.084
615.7725, 1734.160
616.2546, 1730.235
616.7368, 1726.080
617.2189, 1721.567
617.7010, 1716.884
618.1831, 1712.350
618.6652, 1707.964
619.1473, 1703.674
619.6295, 1699.437
620.1116, 1695.349
620.5937, 1691.519
621.0758, 1687.943
621.5579, 1684.496
622.0400, 1681.263
622.5222, 1678.104
623.0043, 1674.959
623.4864, 1671.825
623.9685, 1668.663
624.4506, 1665.535
624.9327, 1662.307
625.4149, 1658.803
625.8970, 1654.792
626.3791, 1651.350
626.8612, 1648.703
627.3433, 1646.305
627.8254, 1643.341
628.3076, 1639.841
628.7897, 1636.475
629.2718, 1633.574
629.7539, 1630.617
630.2360, 1626.317
630.7181, 1621.205
631.2003, 1617.019
631.6824, 1615.709
632.1645, 1614.818
632.6466, 1612.233
633.1287, 1608.203
633.6108, 1604.686
634.0930, 1602.913
634.5751, 1601.313
635.0572, 1599.065
635.5393, 1595.945
636.0214, 1593.068
636.5035, 1590.498
636.9857, 1588.069
637.4678, 1585.713
637.9499, 1583.468
638.4320, 1580.989
638.9141, 1578.179
639.3962, 1575.401
639.8784, 1573.104
640.3605, 1571.274
640.8426, 1569.865
641.3247, 1569.229
641.8068, 1568.392
642.2889, 1565.869
642.7711, 1562.347
643.2532, 1559.315
643.7353, 1557.550
644.2174, 1556.367
644.6995, 1556.010
645.1816, 1556.211
645.6638, 1555.270
646.1459, 1551.302
646.6280, 1547.834
647.1101, 1546.355
647.5922, 1547.057
648.0743, 1546.111
648.5565, 1542.836
649.0386, 1539.642
649.5207, 1539.095
650.0028, 1540.717
650.4849, 1539.987
650.9670, 1536.302
651.4492, 1532.200
651.9313, 1530.387
652.4134, 1530.117
652.8955, 1530.115
653.3776, 1530.319
653.8597, 1530.143
654.3419, 1529.296
654.8240, 1527.833
655.3061, 1525.843
655.7882, 1522.313
656.2703, 1519.492
656.7524, 1517.763
657.2346, 1517.130
657.7167, 1518.003
658.1988, 1521.740
658.6809, 1523.854
659.1630, 1522.193
659.6451, 1517.591
660.1273, 1515.122
660.6094, 1514.840
661.0915, 1514.859
661.5736, 1513.603
662.0557, 1511.802
662.5378, 1510.882
663.0200, 1510.902
663.5021, 1511.471
663.9842, 1511.622
664.4663, 1512.578
664.9484, 1516.108
665.4305, 1524.292
665.9127, 1529.825
666.3948, 1530.450
666.8769, 1527.791
667.3590, 1523.342
667.8411, 1515.157
668.3232, 1509.508
668.8054, 1507.571
669.2875, 1507.664
669.7696, 1506.662
670.2517, 1504.520
670.7338, 1503.748
671.2159, 1505.700
671.6981, 1508.592
672.1802, 1509.561
672.6623, 1508.818
673.1444, 1507.164
673.6265, 1503.843
674.1086, 1500.744
674.5908, 1499.341
675.0729, 1499.519
675.5550, 1500.160
676.0371, 1502.178
676.5192, 1503.465
677.0013, 1502.739
677.4835, 1499.736
677.9656, 1497.825
678.4477, 1497.285
678.9298, 1497.313
679.4119, 1497.309
679.8940, 1497.264
680.3762, 1497.985
680.8583, 1499.602
681.3404, 1501.282
681.8225, 1502.080
682.3046, 1502.318
682.7867, 1502.736
683.2689, 1503.563
683.7510, 1504.302
684.2331, 1504.580
684.7152, 1504.561
685.1973, 1504.451
685.6794, 1504.727
686.1616, 1504.425
686.6437, 1502.430
687.1258, 1500.005
687.6079, 1499.662
688.0900, 1502.424
688.5721, 1504.558
689.0543, 1504.960
689.5364, 1504.245
690.0185, 1504.328
690.5006, 1505.163
690.9827, 1505.750
691.4648, 1505.214
691.9470, 1504.293
692.4291, 1504.128
692.9112, 1504.634
693.3933, 1505.339
693.8754, 1506.224
694.3575, 1507.050
694.8397, 1507.810
695.3218, 1508.554
695.8039, 1508.616
696.2860, 1507.133
696.7681, 1505.747
697.2502, 1505.261
697.7324, 1505.793
698.2145, 1506.912
698.6966, 1508.858
699.1787, 1510.743
699.6608, 1511.249
700.1429, 1510.794
700.6251, 1511.702
701.1072, 1514.455
701.5893, 1517.468
702.0714, 1519.517
702.5535, 1520.685
703.0356, 1520.972
703.5178, 1519.489
703.9999, 1518.639
704.4820, 1519.860
704.9641, 1522.118
705.4462, 1523.814
705.9283, 1524.515
706.4105, 1525.192
706.8926, 1525.947
707.3747, 1526.771
707.8568, 1527.701
708.3389, 1528.767
708.8210, 1529.665
709.3032, 1530.150
709.7853, 1530.565
710.2674, 1531.626
710.7495, 1533.253
711.2316, 1535.044
711.7137, 1536.677
712.1959, 1538.471
712.6780, 1540.894
713.1601, 1543.818
713.6422, 1546.237
714.1243, 1547.383
714.6064, 1548.457
715.0886, 1550.038
715.5707, 1552.166
716.0528, 1553.735
716.5349, 1554.561
717.0170, 1555.353
717.4991, 1556.477
717.9813, 1557.943
718.4634, 1560.122
718.9455, 1563.061
719.4276, 1565.769
719.9097, 1567.043
720.3918, 1567.731
720.8740, 1568.886
721.3561, 1570.676
721.8382, 1572.899
722.3203, 1575.664
722.8024, 1578.706
723.2845, 1581.852
723.7667, 1585.600
724.2488, 1588.460
724.7309, 1589.896
725.2130, 1591.033
725.6951, 1593.322
726.1772, 1596.844
726.6594, 1600.138
727.1415, 1602.949
727.6236, 1605.424
728.1057, 1607.657
728.5878, 1609.731
729.0699, 1611.876
729.5521, 1614.177
730.0342, 1616.580
730.5163, 1619.208
730.9984, 1621.895
731.4805, 1624.336
731.9626, 1625.151
732.4448, 1627.367
732.9269, 1632.136
733.4090, 1638.493
733.8911, 1643.865
734.3732, 1648.271
734.8553, 1651.208
735.3375, 1651.500
735.8196, 1651.021
736.3017, 1655.121
736.7838, 1663.236
737.2659, 1671.922
737.7480, 1680.315
738.2302, 1687.648
738.7123, 1693.128
739.1944, 1696.918
739.6765, 1699.885
740.1586, 1700.433
740.6407, 1702.031
741.1229, 1706.803
741.6050, 1714.586
742.0871, 1721.166
742.5692, 1726.159
743.0513, 1730.955
743.5334, 1736.255
744.0156, 1742.033
744.4977, 1747.892
744.9798, 1753.859
745.4619, 1759.642
745.9440, 1764.720
746.4261, 1769.557
746.9083, 1774.853
747.3904, 1780.670
747.8725, 1786.397
748.3546, 1791.364
748.8367, 1796.322
749.3188, 1801.793
749.8010, 1807.770
750.2831, 1814.064
750.7652, 1821.197
751.2473, 1827.807
751.7294, 1832.576
752.2115, 1835.495
752.6937, 1839.139
753.1758, 1843.756
753.6579, 1848.605
754.1400, 1853.208
754.6221, 1857.471
755.1042, 1861.144
755.5864, 1863.951
756.0685, 1867.086
756.5506, 1871.270
757.0327, 1876.077
757.5148, 1880.971
757.9969, 1886.242
758.4791, 1891.209
758.9612, 1895.797
759.4433, 1900.150
759.9254, 1904.415
760.4075, 1908.627
760.8896, 1912.136
761.3718, 1914.544
761.8539, 1917.128
762.3360, 1922.272
762.8181, 1928.764
763.3002, 1933.969
763.7823, 1936.514
764.2645, 1938.799
764.7466, 1941.942
765.2287, 1945.722
765.7108, 1949.910
766.1929, 1955.278
766.6750, 1959.903
767.1572, 1963.435
767.6393, 1966.302
768.1214, 1969.281
768.6035, 1972.381
769.0856, 1975.433
769.5677, 1978.179
770.0499, 1981.283
770.5320, 1985.317
771.0141, 1990.518
771.4962, 1997.551
771.9783, 2009.640
772.4604, 2020.525
772.9426, 2025.347
773.4247, 2026.591
773.9068, 2030.016
774.3889, 2038.073
774.8710, 2045.856
775.3531, 2052.515
775.8353, 2058.388
776.3174, 2064.054
776.7995, 2069.409
777.2816, 2076.198
777.7637, 2085.264
778.2458, 2095.933
778.7280, 2107.840
779.2101, 2120.558
779.6922, 2132.452
780.1743, 2142.097
780.6564, 2151.502
781.1385, 2160.969
781.6207, 2170.994
782.1028, 2183.475
782.5849, 2199.867
783.0670, 2216.541
783.5491, 2232.699
784.0313, 2248.375
784.5134, 2263.971
784.9955, 2279.596
785.4776, 2294.781
785.9597, 2308.506
786.4418, 2322.441
786.9240, 2339.522
787.4061, 2359.105
787.8882, 2378.757
788.3703, 2395.559
788.8524, 2413.305
789.3345, 2434.223
789.8167, 2458.066
790.2988, 2480.853
790.7809, 2502.422
791.2630, 2523.441
791.7451, 2544.235
792.2272, 2564.695
792.7094, 2586.309
793.1915, 2608.858
793.6736, 2631.030
794.1557, 2651.395
794.6378, 2671.155
795.1199, 2691.750
795.6021, 2712.723
796.0842, 2733.315
796.5663, 2753.249
797.0484, 2772.384
797.5305, 2790.510
798.0126, 2807.580
798.4948, 2823.524
798.9769, 2838.113
799.4590, 2852.013
799.9411, 2865.601
800.4232, 2878.658
800.9053, 2889.735
801.3875, 2898.844
801.8696, 2905.962
802.3517, 2910.824
802.8338, 2913.975
803.3159, 2915.752
803.7980, 2916.231
804.2802, 2915.695
804.7623, 2913.960
805.2444, 2911.421
805.7265, 2908.361
806.2086, 2904.680
806.6907, 2899.655
807.1729, 2893.168
807.6550, 2885.599
808.1371, 2877.638
808.6192, 2868.425
809.1013, 2854.766
809.5834, 2837.328
810.0656, 2819.882
810.5477, 2804.592
811.0298, 2790.193
811.5119, 2776.241
811.9940, 2762.534
812.4761, 2747.692
812.9583, 2731.899
813.4404, 2714.482
813.9225, 2694.803
814.4046, 2673.380
814.8867, 2651.821
815.3688, 2630.250
815.8510, 2609.611
816.3331, 2591.042
816.8152, 2573.264
817.2973, 2554.121
817.7794, 2533.939
818.2615, 2514.336
818.7437, 2496.745
819.2258, 2479.526
819.7079, 2461.406
820.1900, 2442.592
820.6721, 2425.475
821.1542, 2410.584
821.6364, 2395.930
822.1185, 2380.593
822.6006, 2365.222
823.0827, 2350.610
823.5648, 2336.995
824.0469, 2325.193
824.5291, 2315.685
825.0112, 2308.250
825.4933, 2303.431
825.9754, 2300.555
826.4575, 2297.365
826.9396, 2290.638
827.4218, 2286.522
827.9039, 2286.779
828.3860, 2290.719
828.8681, 2296.288
829.3502, 2303.715
829.8323, 2311.718
830.3145, 2319.989
830.7966, 2328.424
831.2787, 2336.078
831.7608, 2343.654
832.2429, 2353.100
832.7250, 2365.939
833.2072, 2380.405
833.6893, 2396.284
834.1714, 2413.087
834.6535, 2429.359
835.1356, 2442.892
835.6177, 2459.760
836.0999, 2481.917
836.5820, 2507.441
837.0641, 2531.913
837.5462, 2555.583
838.0283, 2581.312
838.5104, 2610.165
838.9926, 2641.153
839.4747, 2672.640
839.9568, 2705.449
840.4389, 2741.523
840.9210, 2783.821
841.4031, 2826.361
841.8853, 2866.477
842.3674, 2906.431
842.8495, 2948.857
843.3316, 2993.434
843.8137, 3042.186
844.2958, 3095.856
844.7780, 3152.662
845.2601, 3211.695
845.7422, 3271.453
846.2243, 3329.324
846.7064, 3383.358
847.1885, 3438.392
847.6707, 3497.104
848.1528, 3558.395
848.6349, 3621.359
849.1170, 3686.650
849.5991, 3751.384
850.0812, 3816.455
850.5634, 3879.763
851.0455, 3939.578
851.5276, 3996.186
852.0097, 4051.555
852.4918, 4106.250
852.9739, 4159.255
853.4561, 4210.934
853.9382, 4259.883
854.4203, 4303.924
854.9024, 4341.872
855.3845, 4377.936
855.8666, 4414.583
856.3488, 4448.637
856.8309, 4477.279
857.3130, 4500.493
857.7951, 4520.485
858.2772, 4537.274
858.7593, 4549.004
859.2415, 4550.805
859.7236, 4547.549
860.2057, 4548.665
860.6878, 4554.869
861.1699, 4557.597
861.6520, 4551.187
862.1342, 4541.332
862.6163, 4530.709
863.0984, 4519.525
863.5805, 4509.563
864.0626, 4501.501
864.5447, 4493.171
865.0269, 4484.717
865.5090, 4474.948
865.9911, 4457.864
866.4732, 4434.714
866.9553, 4413.293
867.4374, 4399.407
867.9196, 4388.279
868.4017, 4378.553
868.8838, 4369.486
869.3659, 4356.755
869.8480, 4339.880
870.3301, 4319.622
870.8123, 4294.519
871.2944, 4266.648
871.7765, 4243.944
872.2586, 4226.017
872.7407, 4205.829
873.2228, 4179.194
873.7050, 4150.444
874.1871, 4124.204
874.6692, 4099.386
875.1513, 4073.177
875.6334, 4042.485
876.1155, 4013.718
876.5977, 3990.007
877.0798, 3967.440
877.5619, 3937.819
878.0440, 3900.509
878.5261, 3865.579
879.0082, 3834.546
879.4904, 3806.949
879.9725, 3782.807
880.4546, 3760.848
880.9367, 3738.911
881.4188, 3716.517
881.9009, 3693.777
882.3831, 3669.687
882.8652, 3645.719
883.3473, 3624.229
883.8294, 3606.211
884.3115, 3585.836
884.7936, 3562.578
885.2758, 3538.341
885.7579, 3515.174
886.2400, 3492.518
886.7221, 3468.970
887.2042, 3444.463
887.6863, 3419.582
888.1685, 3395.943
888.6506, 3370.820
889.1327, 3341.588
889.6148, 3307.344
890.0969, 3274.735
890.5790, 3244.636
891.0612, 3212.890
891.5433, 3176.243
892.0254, 3135.863
892.5075, 3096.610
892.9896, 3058.161
893.4717, 3019.728
893.9539, 2981.469
894.4360, 2941.833
894.9181, 2899.740
895.4002, 2855.046
895.8823, 2809.222
896.3644, 2761.412
896.8466, 2713.908
897.3287, 2666.739
897.8108, 2620.401
898.2929, 2574.216
898.7750, 2528.710
899.2571, 2486.004
899.7393, 2448.233
900.2214, 2411.639
900.7035, 2373.572
901.1856, 2334.697
901.6677, 2296.947
902.1498, 2258.729
902.6320, 2224.075
903.1141, 2194.449
903.5962, 2166.599
904.0783, 2136.187
904.5604, 2103.308
905.0425, 2072.777
905.5247, 2045.361
906.0068, 2019.816
906.4889, 1995.106
906.9710, 1971.558
907.4531, 1949.827
907.9352, 1930.282
908.4174, 1910.832
908.8995, 1891.040
909.3816, 1871.311
909.8637, 1851.875
910.3458, 1832.500
910.8279, 1814.855
911.3101, 1798.933
911.7922, 1784.641
912.2743, 1773.350
912.7564, 1762.659
913.2385, 1749.249
913.7206, 1733.534
914.2028, 1719.352
914.6849, 1709.069
915.1670, 1699.085
915.6491, 1687.981
916.1312, 1676.450
916.6133, 1667.816
917.0955, 1662.123
917.5776, 1655.092
918.0597, 1644.024
918.5418, 1632.475
919.0239, 1624.283
919.5060, 1618.954
919.9882, 1615.618
920.4703, 1618.125
920.9524, 1616.937
921.4345, 1608.626
921.9166, 1597.548
922.3987, 1588.518
922.8809, 1581.478
923.3630, 1577.339
923.8451, 1576.589
924.3272, 1576.148
924.8093, 1572.308
925.2914, 1566.998
925.7736, 1562.738
926.2557, 1559.943
926.7378, 1557.906
927.2199, 1558.194
927.7020, 1557.534
928.1841, 1553.725
928.6663, 1546.803
929.1484, 1542.250
929.6305, 1540.122
930.1126, 1538.404
930.5947, 1535.865
931.0768, 1532.916
931.5590, 1530.200
932.0411, 1527.560
932.5232, 1524.502
933.0053, 1520.646
933.4874, 1516.483
933.9695, 1511.912
934.4517, 1507.229
934.9338, 1503.208
935.4159, 1499.907
935.8980, 1496.105
936.3801, 1491.391
936.8622, 1486.521
937.3444, 1482.325
937.8265, 1478.690
938.3086, 1475.443
938.7907, 1472.952
939.2728, 1470.089
939.7549, 1466.598
940.2371, 1462.765
940.7192, 1458.517
941.2013, 1453.826
941.6834, 1450.277
942.1655, 1448.011
942.6476, 1445.193
943.1298, 1439.519
943.6119, 1433.012
944.0940, 1427.852
944.5761, 1424.099
945.0582, 1420.359
945.5403, 1416.083
946.0225, 1412.045
946.5046, 1408.533
946.9867, 1405.455
947.4688, 1402.281
947.9509, 1399.074
948.4330, 1396.122
948.9152, 1393.301
949.3973, 1391.133
949.8794, 1390.422
950.3615, 1390.653
950.8436, 1390.912
951.3257, 1390.674
951.8079, 1390.971
952.2900, 1392.152
952.7721, 1393.488
953.2542, 1393.769
953.7363, 1393.249
954.2184, 1394.532
954.7006, 1398.186
955.1827, 1400.227
955.6648, 1395.389
956.1469, 1388.945
956.6290, 1385.648
957.1111, 1386.365
957.5933, 1387.131
958.0754, 1388.100
958.5575, 1388.450
959.0396, 1387.489
959.5217, 1385.719
960.0038, 1384.934
960.4860, 1384.983
960.9681, 1385.077
961.4502, 1384.841
961.9323, 1384.473
962.4144, 1383.773
962.8965, 1383.068
963.3787, 1383.125
963.8608, 1384.241
964.3429, 1385.448
964.8250, 1386.871
965.3071, 1387.770
965.7892, 1386.161
966.2714, 1383.356
966.7535, 1383.076
967.2356, 1386.355
967.7177, 1389.099
968.1998, 1387.674
968.6819, 1386.007
969.1641, 1387.496
969.6462, 1392.583
970.1283, 1394.223
970.6104, 1391.866
971.0925, 1389.254
971.5746, 1389.025
972.0568, 1389.678
972.5389, 1388.085
973.0210, 1384.928
973.5031, 1382.518
973.9852, 1382.422
974.4673, 1382.507
974.9495, 1382.281
975.4316, 1381.802
975.9137, 1381.130
976.3958, 1380.272
976.8779, 1379.266
977.3600, 1377.999
977.8422, 1377.226
978.3243, 1378.625
978.8064, 1380.566
979.2885, 1380.831
979.7706, 1378.702
980.2527, 1376.651
980.7349, 1374.556
981.2170, 1373.316
981.6991, 1373.739
982.1812, 1375.529
982.6633, 1376.264
983.1454, 1376.054
983.6276, 1376.303
984.1097, 1379.010
984.5918, 1381.385
985.0739, 1380.663
985.5560, 1377.943
986.0381, 1376.266
986.5203, 1376.476
987.0024, 1376.467
987.4845, 1376.027
987.9666, 1375.203
988.4487, 1373.637
988.9308, 1371.780
989.4130, 1371.103
989.8951, 1372.039
990.3772, 1372.792
990.8593, 1372.273
991.3414, 1371.222
991.8235, 1370.057
992.3057, 1368.778
992.7878, 1367.723
993.2699, 1366.811
993.7520, 1366.544
994.2341, 1367.741
994.7162, 1369.333
995.1984, 1369.477
995.6805, 1368.482
996.1626, 1367.199
996.6447, 1365.671
997.1268, 1364.182
997.6089, 1362.108
998.0911, 1360.614
998.5732, 1362.124
999.0553, 1366.594
999.5374, 1368.420
1000.020, 1366.672
1000.502, 1364.195
1000.984, 1362.913
1001.466, 1362.640
1001.948, 1363.607
1002.430, 1365.988
1002.912, 1367.286
1003.394, 1367.134
1003.876, 1366.245
1004.359, 1364.362
1004.841, 1362.306
1005.323, 1363.113
1005.805, 1366.162
1006.287, 1368.920
1006.769, 1371.156
1007.251, 1371.731
1007.733, 1368.201
1008.216, 1363.531
1008.698, 1361.942
1009.180, 1364.304
1009.662, 1366.709
1010.144, 1369.135
1010.626, 1370.670
1011.108, 1369.076
1011.590, 1366.616
1012.072, 1367.311
1012.555, 1371.212
1013.037, 1374.066
1013.519, 1373.772
1014.001, 1372.774
1014.483, 1371.382
1014.965, 1370.063
1015.447, 1370.930
1015.929, 1373.717
1016.411, 1375.547
1016.894, 1375.384
1017.376, 1374.202
1017.858, 1371.893
1018.340, 1369.510
1018.822, 1368.427
1019.304, 1369.094
1019.786, 1370.559
1020.268, 1373.299
1020.751, 1375.612
1021.233, 1375.686
1021.715, 1374.451
1022.197, 1374.300
1022.679, 1375.172
1023.161, 1376.410
1023.643, 1378.924
1024.125, 1380.319
1024.607, 1378.734
1025.090, 1375.709
1025.572, 1374.314
1026.054, 1374.592
1026.536, 1375.963
1027.018, 1378.614
1027.500, 1380.906
1027.982, 1380.958
1028.464, 1379.729
1028.947, 1378.015
1029.429, 1375.636
1029.911, 1374.760
1030.393, 1376.216
1030.875, 1377.832
1031.357, 1378.651
1031.839, 1378.771
1032.321, 1377.800
1032.803, 1376.217
1033.286, 1375.972
1033.768, 1380.070
1034.250, 1383.399
1034.732, 1382.878
1035.214, 1380.625
1035.696, 1379.662
1036.178, 1380.125
1036.660, 1381.165
1037.143, 1382.832
1037.625, 1384.308
1038.107, 1384.912
1038.589, 1384.858
1039.071, 1383.909
1039.553, 1382.184
1040.035, 1381.865
1040.517, 1385.098
1041.000, 1387.077
1041.482, 1385.996
1041.964, 1383.322
1042.446, 1382.267
1042.928, 1382.700
1043.410, 1384.343
1043.892, 1387.745
1044.374, 1390.507
1044.856, 1390.683
1045.339, 1389.843
1045.821, 1389.341
1046.303, 1389.225
1046.785, 1389.598
1047.267, 1390.584
1047.749, 1391.012
1048.231, 1390.075
1048.713, 1388.150
1049.195, 1385.095
1049.677, 1381.419
1050.160, 1378.646
1050.642, 1376.751
1051.124, 1376.742
1051.606, 1379.640
1052.088, 1383.068
1052.570, 1383.415
1053.052, 1381.495
1053.534, 1380.585
1054.017, 1381.101
1054.499, 1381.475
1054.981, 1380.289
1055.463, 1379.062
1055.945, 1379.005
1056.427, 1379.838
1056.909, 1379.699
1057.391, 1378.482
1057.874, 1377.746
1058.356, 1378.224
1058.838, 1379.030
1059.320, 1378.555
1059.802, 1377.936
1060.284, 1379.016
1060.766, 1383.888
1061.248, 1386.193
1061.730, 1384.652
1062.213, 1382.682
1062.695, 1382.985
1063.177, 1384.797
1063.659, 1385.012
1064.141, 1384.050
1064.623, 1383.973
1065.105, 1386.804
1065.587, 1389.559
1066.070, 1391.319
1066.552, 1392.157
1067.034, 1391.832
1067.516, 1390.281
1067.998, 1389.266
1068.480, 1389.000
1068.962, 1389.240
1069.444, 1390.417
1069.927, 1391.547
1070.409, 1391.598
1070.891, 1390.504
1071.373, 1389.663
1071.855, 1389.035
1072.337, 1388.959
1072.819, 1389.643
1073.301, 1390.783
1073.783, 1392.346
1074.266, 1393.855
1074.748, 1394.005
1075.230, 1391.315
1075.712, 1390.505
1076.194, 1394.600
1076.676, 1398.911
1077.158, 1400.523
1077.640, 1399.721
1078.122, 1399.555
1078.604, 1399.955
1079.087, 1400.369
1079.569, 1400.101
1080.051, 1400.146
1080.533, 1401.475
1081.015, 1403.369
1081.497, 1404.477
1081.979, 1404.533
1082.461, 1404.851
1082.944, 1405.492
1083.426, 1406.582
1083.908, 1409.330
1084.390, 1411.887
1084.872, 1411.129
1085.354, 1407.341
1085.836, 1405.905
1086.318, 1408.916
1086.801, 1411.776
1087.283, 1413.578
1087.765, 1414.430
1088.247, 1413.775
1088.729, 1412.412
1089.211, 1412.076
1089.693, 1412.798
1090.175, 1416.282
1090.657, 1428.655
1091.140, 1438.477
1091.622, 1438.796
1092.104, 1430.883
1092.586, 1424.183
1093.068, 1418.756
1093.550, 1415.672
1094.032, 1416.398
1094.514, 1418.070
1094.997, 1419.232
1095.479, 1419.783
1095.961, 1419.492
1096.443, 1417.860
1096.925, 1417.094
1097.407, 1417.176
1097.889, 1418.275
1098.371, 1421.751
1098.854, 1425.461
1099.336, 1426.121
1099.818, 1424.486
1100.300, 1423.694
1100.782, 1424.575
1101.264, 1426.348
1101.746, 1429.578
1102.228, 1432.334
1102.710, 1430.830
1103.193, 1427.055
1103.675, 1426.135
1104.157, 1428.687
1104.639, 1431.506
1105.121, 1434.902
1105.603, 1436.118
1106.085, 1433.010
1106.567, 1427.683
1107.049, 1427.158
1107.531, 1430.821
1108.014, 1433.897
1108.496, 1435.028
1108.978, 1435.615
1109.460, 1435.893
1109.942, 1436.622
1110.424, 1438.822
1110.906, 1442.597
1111.388, 1444.567
1111.871, 1444.645
1112.353, 1444.087
1112.835, 1443.121
1113.317, 1442.352
1113.799, 1442.333
1114.281, 1443.029
1114.763, 1444.498
1115.245, 1447.987
1115.728, 1449.366
1116.210, 1448.037
1116.692, 1446.652
1117.174, 1447.667
1117.656, 1450.009
1118.138, 1452.124
1118.620, 1453.841
1119.102, 1454.717
1119.584, 1453.403
1120.067, 1452.850
1120.549, 1453.602
1121.031, 1455.052
1121.513, 1456.914
1121.995, 1458.768
1122.477, 1458.576
1122.959, 1456.220
1123.441, 1455.008
1123.924, 1457.919
1124.406, 1461.026
1124.888, 1462.827
1125.370, 1463.521
1125.852, 1463.332
1126.334, 1462.384
1126.816, 1462.025
1127.298, 1462.729
1127.781, 1463.377
1128.263, 1463.247
1128.745, 1462.656
1129.227, 1461.695
1129.709, 1460.419
1130.191, 1459.505
1130.673, 1458.928
1131.155, 1458.993
1131.637, 1459.746
1132.120, 1461.299
1132.602, 1463.418
1133.084, 1466.572
1133.566, 1472.050
1134.048, 1482.473
1134.530, 1485.861
1135.012, 1480.596
1135.494, 1474.748
1135.976, 1473.587
1136.458, 1475.058
1136.941, 1476.470
1137.423, 1477.799
1137.905, 1478.971
1138.387, 1480.790
1138.869, 1480.830
1139.351, 1477.973
1139.833, 1475.489
1140.315, 1477.419
1140.798, 1481.931
1141.280, 1484.990
1141.762, 1486.482
1142.244, 1486.867
1142.726, 1485.199
1143.208, 1483.877
1143.690, 1483.193
1144.172, 1483.369
1144.655, 1485.304
1145.137, 1488.433
1145.619, 1490.733
1146.101, 1491.954
1146.583, 1492.090
1147.065, 1488.908
1147.547, 1487.259
1148.029, 1490.283
1148.511, 1495.910
1148.994, 1497.995
1149.476, 1496.911
1149.958, 1495.705
1150.440, 1494.821
1150.922, 1495.194
1151.404, 1499.354
1151.886, 1503.411
1152.368, 1503.990
1152.851, 1501.514
1153.333, 1499.817
1153.815, 1498.874
1154.297, 1499.717
1154.779, 1503.447
1155.261, 1507.434
1155.743, 1508.927
1156.225, 1509.456
1156.708, 1510.830
1157.190, 1513.279
1157.672, 1515.814
1158.154, 1518.673
1158.636, 1519.563
1159.118, 1515.725
1159.600, 1510.957
1160.082, 1509.380
1160.564, 1509.931
1161.047, 1510.828
1161.529, 1512.127
1162.011, 1512.943
1162.493, 1513.087
1162.975, 1513.615
1163.457, 1515.991
1163.939, 1518.792
1164.421, 1519.798
1164.903, 1519.498
1165.385, 1519.454
1165.868, 1520.002
1166.350, 1520.767
1166.832, 1521.682
1167.314, 1522.832
1167.796, 1524.764
1168.278, 1526.752
1168.760, 1527.375
1169.242, 1526.725
1169.725, 1525.907
1170.207, 1524.123
1170.689, 1524.083
1171.171, 1526.661
1171.653, 1530.286
1172.135, 1533.012
1172.617, 1534.993
1173.099, 1536.575
1173.582, 1537.792
1174.064, 1538.766
1174.546, 1539.664
1175.028, 1540.056
1175.510, 1539.553
1175.992, 1538.797
1176.474, 1539.169
1176.956, 1540.344
1177.438, 1541.224
1177.921, 1541.474
1178.403, 1542.614
1178.885, 1546.767
1179.367, 1550.227
1179.849, 1551.414
1180.331, 1550.968
1180.813, 1550.149
1181.295, 1549.325
1181.778, 1550.016
1182.260, 1552.999
1182.742, 1556.194
1183.224, 1559.733
1183.706, 1562.037
1184.188, 1561.746
1184.670, 1559.539
1185.152, 1559.236
1185.635, 1560.543
1186.117, 1562.034
1186.599, 1563.446
1187.081, 1564.328
1187.563, 1563.895
1188.045, 1563.307
1188.527, 1563.606
1189.009, 1564.662
1189.491, 1564.088
1189.974, 1562.293
1190.456, 1562.307
1190.938, 1567.561
1191.420, 1572.369
1191.902, 1573.474
1192.384, 1573.094
1192.866, 1573.380
1193.348, 1574.348
1193.830, 1575.429
1194.313, 1576.580
1194.795, 1577.314
1195.277, 1576.936
1195.759, 1576.499
1196.241, 1576.411
1196.723, 1576.703
1197.205, 1577.641
1197.687, 1579.276
1198.169, 1579.584
1198.652, 1578.544
1199.134, 1577.908
1199.616, 1579.051
1200.098, 1580.779
1200.580, 1583.052
1201.062, 1585.149
1201.544, 1585.617
1202.026, 1584.391
1202.509, 1584.338
1202.991, 1585.707
1203.473, 1587.681
1203.955, 1590.147
1204.437, 1592.528
1204.919, 1594.599
1205.401, 1596.246
1205.883, 1597.148
1206.365, 1597.284
1206.848, 1596.976
1207.330, 1596.198
1207.812, 1596.009
1208.294, 1598.168
1208.776, 1600.320
1209.258, 1598.950
1209.740, 1596.563
1210.222, 1602.137
1210.705, 1615.880
1211.187, 1622.541
1211.669, 1618.889
1212.151, 1613.412
1212.633, 1611.766
1213.115, 1611.902
1213.597, 1612.427
1214.079, 1613.486
1214.562, 1616.722
1215.044, 1622.048
1215.526, 1625.166
1216.008, 1624.880
1216.490, 1623.501
1216.972, 1622.027
1217.454, 1620.872
1217.936, 1620.389
1218.418, 1620.474
1218.901, 1620.700
1219.383, 1621.078
1219.865, 1622.407
1220.347, 1625.142
1220.829, 1627.879
1221.311, 1629.871
1221.793, 1631.132
1222.275, 1631.474
1222.757, 1631.123
1223.240, 1631.748
1223.722, 1633.279
1224.204, 1634.667
1224.686, 1635.654
1225.168, 1636.227
1225.650, 1636.176
1226.132, 1635.904
1226.614, 1635.443
1227.096, 1634.987
1227.579, 1636.743
1228.061, 1640.396
1228.543, 1643.059
1229.025, 1643.040
1229.507, 1643.115
1229.989, 1644.697
1230.471, 1647.261
1230.953, 1650.737
1231.436, 1654.851
1231.918, 1656.787
1232.400, 1656.780
1232.882, 1656.418
1233.364, 1656.081
1233.846, 1656.061
1234.328, 1656.827
1234.810, 1657.664
1235.292, 1657.629
1235.775, 1657.093
1236.257, 1660.140
1236.739, 1665.853
1237.221, 1669.277
1237.703, 1666.103
1238.185, 1663.800
1238.667, 1666.175
1239.149, 1669.480
1239.632, 1670.941
1240.114, 1671.001
1240.596, 1672.699
1241.078, 1675.654
1241.560, 1678.333
1242.042, 1679.318
1242.524, 1681.038
1243.006, 1684.958
1243.489, 1688.556
1243.971, 1689.375
1244.453, 1688.225
1244.935, 1688.243
1245.417, 1689.303
1245.899, 1690.921
1246.381, 1693.687
1246.863, 1695.830
1247.345, 1696.914
1247.828, 1697.725
1248.310, 1698.801
1248.792, 1700.147
1249.274, 1701.966
1249.756, 1704.092
1250.238, 1705.961
1250.720, 1707.757
1251.202, 1708.465
1251.684, 1707.481
1252.167, 1706.712
1252.649, 1708.203
1253.131, 1710.855
1253.613, 1712.699
1254.095, 1713.823
1254.577, 1714.653
1255.059, 1714.891
1255.541, 1715.506
1256.023, 1716.474
1256.506, 1718.023
1256.988, 1720.986
1257.470, 1724.242
1257.952, 1726.330
1258.434, 1727.363
1258.916, 1727.500
1259.398, 1725.778
1259.880, 1726.608
1260.363, 1730.689
1260.845, 1734.731
1261.327, 1735.865
1261.809, 1735.638
1262.291, 1735.249
1262.773, 1734.865
1263.255, 1734.494
1263.737, 1733.548
1264.219, 1736.139
1264.702, 1742.835
1265.184, 1748.391
1265.666, 1747.925
1266.148, 1745.574
1266.630, 1743.096
1267.112, 1741.643
1267.594, 1743.599
1268.076, 1749.314
1268.559, 1753.138
1269.041, 1754.703
1269.523, 1755.372
1270.005, 1755.491
1270.487, 1755.646
1270.969, 1755.898
1271.451, 1756.561
1271.933, 1758.509
1272.416, 1761.535
1272.898, 1762.600
1273.380, 1761.742
1273.862, 1761.948
1274.344, 1766.083
1274.826, 1770.213
1275.308, 1773.480
1275.790, 1775.568
1276.272, 1775.292
1276.755, 1773.526
1277.237, 1773.629
1277.719, 1775.626
1278.201, 1778.158
1278.683, 1781.774
1279.165, 1783.956
1279.647, 1783.384
1280.129, 1783.040
1280.611, 1787.765
1281.094, 1794.596
1281.576, 1796.858
1282.058, 1795.094
1282.540, 1793.540
1283.022, 1792.581
1283.504, 1793.445
1283.986, 1796.609
1284.468, 1800.346
1284.950, 1803.348
1285.433, 1805.606
1285.915, 1806.551
1286.397, 1806.658
1286.879, 1807.817
1287.361, 1810.505
1287.843, 1812.854
1288.325, 1814.728
1288.807, 1815.987
1289.290, 1814.860
1289.772, 1814.593
1290.254, 1819.765
1290.736, 1827.493
1291.218, 1830.430
1291.700, 1828.002
1292.182, 1828.942
1292.664, 1833.801
1293.146, 1838.457
1293.629, 1838.225
1294.111, 1838.956
1294.593, 1847.919
##END=



