##NAMES=Sewardite
##RRUFFID=R060720
##IDEAL CHEMISTRY=CaFe^3+^_2_(As^5+^O_4_)_2_(OH)_2_
##LOCALITY=Las Animas mine, La Mur, Sonora, Mexico
##OWNER=RRUFF
##SOURCE=Bob Jenkins
##DESCRIPTION=Aggregates of bright red granular or prismatic crystals, associated with dark red platy arseniosiderite (R150061).
##STATUS=The identification of this mineral is confirmed by single-crystal X-ray diffraction and chemical analysis.
##URL=rruff.info/R060720
##MEASURED CHEMISTRY=Ca_1.00_(Fe^3+^_1.83_Ca_0.17_)_Σ=2_(As_1.00_O_4_)_2_((OH)_1.83_(H_2_O)_0.17_)_Σ=2_
89.78320, 623.8763
90.26532, 622.7669
90.74744, 623.2136
91.22955, 625.8105
91.71167, 629.9129
92.19379, 635.3508
92.67590, 642.0399
93.15802, 646.5244
93.64014, 644.9589
94.12225, 639.1733
94.60437, 633.9798
95.08649, 630.8804
95.56860, 628.7931
96.05072, 625.6369
96.53284, 621.9138
97.01495, 618.1758
97.49707, 614.7239
97.97919, 611.5038
98.46130, 608.4596
98.94342, 605.0419
99.42554, 601.3952
99.90765, 600.4637
100.3898, 602.8823
100.8719, 606.5125
101.3540, 608.3698
101.8361, 608.3163
102.3182, 607.3451
102.8004, 605.3109
103.2825, 601.3643
103.7646, 600.1397
104.2467, 602.2750
104.7288, 606.6964
105.2109, 610.8634
105.6931, 614.2237
106.1752, 618.2265
106.6573, 623.6168
107.1394, 631.1644
107.6215, 638.7811
108.1036, 647.5092
108.5858, 656.7332
109.0679, 662.7272
109.5500, 662.2123
110.0321, 661.0103
110.5142, 662.2110
110.9963, 667.6628
111.4785, 673.3948
111.9606, 678.5902
112.4427, 683.3052
112.9248, 689.3962
113.4069, 699.0801
113.8890, 709.2359
114.3712, 717.4670
114.8533, 721.2399
115.3354, 724.8641
115.8175, 730.1512
116.2996, 737.4748
116.7817, 743.6750
117.2639, 746.6879
117.7460, 748.2524
118.2281, 750.5695
118.7102, 755.9282
119.1923, 761.2510
119.6744, 764.2204
120.1566, 764.0496
120.6387, 764.0593
121.1208, 766.5418
121.6029, 770.6727
122.0850, 774.7929
122.5671, 777.1459
123.0493, 779.4359
123.5314, 783.6598
124.0135, 790.6757
124.4956, 798.2773
124.9777, 804.5677
125.4598, 809.6650
125.9420, 813.9382
126.4241, 816.6281
126.9062, 818.7487
127.3883, 822.1459
127.8704, 827.2109
128.3525, 833.6856
128.8347, 841.6913
129.3168, 851.1868
129.7989, 860.7458
130.2810, 869.6959
130.7631, 877.8987
131.2452, 885.1966
131.7274, 891.7744
132.2095, 897.3163
132.6916, 900.5346
133.1737, 901.2232
133.6558, 901.1926
134.1379, 902.5733
134.6201, 905.3369
135.1022, 907.1313
135.5843, 907.0715
136.0664, 905.3752
136.5485, 903.7667
137.0306, 902.4684
137.5128, 900.6918
137.9949, 896.9124
138.4770, 890.5235
138.9591, 885.0441
139.4412, 881.6797
139.9233, 880.5779
140.4055, 879.9805
140.8876, 880.2545
141.3697, 880.6179
141.8518, 879.3703
142.3339, 875.1978
142.8160, 872.3572
143.2982, 872.7153
143.7803, 877.4651
144.2624, 881.5027
144.7445, 884.1435
145.2266, 886.3018
145.7087, 889.9852
146.1909, 896.1180
146.6730, 902.6843
147.1551, 909.0253
147.6372, 915.3077
148.1193, 921.0067
148.6014, 926.0820
149.0836, 930.5797
149.5657, 934.8400
150.0478, 938.7766
150.5299, 942.4580
151.0120, 945.9340
151.4941, 948.8880
151.9763, 951.9504
152.4584, 955.4250
152.9405, 959.1249
153.4226, 962.2155
153.9047, 963.6943
154.3868, 965.1454
154.8690, 967.4288
155.3511, 971.0340
155.8332, 975.0483
156.3153, 979.5192
156.7974, 984.3780
157.2795, 989.0823
157.7617, 993.1376
158.2438, 997.2120
158.7259, 1001.790
159.2080, 1006.473
159.6901, 1012.184
160.1722, 1019.307
160.6544, 1027.827
161.1365, 1037.184
161.6186, 1047.502
162.1007, 1058.365
162.5828, 1069.643
163.0649, 1082.356
163.5471, 1094.446
164.0292, 1104.868
164.5113, 1113.575
164.9934, 1121.506
165.4755, 1130.418
165.9576, 1138.500
166.4398, 1143.424
166.9219, 1144.612
167.4040, 1142.191
167.8861, 1135.772
168.3682, 1125.234
168.8503, 1112.523
169.3325, 1098.059
169.8146, 1082.279
170.2967, 1066.123
170.7788, 1049.561
171.2609, 1032.841
171.7430, 1016.031
172.2252, 998.9220
172.7073, 982.8950
173.1894, 968.6888
173.6715, 956.2706
174.1536, 946.0007
174.6357, 938.1923
175.1179, 932.3064
175.6000, 928.0082
176.0821, 925.4973
176.5642, 923.5363
177.0463, 920.6946
177.5284, 917.3536
178.0106, 914.7282
178.4927, 913.6506
178.9748, 913.6581
179.4569, 914.0430
179.9390, 914.7657
180.4211, 915.7946
180.9033, 917.1610
181.3854, 918.8476
181.8675, 920.7057
182.3496, 922.8027
182.8317, 925.0052
183.3138, 927.1159
183.7960, 929.1030
184.2781, 930.9613
184.7602, 932.6240
185.2423, 934.1100
185.7244, 935.4738
186.2065, 936.6428
186.6887, 937.6934
187.1708, 938.9918
187.6529, 940.6332
188.1350, 942.3862
188.6171, 943.5118
189.0992, 944.0497
189.5814, 945.2285
190.0635, 948.2393
190.5456, 952.8303
191.0277, 956.7695
191.5098, 959.4676
191.9919, 961.9793
192.4741, 966.7685
192.9562, 973.9122
193.4383, 981.1998
193.9204, 986.5402
194.4025, 990.1216
194.8846, 995.2562
195.3668, 1002.445
195.8489, 1011.258
196.3310, 1021.111
196.8131, 1032.171
197.2952, 1042.916
197.7773, 1052.482
198.2595, 1060.810
198.7416, 1068.464
199.2237, 1075.521
199.7058, 1081.858
200.1879, 1087.075
200.6700, 1091.243
201.1522, 1094.222
201.6343, 1095.708
202.1164, 1095.585
202.5985, 1095.288
203.0806, 1095.264
203.5627, 1095.031
204.0449, 1093.003
204.5270, 1089.021
205.0091, 1083.731
205.4912, 1077.199
205.9733, 1069.121
206.4554, 1061.642
206.9376, 1055.180
207.4197, 1049.463
207.9018, 1043.098
208.3839, 1035.794
208.8660, 1028.573
209.3481, 1022.143
209.8303, 1016.478
210.3124, 1011.644
210.7945, 1007.789
211.2766, 1004.781
211.7587, 1001.887
212.2408, 999.0112
212.7230, 996.4514
213.2051, 994.3463
213.6872, 992.6690
214.1693, 991.5131
214.6514, 990.9451
215.1335, 990.8838
215.6157, 991.0648
216.0978, 991.5618
216.5799, 992.1108
217.0620, 992.5292
217.5441, 992.7471
218.0262, 993.0305
218.5084, 993.5513
218.9905, 994.1644
219.4726, 994.1942
219.9547, 993.7169
220.4368, 992.5600
220.9189, 990.4564
221.4011, 986.8194
221.8832, 983.8721
222.3653, 982.2505
222.8474, 981.4874
223.3295, 979.1873
223.8116, 974.6208
224.2938, 969.7716
224.7759, 965.8460
225.2580, 963.2250
225.7401, 960.6761
226.2222, 958.1299
226.7043, 955.5782
227.1865, 952.7406
227.6686, 949.0485
228.1507, 945.9805
228.6328, 944.6894
229.1149, 946.4925
229.5970, 946.9154
230.0792, 945.1702
230.5613, 941.8558
231.0434, 939.2952
231.5255, 937.4835
232.0076, 936.4987
232.4897, 936.5886
232.9719, 938.5769
233.4540, 939.7563
233.9361, 939.5144
234.4182, 938.4444
234.9003, 938.7278
235.3824, 941.2977
235.8646, 943.8871
236.3467, 945.1625
236.8288, 943.7689
237.3109, 944.1262
237.7930, 946.9852
238.2751, 951.5526
238.7573, 955.3446
239.2394, 957.9724
239.7215, 960.3464
240.2036, 962.8940
240.6857, 965.7568
241.1678, 968.3870
241.6500, 970.4780
242.1321, 972.3961
242.6142, 975.2057
243.0963, 979.4127
243.5784, 983.7498
244.0605, 987.5749
244.5427, 990.4782
245.0248, 994.0333
245.5069, 998.5739
245.9890, 1003.665
246.4711, 1008.159
246.9532, 1011.413
247.4354, 1015.240
247.9175, 1020.509
248.3996, 1028.006
248.8817, 1034.502
249.3638, 1039.641
249.8459, 1044.010
250.3281, 1048.661
250.8102, 1053.714
251.2923, 1058.893
251.7744, 1064.161
252.2565, 1069.449
252.7386, 1074.954
253.2208, 1080.766
253.7029, 1086.729
254.1850, 1092.611
254.6671, 1098.037
255.1492, 1104.144
255.6313, 1111.565
256.1135, 1120.648
256.5956, 1128.370
257.0777, 1134.296
257.5598, 1139.148
258.0419, 1143.857
258.5240, 1148.454
259.0062, 1152.673
259.4883, 1156.381
259.9704, 1159.473
260.4525, 1162.676
260.9346, 1166.185
261.4167, 1169.523
261.8989, 1172.238
262.3810, 1174.496
262.8631, 1175.648
263.3452, 1175.308
263.8273, 1173.492
264.3094, 1171.948
264.7916, 1170.801
265.2737, 1169.744
265.7558, 1168.554
266.2379, 1167.384
266.7200, 1165.645
267.2021, 1163.183
267.6843, 1160.030
268.1664, 1156.315
268.6485, 1151.854
269.1306, 1147.205
269.6127, 1142.930
270.0948, 1139.152
270.5770, 1135.151
271.0591, 1130.777
271.5412, 1126.104
272.0233, 1121.558
272.5054, 1117.443
272.9875, 1112.755
273.4697, 1106.360
273.9518, 1097.754
274.4339, 1090.462
274.9160, 1085.244
275.3981, 1081.427
275.8802, 1076.806
276.3624, 1071.285
276.8445, 1065.642
277.3266, 1060.740
277.8087, 1056.732
278.2908, 1051.008
278.7729, 1042.789
279.2551, 1033.432
279.7372, 1026.488
280.2193, 1022.294
280.7014, 1018.210
281.1835, 1012.777
281.6656, 1006.011
282.1478, 998.9789
282.6299, 991.6686
283.1120, 984.2123
283.5941, 976.7198
284.0762, 969.1435
284.5583, 961.9061
285.0405, 955.3905
285.5226, 949.4728
286.0047, 942.9412
286.4868, 935.6927
286.9689, 928.1439
287.4510, 920.6912
287.9332, 913.3459
288.4153, 906.3722
288.8974, 900.5676
289.3795, 895.3211
289.8616, 888.2029
290.3438, 879.0078
290.8259, 869.3430
291.3080, 860.6537
291.7901, 852.9861
292.2722, 846.1828
292.7543, 840.7244
293.2365, 835.9326
293.7186, 830.0820
294.2007, 823.2056
294.6828, 816.3178
295.1649, 810.4792
295.6470, 805.4427
296.1292, 800.1404
296.6113, 794.1481
297.0934, 788.0128
297.5755, 782.6581
298.0576, 777.9996
298.5397, 773.3957
299.0219, 767.8231
299.5040, 761.9375
299.9861, 757.3031
300.4682, 754.4572
300.9503, 752.4889
301.4324, 750.6406
301.9146, 748.8381
302.3967, 746.6692
302.8788, 743.6651
303.3609, 740.2196
303.8430, 736.9193
304.3251, 733.8372
304.8073, 730.9281
305.2894, 727.7087
305.7715, 724.5728
306.2536, 722.3974
306.7357, 722.7806
307.2178, 723.7651
307.7000, 723.1520
308.1821, 720.6218
308.6642, 717.8708
309.1463, 715.8654
309.6284, 714.4976
310.1105, 713.5828
310.5927, 713.7094
311.0748, 713.7924
311.5569, 712.8820
312.0390, 710.9685
312.5211, 709.1437
313.0032, 707.9979
313.4854, 707.2648
313.9675, 706.6787
314.4496, 706.6052
314.9317, 706.2685
315.4138, 704.9232
315.8959, 702.8054
316.3781, 701.2784
316.8602, 701.7314
317.3423, 702.5688
317.8244, 702.5967
318.3065, 701.0046
318.7886, 699.3654
319.2708, 697.9937
319.7529, 696.9428
320.2350, 696.3648
320.7171, 696.8156
321.1992, 697.3616
321.6813, 697.5457
322.1635, 697.2250
322.6456, 696.7042
323.1277, 695.4837
323.6098, 694.1722
324.0919, 693.7913
324.5740, 695.3686
325.0562, 697.1025
325.5383, 698.6019
326.0204, 699.9838
326.5025, 700.5612
326.9846, 699.0808
327.4667, 697.2787
327.9489, 696.9940
328.4310, 700.2744
328.9131, 702.8090
329.3952, 703.5621
329.8773, 702.4754
330.3594, 702.3593
330.8416, 703.6129
331.3237, 705.5010
331.8058, 707.6016
332.2879, 710.6254
332.7700, 712.5793
333.2521, 712.7001
333.7343, 711.5383
334.2164, 711.8590
334.6985, 714.2827
335.1806, 717.1949
335.6627, 719.7009
336.1448, 721.4625
336.6270, 723.8406
337.1091, 727.1408
337.5912, 730.8387
338.0733, 733.8129
338.5554, 735.7778
339.0375, 737.8696
339.5197, 740.7002
340.0018, 744.3171
340.4839, 747.3495
340.9660, 749.6078
341.4481, 751.5722
341.9302, 753.5940
342.4124, 755.6409
342.8945, 758.3942
343.3766, 762.1774
343.8587, 766.8202
344.3408, 771.8749
344.8229, 777.3732
345.3051, 782.8821
345.7872, 788.3612
346.2693, 793.6469
346.7514, 797.5130
347.2335, 798.9294
347.7156, 799.7599
348.1978, 804.2814
348.6799, 812.2023
349.1620, 819.7889
349.6441, 823.5166
350.1262, 825.1276
350.6083, 829.0277
351.0905, 836.2126
351.5726, 844.1752
352.0547, 849.7729
352.5368, 853.7016
353.0189, 858.0715
353.5010, 864.4669
353.9832, 871.6357
354.4653, 878.1648
354.9474, 884.0463
355.4295, 889.3145
355.9116, 893.8175
356.3937, 897.7914
356.8759, 901.5316
357.3580, 905.2042
357.8401, 908.6749
358.3222, 911.5803
358.8043, 914.0826
359.2864, 916.9861
359.7686, 921.7640
360.2507, 926.6019
360.7328, 929.8165
361.2149, 930.3162
361.6970, 930.4139
362.1791, 931.2195
362.6613, 932.2933
363.1434, 932.6340
363.6255, 931.4525
364.1076, 929.8249
364.5897, 928.2579
365.0718, 926.9490
365.5540, 925.2930
366.0361, 923.0468
366.5182, 920.4480
367.0003, 917.7827
367.4824, 914.9993
367.9645, 912.2584
368.4467, 909.6559
368.9288, 907.2592
369.4109, 904.6505
369.8930, 901.7739
370.3751, 898.7572
370.8572, 895.6522
371.3394, 892.2934
371.8215, 889.2350
372.3036, 886.7943
372.7857, 884.6736
373.2678, 881.6370
373.7499, 876.9120
374.2321, 872.5652
374.7142, 869.6544
375.1963, 868.4462
375.6784, 867.4835
376.1605, 866.9091
376.6426, 866.3842
377.1248, 865.3848
377.6069, 863.8372
378.0890, 862.1522
378.5711, 860.2816
379.0532, 858.3342
379.5353, 857.2684
380.0175, 857.1453
380.4996, 857.5695
380.9817, 858.3847
381.4638, 859.5203
381.9459, 860.3376
382.4280, 860.5231
382.9102, 860.5531
383.3923, 861.4464
383.8744, 863.1307
384.3565, 864.8528
384.8386, 866.2308
385.3207, 867.2772
385.8029, 867.7325
386.2850, 867.4035
386.7671, 867.4039
387.2492, 869.5016
387.7313, 872.8342
388.2134, 875.3968
388.6956, 875.1861
389.1777, 874.4943
389.6598, 875.7946
390.1419, 878.9893
390.6240, 881.7941
391.1061, 882.8643
391.5883, 882.8416
392.0704, 882.3371
392.5525, 880.9369
393.0346, 879.9136
393.5167, 879.8510
393.9988, 880.6143
394.4810, 881.8051
394.9631, 884.0878
395.4452, 886.1418
395.9273, 887.2469
396.4094, 887.0905
396.8915, 886.7139
397.3737, 885.6561
397.8558, 884.6799
398.3379, 884.7249
398.8200, 887.6245
399.3021, 889.6716
399.7842, 889.7866
400.2664, 887.9703
400.7485, 886.8035
401.2306, 887.0324
401.7127, 887.1754
402.1948, 886.1176
402.6769, 882.6614
403.1591, 880.6710
403.6412, 880.9193
404.1233, 882.5056
404.6054, 883.3648
405.0875, 883.6198
405.5696, 882.7602
406.0518, 880.1729
406.5339, 875.7922
407.0160, 872.2905
407.4981, 869.7248
407.9802, 868.0129
408.4623, 867.4755
408.9445, 868.0887
409.4266, 868.1308
409.9087, 866.8290
410.3908, 864.9665
410.8729, 864.4555
411.3550, 865.2773
411.8372, 866.5502
412.3193, 868.3621
412.8014, 870.1091
413.2835, 869.9465
413.7656, 867.1495
414.2477, 864.3513
414.7299, 864.4700
415.2120, 866.8016
415.6941, 869.6578
416.1762, 873.1442
416.6583, 876.2142
417.1404, 877.1805
417.6226, 876.1465
418.1047, 876.2464
418.5868, 880.5284
419.0689, 886.2182
419.5510, 890.7194
420.0331, 892.6811
420.5153, 894.1797
420.9974, 895.6036
421.4795, 897.1152
421.9616, 899.0681
422.4437, 902.2224
422.9258, 905.3183
423.4080, 907.9425
423.8901, 910.2090
424.3722, 911.6480
424.8543, 911.9655
425.3364, 911.5904
425.8185, 910.8835
426.3007, 909.1608
426.7828, 908.1306
427.2649, 908.2974
427.7470, 909.4413
428.2291, 910.1727
428.7112, 910.5068
429.1934, 910.3691
429.6755, 909.5541
430.1576, 907.8416
430.6397, 906.6022
431.1218, 906.0203
431.6039, 905.6663
432.0861, 904.5168
432.5682, 902.4563
433.0503, 901.5138
433.5324, 902.9254
434.0145, 905.8895
434.4966, 907.4825
434.9788, 907.6764
435.4609, 907.6216
435.9430, 908.0861
436.4251, 909.0707
436.9072, 910.6622
437.3893, 913.0904
437.8715, 915.6131
438.3536, 917.0654
438.8357, 917.8729
439.3178, 919.2224
439.7999, 922.0843
440.2820, 925.5353
440.7642, 928.7943
441.2463, 931.8331
441.7284, 934.6481
442.2105, 937.2463
442.6926, 939.6249
443.1747, 941.7750
443.6569, 943.5217
444.1390, 945.2311
444.6211, 946.8592
445.1032, 948.5123
445.5853, 950.4506
446.0674, 953.1058
446.5496, 955.7520
447.0317, 958.1970
447.5138, 960.5548
447.9959, 962.3510
448.4780, 962.9393
448.9601, 963.4677
449.4423, 965.2072
449.9244, 969.0694
450.4065, 972.2132
450.8886, 973.9809
451.3707, 974.7243
451.8528, 975.9553
452.3350, 977.6975
452.8171, 979.8609
453.2992, 982.9387
453.7813, 986.9590
454.2634, 988.5768
454.7455, 987.0428
455.2277, 985.2621
455.7098, 987.4132
456.1919, 992.9625
456.6740, 998.6066
457.1561, 1003.737
457.6382, 1007.808
458.1204, 1009.224
458.6025, 1008.273
459.0846, 1006.924
459.5667, 1006.342
460.0488, 1006.233
460.5309, 1006.173
461.0131, 1006.063
461.4952, 1006.232
461.9773, 1006.926
462.4594, 1008.043
462.9415, 1009.442
463.4236, 1011.867
463.9058, 1013.798
464.3879, 1014.067
464.8700, 1012.907
465.3521, 1012.609
465.8342, 1015.675
466.3163, 1018.323
466.7985, 1018.205
467.2806, 1012.362
467.7627, 1008.902
468.2448, 1009.570
468.7269, 1012.020
469.2090, 1012.979
469.6912, 1011.991
470.1733, 1010.316
470.6554, 1008.045
471.1375, 1005.253
471.6196, 1002.670
472.1017, 1000.290
472.5839, 998.1136
473.0660, 995.9409
473.5481, 993.7776
474.0302, 992.6706
474.5123, 993.0196
474.9944, 993.6074
475.4766, 992.3041
475.9587, 989.4339
476.4408, 987.0059
476.9229, 986.0425
477.4050, 985.9171
477.8871, 985.9058
478.3693, 985.9566
478.8514, 985.5212
479.3335, 984.0182
479.8156, 981.8890
480.2977, 979.5693
480.7798, 977.0125
481.2620, 974.7025
481.7441, 973.2063
482.2262, 972.0590
482.7083, 970.5791
483.1904, 968.1617
483.6725, 965.7000
484.1547, 963.2200
484.6368, 960.8029
485.1189, 959.3339
485.6010, 960.0423
486.0831, 960.8520
486.5652, 960.6770
487.0474, 958.8845
487.5295, 957.5099
488.0116, 957.1047
488.4937, 956.7238
488.9758, 954.7151
489.4579, 950.1803
489.9401, 946.8186
490.4222, 945.8392
490.9043, 946.6674
491.3864, 946.6279
491.8685, 945.6553
492.3506, 944.2395
492.8328, 942.3464
493.3149, 940.2120
493.7970, 938.9847
494.2791, 938.8492
494.7612, 939.1425
495.2433, 939.2234
495.7255, 939.1472
496.2076, 939.0526
496.6897, 939.0638
497.1718, 939.0232
497.6539, 938.4976
498.1360, 937.7086
498.6182, 937.4982
499.1003, 938.7933
499.5824, 940.5027
500.0645, 941.8835
500.5466, 942.8419
501.0287, 943.5663
501.5109, 943.4817
501.9930, 943.4611
502.4751, 944.3810
502.9572, 948.3896
503.4393, 950.8551
503.9214, 950.3519
504.4036, 947.8729
504.8857, 946.9531
505.3678, 948.4050
505.8499, 950.0191
506.3320, 951.0458
506.8141, 951.5001
507.2963, 951.0577
507.7784, 949.4568
508.2605, 947.6504
508.7426, 946.8709
509.2247, 947.0033
509.7068, 946.2985
510.1890, 944.4089
510.6711, 941.5862
511.1532, 937.8646
511.6353, 933.4318
512.1174, 929.3132
512.5995, 926.5716
513.0817, 924.0992
513.5638, 920.4388
514.0459, 915.6034
514.5280, 910.6066
515.0101, 906.3000
515.4922, 902.0134
515.9744, 896.9988
516.4565, 890.1365
516.9386, 884.3995
517.4207, 881.5427
517.9028, 880.2814
518.3849, 878.5052
518.8671, 876.1627
519.3492, 872.9348
519.8313, 868.0912
520.3134, 861.8713
520.7955, 857.3906
521.2776, 855.5208
521.7598, 854.0756
522.2419, 851.6762
522.7240, 847.9114
523.2061, 845.4945
523.6882, 844.9000
524.1703, 844.7021
524.6525, 842.7352
525.1346, 839.1328
525.6167, 836.0986
526.0988, 834.3324
526.5809, 833.4088
527.0630, 832.8925
527.5452, 832.6813
528.0273, 832.1533
528.5094, 830.3214
528.9915, 828.2986
529.4736, 827.5578
529.9557, 828.2468
530.4379, 828.8107
530.9200, 828.2999
531.4021, 827.1995
531.8842, 825.9132
532.3663, 823.5811
532.8484, 822.4266
533.3306, 824.2027
533.8127, 827.4451
534.2948, 829.0099
534.7769, 826.8215
535.2590, 825.0634
535.7411, 824.7421
536.2233, 825.8214
536.7054, 827.0130
537.1875, 828.4111
537.6696, 829.7542
538.1517, 830.8527
538.6339, 831.6806
539.1160, 832.5588
539.5981, 833.4520
540.0802, 834.5571
540.5623, 836.2551
541.0444, 838.4615
541.5266, 840.7581
542.0087, 843.1335
542.4908, 845.3831
542.9729, 847.1143
543.4550, 848.3926
543.9371, 849.5560
544.4193, 850.3338
544.9014, 851.3860
545.3835, 853.3944
545.8656, 856.4510
546.3477, 859.6043
546.8298, 862.6511
547.3120, 865.5598
547.7941, 868.2811
548.2762, 870.7836
548.7583, 873.1498
549.2404, 875.4481
549.7225, 877.5919
550.2047, 879.3770
550.6868, 880.4633
551.1689, 881.8661
551.6510, 883.9212
552.1331, 886.5197
552.6152, 888.7770
553.0974, 890.5733
553.5795, 892.6802
554.0616, 896.0821
554.5437, 900.4239
555.0258, 903.2989
555.5079, 904.4166
555.9901, 905.3972
556.4722, 908.0068
556.9543, 911.7562
557.4364, 915.6238
557.9185, 919.3008
558.4006, 923.0341
558.8828, 927.4028
559.3649, 931.9817
559.8470, 935.8996
560.3291, 937.9885
560.8112, 940.0287
561.2933, 942.8489
561.7755, 946.4768
562.2576, 950.1546
562.7397, 953.6052
563.2218, 957.1578
563.7039, 961.1111
564.1860, 966.0595
564.6682, 969.8438
565.1503, 972.2232
565.6324, 973.8166
566.1145, 975.1447
566.5966, 976.1309
567.0787, 977.9434
567.5609, 981.0805
568.0430, 984.9182
568.5251, 988.1351
569.0072, 990.7943
569.4893, 993.0889
569.9714, 995.2242
570.4536, 997.0446
570.9357, 997.8732
571.4178, 997.8117
571.8999, 998.5778
572.3820, 1002.586
572.8641, 1007.159
573.3463, 1009.858
573.8284, 1009.899
574.3105, 1009.042
574.7926, 1006.793
575.2747, 1004.289
575.7568, 1002.995
576.2390, 1004.320
576.7211, 1005.063
577.2032, 1004.494
577.6853, 1003.118
578.1674, 1002.876
578.6495, 1004.320
579.1317, 1005.282
579.6138, 1004.698
580.0959, 1002.771
580.5780, 1001.175
581.0601, 999.9280
581.5422, 998.7239
582.0244, 997.3920
582.5065, 995.8952
582.9886, 994.1949
583.4707, 992.2820
583.9528, 990.0710
584.4349, 987.0995
584.9171, 983.8717
585.3992, 981.1380
585.8813, 979.4615
586.3634, 977.9865
586.8455, 976.6425
587.3276, 975.2426
587.8098, 973.3312
588.2919, 970.3551
588.7740, 967.3135
589.2561, 964.7555
589.7382, 962.7059
590.2203, 959.0842
590.7025, 952.6632
591.1846, 946.9347
591.6667, 944.6021
592.1488, 945.9505
592.6309, 946.6453
593.1130, 946.5678
593.5952, 945.7744
594.0773, 944.4112
594.5594, 942.4063
595.0415, 939.4831
595.5236, 935.4673
596.0057, 930.6844
596.4879, 924.9241
596.9700, 918.6990
597.4521, 913.2644
597.9342, 909.1363
598.4163, 906.0038
598.8984, 904.1912
599.3806, 903.4874
599.8627, 902.2159
600.3448, 899.7748
600.8269, 896.8439
601.3090, 893.5034
601.7911, 889.3126
602.2733, 886.5930
602.7554, 886.2760
603.2375, 886.1188
603.7196, 883.7194
604.2017, 878.7556
604.6838, 874.6663
605.1660, 871.8546
605.6481, 869.9950
606.1302, 869.1794
606.6123, 869.0732
607.0944, 868.0631
607.5765, 864.9033
608.0587, 861.1797
608.5408, 858.5925
609.0229, 856.9791
609.5050, 855.6686
609.9871, 854.7892
610.4692, 853.7349
610.9514, 852.0437
611.4335, 849.6322
611.9156, 847.2720
612.3977, 845.1035
612.8798, 843.0339
613.3619, 841.1115
613.8441, 839.7144
614.3262, 837.3726
614.8083, 833.5718
615.2904, 829.5200
615.7725, 826.8537
616.2546, 825.6488
616.7368, 824.7805
617.2189, 824.3136
617.7010, 823.5805
618.1831, 821.0155
618.6652, 817.0326
619.1473, 813.2572
619.6295, 810.1281
620.1116, 807.8691
620.5937, 807.2460
621.0758, 807.9122
621.5579, 808.1307
622.0400, 806.8524
622.5222, 805.0257
623.0043, 803.1723
623.4864, 801.3754
623.9685, 799.3282
624.4506, 796.5764
624.9327, 793.9130
625.4149, 791.9118
625.8970, 790.9035
626.3791, 789.5258
626.8612, 787.4960
627.3433, 785.4865
627.8254, 784.7559
628.3076, 785.2183
628.7897, 784.9656
629.2718, 783.3358
629.7539, 781.0668
630.2360, 779.3234
630.7181, 777.9478
631.2003, 776.4581
631.6824, 773.9940
632.1645, 771.8110
632.6466, 771.3785
633.1287, 772.3697
633.6108, 772.6170
634.0930, 770.6281
634.5751, 768.3311
635.0572, 766.7447
635.5393, 766.0786
636.0214, 765.1428
636.5035, 763.5260
636.9857, 762.1324
637.4678, 761.9448
637.9499, 763.2892
638.4320, 763.3521
638.9141, 761.7421
639.3962, 759.4465
639.8784, 757.3585
640.3605, 755.6332
640.8426, 755.0828
641.3247, 756.6666
641.8068, 758.1864
642.2889, 756.7147
642.7711, 753.3619
643.2532, 750.6080
643.7353, 749.9949
644.2174, 749.8473
644.6995, 749.2921
645.1816, 748.4454
645.6638, 748.1953
646.1459, 749.5057
646.6280, 750.5810
647.1101, 750.7921
647.5922, 750.0912
648.0743, 749.2483
648.5565, 748.2060
649.0386, 747.1575
649.5207, 746.1422
650.0028, 745.2000
650.4849, 744.9517
650.9670, 745.5518
651.4492, 746.0536
651.9313, 745.3820
652.4134, 743.8954
652.8955, 742.2141
653.3776, 740.2549
653.8597, 738.6204
654.3419, 737.6886
654.8240, 737.3277
655.3061, 737.3522
655.7882, 738.4853
656.2703, 739.1395
656.7524, 738.4627
657.2346, 737.0700
657.7167, 736.9405
658.1988, 738.9291
658.6809, 740.2457
659.1630, 739.7938
659.6451, 737.8703
660.1273, 735.9036
660.6094, 733.8207
661.0915, 732.6202
661.5736, 733.7590
662.0557, 735.9922
662.5378, 736.8834
663.0200, 736.3016
663.5021, 735.0632
663.9842, 732.8969
664.4663, 730.8099
664.9484, 729.8789
665.4305, 730.6826
665.9127, 731.4495
666.3948, 731.9078
666.8769, 732.0519
667.3590, 731.8679
667.8411, 731.1335
668.3232, 730.6090
668.8054, 730.5598
669.2875, 730.5296
669.7696, 729.4424
670.2517, 727.2644
670.7338, 725.7646
671.2159, 725.7062
671.6981, 726.2935
672.1802, 725.7464
672.6623, 724.5521
673.1444, 724.4484
673.6265, 727.8424
674.1086, 731.4460
674.5908, 732.6425
675.0729, 731.6982
675.5550, 730.7811
676.0371, 730.9874
676.5192, 730.9890
677.0013, 730.0107
677.4835, 727.9067
677.9656, 726.4180
678.4477, 725.5219
678.9298, 725.2629
679.4119, 725.8622
679.8940, 727.3327
680.3762, 728.6496
680.8583, 729.8350
681.3404, 730.5810
681.8225, 730.1446
682.3046, 729.1062
682.7867, 728.8243
683.2689, 729.8616
683.7510, 730.7075
684.2331, 729.9447
684.7152, 728.4529
685.1973, 727.3682
685.6794, 727.0714
686.1616, 727.1083
686.6437, 727.5389
687.1258, 728.2263
687.6079, 728.9366
688.0900, 729.6482
688.5721, 730.4788
689.0543, 731.6968
689.5364, 732.8758
690.0185, 732.2438
690.5006, 729.8847
690.9827, 728.3201
691.4648, 729.6483
691.9470, 732.1146
692.4291, 732.8058
692.9112, 732.0335
693.3933, 731.5360
693.8754, 732.6343
694.3575, 734.0490
694.8397, 735.0162
695.3218, 735.4656
695.8039, 735.6516
696.2860, 734.8712
696.7681, 734.5867
697.2502, 735.9333
697.7324, 739.6848
698.2145, 740.8239
698.6966, 738.5573
699.1787, 735.9275
699.6608, 736.1750
700.1429, 738.7494
700.6251, 741.1151
701.1072, 743.0236
701.5893, 744.1861
702.0714, 743.5342
702.5535, 742.1801
703.0356, 741.8330
703.5178, 743.6732
703.9999, 745.3558
704.4820, 745.7725
704.9641, 745.5321
705.4462, 745.5828
705.9283, 745.9080
706.4105, 746.6689
706.8926, 748.0846
707.3747, 749.8407
707.8568, 751.1803
708.3389, 752.0875
708.8210, 752.9043
709.3032, 753.6234
709.7853, 754.4552
710.2674, 756.0468
710.7495, 758.2037
711.2316, 760.0402
711.7137, 761.3275
712.1959, 761.9088
712.6780, 761.2578
713.1601, 759.5780
713.6422, 758.3401
714.1243, 757.4736
714.6064, 757.6277
715.0886, 759.3025
715.5707, 762.5663
716.0528, 765.2721
716.5349, 767.4083
717.0170, 769.0802
717.4991, 770.2481
717.9813, 770.9693
718.4634, 771.6724
718.9455, 772.3508
719.4276, 773.3252
719.9097, 775.1469
720.3918, 777.3157
720.8740, 779.1140
721.3561, 780.4088
721.8382, 781.5953
722.3203, 782.8163
722.8024, 784.0436
723.2845, 785.2535
723.7667, 786.2994
724.2488, 787.5924
724.7309, 789.1952
725.2130, 790.9856
725.6951, 792.8431
726.1772, 794.7597
726.6594, 796.7141
727.1415, 798.6191
727.6236, 800.7077
728.1057, 803.7545
728.5878, 807.2585
729.0699, 809.9016
729.5521, 810.8702
730.0342, 811.4769
730.5163, 812.4077
730.9984, 813.6298
731.4805, 815.0833
731.9626, 816.7916
732.4448, 818.7160
732.9269, 821.0765
733.4090, 823.5997
733.8911, 825.3557
734.3732, 826.0709
734.8553, 827.0676
735.3375, 828.7096
735.8196, 830.9428
736.3017, 833.9572
736.7838, 837.5881
737.2659, 840.8307
737.7480, 842.7392
738.2302, 844.2977
738.7123, 846.3837
739.1944, 848.9504
739.6765, 851.6964
740.1586, 855.0997
740.6407, 858.1049
741.1229, 859.8690
741.6050, 860.4984
742.0871, 862.1555
742.5692, 865.2706
743.0513, 868.4323
743.5334, 870.9172
744.0156, 872.8000
744.4977, 874.3853
744.9798, 875.6808
745.4619, 877.4394
745.9440, 880.8588
746.4261, 884.7327
746.9083, 887.6911
747.3904, 889.6043
747.8725, 890.6614
748.3546, 890.0013
748.8367, 889.1800
749.3188, 889.1579
749.8010, 889.9434
750.2831, 891.9284
750.7652, 896.2596
751.2473, 900.0049
751.7294, 900.2789
752.2115, 897.1407
752.6937, 895.4788
753.1758, 895.7111
753.6579, 896.5184
754.1400, 897.0606
754.6221, 897.1135
755.1042, 895.9730
755.5864, 893.0517
756.0685, 890.9166
756.5506, 892.2126
757.0327, 894.3574
757.5148, 894.7120
757.9969, 890.8485
758.4791, 888.5592
758.9612, 888.7587
759.4433, 889.5115
759.9254, 888.0961
760.4075, 884.3495
760.8896, 881.7968
761.3718, 881.0552
761.8539, 881.3574
762.3360, 882.6214
762.8181, 884.0509
763.3002, 883.8204
763.7823, 880.3757
764.2645, 877.0154
764.7466, 875.5114
765.2287, 875.2642
765.7108, 875.3427
766.1929, 876.4456
766.6750, 876.6306
767.1572, 875.1569
767.6393, 873.1318
768.1214, 872.7605
768.6035, 874.1661
769.0856, 875.5178
769.5677, 876.3065
770.0499, 876.9128
770.5320, 877.9592
771.0141, 879.2956
771.4962, 880.5425
771.9783, 881.0241
772.4604, 881.9088
772.9426, 884.2430
773.4247, 887.3909
773.9068, 889.8488
774.3889, 890.9921
774.8710, 892.0566
775.3531, 893.1710
775.8353, 894.3835
776.3174, 895.7182
776.7995, 897.1466
777.2816, 899.2567
777.7637, 902.4579
778.2458, 906.2637
778.7280, 909.8623
779.2101, 913.3863
779.6922, 917.1678
780.1743, 921.3754
780.6564, 925.9257
781.1385, 931.1144
781.6207, 936.7364
782.1028, 941.7234
782.5849, 945.2833
783.0670, 949.4681
783.5491, 955.1589
784.0313, 961.7858
784.5134, 966.9179
784.9955, 970.5584
785.4776, 974.5499
785.9597, 980.1151
786.4418, 986.3497
786.9240, 991.7151
787.4061, 996.4329
787.8882, 1001.286
788.3703, 1005.741
788.8524, 1011.199
789.3345, 1019.154
789.8167, 1029.168
790.2988, 1037.077
790.7809, 1041.365
791.2630, 1046.435
791.7451, 1054.425
792.2272, 1064.269
792.7094, 1071.732
793.1915, 1076.825
793.6736, 1081.267
794.1557, 1084.974
794.6378, 1089.172
795.1199, 1095.489
795.6021, 1103.635
796.0842, 1112.680
796.5663, 1123.504
797.0484, 1133.805
797.5305, 1142.290
798.0126, 1149.102
798.4948, 1155.763
798.9769, 1162.333
799.4590, 1168.497
799.9411, 1173.766
800.4232, 1178.593
800.9053, 1184.838
801.3875, 1192.319
801.8696, 1199.174
802.3517, 1203.877
802.8338, 1207.803
803.3159, 1211.939
803.7980, 1216.399
804.2802, 1221.519
804.7623, 1227.953
805.2444, 1234.495
805.7265, 1240.803
806.2086, 1246.828
806.6907, 1252.683
807.1729, 1258.929
807.6550, 1262.440
808.1371, 1260.513
808.6192, 1255.319
809.1013, 1253.189
809.5834, 1253.469
810.0656, 1252.406
810.5477, 1246.309
811.0298, 1239.384
811.5119, 1234.785
811.9940, 1232.232
812.4761, 1228.674
812.9583, 1224.029
813.4404, 1217.823
813.9225, 1209.445
814.4046, 1199.366
814.8867, 1190.056
815.3688, 1181.652
815.8510, 1172.779
816.3331, 1162.034
816.8152, 1150.746
817.2973, 1141.240
817.7794, 1133.248
818.2615, 1125.881
818.7437, 1120.197
819.2258, 1113.655
819.7079, 1104.258
820.1900, 1092.463
820.6721, 1082.301
821.1542, 1073.934
821.6364, 1066.764
822.1185, 1060.993
822.6006, 1056.109
823.0827, 1049.865
823.5648, 1042.475
824.0469, 1035.198
824.5291, 1028.161
825.0112, 1022.006
825.4933, 1017.733
825.9754, 1014.862
826.4575, 1011.780
826.9396, 1007.014
827.4218, 1003.121
827.9039, 1000.777
828.3860, 999.7725
828.8681, 999.7766
829.3502, 1001.071
829.8323, 1001.653
830.3145, 1000.594
830.7966, 998.7344
831.2787, 997.5090
831.7608, 996.8233
832.2429, 996.4337
832.7250, 996.0438
833.2072, 996.0891
833.6893, 997.3690
834.1714, 999.2529
834.6535, 999.9901
835.1356, 998.7291
835.6177, 997.6955
836.0999, 997.1046
836.5820, 997.1165
837.0641, 998.2490
837.5462, 1000.428
838.0283, 1002.795
838.5104, 1005.042
838.9926, 1007.423
839.4747, 1010.377
839.9568, 1013.616
840.4389, 1016.686
840.9210, 1019.383
841.4031, 1021.899
841.8853, 1023.775
842.3674, 1025.705
842.8495, 1028.867
843.3316, 1033.618
843.8137, 1037.563
844.2958, 1039.950
844.7780, 1042.341
845.2601, 1047.510
845.7422, 1054.439
846.2243, 1060.706
846.7064, 1065.319
847.1885, 1070.022
847.6707, 1075.576
848.1528, 1081.882
848.6349, 1088.839
849.1170, 1095.664
849.5991, 1104.626
850.0812, 1116.692
850.5634, 1129.496
851.0455, 1140.034
851.5276, 1148.771
852.0097, 1159.410
852.4918, 1172.650
852.9739, 1186.612
853.4561, 1199.524
853.9382, 1212.241
854.4203, 1225.634
854.9024, 1239.953
855.3845, 1254.760
855.8666, 1270.016
856.3488, 1285.947
856.8309, 1302.447
857.3130, 1319.707
857.7951, 1336.971
858.2772, 1353.995
858.7593, 1371.495
859.2415, 1390.678
859.7236, 1410.406
860.2057, 1428.794
860.6878, 1445.613
861.1699, 1463.170
861.6520, 1483.279
862.1342, 1504.060
862.6163, 1524.819
863.0984, 1545.413
863.5805, 1565.623
864.0626, 1585.438
864.5447, 1604.672
865.0269, 1623.000
865.5090, 1640.795
865.9911, 1659.352
866.4732, 1678.286
866.9553, 1695.378
867.4374, 1708.877
867.9196, 1720.208
868.4017, 1730.203
868.8838, 1738.762
869.3659, 1744.839
869.8480, 1749.399
870.3301, 1749.820
870.8123, 1744.603
871.2944, 1734.978
871.7765, 1725.796
872.2586, 1716.800
872.7407, 1703.860
873.2228, 1684.430
873.7050, 1661.204
874.1871, 1635.752
874.6692, 1608.852
875.1513, 1581.753
875.6334, 1555.776
876.1155, 1528.725
876.5977, 1499.502
877.0798, 1469.371
877.5619, 1440.317
878.0440, 1412.305
878.5261, 1386.190
879.0082, 1362.000
879.4904, 1339.249
879.9725, 1317.003
880.4546, 1295.318
880.9367, 1274.238
881.4188, 1253.524
881.9009, 1233.952
882.3831, 1215.873
882.8652, 1198.938
883.3473, 1183.234
883.8294, 1168.873
884.3115, 1154.538
884.7936, 1139.987
885.2758, 1126.245
885.7579, 1114.733
886.2400, 1104.759
886.7221, 1094.758
887.2042, 1084.586
887.6863, 1074.588
888.1685, 1064.608
888.6506, 1055.036
889.1327, 1046.290
889.6148, 1038.446
890.0969, 1030.399
890.5790, 1021.941
891.0612, 1013.550
891.5433, 1005.406
892.0254, 997.5206
892.5075, 990.2813
892.9896, 983.5647
893.4717, 976.7517
893.9539, 969.2255
894.4360, 961.5633
894.9181, 953.9061
895.4002, 946.3397
895.8823, 939.7452
896.3644, 934.9785
896.8466, 929.4952
897.3287, 922.2810
897.8108, 914.1633
898.2929, 906.8627
898.7750, 900.4363
899.2571, 895.0911
899.7393, 891.7614
900.2214, 888.2570
900.7035, 881.7927
901.1856, 874.1492
901.6677, 868.4524
902.1498, 867.5159
902.6320, 865.4719
903.1141, 861.5639
903.5962, 856.8397
904.0783, 852.8164
904.5604, 849.3870
905.0425, 845.5765
905.5247, 841.1903
906.0068, 836.7358
906.4889, 832.6659
906.9710, 828.8191
907.4531, 824.8519
907.9352, 820.3085
908.4174, 817.2126
908.8995, 817.2197
909.3816, 817.0616
909.8637, 814.4199
910.3458, 809.2753
910.8279, 805.8698
911.3101, 804.2288
911.7922, 802.8094
912.2743, 800.3873
912.7564, 797.6531
913.2385, 795.1932
913.7206, 793.0693
914.2028, 791.4813
914.6849, 791.1978
915.1670, 790.6533
915.6491, 789.4111
916.1312, 787.5679
916.6133, 785.2963
917.0955, 782.5823
917.5776, 780.3353
918.0597, 779.1703
918.5418, 778.1867
919.0239, 775.7599
919.5060, 772.7600
919.9882, 770.8992
920.4703, 771.7037
920.9524, 772.4132
921.4345, 772.6995
921.9166, 772.5611
922.3987, 771.8089
922.8809, 770.3644
923.3630, 769.4537
923.8451, 769.2802
924.3272, 769.1765
924.8093, 768.3290
925.2914, 767.1717
925.7736, 766.3315
926.2557, 765.9656
926.7378, 765.5084
927.2199, 764.9418
927.7020, 764.1172
928.1841, 762.8584
928.6663, 761.1781
929.1484, 759.8341
929.6305, 758.8254
930.1126, 758.0159
930.5947, 757.2708
931.0768, 756.6885
931.5590, 756.3641
932.0411, 756.3071
932.5232, 756.5659
933.0053, 758.2672
933.4874, 758.8632
933.9695, 757.2314
934.4517, 754.3707
934.9338, 752.9658
935.4159, 753.0789
935.8980, 752.0916
936.3801, 748.9860
936.8622, 745.4326
937.3444, 743.4528
937.8265, 742.3701
938.3086, 741.1343
938.7907, 739.1608
939.2728, 737.6793
939.7549, 736.9763
940.2371, 736.7339
940.7192, 737.0070
941.2013, 737.8388
941.6834, 737.0384
942.1655, 734.4548
942.6476, 731.8346
943.1298, 730.3857
943.6119, 729.8687
944.0940, 730.4824
944.5761, 732.1345
945.0582, 732.8313
945.5403, 731.1666
946.0225, 729.6195
946.5046, 729.0024
946.9867, 729.0934
947.4688, 728.8078
947.9509, 728.2134
948.4330, 728.3725
948.9152, 730.7034
949.3973, 732.6478
949.8794, 730.5781
950.3615, 726.6305
950.8436, 724.5895
951.3257, 727.8780
951.8079, 729.5634
952.2900, 728.8129
952.7721, 726.9875
953.2542, 725.5225
953.7363, 724.4151
954.2184, 723.7542
954.7006, 723.5909
955.1827, 723.3513
955.6648, 722.1758
956.1469, 720.9904
956.6290, 720.7784
957.1111, 721.7950
957.5933, 722.3027
958.0754, 722.0899
958.5575, 721.6680
959.0396, 721.2178
959.5217, 720.7703
960.0038, 720.3503
960.4860, 719.9992
960.9681, 719.9340
961.4502, 720.3582
961.9323, 721.0096
962.4144, 722.0453
962.8965, 723.1335
963.3787, 723.5368
963.8608, 723.1071
964.3429, 722.2181
964.8250, 720.6644
965.3071, 719.2354
965.7892, 719.0703
966.2714, 719.8839
966.7535, 721.2811
967.2356, 723.3722
967.7177, 724.5552
968.1998, 722.9968
968.6819, 720.9440
969.1641, 720.0237
969.6462, 720.3234
970.1283, 720.6179
970.6104, 720.9181
971.0925, 721.1647
971.5746, 721.2839
972.0568, 721.3488
972.5389, 721.5327
973.0210, 721.7840
973.5031, 721.9310
973.9852, 721.5799
974.4673, 721.5324
974.9495, 722.6713
975.4316, 723.8932
975.9137, 722.7131
976.3958, 718.9027
976.8779, 717.3718
977.3600, 719.4090
977.8422, 721.9274
978.3243, 721.2800
978.8064, 719.3157
979.2885, 718.4060
979.7706, 719.1793
980.2527, 719.8572
980.7349, 720.1268
981.2170, 720.2762
981.6991, 720.4915
982.1812, 720.7195
982.6633, 720.3690
983.1454, 719.5118
983.6276, 719.0431
984.1097, 719.9061
984.5918, 720.9619
985.0739, 721.3064
985.5560, 721.1542
986.0381, 721.1374
986.5203, 721.7043
987.0024, 721.5323
987.4845, 720.2728
987.9666, 718.5871
988.4487, 717.1900
988.9308, 716.1768
989.4130, 715.8510
989.8951, 716.3245
990.3772, 717.0649
990.8593, 718.5195
991.3414, 719.5201
991.8235, 718.7539
992.3057, 716.0759
992.7878, 715.4644
993.2699, 717.2228
993.7520, 719.0956
994.2341, 719.7588
994.7162, 719.8601
995.1984, 720.8761
995.6805, 722.2634
996.1626, 722.5153
996.6447, 719.5987
997.1268, 717.3545
997.6089, 716.5464
998.0911, 716.8126
998.5732, 718.0778
999.0553, 720.3275
999.5374, 721.3986
1000.020, 720.9459
1000.502, 719.8658
1000.984, 718.6037
1001.466, 717.3662
1001.948, 716.2568
1002.430, 715.2704
1002.912, 714.9766
1003.394, 715.8058
1003.876, 716.4951
1004.359, 716.4336
1004.841, 715.9174
1005.323, 716.0420
1005.805, 716.5740
1006.287, 716.5114
1006.769, 714.4571
1007.251, 712.9650
1007.733, 713.8964
1008.216, 715.9527
1008.698, 717.3512
1009.180, 718.0828
1009.662, 718.0667
1010.144, 717.1891
1010.626, 716.0972
1011.108, 715.3919
1011.590, 714.9189
1012.072, 714.3431
1012.555, 713.6674
1013.037, 713.4771
1013.519, 714.5793
1014.001, 715.4904
1014.483, 715.6913
1014.965, 715.3696
1015.447, 714.9913
1015.929, 714.6042
1016.411, 714.8348
1016.894, 716.1988
1017.376, 717.5109
1017.858, 717.9022
1018.340, 717.5420
1018.822, 716.5191
1019.304, 714.2216
1019.786, 712.9731
1020.268, 713.0256
1020.751, 713.4794
1021.233, 713.5658
1021.715, 713.5466
1022.197, 714.4161
1022.679, 715.9684
1023.161, 716.8990
1023.643, 715.8400
1024.125, 714.8273
1024.607, 714.9326
1025.090, 715.5305
1025.572, 715.0588
1026.054, 713.3682
1026.536, 712.8531
1027.018, 714.1006
1027.500, 715.8851
1027.982, 717.3627
1028.464, 718.3846
1028.947, 718.7314
1029.429, 718.2777
1029.911, 717.5282
1030.393, 716.2961
1030.875, 715.2576
1031.357, 714.7474
1031.839, 714.7164
1032.321, 715.2726
1032.803, 716.2264
1033.286, 716.7683
1033.768, 715.4869
1034.250, 714.8613
1034.732, 717.0159
1035.214, 719.9839
1035.696, 720.7590
1036.178, 718.8014
1036.660, 717.5798
1037.143, 717.3409
1037.625, 717.5986
1038.107, 718.1401
1038.589, 718.7480
1039.071, 719.0698
1039.553, 719.1088
1040.035, 719.3935
1040.517, 720.7803
1041.000, 721.1610
1041.482, 719.4354
1041.964, 716.8642
1042.446, 716.9545
1042.928, 719.0069
1043.410, 720.0280
1043.892, 718.7621
1044.374, 717.4838
1044.856, 717.7975
1045.339, 718.5918
1045.821, 718.9185
1046.303, 718.7543
1046.785, 717.9543
1047.267, 716.3812
1047.749, 715.4064
1048.231, 716.4811
1048.713, 718.3090
1049.195, 719.4641
1049.677, 719.9848
1050.160, 719.9986
1050.642, 718.9024
1051.124, 718.2197
1051.606, 718.3317
1052.088, 718.5770
1052.570, 717.7486
1053.052, 716.2555
1053.534, 715.7276
1054.017, 716.3607
1054.499, 717.7282
1054.981, 721.2138
1055.463, 723.8301
1055.945, 722.9435
1056.427, 719.3527
1056.909, 717.5691
1057.391, 717.7499
1057.874, 717.9970
1058.356, 717.6208
1058.838, 717.1383
1059.320, 717.4627
1059.802, 717.9805
1060.284, 717.6830
1060.766, 715.3914
1061.248, 714.7575
1061.730, 716.4893
1062.213, 718.7005
1062.695, 720.2864
1063.177, 721.2411
1063.659, 721.4559
1064.141, 721.0142
1064.623, 720.3206
1065.105, 718.5699
1065.587, 717.7500
1066.070, 719.6089
1066.552, 722.3427
1067.034, 723.0416
1067.516, 721.6084
1067.998, 721.2947
1068.480, 722.6061
1068.962, 723.7379
1069.444, 722.8463
1069.927, 721.1764
1070.409, 719.5821
1070.891, 718.2248
1071.373, 717.8687
1071.855, 719.0234
1072.337, 719.7458
1072.819, 719.2285
1073.301, 718.3007
1073.783, 718.5779
1074.266, 719.5615
1074.748, 720.1320
1075.230, 719.6887
1075.712, 719.6865
1076.194, 721.0681
1076.676, 722.3673
1077.158, 722.6248
1077.640, 721.9550
1078.122, 721.5623
1078.604, 721.4189
1079.087, 721.3011
1079.569, 721.0723
1080.051, 720.8364
1080.533, 720.7408
1081.015, 720.6410
1081.497, 720.1722
1081.979, 719.0782
1082.461, 718.7866
1082.944, 719.3915
1083.426, 720.8465
1083.908, 724.3823
1084.390, 727.9186
1084.872, 728.5299
1085.354, 726.3221
1085.836, 724.6026
1086.318, 723.8152
1086.801, 723.6558
1087.283, 724.2414
1087.765, 725.1320
1088.247, 725.7528
1088.729, 725.9975
1089.211, 725.3784
1089.693, 723.5345
1090.175, 722.1961
1090.657, 722.3798
1091.140, 723.0267
1091.622, 723.6390
1092.104, 724.2045
1092.586, 724.6508
1093.068, 724.9795
1093.550, 725.1747
1094.032, 724.8917
1094.514, 724.9806
1094.997, 726.7009
1095.479, 728.8547
1095.961, 729.7617
1096.443, 728.8764
1096.925, 728.3076
1097.407, 727.9482
1097.889, 728.6435
1098.371, 732.6736
1098.854, 737.0146
1099.336, 737.3063
1099.818, 734.3867
1100.300, 731.8440
1100.782, 730.8041
1101.264, 729.5419
1101.746, 727.6345
1102.228, 725.9022
1102.710, 725.8165
1103.193, 726.7108
1103.675, 726.6641
1104.157, 725.4617
1104.639, 725.0834
1105.121, 727.6263
1105.603, 729.7488
1106.085, 730.0477
1106.567, 729.1091
1107.049, 728.5839
1107.531, 728.4549
1108.014, 728.6114
1108.496, 728.9799
1108.978, 729.7554
1109.460, 731.1691
1109.942, 732.9890
1110.424, 735.5687
1110.906, 739.0670
1111.388, 738.2981
1111.871, 732.8775
1112.353, 728.7853
1112.835, 730.0010
1113.317, 732.7527
1113.799, 732.8280
1114.281, 731.6390
1114.763, 731.6224
1115.245, 734.7972
1115.728, 735.4952
1116.210, 733.0838
1116.692, 730.3241
1117.174, 729.1248
1117.656, 729.3425
1118.138, 731.6446
1118.620, 735.3128
1119.102, 737.5124
1119.584, 735.5472
1120.067, 734.4318
1120.549, 735.2804
1121.031, 736.6892
1121.513, 736.7296
1121.995, 735.7384
1122.477, 734.7156
1122.959, 733.7633
1123.441, 733.3288
1123.924, 733.8843
1124.406, 734.7987
1124.888, 736.1358
1125.370, 737.4543
1125.852, 737.3102
1126.334, 735.8417
1126.816, 734.3981
1127.298, 733.1309
1127.781, 732.8367
1128.263, 735.3339
1128.745, 738.1122
1129.227, 738.8037
1129.709, 737.5187
1130.191, 737.4706
1130.673, 738.7753
1131.155, 739.4191
1131.637, 738.2394
1132.120, 736.6774
1132.602, 736.0263
1133.084, 736.0463
1133.566, 736.4702
1134.048, 737.3563
1134.530, 738.3469
1135.012, 739.5833
1135.494, 740.3245
1135.976, 739.6755
1136.458, 738.5152
1136.941, 738.1641
1137.423, 738.4647
1137.905, 739.0265
1138.387, 740.2415
1138.869, 740.9035
1139.351, 740.7666
1139.833, 740.4644
1140.315, 740.5934
1140.798, 741.0339
1141.280, 741.6525
1141.762, 742.3661
1142.244, 742.7311
1142.726, 742.4390
1143.208, 741.8787
1143.690, 740.9029
1144.172, 740.0091
1144.655, 740.3749
1145.137, 741.5176
1145.619, 741.0167
1146.101, 738.5575
1146.583, 737.1667
1147.065, 740.0009
1147.547, 742.6893
1148.029, 743.2281
1148.511, 742.1815
1148.994, 740.6536
1149.476, 738.8164
1149.958, 738.3131
1150.440, 739.6700
1150.922, 741.6176
1151.404, 744.1326
1151.886, 746.0814
1152.368, 746.1155
1152.851, 744.5782
1153.333, 745.1843
1153.815, 747.9394
1154.297, 749.4764
1154.779, 747.9017
1155.261, 746.0671
1155.743, 746.8206
1156.225, 748.6375
1156.708, 749.8532
1157.190, 750.3986
1157.672, 750.1522
1158.154, 748.9919
1158.636, 748.1495
1159.118, 748.5640
1159.600, 749.3932
1160.082, 749.8251
1160.564, 749.9855
1161.047, 750.1194
1161.529, 750.7426
1162.011, 750.0478
1162.493, 747.6805
1162.975, 745.4652
1163.457, 744.8489
1163.939, 745.1923
1164.421, 745.6696
1164.903, 746.3450
1165.385, 747.5281
1165.868, 750.2581
1166.350, 751.5062
1166.832, 750.7237
1167.314, 749.2633
1167.796, 748.0787
1168.278, 747.4096
1168.760, 747.9724
1169.242, 749.6098
1169.725, 751.1051
1170.207, 752.4742
1170.689, 753.0144
1171.171, 752.3092
1171.653, 751.3422
1172.135, 751.7049
1172.617, 752.8231
1173.099, 753.4019
1173.582, 753.3002
1174.064, 753.1082
1174.546, 752.2361
1175.028, 752.5416
1175.510, 755.1826
1175.992, 758.3995
1176.474, 758.1945
1176.956, 755.6374
1177.438, 753.6773
1177.921, 752.8419
1178.403, 752.7991
1178.885, 754.1105
1179.367, 755.4232
1179.849, 756.2249
1180.331, 756.6390
1180.813, 756.8979
1181.295, 757.0690
1181.778, 757.4554
1182.260, 758.2724
1182.742, 758.8259
1183.224, 758.7502
1183.706, 758.3272
1184.188, 757.4760
1184.670, 756.4266
1185.152, 756.5742
1185.635, 757.7665
1186.117, 759.3244
1186.599, 761.3956
1187.081, 762.9121
1187.563, 763.0727
1188.045, 762.6469
1188.527, 762.1526
1189.009, 761.5998
1189.491, 760.7741
1189.974, 759.8106
1190.456, 759.7244
1190.938, 762.2936
1191.420, 764.1363
1191.902, 762.6529
1192.384, 760.2983
1192.866, 759.6211
1193.348, 760.6678
1193.830, 760.7783
1194.313, 760.0336
1194.795, 759.5543
1195.277, 760.0006
1195.759, 760.8993
1196.241, 762.4244
1196.723, 763.9930
1197.205, 764.8440
1197.687, 764.9651
1198.169, 764.9591
1198.652, 764.8599
1199.134, 764.7371
1199.616, 764.9883
1200.098, 764.8733
1200.580, 763.1545
1201.062, 761.1614
1201.544, 761.4349
1202.026, 764.0730
1202.509, 765.0067
1202.991, 763.8646
1203.473, 762.8268
1203.955, 763.9117
1204.437, 765.1761
1204.919, 765.2221
1205.401, 764.5427
1205.883, 764.1321
1206.365, 763.9727
1206.848, 764.6484
1207.330, 766.2924
1207.812, 767.6811
1208.294, 767.9219
1208.776, 767.5380
1209.258, 766.4036
1209.740, 765.0106
1210.222, 764.7403
1210.705, 765.6082
1211.187, 766.9344
1211.669, 768.7081
1212.151, 769.9972
1212.633, 770.0065
1213.115, 769.2844
1213.597, 767.8460
1214.079, 766.0388
1214.562, 764.8643
1215.044, 764.3306
1215.526, 764.9446
1216.008, 767.0624
1216.490, 769.0145
1216.972, 769.1007
1217.454, 768.8388
1217.936, 769.5886
1218.418, 771.0172
1218.901, 771.0701
1219.383, 769.8259
1219.865, 769.2551
1220.347, 769.9932
1220.829, 771.1894
1221.311, 773.0705
1221.793, 774.3543
1222.275, 773.7917
1222.757, 771.7523
1223.240, 770.7979
1223.722, 770.8998
1224.204, 771.8145
1224.686, 774.0059
1225.168, 775.4011
1225.650, 773.4680
1226.132, 771.2465
1226.614, 771.3668
1227.096, 773.4401
1227.579, 773.6018
1228.061, 772.1019
1228.543, 771.1159
1229.025, 771.5441
1229.507, 772.4968
1229.989, 774.2973
1230.471, 775.6180
1230.953, 775.2311
1231.436, 773.3825
1231.918, 772.3096
1232.400, 771.9886
1232.882, 772.3629
1233.364, 773.8734
1233.846, 775.1804
1234.328, 775.6943
1234.810, 775.6716
1235.292, 774.9665
1235.775, 773.8189
1236.257, 774.4694
1236.739, 776.5823
1237.221, 778.3936
1237.703, 779.6046
1238.185, 779.6194
1238.667, 776.5958
1239.149, 773.9084
1239.632, 774.4896
1240.114, 777.5965
1240.596, 778.4942
1241.078, 777.7714
1241.560, 777.9838
1242.042, 781.9354
1242.524, 784.4628
1243.006, 783.7526
1243.489, 782.0452
1243.971, 780.7250
1244.453, 779.8632
1244.935, 780.1099
1245.417, 781.1746
1245.899, 781.9675
1246.381, 781.1361
1246.863, 781.4645
1247.345, 783.8389
1247.828, 786.4042
1248.310, 787.4270
1248.792, 787.4511
1249.274, 788.1292
1249.756, 789.1409
1250.238, 789.3397
1250.720, 787.1371
1251.202, 785.9871
1251.684, 786.4359
1252.167, 787.2457
1252.649, 787.0762
1253.131, 786.6390
1253.613, 787.5978
1254.095, 789.5195
1254.577, 790.9603
1255.059, 792.1693
1255.541, 791.2067
1256.023, 787.0878
1256.506, 783.8277
1256.988, 786.5165
1257.470, 791.1464
1257.952, 791.8481
1258.434, 789.6891
1258.916, 788.1539
1259.398, 787.7518
1259.880, 787.7472
1260.363, 788.1058
1260.845, 788.8652
1261.327, 790.4863
1261.809, 792.1641
1262.291, 793.3664
1262.773, 793.8870
1263.255, 793.1110
1263.737, 790.4711
1264.219, 789.4619
1264.702, 790.3918
1265.184, 791.7449
1265.666, 792.6852
1266.148, 793.2607
1266.630, 793.1495
1267.112, 792.8326
1267.594, 793.4484
1268.076, 795.1296
1268.559, 795.5281
1269.041, 794.5069
1269.523, 793.7252
1270.005, 794.7502
1270.487, 795.8810
1270.969, 795.5968
1271.451, 795.1346
1271.933, 796.5987
1272.416, 799.7431
1272.898, 801.5059
1273.380, 801.7321
1273.862, 801.1269
1274.344, 798.5948
1274.826, 797.2891
1275.308, 799.0736
1275.790, 801.6171
1276.272, 801.7015
1276.755, 800.0645
1277.237, 799.5903
1277.719, 800.2763
1278.201, 800.7863
1278.683, 800.2961
1279.165, 799.8846
1279.647, 799.6779
1280.129, 799.7483
1280.611, 800.1656
1281.094, 800.9186
1281.576, 802.3483
1282.058, 804.1953
1282.540, 805.1048
1283.022, 804.0002
1283.504, 803.2916
1283.986, 803.2255
1284.468, 803.5280
1284.950, 804.5679
1285.433, 805.3660
1285.915, 803.6278
1286.397, 800.4099
1286.879, 800.2040
1287.361, 804.3910
1287.843, 806.9843
1288.325, 807.3377
1288.807, 807.0656
1289.290, 807.2629
1289.772, 807.7150
1290.254, 808.5316
1290.736, 809.3612
1291.218, 809.4178
1291.700, 808.6315
1292.182, 807.9485
1292.664, 807.4266
1293.146, 807.0162
1293.629, 806.4005
1294.111, 806.1920
1294.593, 806.8661
1295.075, 808.0804
1295.557, 809.8633
1296.039, 811.9966
1296.521, 812.3283
1297.003, 810.9484
1297.486, 809.7469
1297.968, 809.6415
1298.450, 810.2787
1298.932, 812.1852
1299.414, 813.7643
1299.896, 812.4307
1300.378, 809.5969
1300.860, 809.6952
1301.343, 812.1760
1301.825, 813.7664
##END=



