##NAMES=Shigaite
##RRUFFID=R080090
##IDEAL CHEMISTRY=NaAl_3_Mn^2+^_6_(S^6+^O_4_)_2_(OH)_18_&#183;12H_2_O
##LOCALITY=Ioi Mine, Shiga Prefecture, Kinki Region, Honshu Island, Japan
##OWNER=RRUFF
##SOURCE=Michael Scott
##DESCRIPTION=Semi-transparent, dull-yellow to pale yellow coating
##STATUS=The identification of this mineral has been confirmed by single-crystal X-ray diffraction.
##URL=rruff.info/R080090
92.52344, 209.9964
93.00555, 209.1312
93.48767, 209.3779
93.96979, 214.7827
94.45190, 220.4078
94.93402, 225.6382
95.41614, 227.4243
95.89825, 226.7037
96.38037, 225.2986
96.86249, 223.3389
97.34460, 221.3343
97.82672, 219.8017
98.30884, 218.0814
98.79095, 215.9919
99.27307, 213.3843
99.75519, 210.4016
100.2373, 207.7627
100.7194, 205.6195
101.2015, 203.7776
101.6837, 202.1532
102.1658, 200.7385
102.6479, 199.5246
103.1300, 198.4907
103.6121, 197.6373
104.0942, 197.0051
104.5764, 196.5161
105.0585, 196.1197
105.5406, 195.8211
106.0227, 195.5859
106.5048, 195.3261
106.9869, 195.0023
107.4691, 194.5800
107.9512, 194.0792
108.4333, 193.4837
108.9154, 192.7586
109.3975, 191.7632
109.8796, 190.3816
110.3618, 189.4436
110.8439, 189.1169
111.3260, 189.0606
111.8081, 189.3122
112.2902, 189.7826
112.7723, 190.2055
113.2544, 190.1803
113.7366, 189.3022
114.2187, 188.7120
114.7008, 188.5517
115.1829, 188.5746
115.6650, 188.5840
116.1471, 188.5096
116.6293, 188.3689
117.1114, 188.1929
117.5935, 187.9621
118.0756, 187.7343
118.5577, 187.4901
119.0398, 187.2536
119.5220, 187.0961
120.0041, 187.0906
120.4862, 187.1461
120.9683, 187.0539
121.4504, 186.7236
121.9325, 186.3958
122.4147, 186.2930
122.8968, 186.4333
123.3789, 186.5634
123.8610, 186.5379
124.3431, 186.4388
124.8252, 186.3377
125.3074, 186.2622
125.7895, 186.1882
126.2716, 186.0348
126.7537, 185.6644
127.2358, 185.4781
127.7179, 185.6989
128.2001, 186.1214
128.6822, 186.4667
129.1643, 186.5382
129.6464, 186.3696
130.1285, 186.3855
130.6107, 186.9916
131.0928, 187.4037
131.5749, 187.3221
132.0570, 186.8751
132.5391, 186.3753
133.0212, 186.0993
133.5034, 186.0869
133.9855, 186.0500
134.4676, 185.9800
134.9497, 185.9006
135.4318, 185.8076
135.9139, 185.7080
136.3960, 185.6365
136.8782, 185.6369
137.3603, 185.7240
137.8424, 185.8265
138.3245, 185.9543
138.8066, 186.0900
139.2887, 186.2433
139.7709, 186.4385
140.2530, 186.5592
140.7351, 186.3718
141.2172, 185.9080
141.6993, 185.5268
142.1814, 185.4667
142.6636, 185.6351
143.1457, 185.6825
143.6278, 185.4765
144.1099, 185.1867
144.5920, 184.9031
145.0741, 184.6360
145.5563, 184.5025
146.0384, 184.7018
146.5205, 185.2957
147.0026, 185.6926
147.4847, 185.5935
147.9668, 185.3899
148.4490, 185.2905
148.9311, 185.3380
149.4132, 185.4304
149.8953, 185.4017
150.3774, 185.1537
150.8595, 184.9834
151.3417, 185.0717
151.8238, 185.1477
152.3059, 184.9012
152.7880, 184.2348
153.2701, 183.4009
153.7522, 183.0506
154.2344, 184.0856
154.7165, 184.5901
155.1986, 184.0333
155.6807, 183.0335
156.1628, 182.3581
156.6449, 182.3966
157.1271, 183.0078
157.6092, 183.6500
158.0913, 184.7049
158.5734, 185.3855
159.0555, 185.2544
159.5376, 184.5423
160.0198, 183.8463
160.5019, 183.4916
160.9840, 183.4103
161.4661, 183.2912
161.9482, 183.1904
162.4303, 183.0004
162.9125, 182.5296
163.3946, 181.7958
163.8767, 181.2511
164.3588, 181.3308
164.8409, 181.7347
165.3230, 181.9501
165.8052, 181.8292
166.2873, 181.5437
166.7694, 181.3016
167.2515, 181.1055
167.7336, 180.9431
168.2157, 180.7282
168.6979, 180.5603
169.1800, 180.6169
169.6621, 181.1043
170.1442, 181.7697
170.6263, 181.8398
171.1084, 180.8381
171.5906, 179.9841
172.0727, 179.7171
172.5548, 179.8082
173.0369, 179.9342
173.5190, 179.8941
174.0011, 179.7168
174.4833, 179.6487
174.9654, 179.8419
175.4475, 179.9986
175.9296, 180.0501
176.4117, 180.0181
176.8938, 179.9540
177.3760, 179.8970
177.8581, 179.8484
178.3402, 179.7501
178.8223, 179.5629
179.3044, 179.3717
179.7865, 179.1930
180.2687, 179.0344
180.7508, 178.9050
181.2329, 178.8142
181.7150, 178.7653
182.1971, 178.7444
182.6792, 178.7363
183.1614, 178.7639
183.6435, 178.8768
184.1256, 179.0625
184.6077, 179.2131
185.0898, 179.1996
185.5719, 179.0133
186.0541, 178.9894
186.5362, 179.3668
187.0183, 179.7743
187.5004, 179.7679
187.9825, 179.2762
188.4646, 178.8188
188.9468, 179.0052
189.4289, 179.6701
189.9110, 180.1508
190.3931, 180.2375
190.8752, 180.0717
191.3573, 179.8472
191.8395, 179.5564
192.3216, 179.2660
192.8037, 178.9162
193.2858, 178.5885
193.7679, 178.5139
194.2500, 179.0092
194.7322, 179.8613
195.2143, 180.3592
195.6964, 180.3008
196.1785, 180.1633
196.6606, 180.2758
197.1427, 180.5267
197.6249, 180.6567
198.1070, 180.3412
198.5891, 179.6668
199.0712, 179.5438
199.5533, 180.4339
200.0354, 181.4120
200.5176, 182.2685
200.9997, 182.9377
201.4818, 183.3237
201.9639, 183.2980
202.4460, 182.8493
202.9281, 182.4655
203.4103, 182.1357
203.8924, 181.8916
204.3745, 181.7524
204.8566, 181.7118
205.3387, 181.7558
205.8208, 181.8730
206.3030, 182.0656
206.7851, 182.3294
207.2672, 182.8221
207.7493, 183.2354
208.2314, 183.4120
208.7135, 183.3839
209.1957, 183.2823
209.6778, 183.2135
210.1599, 183.1714
210.6420, 183.2301
211.1241, 183.3438
211.6062, 183.5701
212.0884, 184.0249
212.5705, 184.6572
213.0526, 185.2701
213.5347, 185.7211
214.0168, 185.9956
214.4989, 185.9237
214.9811, 184.0478
215.4632, 185.4444
215.9453, 186.1800
216.4274, 186.2901
216.9095, 183.9012
217.3916, 184.7392
217.8737, 184.2840
218.3559, 183.7758
218.8380, 185.0680
219.3201, 183.0426
219.8022, 184.3062
220.2843, 184.2569
220.7664, 184.8085
221.2486, 184.0589
221.7307, 183.7113
222.2128, 184.6652
222.6949, 184.8984
223.1770, 183.9990
223.6591, 184.5888
224.1413, 182.5179
224.6234, 182.7818
225.1055, 184.0531
225.5876, 183.2192
226.0697, 183.8328
226.5518, 183.8951
227.0340, 181.4519
227.5161, 183.3660
227.9982, 183.3957
228.4803, 183.2682
228.9624, 183.4665
229.4445, 183.1408
229.9267, 182.7188
230.4088, 182.3857
230.8909, 182.0149
231.3730, 181.3833
231.8551, 180.4938
232.3372, 179.3190
232.8194, 177.3899
233.3015, 175.3277
233.7836, 173.9049
234.2657, 173.5327
234.7478, 173.8311
235.2299, 173.9596
235.7121, 173.8386
236.1942, 173.7020
236.6763, 173.6413
237.1584, 173.5963
237.6405, 173.4905
238.1227, 173.2823
238.6048, 173.0267
239.0869, 172.8700
239.5690, 172.8739
240.0511, 172.8727
240.5332, 172.7260
241.0154, 172.6037
241.4975, 172.7292
241.9796, 173.2018
242.4617, 173.8397
242.9438, 174.1695
243.4259, 173.9467
243.9081, 173.7847
244.3902, 173.8815
244.8723, 174.0051
245.3544, 173.8286
245.8365, 173.2383
246.3186, 172.5504
246.8008, 172.5235
247.2829, 173.9676
247.7650, 174.9097
248.2471, 175.0601
248.7292, 174.8130
249.2113, 174.4485
249.6935, 174.0810
250.1756, 173.7720
250.6577, 173.6469
251.1398, 173.8512
251.6219, 174.0456
252.1040, 174.2755
252.5862, 174.4702
253.0683, 174.5211
253.5504, 174.4085
254.0325, 174.2707
254.5146, 174.3471
254.9967, 174.8750
255.4789, 175.1724
255.9610, 175.1605
256.4431, 174.9697
256.9252, 174.6335
257.4073, 174.1790
257.8894, 173.7711
258.3716, 173.6467
258.8537, 173.9688
259.3358, 174.1705
259.8179, 174.0756
260.3000, 173.9669
260.7821, 174.1425
261.2643, 174.6416
261.7464, 175.1972
262.2285, 175.5138
262.7106, 175.5261
263.1927, 175.5739
263.6748, 175.7231
264.1570, 175.8688
264.6391, 175.9146
265.1212, 175.8523
265.6033, 175.7469
266.0854, 175.6585
266.5675, 175.5860
267.0497, 175.4751
267.5318, 175.2664
268.0139, 175.0592
268.4960, 174.9139
268.9781, 174.8376
269.4602, 174.8532
269.9424, 175.0125
270.4245, 175.2943
270.9066, 175.5108
271.3887, 175.7520
271.8708, 175.8567
272.3529, 175.5807
272.8351, 174.9630
273.3172, 174.4732
273.7993, 174.4678
274.2814, 174.7947
274.7635, 174.9105
275.2456, 174.6911
275.7278, 174.3876
276.2099, 174.1337
276.6920, 173.9328
277.1741, 173.8259
277.6562, 173.8987
278.1383, 174.0356
278.6205, 174.0121
279.1026, 173.7956
279.5847, 173.4883
280.0668, 172.3677
280.5489, 173.0726
281.0310, 173.4104
281.5132, 173.4010
281.9953, 172.0040
282.4774, 172.3988
282.9595, 172.0755
283.4416, 171.7227
283.9237, 172.3696
284.4059, 171.1745
284.8880, 171.8055
285.3701, 171.7076
285.8522, 171.9433
286.3343, 171.4565
286.8164, 171.1929
287.2986, 171.6520
287.7807, 171.7109
288.2628, 171.1410
288.7449, 171.3979
289.2270, 170.1775
289.7091, 170.2535
290.1913, 170.8887
290.6734, 170.3551
291.1555, 170.6252
291.6376, 169.9116
292.1197, 169.9766
292.6018, 169.9669
293.0840, 169.8311
293.5661, 169.7276
294.0482, 169.8487
294.5303, 170.0700
295.0124, 170.1499
295.4945, 169.8892
295.9767, 169.4887
296.4588, 169.3168
296.9409, 169.4197
297.4230, 169.5958
297.9051, 169.7989
298.3872, 169.9985
298.8694, 170.1678
299.3515, 170.3266
299.8336, 170.4055
300.3157, 170.2899
300.7978, 169.9522
301.2799, 169.5762
301.7621, 169.0798
302.2442, 168.6596
302.7263, 168.5315
303.2084, 168.7630
303.6905, 169.1171
304.1726, 169.3835
304.6548, 169.5605
305.1369, 169.6738
305.6190, 169.7581
306.1011, 169.7466
306.5832, 169.5384
307.0653, 169.1370
307.5475, 168.7551
308.0296, 168.5663
308.5117, 168.5592
308.9938, 168.6001
309.4759, 168.7207
309.9580, 168.8307
310.4402, 168.8337
310.9223, 168.7638
311.4044, 168.7516
311.8865, 168.9327
312.3686, 169.2517
312.8507, 169.4728
313.3329, 169.5869
313.8150, 169.6011
314.2971, 169.4104
314.7792, 169.1431
315.2613, 169.0598
315.7434, 169.4058
316.2256, 169.9244
316.7077, 170.0308
317.1898, 169.5990
317.6719, 169.0998
318.1540, 168.6358
318.6361, 168.2560
319.1183, 168.0138
319.6004, 167.9113
320.0825, 167.9869
320.5646, 168.3955
321.0467, 169.2208
321.5288, 169.8465
322.0110, 170.0118
322.4931, 169.9238
322.9752, 169.6129
323.4573, 169.0748
323.9394, 168.6723
324.4215, 168.9469
324.9037, 169.8755
325.3858, 170.2981
325.8679, 169.6338
326.3500, 168.7714
326.8321, 168.3383
327.3142, 168.3025
327.7964, 168.3568
328.2785, 168.2772
328.7606, 168.1096
329.2427, 168.1110
329.7248, 168.4405
330.2069, 168.6834
330.6891, 168.4772
331.1712, 168.0119
331.6533, 167.6899
332.1354, 167.7389
332.6175, 168.0211
333.0996, 168.2592
333.5818, 168.4330
334.0639, 168.6319
334.5460, 169.0220
335.0281, 169.4199
335.5102, 169.5912
335.9923, 169.4336
336.4745, 169.1319
336.9566, 168.8669
337.4387, 168.6378
337.9208, 168.4775
338.4029, 168.4659
338.8850, 168.4793
339.3671, 168.3403
339.8492, 168.0159
340.3314, 167.8119
340.8135, 168.1268
341.2956, 168.8423
341.7777, 169.1494
342.2598, 168.6700
342.7419, 168.0847
343.2241, 168.0468
343.7062, 168.4519
344.1883, 168.7838
344.6704, 168.7184
345.1525, 168.4218
345.6346, 168.2413
346.1168, 168.1980
346.5989, 168.2585
347.0810, 168.5300
347.5631, 168.8800
348.0452, 169.0543
348.5273, 168.8483
349.0095, 168.5655
349.4916, 168.6258
349.9737, 169.0398
350.4558, 169.3062
350.9379, 169.1282
351.4200, 168.6921
351.9022, 168.2786
352.3843, 167.8412
352.8664, 167.5957
353.3485, 167.8357
353.8306, 168.4271
354.3127, 168.8449
354.7949, 168.9481
355.2770, 168.8185
355.7591, 168.4259
356.2412, 167.7664
356.7233, 167.4093
357.2054, 167.7745
357.6876, 168.4996
358.1697, 169.0379
358.6518, 169.3179
359.1339, 169.4299
359.6160, 169.4553
360.0981, 169.3743
360.5803, 169.0886
361.0624, 168.3006
361.5445, 167.5186
362.0266, 167.1978
362.5087, 167.3018
362.9908, 167.5113
363.4730, 167.7041
363.9551, 167.8461
364.4372, 167.8306
364.9193, 167.4589
365.4014, 167.2661
365.8835, 167.7381
366.3657, 168.5186
366.8478, 168.8009
367.3299, 168.2467
367.8120, 167.4028
368.2941, 167.1461
368.7762, 167.5869
369.2584, 168.0621
369.7405, 168.6031
370.2226, 169.0686
370.7047, 169.3716
371.1868, 169.4870
371.6689, 169.2878
372.1511, 168.5547
372.6332, 167.2587
373.1153, 166.5087
373.5974, 166.6163
374.0795, 166.8964
374.5616, 167.1399
375.0438, 167.2955
375.5259, 167.2350
376.0080, 166.8440
376.4901, 166.2919
376.9722, 166.1941
377.4543, 167.2064
377.9365, 167.8202
378.4186, 167.5908
378.9007, 167.0182
379.3828, 166.5641
379.8649, 166.3789
380.3470, 166.5040
380.8292, 167.0752
381.3113, 168.4935
381.7934, 169.1018
382.2755, 168.4253
382.7576, 167.4685
383.2397, 166.6324
383.7219, 166.0126
384.2040, 165.6641
384.6861, 165.6448
385.1682, 165.9401
385.6503, 166.3175
386.1324, 167.1085
386.6146, 167.6062
387.0967, 167.5314
387.5788, 167.1415
388.0609, 166.7171
388.5430, 166.3808
389.0251, 166.1591
389.5073, 166.0981
389.9894, 166.1774
390.4715, 166.4829
390.9536, 167.3111
391.4357, 168.1058
391.9178, 168.5311
392.4000, 168.5507
392.8821, 168.3066
393.3642, 167.8362
393.8463, 167.1214
394.3284, 166.7834
394.8105, 167.2339
395.2927, 167.5937
395.7748, 167.5105
396.2569, 167.1487
396.7390, 166.7783
397.2211, 166.5146
397.7032, 166.3612
398.1854, 166.3542
398.6675, 166.5540
399.1496, 166.7197
399.6317, 166.8067
400.1138, 166.8212
400.5959, 166.7296
401.0781, 166.5306
401.5602, 166.3367
402.0423, 166.2247
402.5244, 166.1977
403.0065, 166.3080
403.4886, 166.6417
403.9708, 166.9999
404.4529, 167.3245
404.9350, 167.5735
405.4171, 167.6148
405.8992, 167.2770
406.3813, 166.7556
406.8635, 166.3055
407.3456, 165.9143
407.8277, 165.7155
408.3098, 165.9200
408.7919, 166.2924
409.2740, 166.4234
409.7562, 166.2216
410.2383, 165.9615
410.7204, 165.7557
411.2025, 165.6190
411.6846, 165.6001
412.1667, 165.7256
412.6489, 165.9341
413.1310, 166.2032
413.6131, 166.5352
414.0952, 166.7291
414.5773, 166.6423
415.0594, 166.4760
415.5416, 166.3841
416.0237, 166.3815
416.5058, 166.4947
416.9879, 166.8034
417.4700, 167.2225
417.9521, 167.2886
418.4343, 166.6375
418.9164, 166.1308
419.3985, 166.0583
419.8806, 166.2549
420.3627, 166.4704
420.8448, 166.6248
421.3270, 166.8283
421.8091, 167.2623
422.2912, 168.0540
422.7733, 168.7089
423.2554, 169.3221
423.7375, 169.7294
424.2197, 169.7037
424.7018, 169.3568
425.1839, 169.0258
425.6660, 168.9510
426.1481, 169.1026
426.6302, 169.2793
427.1124, 169.4693
427.5945, 169.7041
428.0766, 170.0485
428.5587, 170.4084
429.0408, 170.6947
429.5229, 170.8798
430.0051, 170.9984
430.4872, 171.0868
430.9693, 171.1312
431.4514, 171.2039
431.9335, 171.3335
432.4156, 171.4712
432.8978, 171.5745
433.3799, 171.6695
433.8620, 171.8373
434.3441, 172.1765
434.8262, 172.5831
435.3083, 172.7093
435.7905, 172.4216
436.2726, 172.2225
436.7547, 172.3670
437.2368, 172.6415
437.7189, 172.9096
438.2010, 173.1550
438.6832, 173.2668
439.1653, 172.9675
439.6474, 172.3858
440.1295, 172.2798
440.6116, 172.9409
441.0938, 173.7574
441.5759, 174.1921
442.0580, 174.3498
442.5401, 174.5301
443.0222, 174.7734
443.5043, 175.1039
443.9865, 175.6707
444.4686, 176.4233
444.9507, 176.9225
445.4328, 176.9224
445.9149, 176.5782
446.3970, 176.2062
446.8792, 175.7314
447.3613, 175.4344
447.8434, 175.5231
448.3255, 175.7709
448.8076, 175.9079
449.2897, 175.8882
449.7719, 175.8026
450.2540, 175.7414
450.7361, 175.7088
451.2182, 175.5786
451.7003, 175.2894
452.1824, 174.9871
452.6646, 174.5664
453.1467, 174.2003
453.6288, 174.2726
454.1109, 174.9530
454.5930, 175.8445
455.0751, 176.1204
455.5573, 175.2866
456.0394, 174.7945
456.5215, 174.9387
457.0036, 175.1145
457.4857, 174.9482
457.9678, 174.4733
458.4500, 173.9352
458.9321, 173.5017
459.4142, 173.1699
459.8963, 172.9347
460.3784, 172.8981
460.8605, 172.7741
461.3427, 172.3058
461.8248, 171.8197
462.3069, 171.7192
462.7890, 172.1035
463.2711, 172.5042
463.7532, 172.3881
464.2354, 171.7932
464.7175, 171.2720
465.1996, 170.9590
465.6817, 170.6087
466.1638, 169.9120
466.6459, 169.0378
467.1281, 168.4283
467.6102, 168.3431
468.0923, 168.4839
468.5744, 168.5435
469.0565, 168.5330
469.5386, 168.5936
470.0208, 168.8616
470.5029, 169.1233
470.9850, 168.9532
471.4671, 168.2969
471.9492, 167.6486
472.4313, 167.0509
472.9135, 166.5673
473.3956, 166.3237
473.8777, 166.3042
474.3598, 166.2622
474.8419, 164.9475
475.3240, 165.6849
475.8062, 166.0520
476.2883, 166.0688
476.7704, 164.6860
477.2525, 165.1105
477.7346, 164.8107
478.2167, 164.4813
478.6989, 165.1601
479.1810, 163.9809
479.6631, 164.6438
480.1452, 164.5714
480.6273, 164.8355
481.1094, 164.3708
481.5916, 164.8834
482.0737, 165.0646
482.5558, 165.0355
483.0379, 164.6607
483.5200, 163.8165
484.0021, 162.8883
484.4843, 162.6889
484.9664, 163.3970
485.4485, 164.0148
485.9306, 164.5060
486.4127, 164.7005
486.8948, 164.2996
487.3770, 163.4205
487.8591, 162.6976
488.3412, 162.6160
488.8233, 162.8957
489.3054, 163.0085
489.7875, 162.9393
490.2697, 162.7945
490.7518, 162.5170
491.2339, 162.2667
491.7160, 162.4049
492.1981, 163.1622
492.6802, 163.6308
493.1624, 163.0676
493.6445, 162.1099
494.1266, 161.8255
494.6087, 162.3777
495.0908, 162.9571
495.5729, 162.7634
496.0551, 161.8155
496.5372, 161.5517
497.0193, 162.5402
497.5014, 163.4406
497.9835, 163.8008
498.4656, 163.8419
498.9478, 163.8842
499.4299, 164.0357
499.9120, 164.2031
500.3941, 164.2204
500.8762, 163.9855
501.3583, 164.0110
501.8405, 164.6252
502.3226, 165.1657
502.8047, 165.3359
503.2868, 165.2698
503.7689, 165.2007
504.2510, 165.2231
504.7331, 165.3817
505.2152, 165.8597
505.6974, 166.7608
506.1795, 167.3338
506.6616, 167.1627
507.1437, 166.8579
507.6258, 166.8463
508.1079, 167.1076
508.5901, 167.4641
509.0722, 167.7999
509.5543, 168.1963
510.0364, 168.8106
510.5185, 169.6390
511.0006, 170.5213
511.4828, 171.4862
511.9649, 172.3586
512.4470, 172.7028
512.9291, 172.3550
513.4113, 172.1424
513.8934, 172.2487
514.3755, 172.6074
514.8576, 173.2307
515.3397, 174.0766
515.8218, 174.9523
516.3040, 175.7392
516.7861, 176.4246
517.2682, 176.9090
517.7503, 176.8512
518.2324, 177.0177
518.7145, 177.7098
519.1967, 178.5196
519.6788, 178.9737
520.1609, 179.0498
520.6430, 179.1961
521.1251, 179.9274
521.6072, 181.2238
522.0894, 182.2337
522.5715, 182.8902
523.0536, 183.3531
523.5357, 183.5481
524.0178, 183.6664
524.4999, 183.9700
524.9821, 184.5452
525.4642, 185.0956
525.9463, 185.2621
526.4284, 185.1501
526.9105, 185.3427
527.3926, 186.0878
527.8748, 186.6229
528.3569, 186.1187
528.8390, 184.8933
529.3211, 184.0546
529.8032, 184.0445
530.2853, 184.0647
530.7675, 183.7598
531.2496, 183.1667
531.7317, 182.3045
532.2138, 181.1719
532.6959, 179.9307
533.1780, 178.7677
533.6602, 177.6747
534.1423, 176.7107
534.6244, 175.8640
535.1065, 175.1279
535.5886, 174.6522
536.0707, 174.2425
536.5529, 173.5634
537.0350, 172.4939
537.5171, 171.2944
537.9992, 170.4126
538.4813, 169.9206
538.9634, 169.3800
539.4456, 168.7153
539.9277, 168.0693
540.4098, 167.5493
540.8919, 167.0949
541.3740, 166.5702
541.8561, 165.8864
542.3383, 165.1895
542.8204, 164.6331
543.3025, 164.2177
543.7846, 163.9850
544.2667, 164.0291
544.7488, 164.0931
545.2310, 163.8318
545.7131, 163.2882
546.1952, 162.8602
546.6773, 162.6797
547.1594, 162.5667
547.6415, 162.4498
548.1237, 162.3054
548.6058, 162.0589
549.0879, 161.6761
549.5700, 161.2681
550.0521, 161.0218
550.5342, 160.9923
551.0164, 160.9677
551.4985, 160.9561
551.9806, 160.9415
552.4627, 160.9166
552.9448, 160.8835
553.4269, 160.8589
553.9091, 160.8545
554.3912, 160.8218
554.8733, 160.6383
555.3554, 160.2627
555.8375, 160.0176
556.3196, 160.0354
556.8018, 160.0884
557.2839, 160.0667
557.7660, 159.9642
558.2481, 159.7545
558.7302, 159.3114
559.2123, 158.8977
559.6945, 158.8162
560.1766, 159.0101
560.6587, 159.2381
561.1408, 159.4376
561.6229, 159.6231
562.1050, 159.8757
562.5872, 160.2436
563.0693, 160.1859
563.5514, 159.1042
564.0335, 158.1923
564.5156, 158.2726
564.9977, 158.9130
565.4799, 159.2514
565.9620, 158.9498
566.4441, 158.4285
566.9262, 158.4221
567.4083, 159.1716
567.8904, 159.4517
568.3726, 158.8005
568.8547, 158.1354
569.3368, 157.7022
569.8189, 157.4793
570.3010, 157.3985
570.7831, 157.4290
571.2653, 157.6185
571.7474, 158.2090
572.2295, 159.1044
572.7116, 159.4673
573.1937, 159.0050
573.6758, 158.3888
574.1580, 158.1879
574.6401, 158.3017
575.1222, 158.3342
575.6043, 158.2260
576.0864, 158.0558
576.5685, 157.6827
577.0507, 157.3260
577.5328, 157.5312
578.0149, 158.3872
578.4970, 159.1255
578.9791, 158.8448
579.4612, 157.4850
579.9434, 156.6288
580.4255, 156.6697
580.9076, 156.7692
581.3897, 156.7856
581.8718, 156.7788
582.3539, 156.8464
582.8361, 157.0004
583.3182, 157.1302
583.8003, 157.1196
584.2824, 156.9827
584.7645, 156.8062
585.2466, 156.5500
585.7288, 156.3679
586.2108, 156.3745
586.6929, 156.4842
587.1750, 156.5596
587.6572, 156.5622
588.1393, 156.6563
588.6214, 157.0784
589.1035, 157.5523
589.5856, 157.6491
590.0677, 157.3673
590.5499, 157.0726
591.0320, 156.9992
591.5141, 157.0947
591.9962, 157.1663
592.4783, 157.1563
592.9604, 157.2069
593.4426, 157.4100
593.9247, 157.6008
594.4068, 157.6724
594.8889, 157.6267
595.3710, 157.4956
595.8531, 157.2666
596.3353, 157.0354
596.8174, 157.0581
597.2995, 157.3834
597.7816, 157.6794
598.2637, 157.7852
598.7458, 157.9383
599.2280, 158.5009
599.7101, 159.3484
600.1922, 159.8029
600.6743, 159.2955
601.1564, 158.6178
601.6385, 158.4008
602.1207, 158.5565
602.6028, 158.9078
603.0849, 159.4216
603.5670, 159.7722
604.0491, 159.4581
604.5313, 158.2830
605.0134, 157.6737
605.4955, 158.0599
605.9776, 158.4360
606.4597, 158.4613
606.9418, 158.3035
607.4240, 158.2015
607.9061, 158.2226
608.3882, 158.2541
608.8703, 158.1547
609.3524, 157.9370
609.8345, 157.7668
610.3167, 157.6752
610.7988, 157.5610
611.2809, 157.3419
611.7630, 157.0862
612.2451, 156.9004
612.7272, 156.8190
613.2094, 156.6884
613.6915, 156.4243
614.1736, 156.0798
614.6557, 155.6899
615.1378, 155.2723
615.6199, 154.8889
616.1021, 154.5641
616.5842, 154.3348
617.0663, 154.3247
617.5484, 154.7990
618.0305, 155.0383
618.5126, 154.8825
618.9948, 154.6615
619.4769, 154.5351
619.9590, 154.4979
620.4411, 153.7831
620.9232, 154.4420
621.4053, 154.7308
621.8875, 154.6692
622.3696, 153.2080
622.8517, 153.5541
623.3338, 153.1759
623.8159, 152.7680
624.2980, 153.3685
624.7802, 152.1109
625.2623, 152.6954
625.7444, 152.5445
626.2265, 152.7302
626.7086, 152.1871
627.1907, 151.8692
627.6729, 152.2802
628.1550, 152.2876
628.6371, 151.6606
629.1192, 151.8677
629.6013, 150.5846
630.0834, 150.6092
630.5656, 151.1979
631.0477, 150.6076
631.5298, 150.8280
632.0119, 150.7397
632.4940, 149.2481
632.9761, 150.1969
633.4583, 150.0902
633.9404, 148.9000
634.4225, 149.7652
634.9046, 148.7243
635.3867, 148.3638
635.8688, 148.5152
636.3510, 148.1329
636.8331, 148.5922
637.3152, 148.2407
637.7973, 147.8169
638.2794, 147.7091
638.7615, 146.7056
639.2437, 147.3638
639.7258, 146.8869
640.2079, 146.9743
640.6900, 146.7127
641.1721, 146.2327
641.6542, 145.6977
642.1364, 145.4514
642.6185, 145.4608
643.1006, 145.2594
643.5827, 144.6550
644.0648, 144.2674
644.5469, 144.5838
645.0291, 145.0490
645.5112, 145.1452
645.9933, 144.8380
646.4754, 144.5089
646.9575, 144.3757
647.4396, 144.2731
647.9218, 143.9272
648.4039, 143.4267
648.8860, 143.2080
649.3681, 143.4741
649.8502, 143.8767
650.3323, 143.8707
650.8145, 143.3406
651.2966, 142.9300
651.7787, 142.6160
652.2608, 142.4418
652.7429, 142.5847
653.2250, 142.8014
653.7072, 142.7868
654.1893, 142.4661
654.6714, 142.0081
655.1535, 141.5059
655.6356, 140.9944
656.1177, 140.5558
656.5999, 140.1785
657.0820, 140.0479
657.5641, 140.4200
658.0462, 140.9325
658.5283, 140.7930
659.0104, 139.8267
659.4926, 139.2323
659.9747, 139.3902
660.4568, 139.7654
660.9389, 140.0848
661.4210, 140.3498
661.9031, 140.6934
662.3853, 141.1560
662.8674, 141.4543
663.3495, 141.0735
663.8316, 139.9458
664.3137, 139.1875
664.7958, 138.8646
665.2780, 138.7931
665.7601, 139.1529
666.2422, 139.5930
666.7243, 139.6323
667.2064, 139.1632
667.6885, 138.8139
668.1707, 139.0475
668.6528, 139.4418
669.1349, 139.5622
669.6170, 139.3978
670.0991, 138.9767
670.5812, 138.2871
671.0634, 137.5833
671.5455, 137.3394
672.0276, 137.7230
672.5097, 137.9383
672.9918, 137.9514
673.4739, 137.8251
673.9561, 137.3408
674.4382, 136.8299
674.9203, 136.7821
675.4024, 137.3172
675.8845, 137.9063
676.3666, 138.2077
676.8488, 138.2330
677.3309, 137.9104
677.8130, 137.2468
678.2951, 136.6462
678.7772, 136.2903
679.2593, 136.1122
679.7415, 135.9857
680.2236, 135.8956
680.7057, 135.9199
681.1878, 136.0760
681.6699, 136.3238
682.1520, 136.7561
682.6342, 137.2273
683.1163, 137.5792
683.5984, 137.7520
684.0805, 137.6578
684.5626, 136.9830
685.0447, 135.9051
685.5269, 135.4623
686.0090, 135.7756
686.4911, 136.1249
686.9732, 136.2690
687.4553, 136.2201
687.9374, 135.9287
688.4196, 135.3571
688.9017, 134.9357
689.3838, 134.8376
689.8659, 134.8020
690.3480, 134.6537
690.8301, 134.4647
691.3123, 134.3730
691.7944, 134.4218
692.2765, 134.5545
692.7586, 134.7567
693.2407, 135.0074
693.7228, 134.9634
694.2050, 134.4705
694.6871, 134.0969
695.1692, 134.0930
695.6513, 134.2660
696.1334, 134.4679
696.6155, 134.6918
697.0977, 134.7468
697.5798, 134.4399
698.0619, 134.0733
698.5440, 133.8191
699.0261, 133.6829
699.5082, 133.7089
699.9904, 133.8940
700.4725, 134.0776
700.9546, 134.0914
701.4367, 133.9409
701.9188, 133.6772
702.4009, 133.1665
702.8831, 132.8119
703.3652, 132.7123
703.8473, 132.8096
704.3294, 133.1965
704.8115, 133.7996
705.2936, 134.2106
705.7758, 134.1951
706.2579, 133.9958
706.7400, 133.6916
707.2221, 133.3757
707.7042, 133.3509
708.1863, 133.6617
708.6685, 133.8397
709.1506, 133.4129
709.6327, 132.4902
710.1148, 131.8909
710.5969, 131.6530
711.0790, 131.6846
711.5612, 132.2964
712.0433, 132.8787
712.5254, 132.9998
713.0075, 132.7546
713.4896, 132.4922
713.9717, 132.3096
714.4539, 132.2237
714.9360, 132.3447
715.4181, 132.5566
715.9002, 132.5712
716.3823, 132.3507
716.8644, 132.0685
717.3466, 131.8277
717.8287, 131.6565
718.3108, 131.6726
718.7929, 132.0534
719.2750, 132.2830
719.7571, 132.2521
720.2393, 132.1699
720.7214, 132.2392
721.2035, 132.3093
721.6856, 131.9895
722.1677, 131.0493
722.6498, 130.2716
723.1320, 130.4993
723.6141, 131.2992
724.0962, 131.8730
724.5783, 132.1415
725.0604, 132.0604
725.5425, 131.5473
726.0247, 130.8454
726.5068, 130.4577
726.9889, 130.5100
727.4710, 130.4960
727.9531, 130.3754
728.4352, 130.2372
728.9174, 130.0242
729.3995, 129.8520
729.8816, 129.9332
730.3637, 130.2998
730.8458, 130.5876
731.3279, 130.4509
731.8101, 130.1208
732.2922, 129.9457
732.7743, 129.9259
733.2564, 130.0432
733.7385, 130.3164
734.2206, 130.5374
734.7028, 130.3981
735.1849, 129.8561
735.6670, 129.6012
736.1491, 129.9398
736.6312, 130.1776
737.1133, 130.1516
737.5955, 130.0196
738.0776, 129.8729
738.5597, 129.7457
739.0418, 129.7167
739.5239, 129.9335
740.0060, 130.1344
740.4882, 129.8808
740.9703, 129.3603
741.4524, 129.2524
741.9345, 129.6949
742.4166, 130.0335
742.8987, 129.6520
743.3809, 128.7727
743.8630, 128.5478
744.3451, 129.6194
744.8272, 130.1718
745.3093, 129.6077
745.7914, 129.0199
746.2736, 129.1243
746.7557, 129.6144
747.2378, 129.7553
747.7199, 129.2261
748.2020, 128.7145
748.6841, 128.8457
749.1663, 129.2993
749.6484, 129.5842
750.1305, 129.6527
750.6126, 129.4926
751.0947, 129.0723
751.5768, 128.5794
752.0590, 128.3642
752.5411, 128.4989
753.0232, 128.5724
753.5053, 128.5431
753.9874, 128.5076
754.4695, 128.4547
754.9517, 128.4345
755.4338, 128.5847
755.9159, 128.8990
756.3980, 128.9855
756.8801, 128.4103
757.3622, 127.7341
757.8444, 127.5208
758.3265, 127.6326
758.8086, 127.7500
759.2907, 127.7816
759.7728, 127.7561
760.2549, 127.6955
760.7371, 127.6055
761.2192, 127.5057
761.7013, 127.3398
762.1834, 127.3225
762.6655, 127.6332
763.1476, 127.9573
763.6298, 128.0999
764.1119, 128.0912
764.5940, 128.0053
765.0761, 127.7783
765.5582, 127.6385
766.0403, 127.8168
766.5225, 128.0601
767.0046, 128.0528
767.4867, 127.8295
767.9688, 127.6505
768.4509, 127.6512
768.9330, 127.6725
769.4152, 127.3698
769.8973, 126.7155
770.3794, 126.4413
770.8615, 126.6671
771.3436, 126.9971
771.8257, 127.4003
772.3079, 127.7083
772.7900, 127.5684
773.2721, 126.9215
773.7542, 126.6178
774.2363, 127.1702
774.7184, 127.6762
775.2006, 127.6087
775.6827, 127.2591
776.1648, 127.0263
776.6469, 126.9768
777.1290, 126.9312
777.6111, 126.7364
778.0933, 126.4747
778.5754, 126.3104
779.0575, 126.2437
779.5396, 126.3529
780.0217, 126.7244
780.5038, 126.9963
780.9860, 126.8071
781.4681, 126.3052
781.9502, 126.1467
782.4323, 126.6401
782.9144, 126.9582
783.3965, 126.9987
783.8787, 126.9223
784.3608, 126.7199
784.8429, 126.4968
785.3250, 125.5304
785.8071, 126.4072
786.2892, 126.8973
786.7714, 127.0214
787.2535, 125.6835
787.7356, 126.2335
788.2177, 126.0269
788.6998, 125.7893
789.1819, 126.6050
789.6641, 125.4798
790.1462, 126.2788
790.6283, 126.3096
791.1104, 126.6920
791.5925, 126.3132
792.0746, 126.1695
792.5568, 126.7873
793.0389, 126.9835
793.5210, 126.5170
794.0031, 126.9218
794.4852, 125.7700
794.9673, 125.9841
795.4495, 126.7875
795.9316, 126.3593
796.4137, 126.7342
796.8958, 126.9538
797.3779, 126.8176
797.8600, 126.4678
798.3422, 125.9689
798.8243, 125.4822
799.3064, 125.2989
799.7885, 125.4289
800.2706, 125.5335
800.7527, 125.5941
801.2349, 125.6864
801.7170, 125.8988
802.1991, 126.1054
802.6812, 126.1193
803.1633, 125.9438
803.6454, 125.7400
804.1276, 125.3997
804.6097, 125.1858
805.0918, 125.3839
805.5739, 125.6328
806.0560, 125.4417
806.5381, 124.8997
807.0203, 124.5728
807.5024, 124.8394
807.9845, 125.3229
808.4666, 125.4605
808.9487, 125.3621
809.4308, 125.5589
809.9130, 126.1211
810.3951, 126.3699
810.8772, 125.8241
811.3593, 124.9523
811.8414, 124.7528
812.3235, 125.5152
812.8057, 125.8519
813.2878, 125.4079
813.7699, 124.9725
814.2520, 124.7643
814.7341, 124.6585
815.2162, 124.4855
815.6984, 124.2551
816.1805, 124.1947
816.6626, 124.5574
817.1447, 124.9568
817.6268, 125.1613
818.1089, 125.1914
818.5911, 124.9949
819.0732, 124.6278
819.5553, 124.3636
820.0374, 124.3921
820.5195, 124.5639
821.0016, 124.5702
821.4838, 124.4070
821.9659, 124.1889
822.4480, 123.8458
822.9301, 123.7297
823.4122, 124.1805
823.8943, 124.8218
824.3765, 124.9312
824.8586, 124.3495
825.3407, 124.0777
825.8228, 124.5264
826.3049, 124.8313
826.7870, 124.4939
827.2692, 124.0017
827.7513, 123.9141
828.2334, 124.2216
828.7155, 124.5003
829.1976, 124.5343
829.6797, 124.4220
830.1619, 124.1639
830.6440, 123.8675
831.1261, 123.8851
831.6082, 124.2074
832.0903, 124.3200
832.5724, 123.8913
833.0546, 123.2874
833.5367, 123.3152
834.0188, 124.1444
834.5009, 124.3528
834.9830, 123.5130
835.4651, 122.9218
835.9473, 123.2885
836.4294, 123.9432
836.9115, 124.1382
837.3936, 123.8930
837.8757, 123.6569
838.3578, 123.3231
838.8400, 123.2325
839.3221, 123.9045
839.8042, 124.5963
840.2863, 124.3753
840.7684, 123.4675
841.2505, 122.8678
841.7327, 123.0943
842.2148, 123.5189
842.6969, 123.3056
843.1790, 122.7083
843.6611, 122.5144
844.1432, 122.7347
844.6254, 122.7913
845.1075, 122.4135
845.5896, 121.9501
846.0717, 121.8829
846.5538, 122.2141
847.0359, 122.4331
847.5181, 122.5573
848.0002, 122.5276
848.4823, 122.1643
848.9644, 121.7992
849.4465, 121.6165
849.9286, 121.6150
850.4108, 121.8096
850.8929, 122.3695
851.3750, 122.7436
851.8571, 122.6360
852.3392, 122.3568
852.8214, 122.1089
853.3035, 121.9054
853.7856, 121.7390
854.2677, 121.6009
854.7498, 121.4268
855.2319, 121.0109
855.7141, 120.5898
856.1962, 120.8388
856.6783, 121.6488
857.1604, 122.2655
857.6425, 122.5015
858.1246, 122.5160
858.6068, 122.4125
859.0889, 122.2234
859.5710, 122.0870
860.0531, 122.1031
860.5352, 121.8951
861.0173, 121.2280
861.4995, 120.6289
861.9816, 120.2896
862.4637, 120.1694
862.9458, 120.2608
863.4279, 120.5746
863.9100, 120.8774
864.3922, 121.2181
864.8743, 121.4119
865.3564, 121.2505
865.8385, 120.9547
866.3206, 120.7782
866.8027, 120.7402
867.2849, 120.7311
867.7670, 120.6937
868.2491, 120.6392
868.7312, 120.6090
869.2133, 120.5697
869.6954, 120.3692
870.1776, 120.0186
870.6597, 119.8172
871.1418, 119.9164
871.6239, 120.0793
872.1060, 119.9321
872.5881, 119.4800
873.0703, 119.4520
873.5524, 120.1226
874.0345, 120.5124
874.5166, 120.3028
874.9987, 119.8706
875.4808, 119.4058
875.9630, 118.9581
876.4451, 118.6869
876.9272, 118.6319
877.4093, 118.6876
877.8914, 119.0505
878.3735, 119.2953
878.8557, 119.0450
879.3378, 118.5535
879.8199, 118.1723
880.3020, 117.9993
880.7841, 118.0605
881.2662, 118.6202
881.7484, 119.1887
882.2305, 119.0125
882.7126, 118.4005
883.1947, 118.1072
883.6768, 118.2279
884.1589, 118.3888
884.6411, 118.3449
885.1232, 118.2351
885.6053, 118.3863
886.0874, 118.8110
886.5695, 119.0190
887.0516, 118.9948
887.5338, 118.7517
888.0159, 118.2282
888.4980, 117.5890
888.9801, 116.9675
889.4622, 116.3641
889.9443, 116.0984
890.4265, 116.4420
890.9086, 116.7288
891.3907, 116.8739
891.8728, 116.9705
892.3549, 117.1107
892.8370, 117.2359
893.3192, 117.1842
893.8013, 116.8865
894.2834, 116.7050
894.7655, 116.9465
895.2476, 117.2529
895.7297, 117.4051
896.2119, 117.3767
896.6940, 117.0474
897.1761, 116.4715
897.6582, 116.0034
898.1403, 115.8938
898.6224, 116.0013
899.1046, 116.1565
899.5867, 116.3313
900.0688, 116.4100
900.5509, 116.3812
901.0330, 116.2286
901.5151, 115.9192
901.9973, 115.6254
902.4794, 115.6364
902.9615, 115.9528
903.4436, 116.0312
903.9257, 115.7953
904.4078, 115.5109
904.8900, 115.1347
905.3721, 114.8501
905.8542, 114.8343
906.3363, 115.0208
906.8184, 115.2194
907.3005, 115.4973
907.7827, 115.6137
908.2648, 115.3723
908.7469, 115.1506
909.2290, 115.1518
909.7111, 115.2650
910.1932, 115.3658
910.6754, 115.4262
911.1575, 115.4395
911.6396, 115.4046
912.1217, 115.3167
912.6038, 115.1270
913.0859, 114.9071
913.5681, 114.6851
914.0502, 114.5269
914.5323, 114.6909
915.0144, 115.2799
915.4965, 115.8223
915.9786, 115.6850
916.4607, 115.0512
916.9428, 114.4511
917.4249, 113.9117
917.9070, 113.9815
918.3892, 114.8651
918.8713, 115.5380
919.3534, 115.1108
919.8355, 113.9978
920.3176, 113.4903
920.7997, 113.7734
921.2819, 113.9591
921.7640, 113.9842
922.2461, 114.0177
922.7282, 114.2003
923.2103, 114.3609
923.6924, 114.2000
924.1746, 113.7440
924.6567, 113.5488
925.1388, 113.8379
925.6209, 114.1036
926.1030, 114.3806
926.5851, 114.4840
927.0673, 114.0915
927.5494, 113.5027
928.0315, 113.3054
928.5136, 113.6525
928.9957, 113.9580
929.4778, 113.8314
929.9600, 113.6247
930.4421, 113.6420
930.9242, 113.7624
931.4063, 113.7926
931.8884, 113.7148
932.3705, 113.6246
932.8527, 113.5825
933.3348, 113.5010
933.8169, 113.1194
934.2990, 112.6424
934.7811, 112.7831
935.2632, 113.4549
935.7454, 113.8295
936.2275, 113.6345
936.7096, 113.2268
937.1917, 112.9148
937.6738, 112.7319
938.1559, 112.8873
938.6381, 113.4563
939.1202, 113.6957
939.6023, 113.4263
940.0844, 113.1745
940.5665, 113.2284
941.0486, 113.4174
941.5308, 113.4625
942.0129, 113.3412
942.4950, 113.3228
942.9771, 113.5148
943.4592, 113.6461
943.9413, 113.6201
944.4235, 113.5819
944.9056, 113.7100
945.3877, 113.8726
945.8698, 113.7143
946.3519, 113.0599
946.8340, 112.6933
947.3162, 112.9984
947.7983, 113.4292
948.2804, 113.7006
948.7625, 113.9445
949.2446, 114.4307
949.7267, 115.0723
950.2089, 115.4041
950.6910, 115.0955
951.1731, 114.8528
951.6552, 115.3259
952.1373, 116.1078
952.6194, 116.7931
953.1016, 117.3323
953.5837, 117.6228
954.0658, 117.6899
954.5479, 117.9279
955.0300, 118.7466
955.5121, 119.7623
955.9943, 120.0936
956.4764, 119.9955
956.9585, 120.5598
957.4406, 121.8656
957.9227, 123.2222
958.4048, 124.3111
958.8870, 125.3625
959.3691, 126.7042
959.8512, 128.2882
960.3333, 129.7244
960.8154, 130.9899
961.2975, 132.1960
961.7797, 133.2684
962.2618, 134.5961
962.7439, 136.5215
963.2260, 138.7367
963.7081, 140.5502
964.1902, 141.8345
964.6724, 143.4348
965.1545, 145.6630
965.6366, 147.6784
966.1187, 149.1183
966.6008, 150.4391
967.0829, 151.9911
967.5651, 153.7126
968.0472, 155.4365
968.5293, 157.2774
969.0114, 158.8011
969.4935, 159.6392
969.9756, 160.5231
970.4578, 161.7286
970.9399, 163.1850
971.4220, 164.9054
971.9041, 166.8099
972.3862, 168.6289
972.8683, 170.3476
973.3505, 171.7757
973.8326, 172.6736
974.3147, 173.3754
974.7968, 174.4016
975.2789, 175.3619
975.7610, 175.4311
976.2432, 174.5310
976.7253, 173.4628
977.2074, 172.7590
977.6895, 172.0943
978.1716, 171.0847
978.6537, 169.8884
979.1359, 168.8420
979.6180, 167.8645
980.1001, 166.5215
980.5822, 164.6688
981.0643, 162.7158
981.5464, 161.1724
982.0286, 159.7267
982.5107, 157.5399
982.9928, 154.8000
983.4749, 152.3787
983.9570, 150.4031
984.4391, 148.6988
984.9213, 147.2076
985.4034, 145.6820
985.8855, 143.7616
986.3676, 141.4697
986.8497, 138.9915
987.3318, 136.2862
987.8140, 133.9215
988.2961, 132.0755
988.7782, 130.2488
989.2603, 128.0680
989.7424, 125.7548
990.2245, 123.7282
990.7067, 121.9910
991.1888, 120.5216
991.6709, 119.3825
992.1530, 118.3325
992.6351, 117.2960
993.1172, 116.3551
993.5994, 115.5840
994.0815, 114.9478
994.5636, 114.3386
995.0457, 113.7057
995.5278, 113.2427
996.0099, 113.0259
996.4921, 112.8730
996.9742, 112.8437
997.4563, 112.7706
997.9384, 112.4681
998.4205, 111.9995
998.9026, 111.6094
999.3848, 111.3835
999.8669, 111.0940
1000.349, 110.5050
1000.831, 110.0686
1001.313, 110.1908
1001.795, 110.4470
1002.277, 110.3627
1002.760, 109.9508
1003.242, 109.4796
1003.724, 108.9312
1004.206, 108.6041
1004.688, 108.8092
1005.170, 109.1143
1005.652, 109.2854
1006.134, 109.2820
1006.617, 109.0100
1007.099, 108.5178
1007.581, 108.0655
1008.063, 107.7397
1008.545, 107.5954
1009.027, 107.8225
1009.509, 108.1416
1009.991, 108.2565
1010.473, 108.1831
1010.956, 107.9480
1011.438, 107.6006
1011.920, 107.3584
1012.402, 107.4191
1012.884, 107.5256
1013.366, 107.2418
1013.848, 106.8334
1014.330, 106.8635
1014.813, 107.2495
1015.295, 107.6427
1015.777, 107.9004
1016.259, 107.8083
1016.741, 107.0339
1017.223, 106.1348
1017.705, 106.3546
1018.187, 107.3174
1018.669, 107.6666
1019.152, 107.3603
1019.634, 107.0210
1020.116, 106.8836
1020.598, 106.5371
1021.080, 107.4319
1021.562, 107.9400
1022.044, 108.0821
1022.526, 106.7623
1023.008, 107.3303
1023.491, 107.1418
1023.973, 106.9222
1024.455, 107.7559
1024.937, 106.6487
1025.419, 107.4657
1025.901, 107.5146
1026.383, 107.9151
1026.865, 107.5543
1027.348, 107.4286
1027.830, 108.0644
1028.312, 108.2786
1028.794, 106.6985
1029.276, 106.3760
1029.758, 106.4603
1030.240, 106.8785
1030.722, 107.0449
1031.204, 106.9138
1031.687, 106.7262
1032.169, 106.4840
1032.651, 106.2418
1033.133, 106.0089
1033.615, 105.8182
1034.097, 105.7122
1034.579, 105.6896
1035.061, 105.7456
1035.544, 105.9491
1036.026, 106.0325
1036.508, 105.8357
1036.990, 105.7876
1037.472, 106.2351
1037.954, 106.7793
1038.436, 106.8696
1038.918, 106.5233
1039.401, 106.2480
1039.883, 106.0228
1040.365, 105.9139
1040.847, 106.0170
1041.329, 106.1144
1041.811, 106.0504
1042.293, 105.9711
1042.775, 106.1434
1043.257, 106.5537
1043.740, 106.6533
1044.222, 106.1659
1044.704, 105.7965
1045.186, 105.6261
1045.668, 105.5266
1046.150, 105.4352
1046.632, 105.3884
1047.114, 105.4909
1047.596, 105.7209
1048.079, 105.7712
1048.561, 105.4225
1049.043, 105.1864
1049.525, 105.2958
1050.007, 105.3301
1050.489, 104.9433
1050.971, 104.4650
1051.453, 104.3328
1051.936, 104.5247
1052.418, 104.6344
1052.900, 104.5491
1053.382, 104.4601
1053.864, 104.3482
1054.346, 104.3043
1054.828, 104.4639
1055.310, 104.6591
1055.792, 104.6257
1056.275, 104.4106
1056.757, 104.4083
1057.239, 104.9075
1057.721, 105.2030
1058.203, 104.8124
1058.685, 104.4999
1059.167, 104.8711
1059.649, 105.4254
1060.131, 105.5382
1060.614, 105.2454
1061.096, 103.8492
1061.578, 104.7009
1062.060, 105.1660
1062.542, 105.2651
1063.024, 103.9022
1063.506, 104.4271
1063.988, 104.1955
1064.471, 103.9328
1064.953, 104.7235
1065.435, 103.5732
1065.917, 104.3472
1066.399, 104.3530
1066.881, 104.7104
1067.363, 104.3066
1067.845, 104.1378
1068.328, 104.7305
1068.810, 104.9016
1069.292, 104.4102
1069.774, 104.7899
1070.256, 104.4577
1070.738, 104.3992
1071.220, 104.0898
1071.702, 103.9224
1072.184, 104.3990
1072.667, 104.9197
1073.149, 104.6845
1073.631, 103.9709
1074.113, 103.6604
1074.595, 104.0112
1075.077, 104.4220
1075.559, 104.6749
1076.041, 104.8503
1076.523, 105.0685
1077.006, 105.1664
1077.488, 104.8009
1077.970, 104.2370
1078.452, 104.1695
1078.934, 104.7594
1079.416, 105.0560
1079.898, 104.1555
1080.380, 103.4679
1080.862, 104.0667
1081.345, 104.8964
1081.827, 104.9224
1082.309, 104.4846
1082.791, 104.3623
1083.273, 104.6891
1083.755, 104.9983
1084.237, 105.0705
1084.719, 105.1172
1085.202, 105.2951
1085.684, 105.4327
1086.166, 105.3585
1086.648, 105.1670
1087.130, 105.0012
1087.612, 104.8855
1088.094, 104.7897
1088.576, 104.7174
1089.058, 104.6347
1089.541, 104.5004
1090.023, 104.3778
1090.505, 104.2895
1090.987, 104.2538
1091.469, 104.3016
1091.951, 104.4231
1092.433, 104.5673
1092.915, 104.7280
1093.397, 104.8809
1093.880, 105.1585
1094.362, 105.2604
1094.844, 104.7609
1095.326, 104.1761
1095.808, 104.1549
1096.290, 104.5550
1096.772, 104.7830
1097.254, 104.6895
1097.737, 104.4572
1098.219, 103.9780
1098.701, 103.5883
1099.183, 103.5071
1099.665, 103.5233
1100.147, 103.4326
1100.629, 103.2907
1101.111, 103.2451
1101.594, 103.3221
1102.076, 103.4797
1102.558, 103.9527
1103.040, 104.1684
1103.522, 103.6219
1104.004, 103.0780
1104.486, 103.1425
1104.968, 103.5401
1105.450, 103.8465
1105.932, 104.0097
1106.415, 103.9768
1106.897, 103.4872
1107.379, 103.1723
1107.861, 103.2305
1108.343, 103.4012
1108.825, 103.6938
1109.307, 103.9279
1109.789, 103.7947
1110.272, 103.3649
1110.754, 103.2052
1111.236, 103.5953
1111.718, 103.8130
1112.200, 103.7257
1112.682, 103.5462
1113.164, 103.2761
1113.646, 103.0059
1114.129, 102.8149
1114.611, 102.6890
1115.093, 102.5733
1115.575, 102.4381
1116.057, 102.4064
1116.539, 102.5822
1117.021, 102.7025
1117.503, 102.6459
1117.985, 102.6055
1118.468, 102.7673
1118.950, 102.9928
1119.432, 103.0016
1119.914, 102.7702
1120.396, 102.5986
1120.878, 102.4910
1121.360, 102.4299
1121.842, 101.6439
1122.324, 102.4757
1122.807, 102.9206
1123.289, 102.9998
1123.771, 101.6170
1124.253, 102.1219
1124.735, 101.8704
1125.217, 101.5878
1125.699, 102.3585
1126.181, 101.1883
1126.664, 101.9422
1127.146, 101.9281
1127.628, 102.2655
1128.110, 101.8417
1128.592, 101.6531
1129.074, 102.2259
1129.556, 102.3770
1130.038, 101.8656
1130.521, 102.2253
1131.003, 101.0285
1131.485, 101.1976
1131.967, 101.9561
1132.449, 101.4829
1132.931, 101.5958
1133.413, 101.5627
1133.895, 101.2289
1134.377, 101.0306
1134.859, 100.9674
1135.342, 101.1449
1135.824, 101.5694
1136.306, 101.7438
1136.788, 101.4427
1137.270, 101.1174
1137.752, 101.2996
1138.234, 101.6863
1138.716, 101.4179
1139.199, 100.6925
1139.681, 100.3547
1140.163, 100.4215
1140.645, 100.7120
1141.127, 101.1367
1141.609, 101.3945
1142.091, 101.2511
1142.573, 101.0356
1143.056, 101.3669
1143.538, 101.8682
1144.020, 101.6667
1144.502, 101.0192
1144.984, 100.6125
1145.466, 100.5066
1145.948, 100.3911
1146.430, 100.1351
1146.912, 99.95827
1147.395, 100.0742
1147.877, 100.3439
1148.359, 100.7222
1148.841, 101.0777
1149.323, 101.2882
1149.805, 101.3015
1150.287, 100.9229
1150.769, 100.2036
1151.251, 99.72583
1151.734, 99.88245
1152.216, 100.1315
1152.698, 100.1240
1153.180, 100.0530
1153.662, 100.0353
1154.144, 100.0794
1154.626, 100.2295
1155.108, 100.4366
1155.591, 100.5509
1156.073, 100.5247
1156.555, 100.4595
1157.037, 100.3907
1157.519, 100.2915
1158.001, 100.1697
1158.483, 99.99490
1158.965, 99.61730
1159.448, 99.22962
1159.930, 99.22559
1160.412, 99.62649
1160.894, 99.83580
1161.376, 99.44331
1161.858, 99.40183
1162.340, 100.2956
1162.822, 100.9026
1163.304, 100.6132
1163.786, 100.0056
1164.269, 99.55091
1164.751, 99.22951
1165.233, 98.96031
1165.715, 98.71745
1166.197, 98.66565
1166.679, 98.90321
1167.161, 99.04613
1167.643, 98.97417
1168.126, 98.91802
1168.608, 99.01859
1169.090, 99.20879
1169.572, 99.42292
1170.054, 99.62682
1170.536, 99.48792
1171.018, 98.98007
1171.500, 98.74760
1171.983, 98.85278
1172.465, 98.95015
1172.947, 98.91701
1173.429, 98.93197
1173.911, 99.15560
1174.393, 99.47045
1174.875, 99.72982
1175.357, 99.88115
1175.839, 99.57299
1176.322, 98.96924
1176.804, 98.87302
1177.286, 99.30531
1177.768, 99.49973
1178.250, 99.11467
1178.732, 98.64122
1179.214, 98.52306
1179.696, 98.60509
1180.178, 98.71149
1180.661, 98.85543
1181.143, 99.15344
1181.625, 99.47375
1182.107, 99.54080
1182.589, 99.30511
1183.071, 98.79154
1183.553, 97.84499
1184.035, 97.31314
1184.518, 98.22069
1185.000, 99.17223
1185.482, 99.05647
1185.964, 98.57466
1186.446, 98.46461
1186.928, 98.64573
1187.410, 98.75916
1187.892, 98.74150
1188.375, 98.75607
1188.857, 98.97913
1189.339, 99.02944
1189.821, 98.68382
1190.303, 98.32053
1190.785, 98.16340
1191.267, 98.04309
1191.749, 97.66591
1192.231, 97.17312
1192.714, 97.14585
1193.196, 97.76329
1193.678, 98.16372
1194.160, 98.34615
1194.642, 98.29057
1195.124, 97.91608
1195.606, 97.50803
1196.088, 97.19006
1196.570, 97.05393
1197.053, 97.30439
1197.535, 97.78880
1198.017, 97.60397
1198.499, 96.77769
1198.981, 96.58493
1199.463, 97.08153
1199.945, 97.57648
1200.427, 97.86751
1200.910, 97.98309
1201.392, 97.93410
1201.874, 97.81504
1202.356, 97.78088
1202.838, 97.76272
1203.320, 97.52778
1203.802, 97.22453
1204.284, 97.26090
1204.766, 97.55775
1205.249, 97.71938
1205.731, 97.62875
1206.213, 97.45500
1206.695, 97.27199
1207.177, 97.11362
1207.659, 96.99492
1208.141, 96.92503
1208.623, 96.94932
1209.105, 97.00082
1209.588, 96.93815
1210.070, 96.83513
1210.552, 96.99631
1211.034, 97.54140
1211.516, 97.77828
1211.998, 97.28677
1212.480, 96.49276
1212.962, 97.34248
1213.445, 97.80544
1213.927, 97.90250
1214.409, 96.53763
1214.891, 97.06057
1215.373, 96.82695
1215.855, 96.56232
1216.337, 97.35094
1216.819, 96.19872
1217.302, 96.97057
1217.784, 96.97440
1218.266, 97.32978
1218.748, 96.92393
1219.230, 96.75321
1219.712, 97.34394
1220.194, 97.51305
1220.676, 97.01957
1221.158, 96.52160
1221.641, 96.87843
1222.123, 96.91809
1222.605, 96.68749
1223.087, 96.58416
1223.569, 96.67702
1224.051, 96.68239
1224.533, 96.43302
1225.015, 96.22542
1225.497, 96.52509
1225.980, 96.86218
1226.462, 96.52591
1226.944, 96.01310
1227.426, 96.02690
1227.908, 96.37702
1228.390, 96.63296
1228.872, 96.68647
1229.354, 96.46941
1229.837, 95.75122
1230.319, 95.36932
1230.801, 95.92457
1231.283, 96.46153
1231.765, 96.71741
1232.247, 96.65647
1232.729, 95.85877
1233.211, 94.93296
1233.693, 95.09509
1234.176, 96.29109
1234.658, 96.89361
1235.140, 96.77418
1235.622, 96.39922
1236.104, 95.63866
1236.586, 95.16537
1237.068, 95.19796
1237.550, 95.47077
1238.032, 95.81897
1238.515, 96.18569
1238.997, 96.52749
1239.479, 96.77508
1239.961, 96.53926
1240.443, 95.95363
1240.925, 95.61900
1241.407, 95.55819
1241.889, 95.59823
1242.372, 95.66653
1242.854, 95.65623
1243.336, 95.47803
1243.818, 95.34956
1244.300, 95.53651
1244.782, 95.80663
1245.264, 95.96064
1245.746, 96.04389
1246.229, 96.13950
1246.711, 96.20578
1247.193, 96.12497
1247.675, 95.89399
1248.157, 95.67915
1248.639, 95.49699
1249.121, 95.38200
1249.603, 95.29922
1250.085, 95.34502
1250.568, 95.64954
1251.050, 95.96844
1251.532, 96.20025
1252.014, 96.27907
1252.496, 96.02966
1252.978, 94.61438
1253.460, 95.48707
1253.942, 95.97304
1254.424, 96.09307
1254.907, 94.75114
1255.389, 95.29703
1255.871, 95.08637
1256.353, 94.84470
1256.835, 95.65629
1257.317, 94.52702
1257.799, 95.32191
1258.281, 95.34870
1258.764, 95.72701
1259.246, 95.34413
1259.728, 95.19637
1260.210, 95.81006
1260.692, 96.00213
1261.174, 95.53162
1261.656, 95.93230
1262.138, 94.77643
1262.620, 94.98646
1263.103, 95.78578
1263.585, 95.50008
1264.067, 95.73039
1264.549, 95.81590
1265.031, 95.47397
1265.513, 94.68616
1265.995, 95.12924
1266.477, 95.37897
1266.959, 95.44573
1267.442, 94.78152
1267.924, 95.06121
1268.406, 94.96262
1268.888, 94.84853
1269.370, 95.26106
1269.852, 94.70317
1270.334, 95.10735
1270.816, 95.12749
1271.299, 95.32341
1271.781, 95.13871
1272.263, 95.07156
1272.745, 95.38515
1273.227, 95.48793
1273.709, 95.25942
1274.191, 95.46650
1274.673, 94.89531
1275.156, 95.00707
1275.638, 95.41349
1276.120, 95.20411
1276.602, 95.41815
1277.084, 95.47093
1277.566, 94.79086
1278.048, 95.38529
1278.530, 95.42854
1279.012, 95.99137
1279.495, 96.11268
1279.977, 95.66924
1280.459, 95.28666
1280.941, 94.95805
1281.423, 94.80779
1281.905, 94.87093
1282.387, 95.08942
1282.869, 95.53012
1283.351, 95.69704
1283.834, 95.42725
1284.316, 95.04202
1284.798, 94.75036
1285.280, 94.51653
1285.762, 94.30112
1286.244, 94.14980
##END=



