##NAMES=Shortite
##RRUFFID=R040184
##IDEAL CHEMISTRY=Na_2_Ca_2_(CO_3_)_3_
##LOCALITY=Green River, Wyoming, USA
##OWNER=RRUFF
##SOURCE=University of Arizona Mineral Museum
##DESCRIPTION=Colorless single crystal fragments
##STATUS=The identification of this mineral has been confirmed by X-ray diffraction and chemical analysis
##URL=rruff.info/R040184
##MEASURED CHEMISTRY=(Na_1.47_Ca_0.27_[box]_0.26_)_Î£=2_Ca_2.00_(CO_3_)_3_
157.3757, 9901.111
157.8578, 9946.163
158.3399, 10017.13
158.8221, 10093.64
159.3042, 10163.06
159.7863, 10212.98
160.2684, 10264.50
160.7505, 10324.22
161.2326, 10392.05
161.7148, 10463.15
162.1969, 10532.56
162.6790, 10605.81
163.1611, 10687.28
163.6432, 10784.65
164.1253, 10886.42
164.6075, 10982.72
165.0896, 11073.06
165.5717, 11175.40
166.0538, 11303.50
166.5359, 11449.43
167.0180, 11601.89
167.5002, 11763.79
167.9823, 11926.96
168.4644, 12095.23
168.9465, 12274.11
169.4286, 12421.63
169.9107, 12505.34
170.3929, 12534.51
170.8750, 12530.72
171.3571, 12498.60
171.8392, 12441.73
172.3213, 12361.24
172.8034, 12255.50
173.2856, 12134.78
173.7677, 11997.50
174.2498, 11849.45
174.7319, 11712.99
175.2140, 11595.17
175.6961, 11498.55
176.1783, 11429.86
176.6604, 11395.77
177.1425, 11381.56
177.6246, 11376.77
178.1067, 11379.78
178.5888, 11379.69
179.0710, 11360.57
179.5531, 11332.59
180.0352, 11319.48
180.5173, 11330.95
180.9994, 11355.93
181.4815, 11377.57
181.9637, 11396.15
182.4458, 11414.32
182.9279, 11430.88
183.4100, 11448.10
183.8921, 11475.91
184.3742, 11525.01
184.8564, 11583.11
185.3385, 11616.74
185.8206, 11624.58
186.3027, 11627.40
186.7848, 11642.57
187.2669, 11670.06
187.7491, 11710.49
188.2312, 11776.04
188.7133, 11855.00
189.1954, 11896.95
189.6775, 11894.51
190.1596, 11886.92
190.6418, 11927.21
191.1239, 12014.17
191.6060, 12102.05
192.0881, 12169.91
192.5702, 12220.66
193.0524, 12278.41
193.5345, 12342.05
194.0166, 12415.05
194.4987, 12503.23
194.9808, 12607.16
195.4629, 12718.10
195.9451, 12834.74
196.4272, 12958.29
196.9093, 13069.52
197.3914, 13164.45
197.8735, 13252.40
198.3556, 13353.56
198.8378, 13470.22
199.3199, 13583.25
199.8020, 13678.80
200.2841, 13754.51
200.7662, 13836.64
201.2483, 13929.03
201.7305, 14026.49
202.2126, 14122.73
202.6947, 14224.15
203.1768, 14300.45
203.6589, 14337.12
204.1410, 14335.04
204.6232, 14281.65
205.1053, 14164.21
205.5874, 13999.76
206.0695, 13843.51
206.5516, 13697.33
207.0337, 13554.41
207.5159, 13402.96
207.9980, 13237.67
208.4801, 13103.58
208.9622, 13012.19
209.4443, 12956.20
209.9264, 12899.70
210.4086, 12839.94
210.8907, 12785.04
211.3728, 12746.20
211.8549, 12732.23
212.3370, 12700.66
212.8191, 12633.42
213.3013, 12539.10
213.7834, 12488.96
214.2655, 12497.44
214.7476, 12526.93
215.2297, 12546.37
215.7118, 12553.74
216.1940, 12556.17
216.6761, 12549.99
217.1582, 12536.34
217.6403, 12546.59
218.1224, 12594.91
218.6045, 12648.00
219.0867, 12670.94
219.5688, 12648.31
220.0509, 12631.38
220.5330, 12630.82
221.0151, 12646.83
221.4972, 12669.55
221.9794, 12705.90
222.4615, 12741.49
222.9436, 12758.76
223.4257, 12744.68
223.9078, 12739.74
224.3899, 12757.14
224.8721, 12799.89
225.3542, 12826.80
225.8363, 12828.35
226.3184, 12823.34
226.8005, 12834.41
227.2827, 12866.81
227.7648, 12905.66
228.2469, 12950.47
228.7290, 13003.41
229.2111, 13043.49
229.6932, 13064.58
230.1754, 13077.32
230.6575, 13096.81
231.1396, 13130.15
231.6217, 13157.13
232.1038, 13168.78
232.5859, 13159.46
233.0681, 13165.65
233.5502, 13192.25
234.0323, 13230.70
234.5144, 13270.44
234.9965, 13315.44
235.4786, 13354.50
235.9608, 13383.96
236.4429, 13402.28
236.9250, 13416.57
237.4071, 13425.19
237.8892, 13430.66
238.3713, 13436.62
238.8535, 13442.17
239.3356, 13449.69
239.8177, 13459.59
240.2998, 13471.38
240.7819, 13487.55
241.2640, 13508.84
241.7462, 13534.31
242.2283, 13561.56
242.7104, 13585.51
243.1925, 13619.78
243.6746, 13672.31
244.1567, 13752.82
244.6389, 13818.29
245.1210, 13862.19
245.6031, 13894.85
246.0852, 13933.14
246.5673, 13975.87
247.0494, 14026.37
247.5316, 14087.67
248.0137, 14164.61
248.4958, 14237.08
248.9779, 14307.66
249.4600, 14371.91
249.9421, 14415.06
250.4243, 14415.28
250.9064, 14434.06
251.3885, 14498.40
251.8706, 14625.64
252.3527, 14742.97
252.8348, 14850.86
253.3170, 14948.39
253.7991, 15029.05
254.2812, 15077.05
254.7633, 15136.84
255.2454, 15229.50
255.7275, 15366.64
256.2097, 15490.82
256.6918, 15599.37
257.1739, 15695.41
257.6560, 15784.06
258.1381, 15860.99
258.6202, 15939.86
259.1024, 16026.50
259.5845, 16120.68
260.0666, 16223.98
260.5487, 16351.71
261.0308, 16476.65
261.5129, 16549.95
261.9951, 16555.86
262.4772, 16546.31
262.9593, 16545.63
263.4414, 16563.47
263.9235, 16542.80
264.4056, 16477.00
264.8878, 16378.30
265.3699, 16265.02
265.8520, 16134.36
266.3341, 15994.11
266.8162, 15839.95
267.2983, 15667.80
267.7805, 15518.08
268.2626, 15397.35
268.7447, 15293.26
269.2268, 15181.69
269.7089, 15056.36
270.1910, 14946.61
270.6732, 14868.67
271.1553, 14827.54
271.6374, 14770.58
272.1195, 14691.32
272.6016, 14605.57
273.0837, 14542.90
273.5659, 14506.64
274.0480, 14474.68
274.5301, 14436.94
275.0122, 14393.10
275.4943, 14359.59
275.9764, 14339.69
276.4586, 14323.97
276.9407, 14293.17
277.4228, 14244.35
277.9049, 14209.30
278.3870, 14208.36
278.8691, 14239.36
279.3513, 14249.02
279.8334, 14232.14
280.3155, 14207.26
280.7976, 14202.23
281.2798, 14218.16
281.7619, 14228.90
282.2440, 14221.88
282.7261, 14199.83
283.2082, 14183.49
283.6903, 14173.35
284.1725, 14167.11
284.6546, 14163.32
285.1367, 14161.88
285.6188, 14158.83
286.1009, 14149.11
286.5830, 14136.29
287.0652, 14138.54
287.5473, 14157.79
288.0294, 14180.51
288.5115, 14191.93
288.9936, 14193.06
289.4757, 14191.89
289.9579, 14189.88
290.4400, 14187.82
290.9221, 14188.68
291.4042, 14192.75
291.8863, 14196.35
292.3684, 14193.75
292.8506, 14186.81
293.3327, 14183.03
293.8148, 14181.67
294.2969, 14186.64
294.7790, 14211.88
295.2611, 14257.55
295.7433, 14299.83
296.2254, 14314.19
296.7075, 14308.65
297.1896, 14305.73
297.6717, 14315.35
298.1538, 14327.97
298.6360, 14327.37
299.1181, 14314.52
299.6002, 14300.88
300.0823, 14290.18
300.5644, 14285.39
301.0465, 14292.78
301.5287, 14318.10
302.0108, 14351.04
302.4929, 14384.57
302.9750, 14417.59
303.4571, 14441.80
303.9392, 14440.88
304.4214, 14431.24
304.9035, 14437.82
305.3856, 14478.09
305.8677, 14517.18
306.3498, 14519.89
306.8319, 14494.02
307.3141, 14466.90
307.7962, 14445.36
308.2783, 14434.96
308.7604, 14443.51
309.2425, 14479.45
309.7246, 14519.18
310.2068, 14552.74
310.6889, 14579.04
311.1710, 14595.71
311.6531, 14598.47
312.1352, 14593.13
312.6173, 14580.81
313.0995, 14556.32
313.5816, 14541.07
314.0637, 14547.44
314.5458, 14569.87
315.0279, 14597.82
315.5100, 14648.01
315.9922, 14687.00
316.4743, 14688.41
316.9564, 14636.02
317.4385, 14600.92
317.9206, 14620.29
318.4027, 14667.88
318.8849, 14707.04
319.3670, 14730.28
319.8491, 14741.37
320.3312, 14735.70
320.8133, 14708.13
321.2954, 14693.81
321.7776, 14710.49
322.2597, 14739.40
322.7418, 14760.49
323.2239, 14763.64
323.7060, 14765.95
324.1881, 14768.81
324.6703, 14771.63
325.1524, 14783.91
325.6345, 14823.00
326.1166, 14862.84
326.5987, 14882.65
327.0808, 14858.00
327.5630, 14842.00
328.0451, 14844.86
328.5272, 14865.42
329.0093, 14878.38
329.4914, 14875.54
329.9735, 14872.27
330.4557, 14879.16
330.9378, 14904.71
331.4199, 14925.42
331.9020, 14937.22
332.3841, 14942.49
332.8662, 14954.61
333.3484, 14982.40
333.8305, 15003.46
334.3126, 14998.69
334.7947, 14947.55
335.2768, 14937.95
335.7589, 14992.01
336.2411, 15080.16
336.7232, 15127.33
337.2053, 15123.19
337.6874, 15107.11
338.1695, 15094.08
338.6516, 15083.51
339.1338, 15082.59
339.6159, 15092.50
340.0980, 15110.49
340.5801, 15133.88
341.0622, 15163.77
341.5443, 15191.34
342.0265, 15210.69
342.5086, 15223.25
342.9907, 15250.88
343.4728, 15299.29
343.9549, 15339.31
344.4370, 15318.22
344.9192, 15244.03
345.4013, 15193.53
345.8834, 15204.62
346.3655, 15256.19
346.8476, 15298.88
347.3297, 15332.82
347.8119, 15351.68
348.2940, 15332.56
348.7761, 15290.95
349.2582, 15274.34
349.7403, 15303.06
350.2225, 15355.38
350.7046, 15412.55
351.1867, 15472.07
351.6688, 15510.64
352.1509, 15495.38
352.6331, 15452.74
353.1152, 15420.79
353.5973, 15405.67
354.0794, 15407.61
354.5615, 15440.64
355.0436, 15493.87
355.5258, 15534.22
356.0079, 15531.11
356.4900, 15514.02
356.9721, 15510.23
357.4542, 15528.50
357.9363, 15544.58
358.4185, 15534.41
358.9006, 15513.98
359.3827, 15510.94
359.8648, 15552.57
360.3469, 15601.30
360.8290, 15640.89
361.3112, 15670.61
361.7933, 15686.13
362.2754, 15678.87
362.7575, 15659.66
363.2396, 15640.19
363.7217, 15598.90
364.2039, 15582.04
364.6860, 15620.61
365.1681, 15715.57
365.6502, 15772.51
366.1323, 15750.97
366.6144, 15706.64
367.0966, 15677.61
367.5787, 15667.55
368.0608, 15670.62
368.5429, 15696.99
369.0250, 15739.65
369.5071, 15761.29
369.9893, 15746.09
370.4714, 15728.28
370.9535, 15725.24
371.4356, 15746.71
371.9177, 15760.41
372.3998, 15762.43
372.8820, 15758.28
373.3641, 15758.73
373.8462, 15761.94
374.3283, 15774.68
374.8104, 15803.56
375.2925, 15851.23
375.7747, 15886.61
376.2568, 15908.94
376.7389, 15921.11
377.2210, 15923.64
377.7031, 15915.65
378.1852, 15910.95
378.6674, 15914.76
379.1495, 15925.18
379.6316, 15932.85
380.1137, 15937.01
380.5958, 15944.74
381.0779, 15969.09
381.5601, 16005.27
382.0422, 16027.50
382.5243, 16028.38
383.0064, 16015.38
383.4885, 15991.77
383.9706, 15960.38
384.4528, 15943.75
384.9349, 15972.33
385.4170, 16021.76
385.8991, 16048.70
386.3812, 16040.62
386.8633, 16030.38
387.3455, 16057.18
387.8276, 16105.68
388.3097, 16141.14
388.7918, 16130.76
389.2739, 16109.68
389.7560, 16106.31
390.2382, 16123.86
390.7203, 16146.51
391.2024, 16171.52
391.6845, 16194.87
392.1666, 16212.23
392.6487, 16210.55
393.1309, 16213.30
393.6130, 16236.57
394.0951, 16277.76
394.5772, 16305.13
395.0593, 16299.65
395.5414, 16284.79
396.0236, 16275.21
396.5057, 16273.65
396.9878, 16276.59
397.4699, 16288.20
397.9520, 16304.72
398.4341, 16313.97
398.9163, 16304.51
399.3984, 16299.74
399.8805, 16310.74
400.3626, 16348.26
400.8447, 16368.43
401.3268, 16361.44
401.8090, 16344.31
402.2911, 16340.57
402.7732, 16352.38
403.2553, 16372.97
403.7374, 16406.92
404.2195, 16452.26
404.7017, 16469.38
405.1838, 16451.33
405.6659, 16423.72
406.1480, 16404.95
406.6301, 16394.74
407.1122, 16404.30
407.5944, 16441.91
408.0765, 16494.11
408.5586, 16533.18
409.0407, 16559.28
409.5228, 16567.45
410.0049, 16536.41
410.4871, 16484.46
410.9692, 16465.52
411.4513, 16489.06
411.9334, 16529.64
412.4155, 16566.71
412.8976, 16598.84
413.3798, 16620.85
413.8619, 16623.05
414.3440, 16618.78
414.8261, 16621.29
415.3082, 16630.97
415.7903, 16644.09
416.2725, 16662.68
416.7546, 16681.75
417.2367, 16695.98
417.7188, 16701.35
418.2009, 16703.74
418.6830, 16707.02
419.1652, 16709.83
419.6473, 16707.00
420.1294, 16679.91
420.6115, 16659.17
421.0937, 16658.57
421.5758, 16640.33
422.0579, 16704.00
422.5400, 16747.19
423.0221, 16771.01
423.5042, 16717.41
423.9864, 16763.79
424.4685, 16770.09
424.9506, 16774.75
425.4327, 16835.19
425.9148, 16792.85
426.3969, 16852.41
426.8791, 16871.29
427.3612, 16908.79
427.8433, 16891.90
428.3254, 16899.68
428.8075, 16889.05
429.2896, 16869.53
429.7718, 16876.68
430.2539, 16914.80
430.7360, 16956.41
431.2181, 16989.83
431.7002, 17014.47
432.1823, 17015.59
432.6645, 16985.93
433.1466, 16954.43
433.6287, 16965.08
434.1108, 17011.03
434.5929, 17059.33
435.0750, 17103.96
435.5572, 17138.83
436.0393, 17148.21
436.5214, 17133.08
437.0035, 17114.01
437.4856, 17107.21
437.9677, 17106.60
438.4499, 17102.53
438.9320, 17086.37
439.4141, 17076.76
439.8962, 17092.94
440.3783, 17126.55
440.8604, 17156.54
441.3426, 17171.56
441.8247, 17181.49
442.3068, 17190.32
442.7889, 17197.30
443.2710, 17208.87
443.7531, 17232.95
444.2353, 17260.01
444.7174, 17279.92
445.1995, 17286.87
445.6816, 17291.09
446.1637, 17295.76
446.6458, 17300.22
447.1280, 17295.30
447.6101, 17264.69
448.0922, 17242.68
448.5743, 17251.50
449.0564, 17308.68
449.5385, 17349.59
450.0207, 17367.87
450.5028, 17373.38
450.9849, 17385.52
451.4670, 17406.56
451.9491, 17422.20
452.4312, 17425.90
452.9134, 17418.92
453.3955, 17408.52
453.8776, 17393.51
454.3597, 17383.71
454.8418, 17394.01
455.3239, 17419.29
455.8061, 17437.01
456.2882, 17438.83
456.7703, 17436.22
457.2524, 17444.39
457.7345, 17462.08
458.2166, 17484.59
458.6988, 17523.97
459.1809, 17559.07
459.6630, 17558.30
460.1451, 17512.69
460.6272, 17474.55
461.1093, 17485.46
461.5915, 17520.56
462.0736, 17548.84
462.5557, 17551.94
463.0378, 17554.42
463.5199, 17570.94
464.0020, 17598.06
464.4842, 17609.71
464.9663, 17570.71
465.4484, 17536.79
465.9305, 17539.36
466.4126, 17613.29
466.8947, 17664.38
467.3769, 17686.21
467.8590, 17688.00
468.3411, 17682.85
468.8232, 17663.92
469.3053, 17651.54
469.7874, 17650.19
470.2696, 17659.84
470.7517, 17684.67
471.2338, 17731.36
471.7159, 17772.54
472.1980, 17777.27
472.6801, 17746.62
473.1623, 17728.68
473.6444, 17730.73
474.1265, 17747.03
474.6086, 17777.14
475.0907, 17817.33
475.5728, 17843.40
476.0550, 17829.16
476.5371, 17797.27
477.0192, 17783.35
477.5013, 17788.53
477.9834, 17804.79
478.4655, 17834.63
478.9477, 17869.23
479.4298, 17896.91
479.9119, 17915.21
480.3940, 17924.97
480.8761, 17922.98
481.3582, 17912.22
481.8404, 17901.20
482.3225, 17886.46
482.8046, 17877.25
483.2867, 17878.06
483.7688, 17890.87
484.2509, 17908.21
484.7331, 17940.49
485.2152, 17971.22
485.6973, 17984.14
486.1794, 17963.25
486.6615, 17952.10
487.1436, 17958.62
487.6258, 17979.56
488.1079, 17999.91
488.5900, 18019.44
489.0721, 18038.71
489.5542, 18064.52
490.0363, 18097.32
490.5185, 18095.38
491.0006, 18050.17
491.4827, 17995.07
491.9648, 17972.46
492.4470, 17978.58
492.9291, 17994.70
493.4112, 18019.30
493.8933, 18046.01
494.3754, 18063.48
494.8575, 18073.03
495.3397, 18081.81
495.8218, 18096.55
496.3039, 18112.24
496.7860, 18121.46
497.2681, 18120.50
497.7502, 18124.18
498.2324, 18149.08
498.7145, 18180.98
499.1966, 18201.00
499.6787, 18184.62
500.1608, 18174.41
500.6429, 18189.20
501.1251, 18227.04
501.6072, 18253.01
502.0893, 18264.02
502.5714, 18263.57
503.0535, 18250.19
503.5356, 18208.75
504.0178, 18191.85
504.4999, 18208.17
504.9820, 18241.38
505.4641, 18270.41
505.9462, 18296.96
506.4283, 18308.76
506.9105, 18294.87
507.3926, 18265.08
507.8747, 18262.09
508.3568, 18287.23
508.8389, 18314.59
509.3210, 18319.96
509.8032, 18312.92
510.2853, 18323.25
510.7674, 18358.52
511.2495, 18394.71
511.7316, 18400.56
512.2137, 18389.52
512.6959, 18388.82
513.1780, 18433.97
513.6601, 18473.22
514.1422, 18453.10
514.6243, 18385.78
515.1064, 18355.40
515.5886, 18444.85
516.0707, 18546.54
516.5528, 18590.88
517.0349, 18536.05
517.5170, 18493.95
517.9991, 18476.61
518.4813, 18477.24
518.9634, 18489.86
519.4455, 18527.04
519.9276, 18554.20
520.4097, 18560.90
520.8918, 18550.86
521.3740, 18550.70
521.8561, 18563.88
522.3382, 18575.50
522.8203, 18569.90
523.3024, 18549.13
523.7845, 18549.46
524.2667, 18575.40
524.7488, 18613.27
525.2309, 18653.22
525.7130, 18692.90
526.1951, 18723.97
526.6772, 18748.31
527.1594, 18758.58
527.6415, 18737.43
528.1236, 18691.43
528.6057, 18648.72
529.0878, 18615.62
529.5699, 18598.80
530.0521, 18607.72
530.5342, 18649.21
531.0163, 18690.74
531.4984, 18728.14
531.9805, 18758.05
532.4626, 18777.13
532.9448, 18775.81
533.4269, 18774.07
533.9090, 18768.95
534.3911, 18764.45
534.8732, 18778.56
535.3553, 18823.64
535.8375, 18864.52
536.3196, 18883.57
536.8017, 18879.80
537.2838, 18883.93
537.7659, 18900.38
538.2480, 18910.27
538.7302, 18879.36
539.2123, 18816.48
539.6944, 18788.24
540.1765, 18819.33
540.6586, 18872.33
541.1407, 18901.17
541.6229, 18908.61
542.1050, 18905.38
542.5871, 18883.53
543.0692, 18862.52
543.5513, 18862.04
544.0334, 18883.02
544.5156, 18907.58
544.9977, 18931.31
545.4798, 18952.93
545.9619, 18971.01
546.4440, 18982.81
546.9261, 18994.78
547.4083, 19015.68
547.8904, 19035.64
548.3725, 19034.55
548.8546, 18988.90
549.3367, 18961.23
549.8188, 18971.30
550.3010, 19015.57
550.7831, 19055.69
551.2652, 19094.62
551.7473, 19119.56
552.2294, 19114.25
552.7115, 19082.27
553.1937, 19057.38
553.6758, 19041.01
554.1579, 19036.82
554.6400, 19061.66
555.1221, 19103.70
555.6042, 19127.22
556.0864, 19097.78
556.5685, 19066.68
557.0506, 19095.92
557.5327, 19169.15
558.0148, 19225.16
558.4969, 19222.51
558.9791, 19202.17
559.4612, 19186.03
559.9433, 19175.68
560.4254, 19173.74
560.9075, 19188.53
561.3896, 19207.61
561.8718, 19219.08
562.3539, 19207.30
562.8360, 19217.00
563.3181, 19267.04
563.8002, 19332.98
564.2823, 19348.30
564.7645, 19299.09
565.2466, 19261.55
565.7287, 19271.99
566.2108, 19319.29
566.6929, 19351.01
567.1750, 19366.70
567.6572, 19371.08
568.1393, 19360.61
568.6214, 19342.70
569.1035, 19333.30
569.5856, 19336.30
570.0677, 19341.82
570.5499, 19340.28
571.0320, 19336.10
571.5141, 19336.28
571.9962, 19349.52
572.4783, 19361.45
572.9604, 19362.74
573.4426, 19356.33
573.9247, 19357.61
574.4068, 19378.68
574.8889, 19399.08
575.3710, 19410.38
575.8531, 19410.37
576.3353, 19412.67
576.8174, 19419.04
577.2995, 19425.12
577.7816, 19423.41
578.2637, 19411.97
578.7458, 19416.03
579.2280, 19443.80
579.7101, 19480.20
580.1922, 19498.58
580.6743, 19501.09
581.1564, 19499.88
581.6385, 19492.95
582.1207, 19489.54
582.6028, 19510.14
583.0849, 19550.54
583.5670, 19579.13
584.0491, 19555.20
584.5313, 19526.07
585.0134, 19535.71
585.4955, 19609.90
585.9776, 19659.52
586.4597, 19631.56
586.9418, 19579.96
587.4240, 19566.95
587.9061, 19623.46
588.3882, 19673.55
588.8703, 19713.83
589.3524, 19741.25
589.8345, 19741.80
590.3167, 19707.49
590.7988, 19676.97
591.2809, 19669.84
591.7630, 19680.94
592.2451, 19681.34
592.7272, 19670.37
593.2094, 19665.55
593.6915, 19691.73
594.1736, 19732.37
594.6557, 19754.08
595.1378, 19747.83
595.6199, 19736.48
596.1021, 19736.02
596.5842, 19741.50
597.0663, 19745.90
597.5485, 19732.25
598.0306, 19732.54
598.5127, 19771.64
598.9948, 19837.15
599.4769, 19875.30
599.9590, 19868.88
600.4412, 19852.11
600.9233, 19828.21
601.4054, 19794.25
601.8875, 19803.46
602.3696, 19871.35
602.8517, 19944.24
603.3339, 19975.86
603.8160, 19968.84
604.2981, 19944.15
604.7802, 19897.22
605.2623, 19858.34
605.7444, 19878.81
606.2266, 19940.10
606.7087, 19991.29
607.1908, 20008.51
607.6729, 20014.80
608.1550, 20031.12
608.6371, 20052.28
609.1193, 20062.03
609.6014, 20038.35
610.0835, 20014.92
610.5656, 20007.54
611.0477, 20018.37
611.5298, 20037.48
612.0120, 20080.60
612.4941, 20115.60
612.9762, 20116.38
613.4583, 20068.30
613.9404, 20040.01
614.4225, 20038.04
614.9047, 20049.97
615.3868, 20059.79
615.8689, 20067.69
616.3510, 20074.83
616.8331, 20081.03
617.3152, 20087.36
617.7974, 20090.02
618.2795, 20092.77
618.7616, 20110.02
619.2437, 20178.20
619.7258, 20242.58
620.2079, 20256.51
620.6901, 20217.81
621.1722, 20177.43
621.6543, 20139.37
622.1364, 20114.88
622.6185, 20113.69
623.1006, 20148.56
623.5828, 20179.08
624.0649, 20206.62
624.5470, 20228.55
625.0291, 20240.15
625.5112, 20239.32
625.9933, 20238.67
626.4755, 20238.53
626.9576, 20242.41
627.4397, 20263.76
627.9218, 20299.50
628.4039, 20326.11
628.8860, 20332.36
629.3682, 20322.61
629.8503, 20291.01
630.3324, 20242.32
630.8145, 20212.43
631.2966, 20241.45
631.7787, 20283.67
632.2609, 20305.26
632.7430, 20295.59
633.2251, 20290.25
633.7072, 20310.30
634.1893, 20328.49
634.6714, 20318.05
635.1536, 20247.57
635.6357, 20220.65
636.1178, 20257.43
636.5999, 20327.87
637.0820, 20382.92
637.5641, 20422.36
638.0463, 20441.12
638.5284, 20424.74
639.0105, 20398.10
639.4926, 20423.00
639.9747, 20489.58
640.4568, 20539.94
640.9390, 20519.96
641.4211, 20480.53
641.9032, 20474.28
642.3853, 20504.87
642.8674, 20523.20
643.3495, 20491.16
643.8317, 20452.41
644.3138, 20437.49
644.7959, 20463.63
645.2780, 20487.96
645.7601, 20509.86
646.2422, 20530.41
646.7244, 20554.97
647.2065, 20588.24
647.6886, 20596.93
648.1707, 20566.71
648.6528, 20520.93
649.1349, 20505.66
649.6171, 20518.24
650.0992, 20538.97
650.5813, 20570.97
651.0634, 20598.45
651.5455, 20595.10
652.0276, 20566.51
652.5098, 20542.93
652.9919, 20538.75
653.4740, 20545.94
653.9561, 20562.26
654.4382, 20589.60
654.9203, 20612.90
655.4025, 20638.93
655.8846, 20653.42
656.3667, 20639.41
656.8488, 20571.51
657.3309, 20558.32
657.8130, 20620.87
658.2952, 20707.08
658.7773, 20743.71
659.2594, 20734.32
659.7415, 20716.50
660.2236, 20696.24
660.7057, 20678.43
661.1879, 20671.62
661.6700, 20673.29
662.1521, 20676.59
662.6342, 20675.83
663.1163, 20677.69
663.5984, 20693.19
664.0806, 20718.97
664.5627, 20728.05
665.0448, 20682.57
665.5269, 20647.94
666.0090, 20657.51
666.4911, 20719.97
666.9733, 20761.61
667.4554, 20780.52
667.9375, 20782.31
668.4196, 20758.83
668.9017, 20711.96
669.3839, 20708.79
669.8660, 20762.19
670.3481, 20826.47
670.8302, 20852.10
671.3123, 20848.14
671.7944, 20831.66
672.2766, 20794.94
672.7587, 20768.46
673.2408, 20783.90
673.7229, 20822.38
674.2050, 20847.21
674.6871, 20841.35
675.1693, 20827.88
675.6514, 20805.11
676.1335, 20777.63
676.6156, 20773.24
677.0977, 20805.65
677.5798, 20829.37
678.0620, 20815.44
678.5441, 20770.55
679.0262, 20765.65
679.5083, 20802.63
679.9904, 20847.99
680.4725, 20885.82
680.9547, 20910.57
681.4368, 20904.21
681.9189, 20860.61
682.4010, 20825.74
682.8831, 20836.14
683.3652, 20868.47
683.8474, 20899.87
684.3295, 20928.46
684.8116, 20950.78
685.2937, 20958.17
685.7758, 20962.72
686.2579, 20980.51
686.7401, 21015.46
687.2222, 21054.41
687.7043, 21100.25
688.1864, 21143.47
688.6685, 21156.21
689.1506, 21140.26
689.6328, 21123.60
690.1149, 21104.93
690.5970, 21101.83
691.0791, 21153.58
691.5612, 21250.31
692.0433, 21339.89
692.5255, 21386.21
693.0076, 21424.80
693.4897, 21483.71
693.9718, 21568.33
694.4539, 21630.68
694.9360, 21682.63
695.4182, 21693.53
695.9003, 21635.22
696.3824, 21483.49
696.8645, 21366.89
697.3466, 21286.06
697.8287, 21238.70
698.3109, 21239.37
698.7930, 21276.96
699.2751, 21287.65
699.7572, 21253.41
700.2393, 21215.85
700.7214, 21214.98
701.2036, 21241.28
701.6857, 21279.12
702.1678, 21330.84
702.6499, 21383.92
703.1320, 21432.38
703.6141, 21478.80
704.0963, 21530.17
704.5784, 21589.74
705.0605, 21650.11
705.5426, 21708.85
706.0247, 21767.52
706.5068, 21825.76
706.9890, 21880.72
707.4711, 21961.05
707.9532, 22085.65
708.4353, 22245.40
708.9174, 22439.42
709.3995, 22660.46
709.8817, 22828.35
710.3638, 22887.28
710.8459, 22867.44
711.3280, 22772.91
711.8101, 22593.16
712.2922, 22440.34
712.7744, 22324.44
713.2565, 22262.55
713.7386, 22264.34
714.2207, 22350.63
714.7028, 22456.09
715.1849, 22604.28
715.6671, 22732.30
716.1492, 22767.70
716.6313, 22715.38
717.1134, 22634.29
717.5955, 22532.32
718.0776, 22413.05
718.5598, 22267.68
719.0419, 22111.21
719.5240, 21973.32
720.0061, 21870.46
720.4882, 21779.67
720.9703, 21685.68
721.4525, 21595.60
721.9346, 21524.75
722.4167, 21457.26
722.8988, 21433.85
723.3809, 21481.72
723.8630, 21577.49
724.3452, 21625.29
724.8273, 21620.27
725.3094, 21600.60
725.7915, 21564.59
726.2736, 21533.65
726.7557, 21572.72
727.2379, 21675.35
727.7200, 21790.55
728.2021, 21884.74
728.6842, 21977.50
729.1663, 22097.68
729.6484, 22248.49
730.1306, 22363.59
730.6127, 22464.72
731.0948, 22487.21
731.5769, 22383.25
732.0590, 22105.50
732.5411, 21898.03
733.0233, 21775.51
733.5054, 21690.34
733.9875, 21595.92
734.4696, 21496.96
734.9517, 21432.37
735.4338, 21407.30
735.9160, 21408.57
736.3981, 21443.64
736.8802, 21489.85
737.3623, 21511.49
737.8444, 21484.12
738.3266, 21460.17
738.8087, 21461.78
739.2908, 21477.97
739.7729, 21493.54
740.2551, 21514.12
740.7372, 21521.98
741.2193, 21511.08
741.7014, 21489.79
742.1835, 21475.36
742.6656, 21467.93
743.1478, 21459.65
743.6299, 21439.84
744.1120, 21427.93
744.5941, 21469.37
745.0762, 21546.77
745.5583, 21607.44
746.0405, 21634.24
746.5226, 21628.16
747.0047, 21562.26
747.4868, 21452.98
747.9689, 21394.49
748.4510, 21427.61
748.9332, 21474.96
749.4153, 21517.30
749.8974, 21554.30
750.3795, 21583.60
750.8616, 21604.60
751.3438, 21621.89
751.8259, 21638.89
752.3080, 21654.08
752.7901, 21664.47
753.2722, 21669.92
753.7543, 21670.85
754.2365, 21662.91
754.7186, 21653.73
755.2007, 21653.54
755.6828, 21667.92
756.1649, 21663.47
756.6470, 21606.27
757.1292, 21553.65
757.6113, 21544.99
758.0934, 21595.70
758.5755, 21616.54
759.0576, 21599.61
759.5397, 21579.67
760.0219, 21606.79
760.5040, 21661.41
760.9861, 21674.21
761.4682, 21627.33
761.9503, 21577.40
762.4324, 21562.25
762.9146, 21572.24
763.3967, 21598.05
763.8788, 21663.50
764.3609, 21701.83
764.8430, 21674.42
765.3251, 21629.96
765.8073, 21626.69
766.2894, 21678.44
766.7715, 21718.27
767.2536, 21738.87
767.7357, 21739.85
768.2178, 21702.00
768.7000, 21639.21
769.1821, 21613.71
769.6642, 21667.76
770.1463, 21729.58
770.6284, 21729.74
771.1105, 21694.07
771.5927, 21672.52
772.0748, 21694.16
772.5569, 21715.66
773.0390, 21722.45
773.5211, 21722.74
774.0032, 21741.63
774.4854, 21788.45
774.9675, 21817.12
775.4496, 21806.56
775.9317, 21775.44
776.4138, 21777.83
776.8959, 21806.01
777.3781, 21817.99
777.8602, 21764.16
778.3423, 21707.07
778.8244, 21706.86
779.3065, 21751.24
779.7886, 21785.86
780.2708, 21785.86
780.7529, 21781.83
781.2350, 21780.86
781.7171, 21783.76
782.1992, 21800.32
782.6813, 21833.69
783.1635, 21867.95
783.6456, 21901.57
784.1277, 21928.75
784.6098, 21927.42
785.0919, 21899.45
785.5740, 21864.12
786.0562, 21815.14
786.5383, 21777.40
787.0204, 21780.34
787.5025, 21825.08
787.9846, 21860.05
788.4667, 21861.22
788.9489, 21861.44
789.4310, 21878.50
789.9131, 21914.42
790.3952, 21921.76
790.8773, 21894.59
791.3594, 21866.13
791.8416, 21866.27
792.3237, 21883.69
792.8058, 21881.15
793.2879, 21857.46
793.7700, 21850.90
794.2521, 21916.83
794.7343, 21991.74
795.2164, 22018.70
795.6985, 21979.26
796.1806, 21945.81
796.6627, 21918.25
797.1448, 21907.09
797.6270, 21922.92
798.1091, 21969.61
798.5912, 22018.37
799.0733, 22073.66
799.5554, 22107.76
800.0375, 22068.90
800.5197, 21996.24
801.0018, 21971.44
801.4839, 22011.29
801.9660, 22050.73
802.4481, 22039.69
802.9302, 22017.58
803.4124, 22021.32
803.8945, 22085.74
804.3766, 22104.06
804.8587, 22048.19
805.3408, 21983.31
805.8229, 21972.06
806.3051, 22014.09
806.7872, 22059.96
807.2693, 22108.65
807.7514, 22142.08
808.2335, 22128.73
808.7156, 22092.98
809.1978, 22071.91
809.6799, 22075.79
810.1620, 22085.95
810.6441, 22092.37
811.1262, 22102.96
811.6083, 22128.57
812.0905, 22195.43
812.5726, 22211.03
813.0547, 22153.06
813.5368, 22083.12
814.0189, 22085.68
814.5010, 22145.90
814.9832, 22170.87
815.4653, 22138.50
815.9474, 22104.46
816.4295, 22136.35
816.9116, 22189.95
817.3937, 22206.75
817.8759, 22142.47
818.3580, 22100.08
818.8401, 22115.63
819.3222, 22152.58
819.8043, 22177.38
820.2864, 22185.66
820.7686, 22206.21
821.2507, 22247.68
821.7328, 22282.88
822.2149, 22256.48
822.6970, 22196.92
823.1791, 22184.73
823.6613, 22256.31
824.1434, 22316.10
824.6255, 22283.06
825.1076, 22211.29
825.5897, 22161.42
826.0718, 22147.76
826.5540, 22154.22
827.0361, 22193.59
827.5182, 22238.06
828.0003, 22252.24
828.4824, 22236.39
828.9645, 22220.41
829.4467, 22206.35
829.9288, 22203.01
830.4109, 22232.29
830.8930, 22275.08
831.3751, 22301.78
831.8572, 22300.10
832.3394, 22291.83
832.8215, 22269.71
833.3036, 22253.15
833.7857, 22265.97
834.2678, 22326.54
834.7499, 22360.64
835.2321, 22358.51
835.7142, 22340.98
836.1963, 22337.93
836.6784, 22342.12
837.1605, 22317.89
837.6426, 22247.90
838.1248, 22198.59
838.6069, 22251.82
839.0890, 22339.67
839.5711, 22384.29
840.0532, 22329.99
840.5353, 22306.30
841.0175, 22336.99
841.4996, 22384.05
841.9817, 22412.22
842.4638, 22421.62
842.9459, 22408.84
843.4280, 22369.28
843.9102, 22329.90
844.3923, 22320.18
844.8744, 22330.52
845.3565, 22346.74
845.8386, 22367.33
846.3207, 22388.70
846.8029, 22402.97
847.2850, 22421.74
847.7671, 22462.03
848.2492, 22562.35
848.7313, 22567.28
849.2134, 22446.34
849.6956, 22307.57
850.1777, 22257.47
850.6598, 22278.86
851.1419, 22317.50
851.6240, 22368.86
852.1061, 22419.40
852.5883, 22472.00
853.0704, 22511.51
853.5525, 22521.21
854.0346, 22486.39
854.5167, 22457.93
854.9988, 22431.98
855.4810, 22421.58
855.9631, 22446.00
856.4452, 22506.31
856.9273, 22529.05
857.4094, 22510.59
857.8915, 22480.70
858.3737, 22447.99
858.8558, 22428.26
859.3379, 22455.13
859.8200, 22536.79
860.3021, 22592.58
860.7842, 22560.46
861.2664, 22520.35
861.7485, 22521.78
862.2306, 22571.61
862.7127, 22589.82
863.1948, 22570.32
863.6769, 22546.70
864.1591, 22538.38
864.6412, 22544.71
865.1233, 22571.41
865.6054, 22616.46
866.0875, 22650.70
866.5696, 22647.18
867.0518, 22635.67
867.5339, 22637.69
868.0160, 22655.44
868.4981, 22657.29
868.9802, 22637.06
869.4623, 22613.21
869.9445, 22587.55
870.4266, 22565.87
870.9087, 22586.69
871.3908, 22645.46
871.8729, 22691.60
872.3550, 22684.78
872.8372, 22660.62
873.3193, 22639.72
873.8014, 22625.36
874.2835, 22630.79
874.7656, 22688.91
875.2477, 22731.40
875.7299, 22739.46
876.2120, 22719.31
876.6941, 22688.79
877.1762, 22648.06
877.6583, 22618.95
878.1404, 22608.80
878.6226, 22618.08
879.1047, 22661.35
879.5869, 22724.62
880.0690, 22772.89
880.5511, 22798.47
881.0332, 22800.11
881.5153, 22759.88
881.9974, 22701.28
882.4796, 22667.76
882.9617, 22659.19
883.4438, 22684.10
883.9259, 22761.10
884.4080, 22838.25
884.8901, 22805.91
885.3723, 22710.62
885.8544, 22664.42
886.3365, 22744.22
886.8186, 22818.08
887.3007, 22808.42
887.7828, 22766.50
888.2650, 22770.24
888.7471, 22859.75
889.2292, 22879.68
889.7113, 22792.87
890.1934, 22689.05
890.6755, 22702.43
891.1577, 22795.14
891.6398, 22845.41
892.1219, 22823.84
892.6040, 22791.38
893.0861, 22778.22
893.5682, 22781.33
894.0504, 22800.20
894.5325, 22844.49
895.0146, 22880.89
895.4967, 22911.66
895.9788, 22930.33
896.4609, 22924.79
896.9431, 22899.99
897.4252, 22884.89
897.9073, 22881.04
898.3894, 22888.43
898.8715, 22925.50
899.3536, 22960.56
899.8358, 22961.00
900.3179, 22920.27
900.8000, 22893.40
901.2821, 22893.21
901.7642, 22896.82
902.2463, 22892.20
902.7285, 22881.85
903.2106, 22886.25
903.6927, 22904.94
904.1748, 22925.89
904.6569, 22952.23
905.1390, 22969.59
905.6212, 22950.03
906.1033, 22905.22
906.5854, 22885.12
907.0675, 22920.76
907.5496, 22964.34
908.0317, 23011.14
908.5139, 23055.27
908.9960, 23074.19
909.4781, 23067.68
909.9602, 23068.39
910.4423, 23094.63
910.9244, 23122.25
911.4066, 23117.96
911.8887, 23094.56
912.3708, 23075.55
912.8529, 23072.90
913.3350, 23070.28
913.8171, 23065.10
914.2993, 23058.29
914.7814, 23047.77
915.2635, 23032.10
915.7456, 23035.55
916.2277, 23065.38
916.7098, 23098.26
917.1920, 23103.80
917.6741, 23095.96
918.1562, 23094.67
918.6383, 23104.58
919.1204, 23119.15
919.6025, 23144.21
920.0847, 23166.85
920.5668, 23178.42
921.0489, 23177.99
921.5310, 23171.02
922.0131, 23156.55
922.4952, 23143.79
922.9774, 23136.25
923.4595, 23137.13
923.9416, 23157.68
924.4237, 23196.40
924.9058, 23225.20
925.3879, 23229.14
925.8701, 23224.36
926.3522, 23217.91
926.8343, 23209.36
927.3164, 23190.24
927.7985, 23157.35
928.2806, 23143.21
928.7628, 23174.52
929.2449, 23222.05
929.7270, 23240.44
930.2091, 23237.18
930.6912, 23233.17
931.1733, 23234.61
931.6555, 23239.19
932.1376, 23249.57
932.6197, 23261.22
933.1018, 23265.23
933.5839, 23260.04
934.0660, 23258.56
934.5482, 23262.31
935.0303, 23272.98
935.5124, 23305.34
935.9945, 23342.80
936.4766, 23352.87
936.9587, 23315.54
937.4409, 23286.15
937.9230, 23290.41
938.4051, 23303.35
938.8872, 23303.47
939.3693, 23285.18
939.8514, 23288.98
940.3336, 23316.71
940.8157, 23353.23
941.2978, 23396.08
941.7799, 23435.03
942.2620, 23451.38
942.7441, 23445.41
943.2263, 23441.01
943.7084, 23446.82
944.1905, 23457.51
944.6726, 23478.76
945.1547, 23504.32
945.6368, 23478.82
946.1190, 23396.73
946.6011, 23357.78
947.0832, 23438.00
947.5653, 23550.65
948.0474, 23578.51
948.5295, 23548.02
949.0117, 23520.68
949.4938, 23515.80
949.9759, 23519.49
950.4580, 23535.61
950.9401, 23553.44
951.4222, 23550.91
951.9044, 23527.27
952.3865, 23529.88
952.8686, 23571.68
953.3507, 23614.96
953.8328, 23619.29
954.3149, 23601.25
954.7971, 23576.68
955.2792, 23540.82
955.7613, 23531.53
956.2434, 23572.88
956.7255, 23619.21
957.2076, 23643.38
957.6898, 23646.02
958.1719, 23642.78
958.6540, 23633.91
959.1361, 23638.56
959.6182, 23688.43
960.1003, 23743.35
960.5825, 23763.96
961.0646, 23754.54
961.5467, 23747.78
962.0288, 23748.60
962.5109, 23756.07
962.9930, 23778.47
963.4752, 23800.15
963.9573, 23763.54
964.4394, 23682.22
964.9215, 23642.46
965.4036, 23692.30
965.8857, 23752.90
966.3679, 23759.28
966.8500, 23738.90
967.3321, 23727.43
967.8142, 23731.05
968.2963, 23745.13
968.7784, 23778.48
969.2606, 23804.24
969.7427, 23782.17
970.2248, 23729.13
970.7069, 23710.66
971.1890, 23731.35
971.6711, 23752.74
972.1533, 23737.74
972.6354, 23724.78
973.1175, 23749.42
973.5996, 23810.76
974.0817, 23835.00
974.5638, 23809.32
975.0460, 23791.77
975.5281, 23807.11
976.0102, 23845.22
976.4923, 23900.94
976.9744, 23962.22
977.4565, 23993.69
977.9387, 23938.59
978.4208, 23899.43
978.9029, 23934.08
979.3850, 23994.60
979.8671, 24015.75
980.3492, 23990.80
980.8314, 23961.17
981.3135, 23928.09
981.7956, 23905.27
982.2777, 23913.96
982.7598, 23939.31
983.2419, 23962.74
983.7241, 23982.46
984.2062, 23991.89
984.6883, 23975.74
985.1704, 23962.32
985.6525, 23964.69
986.1346, 23981.51
986.6168, 24002.97
987.0989, 24028.54
987.5810, 24041.85
988.0631, 24021.53
988.5452, 23994.61
989.0273, 23989.33
989.5095, 23997.75
989.9916, 23998.86
990.4737, 23964.25
990.9558, 23963.65
991.4379, 24017.24
991.9200, 24090.79
992.4022, 24136.63
992.8843, 24156.29
993.3664, 24154.03
993.8485, 24127.52
994.3306, 24099.17
994.8127, 24068.75
995.2949, 24054.06
995.7770, 24085.31
996.2591, 24177.46
996.7412, 24195.06
997.2233, 24115.45
997.7054, 24043.40
998.1876, 24053.53
998.6697, 24111.44
999.1518, 24151.99
999.6339, 24174.08
1000.116, 24174.47
1000.598, 24123.32
1001.080, 24083.09
1001.562, 24078.39
1002.044, 24096.35
1002.527, 24114.96
1003.009, 24133.37
1003.491, 24167.41
1003.973, 24225.05
1004.455, 24274.71
1004.937, 24273.24
1005.419, 24246.18
1005.901, 24224.20
1006.384, 24213.01
1006.866, 24205.99
1007.348, 24202.43
1007.830, 24201.77
1008.312, 24197.02
1008.794, 24193.90
1009.276, 24242.65
1009.758, 24335.11
1010.240, 24405.10
1010.723, 24397.23
1011.205, 24371.24
1011.687, 24369.96
1012.169, 24378.51
1012.651, 24350.38
1013.133, 24255.45
1013.615, 24214.23
1014.097, 24254.82
1014.580, 24327.49
1015.062, 24372.83
1015.544, 24397.04
1016.026, 24411.08
1016.508, 24416.38
1016.990, 24413.93
1017.472, 24392.59
1017.954, 24374.15
1018.436, 24367.50
1018.919, 24373.20
1019.401, 24411.22
1019.883, 24481.68
1020.365, 24543.53
1020.847, 24574.34
1021.329, 24584.19
1021.811, 24574.17
1022.293, 24551.63
1022.776, 24533.71
1023.258, 24506.86
1023.740, 24517.58
1024.222, 24586.21
1024.704, 24667.60
1025.186, 24699.93
1025.668, 24692.46
1026.150, 24669.29
1026.632, 24631.84
1027.115, 24605.98
1027.597, 24620.11
1028.079, 24640.52
1028.561, 24644.69
1029.043, 24633.02
1029.525, 24612.63
1030.007, 24580.07
1030.489, 24571.17
1030.972, 24618.26
1031.454, 24680.31
1031.936, 24698.61
1032.418, 24688.35
1032.900, 24681.86
1033.382, 24709.84
1033.864, 24709.16
1034.346, 24652.83
1034.828, 24594.51
1035.311, 24599.89
1035.793, 24660.31
1036.275, 24727.65
1036.757, 24798.66
1037.239, 24843.36
1037.721, 24810.34
1038.203, 24769.57
1038.685, 24780.68
1039.167, 24837.04
1039.650, 24846.29
1040.132, 24789.05
1040.614, 24775.19
1041.096, 24863.71
1041.578, 24976.89
1042.060, 24983.34
1042.542, 24923.86
1043.024, 24871.57
1043.507, 24830.99
1043.989, 24837.21
1044.471, 24934.37
1044.953, 25034.95
1045.435, 25065.44
1045.917, 25031.95
1046.399, 25015.81
1046.881, 25017.90
1047.364, 25022.44
1047.846, 25011.60
1048.328, 25006.18
1048.810, 25023.34
1049.292, 25059.21
1049.774, 25094.04
1050.256, 25129.99
1050.738, 25157.02
1051.220, 25173.82
1051.703, 25179.00
1052.185, 25165.57
1052.667, 25140.56
1053.149, 25111.96
1053.631, 25076.54
1054.113, 25061.10
1054.595, 25078.31
1055.077, 25112.27
1055.559, 25168.36
1056.042, 25236.66
1056.524, 25228.11
1057.006, 25155.52
1057.488, 25123.58
1057.970, 25215.41
1058.452, 25338.98
1058.934, 25446.06
1059.416, 25543.79
1059.899, 25645.16
1060.381, 25752.54
1060.863, 25851.07
1061.345, 25932.06
1061.827, 26037.87
1062.309, 26219.56
1062.791, 26452.92
1063.273, 26701.80
1063.755, 26964.87
1064.238, 27246.25
1064.720, 27544.40
1065.202, 27869.50
1065.684, 28215.75
1066.166, 28594.29
1066.648, 29015.33
1067.130, 29485.62
1067.612, 30054.70
1068.094, 30690.17
1068.577, 31547.86
1069.059, 32907.33
1069.541, 34423.87
1070.023, 35929.51
1070.505, 37644.57
1070.987, 37938.45
1071.469, 36730.30
1071.951, 34957.40
1072.434, 32862.32
1072.916, 30842.81
1073.398, 29331.89
1073.880, 28276.68
1074.362, 27477.80
1074.844, 26937.43
1075.326, 26554.26
1075.808, 26333.31
1076.291, 26229.44
1076.773, 26198.69
1077.255, 26229.54
1077.737, 26291.82
1078.219, 26380.39
1078.701, 26500.12
1079.183, 26594.70
1079.665, 26785.96
1080.147, 27145.88
1080.630, 27648.57
1081.112, 28134.97
1081.594, 28608.43
1082.076, 29176.33
1082.558, 29901.67
1083.040, 30693.05
1083.522, 31429.41
1084.004, 32199.67
1084.486, 33128.69
1084.969, 34267.45
1085.451, 35449.82
1085.933, 36629.26
1086.415, 37987.30
1086.897, 39374.18
1087.379, 41173.46
1087.861, 44071.60
1088.343, 48001.39
1088.826, 52631.78
1089.308, 61159.92
1089.790, 65613.11
1090.272, 63953.31
1090.754, 58518.14
1091.236, 51849.01
1091.718, 44442.65
1092.200, 38594.97
1092.682, 34725.95
1093.165, 31937.89
1093.647, 30095.34
1094.129, 28812.04
1094.611, 27883.99
1095.093, 27269.79
1095.575, 26845.09
1096.057, 26614.58
1096.539, 26462.49
1097.022, 26373.17
1097.504, 26298.28
1097.986, 26171.44
1098.468, 26035.93
1098.950, 25957.25
1099.432, 25974.50
1099.914, 25964.31
1100.396, 25917.16
1100.879, 25874.10
1101.361, 25864.94
1101.843, 25880.33
1102.325, 25919.62
1102.807, 25970.04
1103.289, 25984.74
1103.771, 25905.79
1104.253, 25843.84
1104.735, 25818.53
1105.218, 25815.81
1105.700, 25818.55
1106.182, 25827.12
1106.664, 25850.01
1107.146, 25888.80
1107.628, 25908.57
1108.110, 25861.21
1108.592, 25815.81
1109.074, 25814.51
1109.557, 25847.08
1110.039, 25876.54
1110.521, 25903.20
1111.003, 25921.66
1111.485, 25929.66
1111.967, 25930.73
1112.449, 25919.05
1112.931, 25907.37
1113.414, 25911.35
1113.896, 25936.03
1114.378, 25959.58
1114.860, 25984.57
1115.342, 25997.08
1115.824, 25986.33
1116.306, 25960.87
1116.788, 25910.78
1117.271, 25859.48
1117.753, 25858.90
1118.235, 25991.57
1118.717, 26076.93
1119.199, 26094.48
1119.681, 26081.79
1120.163, 26069.11
1120.645, 26057.11
1121.127, 26043.83
1121.609, 26030.84
1122.092, 26032.60
1122.574, 26069.78
1123.056, 26107.22
1123.538, 26135.10
1124.020, 26154.82
1124.502, 26166.08
1124.984, 26170.32
1125.466, 26183.80
1125.949, 26211.70
1126.431, 26227.20
1126.913, 26201.46
1127.395, 26164.66
1127.877, 26136.64
1128.359, 26117.30
1128.841, 26098.60
1129.323, 26079.32
1129.806, 26086.89
1130.288, 26144.49
1130.770, 26204.14
1131.252, 26202.65
1131.734, 26180.67
1132.216, 26196.25
1132.698, 26275.49
1133.180, 26316.81
1133.662, 26313.42
1134.145, 26299.51
1134.627, 26288.35
1135.109, 26285.82
1135.591, 26309.45
1136.073, 26348.94
1136.555, 26377.55
1137.037, 26402.95
1137.519, 26383.97
1138.001, 26293.37
1138.484, 26211.21
1138.966, 26244.05
1139.448, 26344.29
1139.930, 26390.90
1140.412, 26383.99
1140.894, 26385.72
1141.376, 26442.92
1141.858, 26484.13
1142.341, 26483.72
1142.823, 26465.60
1143.305, 26479.83
1143.787, 26516.47
1144.269, 26529.69
1144.751, 26510.51
1145.233, 26482.52
1145.715, 26439.79
1146.198, 26412.21
1146.680, 26417.79
1147.162, 26450.19
1147.644, 26485.11
1148.126, 26521.59
1148.608, 26542.52
1149.090, 26534.44
1149.572, 26532.22
1150.054, 26577.76
1150.536, 26630.58
1151.019, 26651.66
1151.501, 26638.70
1151.983, 26615.38
1152.465, 26580.80
1152.947, 26554.80
1153.429, 26544.17
1153.911, 26551.23
1154.393, 26594.90
1154.876, 26652.78
1155.358, 26683.43
1155.840, 26673.64
1156.322, 26666.81
1156.804, 26660.59
1157.286, 26674.52
1157.768, 26749.36
1158.250, 26835.83
1158.733, 26867.07
1159.215, 26854.34
1159.697, 26849.13
1160.179, 26879.38
1160.661, 26870.13
1161.143, 26802.71
1161.625, 26722.23
1162.107, 26664.02
1162.589, 26635.27
1163.072, 26660.76
1163.554, 26738.05
1164.036, 26805.87
1164.518, 26849.63
1165.000, 26880.56
1165.482, 26898.77
1165.964, 26909.11
1166.446, 26918.38
1166.928, 26926.88
1167.411, 26935.76
1167.893, 26945.67
1168.375, 26952.87
1168.857, 26946.74
1169.339, 26951.42
1169.821, 26985.25
1170.303, 27029.70
1170.785, 27026.85
1171.268, 26987.82
1171.750, 26944.49
1172.232, 26892.65
1172.714, 26875.98
1173.196, 26955.48
1173.678, 27033.98
1174.160, 27045.51
1174.642, 27003.48
1175.125, 26996.15
1175.607, 27017.93
1176.089, 27038.18
1176.571, 27034.65
1177.053, 27036.99
1177.535, 27072.26
1178.017, 27108.72
1178.499, 27111.64
1178.981, 27081.68
1179.464, 27077.38
1179.946, 27097.93
1180.428, 27118.35
1180.910, 27118.88
1181.392, 27119.46
1181.874, 27130.44
1182.356, 27148.68
1182.838, 27174.46
1183.320, 27209.05
1183.803, 27206.45
1184.285, 27161.47
1184.767, 27138.34
1185.249, 27223.54
1185.731, 27310.62
1186.213, 27311.80
1186.695, 27257.58
1187.177, 27237.95
1187.660, 27255.27
1188.142, 27269.97
1188.624, 27274.64
1189.106, 27283.32
1189.588, 27319.12
1190.070, 27355.08
1190.552, 27361.76
1191.034, 27345.01
1191.516, 27357.80
1191.999, 27405.62
1192.481, 27424.76
1192.963, 27389.03
1193.445, 27359.32
1193.927, 27423.97
1194.409, 27506.77
1194.891, 27521.41
1195.373, 27460.98
1195.855, 27431.47
1196.338, 27436.47
1196.820, 27439.04
1197.302, 27420.77
1197.784, 27402.69
1198.266, 27404.59
1198.748, 27422.06
1199.230, 27454.69
1199.712, 27507.01
1200.195, 27536.13
1200.677, 27539.00
1201.159, 27540.73
1201.641, 27563.28
1202.123, 27580.59
1202.605, 27549.60
1203.087, 27497.52
1203.569, 27468.67
1204.052, 27470.48
1204.534, 27486.69
1205.016, 27518.67
1205.498, 27557.58
1205.980, 27605.66
1206.462, 27651.20
1206.944, 27686.97
1207.426, 27709.03
1207.908, 27703.08
1208.391, 27650.76
1208.873, 27627.47
1209.355, 27640.95
1209.837, 27657.42
1210.319, 27633.46
1210.801, 27608.08
1211.283, 27645.33
1211.765, 27721.15
1212.247, 27739.83
1212.730, 27663.61
1213.212, 27638.33
1213.694, 27688.18
1214.176, 27746.13
1214.658, 27736.16
1215.140, 27707.02
1215.622, 27720.52
1216.104, 27770.14
1216.587, 27796.55
1217.069, 27788.98
1217.551, 27783.52
1218.033, 27785.72
1218.515, 27792.60
1218.997, 27798.44
1219.479, 27808.78
1219.961, 27836.61
1220.443, 27879.72
1220.926, 27897.86
1221.408, 27879.00
1221.890, 27881.85
1222.372, 27927.80
1222.854, 27972.54
1223.336, 27953.08
1223.818, 27908.98
1224.300, 27877.76
1224.782, 27865.60
1225.265, 27898.99
1225.747, 27994.46
1226.229, 28051.96
1226.711, 28031.94
1227.193, 27986.28
1227.675, 27961.27
1228.157, 27956.24
1228.639, 27975.93
1229.122, 28023.60
1229.604, 28065.06
1230.086, 28104.17
1230.568, 28108.52
1231.050, 28048.22
1231.532, 27984.61
1232.014, 27993.51
1232.496, 28037.60
1232.979, 28075.27
1233.461, 28104.37
1233.943, 28105.61
1234.425, 28075.38
1234.907, 28052.01
1235.389, 28044.00
1235.871, 28066.39
1236.353, 28170.37
1236.835, 28294.52
1237.318, 28354.83
1237.800, 28345.09
1238.282, 28302.10
1238.764, 28223.11
1239.246, 28174.78
1239.728, 28217.40
1240.210, 28277.41
1240.692, 28291.39
1241.175, 28285.97
1241.657, 28299.06
1242.139, 28336.67
1242.621, 28358.64
1243.103, 28365.08
1243.585, 28365.66
1244.067, 28360.34
1244.549, 28357.90
1245.031, 28366.03
1245.514, 28380.02
1245.996, 28395.45
1246.478, 28413.92
1246.960, 28407.50
1247.442, 28377.53
1247.924, 28361.67
1248.406, 28401.95
1248.888, 28443.61
1249.370, 28449.78
1249.853, 28443.30
1250.335, 28455.63
1250.817, 28485.79
1251.299, 28509.74
1251.781, 28526.37
1252.263, 28537.02
1252.745, 28526.74
1253.227, 28530.01
1253.710, 28583.86
1254.192, 28642.00
1254.674, 28631.75
1255.156, 28567.20
1255.638, 28558.67
1256.120, 28607.42
1256.602, 28646.53
1257.084, 28628.96
1257.567, 28607.44
1258.049, 28593.77
1258.531, 28591.37
1259.013, 28613.13
1259.495, 28650.16
1259.977, 28664.65
1260.459, 28656.63
1260.941, 28659.53
1261.423, 28712.48
1261.906, 28744.50
1262.388, 28738.16
1262.870, 28708.03
1263.352, 28656.73
1263.834, 28603.50
1264.316, 28604.62
1264.798, 28659.68
1265.280, 28698.48
1265.762, 28678.16
1266.245, 28678.40
1266.727, 28720.99
1267.209, 28771.39
1267.691, 28775.92
1268.173, 28759.02
1268.655, 28761.47
1269.137, 28785.96
1269.619, 28810.07
1270.102, 28834.30
1270.584, 28845.46
1271.066, 28833.96
1271.548, 28831.52
1272.030, 28907.55
1272.512, 28995.48
1272.994, 28999.38
1273.476, 28920.02
1273.958, 28897.67
1274.441, 28948.15
1274.923, 28998.50
1275.405, 29035.81
1275.887, 29053.83
1276.369, 29022.38
1276.851, 28986.90
1277.333, 29005.44
1277.815, 29065.18
1278.297, 29061.83
1278.780, 28990.12
1279.262, 28978.90
1279.744, 29068.23
1280.226, 29155.33
1280.708, 29143.38
1281.190, 29110.70
1281.672, 29114.61
1282.154, 29145.14
1282.637, 29173.89
1283.119, 29197.43
1283.601, 29165.36
1284.083, 29052.09
1284.565, 28993.53
1285.047, 29156.81
1285.529, 29298.45
1286.011, 29282.63
1286.494, 29175.16
1286.976, 29166.36
1287.458, 29225.86
1287.940, 29243.91
1288.422, 29189.96
1288.904, 29164.82
1289.386, 29258.67
1289.868, 29311.12
1290.350, 29250.92
1290.833, 29146.54
1291.315, 29133.41
1291.797, 29179.44
1292.279, 29224.48
1292.761, 29257.68
1293.243, 29291.28
1293.725, 29331.94
1294.207, 29357.91
1294.689, 29354.92
1295.172, 29351.28
1295.654, 29405.58
1296.136, 29475.00
1296.618, 29501.74
1297.100, 29473.00
1297.582, 29434.72
1298.064, 29383.74
1298.546, 29339.43
1299.029, 29301.53
1299.511, 29292.85
1299.993, 29367.76
1300.475, 29461.13
1300.957, 29507.96
1301.439, 29512.05
1301.921, 29504.84
1302.403, 29486.58
1302.885, 29463.22
1303.368, 29431.88
1303.850, 29415.13
1304.332, 29430.97
1304.814, 29467.14
1305.296, 29524.28
1305.778, 29588.72
1306.260, 29606.24
1306.742, 29588.08
1307.224, 29582.13
1307.707, 29603.83
1308.189, 29616.00
1308.671, 29585.98
1309.153, 29569.23
1309.635, 29594.02
##END=



