##NAMES=Shortite
##RRUFFID=R040184
##IDEAL CHEMISTRY=Na_2_Ca_2_(CO_3_)_3_
##LOCALITY=Green River, Wyoming, USA
##OWNER=RRUFF
##SOURCE=University of Arizona Mineral Museum
##DESCRIPTION=Colorless single crystal fragments
##STATUS=The identification of this mineral has been confirmed by X-ray diffraction and chemical analysis
##URL=rruff.info/R040184
##MEASURED CHEMISTRY=(Na_1.47_Ca_0.27_[box]_0.26_)_Î£=2_Ca_2.00_(CO_3_)_3_
167.7847, 19892.64
168.2668, 20129.80
168.7490, 20341.53
169.2311, 20526.77
169.7132, 20689.05
170.1953, 20842.49
170.6774, 20976.00
171.1595, 21067.63
171.6417, 21101.00
172.1238, 21088.68
172.6059, 21057.80
173.0880, 20998.63
173.5701, 20939.99
174.0522, 20892.01
174.5344, 20852.66
175.0165, 20820.65
175.4986, 20796.62
175.9807, 20778.52
176.4628, 20759.16
176.9449, 20732.88
177.4271, 20716.68
177.9092, 20711.94
178.3913, 20720.44
178.8734, 20746.89
179.3555, 20798.19
179.8376, 20865.06
180.3197, 20919.35
180.8019, 20951.11
181.2840, 20987.89
181.7661, 21036.36
182.2482, 21094.55
182.7303, 21161.71
183.2124, 21239.83
183.6946, 21323.00
184.1767, 21394.18
184.6588, 21448.70
185.1409, 21497.50
185.6230, 21536.05
186.1051, 21573.85
186.5873, 21623.40
187.0694, 21691.95
187.5515, 21771.54
188.0336, 21842.88
188.5157, 21903.07
188.9978, 21958.07
189.4800, 22004.47
189.9621, 22048.83
190.4442, 22097.74
190.9263, 22153.58
191.4084, 22216.34
191.8905, 22287.72
192.3727, 22378.56
192.8548, 22458.63
193.3369, 22523.20
193.8190, 22576.78
194.3011, 22617.85
194.7832, 22645.35
195.2654, 22673.84
195.7475, 22737.72
196.2296, 22864.73
196.7117, 22976.73
197.1938, 23043.34
197.6759, 23104.06
198.1581, 23197.29
198.6402, 23335.54
199.1223, 23493.98
199.6044, 23627.64
200.0865, 23731.46
200.5686, 23817.92
201.0508, 23883.63
201.5329, 23939.27
202.0150, 23993.46
202.4971, 24048.50
202.9792, 24097.87
203.4613, 24134.19
203.9435, 24167.23
204.4256, 24161.57
204.9077, 24098.15
205.3898, 24014.65
205.8719, 23937.45
206.3540, 23871.17
206.8362, 23801.18
207.3183, 23703.15
207.8004, 23560.88
208.2825, 23433.73
208.7646, 23305.42
209.2467, 23202.09
209.7289, 23157.27
210.2110, 23165.06
210.6931, 23177.16
211.1752, 23129.19
211.6573, 22991.65
212.1395, 22904.57
212.6216, 22896.69
213.1037, 22910.85
213.5858, 22927.71
214.0679, 22942.44
214.5500, 22955.18
215.0322, 22966.42
215.5143, 22976.68
215.9964, 22981.51
216.4785, 22968.70
216.9606, 22961.86
217.4427, 22972.89
217.9249, 22998.46
218.4070, 23028.13
218.8891, 23055.17
219.3712, 23079.90
219.8533, 23089.79
220.3354, 23042.42
220.8176, 23021.65
221.2997, 23073.57
221.7818, 23169.99
222.2639, 23253.53
222.7460, 23282.26
223.2281, 23261.63
223.7103, 23247.94
224.1924, 23238.88
224.6745, 23240.68
225.1566, 23268.09
225.6387, 23304.52
226.1208, 23324.26
226.6030, 23310.81
227.0851, 23273.29
227.5672, 23250.33
228.0493, 23255.39
228.5314, 23257.60
229.0135, 23247.34
229.4957, 23233.18
229.9778, 23222.76
230.4599, 23219.19
230.9420, 23225.46
231.4241, 23252.85
231.9062, 23328.66
232.3884, 23377.12
232.8705, 23361.52
233.3526, 23333.22
233.8347, 23343.41
234.3168, 23407.73
234.7989, 23491.90
235.2811, 23534.34
235.7632, 23513.85
236.2453, 23501.34
236.7274, 23501.91
237.2095, 23511.80
237.6916, 23530.66
238.1738, 23557.59
238.6559, 23588.71
239.1380, 23621.10
239.6201, 23657.18
240.1022, 23685.34
240.5843, 23695.91
241.0665, 23706.01
241.5486, 23723.17
242.0307, 23747.97
242.5128, 23777.33
242.9949, 23809.22
243.4770, 23843.98
243.9592, 23877.56
244.4413, 23899.88
244.9234, 23931.60
245.4055, 23997.53
245.8876, 24081.37
246.3697, 24140.39
246.8519, 24132.18
247.3340, 24067.82
247.8161, 24049.37
248.2982, 24107.66
248.7803, 24173.80
249.2624, 24223.15
249.7446, 24263.63
250.2267, 24311.16
250.7088, 24380.03
251.1909, 24455.66
251.6730, 24489.55
252.1551, 24450.80
252.6373, 24433.89
253.1194, 24473.94
253.6015, 24546.47
254.0836, 24633.93
254.5657, 24735.62
255.0478, 24828.22
255.5300, 24861.55
256.0121, 24811.57
256.4942, 24793.78
256.9763, 24875.56
257.4584, 24982.85
257.9406, 25061.00
258.4227, 25097.75
258.9048, 25128.12
259.3869, 25195.50
259.8690, 25302.39
260.3511, 25390.57
260.8333, 25443.94
261.3154, 25478.76
261.7975, 25510.47
262.2796, 25538.59
262.7617, 25549.91
263.2438, 25528.08
263.7260, 25478.42
264.2081, 25433.27
264.6902, 25401.10
265.1723, 25365.42
265.6544, 25320.75
266.1365, 25264.99
266.6187, 25189.56
267.1008, 25074.88
267.5829, 24940.53
268.0650, 24828.42
268.5471, 24743.15
269.0292, 24668.71
269.5114, 24602.89
269.9935, 24540.24
270.4756, 24469.85
270.9577, 24384.37
271.4398, 24293.75
271.9219, 24206.53
272.4041, 24122.41
272.8862, 24047.00
273.3683, 23985.54
273.8504, 23934.18
274.3325, 23884.50
274.8146, 23836.17
275.2968, 23789.35
275.7789, 23732.68
276.2610, 23674.17
276.7431, 23653.41
277.2252, 23701.18
277.7073, 23770.23
278.1895, 23776.55
278.6716, 23709.12
279.1537, 23647.07
279.6358, 23621.12
280.1179, 23618.54
280.6000, 23621.29
281.0822, 23626.86
281.5643, 23627.95
282.0464, 23610.19
282.5285, 23570.71
283.0106, 23550.45
283.4927, 23571.48
283.9749, 23602.64
284.4570, 23610.37
284.9391, 23594.13
285.4212, 23586.24
285.9033, 23619.04
286.3854, 23690.75
286.8676, 23724.79
287.3497, 23697.68
287.8318, 23659.54
288.3139, 23629.12
288.7960, 23606.81
289.2781, 23591.38
289.7603, 23582.95
290.2424, 23579.44
290.7245, 23572.31
291.2066, 23551.10
291.6887, 23539.30
292.1708, 23546.20
292.6530, 23562.40
293.1351, 23577.67
293.6172, 23588.28
294.0993, 23594.31
294.5814, 23596.45
295.0635, 23599.99
295.5457, 23587.64
296.0278, 23544.84
296.5099, 23498.01
296.9920, 23463.09
297.4741, 23443.18
297.9562, 23435.82
298.4384, 23439.37
298.9205, 23455.24
299.4026, 23472.71
299.8847, 23491.96
300.3668, 23512.57
300.8489, 23533.17
301.3311, 23555.15
301.8131, 23582.50
302.2953, 23619.59
302.7774, 23662.39
303.2595, 23690.31
303.7416, 23698.45
304.2237, 23697.20
304.7058, 23670.62
305.1880, 23644.64
305.6701, 23653.84
306.1522, 23712.18
306.6343, 23786.01
307.1164, 23819.47
307.5985, 23803.92
308.0807, 23779.46
308.5628, 23731.85
309.0449, 23692.29
309.5270, 23687.37
310.0091, 23716.63
310.4912, 23748.46
310.9734, 23760.31
311.4555, 23752.38
311.9376, 23721.44
312.4197, 23644.61
312.9018, 23578.07
313.3839, 23561.21
313.8661, 23580.72
314.3482, 23603.28
314.8303, 23622.66
315.3124, 23632.08
315.7945, 23614.53
316.2766, 23565.58
316.7588, 23515.63
317.2409, 23479.34
317.7230, 23453.52
318.2051, 23432.73
318.6872, 23415.73
319.1693, 23405.05
319.6515, 23408.91
320.1336, 23422.89
320.6157, 23425.96
321.0978, 23408.01
321.5799, 23380.79
322.0620, 23363.08
322.5442, 23356.13
323.0263, 23348.38
323.5084, 23330.80
323.9905, 23312.99
324.4726, 23308.17
324.9547, 23318.51
325.4369, 23336.96
325.9190, 23360.34
326.4011, 23389.55
326.8832, 23400.15
327.3653, 23378.80
327.8474, 23351.94
328.3296, 23330.80
328.8117, 23316.21
329.2938, 23305.94
329.7759, 23297.53
330.2580, 23294.25
330.7401, 23311.33
331.2223, 23401.91
331.7044, 23446.82
332.1865, 23393.13
332.6686, 23306.36
333.1507, 23264.46
333.6328, 23288.64
334.1150, 23331.02
334.5971, 23314.14
335.0792, 23197.47
335.5613, 23132.72
336.0434, 23157.12
336.5255, 23193.94
337.0077, 23212.02
337.4898, 23208.02
337.9719, 23185.76
338.4540, 23139.44
338.9361, 23076.25
339.4182, 23065.86
339.9004, 23158.82
340.3825, 23230.30
340.8646, 23240.84
341.3467, 23212.96
341.8288, 23167.43
342.3109, 23106.81
342.7931, 23055.68
343.2752, 23064.05
343.7573, 23144.43
344.2394, 23194.18
344.7215, 23164.80
345.2036, 23114.27
345.6858, 23091.46
346.1679, 23098.02
346.6500, 23099.78
347.1321, 23067.97
347.6142, 23015.04
348.0963, 22972.64
348.5785, 22941.60
349.0606, 22928.18
349.5427, 22950.06
350.0248, 22995.29
350.5069, 23028.49
350.9890, 23036.81
351.4712, 23036.26
351.9533, 23042.06
352.4354, 23051.73
352.9175, 23048.72
353.3996, 23019.21
353.8817, 22979.18
354.3639, 22976.14
354.8460, 23035.53
355.3281, 23070.82
355.8102, 23038.93
356.2923, 22983.59
356.7744, 22964.16
357.2566, 22990.98
357.7387, 23019.44
358.2208, 22995.53
358.7029, 22903.31
359.1850, 22848.19
359.6671, 22851.35
360.1493, 22864.67
360.6314, 22871.47
361.1135, 22871.33
361.5956, 22869.88
362.0777, 22871.40
362.5598, 22870.65
363.0420, 22846.61
363.5241, 22775.42
364.0062, 22719.24
364.4883, 22678.31
364.9704, 22657.68
365.4525, 22671.39
365.9347, 22718.38
366.4168, 22768.13
366.8989, 22782.59
367.3810, 22759.22
367.8631, 22745.23
368.3452, 22752.29
368.8274, 22756.96
369.3095, 22738.13
369.7916, 22707.68
370.2737, 22695.58
370.7558, 22727.57
371.2379, 22776.23
371.7201, 22794.68
372.2022, 22780.76
372.6843, 22755.96
373.1664, 22716.11
373.6485, 22678.96
374.1306, 22672.73
374.6128, 22706.71
375.0949, 22741.21
375.5770, 22754.21
376.0591, 22753.37
376.5412, 22755.59
377.0233, 22765.26
377.5055, 22769.65
377.9876, 22750.14
378.4697, 22703.28
378.9518, 22682.75
379.4339, 22733.51
379.9160, 22770.92
380.3982, 22725.56
380.8803, 22622.91
381.3624, 22539.36
381.8445, 22517.40
382.3266, 22538.47
382.8087, 22546.30
383.2909, 22535.66
383.7730, 22516.83
384.2551, 22473.22
384.7372, 22432.60
385.2193, 22427.57
385.7014, 22457.16
386.1836, 22482.50
386.6657, 22452.85
387.1478, 22362.51
387.6299, 22331.59
388.1120, 22435.00
388.5941, 22511.82
389.0763, 22483.81
389.5584, 22401.96
390.0405, 22348.67
390.5226, 22361.69
391.0047, 22409.11
391.4868, 22442.91
391.9690, 22461.70
392.4511, 22479.64
392.9332, 22506.52
393.4153, 22527.56
393.8974, 22532.08
394.3795, 22519.82
394.8617, 22490.23
395.3438, 22418.71
395.8259, 22338.01
396.3080, 22308.85
396.7901, 22338.74
397.2722, 22381.93
397.7544, 22413.24
398.2365, 22430.93
398.7186, 22433.45
399.2007, 22402.86
399.6828, 22377.51
400.1649, 22382.24
400.6471, 22399.69
401.1292, 22398.34
401.6113, 22367.69
402.0934, 22325.64
402.5755, 22298.16
403.0576, 22290.00
403.5398, 22283.31
404.0219, 22284.54
404.5040, 22281.02
404.9861, 22261.86
405.4682, 22232.32
405.9503, 22206.57
406.4325, 22194.30
406.9146, 22190.78
407.3967, 22179.75
407.8788, 22159.76
408.3609, 22134.90
408.8430, 22093.85
409.3252, 22056.41
409.8073, 22041.82
410.2894, 22051.82
410.7715, 22066.29
411.2536, 22064.29
411.7357, 22050.73
412.2179, 22053.82
412.7000, 22082.66
413.1821, 22110.53
413.6642, 22115.68
414.1463, 22106.83
414.6284, 22100.16
415.1106, 22101.30
415.5927, 22102.20
416.0748, 22101.60
416.5569, 22096.58
417.0390, 22072.35
417.5211, 22019.11
418.0033, 21963.22
418.4854, 21948.72
418.9675, 21996.44
419.4496, 22013.80
419.9317, 21969.04
420.4138, 21916.49
420.8960, 21887.61
421.3781, 21883.34
421.8602, 21897.11
422.3423, 21927.02
422.8244, 21966.52
423.3065, 21987.19
423.7887, 21982.13
424.2708, 21967.48
424.7529, 21946.80
425.2350, 21917.10
425.7171, 21868.10
426.1992, 21802.32
426.6814, 21743.71
427.1635, 21717.62
427.6456, 21721.41
428.1277, 21727.80
428.6098, 21741.35
429.0919, 21748.56
429.5741, 21738.41
430.0562, 21718.82
430.5383, 21700.31
431.0204, 21683.62
431.5025, 21672.23
431.9846, 21673.28
432.4668, 21682.77
432.9489, 21685.63
433.4310, 21676.98
433.9131, 21664.34
434.3952, 21657.26
434.8773, 21656.74
435.3595, 21650.56
435.8416, 21637.46
436.3237, 21619.08
436.8058, 21593.17
437.2879, 21562.76
437.7701, 21531.78
438.2522, 21501.29
438.7343, 21477.84
439.2164, 21481.21
439.6985, 21546.81
440.1806, 21574.98
440.6628, 21536.21
441.1449, 21487.15
441.6270, 21466.34
442.1091, 21471.12
442.5912, 21473.32
443.0733, 21447.67
443.5555, 21404.63
444.0376, 21388.18
444.5197, 21409.63
445.0018, 21425.96
445.4839, 21413.59
445.9660, 21391.64
446.4482, 21378.72
446.9303, 21378.08
447.4124, 21379.04
447.8945, 21380.49
448.3766, 21377.87
448.8587, 21356.69
449.3409, 21313.40
449.8230, 21273.63
450.3051, 21259.14
450.7872, 21267.31
451.2693, 21267.49
451.7514, 21259.74
452.2336, 21244.72
452.7157, 21211.26
453.1978, 21174.76
453.6799, 21165.09
454.1620, 21188.21
454.6441, 21209.39
455.1263, 21178.54
455.6084, 21081.10
456.0905, 21014.50
456.5726, 20995.69
457.0547, 20992.86
457.5368, 21009.99
458.0190, 21033.91
458.5011, 21041.76
458.9832, 21020.72
459.4653, 20995.95
459.9474, 21010.02
460.4295, 21063.66
460.9117, 21103.36
461.3938, 21120.24
461.8759, 21117.93
462.3580, 21092.88
462.8401, 21049.69
463.3222, 21012.18
463.8044, 20981.82
464.2865, 20963.52
464.7686, 20965.15
465.2507, 20983.58
465.7328, 21010.84
466.2149, 21046.78
466.6971, 21077.92
467.1792, 21076.36
467.6613, 21020.04
468.1434, 20975.97
468.6255, 20944.89
469.1076, 20924.98
469.5898, 20924.16
470.0719, 20934.28
470.5540, 20934.18
471.0361, 20908.92
471.5182, 20868.85
472.0003, 20843.93
472.4825, 20838.47
472.9646, 20836.91
473.4467, 20843.86
473.9288, 20848.00
474.4109, 20840.26
474.8930, 20821.15
475.3752, 20800.11
475.8573, 20772.98
476.3394, 20751.14
476.8215, 20765.51
477.3036, 20817.07
477.7857, 20847.97
478.2679, 20824.25
478.7500, 20765.74
479.2321, 20718.11
479.7142, 20680.56
480.1963, 20653.79
480.6784, 20641.39
481.1606, 20637.55
481.6427, 20639.93
482.1248, 20646.46
482.6069, 20653.02
483.0890, 20657.63
483.5711, 20658.51
484.0533, 20643.78
484.5354, 20591.56
485.0175, 20560.33
485.4996, 20574.70
485.9817, 20599.11
486.4638, 20606.67
486.9460, 20594.16
487.4281, 20573.09
487.9102, 20541.11
488.3923, 20507.97
488.8744, 20513.10
489.3565, 20566.13
489.8387, 20601.57
490.3208, 20573.81
490.8029, 20513.66
491.2850, 20486.20
491.7671, 20498.72
492.2492, 20521.55
492.7314, 20569.29
493.2135, 20608.37
493.6956, 20588.43
494.1777, 20512.17
494.6598, 20432.33
495.1419, 20387.71
495.6241, 20374.93
496.1062, 20371.58
496.5883, 20391.28
497.0704, 20401.18
497.5525, 20398.36
498.0346, 20384.88
498.5168, 20352.22
498.9989, 20305.69
499.4810, 20274.57
499.9631, 20296.46
500.4452, 20352.56
500.9273, 20365.90
501.4095, 20325.40
501.8916, 20289.52
502.3737, 20291.77
502.8558, 20308.35
503.3379, 20301.26
503.8200, 20265.37
504.3022, 20224.82
504.7843, 20177.88
505.2664, 20137.25
505.7485, 20122.13
506.2306, 20131.21
506.7127, 20145.94
507.1949, 20154.38
507.6770, 20158.02
508.1591, 20163.50
508.6412, 20176.29
509.1233, 20182.68
509.6054, 20187.95
510.0876, 20182.42
510.5697, 20148.33
511.0518, 20093.20
511.5339, 20050.50
512.0161, 20050.78
512.4982, 20076.64
512.9803, 20080.67
513.4624, 20060.66
513.9445, 20030.35
514.4266, 19982.72
514.9088, 19937.43
515.3909, 19920.97
515.8730, 19935.11
516.3551, 19952.40
516.8372, 19976.03
517.3193, 19990.80
517.8015, 19974.69
518.2836, 19934.77
518.7657, 19900.33
519.2478, 19886.97
519.7299, 19888.58
520.2120, 19892.34
520.6942, 19910.73
521.1763, 19906.44
521.6584, 19847.16
522.1405, 19798.04
522.6226, 19806.22
523.1047, 19853.59
523.5869, 19890.02
524.0690, 19888.97
524.5511, 19864.79
525.0332, 19834.66
525.5153, 19798.69
525.9974, 19775.76
526.4796, 19775.32
526.9617, 19781.16
527.4438, 19775.09
527.9259, 19758.78
528.4080, 19746.36
528.8901, 19742.02
529.3723, 19739.90
529.8544, 19737.28
530.3365, 19734.21
530.8186, 19733.45
531.3007, 19735.56
531.7828, 19731.95
532.2650, 19706.77
532.7471, 19652.11
533.2292, 19624.98
533.7113, 19652.16
534.1934, 19676.89
534.6755, 19685.06
535.1577, 19679.42
535.6398, 19661.53
536.1219, 19630.40
536.6040, 19600.10
537.0861, 19587.89
537.5682, 19587.23
538.0504, 19573.40
538.5325, 19541.22
539.0146, 19514.97
539.4967, 19515.46
539.9788, 19536.08
540.4609, 19543.78
540.9431, 19541.60
541.4252, 19524.23
541.9073, 19476.60
542.3894, 19422.41
542.8715, 19386.05
543.3536, 19368.00
543.8358, 19350.88
544.3179, 19319.33
544.8000, 19278.93
545.2821, 19254.12
545.7642, 19247.26
546.2463, 19249.63
546.7285, 19263.31
547.2106, 19282.74
547.6927, 19315.44
548.1748, 19357.12
548.6569, 19367.41
549.1390, 19286.58
549.6211, 19195.10
550.1032, 19200.19
550.5853, 19279.42
551.0674, 19326.29
551.5496, 19295.55
552.0317, 19229.03
552.5138, 19194.38
552.9959, 19203.10
553.4780, 19205.02
553.9601, 19202.32
554.4423, 19191.63
554.9244, 19165.28
555.4065, 19132.02
555.8886, 19101.43
556.3707, 19076.49
556.8528, 19066.83
557.3350, 19098.22
557.8171, 19162.45
558.2992, 19187.54
558.7813, 19156.88
559.2634, 19119.04
559.7455, 19108.32
560.2277, 19114.34
560.7098, 19102.63
561.1919, 19058.28
561.6740, 19021.83
562.1561, 19014.90
562.6382, 19016.71
563.1204, 19000.52
563.6025, 18967.79
564.0846, 18944.25
564.5667, 18950.88
565.0488, 18977.04
565.5309, 18978.59
566.0131, 18942.90
566.4952, 18914.62
566.9773, 18908.54
567.4594, 18906.45
567.9415, 18894.10
568.4236, 18874.52
568.9058, 18864.12
569.3879, 18883.23
569.8700, 18902.38
570.3521, 18883.25
570.8342, 18837.95
571.3163, 18810.76
571.7985, 18816.65
572.2806, 18828.92
572.7627, 18813.43
573.2448, 18765.19
573.7269, 18735.91
574.2090, 18738.71
574.6912, 18743.39
575.1733, 18746.01
575.6554, 18744.76
576.1375, 18738.45
576.6196, 18726.69
577.1017, 18709.42
577.5839, 18677.15
578.0660, 18639.41
578.5481, 18634.04
579.0302, 18665.62
579.5123, 18692.77
579.9944, 18692.23
580.4766, 18680.28
580.9587, 18697.04
581.4408, 18760.89
581.9229, 18775.58
582.4050, 18677.88
582.8871, 18572.23
583.3693, 18524.14
583.8514, 18524.10
584.3335, 18545.22
584.8156, 18575.63
585.2977, 18601.30
585.7798, 18595.56
586.2620, 18555.02
586.7441, 18522.87
587.2262, 18502.06
587.7083, 18487.93
588.1904, 18477.68
588.6725, 18472.27
589.1547, 18476.23
589.6368, 18497.19
590.1189, 18508.75
590.6010, 18497.21
591.0831, 18469.67
591.5652, 18420.19
592.0474, 18358.07
592.5295, 18332.54
593.0116, 18383.33
593.4937, 18473.44
593.9758, 18479.73
594.4579, 18343.34
594.9401, 18263.17
595.4222, 18315.64
595.9043, 18373.85
596.3864, 18366.64
596.8685, 18314.95
597.3506, 18280.01
597.8328, 18292.30
598.3149, 18312.98
598.7970, 18299.21
599.2791, 18267.06
599.7612, 18265.05
600.2433, 18302.64
600.7255, 18337.08
601.2076, 18332.33
601.6897, 18292.14
602.1718, 18246.73
602.6539, 18168.54
603.1360, 18124.20
603.6182, 18143.40
604.1003, 18178.09
604.5824, 18201.68
605.0645, 18207.92
605.5466, 18190.96
606.0287, 18135.85
606.5109, 18071.47
606.9930, 18041.05
607.4751, 18041.87
607.9572, 18055.52
608.4393, 18080.73
608.9214, 18105.54
609.4036, 18119.89
609.8857, 18123.65
610.3678, 18111.88
610.8499, 18076.71
611.3320, 18037.73
611.8141, 17990.77
612.2963, 17947.49
612.7784, 17927.42
613.2605, 17926.98
613.7426, 17915.30
614.2247, 17857.05
614.7068, 17780.96
615.1890, 17765.65
615.6711, 17814.06
616.1532, 17857.52
616.6353, 17876.02
617.1174, 17883.38
617.5995, 17900.39
618.0817, 17927.32
618.5638, 17920.09
619.0459, 17831.26
619.5280, 17760.93
620.0101, 17767.12
620.4922, 17803.95
620.9744, 17812.89
621.4565, 17783.54
621.9386, 17743.43
622.4207, 17712.47
622.9028, 17692.60
623.3849, 17698.55
623.8671, 17737.41
624.3492, 17759.82
624.8313, 17744.90
625.3134, 17714.05
625.7955, 17687.79
626.2776, 17665.87
626.7598, 17657.10
627.2419, 17675.01
627.7240, 17693.09
628.2061, 17697.40
628.6882, 17693.62
629.1703, 17690.75
629.6525, 17690.71
630.1346, 17689.70
630.6167, 17686.88
631.0988, 17679.34
631.5809, 17644.16
632.0630, 17568.76
632.5452, 17515.26
633.0273, 17512.72
633.5094, 17530.21
633.9915, 17535.46
634.4736, 17529.02
634.9557, 17518.20
635.4379, 17496.14
635.9200, 17478.80
636.4021, 17481.75
636.8842, 17492.88
637.3663, 17493.02
637.8484, 17477.85
638.3306, 17455.18
638.8127, 17428.19
639.2948, 17401.25
639.7769, 17411.06
640.2590, 17478.37
640.7411, 17507.12
641.2233, 17447.94
641.7054, 17359.61
642.1875, 17292.49
642.6696, 17246.93
643.1517, 17235.19
643.6339, 17298.79
644.1160, 17355.15
644.5981, 17352.58
645.0802, 17316.00
645.5623, 17278.93
646.0444, 17251.23
646.5266, 17233.48
647.0087, 17228.57
647.4908, 17232.87
647.9729, 17227.83
648.4550, 17210.29
648.9371, 17196.01
649.4193, 17187.22
649.9014, 17185.11
650.3835, 17197.22
650.8656, 17220.02
651.3477, 17227.27
651.8298, 17213.24
652.3120, 17184.37
652.7941, 17121.88
653.2762, 17056.80
653.7583, 17038.73
654.2404, 17069.10
654.7225, 17102.28
655.2047, 17100.87
655.6868, 17074.85
656.1689, 17054.74
656.6510, 17039.78
657.1331, 17038.13
657.6152, 17064.92
658.0974, 17086.25
658.5795, 17060.98
659.0616, 17000.99
659.5437, 16959.90
660.0258, 16958.26
660.5079, 16956.43
660.9901, 16934.59
661.4722, 16909.99
661.9543, 16904.99
662.4364, 16917.18
662.9185, 16924.23
663.4006, 16909.77
663.8828, 16885.46
664.3649, 16881.33
664.8470, 16898.58
665.3291, 16892.00
665.8112, 16842.18
666.2933, 16797.63
666.7755, 16800.82
667.2576, 16839.50
667.7397, 16858.55
668.2218, 16855.62
668.7039, 16837.27
669.1860, 16786.80
669.6682, 16736.13
670.1503, 16713.41
670.6324, 16712.50
671.1145, 16707.59
671.5966, 16684.30
672.0787, 16663.50
672.5609, 16685.78
673.0430, 16742.10
673.5251, 16762.81
674.0072, 16735.96
674.4893, 16705.24
674.9714, 16696.01
675.4536, 16700.87
675.9357, 16701.46
676.4178, 16699.53
676.8999, 16689.13
677.3820, 16665.57
677.8641, 16638.08
678.3463, 16600.94
678.8284, 16566.82
679.3105, 16556.77
679.7926, 16577.46
680.2747, 16611.72
680.7568, 16659.83
681.2390, 16705.43
681.7211, 16700.00
682.2032, 16644.49
682.6853, 16590.62
683.1674, 16560.00
683.6495, 16543.44
684.1317, 16526.77
684.6138, 16509.21
685.0959, 16495.83
685.5780, 16490.84
686.0601, 16484.83
686.5422, 16466.88
687.0244, 16452.08
687.5065, 16465.18
687.9886, 16504.97
688.4707, 16528.16
688.9528, 16494.46
689.4349, 16443.73
689.9171, 16416.75
690.3992, 16410.64
690.8813, 16420.99
691.3634, 16445.95
691.8455, 16466.71
692.3276, 16460.61
692.8098, 16433.56
693.2919, 16441.09
693.7740, 16502.64
694.2561, 16556.04
694.7382, 16599.12
695.2203, 16621.75
695.7025, 16613.96
696.1846, 16579.65
696.6667, 16532.24
697.1488, 16455.87
697.6309, 16395.89
698.1130, 16390.93
698.5952, 16408.07
699.0773, 16403.43
699.5594, 16377.22
700.0415, 16355.78
700.5236, 16354.15
701.0057, 16372.99
701.4879, 16434.17
701.9700, 16543.83
702.4521, 16556.26
702.9342, 16418.00
703.4163, 16285.82
703.8984, 16250.93
704.3806, 16286.19
704.8627, 16328.13
705.3448, 16382.59
705.8269, 16426.72
706.3090, 16444.37
706.7911, 16464.09
707.2733, 16503.25
707.7554, 16556.31
708.2375, 16616.60
708.7196, 16681.10
709.2017, 16735.89
709.6838, 16771.75
710.1660, 16787.04
710.6481, 16770.47
711.1302, 16723.84
711.6123, 16677.52
712.0944, 16640.62
712.5765, 16615.66
713.0587, 16609.54
713.5408, 16624.12
714.0229, 16616.85
714.5050, 16540.41
714.9871, 16507.94
715.4692, 16587.54
715.9514, 16677.29
716.4335, 16691.20
716.9156, 16635.93
717.3977, 16574.29
717.8798, 16530.90
718.3619, 16490.24
718.8441, 16444.84
719.3262, 16391.82
719.8083, 16321.66
720.2904, 16236.38
720.7725, 16152.43
721.2546, 16080.79
721.7368, 16019.63
722.2189, 15964.87
722.7010, 15916.56
723.1831, 15873.80
723.6652, 15833.73
724.1473, 15805.25
724.6295, 15804.40
725.1116, 15814.45
725.5937, 15796.65
726.0758, 15735.68
726.5579, 15700.93
727.0400, 15712.59
727.5222, 15745.95
728.0043, 15801.87
728.4864, 15863.70
728.9685, 15903.31
729.4506, 15915.18
729.9327, 15926.79
730.4149, 15977.78
730.8970, 16040.01
731.3791, 16047.07
731.8612, 16002.60
732.3433, 15937.48
732.8254, 15858.03
733.3076, 15774.86
733.7897, 15696.16
734.2718, 15623.20
734.7539, 15570.52
735.2360, 15556.46
735.7181, 15531.56
736.2003, 15462.78
736.6824, 15407.05
737.1645, 15413.91
737.6466, 15461.64
738.1287, 15488.17
738.6108, 15471.56
739.0930, 15444.92
739.5751, 15422.36
740.0572, 15402.73
740.5393, 15382.24
741.0214, 15363.40
741.5035, 15357.71
741.9857, 15370.78
742.4678, 15384.44
742.9499, 15369.45
743.4320, 15328.22
743.9141, 15294.79
744.3962, 15270.79
744.8784, 15245.41
745.3605, 15207.12
745.8426, 15176.42
746.3247, 15186.28
746.8068, 15243.24
747.2889, 15279.79
747.7711, 15297.82
748.2532, 15294.75
748.7353, 15251.95
749.2174, 15201.27
749.6995, 15169.10
750.1816, 15156.24
750.6638, 15152.39
751.1459, 15156.97
751.6280, 15160.75
752.1101, 15156.22
752.5922, 15144.48
753.0743, 15121.31
753.5565, 15090.23
754.0386, 15076.25
754.5207, 15096.27
755.0028, 15126.19
755.4849, 15110.70
755.9670, 15041.09
756.4492, 15013.94
756.9313, 15052.20
757.4134, 15078.39
757.8955, 15048.66
758.3776, 14996.15
758.8597, 14972.08
759.3419, 14978.81
759.8240, 14983.50
760.3061, 14986.51
760.7882, 14983.57
761.2703, 14961.01
761.7524, 14939.57
762.2346, 14949.20
762.7167, 14985.18
763.1988, 15008.77
763.6809, 14993.54
764.1630, 14964.44
764.6451, 14946.43
765.1273, 14937.68
765.6094, 14936.74
766.0915, 14942.03
766.5736, 14943.93
767.0557, 14936.99
767.5378, 14920.71
768.0200, 14888.77
768.5021, 14834.44
768.9842, 14808.21
769.4663, 14823.06
769.9484, 14840.06
770.4305, 14842.57
770.9127, 14838.02
771.3948, 14839.17
771.8769, 14847.34
772.3590, 14844.45
772.8411, 14821.04
773.3232, 14795.09
773.8054, 14769.83
774.2875, 14747.99
774.7696, 14733.40
775.2517, 14725.17
775.7338, 14717.88
776.2159, 14708.08
776.6981, 14699.10
777.1802, 14693.93
777.6623, 14692.62
778.1444, 14700.97
778.6265, 14716.54
779.1086, 14714.98
779.5908, 14680.99
780.0729, 14634.35
780.5550, 14613.36
781.0371, 14621.26
781.5192, 14621.95
782.0013, 14611.30
782.4835, 14604.93
782.9656, 14613.17
783.4477, 14624.38
783.9298, 14621.06
784.4119, 14602.71
784.8940, 14593.58
785.3762, 14601.34
785.8583, 14609.83
786.3404, 14621.91
786.8225, 14627.32
787.3046, 14613.25
787.7867, 14584.38
788.2689, 14556.55
788.7510, 14534.33
789.2331, 14521.39
789.7152, 14534.43
790.1973, 14551.58
790.6794, 14525.07
791.1616, 14465.95
791.6437, 14434.48
792.1258, 14456.50
792.6079, 14502.02
793.0900, 14537.32
793.5721, 14560.71
794.0543, 14550.62
794.5364, 14501.55
795.0185, 14451.77
795.5006, 14408.63
795.9827, 14375.54
796.4648, 14355.00
796.9470, 14347.21
797.4291, 14354.87
797.9112, 14413.97
798.3933, 14436.34
798.8754, 14380.10
799.3575, 14323.87
799.8397, 14321.37
800.3218, 14348.94
800.8039, 14355.19
801.2860, 14324.66
801.7681, 14300.10
802.2502, 14313.06
802.7324, 14332.43
803.2145, 14325.86
803.6966, 14305.63
804.1787, 14301.73
804.6608, 14318.76
805.1429, 14329.67
805.6251, 14309.47
806.1072, 14271.13
806.5893, 14239.36
807.0714, 14214.21
807.5535, 14196.14
808.0356, 14184.98
808.5178, 14187.44
808.9999, 14211.62
809.4820, 14244.89
809.9641, 14255.24
810.4462, 14239.25
810.9283, 14211.45
811.4105, 14159.11
811.8926, 14115.27
812.3747, 14082.47
812.8568, 14071.80
813.3389, 14112.61
813.8210, 14204.12
814.3032, 14251.44
814.7853, 14203.27
815.2674, 14156.38
815.7495, 14149.94
816.2316, 14154.24
816.7137, 14142.44
817.1959, 14115.82
817.6780, 14086.88
818.1601, 14059.10
818.6422, 14038.45
819.1243, 14031.24
819.6064, 14033.46
820.0886, 14042.28
820.5707, 14054.96
821.0528, 14065.47
821.5349, 14071.43
822.0170, 14068.90
822.4991, 14049.81
822.9813, 14020.64
823.4634, 14013.85
823.9455, 14031.18
824.4276, 14031.88
824.9097, 14004.51
825.3918, 13970.54
825.8740, 13943.12
826.3561, 13923.75
826.8382, 13919.01
827.3203, 13939.99
827.8024, 13950.13
828.2845, 13949.93
828.7667, 13937.86
829.2488, 13902.06
829.7309, 13861.00
830.2130, 13835.95
830.6951, 13828.21
831.1772, 13828.90
831.6594, 13837.20
832.1415, 13851.98
832.6236, 13885.67
833.1057, 13916.22
833.5878, 13919.06
834.0699, 13897.87
834.5521, 13871.73
835.0342, 13848.61
835.5163, 13825.64
835.9984, 13786.46
836.4805, 13752.94
836.9626, 13777.52
837.4448, 13842.62
837.9269, 13875.21
838.4090, 13851.72
838.8911, 13811.58
839.3732, 13795.42
839.8553, 13796.54
840.3375, 13787.72
840.8196, 13768.57
841.3017, 13764.76
841.7838, 13785.26
842.2659, 13797.64
842.7480, 13774.71
843.2302, 13735.45
843.7123, 13730.20
844.1944, 13775.60
844.6765, 13799.71
845.1586, 13800.14
845.6407, 13782.87
846.1229, 13731.02
846.6050, 13675.26
847.0871, 13641.37
847.5692, 13630.07
848.0513, 13641.95
848.5334, 13725.60
849.0156, 13766.77
849.4977, 13684.02
849.9798, 13592.48
850.4619, 13591.72
850.9440, 13651.11
851.4261, 13693.04
851.9083, 13694.01
852.3904, 13675.82
852.8725, 13637.35
853.3546, 13599.87
853.8367, 13586.37
854.3188, 13590.96
854.8010, 13604.86
855.2831, 13623.24
855.7652, 13636.50
856.2473, 13639.41
856.7294, 13627.78
857.2115, 13580.11
857.6937, 13509.74
858.1758, 13481.37
858.6579, 13499.92
859.1400, 13522.35
859.6221, 13528.86
860.1042, 13529.09
860.5864, 13537.89
861.0685, 13554.55
861.5506, 13560.70
862.0327, 13555.69
862.5148, 13542.04
862.9969, 13517.62
863.4791, 13489.04
863.9612, 13457.87
864.4433, 13427.43
864.9254, 13410.68
865.4075, 13415.67
865.8896, 13417.50
866.3718, 13411.61
866.8539, 13408.13
867.3360, 13417.78
867.8181, 13427.12
868.3002, 13419.92
868.7823, 13395.98
869.2645, 13369.17
869.7466, 13335.70
870.2287, 13309.58
870.7108, 13304.99
871.1929, 13302.83
871.6750, 13276.51
872.1572, 13240.31
872.6393, 13234.88
873.1214, 13275.20
873.6035, 13310.23
874.0856, 13294.29
874.5677, 13261.18
875.0499, 13251.56
875.5320, 13253.64
876.0141, 13237.83
876.4962, 13201.53
876.9783, 13166.07
877.4604, 13144.27
877.9426, 13137.61
878.4247, 13159.43
878.9068, 13198.54
879.3889, 13207.21
879.8710, 13185.32
880.3531, 13176.06
880.8353, 13198.16
881.3174, 13217.23
881.7995, 13187.85
882.2816, 13120.81
882.7637, 13087.42
883.2458, 13092.92
883.7280, 13092.97
884.2101, 13077.86
884.6922, 13066.60
885.1743, 13076.77
885.6564, 13092.25
886.1385, 13072.24
886.6207, 12997.97
887.1028, 12975.71
887.5849, 13049.70
888.0670, 13104.38
888.5491, 13103.18
889.0313, 13076.33
889.5134, 13036.57
889.9955, 12991.41
890.4776, 12976.01
890.9597, 13016.92
891.4418, 13043.83
891.9240, 13039.01
892.4061, 13026.95
892.8882, 13024.90
893.3703, 13021.22
893.8524, 12994.34
894.3345, 12943.84
894.8167, 12901.51
895.2988, 12877.29
895.7809, 12867.94
896.2630, 12880.10
896.7451, 12899.81
897.2272, 12916.22
897.7094, 12926.75
898.1915, 12926.90
898.6736, 12914.96
899.1557, 12907.60
899.6378, 12929.19
900.1199, 12953.95
900.6021, 12944.53
901.0842, 12915.10
901.5663, 12896.83
902.0484, 12893.98
902.5305, 12891.81
903.0126, 12880.91
903.4948, 12868.15
903.9769, 12867.66
904.4590, 12872.97
904.9411, 12860.73
905.4232, 12832.56
905.9053, 12806.94
906.3875, 12789.97
906.8696, 12782.57
907.3517, 12788.23
907.8338, 12799.78
908.3159, 12791.48
908.7980, 12763.20
909.2802, 12737.63
909.7623, 12715.59
910.2444, 12710.05
910.7265, 12730.66
911.2086, 12761.09
911.6907, 12779.44
912.1729, 12785.62
912.6550, 12776.38
913.1371, 12744.94
913.6192, 12718.61
914.1013, 12698.20
914.5834, 12691.74
915.0656, 12711.48
915.5477, 12744.48
916.0298, 12761.61
916.5119, 12761.63
916.9940, 12750.03
917.4761, 12712.24
917.9583, 12683.54
918.4404, 12679.15
918.9225, 12680.65
919.4046, 12672.37
919.8867, 12657.70
920.3688, 12650.40
920.8510, 12657.29
921.3331, 12658.56
921.8152, 12645.55
922.2973, 12633.08
922.7794, 12630.60
923.2615, 12630.62
923.7437, 12623.07
924.2258, 12608.37
924.7079, 12596.07
925.1900, 12585.91
925.6721, 12583.72
926.1542, 12606.29
926.6364, 12624.30
927.1185, 12610.21
927.6006, 12576.22
928.0827, 12540.39
928.5648, 12508.71
929.0469, 12492.29
929.5291, 12507.61
930.0112, 12528.57
930.4933, 12536.76
930.9754, 12538.63
931.4575, 12542.04
931.9396, 12546.61
932.4218, 12546.97
932.9039, 12541.34
933.3860, 12538.91
933.8681, 12554.23
934.3502, 12571.85
934.8323, 12572.81
935.3145, 12560.35
935.7966, 12533.13
936.2787, 12497.88
936.7608, 12484.25
937.2429, 12509.64
937.7250, 12536.09
938.2072, 12503.02
938.6893, 12442.27
939.1714, 12435.42
939.6535, 12468.75
940.1356, 12476.83
940.6177, 12448.43
941.0999, 12435.45
941.5820, 12479.09
942.0641, 12534.36
942.5462, 12505.36
943.0283, 12413.24
943.5104, 12373.39
943.9926, 12386.55
944.4747, 12392.85
944.9568, 12373.53
945.4389, 12360.19
945.9210, 12383.99
946.4031, 12428.24
946.8853, 12444.57
947.3674, 12433.12
947.8495, 12426.87
948.3316, 12428.58
948.8137, 12427.87
949.2958, 12420.94
949.7780, 12408.40
950.2601, 12388.88
950.7422, 12365.83
951.2243, 12359.20
951.7064, 12371.67
952.1885, 12384.25
952.6707, 12397.04
953.1528, 12401.50
953.6349, 12390.12
954.1170, 12375.97
954.5991, 12377.67
955.0812, 12394.29
955.5634, 12408.04
956.0455, 12427.13
956.5276, 12413.73
957.0097, 12341.05
957.4918, 12281.89
957.9739, 12281.37
958.4561, 12311.17
958.9382, 12327.59
959.4203, 12330.53
959.9024, 12320.39
960.3845, 12279.70
960.8666, 12261.52
961.3488, 12283.88
961.8309, 12316.68
962.3130, 12348.94
962.7951, 12375.64
963.2772, 12386.25
963.7593, 12378.35
964.2415, 12367.32
964.7236, 12356.68
965.2057, 12337.77
965.6878, 12296.11
966.1699, 12258.35
966.6520, 12243.45
967.1342, 12244.36
967.6163, 12245.12
968.0984, 12244.20
968.5805, 12247.81
969.0626, 12266.50
969.5447, 12276.06
970.0269, 12267.87
970.5090, 12250.75
970.9911, 12222.12
971.4732, 12191.24
971.9553, 12183.79
972.4374, 12210.48
972.9196, 12230.52
973.4017, 12239.95
973.8838, 12239.99
974.3659, 12217.33
974.8480, 12196.94
975.3301, 12209.99
975.8123, 12243.52
976.2944, 12254.31
976.7765, 12230.42
977.2586, 12201.02
977.7407, 12144.30
978.2228, 12117.87
978.7050, 12183.41
979.1871, 12263.17
979.6692, 12274.92
980.1513, 12231.06
980.6334, 12196.08
981.1155, 12184.81
981.5977, 12179.63
982.0798, 12171.94
982.5619, 12173.03
983.0440, 12203.44
983.5261, 12234.93
984.0082, 12233.96
984.4904, 12204.83
984.9725, 12173.74
985.4546, 12142.25
985.9367, 12125.00
986.4188, 12143.56
986.9009, 12159.34
987.3831, 12141.24
987.8652, 12113.64
988.3473, 12111.89
988.8294, 12130.28
989.3115, 12127.31
989.7936, 12075.53
990.2758, 12046.07
990.7579, 12102.37
991.2400, 12152.94
991.7221, 12121.99
992.2042, 12062.54
992.6863, 12041.95
993.1685, 12060.50
993.6506, 12077.38
994.1327, 12075.58
994.6148, 12081.30
995.0969, 12130.84
995.5790, 12165.36
996.0612, 12124.64
996.5433, 12058.07
997.0254, 12028.02
997.5075, 12036.21
997.9896, 12049.55
998.4717, 12057.16
998.9539, 12067.44
999.4360, 12093.33
999.9181, 12113.61
1000.400, 12109.18
1000.882, 12092.97
1001.364, 12083.43
1001.847, 12079.50
1002.329, 12063.49
1002.811, 12019.21
1003.293, 11994.11
1003.775, 12030.36
1004.257, 12071.80
1004.739, 12079.98
1005.221, 12070.30
1005.703, 12061.39
1006.186, 12055.94
1006.668, 12051.20
1007.150, 12046.02
1007.632, 12042.34
1008.114, 12033.03
1008.596, 12034.36
1009.078, 12076.13
1009.560, 12121.60
1010.043, 12115.98
1010.525, 12070.65
1011.007, 12049.34
1011.489, 12079.56
1011.971, 12104.76
1012.453, 12102.10
1012.935, 12085.54
1013.417, 12047.22
1013.899, 12011.60
1014.382, 12009.84
1014.864, 12035.65
1015.346, 12060.40
1015.828, 12078.15
1016.310, 12086.16
1016.792, 12085.40
1017.274, 12072.13
1017.756, 12025.53
1018.239, 11980.18
1018.721, 11972.60
1019.203, 11997.50
1019.685, 12033.14
1020.167, 12079.94
1020.649, 12109.25
1021.131, 12101.00
1021.613, 12086.65
1022.095, 12078.76
1022.578, 12073.11
1023.060, 12065.17
1023.542, 12055.84
1024.024, 12047.39
1024.506, 12039.33
1024.988, 12038.16
1025.470, 12052.04
1025.952, 12064.64
1026.435, 12076.57
1026.917, 12078.68
1027.399, 12049.54
1027.881, 12009.23
1028.363, 12007.57
1028.845, 12058.78
1029.327, 12079.38
1029.809, 12012.71
1030.292, 11971.30
1030.774, 12017.85
1031.256, 12066.45
1031.738, 12047.19
1032.220, 11993.97
1032.702, 11969.16
1033.184, 11978.56
1033.666, 11997.32
1034.148, 12042.81
1034.630, 12068.36
1035.113, 12050.73
1035.595, 12028.36
1036.077, 12032.35
1036.559, 12039.49
1037.041, 12001.72
1037.523, 11915.86
1038.005, 11885.50
1038.487, 11971.71
1038.970, 12015.25
1039.452, 11970.43
1039.934, 11929.50
1040.416, 11940.96
1040.898, 11969.73
1041.380, 11971.81
1041.862, 11950.50
1042.344, 11942.81
1042.826, 11952.55
1043.309, 11968.35
1043.791, 11995.95
1044.273, 12018.26
1044.755, 12028.68
1045.237, 12032.02
1045.719, 12033.28
1046.201, 12031.65
1046.683, 12021.92
1047.166, 11997.82
1047.648, 11988.40
1048.130, 12000.72
1048.612, 12005.63
1049.094, 11988.73
1049.576, 11977.49
1050.058, 11998.97
1050.540, 12038.14
1051.022, 12052.96
1051.505, 12040.47
1051.987, 12031.39
1052.469, 12024.59
1052.951, 12033.35
1053.433, 12066.19
1053.915, 12083.24
1054.397, 12054.29
1054.879, 12004.76
1055.361, 11979.72
1055.844, 11977.98
1056.326, 11985.20
1056.808, 12001.44
1057.290, 12028.37
1057.772, 12066.48
1058.254, 12098.98
1058.736, 12116.79
1059.218, 12127.74
1059.701, 12140.63
1060.183, 12156.08
1060.665, 12170.94
1061.147, 12189.33
1061.629, 12235.25
1062.111, 12309.86
1062.593, 12399.95
1063.075, 12499.91
1063.557, 12605.28
1064.040, 12713.37
1064.522, 12818.38
1065.004, 12896.27
1065.486, 12966.45
1065.968, 13071.15
1066.450, 13213.41
1066.932, 13383.40
1067.414, 13582.44
1067.896, 13831.51
1068.379, 14138.43
1068.861, 14523.13
1069.343, 15109.37
1069.825, 15710.03
1070.307, 16130.59
1070.789, 16334.65
1071.271, 16254.94
1071.753, 15914.57
1072.236, 15406.52
1072.718, 14742.29
1073.200, 14119.59
1073.682, 13655.45
1074.164, 13315.86
1074.646, 13127.04
1075.128, 13002.98
1075.610, 12830.79
1076.093, 12633.92
1076.575, 12505.34
1077.057, 12470.20
1077.539, 12470.49
1078.021, 12484.61
1078.503, 12524.37
1078.985, 12580.65
1079.467, 12678.69
1079.949, 12833.28
1080.432, 13045.82
1080.914, 13341.41
1081.396, 13714.30
1081.878, 14036.54
1082.360, 14244.17
1082.842, 14465.31
1083.324, 14698.49
1083.806, 14972.72
1084.288, 15281.80
1084.771, 15652.13
1085.253, 16080.02
1085.735, 16584.17
1086.217, 17257.91
1086.699, 18039.78
1087.181, 19150.92
1087.663, 20622.24
1088.145, 22412.65
1088.628, 24850.28
1089.110, 27020.21
1089.592, 28445.26
1090.074, 28917.33
1090.556, 27851.20
1091.038, 25188.84
1091.520, 22666.69
1092.002, 20253.57
1092.484, 18290.07
1092.967, 16849.18
1093.449, 15753.81
1093.931, 14924.62
1094.413, 14281.41
1094.895, 13723.86
1095.377, 13257.24
1095.859, 12922.54
1096.341, 12708.80
1096.823, 12537.96
1097.306, 12405.02
1097.788, 12342.75
1098.270, 12356.98
1098.752, 12368.67
1099.234, 12309.87
1099.716, 12237.46
1100.198, 12249.80
1100.680, 12306.08
1101.163, 12330.59
1101.645, 12325.35
1102.127, 12292.58
1102.609, 12244.14
1103.091, 12222.89
1103.573, 12250.75
1104.055, 12277.51
1104.537, 12248.55
1105.020, 12213.75
1105.502, 12230.05
1105.984, 12258.79
1106.466, 12241.57
1106.948, 12199.96
1107.430, 12194.49
1107.912, 12236.13
1108.394, 12274.24
1108.876, 12298.11
1109.359, 12299.78
1109.841, 12246.97
1110.323, 12203.90
1110.805, 12220.65
1111.287, 12262.11
1111.769, 12280.90
1112.251, 12281.63
1112.733, 12306.52
1113.215, 12385.38
1113.698, 12422.00
1114.180, 12377.55
1114.662, 12348.30
1115.144, 12359.91
1115.626, 12387.12
1116.108, 12419.68
1116.590, 12450.32
1117.072, 12466.42
1117.555, 12467.97
1118.037, 12449.63
1118.519, 12404.56
1119.001, 12377.45
1119.483, 12373.28
1119.965, 12392.15
1120.447, 12437.21
1120.929, 12484.72
1121.411, 12510.29
1121.894, 12519.78
1122.376, 12522.64
1122.858, 12522.33
1123.340, 12539.33
1123.822, 12571.44
1124.304, 12603.22
1124.786, 12631.03
1125.268, 12659.50
1125.750, 12691.33
1126.233, 12721.87
1126.715, 12743.96
1127.197, 12762.79
1127.679, 12780.37
1128.161, 12802.83
1128.643, 12848.84
1129.125, 12906.73
1129.607, 12940.66
1130.090, 12944.15
1130.572, 12953.70
1131.054, 12993.01
1131.536, 13033.23
1132.018, 13057.23
1132.500, 13079.59
1132.982, 13111.77
1133.464, 13147.11
1133.947, 13175.82
1134.429, 13199.74
1134.911, 13226.54
1135.393, 13249.73
1135.875, 13300.85
1136.357, 13420.18
1136.839, 13510.32
1137.321, 13537.87
1137.803, 13557.34
1138.286, 13599.27
1138.768, 13650.67
1139.250, 13687.75
1139.732, 13715.73
1140.214, 13794.26
1140.696, 13935.36
1141.178, 14032.18
1141.660, 14073.88
1142.142, 14114.11
1142.625, 14168.31
1143.107, 14250.47
1143.589, 14374.51
1144.071, 14517.62
1144.553, 14642.60
1145.035, 14753.83
1145.517, 14866.65
1145.999, 14976.25
1146.482, 15052.88
1146.964, 15108.97
1147.446, 15209.29
1147.928, 15376.22
1148.410, 15566.12
1148.892, 15756.72
1149.374, 15940.17
1149.856, 16099.77
1150.339, 16255.33
1150.821, 16423.51
1151.303, 16602.23
1151.785, 16790.07
1152.267, 16984.79
1152.749, 17181.96
1153.231, 17374.56
1153.713, 17590.75
1154.195, 17854.06
1154.677, 18121.00
1155.160, 18366.64
1155.642, 18626.42
1156.124, 18939.59
1156.606, 19265.34
1157.088, 19535.86
1157.570, 19758.20
1158.052, 20019.66
1158.534, 20333.76
1159.017, 20622.71
1159.499, 20878.04
1159.981, 21124.23
1160.463, 21366.94
1160.945, 21619.33
1161.427, 21895.90
1161.909, 22176.49
1162.391, 22434.46
1162.874, 22669.15
1163.356, 22884.27
1163.838, 23075.47
1164.320, 23207.90
1164.802, 23295.82
1165.284, 23413.75
1165.766, 23579.56
1166.248, 23718.75
1166.730, 23779.82
1167.213, 23803.33
1167.695, 23823.68
1168.177, 23820.40
1168.659, 23758.96
1169.141, 23674.66
1169.623, 23621.55
1170.105, 23583.82
1170.587, 23505.02
1171.069, 23373.71
1171.552, 23212.71
1172.034, 23003.97
1172.516, 22798.70
1172.998, 22618.55
1173.480, 22420.92
1173.962, 22172.04
1174.444, 21921.39
1174.926, 21725.53
1175.409, 21565.72
1175.891, 21385.99
1176.373, 21188.47
1176.855, 20925.05
1177.337, 20592.37
1177.819, 20314.01
1178.301, 20111.29
1178.783, 19914.97
1179.266, 19690.95
1179.748, 19454.18
1180.230, 19218.13
1180.712, 18988.58
1181.194, 18787.14
1181.676, 18592.82
1182.158, 18362.91
1182.640, 18117.59
1183.122, 17902.06
1183.604, 17719.73
1184.087, 17550.89
1184.569, 17391.03
1185.051, 17227.23
1185.533, 17052.02
1186.015, 16874.04
1186.497, 16682.18
1186.979, 16503.45
1187.461, 16373.63
1187.944, 16256.79
1188.426, 16087.52
1188.908, 15880.51
1189.390, 15738.24
1189.872, 15691.12
1190.354, 15594.12
1190.836, 15431.00
1191.318, 15287.93
1191.801, 15184.00
1192.283, 15105.38
1192.765, 15046.63
1193.247, 14994.54
1193.729, 14933.94
1194.211, 14864.88
1194.693, 14777.77
1195.175, 14684.97
1195.657, 14615.37
1196.140, 14570.41
1196.622, 14558.88
1197.104, 14570.84
1197.586, 14556.86
1198.068, 14491.78
1198.550, 14434.53
1199.032, 14419.62
1199.514, 14426.23
##END=



