##NAMES=Siderite
##RRUFFID=R050349
##IDEAL CHEMISTRY=Fe^2+^CO_3_
##LOCALITY=Litchfield County, Connecticut, USA
##OWNER=RRUFF
##SOURCE=California Institute of Technology
##DESCRIPTION=Grayish brown rhombohedral cleavage fragment
##STATUS=The identification of this mineral has been confirmed by X-ray diffraction and chemical analysis
##URL=rruff.info/R050349
##MEASURED CHEMISTRY=(Fe_0.83_Mg_0.09_Mn_0.05_Ca_0.01_)_Î£=0.98_CO_3_
91.87140, 0.0000000E+00
92.35352, 3.316938
92.83563, 3.054067
93.31775, 2.942143
93.79987, 3.063609
94.28198, 3.346964
94.76410, 3.577728
95.24622, 3.682606
95.72833, 3.744257
96.21045, 3.962946
96.69257, 4.349200
97.17468, 4.740582
97.65680, 4.922365
98.13892, 4.902073
98.62103, 5.034070
99.10315, 5.393287
99.58527, 5.974808
100.0674, 6.854270
100.5495, 8.181647
101.0316, 9.459665
101.5137, 9.917177
101.9958, 9.262660
102.4780, 8.828326
102.9601, 9.082105
103.4422, 10.13336
103.9243, 11.16342
104.4064, 12.21744
104.8885, 13.22770
105.3707, 14.06903
105.8528, 14.55919
106.3349, 15.12716
106.8170, 15.96531
107.2991, 17.39245
107.7813, 18.47953
108.2634, 19.03902
108.7455, 19.23504
109.2276, 19.59854
109.7097, 20.28524
110.1918, 21.03111
110.6740, 21.72794
111.1561, 22.30595
111.6382, 22.91023
112.1203, 23.49774
112.6024, 24.09753
113.0845, 24.85462
113.5667, 25.65843
114.0488, 26.69571
114.5309, 28.10429
115.0130, 30.56857
115.4951, 32.77784
115.9772, 34.13060
116.4594, 34.66305
116.9415, 35.48671
117.4236, 37.48784
117.9057, 39.84114
118.3878, 41.65578
118.8699, 42.19872
119.3521, 42.44138
119.8342, 42.86770
120.3163, 43.50264
120.7984, 44.38509
121.2805, 45.71721
121.7626, 47.30192
122.2448, 48.80230
122.7269, 50.30467
123.2090, 51.52838
123.6911, 52.05559
124.1732, 51.69921
124.6553, 51.24572
125.1375, 51.35766
125.6196, 51.95851
126.1017, 52.80605
126.5838, 53.93830
127.0659, 55.19538
127.5480, 56.27807
128.0302, 57.11125
128.5123, 57.84244
128.9944, 58.63048
129.4765, 59.47886
129.9586, 60.42008
130.4407, 61.57476
130.9229, 62.87088
131.4050, 64.01213
131.8871, 64.88174
132.3692, 65.76852
132.8513, 66.33652
133.3334, 67.01814
133.8156, 67.44428
134.2977, 67.71329
134.7798, 68.05751
135.2619, 68.39880
135.7440, 68.69198
136.2261, 68.96821
136.7083, 69.40852
137.1904, 70.02790
137.6725, 70.76348
138.1546, 71.64289
138.6367, 72.74276
139.1188, 73.59858
139.6010, 74.08394
140.0831, 74.20027
140.5652, 74.16076
141.0473, 73.85693
141.5294, 73.54456
142.0115, 73.59660
142.4937, 74.17748
142.9758, 74.71959
143.4579, 74.98888
143.9400, 74.84078
144.4221, 75.13090
144.9042, 76.06262
145.3864, 77.30552
145.8685, 78.26862
146.3506, 78.77850
146.8327, 79.25819
147.3148, 79.88134
147.7969, 80.83883
148.2791, 81.48880
148.7612, 81.49681
149.2433, 81.22793
149.7254, 81.53594
150.2075, 82.89620
150.6896, 84.41370
151.1718, 85.75804
151.6539, 86.82433
152.1360, 87.88089
152.6181, 88.93204
153.1002, 89.97836
153.5823, 91.01569
154.0645, 91.91573
154.5466, 92.90916
155.0287, 94.10094
155.5108, 95.66603
155.9929, 97.25183
156.4750, 98.77309
156.9572, 100.2585
157.4393, 101.7953
157.9214, 103.2302
158.4035, 104.8381
158.8856, 106.7927
159.3677, 109.6462
159.8499, 112.3444
160.3320, 114.3063
160.8141, 115.6977
161.2962, 117.5467
161.7783, 120.7944
162.2604, 124.3688
162.7426, 127.3858
163.2247, 128.7949
163.7068, 130.2863
164.1889, 132.6903
164.6710, 135.9424
165.1531, 139.3359
165.6353, 142.5689
166.1174, 145.7424
166.5995, 148.9653
167.0816, 152.1599
167.5637, 155.4993
168.0458, 159.1358
168.5280, 163.0379
169.0101, 167.0815
169.4922, 171.2895
169.9743, 175.5288
170.4564, 179.5876
170.9385, 183.2259
171.4207, 186.7387
171.9028, 190.4663
172.3849, 194.4191
172.8670, 198.2284
173.3491, 201.5378
173.8312, 204.5303
174.3134, 207.5685
174.7955, 210.6644
175.2776, 213.9305
175.7597, 217.5263
176.2418, 221.5134
176.7239, 225.6263
177.2061, 229.8175
177.6882, 234.0559
178.1703, 238.1714
178.6524, 242.0059
179.1345, 245.7397
179.6166, 249.7328
180.0988, 254.1266
180.5809, 258.3474
181.0630, 261.7316
181.5451, 264.4066
182.0272, 266.7357
182.5093, 269.0805
182.9915, 271.2418
183.4736, 272.6183
183.9557, 273.0933
184.4378, 273.1124
184.9199, 273.6477
185.4020, 274.4998
185.8842, 274.3061
186.3663, 272.3363
186.8484, 268.7073
187.3305, 263.8968
187.8126, 257.8803
188.2947, 250.7288
188.7769, 242.1733
189.2590, 232.2699
189.7411, 222.1828
190.2232, 212.4870
190.7053, 203.1416
191.1874, 193.6156
191.6696, 183.7160
192.1517, 173.7034
192.6338, 163.8045
193.1159, 153.9997
193.5980, 144.7786
194.0801, 136.5204
194.5623, 129.2137
195.0444, 122.1882
195.5265, 115.3679
196.0086, 108.9083
196.4907, 103.1576
196.9728, 98.13658
197.4550, 93.63051
197.9371, 89.62721
198.4192, 86.13325
198.9013, 82.64075
199.3834, 79.00809
199.8655, 75.46457
200.3477, 72.57613
200.8298, 70.43934
201.3119, 68.55847
201.7940, 66.61131
202.2761, 64.57790
202.7582, 62.69496
203.2404, 60.96379
203.7225, 59.40942
204.2046, 58.14198
204.6867, 57.21714
205.1688, 56.38427
205.6509, 55.48472
206.1331, 54.48735
206.6152, 53.60333
207.0973, 52.87223
207.5794, 52.25428
208.0615, 51.61605
208.5436, 50.92792
209.0258, 50.29448
209.5079, 49.81559
209.9900, 49.54260
210.4721, 49.17204
210.9542, 48.61344
211.4363, 47.96278
211.9185, 47.55271
212.4006, 47.42885
212.8827, 47.44550
213.3648, 47.54930
213.8469, 47.79281
214.3290, 47.92994
214.8112, 47.92041
215.2933, 47.79556
215.7754, 47.66289
216.2575, 47.52028
216.7396, 47.37249
217.2217, 47.23159
217.7039, 47.11954
218.1860, 46.92602
218.6681, 46.54390
219.1502, 46.09056
219.6323, 46.07253
220.1144, 46.76480
220.5966, 47.42213
221.0787, 47.57524
221.5608, 46.99909
222.0429, 46.52134
222.5250, 46.14664
223.0071, 45.90983
223.4893, 46.00268
223.9714, 46.65914
224.4535, 47.27904
224.9356, 47.51312
225.4177, 47.16007
225.8998, 46.89884
226.3820, 46.75470
226.8641, 46.72464
227.3462, 46.81973
227.8283, 47.11375
228.3104, 47.41903
228.7925, 47.64307
229.2747, 47.79044
229.7568, 47.83544
230.2389, 47.69678
230.7210, 47.46728
231.2031, 47.45948
231.6852, 47.77722
232.1674, 48.16130
232.6495, 48.48893
233.1316, 48.74481
233.6137, 48.97924
234.0958, 49.19871
234.5779, 49.39380
235.0601, 49.51741
235.5422, 49.47520
236.0243, 49.50094
236.5064, 49.73998
236.9885, 50.42965
237.4706, 50.78395
237.9528, 50.61533
238.4349, 50.15724
238.9170, 49.98838
239.3991, 50.17837
239.8812, 50.55412
240.3633, 51.09614
240.8455, 51.99462
241.3276, 52.56997
241.8097, 52.67112
242.2918, 52.49774
242.7739, 52.47271
243.2560, 52.60634
243.7382, 52.87310
244.2203, 53.28157
244.7024, 53.88896
245.1845, 54.48150
245.6666, 55.07703
246.1487, 55.64816
246.6309, 56.14093
247.1130, 56.48254
247.5951, 56.86624
248.0772, 57.35102
248.5593, 57.94398
249.0414, 58.63725
249.5236, 59.53644
250.0057, 60.46751
250.4878, 61.12368
250.9699, 61.29746
251.4520, 61.57033
251.9341, 62.17202
252.4163, 63.21336
252.8984, 64.03081
253.3805, 64.50687
253.8626, 64.85381
254.3447, 65.35598
254.8268, 66.02117
255.3090, 66.83688
255.7911, 67.78329
256.2732, 68.85665
256.7553, 70.14350
257.2374, 71.75117
257.7195, 73.47310
258.2017, 75.02373
258.6838, 76.26673
259.1659, 77.68286
259.6480, 79.44149
260.1301, 81.54024
260.6122, 83.59641
261.0944, 85.49397
261.5765, 87.50582
262.0586, 89.96800
262.5407, 93.01103
263.0228, 96.13205
263.5049, 99.23751
263.9871, 102.3487
264.4692, 105.2114
264.9513, 107.6025
265.4334, 110.1417
265.9155, 113.5406
266.3976, 117.9794
266.8798, 122.4650
267.3619, 126.7903
267.8440, 131.0086
268.3261, 135.2016
268.8082, 139.2916
269.2903, 143.4989
269.7725, 147.9362
270.2546, 152.5147
270.7367, 157.4685
271.2188, 162.8415
271.7009, 168.5564
272.1830, 174.4717
272.6652, 180.6009
273.1473, 186.7733
273.6294, 192.9489
274.1115, 199.1229
274.5936, 205.2096
275.0757, 211.0380
275.5579, 216.9397
276.0400, 223.8948
276.5221, 232.1658
277.0042, 240.4183
277.4863, 247.7071
277.9684, 253.9294
278.4506, 260.5865
278.9327, 267.8160
279.4148, 275.4804
279.8969, 283.4611
280.3790, 291.8457
280.8611, 299.9409
281.3433, 307.3153
281.8254, 314.0044
282.3075, 320.7723
282.7896, 327.9218
283.2717, 334.6491
283.7538, 339.6679
284.2360, 342.9570
284.7181, 345.1821
285.2002, 346.7280
285.6823, 347.5283
286.1644, 347.0106
286.6465, 345.2104
287.1287, 341.9924
287.6108, 336.7675
288.0929, 329.6216
288.5750, 322.1754
289.0571, 315.2407
289.5392, 308.4577
290.0214, 300.4871
290.5035, 291.3079
290.9856, 281.4510
291.4677, 271.2718
291.9498, 260.7922
292.4319, 250.4630
292.9141, 240.1803
293.3962, 230.1683
293.8783, 221.0741
294.3604, 212.9499
294.8425, 205.1067
295.3246, 196.7022
295.8068, 187.9676
296.2889, 179.8700
296.7710, 172.6597
297.2531, 166.0344
297.7352, 159.6472
298.2173, 153.5181
298.6995, 147.5570
299.1816, 141.5766
299.6637, 135.7600
300.1458, 130.6941
300.6279, 126.5543
301.1100, 122.9196
301.5922, 119.3462
302.0743, 115.8687
302.5564, 112.6450
303.0385, 109.8166
303.5206, 107.2639
304.0027, 104.7734
304.4849, 102.3478
304.9670, 99.95750
305.4491, 97.55157
305.9312, 95.18123
306.4133, 92.96876
306.8954, 91.01828
307.3776, 89.23048
307.8597, 87.57946
308.3418, 86.06006
308.8239, 84.54012
309.3060, 82.84370
309.7881, 81.07903
310.2703, 79.47108
310.7524, 78.14999
311.2345, 76.96595
311.7166, 75.82975
312.1987, 74.74036
312.6808, 73.74233
313.1630, 72.92577
313.6451, 72.17882
314.1272, 71.37320
314.6093, 70.38764
315.0914, 69.41759
315.5735, 68.58327
316.0557, 67.86346
316.5378, 67.14799
317.0199, 66.29302
317.5020, 65.48342
317.9841, 64.87208
318.4662, 64.76745
318.9484, 64.47210
319.4305, 63.54350
319.9126, 62.22949
320.3947, 61.18092
320.8768, 60.54450
321.3589, 60.25260
321.8411, 60.36509
322.3232, 61.17195
322.8053, 61.68004
323.2874, 61.55334
323.7695, 61.04017
324.2516, 60.53360
324.7338, 60.14564
325.2159, 59.72493
325.6980, 59.20127
326.1801, 58.53090
326.6622, 57.93433
327.1443, 57.46724
327.6265, 57.05935
328.1086, 56.63695
328.5907, 55.96977
329.0728, 55.55463
329.5549, 55.66078
330.0370, 56.29772
330.5192, 56.39544
331.0013, 55.41927
331.4834, 54.35845
331.9655, 53.91314
332.4476, 54.54889
332.9297, 55.00310
333.4119, 55.13230
333.8940, 54.99464
334.3761, 54.83409
334.8582, 54.65776
335.3403, 54.45219
335.8224, 54.19861
336.3046, 53.85878
336.7867, 53.58034
337.2688, 53.36585
337.7509, 53.21155
338.2330, 53.12772
338.7151, 53.15271
339.1973, 53.12946
339.6794, 52.98404
340.1615, 52.71237
340.6436, 52.41644
341.1257, 52.05381
341.6078, 51.76727
342.0900, 51.85992
342.5721, 52.37784
343.0542, 52.62729
343.5363, 52.29691
344.0184, 51.54476
344.5005, 51.03981
344.9827, 50.80042
345.4648, 50.70460
345.9469, 50.66757
346.4290, 50.68739
346.9111, 50.78850
347.3932, 51.06138
347.8754, 51.29965
348.3575, 50.93847
348.8396, 50.03831
349.3217, 49.28141
349.8038, 49.29652
350.2859, 49.79420
350.7681, 50.05753
351.2502, 49.97003
351.7323, 49.76523
352.2144, 49.65939
352.6965, 49.64719
353.1786, 49.71611
353.6608, 50.04624
354.1429, 50.36846
354.6250, 50.26521
355.1071, 49.70781
355.5892, 49.14170
356.0714, 48.91378
356.5535, 48.89880
357.0356, 48.91134
357.5177, 48.86280
357.9998, 48.83646
358.4819, 48.97306
358.9641, 49.22563
359.4462, 49.32473
359.9283, 48.91679
360.4104, 48.40813
360.8925, 48.15441
361.3746, 48.37225
361.8568, 48.61488
362.3389, 48.73472
362.8210, 48.74516
363.3031, 48.68069
363.7852, 48.49453
364.2673, 48.28130
364.7495, 48.05661
365.2316, 47.78148
365.7137, 47.64568
366.1958, 47.77867
366.6779, 48.03944
367.1600, 48.26347
367.6422, 48.49052
368.1243, 48.61952
368.6064, 48.61481
369.0885, 48.47063
369.5706, 48.28094
370.0527, 47.86255
370.5349, 47.53920
371.0170, 47.55006
371.4991, 48.27917
371.9812, 48.68551
372.4633, 48.60560
372.9454, 48.15802
373.4276, 47.73319
373.9097, 47.24439
374.3918, 46.92288
374.8739, 46.91350
375.3560, 47.29231
375.8381, 47.65148
376.3203, 48.01809
376.8024, 48.32480
377.2845, 48.44634
377.7666, 48.35528
378.2487, 48.21315
378.7308, 48.02450
379.2130, 47.81717
379.6951, 47.84671
380.1772, 48.15321
380.6593, 48.48954
381.1414, 48.61538
381.6235, 48.55031
382.1057, 48.49263
382.5878, 48.49934
383.0699, 48.51133
383.5520, 48.34678
384.0341, 48.03105
384.5162, 47.83609
384.9984, 48.02960
385.4805, 48.45470
385.9626, 48.81889
386.4447, 49.11695
386.9268, 49.22565
387.4089, 48.66314
387.8911, 47.80178
388.3732, 47.49353
388.8553, 48.79869
389.3374, 50.40136
389.8195, 50.93604
390.3016, 50.43628
390.7838, 49.82273
391.2659, 49.67951
391.7480, 49.71425
392.2301, 49.61577
392.7122, 49.18955
393.1943, 48.76784
393.6765, 48.51790
394.1586, 48.39914
394.6407, 48.29940
395.1228, 48.15140
395.6049, 48.03458
396.0870, 47.98637
396.5692, 48.01610
397.0513, 48.10193
397.5334, 48.30962
398.0155, 48.54938
398.4976, 48.70619
398.9797, 48.60019
399.4619, 48.59209
399.9440, 48.82575
400.4261, 49.29860
400.9082, 49.56700
401.3903, 49.53664
401.8724, 49.38993
402.3546, 49.20815
402.8367, 48.84798
403.3188, 48.79837
403.8009, 49.25996
404.2830, 49.97234
404.7651, 50.22151
405.2473, 49.83712
405.7294, 49.47342
406.2115, 49.47014
406.6936, 49.84608
407.1757, 49.86761
407.6578, 49.44378
408.1400, 48.91212
408.6221, 48.71174
409.1042, 48.83308
409.5863, 48.81499
410.0684, 48.47101
410.5505, 47.96149
411.0327, 47.66290
411.5148, 47.56911
411.9969, 47.51906
412.4790, 47.41386
412.9611, 47.26403
413.4432, 47.09125
413.9254, 46.89158
414.4075, 46.69004
414.8896, 46.51501
415.3717, 46.35846
415.8538, 46.20246
416.3359, 46.03154
416.8181, 45.86290
417.3002, 45.67523
417.7823, 45.47179
418.2644, 45.38911
418.7465, 45.63538
419.2286, 45.97709
419.7108, 46.18467
420.1929, 46.14814
420.6750, 46.03906
421.1571, 45.86193
421.6392, 45.65586
422.1213, 45.52779
422.6035, 45.67255
423.0856, 45.75874
423.5677, 45.57798
424.0498, 44.95778
424.5319, 44.64644
425.0140, 45.03185
425.4962, 45.59490
425.9783, 45.80724
426.4604, 45.40437
426.9425, 45.03408
427.4246, 44.75169
427.9067, 44.56460
428.3889, 44.57686
428.8710, 44.93711
429.3531, 45.23466
429.8352, 45.15510
430.3173, 44.55306
430.7994, 44.37390
431.2816, 44.77287
431.7637, 45.38938
432.2458, 45.61129
432.7279, 45.41541
433.2100, 45.20769
433.6921, 45.14979
434.1743, 45.18606
434.6564, 45.08233
435.1385, 44.83125
435.6206, 44.61161
436.1027, 44.55718
436.5848, 44.65281
437.0670, 44.89406
437.5491, 45.34432
438.0312, 45.78053
438.5133, 45.97150
438.9954, 45.94946
439.4775, 45.80262
439.9597, 45.35660
440.4418, 44.94646
440.9239, 44.94245
441.4060, 45.36627
441.8881, 45.79420
442.3702, 45.92953
442.8524, 45.97294
443.3345, 46.12206
443.8166, 46.59721
444.2987, 46.98736
444.7808, 47.12202
445.2629, 47.06912
445.7451, 47.02814
446.2272, 47.07658
446.7093, 47.11114
447.1914, 47.08864
447.6735, 46.98969
448.1556, 46.88288
448.6378, 46.65060
449.1199, 46.48977
449.6020, 46.64191
450.0841, 47.34761
450.5662, 47.84851
451.0483, 47.97521
451.5305, 47.81329
452.0126, 47.73694
452.4947, 47.75708
452.9768, 47.82704
453.4589, 47.89073
453.9410, 47.94578
454.4232, 48.22015
454.9053, 48.77555
455.3874, 49.37309
455.8695, 49.73884
456.3516, 49.88379
456.8337, 49.85730
457.3159, 49.51676
457.7980, 49.14763
458.2801, 49.38461
458.7622, 50.14479
459.2443, 50.85514
459.7264, 51.05114
460.2086, 50.98759
460.6907, 50.98695
461.1728, 51.10350
461.6549, 51.24999
462.1370, 51.43305
462.6191, 51.59064
463.1013, 51.62617
463.5834, 51.26301
464.0655, 50.99459
464.5476, 51.07380
465.0297, 51.47227
465.5118, 51.92650
465.9940, 52.60258
466.4761, 53.13491
466.9582, 53.29247
467.4403, 52.73677
467.9224, 52.38099
468.4045, 52.24660
468.8867, 52.31863
469.3688, 52.60094
469.8509, 53.21302
470.3330, 53.82204
470.8151, 54.42222
471.2972, 54.98547
471.7794, 55.15400
472.2615, 54.81162
472.7436, 54.39686
473.2257, 54.17403
473.7078, 54.14356
474.1899, 54.34993
474.6721, 54.86135
475.1542, 55.43272
475.6363, 55.62131
476.1184, 55.49677
476.6005, 55.51480
477.0826, 56.00148
477.5648, 56.65356
478.0469, 56.94041
478.5290, 56.89412
479.0111, 56.80584
479.4932, 56.83547
479.9753, 56.95792
480.4575, 57.15438
480.9396, 57.43682
481.4217, 57.74403
481.9038, 58.06245
482.3859, 58.37181
482.8680, 58.63781
483.3502, 58.90360
483.8323, 59.07047
484.3144, 59.02397
484.7965, 58.78688
485.2786, 58.68742
485.7607, 58.76752
486.2429, 59.00444
486.7250, 59.41056
487.2071, 60.14384
487.6892, 60.68933
488.1713, 60.95278
488.6534, 61.09460
489.1356, 61.35737
489.6177, 61.78779
490.0998, 62.22356
490.5819, 62.68354
491.0640, 63.12248
491.5461, 63.23135
492.0283, 62.96639
492.5104, 62.70919
492.9925, 62.76894
493.4746, 63.08076
493.9567, 63.30066
494.4388, 63.39955
494.9210, 63.44269
495.4031, 63.41352
495.8852, 63.38291
496.3673, 63.54318
496.8494, 64.14817
497.3315, 64.79594
497.8137, 65.12941
498.2958, 65.17994
498.7779, 65.06554
499.2600, 64.45846
499.7421, 63.97805
500.2242, 64.19933
500.7064, 65.41431
501.1885, 66.31838
501.6706, 66.32346
502.1527, 65.91167
502.6348, 65.56600
503.1169, 65.18642
503.5991, 65.07703
504.0812, 65.41703
504.5633, 66.06417
505.0454, 66.49882
505.5275, 66.65473
506.0096, 66.69890
506.4918, 66.68824
506.9739, 66.62181
507.4560, 66.49155
507.9381, 66.27423
508.4202, 66.05462
508.9023, 65.86572
509.3845, 65.71743
509.8666, 65.81837
510.3487, 66.27448
510.8308, 66.87299
511.3129, 67.35156
511.7950, 67.68961
512.2772, 67.78910
512.7593, 67.41978
513.2414, 66.87871
513.7235, 66.50785
514.2056, 66.31190
514.6877, 66.18761
515.1699, 66.03884
515.6520, 65.94642
516.1341, 66.01515
516.6162, 66.42358
517.0983, 66.68599
517.5804, 66.55978
518.0626, 66.20353
518.5447, 65.87773
519.0268, 65.54647
519.5089, 65.33363
519.9910, 65.31041
520.4731, 65.46120
520.9553, 65.56400
521.4374, 65.67473
521.9195, 65.65434
522.4016, 65.38247
522.8837, 64.79526
523.3658, 64.29884
523.8480, 63.88654
524.3301, 63.58805
524.8122, 63.54540
525.2943, 63.73377
525.7764, 63.69622
526.2585, 63.18200
526.7407, 62.52086
527.2228, 62.33414
527.7049, 62.56417
528.1870, 62.87312
528.6691, 63.21738
529.1512, 63.44758
529.6334, 63.34505
530.1155, 62.88585
530.5976, 62.34805
531.0797, 61.71754
531.5618, 61.16865
532.0439, 60.90076
532.5261, 61.29222
533.0082, 61.48821
533.4903, 61.14010
533.9724, 60.46189
534.4545, 59.90072
534.9366, 59.38896
535.4188, 59.13559
535.9009, 59.35094
536.3830, 60.01435
536.8651, 60.13288
537.3472, 59.48783
537.8293, 58.73312
538.3115, 58.31092
538.7936, 58.24711
539.2757, 58.18052
539.7578, 58.10494
540.2399, 57.99791
540.7220, 57.85164
541.2042, 57.65581
541.6863, 57.31776
542.1684, 56.67456
542.6505, 56.03035
543.1326, 55.94489
543.6147, 56.27510
544.0969, 56.47313
544.5790, 56.08530
545.0611, 55.51624
545.5432, 55.09971
546.0253, 54.87190
546.5074, 54.64150
546.9896, 54.26321
547.4717, 53.88842
547.9538, 53.64167
548.4359, 53.66454
548.9180, 53.65289
549.4001, 53.60389
549.8823, 53.50111
550.3644, 53.30222
550.8465, 52.92244
551.3286, 52.60923
551.8107, 52.46376
552.2928, 52.44683
552.7750, 52.24753
553.2571, 51.82811
553.7392, 51.40894
554.2213, 51.16810
554.7034, 51.06670
555.1855, 50.81340
555.6677, 50.36401
556.1498, 49.98805
556.6319, 50.17153
557.1140, 50.62120
557.5961, 50.69781
558.0782, 50.03698
558.5604, 49.25288
559.0425, 48.82453
559.5246, 48.65356
560.0067, 48.52650
560.4888, 48.42625
560.9709, 48.28875
561.4531, 48.05024
561.9352, 47.70977
562.4173, 47.45284
562.8994, 47.42294
563.3815, 47.38658
563.8636, 47.21954
564.3458, 46.86543
564.8279, 46.53267
565.3100, 46.21222
565.7921, 45.92052
566.2742, 45.66340
566.7563, 45.43025
567.2385, 45.33175
567.7206, 45.42312
568.2027, 45.62478
568.6848, 45.84862
569.1669, 46.06933
569.6490, 46.06854
570.1312, 45.45312
570.6133, 44.67139
571.0954, 44.49473
571.5775, 44.89328
572.0596, 45.20091
572.5417, 44.82847
573.0239, 44.27003
573.5060, 43.99514
573.9881, 44.23044
574.4702, 44.34464
574.9523, 44.00454
575.4344, 43.49298
575.9166, 43.17260
576.3987, 43.25291
576.8808, 43.26904
577.3629, 43.10078
577.8450, 42.84068
578.3271, 42.82854
578.8093, 43.16772
579.2914, 43.44640
579.7735, 43.48403
580.2556, 43.30578
580.7377, 43.07770
581.2198, 42.79301
581.7020, 42.53841
582.1841, 42.37562
582.6662, 42.29805
583.1483, 42.34701
583.6304, 42.57098
584.1125, 42.67615
584.5947, 42.22897
585.0768, 41.54217
585.5589, 41.07534
586.0410, 41.14225
586.5231, 41.28445
587.0052, 41.34269
587.4874, 41.33485
587.9695, 41.30729
588.4516, 41.29874
588.9337, 41.23936
589.4158, 41.05673
589.8979, 40.74910
590.3801, 40.67278
590.8622, 40.96824
591.3443, 41.24609
591.8264, 41.22036
592.3085, 40.86492
592.7906, 40.62476
593.2728, 40.53194
593.7549, 40.48317
594.2370, 40.26789
594.7191, 39.97212
595.2012, 39.97418
595.6833, 40.49793
596.1655, 41.08796
596.6476, 41.26138
597.1297, 41.11146
597.6118, 40.85938
598.0939, 40.49833
598.5760, 40.15825
599.0582, 39.89652
599.5403, 39.72026
600.0224, 39.62166
600.5045, 39.74232
600.9866, 39.81617
601.4688, 39.67908
601.9509, 39.22771
602.4330, 39.03971
602.9151, 39.23690
603.3972, 39.53076
603.8793, 39.64122
604.3615, 39.54243
604.8436, 39.55707
605.3257, 39.75298
605.8078, 40.00059
606.2899, 40.08528
606.7720, 40.03471
607.2542, 39.98373
607.7363, 40.04476
608.2184, 40.06412
608.7005, 39.77501
609.1826, 39.26802
609.6647, 38.86829
610.1469, 38.73479
610.6290, 38.75979
611.1111, 38.95719
611.5932, 39.33570
612.0753, 39.55080
612.5574, 39.36345
613.0396, 39.12868
613.5217, 39.06860
614.0038, 39.32725
614.4859, 39.35811
614.9680, 39.02395
615.4501, 38.64669
615.9323, 38.68916
616.4144, 39.18328
616.8965, 39.46572
617.3786, 39.37617
617.8607, 39.08415
618.3428, 38.84084
618.8250, 38.64191
619.3071, 38.46952
619.7892, 38.31038
620.2713, 38.17768
620.7534, 38.09081
621.2355, 38.04438
621.7177, 38.01600
622.1998, 37.97781
622.6819, 37.96932
623.1640, 38.04121
623.6461, 38.22216
624.1282, 38.30626
624.6104, 38.24109
625.0925, 38.10225
625.5746, 37.92103
626.0567, 37.64948
626.5388, 37.45539
627.0209, 37.32256
627.5031, 37.30196
627.9852, 37.57199
628.4673, 38.10580
628.9494, 38.37917
629.4315, 38.19213
629.9136, 37.82601
630.3958, 37.71691
630.8779, 37.79331
631.3600, 37.84333
631.8421, 37.76012
632.3242, 37.61525
632.8063, 37.43403
633.2885, 37.22975
633.7706, 37.05767
634.2527, 36.85402
634.7348, 36.75962
635.2169, 36.87859
635.6990, 37.25825
636.1812, 37.58594
636.6633, 37.95046
637.1454, 38.15081
637.6275, 37.92611
638.1096, 37.14626
638.5917, 36.91536
639.0739, 37.41969
639.5560, 38.07278
640.0381, 38.09009
640.5202, 37.59705
641.0023, 37.12623
641.4844, 36.76304
641.9666, 36.56565
642.4487, 36.69112
642.9308, 37.01872
643.4129, 37.28279
643.8950, 37.33074
644.3771, 37.33179
644.8593, 37.36862
645.3414, 37.43034
645.8235, 37.44983
646.3056, 37.27403
646.7877, 37.20873
647.2698, 37.41691
647.7520, 37.91758
648.2341, 38.11944
648.7162, 37.90528
649.1983, 37.71229
649.6804, 38.02412
650.1625, 38.74180
650.6447, 38.82779
651.1268, 38.17016
651.6089, 37.36211
652.0910, 36.93694
652.5731, 36.81337
653.0552, 36.88526
653.5374, 37.22987
654.0195, 37.51308
654.5016, 37.50755
654.9837, 37.31883
655.4658, 37.10292
655.9479, 36.76719
656.4301, 36.56324
656.9122, 36.57781
657.3943, 36.75775
657.8764, 37.00011
658.3585, 37.42813
658.8406, 37.61507
659.3228, 37.31768
659.8049, 36.67237
660.2870, 36.43758
660.7691, 36.62531
661.2512, 36.88518
661.7333, 36.99575
662.2155, 37.01895
662.6976, 37.09396
663.1797, 37.22158
663.6618, 37.27957
664.1439, 37.20208
664.6260, 37.00606
665.1082, 36.65839
665.5903, 36.06658
666.0724, 35.64473
666.5545, 35.60553
667.0366, 35.72069
667.5187, 35.78489
668.0009, 35.82875
668.4830, 35.73980
668.9651, 35.43337
669.4472, 35.08680
669.9293, 35.04481
670.4114, 35.31261
670.8936, 35.41388
671.3757, 35.15915
671.8578, 34.77072
672.3399, 34.60200
672.8220, 34.60987
673.3041, 34.64981
673.7863, 34.63722
674.2684, 34.63954
674.7505, 34.74888
675.2326, 34.93213
675.7147, 35.02340
676.1968, 34.86864
676.6790, 34.70644
677.1611, 34.62818
677.6432, 34.63250
678.1253, 34.74391
678.6074, 35.07627
679.0895, 35.30131
679.5717, 35.14736
680.0538, 34.61332
680.5359, 34.21947
681.0180, 33.98411
681.5001, 33.83123
681.9822, 33.71607
682.4644, 33.62598
682.9465, 33.50949
683.4286, 33.32055
683.9107, 33.25565
684.3928, 33.63152
684.8749, 34.14032
685.3571, 34.41517
685.8392, 34.25335
686.3213, 33.99082
686.8034, 33.48943
687.2855, 32.97617
687.7676, 32.85801
688.2498, 33.35493
688.7319, 33.68357
689.2140, 33.64998
689.6961, 33.38144
690.1782, 33.18083
690.6603, 33.04929
691.1425, 33.00801
691.6246, 33.10623
692.1067, 33.27536
692.5888, 33.41722
693.0709, 33.53596
693.5530, 33.65049
694.0352, 33.86142
694.5173, 33.99488
694.9994, 33.82308
695.4815, 33.32204
695.9636, 33.16828
696.4457, 33.81378
696.9279, 34.48372
697.4100, 34.80434
697.8921, 34.70798
698.3742, 34.72704
698.8563, 34.89608
699.3384, 35.07395
699.8206, 35.10411
700.3027, 35.02632
700.7848, 35.02377
701.2669, 35.11567
701.7490, 35.28178
702.2311, 35.53292
702.7133, 35.83590
703.1954, 36.16193
703.6775, 36.57469
704.1596, 36.85932
704.6417, 36.72711
705.1238, 36.49327
705.6060, 36.60781
706.0881, 37.27857
706.5702, 37.98897
707.0523, 38.72817
707.5344, 39.45811
708.0165, 40.09416
708.4987, 40.63279
708.9808, 41.08778
709.4629, 41.41790
709.9450, 41.72109
710.4271, 42.12960
710.9092, 42.65782
711.3914, 43.37591
711.8735, 44.47581
712.3556, 45.63558
712.8377, 46.61035
713.3198, 47.44410
713.8019, 48.34486
714.2841, 49.43782
714.7662, 50.55339
715.2483, 51.59320
715.7304, 52.56392
716.2125, 53.69591
716.6946, 55.02770
717.1768, 56.43684
717.6589, 57.86213
718.1410, 59.30867
718.6231, 60.68226
719.1052, 61.99660
719.5873, 63.37312
720.0695, 65.06944
720.5516, 66.84171
721.0337, 68.36037
721.5158, 69.54520
721.9979, 70.77799
722.4800, 72.19982
722.9622, 73.78111
723.4443, 75.56359
723.9264, 77.94941
724.4085, 79.60442
724.8906, 80.21848
725.3727, 80.48591
725.8549, 81.14756
726.3370, 82.24973
726.8191, 83.09942
727.3012, 83.57350
727.7833, 83.90273
728.2654, 84.48083
728.7476, 85.13088
729.2297, 85.42142
729.7118, 85.16826
730.1939, 84.66015
730.6760, 84.14343
731.1581, 83.48757
731.6403, 82.48417
732.1224, 80.59942
732.6045, 78.97411
733.0866, 77.90071
733.5687, 77.13894
734.0508, 76.19448
734.5330, 75.03819
735.0151, 73.79663
735.4972, 72.45908
735.9793, 71.09274
736.4614, 69.86893
736.9435, 68.76301
737.4257, 67.64795
737.9078, 66.42767
738.3899, 65.19016
738.8720, 64.05737
739.3541, 62.98973
739.8362, 61.86470
740.3184, 60.44182
740.8005, 59.14875
741.2826, 58.21407
741.7647, 57.58587
742.2468, 56.93127
742.7289, 56.34480
743.2111, 55.49583
743.6932, 54.12178
744.1753, 52.34193
744.6574, 50.81623
745.1395, 49.55412
745.6216, 48.44379
746.1038, 47.54866
746.5859, 46.69734
747.0680, 45.67676
747.5501, 44.47902
748.0322, 43.28204
748.5143, 42.06927
748.9965, 40.96099
749.4786, 40.04317
749.9607, 39.35104
750.4428, 38.64333
750.9249, 37.84273
751.4070, 37.13754
751.8892, 36.78335
752.3713, 36.76530
752.8534, 36.25068
753.3355, 35.16780
753.8176, 34.02399
754.2997, 33.28157
754.7819, 32.79469
755.2640, 32.33565
755.7461, 31.87078
756.2282, 31.45725
756.7103, 31.20214
757.1924, 30.97050
757.6746, 30.64856
758.1567, 30.18854
758.6388, 29.69275
759.1209, 29.09667
759.6030, 28.53588
760.0851, 28.16086
760.5673, 27.97321
761.0494, 27.84346
761.5315, 27.77539
762.0136, 27.68362
762.4957, 27.44164
762.9778, 27.10825
763.4600, 26.78144
763.9421, 26.46896
764.4242, 26.21704
764.9063, 26.09082
765.3884, 26.02362
765.8705, 25.93420
766.3527, 25.81837
766.8348, 25.66731
767.3169, 25.46776
767.7990, 25.24305
768.2811, 24.95055
768.7632, 24.57116
769.2454, 24.59714
769.7275, 25.26611
770.2096, 26.02510
770.6917, 26.02875
771.1738, 25.52598
771.6559, 25.05763
772.1381, 24.81398
772.6202, 24.66043
773.1023, 24.55354
773.5844, 24.48431
774.0665, 24.43911
774.5486, 24.42726
775.0308, 24.42426
775.5129, 24.43537
775.9950, 24.44849
776.4771, 24.45241
776.9592, 24.44958
777.4413, 24.36536
777.9235, 24.15670
778.4056, 23.88978
778.8877, 23.61404
779.3698, 23.36072
779.8519, 23.20965
780.3340, 23.26822
780.8162, 23.36544
781.2983, 23.46432
781.7804, 23.54168
782.2625, 23.52580
782.7446, 23.30129
783.2267, 23.18300
783.7089, 23.30200
784.1910, 23.52988
784.6731, 23.42925
785.1552, 23.00388
785.6373, 22.71820
786.1194, 22.80212
786.6016, 23.07390
787.0837, 23.35528
787.5658, 23.61180
788.0479, 23.74412
788.5300, 23.62533
789.0121, 23.45096
789.4943, 23.26503
789.9764, 23.08759
790.4585, 22.97914
790.9406, 22.91614
791.4227, 22.98695
791.9048, 23.29797
792.3870, 23.71507
792.8691, 23.73913
793.3512, 23.39775
793.8333, 23.11331
794.3154, 23.12930
794.7975, 23.26886
795.2797, 23.36174
795.7618, 23.40451
796.2439, 23.38203
796.7260, 23.22267
797.2081, 23.06663
797.6902, 22.97928
798.1724, 22.94250
798.6545, 22.87577
799.1366, 22.75495
799.6187, 22.67099
800.1008, 22.66018
800.5829, 22.70280
801.0651, 22.76170
801.5472, 22.82881
802.0293, 22.85311
802.5114, 22.76156
802.9935, 22.64991
803.4756, 22.56791
803.9578, 22.53366
804.4399, 22.60771
804.9220, 23.09362
805.4041, 23.36026
805.8862, 23.08851
806.3683, 22.45748
806.8505, 22.27025
807.3326, 22.63747
807.8147, 22.88808
808.2968, 22.65424
808.7789, 22.24043
809.2610, 22.47429
809.7432, 23.18124
810.2253, 23.64923
810.7074, 23.23059
811.1895, 22.70852
811.6716, 22.62023
812.1537, 22.85028
812.6359, 22.94309
813.1180, 22.69599
813.6001, 22.49097
814.0822, 22.42300
814.5643, 22.45534
815.0464, 22.44970
815.5286, 22.40470
816.0107, 22.39807
816.4928, 22.48678
816.9749, 22.60565
817.4570, 22.60511
817.9391, 22.54749
818.4213, 22.61272
818.9034, 23.13319
819.3855, 23.52966
819.8676, 23.48498
820.3497, 23.11334
820.8318, 22.83057
821.3140, 22.68316
821.7961, 22.50986
822.2782, 22.22626
822.7603, 21.93574
823.2424, 21.91499
823.7245, 22.12934
824.2067, 22.35840
824.6888, 22.55447
825.1709, 22.67836
825.6530, 22.67810
826.1351, 22.58123
826.6172, 22.45072
827.0994, 22.15934
827.5815, 22.02046
828.0636, 22.15046
828.5457, 22.43676
829.0278, 22.67336
829.5099, 22.86990
829.9921, 22.92926
830.4742, 22.79302
830.9563, 22.57730
831.4384, 22.46175
831.9205, 22.41595
832.4026, 22.35951
832.8848, 22.23834
833.3669, 22.13389
833.8490, 22.05727
834.3311, 22.03191
834.8132, 22.10871
835.2953, 22.36042
835.7775, 22.57603
836.2596, 22.75470
836.7417, 22.85904
837.2238, 22.74593
837.7059, 22.45483
838.1880, 22.39799
838.6702, 22.74117
839.1523, 23.10947
839.6344, 23.07670
840.1165, 22.84049
840.5986, 22.68026
841.0807, 22.69408
841.5629, 22.75445
842.0450, 22.88052
842.5271, 23.01142
843.0092, 23.08867
843.4913, 23.11009
843.9734, 23.08405
844.4556, 23.00409
844.9377, 22.90409
845.4198, 22.78175
845.9019, 22.67798
846.3840, 22.70670
846.8661, 22.92708
847.3483, 23.09491
847.8304, 23.07202
848.3125, 22.93438
848.7946, 22.70902
849.2767, 22.22798
849.7589, 22.18432
850.2410, 22.80102
850.7231, 23.43295
851.2052, 23.41193
851.6873, 22.85619
852.1694, 22.54272
852.6516, 22.52374
853.1337, 22.62963
853.6158, 22.80082
854.0979, 22.97637
854.5800, 23.09274
855.0621, 23.13559
855.5443, 23.18151
856.0264, 23.33675
856.5085, 23.39512
856.9906, 23.16007
857.4727, 22.63124
857.9548, 22.65681
858.4370, 23.29009
858.9191, 23.90498
859.4012, 23.98312
859.8833, 23.80569
860.3654, 23.80089
860.8475, 23.96894
861.3297, 24.17508
861.8118, 24.45306
862.2939, 24.66542
862.7760, 24.72021
863.2581, 24.63871
863.7402, 24.55295
864.2224, 24.45375
864.7045, 24.39027
865.1866, 24.43264
865.6687, 24.49057
866.1508, 24.23679
866.6329, 23.75810
867.1151, 23.43986
867.5972, 23.64831
868.0793, 23.91749
868.5614, 23.97501
869.0435, 23.87140
869.5256, 23.77241
870.0078, 23.73445
870.4899, 23.62406
870.9720, 23.38681
871.4541, 23.09155
871.9362, 22.91187
872.4183, 22.82808
872.9005, 22.66717
873.3826, 22.31976
873.8647, 21.99636
874.3468, 21.90392
874.8289, 21.96856
875.3110, 22.08088
875.7932, 22.34523
876.2753, 22.45987
876.7574, 22.30680
877.2395, 22.08762
877.7216, 22.08273
878.2037, 22.31346
878.6859, 22.35343
879.1680, 22.12672
879.6501, 21.83619
880.1322, 21.66053
880.6143, 21.57787
881.0964, 21.55587
881.5786, 21.58637
882.0607, 21.68858
882.5428, 22.00152
883.0249, 22.28251
883.5070, 22.35380
883.9891, 22.17676
884.4713, 22.02711
884.9534, 21.90964
885.4355, 21.80084
885.9176, 21.66609
886.3997, 21.53160
886.8818, 21.46213
887.3640, 21.45515
887.8461, 21.45469
888.3282, 21.33593
888.8103, 21.29997
889.2924, 21.55152
889.7745, 22.05802
890.2567, 22.30429
890.7388, 22.23901
891.2209, 22.05525
891.7030, 21.78518
892.1851, 21.48352
892.6672, 21.25037
893.1494, 21.09878
893.6315, 21.08684
894.1136, 21.47002
894.5957, 21.77294
895.0778, 21.61607
895.5599, 21.18076
896.0421, 20.94007
896.5242, 20.96907
897.0063, 21.09100
897.4884, 21.31561
897.9705, 21.56519
898.4526, 21.71198
898.9348, 21.75841
899.4169, 21.69007
899.8990, 21.45214
900.3811, 21.25562
900.8632, 21.33019
901.3453, 21.50939
901.8275, 21.59445
902.3096, 21.39155
902.7917, 21.41399
903.2738, 21.83988
903.7559, 22.23131
904.2380, 22.10176
904.7202, 21.52115
905.2023, 21.14587
905.6844, 21.01805
906.1665, 21.09359
906.6486, 21.56725
907.1307, 22.07209
907.6129, 22.23015
908.0950, 21.98400
908.5771, 21.80634
909.0592, 21.79920
909.5413, 21.82216
910.0234, 21.82773
910.5056, 21.81609
910.9877, 21.78250
911.4698, 21.72808
911.9519, 21.67249
912.4340, 21.63154
912.9161, 21.59061
913.3983, 21.49274
913.8804, 21.38165
914.3625, 21.38053
914.8446, 21.67470
915.3267, 21.89147
915.8088, 21.97947
916.2910, 21.94674
916.7731, 21.74418
917.2552, 21.37838
917.7373, 21.18279
918.2194, 21.26417
918.7015, 21.43218
919.1837, 21.50051
919.6658, 21.51764
920.1479, 21.53425
920.6300, 21.48139
921.1121, 21.62459
921.5942, 22.14801
922.0764, 22.71077
922.5585, 23.06434
923.0406, 23.20688
923.5227, 23.17355
924.0048, 22.95899
924.4869, 22.66355
924.9691, 22.22686
925.4512, 21.83917
925.9333, 21.77892
926.4154, 22.04305
926.8975, 22.25591
927.3796, 22.28477
927.8618, 22.27532
928.3439, 22.27947
928.8260, 22.28439
929.3081, 22.19389
929.7902, 22.01036
930.2723, 21.89971
930.7545, 22.00530
931.2366, 22.13866
931.7187, 21.99607
932.2008, 21.72787
932.6829, 21.64254
933.1650, 22.02135
933.6472, 22.34164
934.1293, 22.54208
934.6114, 22.64541
935.0935, 22.67286
935.5756, 22.62492
936.0577, 22.51278
936.5399, 22.32978
937.0220, 22.14791
937.5041, 21.99310
937.9862, 21.90591
938.4683, 21.98200
938.9504, 22.29818
939.4326, 22.43644
939.9147, 22.21820
940.3968, 21.94993
940.8789, 21.73643
941.3610, 21.59322
941.8431, 21.80798
942.3253, 22.36598
942.8074, 22.79644
943.2895, 22.68631
943.7716, 22.40052
944.2537, 22.20458
944.7358, 22.10916
945.2180, 22.12277
945.7001, 22.39528
946.1822, 22.56556
946.6643, 22.53504
947.1464, 22.40514
947.6285, 22.40631
948.1107, 22.51679
948.5928, 22.54800
949.0749, 22.40746
949.5570, 22.32534
950.0391, 22.69844
950.5212, 23.14820
951.0034, 23.18995
951.4855, 22.36806
951.9676, 22.06973
952.4497, 22.56918
952.9318, 23.14165
953.4139, 23.14690
953.8961, 22.70933
954.3782, 22.59091
954.8603, 22.78886
955.3424, 22.99587
955.8245, 22.91426
956.3066, 22.84941
956.7888, 23.14061
957.2709, 23.70836
957.7530, 23.85828
958.2351, 23.36707
958.7172, 22.93612
959.1993, 22.73270
959.6815, 22.72457
960.1636, 22.94208
960.6457, 23.30410
961.1278, 23.54456
961.6099, 23.54323
962.0920, 23.46957
962.5742, 23.31087
963.0563, 23.19113
963.5384, 23.28090
964.0205, 23.74796
964.5026, 23.90204
964.9847, 23.66035
965.4669, 23.38046
965.9490, 23.40054
966.4311, 23.61785
966.9132, 23.88262
967.3953, 24.16726
967.8774, 24.29782
968.3596, 24.01318
968.8417, 23.72450
969.3238, 23.65152
969.8059, 23.74393
970.2880, 23.76772
970.7701, 23.71268
971.2523, 23.67322
971.7344, 23.67377
972.2165, 23.71780
972.6986, 23.84075
973.1807, 24.00540
973.6628, 24.13718
974.1450, 24.17814
974.6271, 24.24910
975.1092, 24.45518
975.5913, 24.62592
976.0734, 24.55843
976.5555, 24.24556
977.0377, 24.10081
977.5198, 24.15163
978.0019, 24.25426
978.4840, 24.33514
978.9661, 24.38056
979.4482, 24.34670
979.9304, 24.24059
980.4125, 24.21090
980.8946, 24.31566
981.3767, 24.44615
981.8588, 24.59994
982.3409, 24.73773
982.8231, 24.68828
983.3052, 24.50055
983.7873, 24.42935
984.2694, 24.56244
984.7515, 24.84405
985.2336, 25.42426
985.7158, 26.04662
986.1979, 26.35754
986.6800, 26.22741
987.1621, 26.02776
987.6442, 25.70660
988.1263, 25.46224
988.6085, 25.54689
989.0906, 25.82984
989.5727, 26.01040
990.0548, 26.07527
990.5369, 26.06144
991.0190, 25.90980
991.5012, 25.76304
991.9833, 25.66868
992.4654, 25.63465
992.9475, 25.71429
993.4296, 25.92151
993.9117, 26.08722
994.3939, 26.11065
994.8760, 26.18431
995.3581, 26.76410
995.8402, 27.50552
996.3223, 27.83748
996.8044, 27.34066
997.2866, 27.03706
997.7687, 27.13860
998.2508, 27.39175
998.7329, 27.65289
999.2150, 27.91531
999.6971, 28.04664
1000.179, 28.04832
1000.661, 28.04604
1001.143, 28.13850
1001.626, 28.25023
1002.108, 28.34423
1002.590, 28.40984
1003.072, 28.40506
1003.554, 28.28056
1004.036, 28.20441
1004.518, 28.21108
1005.000, 28.28144
1005.483, 28.38813
1005.965, 28.53199
1006.447, 28.74521
1006.929, 29.08683
1007.411, 29.28472
1007.893, 29.00023
1008.375, 28.68917
1008.857, 28.70218
1009.339, 29.06687
1009.822, 29.37444
1010.304, 29.61736
1010.786, 29.87527
1011.268, 30.28515
1011.750, 30.66996
1012.232, 30.70600
1012.714, 30.52411
1013.196, 30.50420
1013.679, 30.93122
1014.161, 31.30449
1014.643, 31.54284
1015.125, 31.70071
1015.607, 31.80957
1016.089, 31.89228
1016.571, 32.12595
1017.053, 32.54913
1017.535, 32.96669
1018.018, 33.37203
1018.500, 33.60226
1018.982, 33.36610
1019.464, 32.64096
1019.946, 32.55761
1020.428, 33.29805
1020.910, 34.00760
1021.392, 34.27771
1021.875, 34.34212
1022.357, 34.63234
1022.839, 35.07642
1023.321, 35.50625
1023.803, 35.89611
1024.285, 36.20614
1024.767, 36.24172
1025.249, 36.35091
1025.731, 36.96872
1026.214, 38.10573
1026.696, 38.85080
1027.178, 39.15789
1027.660, 39.31282
1028.142, 39.44303
1028.624, 39.60332
1029.106, 39.76390
1029.588, 39.96945
1030.071, 40.54038
1030.553, 41.67568
1031.035, 42.72982
1031.517, 43.56150
1031.999, 44.21420
1032.481, 44.69991
1032.963, 45.08979
1033.445, 45.59109
1033.927, 46.30729
1034.410, 46.95041
1034.892, 47.27575
1035.374, 47.57495
1035.856, 48.04575
1036.338, 48.69341
1036.820, 49.27599
1037.302, 49.77875
1037.784, 50.49955
1038.266, 51.90243
1038.749, 53.36546
1039.231, 54.15670
1039.713, 54.51574
1040.195, 55.00174
1040.677, 55.80429
1041.159, 56.58073
1041.641, 57.29620
1042.123, 58.00659
1042.605, 58.75682
1043.088, 59.56534
1043.570, 60.47548
1044.052, 61.49186
1044.534, 62.55284
1045.016, 63.63350
1045.498, 64.74222
1045.980, 65.86349
1046.462, 67.00755
1046.945, 68.27126
1047.427, 69.67420
1047.909, 70.87510
1048.391, 71.58434
1048.873, 72.43443
1049.355, 74.31691
1049.837, 76.67730
1050.319, 78.78394
1050.802, 80.41912
1051.284, 81.89877
1051.766, 83.04765
1052.248, 84.40891
1052.730, 86.53480
1053.212, 89.13477
1053.694, 91.20829
1054.176, 92.88142
1054.658, 94.75337
1055.141, 97.34299
1055.623, 99.91998
1056.105, 102.1362
1056.587, 104.2568
1057.069, 106.6693
1057.551, 109.3774
1058.033, 112.2417
1058.515, 115.2628
1058.998, 118.3726
1059.480, 121.4342
1059.962, 124.6549
1060.444, 128.2495
1060.926, 132.2208
1061.408, 136.4529
1061.890, 141.0976
1062.372, 145.5011
1062.854, 149.1400
1063.337, 152.8133
1063.819, 158.2648
1064.301, 164.8214
1064.783, 170.9321
1065.265, 175.9111
1065.747, 181.0252
1066.229, 186.2645
1066.711, 192.2264
1067.193, 199.4541
1067.676, 207.3407
1068.158, 216.7085
1068.640, 226.0849
1069.122, 236.4794
1069.604, 248.2634
1070.086, 261.2333
1070.568, 275.1954
1071.050, 290.6052
1071.532, 308.0114
1072.015, 327.6041
1072.497, 348.7677
1072.979, 371.5753
1073.461, 396.2567
1073.943, 422.7686
1074.425, 451.4518
1074.907, 483.5568
1075.389, 518.8280
1075.872, 555.4362
1076.354, 592.4625
1076.836, 631.0460
1077.318, 671.3898
1077.800, 713.0447
1078.282, 755.9108
1078.764, 800.3976
1079.246, 848.5659
1079.729, 901.7625
1080.211, 957.4406
1080.693, 1013.746
1081.175, 1072.913
1081.657, 1135.261
1082.139, 1200.968
1082.621, 1269.816
1083.103, 1342.435
1083.585, 1412.812
1084.068, 1480.235
1084.550, 1541.681
1085.032, 1597.721
1085.514, 1644.430
1085.996, 1672.249
1086.478, 1679.690
1086.960, 1671.290
1087.442, 1647.187
1087.925, 1607.282
1088.407, 1547.707
1088.889, 1474.013
1089.371, 1393.432
1089.853, 1306.927
1090.335, 1217.557
1090.817, 1122.587
1091.299, 1029.607
1091.781, 939.0695
1092.264, 852.4987
1092.746, 774.0468
1093.228, 702.9163
1093.710, 636.8788
1094.192, 575.4926
1094.674, 519.6964
1095.156, 470.8551
1095.638, 427.1434
1096.120, 387.8169
1096.603, 352.7252
1097.085, 321.6789
1097.567, 294.7278
1098.049, 270.6190
1098.531, 249.0248
1099.013, 229.7445
1099.495, 212.5158
1099.977, 197.2216
1100.459, 183.5325
1100.942, 171.7896
1101.424, 160.9028
1101.906, 150.8392
1102.388, 141.6659
1102.870, 133.3200
1103.352, 125.8197
1103.834, 119.3405
1104.316, 113.6531
1104.799, 108.3022
1105.281, 103.0777
1105.763, 98.17869
1106.245, 93.63213
1106.727, 89.42254
1107.209, 85.64896
1107.691, 82.26257
1108.173, 79.38570
1108.656, 76.96663
1109.138, 74.58484
1109.620, 71.76347
1110.102, 69.15247
1110.584, 67.04955
1111.066, 65.33601
1111.548, 63.79692
1112.030, 62.41499
1112.512, 60.91532
1112.995, 59.21501
1113.477, 57.51744
1113.959, 55.91112
1114.441, 54.44545
1114.923, 53.17586
1115.405, 52.10130
1115.887, 51.19466
1116.369, 50.49096
1116.852, 49.70326
1117.334, 48.68984
1117.816, 47.62818
1118.298, 46.67245
1118.780, 45.85657
1119.262, 45.25593
1119.744, 44.99345
1120.226, 44.63879
1120.708, 44.19576
1121.191, 43.61697
1121.673, 42.79100
1122.155, 41.85281
1122.637, 41.03557
1123.119, 40.35732
1123.601, 39.86790
1124.083, 39.78875
1124.565, 39.61728
1125.047, 39.24309
1125.530, 38.79916
1126.012, 38.36572
1126.494, 37.96006
1126.976, 37.73840
1127.458, 37.67449
1127.940, 37.51453
1128.422, 37.05169
1128.904, 36.52626
1129.386, 35.95586
1129.869, 35.43904
1130.351, 35.16215
1130.833, 35.12116
1131.315, 35.11101
1131.797, 35.11269
1132.279, 35.05598
1132.761, 34.84666
1133.243, 34.59277
1133.726, 34.35889
1134.208, 34.15064
1134.690, 33.97160
1135.172, 33.82603
1135.654, 33.67408
1136.136, 33.50456
1136.618, 33.32717
1137.100, 33.08209
1137.583, 32.87832
1138.065, 32.86784
1138.547, 33.10508
1139.029, 33.25954
1139.511, 33.33681
1139.993, 33.29132
1140.475, 33.05286
1140.957, 32.76699
1141.439, 32.71983
1141.922, 32.77111
1142.404, 32.65809
1142.886, 32.20140
1143.368, 31.91268
1143.850, 31.91453
1144.332, 31.89999
1144.814, 31.58484
1145.296, 31.16841
1145.779, 31.23453
1146.261, 31.64346
1146.743, 31.98907
1147.225, 32.15820
1147.707, 32.15892
1148.189, 31.93423
1148.671, 31.64867
1149.153, 31.43845
1149.635, 31.29304
1150.118, 31.14799
1150.600, 31.00927
1151.082, 30.92539
1151.564, 30.97931
1152.046, 31.02198
1152.528, 31.01129
1153.010, 30.95311
1153.492, 30.77143
1153.974, 30.50197
1154.457, 30.67511
1154.939, 31.32712
1155.421, 31.81082
1155.903, 31.52033
1156.385, 31.09900
1156.867, 30.96542
1157.349, 30.97079
1157.831, 30.69209
1158.313, 30.11972
1158.796, 29.91200
1159.278, 30.20813
1159.760, 30.61566
1160.242, 30.87984
1160.724, 31.05433
1161.206, 31.16625
1161.688, 31.22370
1162.170, 31.24301
1162.653, 31.21692
1163.135, 31.23643
1163.617, 31.33815
1164.099, 31.45648
1164.581, 31.61546
1165.063, 31.69701
1165.545, 31.47714
1166.027, 30.88728
1166.510, 30.76950
1166.992, 31.20695
1167.474, 31.66192
1167.956, 31.97644
1168.438, 32.09744
1168.920, 31.82025
1169.402, 31.36922
1169.884, 31.05474
1170.366, 30.95201
1170.849, 30.98476
1171.331, 31.20972
1171.813, 31.37068
1172.295, 31.29172
1172.777, 31.09323
1173.259, 30.85317
1173.741, 30.66810
1174.223, 30.74130
1174.706, 31.44107
1175.188, 31.82288
1175.670, 31.77750
1176.152, 31.67926
1176.634, 31.91748
1177.116, 31.74765
1177.598, 32.09888
1178.080, 31.62098
1178.563, 31.26583
1179.045, 31.21569
1179.527, 31.25973
1180.009, 31.41913
1180.491, 31.58507
1180.973, 31.64363
1181.455, 31.63562
1181.937, 31.60947
1182.419, 31.59229
1182.901, 31.69612
1183.384, 32.18182
1183.866, 32.47636
1184.348, 32.45583
1184.830, 32.27872
1185.312, 32.06843
1185.794, 31.87531
1186.276, 31.82130
1186.758, 31.91599
1187.240, 32.15492
1187.723, 32.93600
1188.205, 33.28156
1188.687, 32.79741
1189.169, 32.00117
1189.651, 31.75426
1190.133, 31.90154
1190.615, 31.95989
1191.097, 31.86540
1191.580, 31.86688
1192.062, 32.26038
1192.544, 32.53414
1193.026, 32.50355
1193.508, 32.27615
1193.990, 32.00360
1194.472, 31.73424
1194.954, 31.67275
1195.437, 31.87823
1195.919, 32.07274
1196.401, 32.12700
1196.883, 32.14962
1197.365, 32.20424
1197.847, 32.24812
1198.329, 32.13725
1198.811, 31.90279
1199.293, 31.60580
1199.776, 31.17767
1200.258, 31.07591
1200.740, 32.07836
1201.222, 32.83141
1201.704, 32.50161
1202.186, 31.45533
1202.668, 31.13972
1203.150, 31.42477
1203.633, 31.82588
1204.115, 32.28177
1204.597, 32.56792
1205.079, 32.42729
1205.561, 32.22860
1206.043, 32.17847
1206.525, 32.25082
1207.007, 32.36023
1207.490, 32.48307
1207.972, 32.49894
1208.454, 32.23694
1208.936, 32.11074
1209.418, 32.56178
1209.900, 32.95060
1210.382, 32.76151
1210.864, 32.12182
1211.346, 31.94049
1211.828, 32.14588
1212.311, 32.40276
1212.793, 32.66855
1213.275, 32.79647
1213.757, 32.63070
1214.239, 32.40569
1214.721, 32.28275
1215.203, 32.25342
1215.685, 32.26624
1216.167, 32.31435
1216.650, 32.36085
1217.132, 32.35421
1217.614, 32.38887
1218.096, 32.53619
1218.578, 32.69173
1219.060, 32.77112
1219.542, 32.77815
1220.024, 32.71093
1220.507, 32.58836
1220.989, 32.51185
1221.471, 32.59000
1221.953, 32.64230
1222.435, 32.58625
1222.917, 32.52068
1223.399, 32.55674
1223.881, 32.67378
1224.364, 32.77444
1224.846, 32.85625
1225.328, 32.92446
1225.810, 33.01841
1226.292, 33.04514
1226.774, 32.97991
1227.256, 32.85300
1227.738, 32.63173
1228.220, 32.38255
1228.703, 32.36403
1229.185, 32.56611
1229.667, 32.82115
1230.149, 33.21300
1230.631, 33.40929
1231.113, 33.26365
1231.595, 33.02505
1232.077, 32.99930
1232.560, 33.13888
1233.042, 33.38443
1233.524, 33.69942
1234.006, 33.85183
1234.488, 33.64847
1234.970, 33.37634
1235.452, 33.03233
1235.934, 32.75315
1236.417, 32.78016
1236.899, 32.99681
1237.381, 33.14152
1237.863, 33.20256
1238.345, 33.30616
1238.827, 33.64024
1239.309, 33.76991
1239.791, 33.56239
1240.273, 33.25943
1240.755, 33.15284
1241.238, 33.19423
1241.720, 33.34144
1242.202, 33.57429
1242.684, 33.72017
1243.166, 33.71084
1243.648, 33.69062
1244.130, 33.68550
1244.612, 33.67913
1245.094, 33.63609
1245.577, 33.58443
1246.059, 33.57962
1246.541, 33.53770
1247.023, 33.61102
1247.505, 33.51180
1247.987, 33.46302
1248.469, 33.50498
1248.951, 33.56618
1249.434, 33.52431
1249.916, 33.47186
1250.398, 33.58297
1250.880, 33.84089
1251.362, 33.79396
1251.844, 33.29343
1252.326, 33.16004
1252.808, 33.66409
1253.291, 34.20104
1253.773, 33.96429
1254.255, 33.54880
1254.737, 33.61545
1255.219, 34.13621
1255.701, 34.34336
1256.183, 34.19806
1256.665, 34.07467
1257.147, 34.05761
1257.630, 34.08204
1258.112, 34.11271
1258.594, 34.13889
1259.076, 34.11980
1259.558, 34.08562
1260.040, 34.21513
1260.522, 34.50385
1261.004, 34.62825
1261.487, 34.49252
1261.969, 34.35603
1262.451, 34.42234
1262.933, 34.55428
1263.415, 34.74650
1263.897, 34.90540
1264.379, 34.57578
1264.861, 33.85757
1265.344, 33.54049
1265.826, 33.83574
1266.308, 34.21186
1266.790, 34.41853
1267.272, 34.56061
1267.754, 34.69813
1268.236, 34.80855
1268.718, 34.76157
1269.200, 34.63471
1269.682, 34.76196
1270.165, 35.24466
1270.647, 35.59949
1271.129, 35.58605
1271.611, 35.42614
1272.093, 35.11356
1272.575, 34.79750
1273.057, 34.83022
1273.539, 35.07441
1274.021, 35.22089
1274.504, 35.20993
1274.986, 35.20918
1275.468, 35.24442
1275.950, 35.31294
1276.432, 35.43122
1276.914, 35.54688
1277.396, 35.54952
1277.878, 35.65107
1278.361, 35.56458
1278.843, 35.73110
1279.325, 35.80481
1279.807, 35.77317
1280.289, 35.64711
1280.771, 35.39527
1281.253, 35.15911
1281.735, 35.09175
1282.218, 35.14135
1282.700, 35.24599
1283.182, 35.40859
1283.664, 35.74566
1284.146, 36.29232
1284.628, 36.58024
1285.110, 36.46324
1285.592, 36.21688
1286.074, 36.02093
1286.557, 35.85199
1287.039, 35.61856
1287.521, 35.39977
1288.003, 35.63088
1288.485, 36.25257
1288.967, 36.50006
1289.449, 36.15830
1289.931, 35.85784
1290.414, 36.07624
1290.896, 36.34452
1291.378, 36.43822
1291.860, 36.41262
1292.342, 36.37476
1292.824, 36.33735
1293.306, 36.33661
1293.788, 36.37775
1294.271, 36.48046
1294.753, 36.77235
1295.235, 36.95815
1295.717, 36.92924
1296.199, 36.80372
1296.681, 36.79616
1297.163, 36.83318
1297.645, 36.71056
1298.127, 36.40538
1298.609, 36.45021
1299.092, 37.10046
1299.574, 37.50154
1300.056, 37.42250
1300.538, 37.15936
1301.020, 37.01653
1301.502, 36.93239
1301.984, 36.84317
1302.466, 36.74448
1302.948, 36.66331
1303.431, 36.60555
1303.913, 36.53188
1304.395, 36.43996
##END=



