##NAMES=Siderite
##RRUFFID=R050349
##IDEAL CHEMISTRY=Fe^2+^CO_3_
##LOCALITY=Litchfield County, Connecticut, USA
##OWNER=RRUFF
##SOURCE=California Institute of Technology
##DESCRIPTION=Grayish brown rhombohedral cleavage fragment
##STATUS=The identification of this mineral has been confirmed by X-ray diffraction and chemical analysis
##URL=rruff.info/R050349
##MEASURED CHEMISTRY=(Fe_0.83_Mg_0.09_Mn_0.05_Ca_0.01_)_Î£=0.98_CO_3_
92.52344, 96.06414
93.00555, 94.95721
93.48767, 95.15518
93.96979, 99.10960
94.45190, 102.8983
94.93402, 106.0479
95.41614, 107.3447
95.89825, 107.3988
96.38037, 107.1426
96.86249, 106.6289
97.34460, 106.0775
97.82672, 105.6021
98.30884, 105.1721
98.79095, 104.9130
99.27307, 104.5776
99.75519, 103.8585
100.2373, 102.8628
100.7194, 101.7424
101.2015, 100.8531
101.6837, 100.0207
102.1658, 99.44931
102.6479, 99.39317
103.1300, 99.88360
103.6121, 100.4416
104.0942, 100.6138
104.5764, 100.5975
105.0585, 100.7112
105.5406, 101.1976
106.0227, 101.9036
106.5048, 102.3922
106.9869, 102.7386
107.4691, 102.6435
107.9512, 101.7083
108.4333, 100.2288
108.9154, 98.93026
109.3975, 98.50198
109.8796, 99.10041
110.3618, 99.51768
110.8439, 99.70602
111.3260, 99.75735
111.8081, 99.61246
112.2902, 99.31306
112.7723, 99.02162
113.2544, 98.98927
113.7366, 99.51624
114.2187, 99.73401
114.7008, 99.33389
115.1829, 98.80363
115.6650, 98.59061
116.1471, 98.85448
116.6293, 99.43028
117.1114, 99.95872
117.5935, 100.4221
118.0756, 100.8761
118.5577, 101.4675
119.0398, 102.0714
119.5220, 102.3394
120.0041, 101.9563
120.4862, 101.2695
120.9683, 101.0591
121.4504, 101.4892
121.9325, 102.0990
122.4147, 102.5186
122.8968, 102.7281
123.3789, 102.9822
123.8610, 103.4556
124.3431, 104.0263
124.8252, 104.6284
125.3074, 105.3214
125.7895, 105.9372
126.2716, 106.0420
126.7537, 105.2084
127.2358, 104.6256
127.7179, 104.8606
128.2001, 105.4845
128.6822, 105.9074
129.1643, 105.7121
129.6464, 104.9711
130.1285, 104.6236
130.6107, 104.9856
131.0928, 105.4742
131.5749, 106.1436
132.0570, 106.8527
132.5391, 107.3171
133.0212, 107.2207
133.5034, 106.3948
133.9855, 106.2416
134.4676, 107.1533
134.9497, 108.2695
135.4318, 109.1762
135.9139, 109.8096
136.3960, 110.2751
136.8782, 110.6565
137.3603, 110.9299
137.8424, 111.2517
138.3245, 111.6061
138.8066, 112.0217
139.2887, 112.5443
139.7709, 113.1928
140.2530, 113.9039
140.7351, 114.6232
141.2172, 115.3465
141.6993, 116.0356
142.1814, 116.6680
142.6636, 117.2467
143.1457, 117.7579
143.6278, 118.0409
144.1099, 118.4487
144.5920, 119.3131
145.0741, 120.6266
145.5563, 122.0311
146.0384, 123.2187
146.5205, 124.1639
147.0026, 125.0942
147.4847, 126.1625
147.9668, 127.1513
148.4490, 127.8449
148.9311, 128.2210
149.4132, 128.5564
149.8953, 129.2410
150.3774, 130.2844
150.8595, 131.7395
151.3417, 133.9257
151.8238, 136.2555
152.3059, 138.1924
152.7880, 139.5364
153.2701, 140.5881
153.7522, 142.0875
154.2344, 144.7329
154.7165, 147.0454
155.1986, 148.7371
155.6807, 150.1353
156.1628, 151.6352
156.6449, 153.4249
157.1271, 155.4623
157.6092, 157.5933
158.0913, 159.6527
158.5734, 161.9702
159.0555, 164.7427
159.5376, 167.8586
160.0198, 171.0223
160.5019, 174.0539
160.9840, 177.0306
161.4661, 180.1652
161.9482, 183.3809
162.4303, 186.8183
162.9125, 190.6973
163.3946, 194.9956
163.8767, 199.1763
164.3588, 202.6492
164.8409, 205.8639
165.3230, 209.6467
165.8052, 214.4145
166.2873, 219.5345
166.7694, 224.0544
167.2515, 227.8159
167.7336, 231.5750
168.2157, 235.9303
168.6979, 240.4530
169.1800, 244.6242
169.6621, 248.1016
170.1442, 251.1773
170.6263, 254.7212
171.1084, 259.0436
171.5906, 263.3616
172.0727, 267.5660
172.5548, 271.5933
173.0369, 275.3571
173.5190, 278.7775
174.0011, 281.8911
174.4833, 284.9995
174.9654, 287.7591
175.4475, 290.9060
175.9296, 294.9252
176.4117, 299.4355
176.8938, 303.7797
177.3760, 307.4381
177.8581, 310.3883
178.3402, 313.5142
178.8223, 317.3563
179.3044, 320.8318
179.7865, 323.4998
180.2687, 325.4394
180.7508, 326.9391
181.2329, 328.1878
181.7150, 329.1602
182.1971, 330.2401
182.6792, 332.1042
183.1614, 333.5216
183.6435, 333.7050
184.1256, 332.6559
184.6077, 331.0205
185.0898, 329.5039
185.5719, 328.0421
186.0541, 325.1665
186.5362, 320.5623
187.0183, 314.6841
187.5004, 307.7644
187.9825, 299.7796
188.4646, 291.3139
188.9468, 282.9249
189.4289, 274.5134
189.9110, 265.3308
190.3931, 254.4589
190.8752, 242.9549
191.3573, 232.4012
191.8395, 223.0816
192.3216, 214.2410
192.8037, 205.3535
193.2858, 196.5105
193.7679, 187.8983
194.2500, 179.4790
194.7322, 171.3651
195.2143, 163.7330
195.6964, 156.4204
196.1785, 150.0210
196.6606, 144.8601
197.1427, 140.6646
197.6249, 136.9135
198.1070, 133.4454
198.5891, 130.2071
199.0712, 126.6043
199.5533, 121.8523
200.0354, 117.6322
200.5176, 114.8634
200.9997, 113.1481
201.4818, 111.5654
201.9639, 109.3421
202.4460, 106.4486
202.9281, 104.0709
203.4103, 102.7484
203.8924, 101.5032
204.3745, 100.0468
204.8566, 98.41879
205.3387, 96.81989
205.8208, 95.40550
206.3030, 94.16438
206.7851, 93.18914
207.2672, 92.72118
207.7493, 92.26144
208.2314, 91.51469
208.7135, 90.57172
209.1957, 89.78194
209.6778, 89.49639
210.1599, 89.81580
210.6420, 89.85681
211.1241, 89.42860
211.6062, 88.94690
212.0884, 88.66332
212.5705, 88.55512
213.0526, 88.38232
213.5347, 87.87167
214.0168, 86.95975
214.4989, 86.53838
214.9811, 87.13148
215.4632, 87.76453
215.9453, 87.69720
216.4274, 86.92888
216.9095, 86.09944
217.3916, 85.76546
217.8737, 85.95056
218.3559, 86.04805
218.8380, 85.96713
219.3201, 85.84885
219.8022, 85.80794
220.2843, 85.85326
220.7664, 85.94839
221.2486, 86.10157
221.7307, 86.28847
222.2128, 86.39966
222.6949, 86.27864
223.1770, 86.14767
223.6591, 86.29839
224.1413, 86.77315
224.6234, 87.28441
225.1055, 87.67947
225.5876, 87.95853
226.0697, 88.08993
226.5518, 87.98891
227.0340, 87.77326
227.5161, 87.59779
227.9982, 87.45518
228.4803, 87.37928
228.9624, 87.51478
229.4445, 87.70159
229.9267, 87.67765
230.4088, 87.15742
230.8909, 86.53161
231.3730, 86.67045
231.8551, 87.94344
232.3372, 89.04402
232.8194, 89.29180
233.3015, 89.12811
233.7836, 89.04498
234.2657, 89.25076
234.7478, 89.64252
235.2299, 90.00698
235.7121, 90.38064
236.1942, 90.64635
236.6763, 90.67863
237.1584, 90.64045
237.6405, 90.67948
238.1227, 90.84875
238.6048, 91.17182
239.0869, 91.74854
239.5690, 92.84484
240.0511, 93.72505
240.5332, 94.06331
241.0154, 94.23402
241.4975, 94.61035
241.9796, 95.35271
242.4617, 96.33114
242.9438, 97.22635
243.4259, 98.08141
243.9081, 98.76570
244.3902, 99.10350
244.8723, 99.35926
245.3544, 99.78989
245.8365, 100.4960
246.3186, 101.3728
246.8008, 102.1953
247.2829, 102.9593
247.7650, 103.6575
248.2471, 104.2113
248.7292, 104.7430
249.2113, 105.3278
249.6935, 105.9994
250.1756, 106.8003
250.6577, 107.8174
251.1398, 109.1209
251.6219, 110.5684
252.1040, 112.2031
252.5862, 113.9388
253.0683, 115.7177
253.5504, 117.5108
254.0325, 119.3074
254.5146, 121.0841
254.9967, 122.7769
255.4789, 124.5660
255.9610, 126.2211
256.4431, 128.0879
256.9252, 130.5832
257.4073, 133.7825
257.8894, 137.2544
258.3716, 140.3913
258.8537, 142.8740
259.3358, 145.9399
259.8179, 150.0343
260.3000, 154.4561
260.7821, 158.4315
261.2643, 161.8765
261.7464, 165.5585
262.2285, 170.4084
262.7106, 176.7800
263.1927, 182.9546
263.6748, 188.4246
264.1570, 193.9808
264.6391, 200.3361
265.1212, 207.5407
265.6033, 215.0457
266.0854, 222.3022
266.5675, 229.2837
267.0497, 236.3457
267.5318, 243.5781
268.0139, 250.8010
268.4960, 257.8156
268.9781, 264.6113
269.4602, 271.4564
269.9424, 278.5749
270.4245, 285.9282
270.9066, 293.2070
271.3887, 299.8600
271.8708, 306.8773
272.3529, 315.2809
272.8351, 324.9780
273.3172, 334.5694
273.7993, 343.1774
274.2814, 351.0800
274.7635, 359.3408
275.2456, 368.0583
275.7278, 376.9990
276.2099, 386.0472
276.6920, 395.1944
277.1741, 404.3415
277.6562, 413.2171
278.1383, 422.2160
278.6205, 432.0052
279.1026, 443.1786
279.5847, 454.0627
280.0668, 463.3026
280.5489, 471.1871
281.0310, 479.3002
281.5132, 488.6144
281.9953, 497.9317
282.4774, 505.7621
282.9595, 512.0742
283.4416, 517.1918
283.9237, 521.4422
284.4059, 524.6949
284.8880, 526.4280
285.3701, 526.4927
285.8522, 524.8295
286.3343, 521.6611
286.8164, 517.0455
287.2986, 511.0504
287.7807, 503.6158
288.2628, 494.8002
288.7449, 484.7960
289.2270, 473.3534
289.7091, 461.1035
290.1913, 448.4085
290.6734, 435.3535
291.1555, 421.8130
291.6376, 407.4853
292.1197, 392.7535
292.6018, 378.2191
293.0840, 363.8927
293.5661, 350.0322
294.0482, 336.8699
294.5303, 324.2933
295.0124, 311.9630
295.4945, 299.7739
295.9767, 287.8627
296.4588, 276.3896
296.9409, 265.2394
297.4230, 254.9144
297.9051, 245.8473
298.3872, 237.6140
298.8694, 229.8328
299.3515, 222.4517
299.8336, 215.3738
300.3157, 208.3093
300.7978, 201.1113
301.2799, 194.5816
301.7621, 189.3781
302.2442, 184.8147
302.7263, 180.2961
303.2084, 175.6889
303.6905, 171.2640
304.1726, 167.3571
304.6548, 164.0003
305.1369, 160.5786
305.6190, 156.7637
306.1011, 152.9684
306.5832, 149.4768
307.0653, 146.3123
307.5475, 143.4382
308.0296, 140.9270
308.5117, 138.7522
308.9938, 136.5101
309.4759, 134.0417
309.9580, 131.6437
310.4402, 129.4939
310.9223, 127.5766
311.4044, 125.8157
311.8865, 124.3165
312.3686, 122.9807
312.8507, 121.2576
313.3329, 118.7547
313.8150, 116.5505
314.2971, 115.3149
314.7792, 114.7193
315.2613, 114.1830
315.7434, 113.5072
316.2256, 112.6810
316.7077, 111.6188
317.1898, 110.1786
317.6719, 108.8735
318.1540, 108.0079
318.6361, 107.3599
319.1183, 106.7220
319.6004, 106.0429
320.0825, 105.3174
320.5646, 104.5049
321.0467, 103.5801
321.5288, 102.7331
322.0110, 102.2016
322.4931, 101.6597
322.9752, 100.7682
323.4573, 99.46864
323.9394, 98.20175
324.4215, 97.41761
324.9037, 97.11073
325.3858, 96.80607
325.8679, 96.42573
326.3500, 96.02548
326.8321, 95.64217
327.3142, 95.27530
327.7964, 94.91716
328.2785, 94.58170
328.7606, 94.25683
329.2427, 93.89417
329.7248, 93.54001
330.2069, 93.05598
330.6891, 92.21498
331.1712, 91.19853
331.6533, 90.40223
332.1354, 90.12758
332.6175, 90.12196
333.0996, 89.85218
333.5818, 89.23682
334.0639, 88.61491
334.5460, 88.08948
335.0281, 87.67709
335.5102, 87.45325
335.9923, 87.50509
336.4745, 87.58984
336.9566, 87.39302
337.4387, 86.89783
337.9208, 86.41166
338.4029, 85.95907
338.8850, 85.62287
339.3671, 85.54549
339.8492, 85.75923
340.3314, 85.92410
340.8135, 85.78848
341.2956, 85.37918
341.7777, 84.83793
342.2598, 84.06758
342.7419, 83.35010
343.2241, 82.92287
343.7062, 82.74882
344.1883, 82.67535
344.6704, 82.68851
345.1525, 82.74233
345.6346, 82.75867
346.1168, 82.75735
346.5989, 82.64199
347.0810, 82.24194
347.5631, 81.68656
348.0452, 81.18023
348.5273, 80.68050
349.0095, 80.33629
349.4916, 80.46347
349.9737, 81.07662
350.4558, 81.47403
350.9379, 81.24594
351.4200, 80.64138
351.9022, 80.08507
352.3843, 79.60114
352.8664, 79.15483
353.3485, 78.65182
353.8306, 78.15015
354.3127, 77.91858
354.7949, 78.12582
355.2770, 78.47208
355.7591, 78.52152
356.2412, 78.27767
356.7233, 78.18279
357.2054, 78.55278
357.6876, 79.11980
358.1697, 79.45712
358.6518, 79.49761
359.1339, 79.40466
359.6160, 79.33108
360.0981, 79.24606
360.5803, 78.99052
361.0624, 78.22996
361.5445, 77.52975
362.0266, 77.50607
362.5087, 78.07210
362.9908, 78.50279
363.4730, 78.37595
363.9551, 77.83649
364.4372, 77.34988
364.9193, 76.81404
365.4014, 76.48742
365.8835, 76.59721
366.3657, 76.98074
366.8478, 77.37112
367.3299, 77.71696
367.8120, 77.88091
368.2941, 77.52945
368.7762, 76.47438
369.2584, 75.77023
369.7405, 75.77295
370.2226, 76.06850
370.7047, 76.27788
371.1868, 76.34968
371.6689, 76.40858
372.1511, 76.57931
372.6332, 76.86830
373.1153, 77.05063
373.5974, 77.20222
374.0795, 77.19006
374.5616, 76.72575
375.0438, 76.03271
375.5259, 75.71711
376.0080, 76.16424
376.4901, 77.09779
376.9722, 77.53203
377.4543, 77.03226
377.9365, 76.60365
378.4186, 76.39114
378.9007, 76.27868
379.3828, 76.09932
379.8649, 75.81837
380.3470, 75.60117
380.8292, 75.69495
381.3113, 76.23876
381.7934, 76.69547
382.2755, 77.22746
382.7576, 77.54942
383.2397, 77.31119
383.7219, 76.67222
384.2040, 76.17139
384.6861, 76.26894
385.1682, 76.91065
385.6503, 77.22249
386.1324, 76.87254
386.6146, 76.54316
387.0967, 76.36980
387.5788, 76.27639
388.0609, 76.11610
388.5430, 75.82911
389.0251, 75.55580
389.5073, 75.63853
389.9894, 76.44875
390.4715, 76.81937
390.9536, 76.33937
391.4357, 75.73547
391.9178, 75.42039
392.4000, 75.45316
392.8821, 75.70605
393.3642, 76.16075
393.8463, 76.83579
394.3284, 77.05150
394.8105, 76.26604
395.2927, 75.63674
395.7748, 75.59773
396.2569, 75.96579
396.7390, 76.46523
397.2211, 77.02163
397.7032, 77.49567
398.1854, 77.52019
398.6675, 76.94348
399.1496, 76.37698
399.6317, 75.91618
400.1138, 75.57557
400.5959, 75.42600
401.0781, 75.47389
401.5602, 75.53731
402.0423, 75.48210
402.5244, 75.30787
403.0065, 74.96085
403.4886, 74.24203
403.9708, 73.64009
404.4529, 73.49718
404.9350, 73.72381
405.4171, 74.09158
405.8992, 74.71368
406.3813, 75.31252
406.8635, 75.40787
407.3456, 74.95907
407.8277, 74.36222
408.3098, 73.66985
408.7919, 73.01218
409.2740, 72.61581
409.7562, 72.57032
410.2383, 72.57940
410.7204, 72.49632
411.2025, 72.32761
411.6846, 72.06603
412.1667, 71.67561
412.6489, 71.28699
413.1310, 71.09090
413.6131, 71.07925
414.0952, 71.02945
414.5773, 70.84776
415.0594, 70.64927
415.5416, 70.57908
416.0237, 70.62278
416.5058, 70.58991
416.9879, 70.31483
417.4700, 69.87289
417.9521, 69.67760
418.4343, 70.00784
418.9164, 70.20742
419.3985, 70.01368
419.8806, 69.60547
420.3627, 69.22033
420.8448, 68.93472
421.3270, 68.74036
421.8091, 68.63560
422.2912, 68.67397
422.7733, 68.64925
423.2554, 68.36484
423.7375, 68.19033
424.2197, 68.48539
424.7018, 69.11545
425.1839, 69.62561
425.6660, 69.67971
426.1481, 69.34134
426.6302, 69.03526
427.1124, 68.64822
427.5945, 68.45356
428.0766, 68.64790
428.5587, 68.96445
429.0408, 69.17673
429.5229, 69.20435
430.0051, 69.04490
430.4872, 68.62241
430.9693, 67.81915
431.4514, 67.25555
431.9335, 67.07381
432.4156, 67.03477
432.8978, 67.07661
433.3799, 67.18831
433.8620, 67.37082
434.3441, 67.63672
434.8262, 67.96292
435.3083, 68.29044
435.7905, 68.63027
436.2726, 68.93713
436.7547, 69.31954
437.2368, 69.59541
437.7189, 69.51543
438.2010, 69.01067
438.6832, 68.48447
439.1653, 68.31343
439.6474, 68.43315
440.1295, 68.47739
440.6116, 68.33595
441.0938, 68.21827
441.5759, 68.31855
442.0580, 68.58743
442.5401, 68.90053
443.0222, 69.34344
443.5043, 69.73146
443.9865, 69.80298
444.4686, 69.59727
444.9507, 69.48479
445.4328, 69.67380
445.9149, 70.02654
446.3970, 70.21088
446.8792, 70.15295
447.3613, 70.16862
447.8434, 70.45550
448.3255, 70.81081
448.8076, 70.95947
449.2897, 70.86357
449.7719, 70.71803
450.2540, 70.72199
450.7361, 70.88876
451.2182, 70.88213
451.7003, 70.30069
452.1824, 70.00735
452.6646, 70.57131
453.1467, 71.58060
453.6288, 72.31594
454.1109, 72.46289
454.5930, 72.29439
455.0751, 72.36547
455.5573, 72.87432
456.0394, 73.23666
456.5215, 73.30211
457.0036, 73.37272
457.4857, 73.72836
457.9678, 74.27601
458.4500, 74.65789
458.9321, 74.55481
459.4142, 74.07115
459.8963, 73.81538
460.3784, 73.81374
460.8605, 74.01233
461.3427, 74.58281
461.8248, 75.22073
462.3069, 75.61152
462.7890, 75.67717
463.2711, 75.62896
463.7532, 75.67693
464.2354, 75.81342
464.7175, 75.91434
465.1996, 75.91917
465.6817, 75.96383
466.1638, 76.18430
466.6459, 76.51723
467.1281, 76.80277
467.6102, 76.93899
468.0923, 77.04819
468.5744, 77.20889
469.0565, 77.43396
469.5386, 77.88897
470.0208, 78.76238
470.5029, 79.74161
470.9850, 80.24924
471.4671, 80.25636
471.9492, 80.14755
472.4313, 79.77625
472.9135, 79.47786
473.3956, 79.72290
473.8777, 80.49690
474.3598, 81.28762
474.8419, 81.69096
475.3240, 81.75793
475.8062, 81.98214
476.2883, 82.54443
476.7704, 83.02190
477.2525, 83.32027
477.7346, 83.49244
478.2167, 83.56651
478.6989, 83.56460
479.1810, 83.55928
479.6631, 83.63114
480.1452, 83.76518
480.6273, 84.05551
481.1094, 84.79005
481.5916, 85.38258
482.0737, 85.57202
482.5558, 85.49667
483.0379, 85.38675
483.5200, 85.33972
484.0021, 85.37737
484.4843, 85.57447
484.9664, 85.98112
485.4485, 86.31712
485.9306, 86.45191
486.4127, 86.56474
486.8948, 86.71169
487.3770, 86.92257
487.8591, 87.30806
488.3412, 88.12065
488.8233, 89.09120
489.3054, 89.69716
489.7875, 89.91728
490.2697, 89.88982
490.7518, 89.45077
491.2339, 88.93990
491.7160, 89.07310
492.1981, 90.13844
492.6802, 91.00047
493.1624, 90.95362
493.6445, 90.48846
494.1266, 90.35194
494.6087, 90.66691
495.0908, 91.09588
495.5729, 91.34547
496.0551, 91.41729
496.5372, 91.55999
497.0193, 91.84802
497.5014, 92.10875
497.9835, 92.29935
498.4656, 92.42805
498.9478, 92.47932
499.4299, 92.45631
499.9120, 92.45185
500.3941, 92.65562
500.8762, 93.24004
501.3583, 93.34246
501.8405, 92.25670
502.3226, 91.40695
502.8047, 91.41010
503.2868, 92.00497
503.7689, 92.74569
504.2510, 93.47241
504.7331, 94.00508
505.2152, 93.88468
505.6974, 92.96272
506.1795, 92.32092
506.6616, 92.43409
507.1437, 92.65675
507.6258, 92.41122
508.1079, 91.79427
508.5901, 91.39213
509.0722, 91.60290
509.5543, 92.13539
510.0364, 92.62247
510.5185, 93.05869
511.0006, 93.37952
511.4828, 93.52969
511.9649, 93.56399
512.4470, 93.62139
512.9291, 93.76558
513.4113, 93.72898
513.8934, 93.30985
514.3755, 92.75655
514.8576, 92.27402
515.3397, 91.90394
515.8218, 91.69736
516.3040, 91.71162
516.7861, 91.91114
517.2682, 92.03842
517.7503, 92.24995
518.2324, 92.18071
518.7145, 91.56646
519.1967, 90.79353
519.6788, 90.21401
520.1609, 89.88929
520.6430, 89.66442
521.1251, 89.38448
521.6072, 89.05149
522.0894, 88.78174
522.5715, 88.52290
523.0536, 88.42005
523.5357, 88.80042
524.0178, 89.21778
524.4999, 89.04618
524.9821, 88.07647
525.4642, 87.05994
525.9463, 86.79273
526.4284, 87.09494
526.9105, 87.12890
527.3926, 86.73588
527.8748, 86.20779
528.3569, 85.77037
528.8390, 85.38023
529.3211, 84.87385
529.8032, 84.00549
530.2853, 83.28220
530.7675, 83.17326
531.2496, 83.37447
531.7317, 83.22332
532.2138, 82.52107
532.6959, 81.70815
533.1780, 81.33549
533.6602, 81.48198
534.1423, 81.58709
534.6244, 81.73686
535.1065, 81.76075
535.5886, 81.56511
536.0707, 81.21062
536.5529, 80.76689
537.0350, 80.26789
537.5171, 79.75737
537.9992, 79.34995
538.4813, 79.10487
538.9634, 78.66420
539.4456, 77.99271
539.9277, 77.13182
540.4098, 75.75930
540.8919, 74.26721
541.3740, 73.48494
541.8561, 73.94579
542.3383, 74.79499
542.8204, 75.01162
543.3025, 74.64957
543.7846, 74.21557
544.2667, 73.81402
544.7488, 73.41408
545.2310, 72.93687
545.7131, 72.39905
546.1952, 71.99937
546.6773, 71.84214
547.1594, 71.76482
547.6415, 71.68979
548.1237, 71.60933
548.6058, 71.55516
549.0879, 71.54815
549.5700, 71.44552
550.0521, 70.97356
550.5342, 69.91409
551.0164, 69.16409
551.4985, 68.89391
551.9806, 68.71335
552.4627, 68.48003
552.9448, 68.20267
553.4269, 67.91732
553.9091, 67.63811
554.3912, 67.38796
554.8733, 67.26118
555.3554, 67.30746
555.8375, 67.10514
556.3196, 66.32936
556.8018, 65.60793
557.2839, 65.46426
557.7660, 65.69073
558.2481, 65.69173
558.7302, 65.11328
559.2123, 64.39342
559.6945, 63.98588
560.1766, 63.83109
560.6587, 63.66536
561.1408, 63.40469
561.6229, 63.12555
562.1050, 62.95704
562.5872, 62.93959
563.0693, 62.68412
563.5514, 61.96090
564.0335, 61.22659
564.5156, 60.63266
564.9977, 60.21280
565.4799, 60.04824
565.9620, 60.16595
566.4441, 60.38479
566.9262, 60.43683
567.4083, 60.32808
567.8904, 60.02375
568.3726, 59.16032
568.8547, 58.47896
569.3368, 58.34037
569.8189, 58.52618
570.3010, 58.65767
570.7831, 58.58078
571.2653, 58.49323
571.7474, 58.75399
572.2295, 59.28329
572.7116, 59.37480
573.1937, 58.77436
573.6758, 58.07513
574.1580, 57.77909
574.6401, 57.79934
575.1222, 57.79578
575.6043, 57.80107
576.0864, 57.70378
576.5685, 57.36821
577.0507, 56.91734
577.5328, 56.53086
578.0149, 56.25910
578.4970, 56.11835
578.9791, 56.15699
579.4612, 56.38971
579.9434, 56.43341
580.4255, 56.10762
580.9076, 55.80035
581.3897, 55.58772
581.8718, 55.42392
582.3539, 55.24403
582.8361, 55.03775
583.3182, 54.86860
583.8003, 54.91241
584.2824, 55.09751
584.7645, 54.80644
585.2466, 53.81644
585.7288, 52.97772
586.2108, 52.78065
586.6929, 52.95707
587.1750, 53.16795
587.6572, 53.42191
588.1393, 53.56921
588.6214, 53.44908
589.1035, 53.22984
589.5856, 53.14390
590.0677, 53.20268
590.5499, 53.28289
591.0320, 53.31335
591.5141, 53.29269
591.9962, 53.21608
592.4783, 53.12862
592.9604, 52.91214
593.4426, 52.34431
593.9247, 51.83111
594.4068, 51.73183
594.8889, 51.95902
595.3710, 52.15899
595.8531, 52.11192
596.3353, 51.87708
596.8174, 51.49458
597.2995, 50.87622
597.7816, 50.67723
598.2637, 51.46337
598.7458, 52.25864
599.2280, 52.10131
599.7101, 51.17013
600.1922, 50.44269
600.6743, 50.45021
601.1564, 50.58816
601.6385, 50.21095
602.1207, 49.53802
602.6028, 49.29450
603.0849, 49.74525
603.5670, 50.41553
604.0491, 50.70437
604.5313, 50.56075
605.0134, 50.33843
605.4955, 49.88557
605.9776, 49.53774
606.4597, 49.42683
606.9418, 49.47026
607.4240, 49.63240
607.9061, 49.87670
608.3882, 50.00910
608.8703, 49.68945
609.3524, 48.97231
609.8345, 48.61312
610.3167, 48.72955
610.7988, 48.93971
611.2809, 49.25153
611.7630, 49.45442
612.2451, 49.14729
612.7272, 48.14031
613.2094, 47.36966
613.6915, 47.44478
614.1736, 47.88779
614.6557, 48.10420
615.1378, 48.07198
615.6199, 48.07542
616.1021, 48.31141
616.5842, 48.63584
617.0663, 48.62939
617.5484, 48.04385
618.0305, 47.53443
618.5126, 47.03705
618.9948, 46.66632
619.4769, 46.52093
619.9590, 46.55439
620.4411, 46.69592
620.9232, 46.94999
621.4053, 47.13923
621.8875, 46.88126
622.3696, 46.18752
622.8517, 45.71936
623.3338, 45.60384
623.8159, 45.70785
624.2980, 46.09547
624.7802, 46.63240
625.2623, 46.85426
625.7444, 46.49500
626.2265, 46.08705
626.7086, 45.92531
627.1907, 45.84262
627.6729, 45.50978
628.1550, 44.91289
628.6371, 44.47377
629.1192, 44.61276
629.6013, 45.22469
630.0834, 45.41613
630.5656, 44.79670
631.0477, 44.40589
631.5298, 44.60673
632.0119, 44.89657
632.4940, 44.85316
632.9761, 44.51149
633.4583, 44.24705
633.9404, 44.33698
634.4225, 44.58636
634.9046, 44.71178
635.3867, 44.71576
635.8688, 44.61114
636.3510, 44.37770
636.8331, 44.09273
637.3152, 43.81886
637.7973, 43.54908
638.2794, 43.42997
638.7615, 43.70349
639.2437, 43.86012
639.7258, 43.52728
640.2079, 43.01453
640.6900, 42.82165
641.1721, 43.04262
641.6542, 43.28960
642.1364, 43.11677
642.6185, 42.56499
643.1006, 42.16503
643.5827, 41.92419
644.0648, 41.82283
644.5469, 41.99173
645.0291, 42.21429
645.5112, 42.28722
645.9933, 42.19703
646.4754, 42.09735
646.9575, 42.19073
647.4396, 42.21431
647.9218, 41.69834
648.4039, 40.80936
648.8860, 40.29821
649.3681, 40.48915
649.8502, 41.00109
650.3323, 41.26299
650.8145, 41.21825
651.2966, 41.17969
651.7787, 41.24079
652.2608, 41.20066
652.7429, 40.91655
653.2250, 40.53340
653.7072, 40.20501
654.1893, 39.97673
654.6714, 39.87207
655.1535, 40.10197
655.6356, 40.47262
656.1177, 40.17482
656.5999, 39.08284
657.0820, 38.24148
657.5641, 38.24018
658.0462, 38.66773
658.5283, 38.76604
659.0104, 38.49787
659.4926, 38.19018
659.9747, 37.73916
660.4568, 37.40229
660.9389, 37.48495
661.4210, 37.78181
661.9031, 37.85474
662.3853, 37.53574
662.8674, 37.05334
663.3495, 36.72805
663.8316, 36.57255
664.3137, 36.34534
664.7958, 35.94531
665.2780, 35.65844
665.7601, 35.71917
666.2422, 35.90924
666.7243, 36.01605
667.2064, 36.02600
667.6885, 35.85823
668.1707, 35.28206
668.6528, 34.63658
669.1349, 34.36351
669.6170, 34.40221
670.0991, 34.37182
670.5812, 34.08563
671.0634, 33.73814
671.5455, 33.69106
672.0276, 34.06543
672.5097, 34.28099
672.9918, 34.29273
673.4739, 34.18711
673.9561, 33.92160
674.4382, 33.58088
674.9203, 33.24197
675.4024, 32.92630
675.8845, 32.69581
676.3666, 32.65768
676.8488, 32.72619
677.3309, 32.71286
677.8130, 32.60968
678.2951, 32.48886
678.7772, 32.37745
679.2593, 32.27660
679.7415, 32.16889
680.2236, 31.98733
680.7057, 32.03024
681.1878, 32.67846
681.6699, 33.13902
682.1520, 32.96116
682.6342, 32.39950
683.1163, 31.74833
683.5984, 31.12591
684.0805, 30.76788
684.5626, 31.09605
685.0447, 31.94936
685.5269, 32.46055
686.0090, 32.60091
686.4911, 32.49588
686.9732, 32.06816
687.4553, 31.54069
687.9374, 31.32421
688.4196, 31.46487
688.9017, 31.44439
689.3838, 30.93134
689.8659, 30.48919
690.3480, 30.59063
690.8301, 30.95987
691.3123, 31.05501
691.7944, 30.72285
692.2765, 30.33261
692.7586, 30.33732
693.2407, 30.70181
693.7228, 30.90964
694.2050, 30.89065
694.6871, 30.91464
695.1692, 31.21708
695.6513, 31.49702
696.1334, 31.30946
696.6155, 30.66023
697.0977, 30.34498
697.5798, 30.72378
698.0619, 31.39954
698.5440, 32.36170
699.0261, 33.34289
699.5082, 33.76708
699.9904, 33.49279
700.4725, 32.92391
700.9546, 32.45693
701.4367, 32.09686
701.9188, 31.91867
702.4009, 31.95570
702.8831, 32.11144
703.3652, 32.41117
703.8473, 32.78701
704.3294, 33.23726
704.8115, 33.73714
705.2936, 34.16261
705.7758, 34.43599
706.2579, 34.64146
706.7400, 34.73263
707.2221, 34.82944
707.7042, 35.29584
708.1863, 36.19036
708.6685, 37.03915
709.1506, 37.36984
709.6327, 37.28436
710.1148, 37.56085
710.5969, 38.42204
711.0790, 39.23927
711.5612, 39.91600
712.0433, 40.54332
712.5254, 41.09534
713.0075, 41.63781
713.4896, 42.35968
713.9717, 43.41725
714.4539, 44.51994
714.9360, 45.35504
715.4181, 46.05239
715.9002, 46.96910
716.3823, 48.14518
716.8644, 49.17410
717.3466, 49.71193
717.8287, 49.94397
718.3108, 50.58390
718.7929, 51.92448
719.2750, 53.11532
719.7571, 54.06197
720.2393, 54.93007
720.7214, 55.72480
721.2035, 56.51197
721.6856, 57.42971
722.1677, 58.54658
722.6498, 59.65535
723.1320, 60.56256
723.6141, 61.34584
724.0962, 62.22328
724.5783, 63.19090
725.0604, 63.91444
725.5425, 64.20074
726.0247, 64.17392
726.5068, 64.04752
726.9889, 63.65553
727.4710, 63.67812
727.9531, 64.70045
728.4352, 65.46168
728.9174, 65.49111
729.3995, 65.04360
729.8816, 64.30508
730.3637, 63.34475
730.8458, 62.65445
731.3279, 62.91954
731.8101, 63.49573
732.2922, 63.28385
732.7743, 62.35905
733.2564, 61.35737
733.7385, 60.50959
734.2206, 59.66005
734.7028, 58.57992
735.1849, 57.23828
735.6670, 56.13385
736.1491, 55.40224
736.6312, 54.74632
737.1133, 54.25916
737.5955, 53.71898
738.0776, 52.85307
738.5597, 51.71513
739.0418, 50.69963
739.5239, 50.10604
740.0060, 49.59569
740.4882, 48.61766
740.9703, 47.39378
741.4524, 46.74206
741.9345, 46.82884
742.4166, 46.88096
742.8987, 46.22558
743.3809, 45.02988
743.8630, 44.14804
744.3451, 43.92638
744.8272, 43.38557
745.3093, 42.18023
745.7914, 40.95080
746.2736, 40.00953
746.7557, 39.30764
747.2378, 38.70796
747.7199, 38.19444
748.2020, 37.66942
748.6841, 37.04073
749.1663, 36.35464
749.6484, 35.70617
750.1305, 35.09098
750.6126, 34.40382
751.0947, 33.57610
751.5768, 32.75489
752.0590, 32.22285
752.5411, 32.06061
753.0232, 31.80418
753.5053, 31.42306
753.9874, 30.98455
754.4695, 30.45000
754.9517, 29.90769
755.4338, 29.44758
755.9159, 29.08046
756.3980, 28.78113
756.8801, 28.56528
757.3622, 28.38617
757.8444, 28.25764
758.3265, 28.12222
758.8086, 27.80532
759.2907, 27.27814
759.7728, 26.73830
760.2549, 26.37131
760.7371, 26.16903
761.2192, 26.10876
761.7013, 26.25988
762.1834, 26.37279
762.6655, 26.52830
763.1476, 26.49881
763.6298, 25.92612
764.1119, 25.06315
764.5940, 24.64640
765.0761, 25.09350
765.5582, 25.45630
766.0403, 25.14205
766.5225, 24.59313
767.0046, 24.27082
767.4867, 24.19159
767.9688, 24.22167
768.4509, 24.29709
768.9330, 24.33822
769.4152, 24.17789
769.8973, 23.80387
770.3794, 23.52269
770.8615, 23.33034
771.3436, 23.27160
771.8257, 23.51632
772.3079, 23.79600
772.7900, 23.61339
773.2721, 22.90660
773.7542, 22.56181
774.2363, 23.09284
774.7184, 23.60187
775.2006, 23.58542
775.6827, 23.30136
776.1648, 23.08322
776.6469, 23.00241
777.1290, 22.98027
777.6111, 22.97654
778.0933, 22.96179
778.5754, 22.81254
779.0575, 22.53945
779.5396, 22.50597
780.0217, 22.86011
780.5038, 23.16314
780.9860, 23.00486
781.4681, 22.53202
781.9502, 22.39317
782.4323, 22.89865
782.9144, 23.21682
783.3965, 23.26946
783.8787, 23.16903
784.3608, 22.83589
784.8429, 22.43912
785.3250, 22.28926
785.8071, 22.48545
786.2892, 22.71472
786.7714, 22.75647
787.2535, 22.63163
787.7356, 22.23785
788.2177, 21.65293
788.6998, 21.44678
789.1819, 21.85757
789.6641, 22.43255
790.1462, 22.61489
790.6283, 22.40655
791.1104, 22.26307
791.5925, 22.24541
792.0746, 22.19069
792.5568, 22.04459
793.0389, 21.87614
793.5210, 21.71420
794.0031, 21.56957
794.4852, 21.45829
794.9673, 21.33151
795.4495, 21.34389
795.9316, 21.72618
796.4137, 22.22488
796.8958, 22.56957
797.3779, 22.71070
797.8600, 22.57849
798.3422, 22.12695
798.8243, 21.60261
799.3064, 21.45184
799.7885, 21.69094
800.2706, 21.78904
800.7527, 21.70729
801.2349, 21.59140
801.7170, 21.46348
802.1991, 21.36147
802.6812, 21.34922
803.1633, 21.42575
803.6454, 21.50639
804.1276, 21.60953
804.6097, 21.68388
805.0918, 21.63251
805.5739, 21.59498
806.0560, 21.78640
806.5381, 22.15113
807.0203, 22.39200
807.5024, 22.30575
807.9845, 22.10945
808.4666, 22.16516
808.9487, 22.37536
809.4308, 22.29670
809.9130, 21.87210
810.3951, 21.53012
810.8772, 21.54659
811.3593, 21.71723
811.8414, 21.59114
812.3235, 20.98907
812.8057, 20.76600
813.2878, 21.25903
813.7699, 21.71574
814.2520, 22.00506
814.7341, 22.11825
815.2162, 21.98504
815.6984, 21.63203
816.1805, 21.31647
816.6626, 21.12829
817.1447, 21.02808
817.6268, 20.96220
818.1089, 20.97681
818.5911, 21.22714
819.0732, 21.67048
819.5553, 22.00208
820.0374, 22.01672
820.5195, 21.84034
821.0016, 21.73759
821.4838, 21.71264
821.9659, 21.57382
822.4480, 21.23432
822.9301, 21.03430
823.4122, 21.21680
823.8943, 21.57837
824.3765, 21.76639
824.8586, 21.75177
825.3407, 21.71561
825.8228, 21.68189
826.3049, 21.60500
826.7870, 21.42308
827.2692, 21.22053
827.7513, 21.03890
828.2334, 20.91580
828.7155, 20.95911
829.1976, 21.28919
829.6797, 21.69284
830.1619, 21.99221
830.6440, 22.16677
831.1261, 22.08518
831.6082, 21.77277
832.0903, 21.58135
832.5724, 21.72909
833.0546, 22.02226
833.5367, 22.06403
834.0188, 21.80409
834.5009, 21.63659
834.9830, 21.53782
835.4651, 21.58737
835.9473, 21.99762
836.4294, 22.42715
836.9115, 22.42408
837.3936, 22.01760
837.8757, 21.81319
838.3578, 22.16051
838.8400, 22.40565
839.3221, 22.21074
839.8042, 21.86620
840.2863, 21.62113
840.7684, 21.50461
841.2505, 21.48694
841.7327, 21.56613
842.2148, 21.64727
842.6969, 21.59408
843.1790, 21.45665
843.6611, 21.38404
844.1432, 21.38013
844.6254, 21.35676
845.1075, 21.27134
845.5896, 21.18655
846.0717, 21.18915
846.5538, 21.27937
847.0359, 21.36271
847.5181, 21.43045
848.0002, 21.50743
848.4823, 21.60938
848.9644, 21.71208
849.4465, 21.87201
849.9286, 22.01941
850.4108, 21.90652
850.8929, 21.24790
851.3750, 20.88861
851.8571, 21.37696
852.3392, 22.06081
852.8214, 22.48603
853.3035, 22.66145
853.7856, 22.65572
854.2677, 22.50966
854.7498, 22.37499
855.2319, 22.44578
855.7141, 22.60505
856.1962, 22.60107
856.6783, 22.44004
857.1604, 22.06729
857.6425, 21.44235
858.1246, 21.06352
858.6068, 21.41231
859.0889, 22.25397
859.5710, 22.67576
860.0531, 22.42231
860.5352, 22.44679
861.0173, 23.22170
861.4995, 23.69393
861.9816, 23.06482
862.4637, 22.04233
862.9458, 21.57362
863.4279, 21.75585
863.9100, 21.95994
864.3922, 22.05641
864.8743, 22.10491
865.3564, 22.09316
865.8385, 22.07759
866.3206, 22.16818
866.8027, 22.33096
867.2849, 22.37695
867.7670, 22.17037
868.2491, 21.91341
868.7312, 21.92480
869.2133, 22.08901
869.6954, 22.04196
870.1776, 21.77291
870.6597, 21.55864
871.1418, 21.53609
871.6239, 21.51611
872.1060, 21.20013
872.5881, 20.59240
873.0703, 20.22699
873.5524, 20.15728
874.0345, 20.19775
874.5166, 20.35059
874.9987, 20.55450
875.4808, 20.91213
875.9630, 21.28480
876.4451, 21.19220
876.9272, 20.24543
877.4093, 19.61160
877.8914, 19.72901
878.3735, 20.00968
878.8557, 20.14936
879.3378, 20.18590
879.8199, 20.22077
880.3020, 20.27619
880.7841, 20.31045
881.2662, 20.32170
881.7484, 20.27175
882.2305, 20.06693
882.7126, 19.77351
883.1947, 19.54315
883.6768, 19.40078
884.1589, 19.28852
884.6411, 19.16085
885.1232, 19.10117
885.6053, 19.37941
886.0874, 20.01576
886.5695, 20.16656
887.0516, 19.70447
887.5338, 19.17533
888.0159, 18.66969
888.4980, 18.38645
888.9801, 18.68068
889.4622, 19.55006
889.9443, 19.99235
890.4265, 19.66548
890.9086, 19.40901
891.3907, 19.42056
891.8728, 19.40455
892.3549, 19.05389
892.8370, 18.57636
893.3192, 18.42257
893.8013, 18.72877
894.2834, 19.02048
894.7655, 18.99201
895.2476, 18.92438
895.7297, 19.15424
896.2119, 19.47090
896.6940, 19.42324
897.1761, 19.00056
897.6582, 18.68225
898.1403, 18.83821
898.6224, 19.16233
899.1046, 19.12117
899.5867, 18.80304
900.0688, 18.59010
900.5509, 18.51822
901.0330, 18.51343
901.5151, 18.54181
901.9973, 18.62189
902.4794, 18.81636
902.9615, 19.12566
903.4436, 19.11022
903.9257, 18.57779
904.4078, 18.23359
904.8900, 18.35308
905.3721, 18.53106
905.8542, 18.39887
906.3363, 18.08497
906.8184, 17.99744
907.3005, 18.25562
907.7827, 18.46224
908.2648, 18.56683
908.7469, 18.61197
909.2290, 18.64685
909.7111, 18.61724
910.1932, 18.35714
910.6754, 17.91488
911.1575, 17.69904
911.6396, 18.05819
912.1217, 18.49085
912.6038, 18.62577
913.0859, 18.56135
913.5681, 18.31914
914.0502, 18.00663
914.5323, 17.96395
915.0144, 18.33333
915.4965, 18.74652
915.9786, 18.76043
916.4607, 18.45773
916.9428, 18.04779
917.4249, 17.55332
917.9070, 17.31946
918.3892, 17.44082
918.8713, 17.73977
919.3534, 18.11946
919.8355, 18.49441
920.3176, 18.57034
920.7997, 18.24011
921.2819, 18.01720
921.7640, 17.96045
922.2461, 17.90882
922.7282, 17.79133
923.2103, 17.65498
923.6924, 17.52669
924.1746, 17.41063
924.6567, 17.43191
925.1388, 17.82324
925.6209, 18.03042
926.1030, 17.81466
926.5851, 17.51739
927.0673, 17.27907
927.5494, 17.15866
928.0315, 17.26984
928.5136, 17.64716
928.9957, 17.98783
929.4778, 18.16704
929.9600, 18.21208
930.4421, 18.06427
930.9242, 17.83867
931.4063, 17.73703
931.8884, 17.74998
932.3705, 17.66633
932.8527, 17.34238
933.3348, 17.05488
933.8169, 17.30061
934.2990, 17.83430
934.7811, 17.91077
935.2632, 17.57216
935.7454, 17.35678
936.2275, 17.44151
936.7096, 17.64190
937.1917, 17.79145
937.6738, 17.89005
938.1559, 17.93992
938.6381, 17.94239
939.1202, 17.86752
939.6023, 17.68122
940.0844, 17.51224
940.5665, 17.39268
941.0486, 17.37796
941.5308, 17.61673
942.0129, 18.16594
942.4950, 18.33721
942.9771, 17.68403
943.4592, 17.32924
943.9413, 17.73051
944.4235, 18.17029
944.9056, 18.19309
945.3877, 17.92817
945.8698, 17.64206
946.3519, 17.32285
946.8340, 17.19201
947.3162, 17.39926
947.7983, 17.70140
948.2804, 18.08332
948.7625, 18.41673
949.2446, 18.57329
949.7267, 18.54748
950.2089, 18.36905
950.6910, 17.98395
951.1731, 17.67307
951.6552, 17.72498
952.1373, 17.92527
952.6194, 18.08718
953.1016, 18.15388
953.5837, 17.94064
954.0658, 17.45896
954.5479, 17.18148
955.0300, 17.59662
955.5121, 18.24699
955.9943, 18.18410
956.4764, 17.61352
956.9585, 17.37868
957.4406, 17.54946
957.9227, 17.75748
958.4048, 17.83577
958.8870, 17.83261
959.3691, 17.78998
959.8512, 17.72627
960.3333, 17.84322
960.8154, 18.19558
961.2975, 18.29661
961.7797, 18.00482
962.2618, 17.61539
962.7439, 17.24312
963.2260, 16.99662
963.7081, 17.14926
964.1902, 17.81841
964.6724, 18.26608
965.1545, 18.46182
965.6366, 18.48243
966.1187, 18.27842
966.6008, 17.96728
967.0829, 17.49310
967.5651, 16.98911
968.0472, 16.89624
968.5293, 17.43221
969.0114, 17.86206
969.4935, 18.14902
969.9756, 18.23843
970.4578, 17.86681
970.9399, 17.45285
971.4220, 17.55042
971.9041, 18.07157
972.3862, 18.36731
972.8683, 18.11520
973.3505, 17.83298
973.8326, 17.79019
974.3147, 17.82767
974.7968, 17.78944
975.2789, 17.73153
975.7610, 17.79306
976.2432, 17.98584
976.7253, 18.16815
977.2074, 18.24483
977.6895, 18.27606
978.1716, 18.28777
978.6537, 18.31909
979.1359, 18.48358
979.6180, 18.73676
980.1001, 18.91139
980.5822, 18.94301
981.0643, 18.85205
981.5464, 18.63517
982.0286, 18.33664
982.5107, 17.95444
982.9928, 17.56896
983.4749, 17.67919
983.9570, 18.31672
984.4391, 18.85362
984.9213, 18.95694
985.4034, 18.82565
985.8855, 18.71837
986.3676, 18.64061
986.8497, 18.61498
987.3318, 18.62675
987.8140, 18.93789
988.2961, 19.69591
988.7782, 20.29745
989.2603, 20.32783
989.7424, 19.98203
990.2245, 19.63324
990.7067, 19.25808
991.1888, 19.08677
991.6709, 19.21186
992.1530, 19.30973
992.6351, 19.27630
993.1172, 19.23761
993.5994, 19.28316
994.0815, 19.40079
994.5636, 19.56554
995.0457, 19.84100
995.5278, 19.98273
996.0099, 19.81159
996.4921, 19.74218
996.9742, 20.06676
997.4563, 20.37643
997.9384, 20.19882
998.4205, 19.70722
998.9026, 19.56193
999.3848, 20.02416
999.8669, 20.36295
1000.349, 20.21773
1000.831, 20.17560
1001.313, 20.68598
1001.795, 21.32871
1002.277, 21.66620
1002.760, 21.68112
1003.242, 21.53582
1003.724, 21.18995
1004.206, 20.92248
1004.688, 20.91344
1005.170, 20.97948
1005.652, 20.99589
1006.134, 20.98372
1006.617, 20.97765
1007.099, 20.99048
1007.581, 21.04919
1008.063, 21.20698
1008.545, 21.31428
1009.027, 21.21302
1009.509, 21.02513
1009.991, 20.78767
1010.473, 20.61197
1010.956, 20.77524
1011.438, 21.28749
1011.920, 21.77542
1012.402, 21.98026
1012.884, 22.06077
1013.366, 22.20484
1013.848, 22.36799
1014.330, 22.45609
1014.813, 22.48321
1015.295, 22.49136
1015.777, 22.50709
1016.259, 22.64035
1016.741, 23.03467
1017.223, 23.49370
1017.705, 23.62302
1018.187, 23.50934
1018.669, 23.34480
1019.152, 23.20322
1019.634, 23.50900
1020.116, 24.40869
1020.598, 25.38940
1021.080, 25.94647
1021.562, 26.14317
1022.044, 26.03726
1022.526, 25.67751
1023.008, 25.61219
1023.491, 25.89549
1023.973, 26.23020
1024.455, 26.50238
1024.937, 26.66047
1025.419, 26.59412
1025.901, 26.41150
1026.383, 26.69176
1026.865, 27.48268
1027.348, 27.96729
1027.830, 28.01551
1028.312, 28.06207
1028.794, 28.28434
1029.276, 28.66519
1029.758, 29.22793
1030.240, 29.92100
1030.722, 30.29176
1031.204, 30.27172
1031.687, 30.18904
1032.169, 29.95657
1032.651, 30.03296
1033.133, 30.74311
1033.615, 31.67448
1034.097, 32.29371
1034.579, 32.62039
1035.061, 32.92585
1035.544, 33.16245
1036.026, 33.50382
1036.508, 33.99670
1036.990, 34.53153
1037.472, 35.03489
1037.954, 35.57964
1038.436, 36.32925
1038.918, 37.26528
1039.401, 37.84932
1039.883, 37.69151
1040.365, 37.90752
1040.847, 38.78772
1041.329, 39.75476
1041.811, 40.71569
1042.293, 41.52629
1042.775, 41.82619
1043.257, 41.64193
1043.740, 42.04830
1044.222, 43.57643
1044.704, 44.87375
1045.186, 45.80674
1045.668, 46.57932
1046.150, 47.21775
1046.632, 47.78593
1047.114, 48.25428
1047.596, 48.65825
1048.079, 49.42724
1048.561, 50.96828
1049.043, 52.30989
1049.525, 53.19568
1050.007, 54.01976
1050.489, 54.82614
1050.971, 55.77319
1051.453, 57.11617
1051.936, 58.81455
1052.418, 60.42660
1052.900, 61.90177
1053.382, 63.25882
1053.864, 64.41707
1054.346, 65.57176
1054.828, 66.70596
1055.310, 67.97523
1055.792, 69.57985
1056.275, 71.49934
1056.757, 73.50037
1057.239, 75.58566
1057.721, 77.63741
1058.203, 79.44373
1058.685, 81.41227
1059.167, 83.80271
1059.649, 86.44376
1060.131, 89.14037
1060.614, 91.88982
1061.096, 94.83833
1061.578, 98.08714
1062.060, 101.3136
1062.542, 104.0721
1063.024, 107.1387
1063.506, 111.1023
1063.988, 115.5127
1064.471, 119.7331
1064.953, 123.8748
1065.435, 128.5420
1065.917, 133.9509
1066.399, 139.8509
1066.881, 146.2244
1067.363, 152.9753
1067.845, 159.5569
1068.328, 166.8531
1068.810, 175.6701
1069.292, 186.0418
1069.774, 197.8776
1070.256, 211.2200
1070.738, 225.5300
1071.220, 240.1559
1071.702, 256.0404
1072.184, 273.4467
1072.667, 292.5432
1073.149, 313.7896
1073.631, 336.6426
1074.113, 359.4821
1074.595, 381.7302
1075.077, 405.0797
1075.559, 430.7729
1076.041, 456.9122
1076.523, 482.6190
1077.006, 508.0618
1077.488, 532.6797
1077.970, 557.5175
1078.452, 585.2097
1078.934, 616.3649
1079.416, 647.1016
1079.898, 674.4476
1080.380, 702.7543
1080.862, 736.3675
1081.345, 770.3210
1081.827, 799.2335
1082.309, 829.9809
1082.791, 853.9346
1083.273, 885.6150
1083.755, 913.7207
1084.237, 938.1868
1084.719, 954.8301
1085.202, 960.2546
1085.684, 958.3381
1086.166, 952.9046
1086.648, 941.9420
1087.130, 921.5364
1087.612, 891.5858
1088.094, 855.7086
1088.576, 814.0919
1089.058, 769.4444
1089.541, 721.4436
1090.023, 672.1531
1090.505, 621.3484
1090.987, 571.1592
1091.469, 523.4987
1091.951, 478.6850
1092.433, 436.4877
1092.915, 397.0218
1093.397, 360.1219
1093.880, 325.2713
1094.362, 293.7264
1094.844, 267.3293
1095.326, 244.2007
1095.808, 222.4265
1096.290, 202.0964
1096.772, 183.8769
1097.254, 168.0707
1097.737, 154.2443
1098.219, 143.0622
1098.701, 132.9253
1099.183, 123.1835
1099.665, 114.0587
1100.147, 105.5507
1100.629, 97.89478
1101.111, 91.57335
1101.594, 86.69042
1102.076, 82.36050
1102.558, 78.86281
1103.040, 75.14415
1103.522, 69.87874
1104.004, 65.24155
1104.486, 63.61360
1104.968, 63.24278
1105.450, 61.03135
1105.932, 56.75365
1106.415, 53.19020
1106.897, 51.22902
1107.379, 49.48748
1107.861, 47.75100
1108.343, 46.11822
1108.825, 44.67788
1109.307, 43.33655
1109.789, 41.93469
1110.272, 40.50796
1110.754, 39.29375
1111.236, 38.40694
1111.718, 37.55842
1112.200, 36.65588
1112.682, 35.87007
1113.164, 35.39036
1113.646, 34.93330
1114.129, 34.23089
1114.611, 33.33900
1115.093, 32.42714
1115.575, 31.36605
1116.057, 30.69854
1116.539, 30.81286
1117.021, 30.73084
1117.503, 30.15438
1117.985, 29.45831
1118.468, 28.87384
1118.950, 28.33815
1119.432, 27.69042
1119.914, 26.89630
1120.396, 26.42303
1120.878, 26.45387
1121.360, 26.40988
1121.842, 26.19653
1122.324, 25.95920
1122.807, 25.80619
1123.289, 25.60239
1123.771, 25.08805
1124.253, 25.12070
1124.735, 24.17744
1125.217, 24.84286
1125.699, 25.07256
1126.181, 24.66046
1126.664, 24.27221
1127.146, 24.13383
1127.628, 24.11890
1128.110, 24.17087
1128.592, 24.18099
1129.074, 23.73446
1129.556, 22.74053
1130.038, 22.36901
1130.521, 22.73878
1131.003, 22.87202
1131.485, 22.52353
1131.967, 22.03774
1132.449, 21.59359
1132.931, 21.31541
1133.413, 21.47908
1133.895, 21.98516
1134.377, 22.07585
1134.859, 21.76981
1135.342, 21.68575
1135.824, 21.89921
1136.306, 21.87076
1136.788, 21.35595
1137.270, 20.84967
1137.752, 20.90573
1138.234, 21.28665
1138.716, 21.44779
1139.199, 21.41604
1139.681, 21.21577
1140.163, 20.91427
1140.645, 20.94400
1141.127, 21.37020
1141.609, 21.60119
1142.091, 21.19775
1142.573, 20.63180
1143.056, 20.61567
1143.538, 20.88272
1144.020, 20.89562
1144.502, 20.73686
1144.984, 20.63581
1145.466, 20.62364
1145.948, 20.65762
1146.430, 20.71677
1146.912, 20.72940
1147.395, 20.59911
1147.877, 20.42846
1148.359, 20.25042
1148.841, 20.16258
1149.323, 20.46638
1149.805, 20.92583
1150.287, 20.91650
1150.769, 20.38031
1151.251, 19.99239
1151.734, 20.19664
1152.216, 20.40393
1152.698, 20.09047
1153.180, 19.76019
1153.662, 19.87691
1154.144, 20.20207
1154.626, 20.45239
1155.108, 20.58793
1155.591, 20.61428
1156.073, 20.50573
1156.555, 20.46540
1157.037, 20.74872
1157.519, 20.86963
1158.001, 20.42431
1158.483, 19.94352
1158.965, 19.87626
1159.448, 20.03530
1159.930, 20.04705
1160.412, 19.88508
1160.894, 19.85362
1161.376, 20.09106
1161.858, 20.29376
1162.340, 20.46866
1162.822, 20.56119
1163.304, 20.46101
1163.786, 20.36123
1164.269, 20.50203
1164.751, 20.77578
1165.233, 20.79619
1165.715, 20.48523
1166.197, 20.26244
1166.679, 20.13486
1167.161, 20.08831
1167.643, 20.16137
1168.126, 20.17544
1168.608, 19.94890
1169.090, 19.79791
1169.572, 20.28695
1170.054, 21.26528
1170.536, 21.47037
1171.018, 20.85508
1171.500, 20.61665
1171.983, 20.87006
1172.465, 21.05519
1172.947, 20.98012
1173.429, 20.72539
1173.911, 20.32976
1174.393, 19.92854
1174.875, 19.76517
1175.357, 19.81550
1175.839, 20.04870
1176.322, 20.40738
1176.804, 20.70830
1177.286, 20.89487
1177.768, 20.80930
1178.250, 20.39242
1178.732, 20.04557
1179.214, 20.24010
1179.696, 20.04850
1180.178, 20.50797
1180.661, 20.29150
1181.143, 20.47698
1181.625, 20.90854
1182.107, 21.20682
1182.589, 21.27017
1183.071, 21.08289
1183.553, 20.55962
1184.035, 20.10451
1184.518, 19.96285
1185.000, 19.99202
1185.482, 20.18319
1185.964, 20.41679
1186.446, 20.55859
1186.928, 20.64698
1187.410, 20.83481
1187.892, 21.15297
1188.375, 21.27964
1188.857, 21.00025
1189.339, 20.73074
1189.821, 20.49217
1190.303, 20.35949
1190.785, 20.40545
1191.267, 20.54724
1191.749, 20.77892
1192.231, 21.02357
1192.714, 20.94013
1193.196, 21.04867
1193.678, 21.13068
1194.160, 20.81826
1194.642, 21.06884
1195.124, 20.59389
1195.606, 20.10818
1196.088, 20.01800
1196.570, 20.14615
1197.053, 20.26684
1197.535, 20.37241
1198.017, 20.39493
1198.499, 20.33949
1198.981, 20.47726
1199.463, 20.81011
1199.945, 20.91967
1200.427, 20.69629
1200.910, 20.48113
1201.392, 20.51316
1201.874, 20.63552
1202.356, 20.55622
1202.838, 20.44427
1203.320, 20.84479
1203.802, 21.43099
1204.284, 21.34637
1204.766, 20.72049
1205.249, 20.27688
1205.731, 20.23621
1206.213, 20.33563
1206.695, 20.45176
1207.177, 20.56000
1207.659, 20.62850
1208.141, 20.69374
1208.623, 20.85723
1209.105, 20.98633
1209.588, 20.79209
1210.070, 20.42906
1210.552, 20.46087
1211.034, 21.07385
1211.516, 21.38001
1211.998, 20.85692
1212.480, 20.46887
1212.962, 20.51218
1213.445, 20.67093
1213.927, 20.91022
1214.409, 21.06967
1214.891, 20.90810
1215.373, 20.52248
1215.855, 20.36243
1216.337, 20.50477
1216.819, 20.53074
1217.302, 20.40504
1217.784, 20.28098
1218.266, 20.16329
1218.748, 20.19850
1219.230, 20.49578
1219.712, 20.85359
1220.194, 21.02238
1220.676, 21.03100
1221.158, 20.91271
1221.641, 20.71525
1222.123, 20.75068
1222.605, 20.97094
1223.087, 21.03757
1223.569, 20.87969
1224.051, 20.60015
1224.533, 20.24447
1225.015, 20.02198
1225.497, 20.23883
1225.980, 20.60819
1226.462, 20.84147
1226.944, 20.98560
1227.426, 21.07456
1227.908, 21.14194
1228.390, 21.26681
1228.872, 21.43572
1229.354, 21.48998
1229.837, 21.36308
1230.319, 21.15432
1230.801, 20.67088
1231.283, 20.40884
1231.765, 20.90996
1232.247, 21.38774
1232.729, 21.03321
1233.211, 20.32901
1233.693, 20.22320
1234.176, 20.68712
1234.658, 20.85315
1235.140, 20.59463
1235.622, 20.43897
1236.104, 20.46495
1236.586, 20.35464
1237.068, 19.96211
1237.550, 19.67082
1238.032, 19.77751
1238.515, 20.06721
1238.997, 20.18758
1239.479, 20.18204
1239.961, 20.18974
1240.443, 20.23379
1240.925, 20.50957
1241.407, 20.94055
1241.889, 21.06317
1242.372, 20.79594
1242.854, 20.58536
1243.336, 20.71371
1243.818, 20.94190
1244.300, 21.11164
1244.782, 21.20521
1245.264, 21.20992
1245.746, 21.12525
1246.229, 20.87292
1246.711, 20.56362
1247.193, 20.40435
1247.675, 20.42408
1248.157, 20.52026
1248.639, 20.75109
1249.121, 20.88795
1249.603, 20.78165
1250.085, 20.72947
1250.568, 20.96942
1251.050, 21.09625
1251.532, 20.68229
1252.014, 20.15863
1252.496, 20.30065
1252.978, 21.02731
1253.460, 21.47024
1253.942, 21.63713
1254.424, 21.32554
1254.907, 20.49886
1255.389, 20.03051
1255.871, 20.15712
1256.353, 20.38282
1256.835, 20.39406
1257.317, 20.31630
1257.799, 20.29159
1258.281, 20.30464
1258.764, 20.37152
1259.246, 20.42993
1259.728, 20.28028
1260.210, 20.05571
1260.692, 20.17168
1261.174, 20.59198
1261.656, 20.72470
1262.138, 20.25946
1262.620, 19.91136
1263.103, 20.12486
1263.585, 20.37496
1264.067, 20.50794
1264.549, 20.50962
1265.031, 20.20307
1265.513, 19.87654
1265.995, 19.99421
1266.477, 20.45376
1266.959, 20.71764
1267.442, 20.76222
1267.924, 20.69259
1268.406, 20.47428
1268.888, 20.30270
1269.370, 20.21983
1269.852, 20.14553
1270.334, 20.04074
1270.816, 19.90789
1271.299, 19.70180
1271.781, 19.60335
1272.263, 20.14500
1272.745, 21.00712
1273.227, 21.48840
1273.709, 21.59710
1274.191, 21.28651
1274.673, 20.72292
1275.156, 20.42257
1275.638, 20.54134
1276.120, 20.66328
1276.602, 20.60468
1277.084, 20.42117
1277.566, 19.87522
1278.048, 19.52979
1278.530, 20.01725
1279.012, 20.61310
1279.495, 20.46479
1279.977, 19.90161
1280.459, 19.79205
1280.941, 20.14472
1281.423, 20.41369
1281.905, 20.62787
1282.387, 20.60407
1282.869, 20.25312
1283.351, 20.14849
1283.834, 20.48543
1284.316, 20.83831
1284.798, 20.92312
1285.280, 20.83072
1285.762, 20.67292
1286.244, 20.45887
##END=



