##NAMES=Siderite
##RRUFFID=R050262
##IDEAL CHEMISTRY=Fe^2+^CO_3_
##LOCALITY=Panasqueira mine, Barroca Grande, Beira Baixa, Portugal
##OWNER=RRUFF
##SOURCE=Marcus Origlieri
##DESCRIPTION=Group of yellowish brown flattened twinned crystals
##STATUS=The identification of this mineral has been confirmed by X-ray diffraction and chemical analysis
##URL=rruff.info/R050262
##MEASURED CHEMISTRY=(Fe_0.71_Mg_0.24_Mn_0.05_)_Σ=1_CO_3_ ; light :  (Fe_0.60_Mg_0.36_Mn_0.04_)_Σ=1_CO_3_ ; intermediate : (Fe_0.54_Mg_0.42_Mn_0.04_)_Σ=1_CO_3_ ; darker :  (Mg_0.54_Fe_0.42_Mn_0.04_)_Σ=1_CO_3_ darkest = magnesite
92.19073, 0.0000000E+00
92.67285, 122.1509
93.15497, 123.0839
93.63708, 123.0557
94.11920, 123.1772
94.60132, 124.2570
95.08344, 126.4184
95.56555, 127.1775
96.04767, 126.5781
96.52979, 125.5381
97.01190, 124.3133
97.49402, 123.4714
97.97614, 123.4557
98.45825, 123.0319
98.94037, 122.0739
99.42249, 120.4894
99.90460, 118.0898
100.3867, 114.7155
100.8688, 111.5816
101.3510, 110.5581
101.8331, 112.2423
102.3152, 114.1147
102.7973, 114.1990
103.2794, 112.4092
103.7615, 110.6721
104.2437, 109.6575
104.7258, 109.1455
105.2079, 109.1486
105.6900, 109.8021
106.1721, 110.7396
106.6542, 111.1243
107.1364, 110.6516
107.6185, 110.0113
108.1006, 109.7325
108.5827, 109.3737
109.0648, 108.1588
109.5469, 105.3384
110.0291, 100.9862
110.5112, 98.85273
110.9933, 101.0085
111.4754, 103.2982
111.9575, 104.6324
112.4396, 105.0050
112.9218, 104.9265
113.4039, 104.8749
113.8860, 104.8985
114.3681, 104.5978
114.8502, 103.5565
115.3323, 102.4829
115.8145, 101.8481
116.2966, 101.7417
116.7787, 102.1278
117.2608, 103.2507
117.7429, 105.1693
118.2250, 106.6225
118.7072, 107.1813
119.1893, 107.0712
119.6714, 106.6823
120.1535, 105.8586
120.6356, 105.1625
121.1177, 105.2957
121.5999, 106.2644
122.0820, 107.2185
122.5641, 107.4336
123.0462, 106.8662
123.5283, 106.3770
124.0104, 106.1566
124.4925, 106.0993
124.9747, 106.2645
125.4568, 106.6573
125.9389, 107.0256
126.4210, 106.8895
126.9031, 105.8119
127.3852, 105.1300
127.8674, 104.9399
128.3495, 105.1583
128.8316, 105.8951
129.3137, 107.1992
129.7958, 108.7596
130.2780, 109.4289
130.7601, 108.1174
131.2422, 107.0327
131.7243, 106.2345
132.2064, 105.8397
132.6885, 106.1121
133.1707, 107.3183
133.6528, 109.3033
134.1349, 110.4233
134.6170, 110.0454
135.0991, 109.6083
135.5812, 109.8328
136.0634, 110.6405
136.5455, 111.4662
137.0276, 111.9325
137.5097, 112.0341
137.9918, 111.9582
138.4739, 111.0984
138.9561, 110.3781
139.4382, 111.1481
139.9203, 113.8315
140.4024, 116.3186
140.8845, 116.6899
141.3666, 115.7284
141.8488, 114.7263
142.3309, 114.2205
142.8130, 114.0948
143.2951, 113.9311
143.7772, 113.5564
144.2593, 113.4149
144.7415, 113.6654
145.2236, 114.2778
145.7057, 115.1646
146.1878, 116.2482
146.6699, 117.5178
147.1520, 119.1128
147.6342, 122.0186
148.1163, 124.4326
148.5984, 125.6205
149.0805, 125.6268
149.5626, 124.9262
150.0447, 123.8430
150.5269, 121.7335
151.0090, 121.3542
151.4911, 123.8115
151.9732, 126.7840
152.4553, 128.8968
152.9374, 129.8725
153.4196, 130.3100
153.9017, 131.0457
154.3838, 132.2035
154.8659, 133.4870
155.3480, 134.8817
155.8301, 136.4082
156.3122, 138.2451
156.7944, 140.4888
157.2765, 142.6868
157.7586, 143.7570
158.2407, 143.3182
158.7228, 143.4721
159.2049, 145.2156
159.6871, 147.9773
160.1692, 150.4038
160.6513, 151.8588
161.1334, 153.0775
161.6155, 155.1743
162.0976, 158.2571
162.5798, 161.5139
163.0619, 164.4610
163.5440, 167.1121
164.0261, 169.6257
164.5082, 171.7242
164.9903, 173.9362
165.4725, 176.7904
165.9546, 180.3808
166.4367, 184.2744
166.9188, 187.8459
167.4009, 190.9354
167.8830, 194.4344
168.3652, 198.5275
168.8473, 203.1156
169.3294, 208.4065
169.8115, 214.4846
170.2936, 220.7792
170.7757, 226.1749
171.2579, 230.1768
171.7400, 234.0966
172.2221, 237.7090
172.7042, 241.5226
173.1863, 246.0808
173.6684, 251.6233
174.1506, 257.8804
174.6327, 264.0226
175.1148, 270.2541
175.5969, 276.1317
176.0790, 281.3049
176.5611, 286.1751
177.0433, 291.4729
177.5254, 297.6426
178.0075, 304.2762
178.4896, 309.2920
178.9717, 311.0367
179.4538, 313.2158
179.9360, 316.6890
180.4181, 321.2111
180.9002, 326.3522
181.3823, 332.0130
181.8644, 337.9697
182.3465, 343.0871
182.8287, 347.1203
183.3108, 350.7054
183.7929, 353.9784
184.2750, 356.9837
184.7571, 360.0047
185.2392, 363.2982
185.7214, 366.6721
186.2035, 369.6629
186.6856, 372.3307
187.1677, 374.5315
187.6498, 376.1349
188.1319, 377.1426
188.6141, 377.6277
189.0962, 377.8837
189.5783, 377.4952
190.0604, 375.8748
190.5425, 372.9736
191.0246, 368.6873
191.5068, 362.5075
191.9889, 353.9162
192.4710, 345.1314
192.9531, 337.5430
193.4352, 330.2194
193.9173, 322.1548
194.3995, 312.9781
194.8816, 302.8193
195.3637, 291.6533
195.8458, 278.6976
196.3279, 266.2531
196.8100, 255.2460
197.2922, 244.9114
197.7743, 234.3256
198.2564, 222.8992
198.7385, 211.0855
199.2206, 200.6652
199.7027, 192.7623
200.1849, 184.9225
200.6670, 176.3637
201.1491, 167.7025
201.6312, 159.7092
202.1133, 152.8565
202.5954, 147.0948
203.0776, 142.1600
203.5597, 138.5317
204.0418, 135.3500
204.5239, 132.8713
205.0060, 130.7156
205.4881, 128.2803
205.9703, 125.1400
206.4524, 121.4521
206.9345, 118.7341
207.4166, 117.6822
207.8987, 116.7151
208.3808, 115.4799
208.8630, 114.0313
209.3451, 112.5186
209.8272, 111.0109
210.3093, 109.5335
210.7914, 108.2437
211.2735, 106.8769
211.7557, 105.9118
212.2378, 105.7092
212.7199, 106.1078
213.2020, 106.6064
213.6841, 106.9360
214.1662, 107.1187
214.6484, 107.3075
215.1305, 108.1307
215.6126, 108.3758
216.0947, 106.7990
216.5768, 103.7162
217.0589, 101.2120
217.5411, 100.6012
218.0232, 101.3733
218.5053, 101.8409
218.9874, 101.7207
219.4695, 101.6139
219.9516, 102.1720
220.4338, 103.3771
220.9159, 104.2846
221.3980, 104.1963
221.8801, 103.6407
222.3622, 103.4127
222.8443, 103.7498
223.3265, 104.1785
223.8086, 104.0128
224.2907, 103.1388
224.7728, 102.7754
225.2549, 104.2391
225.7370, 106.0841
226.2192, 106.9561
226.7013, 106.4403
227.1834, 105.2944
227.6655, 104.4289
228.1476, 103.9014
228.6297, 103.4065
229.1119, 102.4698
229.5940, 101.7404
230.0761, 101.8473
230.5582, 102.9960
231.0403, 104.5838
231.5224, 105.5448
232.0046, 105.3777
232.4867, 106.1093
232.9688, 109.4067
233.4509, 112.9005
233.9330, 114.8219
234.4151, 114.6892
234.8973, 113.3759
235.3794, 112.1488
235.8615, 110.8149
236.3436, 110.0547
236.8257, 109.7329
237.3078, 110.0111
237.7900, 111.3696
238.2721, 113.8076
238.7542, 116.4437
239.2363, 117.7603
239.7184, 116.9350
240.2005, 116.3583
240.6827, 115.6726
241.1648, 115.4690
241.6469, 116.3474
242.1290, 118.3627
242.6111, 120.9706
243.0932, 123.4834
243.5754, 126.7777
244.0575, 127.9432
244.5396, 124.7539
245.0217, 121.2165
245.5038, 120.4745
245.9859, 122.9848
246.4681, 126.7520
246.9502, 129.1319
247.4323, 129.5143
247.9144, 129.8194
248.3965, 129.7466
248.8786, 129.8033
249.3608, 130.3364
249.8429, 131.4056
250.3250, 132.8960
250.8071, 134.7287
251.2892, 137.0479
251.7713, 139.1506
252.2535, 141.0901
252.7356, 142.7732
253.2177, 143.8920
253.6998, 144.4973
254.1819, 145.2632
254.6640, 146.9119
255.1462, 149.6208
255.6283, 152.2154
256.1104, 154.8711
256.5925, 157.2786
257.0746, 159.0404
257.5567, 160.1905
258.0388, 161.3039
258.5210, 162.6680
259.0031, 164.4060
259.4852, 167.3365
259.9673, 172.8690
260.4494, 178.5578
260.9315, 182.1403
261.4137, 183.7142
261.8958, 185.6563
262.3779, 189.7240
262.8600, 195.7571
263.3421, 201.6734
263.8242, 207.2734
264.3064, 212.8624
264.7885, 218.4160
265.2706, 223.9838
265.7527, 230.1612
266.2348, 237.3939
266.7169, 245.4637
267.1991, 253.5267
267.6812, 261.1111
268.1633, 269.1781
268.6454, 278.4124
269.1275, 288.7621
269.6096, 299.8954
270.0918, 311.8223
270.5739, 324.4057
271.0560, 337.1122
271.5381, 349.5880
272.0202, 363.0734
272.5023, 378.6715
272.9845, 396.2190
273.4666, 414.2251
273.9487, 432.3511
274.4308, 450.7279
274.9129, 469.4382
275.3951, 488.3843
275.8772, 507.8047
276.3593, 527.3000
276.8414, 547.1335
277.3235, 569.2054
277.8056, 594.7295
278.2878, 621.8217
278.7699, 648.4518
279.2520, 674.8230
279.7341, 700.6260
280.2162, 725.1268
280.6983, 748.8036
281.1805, 773.6188
281.6626, 800.3414
282.1447, 827.5598
282.6268, 853.8610
283.1089, 879.4897
283.5910, 905.5330
284.0732, 932.8566
284.5553, 961.0738
285.0374, 989.1381
285.5195, 1017.117
286.0016, 1044.523
286.4837, 1071.797
286.9659, 1098.415
287.4480, 1123.144
287.9301, 1144.847
288.4122, 1164.394
288.8943, 1184.219
289.3764, 1205.328
289.8586, 1224.533
290.3407, 1240.857
290.8228, 1254.607
291.3049, 1266.145
291.7870, 1275.458
292.2691, 1282.713
292.7513, 1288.874
293.2334, 1295.069
293.7155, 1296.596
294.1976, 1289.752
294.6797, 1278.629
295.1618, 1266.665
295.6440, 1255.089
296.1261, 1242.430
296.6082, 1226.961
297.0903, 1208.904
297.5724, 1186.948
298.0545, 1158.327
298.5367, 1126.829
299.0188, 1094.513
299.5009, 1061.739
299.9830, 1028.265
300.4651, 993.5878
300.9472, 957.3975
301.4294, 920.7877
301.9115, 882.9558
302.3936, 845.3355
302.8757, 808.0065
303.3578, 771.1807
303.8399, 736.0370
304.3221, 703.9249
304.8042, 674.9649
305.2863, 645.5705
305.7684, 614.2723
306.2505, 583.8895
306.7326, 555.4592
307.2148, 529.0061
307.6969, 504.4044
308.1790, 481.7566
308.6611, 460.9647
309.1432, 441.1446
309.6253, 422.7374
310.1075, 404.8402
310.5896, 386.5680
311.0717, 368.7041
311.5538, 352.4593
312.0359, 338.7080
312.5180, 326.7494
313.0002, 314.4354
313.4823, 301.0829
313.9644, 288.8524
314.4465, 278.1362
314.9286, 268.6423
315.4107, 260.2938
315.8929, 253.0835
316.3750, 246.4233
316.8571, 239.2358
317.3392, 231.0662
317.8213, 223.6882
318.3034, 217.5474
318.7856, 212.2129
319.2677, 207.7007
319.7498, 203.9164
320.2319, 200.3139
320.7140, 196.2682
321.1961, 191.7204
321.6783, 187.2039
322.1604, 182.4837
322.6425, 178.0690
323.1246, 174.0875
323.6067, 170.6292
324.0888, 167.8608
324.5710, 166.3071
325.0531, 165.8463
325.5352, 164.3689
326.0173, 161.0115
326.4994, 157.6834
326.9815, 155.3792
327.4637, 153.6315
327.9458, 151.5281
328.4279, 148.3749
328.9100, 144.6633
329.3921, 141.9551
329.8742, 140.7044
330.3564, 139.5703
330.8385, 138.2473
331.3206, 136.7420
331.8027, 134.9878
332.2848, 132.9255
332.7669, 130.8030
333.2491, 128.9806
333.7312, 127.4554
334.2133, 126.2147
334.6954, 125.5218
335.1775, 124.9521
335.6596, 124.2123
336.1418, 123.2600
336.6239, 122.3181
337.1060, 121.7237
337.5881, 121.5019
338.0702, 120.8626
338.5523, 119.4799
339.0345, 117.8744
339.5166, 116.1179
339.9987, 114.3451
340.4808, 112.9891
340.9629, 112.6693
341.4450, 113.0921
341.9272, 112.6710
342.4093, 110.7858
342.8914, 109.1456
343.3735, 108.8125
343.8556, 109.1936
344.3377, 109.3549
344.8199, 108.7999
345.3020, 107.9563
345.7841, 107.7391
346.2662, 108.4201
346.7483, 108.6558
347.2304, 107.4441
347.7126, 105.7350
348.1947, 104.4055
348.6768, 103.7119
349.1589, 102.9165
349.6410, 100.7775
350.1231, 97.32600
350.6053, 95.32700
351.0874, 96.41124
351.5695, 98.20979
352.0516, 98.82401
352.5337, 98.25212
353.0158, 97.16731
353.4980, 95.53817
353.9801, 93.67326
354.4622, 92.80215
354.9443, 93.49184
355.4264, 94.19483
355.9085, 93.28938
356.3907, 91.53057
356.8728, 90.71146
357.3549, 92.44689
357.8370, 94.89460
358.3191, 95.10325
358.8012, 92.79543
359.2834, 90.63326
359.7655, 90.10155
360.2476, 90.53683
360.7297, 91.02898
361.2118, 91.77573
361.6939, 91.91998
362.1761, 90.17104
362.6582, 86.96687
363.1403, 84.90134
363.6224, 85.25809
364.1045, 86.45380
364.5866, 86.24326
365.0688, 84.55973
365.5509, 83.13250
366.0330, 83.26466
366.5151, 83.96731
366.9972, 83.09843
367.4793, 80.02322
367.9615, 77.13685
368.4436, 77.10753
368.9257, 79.42294
369.4078, 80.96052
369.8899, 80.74976
370.3720, 79.99486
370.8542, 79.78469
371.3363, 80.05746
371.8184, 79.93167
372.3005, 78.62619
372.7826, 76.71966
373.2647, 76.18523
373.7469, 78.05850
374.2290, 79.54527
374.7111, 79.35552
375.1932, 78.03645
375.6753, 76.40445
376.1574, 74.61021
376.6396, 73.24538
377.1217, 73.52343
377.6038, 76.06668
378.0859, 77.80981
378.5680, 77.99423
379.0501, 77.53403
379.5323, 77.40874
380.0144, 77.65031
380.4965, 77.27615
380.9786, 75.10283
381.4607, 71.05930
381.9428, 69.40571
382.4250, 72.70855
382.9071, 75.40042
383.3892, 74.40407
383.8713, 71.08013
384.3534, 68.47981
384.8355, 68.22258
385.3177, 69.57604
385.7998, 70.39231
386.2819, 70.44355
386.7640, 70.19034
387.2461, 69.15247
387.7282, 68.08473
388.2104, 67.92895
388.6925, 68.78867
389.1746, 69.69541
389.6567, 69.33019
390.1388, 67.09377
390.6209, 66.00263
391.1031, 67.29095
391.5852, 68.34890
392.0673, 67.56776
392.5494, 65.55788
393.0315, 64.00866
393.5136, 64.11344
393.9958, 65.59790
394.4779, 66.86690
394.9600, 68.29783
395.4421, 68.93655
395.9242, 68.19624
396.4063, 66.86378
396.8885, 65.61676
397.3706, 64.70102
397.8527, 64.14470
398.3348, 64.14465
398.8169, 65.01357
399.2990, 65.32520
399.7812, 64.26365
400.2633, 63.23647
400.7454, 62.96301
401.2275, 63.36612
401.7096, 63.95800
402.1917, 64.48426
402.6739, 64.89883
403.1560, 64.86196
403.6381, 64.03339
404.1202, 63.34871
404.6023, 63.15797
405.0844, 63.29943
405.5666, 63.66912
406.0487, 64.31718
406.5308, 64.87734
407.0129, 64.80964
407.4950, 64.07232
407.9771, 63.30108
408.4593, 62.87353
408.9414, 62.22881
409.4235, 60.43947
409.9056, 57.61135
410.3877, 55.73000
410.8698, 56.55281
411.3520, 59.11261
411.8341, 61.00628
412.3162, 62.03621
412.7983, 62.47948
413.2804, 62.05751
413.7625, 61.21328
414.2447, 61.01787
414.7268, 62.38805
415.2089, 63.67698
415.6910, 63.07807
416.1731, 61.00203
416.6552, 59.79707
417.1374, 60.75170
417.6195, 62.53673
418.1016, 62.41862
418.5837, 59.92837
419.0658, 58.18407
419.5479, 58.73387
420.0301, 60.15174
420.5122, 60.50442
420.9943, 59.53845
421.4764, 58.62176
421.9585, 59.12205
422.4406, 61.06988
422.9228, 62.16922
423.4049, 61.78118
423.8870, 61.28335
424.3691, 61.24775
424.8512, 61.55608
425.3333, 61.99408
425.8155, 62.48647
426.2976, 62.85345
426.7797, 62.66301
427.2618, 61.26471
427.7439, 60.27894
428.2260, 59.71986
428.7082, 59.54856
429.1903, 59.93982
429.6724, 60.77492
430.1545, 61.53182
430.6366, 61.65354
431.1187, 61.11526
431.6009, 61.05511
432.0830, 62.31134
432.5651, 63.16374
433.0472, 62.84926
433.5293, 62.03583
434.0114, 61.63156
434.4936, 62.03070
434.9757, 62.95414
435.4578, 64.06553
435.9399, 65.67590
436.4220, 66.43728
436.9041, 65.20721
437.3863, 63.83696
437.8684, 63.38642
438.3505, 63.80767
438.8326, 64.37440
439.3147, 64.55800
439.7968, 64.44844
440.2790, 64.36211
440.7611, 64.13717
441.2432, 64.32285
441.7253, 65.67068
442.2074, 67.40999
442.6895, 68.62999
443.1717, 69.10363
443.6538, 69.05207
444.1359, 68.31651
444.6180, 67.07607
445.1001, 66.57172
445.5822, 67.39676
446.0644, 68.57598
446.5465, 69.04012
447.0286, 68.86243
447.5107, 68.42478
447.9928, 67.41135
448.4749, 66.44675
448.9571, 66.21487
449.4392, 66.71708
449.9213, 67.65152
450.4034, 69.06165
450.8855, 70.64197
451.3676, 71.17010
451.8498, 70.03226
452.3319, 68.97865
452.8140, 68.33865
453.2961, 68.07514
453.7782, 68.24670
454.2603, 68.84295
454.7425, 69.55539
455.2246, 69.97430
455.7067, 69.93689
456.1888, 70.60912
456.6709, 72.89555
457.1530, 74.83010
457.6352, 75.20219
458.1173, 74.69516
458.5994, 74.83223
459.0815, 76.45425
459.5636, 78.66843
460.0457, 79.00945
460.5279, 75.82076
461.0100, 74.16315
461.4921, 75.38303
461.9742, 77.24025
462.4563, 78.45122
462.9384, 78.87612
463.4205, 78.93870
463.9026, 78.97076
464.3848, 78.94487
464.8669, 78.50282
465.3490, 76.92670
465.8311, 76.34868
466.3132, 78.49449
466.7953, 81.64432
467.2775, 83.90677
467.7596, 84.77754
468.2417, 84.76425
468.7238, 83.74660
469.2059, 81.98142
469.6880, 81.67187
470.1702, 83.93343
470.6523, 86.44881
471.1344, 86.52117
471.6165, 84.79322
472.0986, 83.92313
472.5807, 85.00821
473.0629, 86.91904
473.5450, 88.98699
474.0271, 91.07016
474.5092, 92.51850
474.9913, 92.97440
475.4734, 92.66964
475.9556, 91.97645
476.4377, 90.41992
476.9198, 89.68960
477.4019, 90.70226
477.8840, 92.24732
478.3661, 93.19131
478.8483, 93.44131
479.3304, 93.52805
479.8125, 93.89261
480.2946, 94.51253
480.7767, 95.02959
481.2589, 94.83332
481.7410, 95.26968
482.2231, 97.34516
482.7052, 99.79545
483.1873, 101.1371
483.6694, 100.9901
484.1516, 100.1896
484.6337, 99.65459
485.1158, 99.28372
485.5979, 99.81020
486.0800, 102.3870
486.5621, 104.6330
487.0443, 105.6930
487.5264, 105.7763
488.0085, 105.1570
488.4906, 103.6982
488.9727, 102.2338
489.4548, 102.4943
489.9370, 104.6556
490.4191, 105.5833
490.9012, 103.0297
491.3833, 100.4585
491.8654, 101.9208
492.3475, 107.0439
492.8297, 110.9860
493.3118, 111.1452
493.7939, 109.3115
494.2760, 107.1093
494.7581, 104.7153
495.2402, 104.0324
495.7224, 106.8373
496.2045, 111.5967
496.6866, 113.5226
497.1687, 111.3181
497.6508, 109.4448
498.1329, 109.0300
498.6151, 109.3971
499.0972, 109.9818
499.5793, 110.6189
500.0614, 111.0775
500.5435, 111.0601
501.0256, 110.5810
501.5078, 110.8624
501.9899, 113.7814
502.4720, 115.2226
502.9541, 112.8335
503.4362, 109.2601
503.9183, 107.8446
504.4005, 109.4620
504.8826, 111.9923
505.3647, 112.6268
505.8468, 111.1003
506.3289, 109.7130
506.8110, 108.1029
507.2932, 107.1350
507.7753, 107.4969
508.2574, 108.6350
508.7395, 109.6327
509.2216, 110.1777
509.7037, 110.3460
510.1859, 110.0195
510.6680, 109.2443
511.1501, 108.9729
511.6322, 109.7792
512.1143, 110.6595
512.5964, 110.4198
513.0786, 109.2147
513.5607, 108.0287
514.0428, 106.8192
514.5249, 105.9628
515.0070, 106.1914
515.4891, 107.2027
515.9713, 107.6350
516.4534, 106.7951
516.9355, 105.1538
517.4176, 103.6919
517.8997, 102.2246
518.3818, 101.3676
518.8640, 101.3141
519.3461, 101.7262
519.8282, 102.8730
520.3103, 104.3420
520.7924, 104.8932
521.2745, 103.5450
521.7567, 100.8922
522.2388, 99.58161
522.7209, 100.7664
523.2030, 101.1644
523.6851, 99.81803
524.1672, 98.01317
524.6494, 96.67625
525.1315, 95.87149
525.6136, 95.09389
526.0957, 93.77052
526.5778, 92.16139
527.0599, 91.30385
527.5421, 91.43049
528.0242, 91.50942
528.5063, 90.89790
528.9884, 90.05897
529.4705, 89.78704
529.9526, 90.39635
530.4348, 90.37497
530.9169, 88.10322
531.3990, 84.96381
531.8811, 83.43672
532.3632, 83.83859
532.8453, 84.68800
533.3275, 84.99619
533.8096, 84.76897
534.2917, 84.02626
534.7738, 81.79258
535.2559, 80.34657
535.7380, 80.95095
536.2202, 82.21463
536.7023, 82.59425
537.1844, 81.79565
537.6665, 80.51173
538.1486, 79.48338
538.6307, 78.71871
539.1129, 77.50789
539.5950, 75.12075
540.0771, 73.26281
540.5592, 72.47238
541.0413, 72.33682
541.5234, 72.55993
542.0056, 73.04074
542.4877, 73.36513
542.9698, 72.96613
543.4519, 71.96035
543.9340, 71.33402
544.4161, 71.48641
544.8983, 71.21001
545.3804, 68.71870
545.8625, 65.41172
546.3446, 64.19405
546.8267, 66.66809
547.3088, 69.03886
547.7910, 68.76196
548.2731, 66.89964
548.7552, 65.57693
549.2373, 65.26884
549.7194, 65.04117
550.2015, 63.83632
550.6837, 61.60636
551.1658, 60.58007
551.6479, 61.95818
552.1300, 62.91013
552.6121, 62.23867
553.0942, 60.89161
553.5764, 60.16009
554.0585, 60.36000
554.5406, 60.75663
555.0227, 60.48449
555.5048, 59.51081
555.9869, 58.34246
556.4691, 56.71569
556.9512, 55.26747
557.4333, 54.19090
557.9154, 53.40644
558.3975, 52.83731
558.8796, 52.47259
559.3618, 52.25917
559.8439, 52.23846
560.3260, 52.34274
560.8081, 52.28976
561.2902, 52.00462
561.7723, 51.73341
562.2545, 51.76609
562.7366, 51.97115
563.2187, 51.76154
563.7008, 50.85988
564.1829, 49.89164
564.6650, 48.94366
565.1472, 48.13626
565.6293, 47.72248
566.1114, 47.71893
566.5935, 47.76933
567.0756, 47.51620
567.5577, 46.96085
568.0399, 46.45122
568.5220, 46.19430
569.0041, 45.72320
569.4862, 44.38768
569.9683, 43.12588
570.4504, 43.26100
570.9326, 44.88072
571.4147, 46.32410
571.8968, 45.76832
572.3789, 43.53249
572.8610, 41.56661
573.3431, 39.75459
573.8253, 38.60566
574.3074, 38.80571
574.7895, 39.65034
575.2716, 40.14760
575.7537, 40.16284
576.2358, 40.10020
576.7180, 40.48855
577.2001, 40.75783
577.6822, 39.75519
578.1643, 37.51089
578.6464, 35.55125
579.1285, 34.91894
579.6107, 35.40167
580.0928, 36.08500
580.5749, 37.56898
581.0570, 38.43969
581.5391, 38.20593
582.0212, 37.67662
582.5034, 37.68297
582.9855, 38.06987
583.4676, 37.90220
583.9497, 36.36857
584.4318, 33.96066
584.9139, 32.22538
585.3961, 31.10534
585.8782, 30.88101
586.3603, 32.76662
586.8424, 34.63470
587.3245, 34.37079
587.8066, 32.21321
588.2888, 30.67321
588.7709, 31.80671
589.2530, 33.48047
589.7351, 32.74464
590.2172, 30.03962
590.6993, 28.22814
591.1815, 28.57943
591.6636, 29.89751
592.1457, 30.23118
592.6278, 29.12815
593.1099, 28.52385
593.5920, 28.85072
594.0742, 29.23076
594.5563, 29.17627
595.0384, 28.86170
595.5205, 28.64621
596.0026, 28.68410
596.4847, 28.88192
596.9669, 29.12615
597.4490, 29.43210
597.9311, 29.66293
598.4132, 29.75380
598.8953, 29.84870
599.3774, 30.08591
599.8596, 30.35835
600.3417, 30.51720
600.8238, 30.57777
601.3059, 30.35813
601.7880, 29.46207
602.2701, 28.20488
602.7523, 27.40455
603.2344, 27.21364
603.7165, 27.16256
604.1986, 26.84646
604.6807, 26.33214
605.1628, 26.18821
605.6450, 26.44280
606.1271, 26.97124
606.6092, 27.89328
607.0913, 28.98885
607.5734, 30.53202
608.0555, 32.18987
608.5377, 32.59109
609.0198, 30.24669
609.5019, 26.12851
609.9840, 24.51495
610.4661, 26.50987
610.9482, 27.78461
611.4304, 26.30662
611.9125, 24.44342
612.3946, 24.18665
612.8767, 25.40689
613.3588, 26.39065
613.8409, 26.36158
614.3231, 25.75512
614.8052, 24.74128
615.2873, 23.49268
615.7694, 22.84103
616.2515, 23.15909
616.7336, 23.87509
617.2158, 24.18274
617.6979, 23.97499
618.1800, 23.84948
618.6621, 24.01503
619.1442, 24.02452
619.6263, 23.38627
620.1085, 22.60676
620.5906, 22.57898
621.0727, 23.52679
621.5548, 24.53996
622.0369, 24.37725
622.5190, 23.10533
623.0012, 22.21521
623.4833, 21.64590
623.9654, 21.65780
624.4475, 23.38684
624.9296, 25.31429
625.4117, 25.11464
625.8939, 22.11603
626.3760, 19.36354
626.8581, 18.03824
627.3402, 17.79131
627.8223, 18.64250
628.3044, 20.33222
628.7866, 21.62320
629.2687, 21.75504
629.7508, 21.23302
630.2329, 21.39963
630.7150, 23.12894
631.1971, 23.79988
631.6793, 22.64161
632.1614, 21.32567
632.6435, 20.27961
633.1256, 19.77742
633.6077, 20.41464
634.0898, 22.65121
634.5720, 25.03062
635.0541, 25.46347
635.5362, 24.16568
636.0183, 23.06653
636.5004, 22.46686
636.9825, 21.95439
637.4647, 21.01148
637.9468, 19.92202
638.4289, 19.81003
638.9110, 21.86744
639.3931, 23.03878
639.8752, 21.51323
640.3574, 19.14576
640.8395, 17.89021
641.3216, 17.90298
641.8037, 18.37487
642.2858, 18.75100
642.7679, 19.06768
643.2501, 19.41721
643.7322, 19.69100
644.2143, 20.27902
644.6964, 21.86596
645.1785, 23.22153
645.6606, 23.62001
646.1428, 23.20718
646.6249, 22.49566
647.1070, 21.50313
647.5891, 20.56922
648.0712, 20.11430
648.5533, 19.99157
649.0355, 19.63843
649.5176, 18.89576
649.9997, 18.37274
650.4818, 18.70971
650.9639, 19.84242
651.4460, 20.60090
651.9282, 20.69108
652.4103, 20.81113
652.8924, 21.33330
653.3745, 21.73420
653.8566, 21.36768
654.3387, 20.34740
654.8209, 19.41665
655.3030, 19.04739
655.7851, 19.19035
656.2672, 19.99024
656.7493, 21.55950
657.2314, 22.34926
657.7136, 21.61206
658.1957, 20.48471
658.6778, 20.11471
659.1599, 20.37741
659.6420, 20.67524
660.1241, 21.26098
660.6063, 21.49367
661.0884, 20.75951
661.5705, 19.59127
662.0526, 18.62221
662.5347, 18.05699
663.0168, 18.13490
663.4990, 19.23281
663.9811, 21.13004
664.4632, 21.99026
664.9453, 21.18879
665.4274, 20.67506
665.9095, 21.17953
666.3917, 21.87805
666.8738, 22.26381
667.3559, 22.32084
667.8380, 22.19260
668.3201, 21.80496
668.8022, 21.38663
669.2844, 21.17542
669.7665, 21.12518
670.2486, 21.12948
670.7307, 21.16486
671.2128, 21.12835
671.6949, 20.91631
672.1771, 20.53010
672.6592, 20.00109
673.1413, 18.77483
673.6234, 18.12188
674.1055, 18.70255
674.5876, 19.58616
675.0698, 20.08820
675.5519, 20.09474
676.0340, 19.66867
676.5161, 18.50394
676.9982, 17.29358
677.4803, 17.65435
677.9625, 19.47466
678.4446, 20.50727
678.9267, 19.98818
679.4088, 18.92624
679.8909, 18.22927
680.3730, 17.91949
680.8552, 18.00127
681.3373, 18.98064
681.8194, 19.71733
682.3015, 19.78745
682.7836, 19.50023
683.2657, 19.02944
683.7479, 18.51007
684.2300, 18.25872
684.7121, 18.54576
685.1942, 19.24253
685.6763, 20.16520
686.1584, 21.47243
686.6406, 21.79381
687.1227, 19.97025
687.6048, 18.19439
688.0869, 19.10879
688.5690, 21.94572
689.0511, 23.52377
689.5333, 22.40980
690.0154, 21.03303
690.4975, 20.33601
690.9796, 20.10348
691.4617, 20.17346
691.9438, 20.44819
692.4260, 20.63132
692.9081, 20.42321
693.3902, 21.17049
693.8723, 20.63285
694.3544, 22.53310
694.8365, 24.02891
695.3187, 24.94456
695.8008, 25.27369
696.2829, 24.58663
696.7650, 23.33433
697.2471, 22.85304
697.7292, 24.00759
698.2114, 25.10564
698.6935, 24.80800
699.1756, 23.81727
699.6577, 23.22453
700.1398, 23.18954
700.6219, 23.43690
701.1041, 23.79870
701.5862, 24.22923
702.0683, 24.58231
702.5504, 24.86538
703.0325, 25.05133
703.5146, 24.72198
703.9968, 24.70642
704.4789, 25.62263
704.9610, 27.09875
705.4431, 28.36583
705.9252, 29.14505
706.4073, 29.81890
706.8895, 30.73029
707.3716, 31.72972
707.8537, 32.52016
708.3358, 33.08295
708.8179, 33.57745
709.3000, 34.05177
709.7822, 34.64280
710.2643, 35.73441
710.7464, 37.68961
711.2285, 39.29925
711.7106, 40.62044
712.1927, 41.55727
712.6749, 41.36358
713.1570, 41.00472
713.6391, 42.24982
714.1212, 45.67637
714.6033, 48.83320
715.0854, 49.10528
715.5676, 47.96835
716.0497, 48.51759
716.5318, 50.78197
717.0139, 52.79056
717.4960, 53.44468
717.9781, 54.01208
718.4603, 56.92939
718.9424, 63.34751
719.4245, 67.34256
719.9066, 66.86429
720.3887, 66.54311
720.8708, 67.80725
721.3530, 69.94713
721.8351, 72.04446
722.3172, 73.94507
722.7993, 76.21059
723.2814, 79.85170
723.7635, 83.86363
724.2457, 86.32143
724.7278, 87.36001
725.2099, 87.88142
725.6920, 88.06597
726.1741, 88.40647
726.6563, 89.63906
727.1384, 91.84238
727.6205, 92.99372
728.1026, 92.03943
728.5847, 91.43102
729.0668, 91.86883
729.5490, 92.60536
730.0311, 93.06265
730.5132, 93.17453
730.9953, 93.09013
731.4774, 92.87164
731.9595, 92.53543
732.4417, 92.11307
732.9238, 91.59624
733.4059, 90.97070
733.8880, 90.24400
734.3701, 89.30016
734.8522, 88.03587
735.3344, 86.47865
735.8165, 84.76448
736.2986, 82.11852
736.7807, 80.46992
737.2628, 81.18684
737.7449, 81.63303
738.2271, 80.02474
738.7092, 76.90432
739.1913, 73.47031
739.6734, 69.99952
740.1555, 67.30994
740.6376, 66.58614
741.1198, 67.21181
741.6019, 67.81309
742.0840, 68.24607
742.5661, 67.93591
743.0482, 66.46117
743.5303, 64.31772
744.0125, 62.43427
744.4946, 60.68169
744.9767, 59.63062
745.4588, 60.33118
745.9409, 60.47075
746.4230, 58.75982
746.9052, 56.33559
747.3873, 54.72919
747.8694, 54.16866
748.3515, 53.33653
748.8336, 50.89777
749.3157, 47.87803
749.7979, 45.68291
750.2800, 44.29960
750.7621, 43.93611
751.2442, 44.77212
751.7263, 45.27491
752.2084, 43.61232
752.6906, 39.86349
753.1727, 37.03160
753.6548, 35.51358
754.1369, 34.34402
754.6190, 33.24041
755.1011, 32.54505
755.5833, 33.08905
756.0654, 34.30894
756.5475, 34.33319
757.0296, 31.95609
757.5117, 29.09296
757.9938, 27.26302
758.4760, 26.19481
758.9581, 25.40779
759.4402, 24.83385
759.9223, 24.57239
760.4044, 24.72516
760.8865, 25.11352
761.3687, 25.33173
761.8508, 25.46550
762.3329, 25.13753
762.8150, 23.61135
763.2971, 22.55408
763.7792, 23.12236
764.2614, 24.28992
764.7435, 24.58106
765.2256, 23.70624
765.7077, 22.91360
766.1898, 22.83393
766.6719, 23.05883
767.1541, 23.32455
767.6362, 23.55688
768.1183, 23.56756
768.6004, 23.31712
769.0825, 23.11416
769.5646, 23.39031
770.0468, 24.02450
770.5289, 23.82850
771.0110, 22.40631
771.4931, 21.42642
771.9752, 21.72189
772.4573, 22.12192
772.9395, 21.17994
773.4216, 19.38449
773.9037, 18.84783
774.3858, 21.19143
774.8679, 22.97541
775.3500, 22.14716
775.8322, 20.57439
776.3143, 20.33801
776.7964, 21.25453
777.2785, 21.88480
777.7606, 21.43963
778.2427, 20.45230
778.7249, 19.65157
779.2070, 19.04633
779.6891, 18.77353
780.1712, 18.79274
780.6533, 19.46323
781.1354, 21.50638
781.6176, 23.78751
782.0997, 24.11338
782.5818, 21.96701
783.0639, 20.39063
783.5460, 19.67790
784.0281, 19.36917
784.5103, 19.73021
784.9924, 20.13870
785.4745, 19.51078
785.9566, 17.95567
786.4387, 17.14698
786.9208, 18.78998
787.4030, 21.20159
787.8851, 21.42556
788.3672, 19.90425
788.8493, 19.02479
789.3314, 19.32475
789.8135, 19.59828
790.2957, 18.79407
790.7778, 17.28469
791.2599, 16.62971
791.7420, 17.32128
792.2241, 17.94952
792.7062, 18.56686
793.1884, 19.03622
793.6705, 19.66545
794.1526, 19.97032
794.6347, 18.84281
795.1168, 15.88082
795.5989, 13.51178
796.0811, 13.57000
796.5632, 14.66215
797.0453, 15.26067
797.5274, 15.51728
798.0095, 16.27384
798.4916, 17.76165
798.9738, 19.07840
799.4559, 19.15925
799.9380, 18.19804
800.4201, 17.59544
800.9022, 17.29601
801.3843, 17.63126
801.8665, 19.27424
802.3486, 20.82372
802.8307, 20.88189
803.3128, 19.88515
803.7949, 19.17699
804.2770, 19.07424
804.7592, 18.91394
805.2413, 18.18240
805.7234, 17.60162
806.2055, 17.89563
806.6876, 18.81134
807.1697, 19.83575
807.6519, 20.75171
808.1340, 21.15443
808.6161, 20.05632
809.0982, 18.10326
809.5803, 17.80263
810.0624, 19.19278
810.5446, 20.09787
811.0267, 19.68561
811.5088, 18.62834
811.9909, 17.56906
812.4730, 16.49694
812.9551, 16.28406
813.4373, 17.62898
813.9194, 18.86746
814.4015, 20.13592
814.8836, 20.96443
815.3657, 20.79044
815.8478, 19.91320
816.3300, 19.15675
816.8121, 18.76651
817.2942, 18.59941
817.7763, 18.76617
818.2584, 18.97461
818.7405, 18.76083
819.2227, 18.19789
819.7048, 17.58261
820.1869, 17.04526
820.6690, 16.88592
821.1511, 17.75527
821.6332, 19.54945
822.1154, 20.04218
822.5975, 18.76565
823.0796, 17.96606
823.5617, 18.49041
824.0438, 19.53180
824.5259, 20.55758
825.0081, 21.48167
825.4902, 21.48466
825.9723, 19.54804
826.4544, 18.03860
826.9365, 17.81019
827.4186, 17.88425
827.9008, 17.28703
828.3829, 16.37097
828.8650, 16.25100
829.3471, 17.42299
829.8292, 18.69840
830.3113, 18.81890
830.7935, 18.24237
831.2756, 17.80750
831.7577, 17.57656
832.2398, 17.74215
832.7219, 18.41381
833.2040, 18.95737
833.6861, 18.41220
834.1682, 16.91514
834.6503, 17.31091
835.1324, 21.31093
835.6146, 23.20599
836.0967, 19.72797
836.5788, 16.14400
837.0609, 16.73843
837.5430, 20.03774
838.0251, 21.84472
838.5073, 21.03312
838.9894, 20.04333
839.4715, 19.68254
839.9536, 19.46221
840.4357, 18.82252
840.9178, 18.05796
841.4000, 17.92230
841.8821, 18.60129
842.3642, 19.30566
842.8463, 19.22202
843.3284, 18.62632
843.8105, 18.04935
844.2927, 17.52958
844.7748, 17.47639
845.2569, 18.02114
845.7390, 18.88479
846.2211, 19.99207
846.7032, 21.09978
847.1854, 20.96503
847.6675, 18.47274
848.1496, 17.19720
848.6317, 18.36626
849.1138, 19.57864
849.5959, 19.83380
850.0781, 19.47767
850.5602, 18.80860
851.0423, 17.77071
851.5244, 17.55320
852.0065, 19.38192
852.4886, 21.32236
852.9708, 22.10044
853.4529, 22.12267
853.9350, 22.01932
854.4171, 21.91365
854.8992, 21.58873
855.3813, 20.81774
855.8635, 19.93700
856.3456, 19.45277
856.8277, 19.36742
857.3098, 19.79986
857.7919, 20.78703
858.2740, 21.76570
858.7562, 22.45713
859.2383, 22.85965
859.7204, 22.90924
860.2025, 22.47361
860.6846, 22.46225
861.1667, 23.28264
861.6489, 23.91091
862.1310, 23.76575
862.6131, 23.58649
863.0952, 24.29609
863.5773, 25.62609
864.0594, 26.08631
864.5416, 24.56256
865.0237, 23.33211
865.5058, 23.79888
865.9879, 24.69918
866.4700, 24.74406
866.9521, 24.16584
867.4343, 23.87464
867.9164, 24.22466
868.3985, 24.73597
868.8806, 25.12949
869.3627, 25.23059
869.8448, 24.20715
870.3270, 22.25742
870.8091, 21.34152
871.2912, 22.08560
871.7733, 23.03149
872.2554, 22.87592
872.7375, 21.76480
873.2197, 20.30118
873.7018, 18.09074
874.1839, 16.70796
874.6660, 16.98883
875.1481, 17.12020
875.6302, 15.36231
876.1124, 13.22292
876.5945, 13.32507
877.0766, 16.22799
877.5587, 17.77569
878.0408, 15.69718
878.5229, 13.79714
879.0051, 14.25526
879.4872, 15.57065
879.9693, 16.02794
880.4514, 15.52322
880.9335, 14.78525
881.4156, 14.06465
881.8978, 13.66641
882.3799, 14.27032
882.8620, 15.31417
883.3441, 15.47431
883.8262, 14.82470
884.3083, 14.47465
884.7905, 14.91247
885.2726, 15.51470
885.7547, 15.46694
886.2368, 14.82775
886.7189, 13.98396
887.2010, 12.70609
887.6832, 12.53623
888.1653, 14.54279
888.6474, 16.25414
889.1295, 15.33893
889.6116, 12.59883
890.0938, 11.14997
890.5759, 11.70894
891.0580, 12.08065
891.5401, 12.09198
892.0222, 12.04416
892.5043, 12.09454
892.9865, 12.14330
893.4686, 11.90856
893.9507, 11.43573
894.4328, 11.41449
894.9149, 12.53857
895.3970, 13.78279
895.8792, 14.72101
896.3613, 15.15195
896.8434, 14.62860
897.3255, 13.29734
897.8076, 11.59840
898.2897, 9.717166
898.7719, 8.394491
899.2540, 9.161714
899.7361, 8.332939
900.2182, 8.381385
900.7003, 9.592722
901.1824, 9.300608
901.6646, 11.75935
902.1467, 14.11745
902.6288, 13.40974
903.1109, 10.38640
903.5930, 9.093052
904.0751, 10.62756
904.5573, 10.55592
905.0394, 7.101508
905.5215, 4.213399
906.0036, 4.281323
906.4857, 5.912662
906.9678, 6.976537
907.4500, 7.347399
907.9321, 8.193249
908.4142, 10.84425
908.8963, 12.48796
909.3784, 11.20542
909.8605, 9.228516
910.3427, 8.464249
910.8248, 8.895079
911.3069, 9.852499
911.7890, 11.27074
912.2711, 12.26649
912.7532, 11.52875
913.2354, 10.46468
913.7175, 11.39724
914.1996, 13.43280
914.6817, 13.70957
915.1638, 11.62862
915.6459, 9.609537
916.1281, 9.898139
916.6102, 11.45217
917.0923, 11.72654
917.5744, 10.85930
918.0565, 10.24302
918.5386, 10.08277
919.0208, 9.664505
919.5029, 8.483112
919.9850, 7.211664
920.4671, 7.113522
920.9492, 8.339911
921.4313, 8.755581
921.9135, 7.746066
922.3956, 7.304954
922.8777, 8.526512
923.3598, 9.750360
923.8419, 9.165648
924.3240, 7.509655
924.8062, 7.148564
925.2883, 9.040020
925.7704, 10.17182
926.2525, 9.618440
926.7346, 8.767484
927.2167, 8.102973
927.6989, 7.667626
928.1810, 7.402730
928.6631, 7.338475
929.1452, 7.714485
929.6273, 9.154116
930.1094, 10.26653
930.5916, 9.444777
931.0737, 8.096387
931.5558, 8.463642
932.0379, 9.988223
932.5200, 10.25331
933.0021, 8.383388
933.4843, 6.383018
933.9664, 6.650935
934.4485, 8.164986
934.9306, 8.278034
935.4127, 7.321332
935.8948, 7.284381
936.3770, 8.540902
936.8591, 9.558898
937.3412, 9.264226
937.8233, 8.172389
938.3054, 7.135675
938.7875, 6.016981
939.2697, 6.819028
939.7518, 10.44980
940.2339, 12.57624
940.7160, 11.25700
941.1981, 8.772883
941.6802, 7.238386
942.1624, 6.592617
942.6445, 6.402062
943.1266, 6.884749
943.6087, 7.465914
944.0908, 8.269457
944.5729, 9.011003
945.0551, 10.02481
945.5372, 10.66285
946.0193, 9.682209
946.5014, 7.060719
946.9835, 5.325383
947.4656, 5.810473
947.9478, 6.394219
948.4299, 5.873877
948.9120, 5.376688
949.3941, 6.339482
949.8762, 8.104604
950.3583, 8.881297
950.8405, 8.066335
951.3226, 7.176107
951.8047, 7.256360
952.2868, 7.856068
952.7689, 8.976886
953.2510, 10.06649
953.7332, 9.790707
954.2153, 8.221419
954.6974, 6.784540
955.1795, 6.281349
955.6616, 6.694312
956.1437, 8.674832
956.6259, 11.49202
957.1080, 12.29080
957.5901, 11.17520
958.0722, 10.30048
958.5543, 10.34324
959.0364, 10.42265
959.5186, 9.649167
960.0007, 8.421148
960.4828, 8.197611
960.9649, 9.115260
961.4470, 9.825779
961.9291, 10.21373
962.4113, 10.46200
962.8934, 10.61701
963.3755, 10.71601
963.8576, 10.77040
964.3397, 10.78497
964.8218, 11.06894
965.3040, 12.13879
965.7861, 12.52541
966.2682, 11.78946
966.7503, 10.67028
967.2324, 9.034222
967.7145, 7.487712
968.1967, 7.169707
968.6788, 8.279902
969.1609, 9.088079
969.6430, 9.154387
970.1251, 9.161500
970.6072, 9.556971
971.0894, 9.778616
971.5715, 9.124028
972.0536, 7.959060
972.5357, 7.227197
973.0178, 7.225610
973.4999, 7.283613
973.9821, 6.618522
974.4642, 6.358233
974.9463, 8.208171
975.4284, 10.51988
975.9105, 10.50503
976.3926, 8.494506
976.8748, 7.354041
977.3569, 8.643513
977.8390, 10.39759
978.3211, 10.97263
978.8032, 10.62233
979.2853, 9.077193
979.7675, 7.024827
980.2496, 6.486052
980.7317, 7.782629
981.2138, 9.385179
981.6959, 10.21079
982.1780, 10.43824
982.6602, 10.06181
983.1423, 9.339284
983.6244, 9.569484
984.1065, 10.72479
984.5886, 11.41497
985.0707, 11.11870
985.5529, 10.65607
986.0350, 10.96236
986.5171, 11.62881
986.9992, 10.74479
987.4813, 8.111954
987.9634, 7.337932
988.4456, 9.150301
988.9277, 10.70160
989.4098, 10.64952
989.8919, 9.786414
990.3740, 9.034290
990.8561, 8.420359
991.3383, 8.570329
991.8204, 9.964861
992.3025, 10.82066
992.7846, 10.72107
993.2667, 10.40663
993.7488, 10.04395
994.2310, 9.878024
994.7131, 10.52377
995.1952, 12.18208
995.6773, 12.81262
996.1594, 11.57468
996.6415, 10.52586
997.1237, 9.600431
997.6058, 9.265856
998.0879, 10.61383
998.5700, 12.45921
999.0521, 12.31653
999.5342, 9.599615
1000.016, 7.950222
1000.498, 8.488375
1000.981, 9.653585
1001.463, 11.73217
1001.945, 13.48218
1002.427, 13.46147
1002.909, 12.36780
1003.391, 12.11068
1003.873, 13.30722
1004.355, 13.92163
1004.838, 12.31366
1005.320, 10.65915
1005.802, 10.28559
1006.284, 10.71184
1006.766, 11.84091
1007.248, 13.14251
1007.730, 13.10202
1008.212, 10.93852
1008.694, 9.323465
1009.177, 11.25033
1009.659, 13.79720
1010.141, 13.62860
1010.623, 11.98980
1011.105, 10.89218
1011.587, 10.78328
1012.069, 11.76462
1012.551, 14.00919
1013.034, 16.21905
1013.516, 16.91735
1013.998, 16.69030
1014.480, 16.46003
1014.962, 16.19354
1015.444, 15.42270
1015.926, 14.24120
1016.408, 13.86329
1016.890, 15.13673
1017.373, 17.06146
1017.855, 18.32995
1018.337, 19.00652
1018.819, 19.17487
1019.301, 18.90013
1019.783, 18.37518
1020.265, 17.69069
1020.747, 17.50505
1021.229, 18.41188
1021.712, 19.65123
1022.194, 19.41630
1022.676, 17.97546
1023.158, 17.69171
1023.640, 18.62227
1024.122, 19.99842
1024.604, 21.66878
1025.086, 22.71245
1025.569, 22.26541
1026.051, 20.88116
1026.533, 19.94767
1027.015, 19.47378
1027.497, 19.22084
1027.979, 19.13930
1028.461, 19.64873
1028.943, 20.98408
1029.426, 22.59920
1029.908, 24.14233
1030.390, 25.40409
1030.872, 25.50305
1031.354, 24.06487
1031.836, 23.38485
1032.318, 23.69592
1032.800, 24.10356
1033.282, 24.37365
1033.765, 24.51919
1034.247, 24.43543
1034.729, 24.29059
1035.211, 24.79685
1035.693, 26.27887
1036.175, 27.41394
1036.657, 27.99644
1037.139, 28.63736
1037.621, 29.46177
1038.104, 30.51372
1038.586, 32.04840
1039.068, 33.82905
1039.550, 34.83416
1040.032, 34.80859
1040.514, 34.58762
1040.996, 33.66023
1041.478, 33.29451
1041.961, 34.23423
1042.443, 35.55609
1042.925, 36.29198
1043.407, 36.68200
1043.889, 37.78661
1044.371, 40.01034
1044.853, 42.02903
1045.335, 44.00798
1045.818, 45.54567
1046.300, 45.68866
1046.782, 46.03673
1047.264, 48.74057
1047.746, 52.86622
1048.228, 54.80311
1048.710, 53.07043
1049.192, 52.43917
1049.674, 54.37680
1050.156, 56.29485
1050.639, 56.60480
1051.121, 57.08507
1051.603, 59.96236
1052.085, 64.35947
1052.567, 67.12479
1053.049, 67.19248
1053.531, 67.89328
1054.013, 69.70943
1054.496, 72.47736
1054.978, 77.19048
1055.460, 81.94170
1055.942, 84.68919
1056.424, 86.04995
1056.906, 87.96665
1057.388, 90.79695
1057.870, 94.14452
1058.353, 98.26742
1058.835, 102.4285
1059.317, 106.3755
1059.799, 110.1394
1060.281, 113.6866
1060.763, 117.1138
1061.245, 120.4522
1061.727, 123.5019
1062.209, 127.8425
1062.692, 135.2001
1063.174, 142.4263
1063.656, 147.7115
1064.138, 152.5220
1064.620, 157.8289
1065.102, 163.8709
1065.584, 171.1279
1066.066, 179.8699
1066.548, 187.8616
1067.031, 192.9659
1067.513, 198.7578
1067.995, 206.5779
1068.477, 216.1737
1068.959, 227.6283
1069.441, 240.4871
1069.923, 253.8901
1070.405, 267.6447
1070.888, 283.0137
1071.370, 300.9385
1071.852, 319.9035
1072.334, 337.9093
1072.816, 357.7143
1073.298, 381.8232
1073.780, 409.2799
1074.262, 437.8064
1074.745, 466.9433
1075.227, 498.3773
1075.709, 532.4259
1076.191, 569.1164
1076.673, 609.8151
1077.155, 651.7838
1077.637, 692.5719
1078.119, 733.3692
1078.601, 776.3095
1079.083, 821.7158
1079.566, 868.7067
1080.048, 917.1939
1080.530, 967.2259
1081.012, 1018.810
1081.494, 1072.377
1081.976, 1128.491
1082.458, 1186.520
1082.940, 1246.192
1083.422, 1306.597
1083.905, 1363.328
1084.387, 1415.389
1084.869, 1462.790
1085.351, 1507.652
1085.833, 1545.318
1086.315, 1575.936
1086.797, 1595.261
1087.279, 1598.454
1087.762, 1585.497
1088.244, 1558.877
1088.726, 1519.242
1089.208, 1466.972
1089.690, 1399.048
1090.172, 1321.911
1090.654, 1235.132
1091.136, 1144.354
1091.619, 1052.938
1092.101, 962.4073
1092.583, 873.9382
1093.065, 787.6130
1093.547, 707.9984
1094.029, 637.6211
1094.511, 573.9262
1094.993, 517.3968
1095.475, 466.2949
1095.958, 419.3929
1096.440, 376.7833
1096.922, 338.2931
1097.404, 304.1012
1097.886, 274.5451
1098.368, 251.0945
1098.850, 230.7034
1099.332, 213.0547
1099.814, 197.1808
1100.297, 182.7985
1100.779, 169.5044
1101.261, 156.6980
1101.743, 144.2595
1102.225, 132.5935
1102.707, 121.3220
1103.189, 111.4877
1103.671, 103.1949
1104.154, 96.51930
1104.636, 92.58479
1105.118, 89.59621
1105.600, 85.44584
1106.082, 80.19199
1106.564, 75.01443
1107.046, 69.31351
1107.528, 65.51365
1108.010, 65.94315
1108.493, 65.96539
1108.975, 63.49375
1109.457, 59.96039
1109.939, 56.22948
1110.421, 52.65078
1110.903, 50.09120
1111.385, 49.02547
1111.867, 47.56070
1112.349, 45.49941
1112.832, 43.05990
1113.314, 39.35146
1113.796, 36.18972
1114.278, 35.20123
1114.760, 35.49870
1115.242, 35.45350
1115.724, 35.07970
1116.206, 34.05047
1116.689, 31.79223
1117.171, 29.79533
1117.653, 27.98034
1118.135, 26.77503
1118.617, 26.74754
1119.099, 27.15504
1119.581, 26.91722
1120.063, 27.08333
1120.546, 25.98042
1121.028, 27.10189
1121.510, 27.60948
1121.992, 27.51893
1122.474, 26.57843
1122.956, 24.29270
1123.438, 21.69889
1123.920, 19.54327
1124.402, 18.00978
1124.885, 17.93414
1125.367, 19.89552
1125.849, 20.70022
1126.331, 19.99380
1126.813, 19.28736
1127.295, 18.92782
1127.777, 18.75368
1128.259, 18.73070
1128.741, 18.64711
1129.224, 17.89417
1129.706, 16.50737
1130.188, 17.05921
1130.670, 19.97394
1131.152, 21.14249
1131.634, 19.71158
1132.116, 18.28101
1132.598, 18.17025
1133.081, 18.48881
1133.563, 18.12344
1134.045, 17.26446
1134.527, 16.60403
1135.009, 16.14496
1135.491, 16.08824
1135.973, 16.43906
1136.455, 16.90009
1136.938, 17.37245
1137.420, 17.68674
1137.902, 17.68584
1138.384, 17.49450
1138.866, 17.36924
1139.348, 17.26142
1139.830, 16.90188
1140.312, 16.36267
1140.794, 16.14217
1141.276, 16.25858
1141.759, 15.88733
1142.241, 14.55273
1142.723, 13.50710
1143.205, 14.92911
1143.687, 13.81552
1144.169, 16.40154
1144.651, 14.15434
1145.133, 13.79506
1145.616, 15.15191
1146.098, 16.33884
1146.580, 16.64788
1147.062, 15.95052
1147.544, 13.52588
1148.026, 11.39217
1148.508, 12.46977
1148.990, 14.46871
1149.473, 14.29903
1149.955, 12.81054
1150.437, 11.77570
1150.919, 11.54826
1151.401, 11.88533
1151.883, 12.80910
1152.365, 13.58682
1152.847, 13.28323
1153.329, 13.18965
1153.812, 14.87430
1154.294, 16.79288
1154.776, 17.05973
1155.258, 16.13565
1155.740, 15.49571
1156.222, 15.46803
1156.704, 15.22225
1157.186, 13.94019
1157.668, 13.15252
1158.151, 13.70862
1158.633, 14.55253
1159.115, 15.39942
1159.597, 15.88215
1160.079, 15.34493
1160.561, 13.93944
1161.043, 12.93969
1161.525, 12.71534
1162.008, 12.39315
1162.490, 11.62477
1162.972, 11.16221
1163.454, 11.27661
1163.936, 11.69125
1164.418, 12.30723
1164.900, 13.01662
1165.382, 13.51008
1165.865, 13.70335
1166.347, 14.72647
1166.829, 17.30182
1167.311, 18.50879
1167.793, 17.74384
1168.275, 16.05878
1168.757, 13.47365
1169.239, 11.48666
1169.721, 12.05717
1170.203, 14.42733
1170.686, 15.33303
1171.168, 14.71497
1171.650, 14.70393
1172.132, 15.39860
1172.614, 16.11536
1173.096, 16.68195
1173.578, 16.81771
1174.060, 16.30613
1174.543, 15.46902
1175.025, 14.70824
1175.507, 14.06496
1175.989, 13.51789
1176.471, 13.20903
1176.953, 14.04616
1177.435, 15.78039
1177.917, 16.56379
1178.400, 15.80779
1178.882, 14.95187
1179.364, 15.22727
1179.846, 14.68284
1180.328, 15.36420
1180.810, 14.68201
1181.292, 14.69778
1181.774, 15.21953
1182.256, 16.05182
1182.739, 16.89669
1183.221, 16.79789
1183.703, 15.22328
1184.185, 14.18343
1184.667, 15.73042
1185.149, 17.18079
1185.631, 16.29182
1186.113, 15.01128
1186.595, 15.50031
1187.078, 16.80807
1187.560, 16.85318
1188.042, 15.49258
1188.524, 14.63945
1189.006, 14.82315
1189.488, 15.35687
1189.970, 16.94591
1190.452, 17.81811
1190.935, 16.69078
1191.417, 15.09221
1191.899, 14.16546
1192.381, 13.84416
1192.863, 13.98031
1193.345, 14.60116
1193.827, 15.55668
1194.309, 17.17251
1194.792, 18.20580
1195.274, 18.51863
1195.756, 18.04223
1196.238, 16.49973
1196.720, 14.90502
1197.202, 14.44924
1197.684, 13.68994
1198.166, 14.55749
1198.648, 13.84409
1199.130, 14.29606
1199.613, 15.83092
1200.095, 15.51280
1200.577, 12.84350
1201.059, 11.21000
1201.541, 12.57389
1202.023, 15.08807
1202.505, 16.75709
1202.987, 17.78728
1203.470, 18.60405
1203.952, 19.06947
1204.434, 18.57911
1204.916, 17.52270
1205.398, 17.12004
1205.880, 17.57203
1206.362, 17.96250
1206.844, 17.71414
1207.327, 17.63847
1207.809, 18.73441
1208.291, 19.79897
1208.773, 19.93019
1209.255, 19.44806
1209.737, 18.28512
1210.219, 16.98260
1210.701, 16.66097
1211.183, 17.51598
1211.666, 18.45070
1212.148, 19.39661
1212.630, 20.12629
1213.112, 20.69007
1213.594, 20.91572
1214.076, 20.57397
1214.558, 20.00640
1215.040, 19.60991
1215.522, 19.17842
1216.005, 17.97784
1216.487, 15.78109
1216.969, 14.78862
1217.451, 15.32848
1217.933, 15.76052
1218.415, 15.84825
1218.897, 15.72004
1219.379, 15.39002
1219.862, 15.12697
1220.344, 15.23698
1220.826, 15.58058
1221.308, 15.73279
1221.790, 15.79387
1222.272, 16.29331
1222.754, 17.17630
1223.236, 18.33803
1223.719, 19.58811
1224.201, 20.03853
1224.683, 19.27831
1225.165, 18.04446
1225.647, 16.54539
1226.129, 15.52682
1226.611, 16.49627
1227.093, 17.85421
1227.575, 17.17754
1228.057, 15.66199
1228.540, 15.79853
1229.022, 17.55117
1229.504, 18.98643
1229.986, 19.55824
1230.468, 19.61695
1230.950, 18.82090
1231.432, 18.16065
1231.914, 18.37090
1232.397, 18.44073
1232.879, 16.87452
1233.361, 15.27997
1233.843, 16.41883
1234.325, 19.79535
1234.807, 21.47942
1235.289, 20.91422
1235.771, 20.40576
1236.254, 19.98309
1236.736, 19.56028
1237.218, 19.12382
1237.700, 18.61220
1238.182, 17.95399
1238.664, 17.41527
1239.146, 17.47164
1239.628, 17.82697
1240.110, 17.22149
1240.593, 17.58459
1241.075, 16.32031
1241.557, 17.72789
1242.039, 18.63955
1242.521, 18.62252
1243.003, 17.69791
1243.485, 15.78348
1243.967, 14.34301
1244.449, 14.82004
1244.932, 16.19620
1245.414, 18.09211
1245.896, 19.88523
1246.378, 20.67600
1246.860, 20.97803
1247.342, 22.22659
1247.824, 24.16202
1248.306, 23.98090
1248.789, 19.82044
1249.271, 16.94178
1249.753, 16.87569
1250.235, 17.32117
1250.717, 18.07342
1251.199, 18.65238
1251.681, 18.64400
1252.163, 18.48564
1252.646, 18.81827
1253.128, 19.54228
1253.610, 20.17474
1254.092, 20.78502
1254.574, 20.32468
1255.056, 18.73092
1255.538, 17.02703
1256.020, 15.47921
1256.502, 14.75436
1256.984, 15.24418
1257.467, 16.30681
1257.949, 17.35461
1258.431, 18.31172
1258.913, 19.25708
1259.395, 19.88704
1259.877, 19.33247
1260.359, 18.18817
1260.841, 17.66226
1261.324, 17.91245
1261.806, 18.59180
1262.288, 19.62823
1262.770, 20.56522
1263.252, 21.36846
1263.734, 21.78411
1264.216, 21.64201
1264.698, 21.15734
1265.181, 20.18737
1265.663, 19.15263
1266.145, 18.45805
1266.627, 18.12977
1267.109, 18.30762
1267.591, 19.12045
1268.073, 19.73830
1268.555, 20.26074
1269.037, 19.80150
1269.520, 17.95329
1270.002, 17.76122
1270.484, 20.74403
1270.966, 23.38071
1271.448, 22.23646
1271.930, 19.14820
1272.412, 16.80037
1272.894, 15.42984
1273.376, 16.07435
1273.859, 17.94009
1274.341, 19.48352
1274.823, 20.42602
1275.305, 20.52542
1275.787, 19.88432
1276.269, 20.11937
1276.751, 23.06321
1277.233, 24.72738
1277.716, 21.81787
1278.198, 18.75008
1278.680, 17.72810
1279.162, 17.85495
1279.644, 18.51984
1280.126, 19.61620
1280.608, 21.16766
1281.090, 23.11798
1281.573, 24.26265
1282.055, 24.47002
1282.537, 24.26740
1283.019, 23.55021
1283.501, 23.29321
1283.983, 23.82048
1284.465, 23.91582
1284.947, 22.80334
1285.429, 21.31842
1285.911, 20.37458
##END=



