##NAMES=Siegenite
##RRUFFID=R050092
##IDEAL CHEMISTRY=Co^2+^Ni^3+^_2_S^2-^_4_
##LOCALITY=Bunker Hill mine, Jasper County, Missouri, USA
##OWNER=RRUFF
##SOURCE=Rock Currier
##DESCRIPTION=Silver metallic octahedra coating chalcopyrite
##STATUS=The identification of this mineral has been confirmed only by X-ray diffraction
##URL=rruff.info/R050092
147.9943, 639.5850
148.4765, 650.2534
148.9586, 664.6600
149.4407, 677.0357
149.9228, 689.0930
150.4049, 696.6786
150.8870, 696.5060
151.3692, 688.7057
151.8513, 686.5012
152.3334, 694.9594
152.8155, 706.3219
153.2976, 714.9368
153.7797, 714.5774
154.2619, 717.3920
154.7440, 727.3920
155.2261, 746.4172
155.7082, 761.4191
156.1903, 769.7161
156.6724, 773.6510
157.1546, 775.7701
157.6367, 774.4064
158.1188, 773.1352
158.6009, 772.8493
159.0830, 773.1494
159.5651, 775.8437
160.0473, 782.4113
160.5294, 791.6822
161.0115, 801.2588
161.4936, 814.7297
161.9757, 825.4926
162.4578, 829.1170
162.9400, 819.8985
163.4221, 811.7163
163.9042, 810.2040
164.3863, 814.1530
164.8684, 819.5384
165.3505, 827.0479
165.8327, 834.0076
166.3148, 838.0251
166.7969, 834.3686
167.2790, 831.7009
167.7611, 836.3209
168.2433, 847.3961
168.7254, 857.5116
169.2075, 860.9650
169.6896, 861.4929
170.1717, 863.4559
170.6538, 871.8128
171.1360, 880.0371
171.6181, 882.3817
172.1002, 878.6048
172.5823, 873.7291
173.0644, 870.4279
173.5465, 868.6222
174.0287, 868.0983
174.5108, 870.0011
174.9929, 872.5786
175.4750, 872.7811
175.9571, 869.6261
176.4392, 868.6953
176.9214, 879.2586
177.4035, 897.0647
177.8856, 910.4404
178.3677, 909.5435
178.8498, 901.0043
179.3319, 894.9958
179.8141, 892.8571
180.2962, 893.1378
180.7783, 894.5350
181.2604, 896.9592
181.7425, 900.0684
182.2246, 905.8672
182.7068, 912.1724
183.1889, 913.1526
183.6710, 905.5358
184.1531, 895.2716
184.6352, 893.2200
185.1173, 898.9408
185.5995, 904.6927
186.0816, 900.9574
186.5637, 891.2908
187.0458, 889.7527
187.5279, 904.0966
188.0100, 925.8615
188.4922, 933.4788
188.9743, 926.1909
189.4564, 916.9504
189.9385, 920.1663
190.4206, 933.9967
190.9027, 944.1567
191.3849, 945.1893
191.8670, 939.3354
192.3491, 934.8749
192.8312, 931.8987
193.3133, 929.6659
193.7954, 926.4596
194.2776, 922.3542
194.7597, 921.0780
195.2418, 926.0861
195.7239, 936.1351
196.2060, 939.8569
196.6881, 935.1141
197.1703, 929.3858
197.6524, 936.6184
198.1345, 957.8686
198.6166, 974.9162
199.0987, 977.8972
199.5808, 966.7975
200.0630, 956.0513
200.5451, 944.8807
201.0272, 935.6780
201.5093, 933.9753
201.9914, 941.1602
202.4735, 948.8964
202.9557, 952.4528
203.4378, 951.3223
203.9199, 952.5862
204.4020, 957.9406
204.8841, 964.7252
205.3662, 964.8369
205.8484, 955.8721
206.3305, 948.4323
206.8126, 950.4691
207.2947, 964.2498
207.7768, 973.1473
208.2589, 974.6127
208.7411, 970.5881
209.2232, 967.7599
209.7053, 966.3984
210.1874, 965.5714
210.6695, 963.9133
211.1517, 960.3624
211.6338, 961.2033
212.1159, 970.0245
212.5980, 984.2536
213.0801, 987.2021
213.5622, 974.2460
214.0444, 958.6642
214.5265, 951.2540
215.0086, 953.7421
215.4907, 958.9041
215.9728, 966.8804
216.4549, 977.2254
216.9371, 984.0945
217.4192, 987.3782
217.9013, 987.2434
218.3834, 983.0670
218.8655, 973.0489
219.3476, 963.7278
219.8298, 955.1078
220.3119, 947.1949
220.7940, 947.4526
221.2761, 959.9713
221.7582, 975.9747
222.2403, 986.0814
222.7225, 988.4101
223.2046, 988.5417
223.6867, 986.2960
224.1688, 980.9354
224.6509, 982.3495
225.1330, 994.6761
225.6152, 1009.928
226.0973, 1017.114
226.5794, 1012.149
227.0615, 1007.370
227.5436, 1006.329
228.0257, 1009.818
228.5079, 1012.247
228.9900, 1013.348
229.4721, 1013.615
229.9542, 1013.104
230.4363, 1009.060
230.9184, 1009.409
231.4006, 1018.861
231.8827, 1041.993
232.3648, 1054.012
232.8469, 1049.681
233.3290, 1037.400
233.8111, 1032.246
234.2933, 1039.740
234.7754, 1045.092
235.2575, 1041.871
235.7396, 1025.020
236.2217, 1016.486
236.7038, 1020.558
237.1860, 1030.934
237.6681, 1034.230
238.1502, 1024.181
238.6323, 1016.967
239.1144, 1019.674
239.5965, 1038.105
240.0787, 1050.686
240.5608, 1055.779
241.0429, 1055.621
241.5250, 1055.368
242.0071, 1056.563
242.4892, 1055.290
242.9714, 1048.918
243.4535, 1032.098
243.9356, 1022.611
244.4177, 1022.200
244.8998, 1028.687
245.3819, 1037.134
245.8641, 1050.775
246.3462, 1061.644
246.8283, 1065.304
247.3104, 1057.480
247.7925, 1052.776
248.2746, 1052.768
248.7568, 1055.692
249.2389, 1055.864
249.7210, 1049.451
250.2031, 1046.090
250.6852, 1051.683
251.1674, 1072.491
251.6495, 1087.186
252.1316, 1094.345
252.6137, 1095.091
253.0958, 1091.854
253.5779, 1081.035
254.0601, 1071.800
254.5422, 1069.439
255.0243, 1076.708
255.5064, 1084.013
255.9885, 1092.526
256.4706, 1100.540
256.9528, 1101.591
257.4349, 1091.326
257.9170, 1081.277
258.3991, 1077.296
258.8812, 1080.190
259.3633, 1088.153
259.8455, 1106.094
260.3276, 1128.199
260.8097, 1131.888
261.2918, 1108.372
261.7739, 1082.597
262.2560, 1068.278
262.7382, 1068.016
263.2203, 1071.986
263.7024, 1081.692
264.1845, 1094.700
264.6666, 1102.694
265.1487, 1104.401
265.6309, 1103.581
266.1130, 1102.903
266.5951, 1103.609
267.0772, 1098.864
267.5593, 1084.730
268.0414, 1065.941
268.5236, 1060.633
269.0057, 1073.657
269.4878, 1088.339
269.9699, 1093.911
270.4520, 1087.783
270.9341, 1084.398
271.4163, 1085.786
271.8984, 1090.247
272.3805, 1092.110
272.8626, 1090.310
273.3447, 1089.116
273.8268, 1091.388
274.3090, 1097.557
274.7911, 1104.510
275.2732, 1112.935
275.7553, 1121.202
276.2374, 1124.523
276.7195, 1122.387
277.2017, 1117.380
277.6838, 1109.831
278.1659, 1099.307
278.6480, 1091.571
279.1301, 1087.022
279.6122, 1085.664
280.0944, 1088.067
280.5765, 1094.697
281.0586, 1102.445
281.5407, 1111.129
282.0228, 1120.797
282.5049, 1123.469
282.9871, 1115.728
283.4692, 1104.116
283.9513, 1103.946
284.4334, 1116.120
284.9155, 1129.181
285.3976, 1136.803
285.8798, 1139.197
286.3619, 1138.429
286.8440, 1133.380
287.3261, 1127.440
287.8082, 1127.743
288.2903, 1134.343
288.7725, 1141.247
289.2546, 1144.544
289.7367, 1144.871
290.2188, 1146.254
290.7009, 1149.349
291.1830, 1152.884
291.6652, 1154.666
292.1473, 1154.801
292.6294, 1154.526
293.1115, 1153.647
293.5936, 1152.792
294.0757, 1154.650
294.5579, 1160.062
295.0400, 1166.337
295.5221, 1170.860
296.0042, 1173.449
296.4863, 1172.800
296.9684, 1162.520
297.4506, 1148.880
297.9327, 1148.930
298.4148, 1165.956
298.8969, 1187.220
299.3790, 1199.215
299.8611, 1202.884
300.3433, 1200.821
300.8254, 1187.306
301.3075, 1170.811
301.7896, 1166.695
302.2717, 1176.880
302.7538, 1192.145
303.2360, 1206.484
303.7181, 1219.017
304.2002, 1227.817
304.6823, 1229.844
305.1644, 1228.498
305.6465, 1227.734
306.1287, 1227.814
306.6108, 1227.440
307.0929, 1224.132
307.5750, 1219.727
308.0571, 1217.461
308.5392, 1219.868
309.0214, 1224.363
309.5035, 1230.314
309.9856, 1237.755
310.4677, 1241.749
310.9498, 1237.535
311.4319, 1228.204
311.9141, 1218.047
312.3962, 1205.488
312.8783, 1194.963
313.3604, 1189.252
313.8426, 1188.362
314.3247, 1190.833
314.8068, 1200.779
315.2889, 1211.870
315.7710, 1217.580
316.2531, 1208.915
316.7353, 1200.650
317.2174, 1202.364
317.6995, 1212.731
318.1816, 1217.719
318.6637, 1205.463
319.1458, 1188.792
319.6280, 1178.008
320.1101, 1180.949
320.5922, 1184.792
321.0743, 1186.542
321.5564, 1186.321
322.0385, 1184.885
322.5207, 1178.614
323.0028, 1173.581
323.4849, 1173.708
323.9670, 1188.639
324.4491, 1197.931
324.9312, 1193.841
325.4134, 1180.537
325.8955, 1173.706
326.3776, 1182.271
326.8597, 1192.434
327.3418, 1197.811
327.8239, 1194.026
328.3061, 1190.976
328.7882, 1170.438
329.2703, 1186.971
329.7524, 1196.082
330.2345, 1198.169
330.7166, 1172.196
331.1988, 1182.457
331.6809, 1178.197
332.1630, 1173.342
332.6451, 1188.702
333.1272, 1166.811
333.6093, 1181.851
334.0915, 1182.148
334.5736, 1189.193
335.0557, 1181.627
335.5378, 1178.574
336.0199, 1190.136
336.5020, 1193.606
336.9842, 1184.359
337.4663, 1191.832
337.9484, 1169.430
338.4305, 1173.245
338.9126, 1188.370
339.3947, 1184.239
339.8769, 1187.753
340.3590, 1184.277
340.8411, 1179.155
341.3232, 1178.344
341.8053, 1182.303
342.2874, 1187.008
342.7696, 1190.954
343.2517, 1194.830
343.7338, 1203.719
344.2159, 1219.176
344.6980, 1232.094
345.1801, 1231.798
345.6623, 1219.321
346.1444, 1209.840
346.6265, 1206.766
347.1086, 1208.468
347.5907, 1211.551
348.0728, 1215.964
348.5550, 1221.868
349.0371, 1232.172
349.5192, 1244.395
350.0013, 1249.907
350.4834, 1245.566
350.9655, 1237.139
351.4477, 1232.326
351.9298, 1230.633
352.4119, 1229.998
352.8940, 1228.002
353.3761, 1226.528
353.8582, 1229.743
354.3404, 1239.411
354.8225, 1248.908
355.3046, 1251.931
355.7867, 1249.859
356.2688, 1246.002
356.7509, 1239.668
357.2331, 1233.661
357.7152, 1230.888
358.1973, 1231.784
358.6794, 1233.659
359.1615, 1234.992
359.6436, 1236.189
360.1258, 1237.817
360.6079, 1240.422
361.0900, 1243.244
361.5721, 1245.348
362.0542, 1246.760
362.5363, 1249.759
363.0185, 1259.473
363.5006, 1269.282
363.9827, 1273.161
364.4648, 1263.630
364.9469, 1254.235
365.4290, 1249.878
365.9112, 1249.630
366.3933, 1246.365
366.8754, 1230.123
367.3575, 1216.246
367.8396, 1213.649
368.3217, 1239.383
368.8039, 1256.247
369.2860, 1256.284
369.7681, 1245.299
370.2502, 1240.776
370.7323, 1248.875
371.2144, 1257.291
371.6966, 1261.045
372.1787, 1257.280
372.6608, 1255.987
373.1429, 1257.841
373.6250, 1261.804
374.1071, 1266.829
374.5893, 1275.112
375.0714, 1279.904
375.5535, 1277.559
376.0356, 1267.317
376.5177, 1262.428
376.9998, 1264.777
377.4820, 1269.335
377.9641, 1269.251
378.4462, 1263.274
378.9283, 1261.224
379.4104, 1267.122
379.8925, 1278.761
380.3747, 1286.499
380.8568, 1290.405
381.3389, 1290.390
381.8210, 1283.371
382.3031, 1270.734
382.7852, 1263.753
383.2674, 1265.473
383.7495, 1272.602
384.2316, 1279.541
384.7137, 1286.416
385.1958, 1293.600
385.6779, 1303.663
386.1601, 1313.978
386.6422, 1317.925
387.1243, 1313.643
387.6064, 1306.971
388.0885, 1304.230
388.5706, 1304.005
389.0528, 1302.708
389.5349, 1294.792
390.0170, 1287.117
390.4991, 1288.084
390.9812, 1298.781
391.4633, 1308.414
391.9455, 1307.985
392.4276, 1302.939
392.9097, 1300.196
393.3918, 1308.033
393.8739, 1313.516
394.3561, 1309.066
394.8382, 1295.581
395.3203, 1282.189
395.8024, 1269.180
396.2845, 1259.392
396.7667, 1254.938
397.2488, 1260.654
397.7309, 1266.126
398.2130, 1270.433
398.6951, 1273.301
399.1772, 1273.870
399.6594, 1269.682
400.1415, 1265.193
400.6236, 1261.574
401.1057, 1257.388
401.5878, 1257.737
402.0699, 1266.015
402.5521, 1277.174
403.0342, 1283.974
403.5163, 1285.917
403.9984, 1284.197
404.4805, 1277.787
404.9626, 1266.615
405.4448, 1258.615
405.9269, 1253.713
406.4090, 1252.121
406.8911, 1255.432
407.3732, 1264.795
407.8553, 1271.408
408.3375, 1273.615
408.8196, 1272.059
409.3017, 1266.375
409.7838, 1255.845
410.2659, 1249.303
410.7480, 1257.802
411.2302, 1277.289
411.7123, 1285.892
412.1944, 1279.059
412.6765, 1266.841
413.1586, 1262.232
413.6407, 1264.041
414.1229, 1267.072
414.6050, 1267.811
415.0871, 1268.543
415.5692, 1272.804
416.0513, 1280.846
416.5334, 1290.661
417.0156, 1306.020
417.4977, 1321.127
417.9798, 1327.124
418.4619, 1312.351
418.9440, 1294.895
419.4261, 1284.041
419.9083, 1279.832
420.3904, 1281.196
420.8725, 1295.579
421.3546, 1310.594
421.8367, 1316.716
422.3188, 1306.479
422.8010, 1297.372
423.2831, 1294.878
423.7652, 1296.414
424.2473, 1296.307
424.7294, 1285.488
425.2115, 1280.486
425.6937, 1291.487
426.1758, 1328.169
426.6579, 1342.292
427.1400, 1316.814
427.6221, 1280.225
428.1042, 1261.434
428.5864, 1268.026
429.0685, 1277.344
429.5506, 1286.022
430.0327, 1294.188
430.5148, 1303.798
430.9969, 1316.225
431.4791, 1326.664
431.9612, 1330.988
432.4433, 1328.864
432.9254, 1326.448
433.4075, 1323.825
433.8896, 1321.957
434.3718, 1323.647
434.8539, 1328.765
435.3360, 1332.692
435.8181, 1333.390
436.3002, 1331.139
436.7823, 1325.542
437.2645, 1316.295
437.7466, 1307.320
438.2287, 1302.180
438.7108, 1300.208
439.1929, 1299.974
439.6750, 1301.286
440.1572, 1303.846
440.6393, 1308.716
441.1214, 1315.159
441.6035, 1319.530
442.0856, 1315.580
442.5677, 1310.999
443.0499, 1313.494
443.5320, 1328.701
444.0141, 1340.464
444.4962, 1339.836
444.9783, 1331.987
445.4604, 1325.578
445.9426, 1324.448
446.4247, 1323.585
446.9068, 1320.660
447.3889, 1315.003
447.8710, 1311.939
448.3531, 1311.112
448.8353, 1313.399
449.3174, 1320.162
449.7995, 1338.417
450.2816, 1348.945
450.7637, 1345.994
451.2458, 1334.045
451.7280, 1331.159
452.2101, 1340.150
452.6922, 1351.414
453.1743, 1362.595
453.6564, 1374.674
454.1385, 1373.709
454.6207, 1356.035
455.1028, 1333.022
455.5849, 1319.774
456.0670, 1315.997
456.5491, 1316.304
457.0313, 1319.410
457.5134, 1325.120
457.9955, 1334.821
458.4776, 1348.354
458.9597, 1359.246
459.4418, 1361.019
459.9240, 1357.011
460.4061, 1352.459
460.8882, 1347.817
461.3703, 1344.443
461.8524, 1344.284
462.3345, 1346.367
462.8167, 1348.452
463.2988, 1347.551
463.7809, 1347.747
464.2630, 1353.476
464.7451, 1365.882
465.2272, 1373.674
465.7094, 1369.267
466.1915, 1360.219
466.6736, 1353.259
467.1557, 1335.185
467.6378, 1353.227
468.1199, 1363.847
468.6021, 1367.443
469.0842, 1342.979
469.5663, 1354.748
470.0484, 1351.997
470.5305, 1348.650
471.0126, 1365.520
471.4948, 1345.137
471.9769, 1361.686
472.4590, 1363.492
472.9411, 1372.046
473.4232, 1365.989
473.9053, 1364.445
474.3875, 1377.516
474.8696, 1382.494
475.3517, 1374.755
475.8338, 1383.738
476.3159, 1362.845
476.7981, 1368.168
477.2802, 1384.802
477.7623, 1377.798
478.2444, 1371.096
478.7265, 1386.364
479.2086, 1394.210
479.6908, 1395.032
480.1729, 1367.794
480.6550, 1376.790
481.1371, 1371.265
481.6192, 1365.145
482.1013, 1379.241
482.5835, 1356.084
483.0656, 1369.859
483.5477, 1368.891
484.0298, 1374.671
484.5119, 1365.841
484.9940, 1374.124
485.4762, 1383.957
485.9583, 1393.208
486.4404, 1398.000
486.9225, 1396.246
487.4046, 1391.503
487.8867, 1383.068
488.3689, 1369.143
488.8510, 1362.590
489.3331, 1365.908
489.8152, 1373.497
490.2973, 1380.665
490.7794, 1387.814
491.2616, 1392.334
491.7437, 1392.971
492.2258, 1391.377
492.7079, 1393.212
493.1900, 1398.761
493.6721, 1401.766
494.1543, 1396.044
494.6364, 1384.625
495.1185, 1377.477
495.6006, 1375.216
496.0827, 1376.726
496.5648, 1384.207
497.0470, 1394.504
497.5291, 1400.843
498.0112, 1398.953
498.4933, 1394.333
498.9754, 1389.950
499.4576, 1386.282
499.9397, 1385.445
500.4218, 1390.956
500.9039, 1397.792
501.3860, 1403.402
501.8681, 1408.083
502.3503, 1409.196
502.8324, 1401.571
503.3145, 1391.755
503.7966, 1387.615
504.2787, 1394.571
504.7608, 1401.149
505.2430, 1406.333
505.7251, 1410.015
506.2072, 1411.062
506.6893, 1407.614
507.1714, 1404.843
507.6535, 1406.373
508.1357, 1413.070
508.6178, 1417.012
509.0999, 1404.397
509.5820, 1421.162
510.0641, 1430.504
510.5462, 1432.823
511.0284, 1407.081
511.5105, 1417.573
511.9926, 1413.545
512.4747, 1408.921
512.9568, 1424.512
513.4389, 1402.852
513.9210, 1418.124
514.4031, 1418.653
514.8853, 1425.929
515.3674, 1418.594
515.8495, 1415.773
516.3316, 1427.566
516.8137, 1431.267
517.2958, 1422.251
517.7780, 1429.956
518.2601, 1407.786
518.7422, 1411.832
519.2244, 1427.188
519.7065, 1418.907
520.1886, 1426.879
520.6707, 1428.661
521.1528, 1402.310
521.6349, 1424.885
522.1171, 1426.301
522.5992, 1405.992
523.0813, 1407.372
523.5634, 1411.763
524.0455, 1428.483
524.5276, 1440.825
525.0098, 1443.381
525.4919, 1439.009
525.9740, 1437.240
526.4561, 1438.128
526.9382, 1439.433
527.4203, 1440.042
527.9025, 1439.891
528.3846, 1438.484
528.8667, 1435.552
529.3488, 1432.802
529.8309, 1431.415
530.3130, 1431.389
530.7952, 1432.724
531.2773, 1434.623
531.7594, 1438.612
532.2415, 1448.815
532.7236, 1462.939
533.2057, 1470.671
533.6879, 1462.414
534.1700, 1452.135
534.6521, 1446.427
535.1342, 1446.491
535.6163, 1449.659
536.0984, 1459.792
536.5806, 1470.292
537.0627, 1473.227
537.5448, 1463.711
538.0269, 1458.879
538.5090, 1463.056
538.9911, 1472.965
539.4733, 1477.645
539.9554, 1476.634
540.4375, 1474.039
540.9196, 1471.707
541.4017, 1469.600
541.8839, 1468.021
542.3660, 1467.104
542.8481, 1465.336
543.3302, 1459.527
543.8123, 1451.996
544.2944, 1447.260
544.7766, 1446.814
545.2587, 1449.152
545.7408, 1456.020
546.2229, 1464.907
546.7050, 1469.779
547.1871, 1460.879
547.6693, 1453.636
548.1514, 1458.000
548.6335, 1476.163
549.1156, 1488.585
549.5977, 1485.951
550.0798, 1480.960
550.5620, 1482.855
551.0441, 1499.592
551.5262, 1507.068
552.0083, 1500.844
552.4904, 1487.395
552.9725, 1479.108
553.4547, 1476.590
553.9368, 1476.168
554.4189, 1477.277
554.9010, 1479.395
555.3831, 1479.417
555.8652, 1477.256
556.3474, 1477.388
556.8295, 1487.930
557.3116, 1502.570
557.7937, 1506.668
558.2758, 1496.186
558.7579, 1484.150
559.2401, 1482.999
559.7222, 1487.355
560.2043, 1488.920
560.6864, 1480.376
561.1685, 1472.443
561.6506, 1471.120
562.1328, 1475.053
562.6149, 1476.659
563.0970, 1470.047
563.5791, 1464.821
564.0612, 1465.510
564.5433, 1474.413
565.0255, 1480.192
565.5076, 1480.835
565.9897, 1480.674
566.4718, 1484.313
566.9539, 1492.253
567.4360, 1500.895
567.9182, 1510.127
568.4003, 1518.998
568.8824, 1526.257
569.3645, 1531.684
569.8466, 1533.287
570.3287, 1527.539
570.8109, 1518.165
571.2930, 1509.733
571.7751, 1502.459
572.2572, 1500.450
572.7393, 1514.737
573.2214, 1531.682
573.7036, 1536.086
574.1857, 1518.994
574.6678, 1502.779
575.1499, 1494.928
575.6320, 1493.179
576.1141, 1494.158
576.5963, 1501.488
577.0784, 1506.801
577.5605, 1506.787
578.0426, 1502.842
578.5247, 1504.465
579.0068, 1513.800
579.4890, 1524.290
579.9711, 1535.026
580.4532, 1546.533
580.9353, 1544.078
581.4174, 1524.609
581.8995, 1503.824
582.3817, 1500.725
582.8638, 1511.349
583.3459, 1521.373
583.8280, 1527.721
584.3101, 1531.444
584.7922, 1533.550
585.2744, 1533.876
585.7565, 1532.068
586.2386, 1520.187
586.7207, 1512.607
587.2028, 1523.597
587.6849, 1552.510
588.1671, 1570.042
588.6492, 1560.148
589.1313, 1542.290
589.6134, 1527.348
590.0955, 1512.697
590.5776, 1507.649
591.0598, 1516.528
591.5419, 1531.131
592.0240, 1540.955
592.5061, 1545.373
592.9882, 1548.297
593.4703, 1550.970
593.9525, 1552.209
594.4346, 1546.684
594.9167, 1535.061
595.3988, 1526.692
595.8809, 1530.180
596.3630, 1539.145
596.8452, 1542.248
597.3273, 1539.148
597.8094, 1537.423
598.2915, 1544.274
598.7736, 1553.888
599.2557, 1560.851
599.7379, 1564.000
600.2200, 1564.258
600.7021, 1560.020
601.1842, 1553.485
601.6663, 1548.173
602.1484, 1545.475
602.6306, 1542.102
603.1127, 1536.160
603.5948, 1528.958
604.0769, 1527.988
604.5590, 1534.791
605.0411, 1542.786
605.5233, 1547.976
606.0054, 1550.915
606.4875, 1558.289
606.9696, 1570.905
607.4517, 1579.269
607.9338, 1568.533
608.4160, 1547.555
608.8981, 1535.276
609.3802, 1537.178
609.8623, 1543.712
610.3444, 1549.771
610.8265, 1555.160
611.3087, 1559.682
611.7908, 1565.594
612.2729, 1568.201
612.7550, 1561.184
613.2371, 1547.083
613.7192, 1544.690
614.2014, 1564.213
614.6835, 1583.459
615.1656, 1593.361
615.6477, 1592.976
616.1298, 1592.009
616.6119, 1590.530
617.0941, 1588.266
617.5762, 1584.746
618.0583, 1580.059
618.5404, 1575.111
619.0225, 1569.926
619.5046, 1564.878
619.9868, 1560.442
620.4689, 1556.497
620.9510, 1552.593
621.4331, 1542.583
621.9152, 1537.773
622.3973, 1553.424
622.8795, 1582.902
623.3616, 1598.926
623.8437, 1575.564
624.3258, 1551.407
624.8079, 1546.520
625.2900, 1565.456
625.7722, 1576.783
626.2543, 1577.437
626.7364, 1574.290
627.2185, 1572.077
627.7006, 1570.869
628.1827, 1570.098
628.6649, 1569.647
629.1470, 1569.831
629.6291, 1569.907
630.1112, 1570.582
630.5933, 1576.344
631.0754, 1593.829
631.5576, 1610.867
632.0397, 1608.530
632.5218, 1592.378
633.0039, 1579.788
633.4860, 1582.123
633.9681, 1588.567
634.4503, 1594.026
634.9324, 1598.154
635.4145, 1600.244
635.8966, 1599.365
636.3787, 1596.948
636.8608, 1593.241
637.3430, 1586.261
637.8251, 1584.120
638.3072, 1589.089
638.7893, 1595.469
639.2714, 1594.401
639.7535, 1585.783
640.2357, 1583.672
640.7178, 1592.759
641.1999, 1606.104
641.6820, 1614.830
642.1641, 1618.856
642.6462, 1617.826
643.1284, 1604.062
643.6105, 1590.901
644.0926, 1591.402
644.5747, 1603.661
645.0568, 1615.071
645.5389, 1626.183
646.0211, 1630.795
646.5032, 1622.772
646.9853, 1595.128
647.4674, 1580.226
647.9495, 1583.681
648.4316, 1593.506
648.9138, 1601.528
649.3959, 1608.207
649.8780, 1609.039
650.3601, 1601.993
650.8422, 1592.660
651.3243, 1590.086
651.8065, 1592.981
652.2886, 1594.451
652.7707, 1591.004
653.2528, 1586.631
653.7349, 1583.926
654.2170, 1583.768
654.6992, 1588.836
655.1813, 1608.521
655.6634, 1626.618
656.1455, 1635.053
656.6276, 1633.397
657.1097, 1625.996
657.5919, 1605.557
658.0740, 1587.040
658.5561, 1577.616
659.0382, 1578.454
659.5203, 1584.163
660.0024, 1596.291
660.4846, 1609.705
660.9667, 1619.458
661.4488, 1625.747
661.9309, 1629.507
662.4130, 1630.782
662.8951, 1629.935
663.3773, 1626.245
663.8594, 1620.849
664.3415, 1616.180
664.8236, 1612.151
665.3057, 1610.165
665.7878, 1614.005
666.2700, 1621.075
666.7521, 1622.540
667.2342, 1609.065
667.7163, 1596.977
668.1984, 1592.416
668.6805, 1595.372
669.1627, 1594.581
669.6448, 1587.343
670.1269, 1582.498
670.6090, 1587.245
671.0911, 1601.044
671.5732, 1612.817
672.0554, 1622.335
672.5375, 1628.582
673.0196, 1628.207
673.5017, 1624.220
673.9838, 1623.130
674.4659, 1628.584
674.9481, 1631.354
675.4302, 1620.535
675.9123, 1604.664
676.3944, 1596.040
676.8765, 1605.344
677.3586, 1613.556
677.8408, 1615.470
678.3229, 1613.640
678.8050, 1616.226
679.2871, 1627.225
679.7692, 1632.121
680.2513, 1622.169
680.7335, 1602.132
681.2156, 1598.698
681.6977, 1612.074
682.1799, 1627.436
682.6620, 1635.838
683.1441, 1639.137
683.6262, 1639.356
684.1083, 1636.592
684.5905, 1634.247
685.0726, 1634.983
685.5547, 1636.863
686.0368, 1638.249
686.5189, 1638.728
687.0010, 1638.967
687.4832, 1637.689
687.9653, 1637.027
688.4474, 1640.532
688.9295, 1652.988
689.4116, 1654.445
689.8937, 1638.482
690.3759, 1615.585
690.8580, 1606.085
691.3401, 1609.094
691.8222, 1614.739
692.3043, 1622.829
692.7864, 1628.204
693.2686, 1616.957
693.7507, 1595.060
694.2328, 1584.371
694.7149, 1609.048
695.1970, 1636.458
695.6791, 1646.422
696.1613, 1638.198
696.6434, 1632.387
697.1255, 1634.943
697.6076, 1637.278
698.0897, 1634.648
698.5718, 1625.548
699.0540, 1623.187
699.5361, 1629.645
700.0182, 1636.535
700.5003, 1635.596
700.9824, 1628.147
701.4645, 1618.677
701.9467, 1606.470
702.4288, 1599.686
702.9109, 1614.343
703.3930, 1637.406
703.8751, 1649.000
704.3572, 1635.687
704.8394, 1621.074
705.3215, 1609.257
705.8036, 1602.915
706.2857, 1608.231
706.7678, 1640.618
707.2499, 1659.616
707.7321, 1653.121
708.2142, 1630.043
708.6963, 1622.047
709.1784, 1630.686
709.6605, 1638.579
710.1426, 1636.345
710.6248, 1628.654
711.1069, 1627.362
711.5890, 1631.509
712.0711, 1634.592
712.5532, 1631.694
713.0353, 1626.432
713.5175, 1620.475
713.9996, 1613.753
714.4817, 1611.221
714.9638, 1617.509
715.4459, 1625.855
715.9280, 1632.393
716.4102, 1636.854
716.8923, 1640.534
717.3744, 1643.836
717.8565, 1645.659
718.3386, 1645.290
718.8207, 1642.663
719.3029, 1635.683
719.7850, 1622.772
720.2671, 1610.898
720.7492, 1607.925
721.2313, 1611.890
721.7134, 1619.589
722.1956, 1633.492
722.6777, 1645.885
723.1598, 1656.600
723.6419, 1662.950
724.1240, 1659.516
724.6061, 1631.354
725.0883, 1612.408
725.5704, 1609.538
726.0525, 1619.268
726.5346, 1632.990
727.0167, 1652.145
727.4988, 1663.598
727.9810, 1658.408
728.4631, 1643.248
728.9452, 1631.352
729.4273, 1623.184
729.9094, 1621.711
730.3915, 1637.370
730.8737, 1654.150
731.3558, 1657.639
731.8379, 1646.917
732.3200, 1637.625
732.8021, 1635.103
733.2842, 1634.397
733.7664, 1632.710
734.2485, 1629.412
734.7306, 1628.482
735.2127, 1630.413
735.6948, 1633.554
736.1769, 1636.765
736.6591, 1640.019
737.1412, 1643.498
737.6233, 1647.503
738.1054, 1649.800
738.5875, 1645.993
739.0696, 1639.825
739.5518, 1636.803
740.0339, 1639.447
740.5160, 1642.940
740.9981, 1646.877
741.4802, 1650.091
741.9623, 1650.791
742.4445, 1647.288
742.9266, 1644.444
743.4087, 1643.021
743.8908, 1642.238
744.3729, 1640.491
744.8550, 1637.781
745.3372, 1634.738
745.8193, 1630.111
746.3014, 1627.219
746.7835, 1633.661
747.2656, 1646.405
747.7477, 1656.632
748.2299, 1662.236
748.7120, 1662.002
749.1941, 1650.226
749.6762, 1630.147
750.1583, 1619.398
750.6404, 1628.205
751.1226, 1635.971
751.6047, 1635.479
752.0868, 1627.829
752.5689, 1624.921
753.0510, 1627.075
753.5331, 1631.377
754.0153, 1637.371
754.4974, 1643.895
754.9795, 1635.594
755.4616, 1653.094
755.9437, 1663.172
756.4258, 1666.226
756.9080, 1641.221
757.3901, 1652.448
757.8722, 1649.156
758.3543, 1645.267
758.8364, 1661.595
759.3185, 1640.671
759.8007, 1656.678
760.2828, 1657.943
760.7649, 1665.954
761.2470, 1659.356
761.7291, 1657.270
762.2112, 1669.799
762.6934, 1674.236
763.1755, 1665.956
763.6576, 1674.397
764.1397, 1652.962
764.6218, 1657.743
765.1039, 1673.836
765.5861, 1666.290
766.0682, 1674.998
766.5503, 1677.516
767.0324, 1651.901
767.5145, 1675.211
767.9966, 1677.363
768.4788, 1643.453
768.9609, 1660.637
769.4430, 1670.399
769.9251, 1673.137
770.4072, 1647.816
770.8893, 1658.728
771.3715, 1655.119
771.8536, 1650.915
772.3357, 1666.926
772.8178, 1645.686
773.2999, 1661.377
773.7820, 1662.326
774.2642, 1670.022
774.7463, 1663.107
775.2284, 1660.705
775.7105, 1672.919
776.1926, 1677.040
776.6747, 1668.443
777.1569, 1676.568
777.6390, 1654.817
778.1211, 1659.283
778.6032, 1675.059
779.0853, 1667.197
779.5674, 1675.589
780.0496, 1677.791
780.5317, 1651.860
781.0138, 1674.855
781.4959, 1676.690
781.9780, 1656.801
782.4601, 1678.119
782.9423, 1661.225
783.4244, 1657.970
783.9065, 1650.383
784.3886, 1646.857
784.8707, 1657.811
785.3528, 1666.790
785.8350, 1660.440
786.3171, 1645.426
786.7992, 1648.357
787.2813, 1667.614
787.7634, 1683.953
788.2455, 1682.498
788.7277, 1674.193
789.2098, 1665.796
789.6919, 1657.773
790.1740, 1656.876
790.6561, 1675.928
791.1382, 1691.799
791.6204, 1691.927
792.1025, 1674.285
792.5846, 1667.309
793.0667, 1673.102
793.5488, 1680.620
794.0309, 1681.744
794.5131, 1677.705
794.9952, 1670.667
795.4773, 1660.690
795.9594, 1651.865
796.4415, 1645.461
796.9236, 1642.502
797.4058, 1645.005
797.8879, 1655.411
798.3700, 1662.935
798.8521, 1666.725
799.3342, 1667.225
799.8163, 1662.627
800.2985, 1651.082
800.7806, 1650.934
801.2627, 1664.657
801.7448, 1679.484
802.2269, 1680.143
802.7090, 1672.918
803.1912, 1671.036
803.6733, 1677.574
804.1554, 1682.770
804.6375, 1676.491
805.1196, 1668.489
805.6017, 1668.180
806.0839, 1685.076
806.5660, 1693.828
807.0481, 1691.599
807.5302, 1684.740
808.0123, 1678.071
808.4944, 1671.590
808.9766, 1671.496
809.4587, 1679.968
809.9408, 1687.391
810.4229, 1677.061
810.9050, 1660.577
811.3871, 1658.572
811.8693, 1683.285
812.3514, 1702.371
812.8335, 1696.808
813.3156, 1681.527
813.7977, 1673.203
814.2798, 1675.187
814.7620, 1677.869
815.2441, 1681.584
815.7262, 1684.598
816.2083, 1683.710
816.6904, 1679.667
817.1725, 1677.181
817.6547, 1677.236
818.1368, 1678.832
818.6189, 1683.186
819.1010, 1687.702
819.5831, 1688.781
820.0652, 1683.422
820.5474, 1677.709
821.0295, 1667.288
821.5116, 1660.500
821.9937, 1669.521
822.4758, 1700.634
822.9579, 1718.876
823.4401, 1718.023
823.9222, 1708.503
824.4043, 1704.792
824.8864, 1704.444
825.3685, 1699.772
825.8506, 1685.862
826.3328, 1674.739
826.8149, 1677.205
827.2970, 1686.266
827.7791, 1692.981
828.2612, 1695.685
828.7433, 1695.675
829.2255, 1691.506
829.7076, 1686.214
830.1897, 1684.683
830.6718, 1686.914
831.1539, 1686.334
831.6360, 1681.092
832.1182, 1674.888
832.6003, 1669.706
833.0824, 1667.299
833.5645, 1671.220
834.0466, 1687.533
834.5287, 1701.413
835.0109, 1709.187
835.4930, 1710.880
835.9751, 1706.228
836.4572, 1690.954
836.9393, 1681.640
837.4214, 1680.477
837.9036, 1684.620
838.3857, 1693.571
838.8678, 1705.009
839.3499, 1708.250
839.8320, 1698.370
840.3141, 1687.314
840.7963, 1684.422
841.2784, 1686.128
841.7605, 1688.081
842.2426, 1688.692
842.7247, 1690.360
843.2068, 1693.153
843.6890, 1697.091
844.1711, 1704.823
844.6532, 1717.180
845.1353, 1715.203
845.6174, 1693.305
846.0995, 1668.780
846.5817, 1662.425
847.0638, 1667.856
847.5460, 1673.983
848.0281, 1677.530
848.5102, 1682.993
848.9923, 1699.356
849.4744, 1714.442
849.9565, 1714.095
850.4387, 1686.831
850.9208, 1675.332
851.4029, 1686.829
851.8850, 1701.553
852.3671, 1690.996
852.8492, 1663.252
853.3314, 1649.986
853.8135, 1657.841
854.2956, 1671.521
854.7777, 1683.044
855.2598, 1691.956
855.7419, 1697.951
856.2241, 1700.711
856.7062, 1700.281
857.1883, 1692.586
857.6704, 1686.611
858.1525, 1692.203
858.6346, 1709.856
859.1168, 1721.954
859.5989, 1727.676
860.0810, 1725.912
860.5631, 1705.902
861.0452, 1681.969
861.5273, 1677.094
862.0095, 1698.591
862.4916, 1714.886
862.9737, 1708.620
863.4558, 1697.039
863.9379, 1692.373
864.4200, 1696.942
864.9022, 1695.767
865.3843, 1687.387
865.8664, 1678.720
866.3485, 1672.538
866.8306, 1670.993
867.3127, 1683.711
867.7949, 1711.059
868.2770, 1731.960
868.7591, 1726.188
869.2412, 1714.710
869.7233, 1713.557
870.2054, 1726.766
870.6876, 1731.577
871.1697, 1723.503
871.6518, 1715.658
872.1339, 1717.100
872.6160, 1725.871
873.0981, 1727.246
873.5803, 1721.560
874.0624, 1715.909
874.5445, 1713.436
875.0266, 1714.429
875.5087, 1722.547
875.9908, 1736.793
876.4730, 1743.072
876.9551, 1727.314
877.4372, 1715.325
877.9193, 1716.496
878.4014, 1728.626
878.8835, 1739.256
879.3657, 1748.460
879.8478, 1752.172
880.3299, 1743.942
880.8120, 1731.747
881.2941, 1728.797
881.7762, 1731.948
882.2584, 1730.178
882.7405, 1707.363
883.2226, 1691.743
883.7047, 1699.765
884.1868, 1708.835
884.6689, 1725.734
885.1511, 1735.211
885.6332, 1737.664
886.1153, 1712.058
886.5974, 1722.684
887.0795, 1718.791
887.5616, 1714.301
888.0438, 1730.028
888.5259, 1708.502
889.0080, 1723.908
889.4901, 1724.572
889.9722, 1731.983
890.4543, 1724.783
890.9365, 1722.096
891.4186, 1734.025
891.9007, 1737.860
892.3828, 1728.979
892.8649, 1736.818
893.3470, 1714.783
893.8292, 1718.963
894.3113, 1734.454
894.7934, 1726.308
895.2755, 1734.414
895.7576, 1736.331
896.2397, 1710.115
896.7219, 1732.824
897.2040, 1734.375
897.6861, 1714.200
898.1682, 1735.233
898.6503, 1718.054
899.1324, 1714.514
899.6146, 1721.238
900.0967, 1717.263
900.5788, 1730.157
901.0609, 1726.799
901.5430, 1712.981
902.0251, 1716.034
902.5073, 1733.877
902.9894, 1738.807
903.4715, 1715.171
903.9536, 1695.819
904.4357, 1704.503
904.9178, 1739.003
905.4000, 1750.019
905.8821, 1737.326
906.3642, 1721.515
906.8463, 1716.963
907.3284, 1716.862
907.8105, 1712.175
908.2927, 1703.678
908.7748, 1701.643
909.2569, 1716.095
909.7390, 1729.669
910.2211, 1736.047
910.7032, 1737.117
911.1854, 1744.819
911.6675, 1759.495
912.1496, 1766.884
912.6317, 1757.145
913.1138, 1740.393
913.5959, 1726.539
914.0781, 1716.128
914.5602, 1710.314
915.0423, 1709.525
915.5244, 1714.060
916.0065, 1729.730
916.4886, 1747.570
916.9708, 1748.536
917.4529, 1730.520
917.9350, 1718.128
918.4171, 1716.429
918.8992, 1721.856
919.3813, 1734.051
919.8635, 1748.850
920.3456, 1759.158
920.8277, 1762.169
921.3098, 1762.278
921.7919, 1758.691
922.2740, 1754.122
922.7562, 1750.721
923.2383, 1748.483
923.7204, 1747.528
924.2025, 1747.945
924.6846, 1749.146
925.1667, 1750.340
925.6489, 1752.042
926.1310, 1756.436
926.6131, 1763.898
927.0952, 1767.376
927.5773, 1760.211
928.0594, 1751.685
928.5416, 1746.685
929.0237, 1745.194
929.5058, 1743.984
929.9879, 1743.118
930.4700, 1742.035
930.9521, 1739.773
931.4343, 1737.431
931.9164, 1735.434
932.3985, 1734.706
932.8806, 1738.734
933.3627, 1757.888
933.8448, 1772.405
934.3270, 1772.941
934.8091, 1763.934
935.2912, 1753.901
935.7733, 1741.642
936.2554, 1736.320
936.7375, 1741.837
937.2197, 1751.797
937.7018, 1758.565
938.1839, 1762.398
938.6660, 1763.610
939.1481, 1760.571
939.6302, 1758.139
940.1124, 1756.401
940.5945, 1757.002
941.0766, 1762.716
941.5587, 1775.600
942.0408, 1782.907
942.5229, 1783.795
943.0051, 1779.688
943.4872, 1767.735
943.9693, 1753.389
944.4514, 1745.345
944.9335, 1744.792
945.4156, 1746.859
945.8978, 1754.193
946.3799, 1759.092
946.8620, 1755.679
947.3441, 1744.542
947.8262, 1745.300
948.3083, 1759.298
948.7905, 1770.624
949.2726, 1766.649
949.7547, 1756.800
950.2368, 1754.172
950.7189, 1757.322
951.2010, 1761.532
951.6832, 1768.265
952.1653, 1771.740
952.6474, 1768.584
953.1295, 1762.347
953.6116, 1760.042
954.0938, 1761.637
954.5759, 1768.978
955.0580, 1785.461
955.5401, 1798.830
956.0222, 1788.793
956.5043, 1768.213
956.9865, 1756.720
957.4686, 1765.268
957.9507, 1769.800
958.4328, 1763.291
958.9149, 1755.084
959.3970, 1752.025
959.8792, 1754.171
960.3613, 1760.367
960.8434, 1770.864
961.3255, 1779.533
961.8076, 1779.499
962.2897, 1776.673
962.7719, 1776.121
963.2540, 1778.270
963.7361, 1783.666
964.2182, 1797.995
964.7003, 1807.446
965.1824, 1806.396
965.6646, 1797.559
966.1467, 1787.399
966.6288, 1777.020
967.1109, 1775.448
967.5930, 1795.660
968.0751, 1814.096
968.5573, 1807.252
969.0394, 1786.265
969.5215, 1770.532
970.0036, 1762.968
970.4857, 1761.947
970.9678, 1769.883
971.4500, 1780.068
971.9321, 1784.823
972.4142, 1784.549
972.8963, 1778.834
973.3784, 1766.935
973.8605, 1758.925
974.3427, 1764.237
974.8248, 1774.595
975.3069, 1785.353
975.7890, 1796.839
976.2711, 1798.712
976.7532, 1787.344
977.2354, 1777.742
977.7175, 1779.618
978.1996, 1788.348
978.6817, 1792.469
979.1638, 1792.812
979.6459, 1792.701
980.1281, 1794.677
980.6102, 1795.535
981.0923, 1791.786
981.5744, 1786.603
982.0565, 1787.734
982.5386, 1797.808
983.0208, 1798.688
983.5029, 1784.663
983.9850, 1768.641
984.4671, 1767.855
984.9492, 1775.836
985.4313, 1782.676
985.9135, 1786.586
986.3956, 1788.323
986.8777, 1788.115
987.3598, 1785.570
987.8419, 1778.757
988.3240, 1767.631
988.8062, 1764.141
989.2883, 1768.324
989.7704, 1776.685
990.2525, 1789.943
990.7346, 1803.925
991.2167, 1816.913
991.6989, 1827.397
992.1810, 1828.865
992.6631, 1808.445
993.1452, 1796.658
993.6273, 1802.087
994.1094, 1816.103
994.5916, 1823.160
995.0737, 1823.559
995.5558, 1817.664
996.0379, 1802.917
996.5200, 1790.844
997.0021, 1790.351
997.4843, 1796.528
997.9664, 1805.608
998.4485, 1820.194
998.9306, 1825.466
999.4127, 1818.559
999.8948, 1811.187
1000.377, 1813.300
1000.859, 1821.218
1001.341, 1827.438
1001.823, 1831.541
1002.305, 1832.568
1002.788, 1826.961
1003.270, 1821.522
1003.752, 1819.730
1004.234, 1820.069
1004.716, 1816.971
1005.198, 1809.529
1005.680, 1810.219
1006.162, 1824.690
1006.644, 1841.741
1007.127, 1851.218
1007.609, 1852.764
1008.091, 1844.127
1008.573, 1817.686
1009.055, 1799.250
1009.537, 1792.017
1010.019, 1792.794
1010.501, 1801.971
1010.984, 1818.384
1011.466, 1830.275
1011.948, 1837.655
1012.430, 1843.009
1012.912, 1849.749
1013.394, 1853.443
1013.876, 1849.759
1014.358, 1839.909
1014.841, 1829.793
1015.323, 1817.101
1015.805, 1811.360
1016.287, 1816.173
1016.769, 1825.789
1017.251, 1833.402
1017.733, 1837.944
1018.215, 1835.822
1018.697, 1823.133
1019.180, 1813.330
1019.662, 1814.092
1020.144, 1818.024
1020.626, 1819.648
1021.108, 1818.652
1021.590, 1820.789
1022.072, 1826.152
1022.554, 1832.387
1023.036, 1840.636
1023.519, 1846.862
1024.001, 1842.697
1024.483, 1832.078
1024.965, 1830.327
1025.447, 1848.532
1025.929, 1863.432
1026.411, 1871.801
1026.893, 1874.761
1027.375, 1873.767
1027.858, 1868.966
1028.340, 1858.793
1028.822, 1840.591
1029.304, 1829.420
1029.786, 1843.862
1030.268, 1862.418
1030.750, 1866.776
1031.232, 1855.491
1031.715, 1846.980
1032.197, 1841.456
1032.679, 1838.186
1033.161, 1836.054
1033.643, 1836.448
1034.125, 1842.981
1034.607, 1853.868
1035.089, 1863.874
1035.572, 1876.675
1036.054, 1880.201
1036.536, 1868.241
1037.018, 1851.745
1037.500, 1845.997
1037.982, 1850.082
1038.464, 1859.519
1038.946, 1874.554
1039.428, 1885.352
1039.911, 1883.109
1040.393, 1874.630
1040.875, 1862.684
1041.357, 1847.617
1041.839, 1840.576
1042.321, 1842.620
1042.803, 1849.396
1043.285, 1862.334
1043.767, 1874.990
1044.250, 1871.328
1044.732, 1858.488
1045.214, 1852.333
1045.696, 1866.674
1046.178, 1876.684
1046.660, 1875.611
1047.142, 1871.025
1047.624, 1869.862
1048.107, 1871.965
1048.589, 1875.474
1049.071, 1880.287
1049.553, 1884.138
1050.035, 1884.519
1050.517, 1883.976
1050.999, 1885.255
1051.481, 1887.782
1051.964, 1886.248
1052.446, 1879.182
1052.928, 1872.589
1053.410, 1867.609
1053.892, 1864.832
1054.374, 1868.383
1054.856, 1874.185
1055.338, 1872.922
1055.820, 1856.547
1056.302, 1849.516
1056.785, 1869.927
1057.267, 1889.428
1057.749, 1887.307
1058.231, 1865.754
1058.713, 1858.489
1059.195, 1864.690
1059.677, 1873.666
1060.159, 1878.839
1060.642, 1884.515
1061.124, 1894.963
1061.606, 1908.140
1062.088, 1918.912
1062.570, 1928.324
1063.052, 1930.867
1063.534, 1924.429
1064.016, 1915.711
1064.499, 1914.050
1064.981, 1914.854
1065.463, 1910.509
1065.945, 1899.734
1066.427, 1887.789
1066.909, 1867.364
1067.391, 1857.538
1067.873, 1869.690
1068.355, 1896.050
1068.838, 1909.029
1069.320, 1909.640
1069.802, 1903.723
1070.284, 1887.397
1070.766, 1875.734
1071.248, 1883.299
1071.730, 1897.578
1072.212, 1902.816
1072.694, 1894.979
1073.177, 1893.522
1073.659, 1899.331
1074.141, 1905.578
1074.623, 1906.777
1075.105, 1905.407
1075.587, 1903.824
1076.069, 1902.346
1076.551, 1901.929
1077.034, 1902.624
1077.516, 1904.778
1077.998, 1908.999
1078.480, 1913.939
1078.962, 1917.008
1079.444, 1918.942
1079.926, 1922.340
1080.408, 1927.993
1080.891, 1932.488
1081.373, 1936.241
1081.855, 1935.804
1082.337, 1927.969
1082.819, 1913.757
1083.301, 1904.117
1083.783, 1899.040
1084.265, 1897.354
1084.747, 1897.258
1085.229, 1902.105
1085.712, 1922.853
1086.194, 1947.921
1086.676, 1957.677
1087.158, 1940.401
1087.640, 1931.225
1088.122, 1932.651
1088.604, 1935.453
1089.086, 1932.000
1089.569, 1924.191
1090.051, 1913.965
1090.533, 1902.113
1091.015, 1892.468
1091.497, 1885.771
1091.979, 1882.764
1092.461, 1883.635
1092.943, 1888.058
1093.426, 1897.921
1093.908, 1911.402
1094.390, 1918.438
1094.872, 1916.295
1095.354, 1913.354
1095.836, 1914.004
1096.318, 1916.746
1096.800, 1921.987
1097.282, 1929.185
1097.765, 1928.157
1098.247, 1918.187
1098.729, 1912.707
1099.211, 1918.717
1099.693, 1930.112
1100.175, 1945.649
1100.657, 1960.467
1101.139, 1966.324
1101.622, 1956.657
1102.104, 1948.933
1102.586, 1943.984
1103.068, 1938.921
1103.550, 1928.677
1104.032, 1917.832
1104.514, 1915.854
1104.996, 1921.950
1105.479, 1930.986
1105.961, 1950.309
1106.443, 1959.231
1106.925, 1949.811
1107.407, 1932.910
1107.889, 1926.061
1108.371, 1927.452
1108.853, 1927.382
1109.335, 1924.153
1109.818, 1924.408
1110.300, 1937.512
1110.782, 1950.543
1111.264, 1954.292
1111.746, 1950.714
1112.228, 1952.771
1112.710, 1960.824
1113.192, 1958.969
1113.674, 1936.852
1114.157, 1914.896
1114.639, 1914.903
1115.121, 1926.160
1115.603, 1937.046
1116.085, 1948.076
1116.567, 1949.477
1117.049, 1938.861
1117.531, 1928.130
1118.014, 1922.642
1118.496, 1923.292
1118.978, 1938.307
1119.460, 1960.417
1119.942, 1971.115
1120.424, 1946.860
1120.906, 1937.528
1121.388, 1953.302
1121.870, 1974.495
1122.353, 1978.170
1122.835, 1969.795
1123.317, 1965.580
1123.799, 1966.412
1124.281, 1968.683
1124.763, 1971.474
1125.245, 1974.398
1125.727, 1978.302
1126.209, 1981.630
1126.692, 1979.395
1127.174, 1972.475
1127.656, 1969.036
1128.138, 1970.984
1128.620, 1975.396
1129.102, 1985.013
1129.584, 1992.266
1130.066, 1987.304
1130.549, 1971.951
1131.031, 1974.814
1131.513, 1997.536
1131.995, 2013.085
1132.477, 2006.656
1132.959, 1995.694
1133.441, 1999.039
1133.923, 2008.913
1134.406, 2014.963
1134.888, 2017.079
1135.370, 2009.923
1135.852, 1990.632
1136.334, 1973.639
1136.816, 1969.185
1137.298, 1972.830
1137.780, 1980.870
1138.262, 1991.053
1138.745, 1996.959
1139.227, 1992.928
1139.709, 1990.069
1140.191, 1989.640
1140.673, 1989.740
1141.155, 1987.401
1141.637, 1984.160
1142.119, 1983.597
1142.601, 1985.971
1143.084, 1990.983
1143.566, 2000.455
1144.048, 2010.543
1144.530, 2021.866
1145.012, 2031.566
1145.494, 2033.444
1145.976, 2028.676
1146.458, 2022.433
1146.941, 2015.498
1147.423, 2008.552
1147.905, 1996.235
1148.387, 1990.302
1148.869, 2001.143
1149.351, 2023.584
1149.833, 2026.021
1150.315, 2010.124
1150.797, 2000.653
1151.280, 2008.492
1151.762, 2018.033
1152.244, 2019.560
1152.726, 2015.417
1153.208, 2005.729
1153.690, 1989.158
1154.172, 1986.556
1154.654, 1998.515
1155.136, 2010.726
1155.619, 2011.554
1156.101, 2012.798
1156.583, 2030.413
1157.065, 2055.022
1157.547, 2069.329
1158.029, 2071.654
1158.511, 2064.175
1158.993, 2044.519
1159.476, 2027.845
1159.958, 2030.109
1160.440, 2040.264
1160.922, 2044.087
1161.404, 2043.203
1161.886, 2046.562
1162.368, 2061.591
1162.850, 2066.194
1163.333, 2054.440
1163.815, 2040.892
1164.297, 2047.009
1164.779, 2060.956
1165.261, 2060.218
1165.743, 2044.069
1166.225, 2034.090
1166.707, 2039.231
1167.189, 2045.011
1167.672, 2048.272
1168.154, 2050.205
1168.636, 2052.826
1169.118, 2055.781
1169.600, 2058.649
1170.082, 2061.592
1170.564, 2062.458
1171.046, 2056.778
1171.528, 2053.957
1172.011, 2059.296
1172.493, 2068.785
1172.975, 2071.795
1173.457, 2068.927
1173.939, 2061.361
1174.421, 2046.666
1174.903, 2035.078
1175.385, 2031.524
1175.868, 2031.937
1176.350, 2034.847
1176.832, 2039.881
1177.314, 2046.013
1177.796, 2052.423
1178.278, 2054.077
1178.760, 2038.770
1179.242, 2032.148
1179.724, 2056.329
1180.207, 2086.125
1180.689, 2097.956
1181.171, 2092.190
1181.653, 2090.313
1182.135, 2092.120
1182.617, 2092.015
1183.099, 2080.896
1183.581, 2073.180
1184.063, 2082.596
1184.546, 2096.889
1185.028, 2097.088
1185.510, 2082.663
1185.992, 2072.142
1186.474, 2066.857
1186.956, 2061.340
1187.438, 2043.842
1187.920, 2032.154
1188.403, 2043.354
1188.885, 2068.910
1189.367, 2088.526
1189.849, 2102.299
1190.331, 2105.886
1190.813, 2097.229
1191.295, 2091.557
1191.777, 2112.555
1192.260, 2132.891
1192.742, 2123.990
1193.224, 2092.411
1193.706, 2082.150
1194.188, 2095.500
1194.670, 2107.650
1195.152, 2113.186
1195.634, 2114.403
1196.116, 2111.800
1196.599, 2107.216
1197.081, 2100.537
1197.563, 2092.098
1198.045, 2093.470
1198.527, 2105.994
1199.009, 2116.327
1199.491, 2120.961
1199.973, 2118.366
1200.455, 2096.781
1200.938, 2072.741
1201.420, 2067.677
1201.902, 2085.213
1202.384, 2106.003
1202.866, 2132.046
1203.348, 2145.059
1203.830, 2128.834
1204.312, 2105.976
1204.795, 2101.067
1205.277, 2106.482
1205.759, 2111.402
1206.241, 2115.946
1206.723, 2113.453
1207.205, 2102.401
1207.687, 2094.420
1208.169, 2096.163
1208.651, 2105.328
1209.134, 2125.924
1209.616, 2150.379
1210.098, 2162.571
1210.580, 2158.846
1211.062, 2149.947
1211.544, 2134.547
1212.026, 2122.763
1212.508, 2124.367
1212.990, 2132.280
1213.473, 2143.329
1213.955, 2154.042
1214.437, 2153.886
1214.919, 2137.594
1215.401, 2127.252
1215.883, 2125.055
1216.365, 2125.796
1216.847, 2121.909
1217.330, 2120.664
1217.812, 2136.588
1218.294, 2163.162
1218.776, 2169.933
1219.258, 2147.044
1219.740, 2136.906
1220.222, 2147.042
1220.704, 2159.462
1221.187, 2153.109
1221.669, 2141.452
1222.151, 2137.945
1222.633, 2143.088
1223.115, 2152.951
1223.597, 2170.515
1224.079, 2177.875
1224.561, 2170.562
1225.043, 2157.690
1225.526, 2141.249
1226.008, 2130.119
1226.490, 2139.133
1226.972, 2167.584
1227.454, 2179.136
1227.936, 2170.343
1228.418, 2162.462
1228.900, 2161.141
1229.382, 2161.016
1229.865, 2152.606
1230.347, 2144.592
1230.829, 2149.792
1231.311, 2168.760
1231.793, 2171.403
1232.275, 2154.311
1232.757, 2148.797
1233.239, 2168.485
1233.722, 2191.445
1234.204, 2192.463
1234.686, 2185.393
1235.168, 2184.625
1235.650, 2191.120
1236.132, 2202.446
1236.614, 2219.590
1237.096, 2226.329
1237.578, 2212.104
1238.061, 2195.231
1238.543, 2192.047
1239.025, 2195.979
1239.507, 2201.754
1239.989, 2209.273
1240.471, 2206.530
1240.953, 2193.263
1241.435, 2183.544
1241.917, 2183.036
1242.400, 2189.766
1242.882, 2212.508
1243.364, 2234.454
1243.846, 2236.336
1244.328, 2217.305
1244.810, 2198.340
1245.292, 2179.644
1245.774, 2173.440
1246.257, 2190.824
1246.739, 2214.408
1247.221, 2243.901
1247.703, 2265.300
1248.185, 2261.474
1248.667, 2231.292
1249.149, 2220.661
1249.631, 2227.899
1250.114, 2236.969
1250.596, 2243.540
1251.078, 2244.112
1251.560, 2229.189
1252.042, 2213.291
1252.524, 2212.965
1253.006, 2226.991
1253.488, 2226.600
1253.970, 2214.304
1254.453, 2209.650
1254.935, 2234.714
1255.417, 2254.549
1255.899, 2252.119
1256.381, 2242.986
1256.863, 2239.347
1257.345, 2241.240
1257.827, 2253.919
1258.310, 2274.298
1258.792, 2284.363
1259.274, 2265.184
1259.756, 2247.867
1260.238, 2238.713
1260.720, 2235.706
1261.202, 2237.837
1261.684, 2244.385
1262.167, 2254.377
1262.649, 2266.925
1263.131, 2278.095
1263.613, 2286.557
1264.095, 2292.655
1264.577, 2296.393
1265.059, 2298.139
1265.541, 2298.598
1266.023, 2297.215
1266.505, 2293.135
1266.988, 2286.179
1267.470, 2275.341
1267.952, 2251.437
1268.434, 2239.702
1268.916, 2243.607
1269.398, 2256.889
1269.880, 2282.558
1270.362, 2307.591
1270.845, 2310.629
1271.327, 2294.613
1271.809, 2276.466
1272.291, 2251.288
1272.773, 2246.904
1273.255, 2269.891
1273.737, 2297.083
1274.219, 2305.288
1274.702, 2305.350
1275.184, 2307.343
1275.666, 2311.008
1276.148, 2312.869
1276.630, 2312.590
1277.112, 2311.236
1277.594, 2308.585
1278.076, 2308.426
1278.558, 2324.300
1279.041, 2334.600
1279.523, 2310.865
1280.005, 2270.130
1280.487, 2258.553
1280.969, 2276.738
1281.451, 2295.080
1281.933, 2309.879
1282.415, 2320.149
1282.897, 2321.879
1283.380, 2322.481
1283.862, 2326.678
1284.344, 2332.241
1284.826, 2335.233
1285.308, 2335.665
1285.790, 2332.167
1286.272, 2324.699
1286.754, 2320.498
1287.237, 2325.940
1287.719, 2332.823
1288.201, 2340.317
1288.683, 2345.139
1289.165, 2338.715
1289.647, 2325.519
1290.129, 2318.000
1290.611, 2317.308
1291.094, 2317.945
1291.576, 2314.198
1292.058, 2318.916
1292.540, 2337.568
1293.022, 2358.767
1293.504, 2367.176
1293.986, 2367.153
1294.468, 2364.339
1294.950, 2359.557
1295.432, 2355.219
1295.915, 2350.936
1296.397, 2350.098
1296.879, 2354.957
1297.361, 2356.492
1297.843, 2336.496
1298.325, 2313.760
1298.807, 2310.745
1299.289, 2326.111
1299.772, 2334.509
1300.254, 2334.860
1300.736, 2338.395
1301.218, 2347.477
1301.700, 2355.622
1302.182, 2352.708
1302.664, 2350.786
1303.146, 2364.326
1303.629, 2383.968
1304.111, 2387.055
1304.593, 2374.982
1305.075, 2365.531
1305.557, 2361.258
1306.039, 2356.503
1306.521, 2344.121
1307.003, 2335.188
1307.485, 2333.423
1307.968, 2337.492
1308.450, 2346.956
1308.932, 2359.950
1309.414, 2372.102
1309.896, 2382.629
1310.378, 2388.576
1310.860, 2388.355
1311.342, 2382.491
1311.824, 2368.532
1312.307, 2354.756
1312.789, 2355.127
1313.271, 2362.107
1313.753, 2362.607
1314.235, 2356.739
1314.717, 2357.830
1315.199, 2370.370
1315.681, 2375.933
1316.164, 2369.810
1316.646, 2364.469
1317.128, 2374.315
1317.610, 2389.656
##END=



