##NAMES=Siegenite
##RRUFFID=R070252
##IDEAL CHEMISTRY=Co^2+^Ni^3+^_2_S^2-^_4_
##LOCALITY=Gruge Viktoria Musen, Siegen, Siegerland, North Rhine-Westphalia, Germany
##OWNER=RRUFF
##SOURCE=Michael Scott
##DESCRIPTION=Steel gray cubo-octahedra associated with dark gray tetrahedrite (with parallel growth on corners), siderite and minor quartz
##STATUS=The identification of this mineral is confirmed by single-crystal X-ray diffraction and chemical analysis.
##URL=rruff.info/R070252
##MEASURED CHEMISTRY=Co_1.00_(Ni_1.56_Co_0.42_Fe_0.02_)_Î£=2_S_4_
129.6975, 1058.631
130.1796, 1180.244
130.6617, 1327.719
131.1439, 1515.463
131.6260, 1758.332
132.1081, 2042.969
132.5902, 2263.968
133.0723, 2375.735
133.5544, 2465.560
134.0366, 2553.275
134.5187, 2629.242
135.0008, 2677.272
135.4829, 2688.024
135.9650, 2661.010
136.4471, 2572.898
136.9293, 2381.790
137.4114, 2179.524
137.8935, 1971.278
138.3756, 1771.690
138.8577, 1605.062
139.3398, 1491.548
139.8220, 1431.798
140.3041, 1380.134
140.7862, 1334.782
141.2683, 1296.898
141.7504, 1264.831
142.2325, 1240.272
142.7147, 1228.531
143.1968, 1234.028
143.6789, 1257.877
144.1610, 1291.876
144.6431, 1321.943
145.1252, 1372.012
145.6074, 1464.303
146.0895, 1594.674
146.5716, 1733.717
147.0537, 1858.940
147.5358, 1969.864
148.0179, 2086.352
148.5001, 2218.946
148.9822, 2349.170
149.4643, 2470.093
149.9464, 2580.855
150.4285, 2670.669
150.9106, 2734.512
151.3928, 2767.773
151.8749, 2762.747
152.3570, 2695.663
152.8391, 2603.960
153.3212, 2524.886
153.8033, 2461.918
154.2855, 2385.835
154.7676, 2262.131
155.2497, 2102.010
155.7318, 1955.880
156.2139, 1829.423
156.6960, 1721.742
157.1782, 1631.369
157.6603, 1558.064
158.1424, 1503.924
158.6245, 1477.766
159.1066, 1473.218
159.5887, 1478.523
160.0709, 1491.365
160.5530, 1512.256
161.0351, 1545.347
161.5172, 1594.264
161.9993, 1641.487
162.4814, 1677.148
162.9636, 1702.247
163.4457, 1716.058
163.9278, 1712.548
164.4099, 1698.970
164.8920, 1687.052
165.3741, 1675.780
165.8563, 1669.276
166.3384, 1673.079
166.8205, 1682.910
167.3026, 1692.175
167.7847, 1701.923
168.2668, 1708.282
168.7490, 1700.474
169.2311, 1671.708
169.7132, 1643.985
170.1953, 1629.694
170.6774, 1623.791
171.1595, 1618.910
171.6417, 1611.553
172.1238, 1603.120
172.6059, 1598.408
173.0880, 1601.799
173.5701, 1599.683
174.0522, 1581.147
174.5344, 1554.814
175.0165, 1532.703
175.4986, 1519.044
175.9807, 1514.191
176.4628, 1521.577
176.9449, 1551.545
177.4271, 1574.426
177.9092, 1577.557
178.3913, 1568.244
178.8734, 1555.685
179.3555, 1543.498
179.8376, 1531.606
180.3197, 1518.987
180.8019, 1502.581
181.2840, 1491.361
181.7661, 1490.935
182.2482, 1495.511
182.7303, 1497.129
183.2124, 1490.670
183.6946, 1480.842
184.1767, 1482.643
184.6588, 1506.136
185.1409, 1523.607
185.6230, 1524.183
186.1051, 1516.940
186.5873, 1511.964
187.0694, 1513.890
187.5515, 1520.873
188.0336, 1528.151
188.5157, 1535.028
188.9978, 1543.495
189.4800, 1557.566
189.9621, 1571.681
190.4442, 1580.276
190.9263, 1580.759
191.4084, 1574.710
191.8905, 1565.442
192.3727, 1550.601
192.8548, 1536.544
193.3369, 1519.590
193.8190, 1505.842
194.3011, 1501.934
194.7832, 1510.580
195.2654, 1527.600
195.7475, 1545.682
196.2296, 1572.761
196.7117, 1584.907
197.1938, 1573.223
197.6759, 1551.378
198.1581, 1528.932
198.6402, 1509.376
199.1223, 1494.120
199.6044, 1486.075
200.0865, 1487.345
200.5686, 1492.401
201.0508, 1503.966
201.5329, 1516.386
202.0150, 1525.595
202.4971, 1530.416
202.9792, 1531.780
203.4613, 1530.626
203.9435, 1524.876
204.4256, 1521.356
204.9077, 1519.758
205.3898, 1520.472
205.8719, 1525.161
206.3540, 1533.541
206.8362, 1542.233
207.3183, 1546.492
207.8004, 1544.642
208.2825, 1542.325
208.7646, 1541.328
209.2467, 1538.659
209.7289, 1530.898
210.2110, 1518.623
210.6931, 1506.422
211.1752, 1499.554
211.6573, 1498.805
212.1395, 1500.917
212.6216, 1509.189
213.1037, 1517.296
213.5858, 1522.056
214.0679, 1523.533
214.5500, 1523.802
215.0322, 1525.191
215.5143, 1528.325
215.9964, 1528.267
216.4785, 1516.656
216.9606, 1509.615
217.4427, 1517.366
217.9249, 1535.911
218.4070, 1553.043
218.8891, 1557.874
219.3712, 1549.951
219.8533, 1546.110
220.3354, 1545.121
220.8176, 1549.864
221.2997, 1568.729
221.7818, 1594.009
222.2639, 1610.095
222.7460, 1604.142
223.2281, 1579.072
223.7103, 1567.085
224.1924, 1585.332
224.6745, 1598.594
225.1566, 1594.046
225.6387, 1581.004
226.1208, 1574.560
226.6030, 1584.195
227.0851, 1605.134
227.5672, 1616.828
228.0493, 1608.272
228.5314, 1605.184
229.0135, 1617.561
229.4957, 1635.307
229.9778, 1646.194
230.4599, 1644.548
230.9420, 1635.471
231.4241, 1631.386
231.9062, 1634.156
232.3884, 1639.312
232.8705, 1647.998
233.3526, 1657.454
233.8347, 1665.795
234.3168, 1672.297
234.7989, 1676.784
235.2811, 1678.504
235.7632, 1675.850
236.2453, 1674.232
236.7274, 1678.001
237.2095, 1680.194
237.6916, 1673.510
238.1738, 1657.720
238.6559, 1641.674
239.1380, 1637.832
239.6201, 1650.818
240.1022, 1658.854
240.5843, 1654.137
241.0665, 1650.090
241.5486, 1655.267
242.0307, 1668.576
242.5128, 1681.480
242.9949, 1685.706
243.4770, 1680.657
243.9592, 1673.925
244.4413, 1660.829
244.9234, 1650.546
245.4055, 1648.126
245.8876, 1651.550
246.3697, 1655.329
246.8519, 1655.625
247.3340, 1652.771
247.8161, 1649.577
248.2982, 1644.149
248.7803, 1641.117
249.2624, 1642.123
249.7446, 1646.286
250.2267, 1652.746
250.7088, 1662.284
251.1909, 1672.507
251.6730, 1676.009
252.1551, 1669.753
252.6373, 1662.740
253.1194, 1657.066
253.6015, 1652.562
254.0836, 1649.795
254.5657, 1649.541
255.0478, 1648.910
255.5300, 1642.448
256.0121, 1628.410
256.4942, 1615.215
256.9763, 1603.790
257.4584, 1595.042
257.9406, 1591.137
258.4227, 1592.732
258.9048, 1594.439
259.3869, 1589.531
259.8690, 1577.615
260.3511, 1568.041
260.8333, 1563.422
261.3154, 1561.037
261.7975, 1559.393
262.2796, 1558.299
262.7617, 1556.844
263.2438, 1554.686
263.7260, 1551.712
264.2081, 1546.635
264.6902, 1536.539
265.1723, 1528.807
265.6544, 1529.137
266.1365, 1535.981
266.6187, 1544.583
267.1008, 1555.891
267.5829, 1566.877
268.0650, 1570.458
268.5471, 1565.124
269.0292, 1556.798
269.5114, 1546.234
269.9935, 1535.704
270.4756, 1529.761
270.9577, 1532.121
271.4398, 1537.465
271.9219, 1541.097
272.4041, 1543.071
272.8862, 1540.906
273.3683, 1530.671
273.8504, 1516.630
274.3325, 1506.775
274.8146, 1501.474
275.2968, 1500.378
275.7789, 1505.388
276.2610, 1515.032
276.7431, 1523.966
277.2252, 1531.742
277.7073, 1535.824
278.1895, 1529.680
278.6716, 1510.069
279.1537, 1496.947
279.6358, 1501.224
280.1179, 1515.867
280.6000, 1530.465
281.0822, 1543.435
281.5643, 1551.995
282.0464, 1550.117
282.5285, 1536.465
283.0106, 1529.643
283.4927, 1539.826
283.9749, 1552.590
284.4570, 1553.221
284.9391, 1541.264
285.4212, 1528.279
285.9033, 1523.751
286.3854, 1527.674
286.8676, 1529.564
287.3497, 1526.313
287.8318, 1524.222
288.3139, 1528.563
288.7960, 1536.781
289.2781, 1540.705
289.7603, 1534.650
290.2424, 1522.791
290.7245, 1523.143
291.2066, 1554.620
291.6887, 1574.177
292.1708, 1568.056
292.6530, 1549.101
293.1351, 1531.469
293.6172, 1520.304
294.0993, 1515.373
294.5814, 1516.942
295.0635, 1532.089
295.5457, 1540.200
296.0278, 1533.766
296.5099, 1526.202
296.9920, 1527.935
297.4741, 1539.399
297.9562, 1553.441
298.4384, 1562.865
298.9205, 1567.130
299.4026, 1570.444
299.8847, 1572.482
300.3668, 1573.929
300.8489, 1574.701
301.3311, 1575.066
301.8131, 1575.452
302.2953, 1576.114
302.7774, 1577.052
303.2595, 1578.452
303.7416, 1582.090
304.2237, 1583.376
304.7058, 1579.514
305.1880, 1573.901
305.6701, 1569.152
306.1522, 1566.108
306.6343, 1566.761
307.1164, 1577.743
307.5985, 1605.017
308.0807, 1620.114
308.5628, 1605.779
309.0449, 1585.959
309.5270, 1572.915
310.0091, 1568.289
310.4912, 1569.231
310.9734, 1577.614
311.4555, 1592.012
311.9376, 1594.894
312.4197, 1576.558
312.9018, 1558.777
313.3839, 1556.427
313.8661, 1565.183
314.3482, 1574.108
314.8303, 1580.761
315.3124, 1583.493
315.7945, 1576.382
316.2766, 1557.000
316.7588, 1542.314
317.2409, 1547.213
317.7230, 1560.857
318.2051, 1564.474
318.6872, 1550.650
319.1693, 1535.711
319.6515, 1534.665
320.1336, 1543.915
320.6157, 1546.081
321.0978, 1532.571
321.5799, 1513.782
322.0620, 1507.122
322.5442, 1513.949
323.0263, 1520.441
323.5084, 1522.674
323.9905, 1522.437
324.4726, 1521.540
324.9547, 1520.300
325.4369, 1519.593
325.9190, 1520.521
326.4011, 1523.302
326.8832, 1524.783
327.3653, 1525.087
327.8474, 1524.059
328.3296, 1520.269
328.8117, 1514.876
329.2938, 1511.019
329.7759, 1510.498
330.2580, 1512.941
330.7401, 1516.693
331.2223, 1530.537
331.7044, 1534.732
332.1865, 1514.830
332.6686, 1489.929
333.1507, 1483.034
333.6328, 1500.305
334.1150, 1526.952
334.5971, 1540.632
335.0792, 1534.947
335.5613, 1533.285
336.0434, 1542.046
336.5255, 1548.730
337.0077, 1543.768
337.4898, 1530.213
337.9719, 1519.296
338.4540, 1521.152
338.9361, 1533.825
339.4182, 1539.178
339.9004, 1530.762
340.3825, 1524.385
340.8646, 1525.167
341.3467, 1530.204
341.8288, 1536.458
342.3109, 1543.217
342.7931, 1548.849
343.2752, 1550.215
343.7573, 1546.626
344.2394, 1543.665
344.7215, 1542.607
345.2036, 1542.753
345.6858, 1544.277
346.1679, 1547.068
346.6500, 1548.546
347.1321, 1544.750
347.6142, 1538.424
348.0963, 1537.927
348.5785, 1545.476
349.0606, 1554.527
349.5427, 1560.417
350.0248, 1563.754
350.5069, 1566.003
350.9890, 1567.693
351.4712, 1568.174
351.9533, 1565.410
352.4354, 1560.335
352.9175, 1557.917
353.3996, 1560.803
353.8817, 1567.429
354.3639, 1574.306
354.8460, 1583.179
355.3281, 1588.786
355.8102, 1587.504
356.2923, 1583.433
356.7744, 1582.142
357.2566, 1584.597
357.7387, 1586.535
358.2208, 1582.824
358.7029, 1571.978
359.1850, 1563.630
359.6671, 1557.054
360.1493, 1553.262
360.6314, 1553.867
361.1135, 1557.571
361.5956, 1562.235
362.0777, 1566.875
362.5598, 1570.658
363.0420, 1570.472
363.5241, 1564.471
364.0062, 1557.141
364.4883, 1544.814
364.9704, 1534.111
365.4525, 1531.753
365.9347, 1538.661
366.4168, 1548.699
366.8989, 1555.218
367.3810, 1558.060
367.8631, 1560.887
368.3452, 1565.102
368.8274, 1567.652
369.3095, 1564.216
369.7916, 1558.016
370.2737, 1557.293
370.7558, 1570.580
371.2379, 1587.703
371.7201, 1587.844
372.2022, 1568.590
372.6843, 1555.753
373.1664, 1562.707
373.6485, 1581.253
374.1306, 1599.546
374.6128, 1618.821
375.0949, 1632.148
375.5770, 1632.260
376.0591, 1624.391
376.5412, 1618.392
377.0233, 1616.163
377.5055, 1616.565
377.9876, 1618.423
378.4697, 1621.865
378.9518, 1627.980
379.4339, 1639.360
379.9160, 1651.089
380.3982, 1661.268
380.8803, 1669.401
381.3624, 1674.224
381.8445, 1674.806
382.3266, 1672.526
382.8087, 1671.540
383.2909, 1671.941
383.7730, 1673.740
384.2551, 1677.058
384.7372, 1681.654
385.2193, 1688.144
385.7014, 1696.153
386.1836, 1703.804
386.6657, 1709.430
387.1478, 1713.058
387.6299, 1713.739
388.1120, 1710.234
388.5941, 1704.912
389.0763, 1696.969
389.5584, 1688.169
390.0405, 1681.816
390.5226, 1680.054
391.0047, 1678.935
391.4868, 1670.997
391.9690, 1655.328
392.4511, 1642.107
392.9332, 1637.174
393.4153, 1632.819
393.8974, 1619.071
394.3795, 1596.039
394.8617, 1579.456
395.3438, 1585.447
395.8259, 1599.926
396.3080, 1596.572
396.7901, 1572.190
397.2722, 1547.203
397.7544, 1535.499
398.2365, 1535.415
398.7186, 1534.879
399.2007, 1533.255
399.6828, 1531.908
400.1649, 1531.050
400.6471, 1530.891
401.1292, 1532.380
401.6113, 1535.853
402.0934, 1539.216
402.5755, 1539.352
403.0576, 1535.317
403.5398, 1530.657
404.0219, 1524.845
404.5040, 1518.946
404.9861, 1511.599
405.4682, 1504.562
405.9503, 1502.497
406.4325, 1509.161
406.9146, 1521.096
407.3967, 1525.201
407.8788, 1516.098
408.3609, 1510.204
408.8430, 1513.923
409.3252, 1519.671
409.8073, 1520.758
410.2894, 1516.436
410.7715, 1512.387
411.2536, 1515.170
411.7357, 1522.955
412.2179, 1525.688
412.7000, 1521.102
413.1821, 1515.345
413.6642, 1512.301
414.1463, 1511.135
414.6284, 1510.638
415.1106, 1512.158
415.5927, 1512.353
416.0748, 1506.319
416.5569, 1496.657
417.0390, 1492.509
417.5211, 1497.955
418.0033, 1506.400
418.4854, 1507.305
418.9675, 1496.800
419.4496, 1492.134
419.9317, 1499.318
420.4138, 1508.075
420.8960, 1510.497
421.3781, 1508.061
421.8602, 1508.053
422.3423, 1515.848
422.8244, 1528.277
423.3065, 1531.286
423.7887, 1516.636
424.2708, 1505.176
424.7529, 1500.698
425.2350, 1498.856
425.7171, 1495.698
426.1992, 1490.890
426.6814, 1487.525
427.1635, 1489.137
427.6456, 1495.321
428.1277, 1501.431
428.6098, 1508.547
429.0919, 1513.435
429.5741, 1513.860
430.0562, 1511.254
430.5383, 1507.122
431.0204, 1500.796
431.5025, 1495.219
431.9846, 1491.955
432.4668, 1491.312
432.9489, 1495.902
433.4310, 1508.042
433.9131, 1519.942
434.3952, 1521.972
434.8773, 1513.116
435.3595, 1503.492
435.8416, 1488.979
436.3237, 1478.029
436.8058, 1478.020
437.2879, 1485.861
437.7701, 1493.815
438.2522, 1498.068
438.7343, 1499.039
439.2164, 1497.505
439.6985, 1490.932
440.1806, 1486.391
440.6628, 1485.069
441.1449, 1484.657
441.6270, 1482.932
442.1091, 1480.494
442.5912, 1480.036
443.0733, 1483.702
443.5555, 1490.890
444.0376, 1500.902
444.5197, 1517.255
445.0018, 1526.515
445.4839, 1516.228
445.9660, 1499.972
446.4482, 1491.188
446.9303, 1492.290
447.4124, 1494.918
447.8945, 1494.152
448.3766, 1491.260
448.8587, 1488.610
449.3409, 1486.461
449.8230, 1485.185
450.3051, 1485.383
450.7872, 1486.844
451.2693, 1487.356
451.7514, 1487.330
452.2336, 1485.977
452.7157, 1479.954
453.1978, 1473.557
453.6799, 1474.371
454.1620, 1484.063
454.6441, 1495.308
455.1263, 1497.860
455.6084, 1489.221
456.0905, 1486.055
456.5726, 1495.186
457.0547, 1502.998
457.5368, 1505.704
458.0190, 1504.280
458.5011, 1500.139
458.9832, 1493.452
459.4653, 1486.299
459.9474, 1480.814
460.4295, 1476.982
460.9117, 1477.702
461.3938, 1486.875
461.8759, 1496.193
462.3580, 1496.510
462.8401, 1489.758
463.3222, 1486.221
463.8044, 1492.454
464.2865, 1500.099
464.7686, 1501.083
465.2507, 1496.766
465.7328, 1492.961
466.2149, 1492.164
466.6971, 1493.317
467.1792, 1494.677
467.6613, 1498.367
468.1434, 1497.328
468.6255, 1487.239
469.1076, 1476.263
469.5898, 1469.105
470.0719, 1465.580
470.5540, 1463.594
471.0361, 1461.789
471.5182, 1460.661
472.0003, 1462.004
472.4825, 1466.966
472.9646, 1471.241
473.4467, 1472.679
473.9288, 1474.023
474.4109, 1477.876
474.8930, 1483.913
475.3752, 1488.392
475.8573, 1489.289
476.3394, 1487.224
476.8215, 1481.303
477.3036, 1471.483
477.7857, 1466.075
478.2679, 1470.970
478.7500, 1481.483
479.2321, 1486.028
479.7142, 1482.572
480.1963, 1479.323
480.6784, 1478.841
481.1606, 1478.554
481.6427, 1474.856
482.1248, 1468.458
482.6069, 1464.291
483.0890, 1466.454
483.5711, 1473.454
484.0533, 1476.629
484.5354, 1470.752
485.0175, 1469.811
485.4996, 1482.237
485.9817, 1495.252
486.4638, 1497.181
486.9460, 1487.687
487.4281, 1476.949
487.9102, 1473.447
488.3923, 1474.785
488.8744, 1473.406
489.3565, 1468.755
489.8387, 1464.071
490.3208, 1459.369
490.8029, 1456.685
491.2850, 1460.669
491.7671, 1475.065
492.2492, 1485.259
492.7314, 1481.777
493.2135, 1474.003
493.6956, 1473.541
494.1777, 1480.776
494.6598, 1487.689
495.1419, 1487.979
495.6241, 1482.836
496.1062, 1480.078
496.5883, 1483.414
497.0704, 1483.891
497.5525, 1477.824
498.0346, 1470.617
498.5168, 1467.430
498.9989, 1468.357
499.4810, 1468.875
499.9631, 1463.292
500.4452, 1454.384
500.9273, 1453.319
501.4095, 1461.406
501.8916, 1472.276
502.3737, 1487.486
502.8558, 1501.215
503.3379, 1503.884
503.8200, 1492.806
504.3022, 1481.284
504.7843, 1472.906
505.2664, 1467.498
505.7485, 1465.943
506.2306, 1467.747
506.7127, 1470.056
507.1949, 1470.963
507.6770, 1470.865
508.1591, 1471.560
508.6412, 1475.360
509.1233, 1476.449
509.6054, 1472.355
510.0876, 1467.252
510.5697, 1463.614
511.0518, 1461.881
511.5339, 1461.922
512.0161, 1464.360
512.4982, 1468.043
512.9803, 1469.322
513.4624, 1467.578
513.9445, 1467.327
514.4266, 1471.681
514.9088, 1476.938
515.3909, 1478.388
515.8730, 1475.880
516.3551, 1471.988
516.8372, 1465.847
517.3193, 1459.870
517.8015, 1456.940
518.2836, 1456.397
518.7657, 1454.066
519.2478, 1447.144
519.7299, 1439.878
520.2120, 1443.277
520.6942, 1468.001
521.1763, 1482.960
521.6584, 1481.046
522.1405, 1477.215
522.6226, 1480.913
523.1047, 1489.379
523.5869, 1493.447
524.0690, 1486.787
524.5511, 1476.772
525.0332, 1477.351
525.5153, 1488.427
525.9974, 1493.869
526.4796, 1487.708
526.9617, 1478.267
527.4438, 1474.247
527.9259, 1475.005
528.4080, 1476.072
528.8901, 1479.186
529.3723, 1480.116
529.8544, 1473.419
530.3365, 1463.282
530.8186, 1458.985
531.3007, 1463.498
531.7828, 1469.807
532.2650, 1467.002
532.7471, 1452.089
533.2292, 1446.834
533.7113, 1460.887
534.1934, 1473.812
534.6755, 1481.347
535.1577, 1483.355
535.6398, 1478.205
536.1219, 1464.576
536.6040, 1451.808
537.0861, 1450.475
537.5682, 1457.066
538.0504, 1459.712
538.5325, 1456.525
539.0146, 1453.165
539.4967, 1453.020
539.9788, 1456.080
540.4609, 1462.123
540.9431, 1481.075
541.4252, 1489.282
541.9073, 1471.500
542.3894, 1447.633
542.8715, 1436.159
543.3536, 1438.808
543.8358, 1447.827
544.3179, 1458.230
544.8000, 1468.840
545.2821, 1473.564
545.7642, 1469.270
546.2463, 1467.789
546.7285, 1479.770
547.2106, 1489.740
547.6927, 1482.843
548.1748, 1460.218
548.6569, 1439.858
549.1390, 1427.935
549.6211, 1423.451
550.1032, 1429.386
550.5853, 1442.913
551.0674, 1451.915
551.5496, 1451.274
552.0317, 1445.709
552.5138, 1442.545
552.9959, 1441.745
553.4780, 1443.639
553.9601, 1454.169
554.4423, 1460.683
554.9244, 1452.516
555.4065, 1438.713
555.8886, 1434.828
556.3707, 1446.801
556.8528, 1462.681
557.3350, 1465.710
557.8171, 1458.227
558.2992, 1461.538
558.7813, 1481.806
559.2634, 1499.467
559.7455, 1500.903
560.2277, 1489.611
560.7098, 1478.147
561.1919, 1463.437
561.6740, 1454.060
562.1561, 1459.203
562.6382, 1467.048
563.1204, 1461.651
563.6025, 1444.327
564.0846, 1431.647
564.5667, 1436.718
565.0488, 1453.888
565.5309, 1459.744
566.0131, 1447.586
566.4952, 1441.073
566.9773, 1451.856
567.4594, 1463.391
567.9415, 1464.654
568.4236, 1456.994
568.9058, 1448.889
569.3879, 1441.348
569.8700, 1437.184
570.3521, 1441.517
570.8342, 1451.868
571.3163, 1460.706
571.7985, 1465.982
572.2806, 1466.171
572.7627, 1457.651
573.2448, 1438.218
573.7269, 1430.946
574.2090, 1446.960
574.6912, 1461.130
575.1733, 1469.300
575.6554, 1471.278
576.1375, 1465.155
576.6196, 1451.342
577.1017, 1437.128
577.5839, 1427.275
578.0660, 1422.310
578.5481, 1426.320
579.0302, 1440.678
579.5123, 1452.013
579.9944, 1453.179
580.4766, 1448.681
580.9587, 1447.082
581.4408, 1449.041
581.9229, 1450.453
582.4050, 1451.048
582.8871, 1450.671
583.3693, 1449.080
583.8514, 1446.455
584.3335, 1442.526
584.8156, 1437.163
585.2977, 1432.463
585.7798, 1431.809
586.2620, 1435.404
586.7441, 1441.556
587.2262, 1454.332
587.7083, 1462.855
588.1904, 1456.358
588.6725, 1442.783
589.1547, 1435.376
589.6368, 1438.053
590.1189, 1441.116
590.6010, 1438.334
591.0831, 1434.161
591.5652, 1435.364
592.0474, 1441.573
592.5295, 1446.304
593.0116, 1444.789
593.4937, 1440.112
593.9758, 1442.583
594.4579, 1457.153
594.9401, 1467.058
595.4222, 1470.693
595.9043, 1469.346
596.3864, 1459.470
596.8685, 1445.103
597.3506, 1436.382
597.8328, 1439.543
598.3149, 1444.663
598.7970, 1440.652
599.2791, 1431.778
599.7612, 1430.204
600.2433, 1438.292
600.7255, 1447.610
601.2076, 1451.020
601.6897, 1449.293
602.1718, 1448.729
602.6539, 1449.773
603.1360, 1451.452
603.6182, 1453.215
604.1003, 1455.945
604.5824, 1462.704
605.0645, 1471.559
605.5466, 1475.143
606.0287, 1467.251
606.5109, 1454.531
606.9930, 1446.920
607.4751, 1443.807
607.9572, 1440.520
608.4393, 1435.913
608.9214, 1430.517
609.4036, 1423.602
609.8857, 1415.183
610.3678, 1414.642
610.8499, 1432.083
611.3320, 1443.844
611.8141, 1439.777
612.2963, 1430.378
612.7784, 1426.157
613.2605, 1428.177
613.7426, 1431.076
614.2247, 1430.834
614.7068, 1428.584
615.1890, 1427.325
615.6711, 1427.149
616.1532, 1425.406
616.6353, 1419.988
617.1174, 1415.176
617.5995, 1416.516
618.0817, 1424.169
618.5638, 1430.413
619.0459, 1436.966
619.5280, 1439.748
620.0101, 1432.714
620.4922, 1423.230
620.9744, 1421.995
621.4565, 1429.970
621.9386, 1437.673
622.4207, 1435.641
622.9028, 1426.914
623.3849, 1424.166
623.8671, 1428.710
624.3492, 1431.271
624.8313, 1427.211
625.3134, 1422.102
625.7955, 1424.167
626.2776, 1432.910
626.7598, 1437.390
627.2419, 1432.261
627.7240, 1426.685
628.2061, 1425.419
628.6882, 1426.569
629.1703, 1426.950
629.6525, 1425.965
630.1346, 1425.756
630.6167, 1429.062
631.0988, 1434.846
631.5809, 1436.894
632.0630, 1434.147
632.5452, 1432.034
633.0273, 1434.156
633.5094, 1435.640
633.9915, 1429.080
634.4736, 1415.082
634.9557, 1406.231
635.4379, 1408.477
635.9200, 1412.910
636.4021, 1415.041
636.8842, 1415.902
637.3663, 1418.951
637.8484, 1424.194
638.3306, 1424.960
638.8127, 1411.759
639.2948, 1388.786
639.7769, 1384.749
640.2590, 1406.693
640.7411, 1422.246
641.2233, 1418.287
641.7054, 1407.834
642.1875, 1404.135
642.6696, 1406.670
643.1517, 1409.400
643.6339, 1411.802
644.1160, 1413.328
644.5981, 1415.142
645.0802, 1415.313
645.5623, 1407.458
646.0444, 1392.189
646.5266, 1382.779
647.0087, 1394.098
647.4908, 1420.094
647.9729, 1431.400
648.4550, 1424.883
648.9371, 1415.322
649.4193, 1402.179
649.9014, 1391.945
650.3835, 1393.449
650.8656, 1404.675
651.3477, 1411.274
651.8298, 1405.344
652.3120, 1400.568
652.7941, 1406.401
653.2762, 1415.738
653.7583, 1418.286
654.2404, 1413.076
654.7225, 1406.755
655.2047, 1404.312
655.6868, 1405.357
656.1689, 1409.564
656.6510, 1417.814
657.1331, 1423.915
657.6152, 1427.039
658.0974, 1426.966
658.5795, 1420.409
659.0616, 1409.598
659.5437, 1405.057
660.0258, 1417.981
660.5079, 1424.534
660.9901, 1408.780
661.4722, 1387.665
661.9543, 1380.238
662.4364, 1386.352
662.9185, 1393.079
663.4006, 1391.567
663.8828, 1386.237
664.3649, 1387.197
664.8470, 1394.681
665.3291, 1400.744
665.8112, 1404.103
666.2933, 1406.068
666.7755, 1407.382
667.2576, 1408.061
667.7397, 1408.434
668.2218, 1410.882
668.7039, 1409.206
669.1860, 1396.283
669.6682, 1383.672
670.1503, 1383.180
670.6324, 1390.982
671.1145, 1393.198
671.5966, 1382.012
672.0787, 1369.606
672.5609, 1376.529
673.0430, 1399.368
673.5251, 1413.296
674.0072, 1415.332
674.4893, 1412.208
674.9714, 1407.002
675.4536, 1400.023
675.9357, 1391.746
676.4178, 1379.144
676.8999, 1371.924
677.3820, 1373.223
677.8641, 1377.013
678.3463, 1382.708
678.8284, 1387.874
679.3105, 1387.846
679.7926, 1381.158
680.2747, 1375.143
680.7568, 1377.887
681.2390, 1386.145
681.7211, 1394.020
682.2032, 1400.903
682.6853, 1400.503
683.1674, 1388.473
683.6495, 1373.187
684.1317, 1367.987
684.6138, 1375.164
685.0959, 1380.392
685.5780, 1382.232
686.0601, 1383.887
686.5422, 1387.303
687.0244, 1390.183
687.5065, 1388.227
687.9886, 1381.779
688.4707, 1379.341
688.9528, 1388.913
689.4349, 1402.512
689.9171, 1414.533
690.3992, 1422.982
690.8813, 1420.313
691.3634, 1404.733
691.8455, 1385.626
692.3276, 1371.538
692.8098, 1362.689
693.2919, 1362.619
693.7740, 1378.007
694.2561, 1387.231
694.7382, 1377.577
695.2203, 1368.481
695.7025, 1377.030
696.1846, 1398.042
696.6667, 1411.041
697.1488, 1405.847
697.6309, 1399.338
698.1130, 1401.971
698.5952, 1407.501
699.0773, 1407.662
699.5594, 1402.450
700.0415, 1396.823
700.5236, 1393.689
701.0057, 1392.616
701.4879, 1393.270
701.9700, 1395.794
702.4521, 1397.466
702.9342, 1399.066
703.4163, 1396.902
703.8984, 1385.625
704.3806, 1370.343
704.8627, 1363.210
705.3448, 1365.712
705.8269, 1371.326
706.3090, 1385.261
706.7911, 1396.016
707.2733, 1394.867
707.7554, 1386.407
708.2375, 1377.738
708.7196, 1371.256
709.2017, 1367.627
709.6838, 1368.727
710.1660, 1372.843
710.6481, 1375.738
711.1302, 1377.406
711.6123, 1379.166
712.0944, 1381.826
712.5765, 1383.233
713.0587, 1380.344
713.5408, 1372.895
714.0229, 1366.733
714.5050, 1360.720
714.9871, 1357.730
715.4692, 1360.304
715.9514, 1364.356
716.4335, 1365.734
716.9156, 1365.239
717.3977, 1368.064
717.8798, 1380.961
718.3619, 1391.130
718.8441, 1384.099
719.3262, 1369.090
719.8083, 1362.900
720.2904, 1366.649
720.7725, 1369.186
721.2546, 1362.385
721.7368, 1352.289
722.2189, 1356.717
722.7010, 1379.930
723.1831, 1386.408
723.6652, 1364.385
724.1473, 1343.449
724.6295, 1341.817
725.1116, 1351.833
725.5937, 1357.711
726.0758, 1358.690
726.5579, 1357.884
727.0400, 1353.519
727.5222, 1349.895
728.0043, 1350.281
728.4864, 1352.873
728.9685, 1354.043
729.4506, 1353.073
729.9327, 1353.516
730.4149, 1361.760
730.8970, 1372.401
731.3791, 1370.301
731.8612, 1357.192
732.3433, 1350.449
732.8254, 1355.794
733.3076, 1364.180
733.7897, 1366.032
734.2718, 1362.095
734.7539, 1362.647
735.2360, 1373.384
735.7181, 1379.027
736.2003, 1374.391
736.6824, 1367.610
737.1645, 1363.082
737.6466, 1360.489
738.1287, 1358.175
738.6108, 1355.341
739.0930, 1353.572
739.5751, 1355.462
740.0572, 1357.755
740.5393, 1355.776
741.0214, 1350.565
741.5035, 1346.222
741.9857, 1344.690
742.4678, 1345.668
742.9499, 1349.989
743.4320, 1357.206
743.9141, 1360.318
744.3962, 1358.154
744.8784, 1358.688
745.3605, 1367.844
745.8426, 1376.760
746.3247, 1371.240
746.8068, 1348.563
747.2889, 1337.323
747.7711, 1347.411
748.2532, 1355.327
748.7353, 1355.159
749.2174, 1350.808
749.6995, 1344.371
750.1816, 1337.057
750.6638, 1331.298
751.1459, 1328.075
751.6280, 1327.174
752.1101, 1328.470
752.5922, 1331.926
753.0743, 1340.386
753.5565, 1352.300
754.0386, 1356.091
754.5207, 1344.165
755.0028, 1326.073
755.4849, 1320.980
755.9670, 1330.349
756.4492, 1340.242
756.9313, 1353.015
757.4134, 1359.484
757.8955, 1352.777
758.3776, 1339.766
758.8597, 1330.228
759.3419, 1324.206
759.8240, 1320.330
760.3061, 1318.377
760.7882, 1318.698
761.2703, 1325.319
761.7524, 1331.738
762.2346, 1327.486
762.7167, 1314.818
763.1988, 1309.938
763.6809, 1326.669
764.1630, 1346.829
764.6451, 1347.851
765.1273, 1336.221
765.6094, 1325.983
766.0915, 1319.792
766.5736, 1321.212
767.0557, 1333.688
767.5378, 1349.402
768.0200, 1349.601
768.5021, 1330.670
768.9842, 1318.401
769.4663, 1315.727
769.9484, 1314.293
770.4305, 1310.564
770.9127, 1306.095
771.3948, 1302.537
771.8769, 1299.685
772.3590, 1300.026
772.8411, 1304.053
773.3232, 1311.105
773.8054, 1326.897
774.2875, 1341.642
774.7696, 1342.139
775.2517, 1330.312
775.7338, 1321.394
776.2159, 1325.347
776.6981, 1332.155
777.1802, 1330.629
777.6623, 1323.378
778.1444, 1314.330
778.6265, 1304.942
779.1086, 1301.266
779.5908, 1307.146
780.0729, 1317.550
780.5550, 1323.568
781.0371, 1324.987
781.5192, 1323.089
782.0013, 1315.235
782.4835, 1311.375
782.9656, 1318.219
783.4477, 1328.114
783.9298, 1331.397
784.4119, 1327.998
784.8940, 1322.996
785.3762, 1311.742
785.8583, 1305.208
786.3404, 1311.614
786.8225, 1319.779
787.3046, 1318.229
787.7867, 1309.455
788.2689, 1304.867
788.7510, 1310.261
789.2331, 1317.669
789.7152, 1319.232
790.1973, 1319.052
790.6794, 1326.619
791.1616, 1339.460
791.6437, 1343.859
792.1258, 1333.911
792.6079, 1319.500
793.0900, 1313.745
793.5721, 1315.882
794.0543, 1319.416
794.5364, 1325.314
795.0185, 1325.536
795.5006, 1314.646
795.9827, 1304.214
796.4648, 1307.223
796.9470, 1321.918
797.4291, 1329.271
797.9112, 1323.535
798.3933, 1318.537
798.8754, 1312.784
799.3575, 1309.982
799.8397, 1316.541
800.3218, 1326.347
800.8039, 1326.121
801.2860, 1310.817
801.7681, 1300.046
802.2502, 1312.452
802.7324, 1325.905
803.2145, 1314.353
803.6966, 1290.534
804.1787, 1280.699
804.6608, 1290.626
805.1429, 1307.249
805.6251, 1322.595
806.1072, 1333.242
806.5893, 1327.446
807.0714, 1308.120
807.5535, 1298.886
808.0356, 1304.300
808.5178, 1310.604
808.9999, 1308.610
809.4820, 1301.471
809.9641, 1297.125
810.4462, 1296.304
810.9283, 1295.659
811.4105, 1295.954
811.8926, 1295.190
812.3747, 1293.099
812.8568, 1289.198
813.3389, 1279.917
813.8210, 1265.411
814.3032, 1261.805
814.7853, 1282.615
815.2674, 1300.492
815.7495, 1303.897
816.2316, 1302.068
816.7137, 1304.504
817.1959, 1309.598
817.6780, 1309.079
818.1601, 1298.485
818.6422, 1286.315
819.1243, 1276.817
819.6064, 1271.965
820.0886, 1276.723
820.5707, 1289.110
821.0528, 1303.241
821.5349, 1316.784
822.0170, 1325.820
822.4991, 1325.511
822.9813, 1317.491
823.4634, 1306.450
823.9455, 1291.752
824.4276, 1287.681
824.9097, 1299.991
825.3918, 1312.066
825.8740, 1310.897
826.3561, 1300.276
826.8382, 1292.625
827.3203, 1286.855
827.8024, 1286.720
828.2845, 1299.863
828.7667, 1309.230
829.2488, 1306.312
829.7309, 1297.840
830.2130, 1291.133
830.6951, 1286.694
831.1772, 1283.539
831.6594, 1280.375
832.1415, 1279.749
832.6236, 1286.924
833.1057, 1294.118
833.5878, 1290.893
834.0699, 1280.239
834.5521, 1273.670
835.0342, 1276.190
835.5163, 1284.649
835.9984, 1302.324
836.4805, 1320.736
836.9626, 1324.285
837.4448, 1315.446
837.9269, 1305.796
838.4090, 1299.342
838.8911, 1293.057
839.3732, 1282.543
839.8553, 1270.760
840.3375, 1270.182
840.8196, 1281.072
841.3017, 1289.708
841.7838, 1293.674
842.2659, 1295.110
842.7480, 1295.065
843.2302, 1294.040
843.7123, 1293.501
844.1944, 1294.452
844.6765, 1292.259
845.1586, 1282.737
845.6407, 1276.318
846.1229, 1279.658
846.6050, 1285.517
847.0871, 1287.367
847.5692, 1285.213
848.0513, 1280.988
848.5334, 1272.212
849.0156, 1265.086
849.4977, 1258.131
849.9798, 1256.269
850.4619, 1270.018
850.9440, 1290.329
851.4261, 1296.090
851.9083, 1279.933
852.3904, 1263.978
852.8725, 1265.041
853.3546, 1271.539
853.8367, 1270.855
854.3188, 1266.126
854.8010, 1264.741
855.2831, 1267.935
855.7652, 1272.126
856.2473, 1274.881
856.7294, 1276.578
857.2115, 1278.039
857.6937, 1279.049
858.1758, 1277.280
858.6579, 1272.790
859.1400, 1273.459
859.6221, 1283.713
860.1042, 1295.237
860.5864, 1295.028
861.0685, 1283.753
861.5506, 1281.089
862.0327, 1290.160
862.5148, 1295.458
862.9969, 1292.579
863.4791, 1287.122
863.9612, 1282.865
864.4433, 1279.664
864.9254, 1277.090
865.4075, 1275.578
865.8896, 1273.772
866.3718, 1271.340
866.8539, 1269.015
867.3360, 1266.195
867.8181, 1264.153
868.3002, 1264.277
868.7823, 1266.634
869.2645, 1270.561
869.7466, 1280.615
870.2287, 1286.059
870.7108, 1276.750
871.1929, 1266.077
871.6750, 1269.141
872.1572, 1280.219
872.6393, 1282.581
873.1214, 1270.240
873.6035, 1259.514
874.0856, 1266.366
874.5677, 1277.510
875.0499, 1277.408
875.5320, 1270.109
876.0141, 1264.196
876.4962, 1261.543
876.9783, 1260.560
877.4604, 1260.428
877.9426, 1260.339
878.4247, 1257.705
878.9068, 1254.008
879.3889, 1255.016
879.8710, 1260.925
880.3531, 1270.667
880.8353, 1284.238
881.3174, 1293.610
881.7995, 1287.177
882.2816, 1268.822
882.7637, 1265.335
883.2458, 1279.624
883.7280, 1286.624
884.2101, 1280.777
884.6922, 1271.971
885.1743, 1265.843
885.6564, 1261.740
886.1385, 1258.050
886.6207, 1254.226
887.1028, 1253.542
887.5849, 1258.993
888.0670, 1262.701
888.5491, 1259.868
889.0313, 1256.904
889.5134, 1261.694
889.9955, 1271.601
890.4776, 1274.354
890.9597, 1264.580
891.4418, 1255.903
891.9240, 1247.724
892.4061, 1243.697
892.8882, 1249.952
893.3703, 1259.231
893.8524, 1260.454
894.3345, 1252.916
894.8167, 1248.063
895.2988, 1252.737
895.7809, 1258.484
896.2630, 1262.694
896.7451, 1264.282
897.2272, 1258.898
897.7094, 1250.384
898.1915, 1249.100
898.6736, 1258.801
899.1557, 1269.115
899.6378, 1272.026
900.1199, 1270.735
900.6021, 1266.766
901.0842, 1262.417
901.5663, 1263.733
902.0484, 1270.436
902.5305, 1275.515
903.0126, 1274.737
903.4948, 1269.352
903.9769, 1257.657
904.4590, 1243.345
904.9411, 1239.533
905.4232, 1245.539
905.9053, 1252.527
906.3875, 1257.574
906.8696, 1261.380
907.3517, 1264.938
907.8338, 1267.190
908.3159, 1263.170
908.7980, 1252.807
909.2802, 1248.268
909.7623, 1251.734
910.2444, 1253.633
910.7265, 1248.620
911.2086, 1241.932
911.6907, 1241.150
912.1729, 1246.226
912.6550, 1253.050
913.1371, 1264.754
913.6192, 1267.222
914.1013, 1251.822
914.5834, 1238.683
915.0656, 1243.088
915.5477, 1257.628
916.0298, 1265.906
916.5119, 1268.178
916.9940, 1262.844
917.4761, 1235.773
917.9583, 1221.158
918.4404, 1239.346
918.9225, 1262.100
919.4046, 1266.427
919.8867, 1256.579
920.3688, 1249.481
920.8510, 1248.310
921.3331, 1245.608
921.8152, 1238.901
922.2973, 1232.074
922.7794, 1223.458
923.2615, 1217.894
923.7437, 1223.277
924.2258, 1238.312
924.7079, 1250.460
925.1900, 1256.884
925.6721, 1258.384
926.1542, 1250.174
926.6364, 1241.936
927.1185, 1243.498
927.6006, 1249.809
928.0827, 1250.551
928.5648, 1243.987
929.0469, 1238.835
929.5291, 1239.583
930.0112, 1243.925
930.4933, 1254.644
930.9754, 1264.927
931.4575, 1264.816
931.9396, 1256.574
932.4218, 1248.540
932.9039, 1243.750
933.3860, 1240.480
933.8681, 1236.662
934.3502, 1234.012
934.8323, 1234.550
935.3145, 1238.048
935.7966, 1246.397
936.2787, 1257.770
936.7608, 1263.965
937.2429, 1260.467
937.7250, 1252.593
938.2072, 1242.067
938.6893, 1233.888
939.1714, 1246.282
939.6535, 1272.030
940.1356, 1279.853
940.6177, 1264.263
941.0999, 1246.264
941.5820, 1240.565
942.0641, 1241.455
942.5462, 1237.259
943.0283, 1230.238
943.5104, 1235.932
943.9926, 1253.355
944.4747, 1259.948
944.9568, 1248.550
945.4389, 1232.659
945.9210, 1223.490
946.4031, 1221.010
946.8853, 1228.526
947.3674, 1245.934
947.8495, 1249.245
948.3316, 1235.425
948.8137, 1225.617
949.2958, 1228.454
949.7780, 1235.952
950.2601, 1239.505
950.7422, 1239.788
951.2243, 1240.854
951.7064, 1243.427
952.1885, 1240.924
952.6707, 1230.326
953.1528, 1224.491
953.6349, 1231.629
954.1170, 1241.697
954.5991, 1240.551
955.0812, 1228.837
955.5634, 1220.374
956.0455, 1214.430
956.5276, 1214.645
957.0097, 1224.386
957.4918, 1234.531
957.9739, 1241.445
958.4561, 1244.441
958.9382, 1241.497
959.4203, 1231.967
959.9024, 1225.437
960.3845, 1221.201
960.8666, 1221.722
961.3488, 1232.052
961.8309, 1240.773
962.3130, 1240.090
962.7951, 1233.514
963.2772, 1227.164
963.7593, 1220.280
964.2415, 1217.743
964.7236, 1222.987
965.2057, 1227.589
965.6878, 1231.592
966.1699, 1233.132
966.6520, 1227.578
967.1342, 1219.458
967.6163, 1220.778
968.0984, 1236.536
968.5805, 1242.620
969.0626, 1228.182
969.5447, 1216.958
970.0269, 1218.059
970.5090, 1221.615
970.9911, 1219.423
971.4732, 1213.732
971.9553, 1211.490
972.4374, 1214.828
972.9196, 1216.232
973.4017, 1209.268
973.8838, 1207.115
974.3659, 1221.985
974.8480, 1237.272
975.3301, 1236.177
975.8123, 1223.064
976.2944, 1212.951
976.7765, 1207.043
977.2586, 1208.073
977.7407, 1227.083
978.2228, 1240.484
978.7050, 1232.258
979.1871, 1217.865
979.6692, 1212.331
980.1513, 1214.722
980.6334, 1216.696
981.1155, 1215.426
981.5977, 1217.018
982.0798, 1228.261
982.5619, 1236.977
983.0440, 1232.164
983.5261, 1225.086
984.0082, 1231.752
984.4904, 1248.207
984.9725, 1254.529
985.4546, 1242.225
985.9367, 1229.287
986.4188, 1221.925
986.9009, 1216.001
987.3831, 1206.085
987.8652, 1198.288
988.3473, 1202.614
988.8294, 1216.505
989.3115, 1226.486
989.7936, 1228.182
990.2758, 1226.625
990.7579, 1221.138
991.2400, 1216.022
991.7221, 1212.862
992.2042, 1212.452
992.6863, 1217.527
993.1685, 1226.367
993.6506, 1231.633
994.1327, 1230.255
994.6148, 1226.937
995.0969, 1221.268
995.5790, 1217.036
996.0612, 1217.642
996.5433, 1220.699
997.0254, 1225.239
997.5075, 1229.411
997.9896, 1226.781
998.4717, 1211.868
998.9539, 1199.978
999.4360, 1199.310
999.9181, 1202.862
1000.400, 1206.834
1000.882, 1211.431
1001.364, 1219.197
1001.847, 1228.512
1002.329, 1232.137
1002.811, 1225.934
1003.293, 1219.019
1003.775, 1213.070
1004.257, 1210.655
1004.739, 1217.554
1005.221, 1226.469
1005.703, 1227.734
1006.186, 1221.937
1006.668, 1216.000
1007.150, 1211.569
1007.632, 1209.504
1008.114, 1212.798
1008.596, 1215.712
1009.078, 1214.574
1009.560, 1210.864
1010.043, 1204.348
1010.525, 1197.090
1011.007, 1196.416
1011.489, 1207.778
1011.971, 1213.795
1012.453, 1198.528
1012.935, 1185.344
1013.417, 1192.110
1013.899, 1206.068
1014.382, 1212.886
1014.864, 1212.957
1015.346, 1213.939
1015.828, 1218.469
1016.310, 1221.525
1016.792, 1219.272
1017.274, 1217.304
1017.756, 1218.955
1018.239, 1222.187
1018.721, 1226.281
1019.203, 1229.855
1019.685, 1229.099
1020.167, 1221.821
1020.649, 1216.991
1021.131, 1221.565
1021.613, 1224.196
1022.095, 1216.367
1022.578, 1206.992
1023.060, 1206.253
1023.542, 1210.539
1024.024, 1208.008
1024.506, 1194.587
1024.988, 1187.097
1025.470, 1192.179
1025.952, 1200.947
1026.435, 1216.750
1026.917, 1228.852
1027.399, 1228.030
1027.881, 1217.138
1028.363, 1198.818
1028.845, 1170.285
1029.327, 1162.359
1029.809, 1202.234
1030.292, 1233.363
1030.774, 1237.934
1031.256, 1231.734
1031.738, 1219.904
1032.220, 1207.290
1032.702, 1201.287
1033.184, 1202.647
1033.666, 1207.458
1034.148, 1221.188
1034.630, 1229.755
1035.113, 1229.149
1035.595, 1224.711
1036.077, 1217.209
1036.559, 1208.824
1037.041, 1201.843
1037.523, 1196.203
1038.005, 1195.636
1038.487, 1202.791
1038.970, 1210.812
1039.452, 1224.003
1039.934, 1231.885
1040.416, 1227.623
1040.898, 1217.501
1041.380, 1207.272
1041.862, 1197.440
1042.344, 1193.971
1042.826, 1202.255
1043.309, 1204.684
1043.791, 1196.066
1044.273, 1190.180
1044.755, 1192.472
1045.237, 1199.273
1045.719, 1209.099
1046.201, 1219.730
1046.683, 1219.709
1047.166, 1203.068
1047.648, 1197.575
1048.130, 1209.598
1048.612, 1213.062
1049.094, 1195.680
1049.576, 1179.124
1050.058, 1182.592
1050.540, 1199.286
1051.022, 1211.888
1051.505, 1220.683
1051.987, 1220.534
1052.469, 1208.979
1052.951, 1205.072
1053.433, 1214.719
1053.915, 1225.164
1054.397, 1228.576
1054.879, 1225.210
1055.361, 1213.126
1055.844, 1193.894
1056.326, 1186.201
1056.808, 1189.978
1057.290, 1201.476
1057.772, 1220.230
1058.254, 1229.598
1058.736, 1220.242
1059.218, 1204.396
1059.701, 1196.847
1060.183, 1196.946
1060.665, 1206.595
1061.147, 1222.652
1061.629, 1226.286
1062.111, 1216.719
1062.593, 1205.077
1063.075, 1195.937
1063.557, 1190.806
1064.040, 1191.821
1064.522, 1196.523
1065.004, 1203.760
1065.486, 1209.956
1065.968, 1201.339
1066.450, 1183.354
1066.932, 1178.586
1067.414, 1191.438
1067.896, 1206.055
1068.379, 1212.359
1068.861, 1213.195
1069.343, 1210.326
1069.825, 1205.088
1070.307, 1195.896
1070.789, 1187.201
1071.271, 1189.140
1071.753, 1200.803
1072.236, 1211.837
1072.718, 1217.960
1073.200, 1220.287
1073.682, 1220.023
1074.164, 1215.952
1074.646, 1204.170
1075.128, 1190.089
1075.610, 1177.741
1076.093, 1169.446
1076.575, 1169.663
1077.057, 1179.789
1077.539, 1190.601
1078.021, 1201.839
1078.503, 1207.917
1078.985, 1201.574
1079.467, 1193.771
1079.949, 1194.428
1080.432, 1198.787
1080.914, 1196.127
1081.396, 1186.047
1081.878, 1184.301
1082.360, 1200.464
1082.842, 1214.778
1083.324, 1230.811
1083.806, 1236.549
1084.288, 1214.421
1084.771, 1188.323
1085.253, 1188.124
1085.735, 1207.514
1086.217, 1214.813
1086.699, 1203.452
1087.181, 1197.550
1087.663, 1199.794
1088.145, 1202.380
1088.628, 1204.837
1089.110, 1203.797
1089.592, 1194.318
1090.074, 1182.681
1090.556, 1183.665
1091.038, 1197.941
1091.520, 1204.877
1092.002, 1203.210
1092.484, 1201.931
1092.967, 1202.478
1093.449, 1203.546
1093.931, 1204.556
1094.413, 1205.072
1094.895, 1203.510
1095.377, 1202.223
1095.859, 1214.827
1096.341, 1237.640
1096.823, 1237.077
1097.306, 1213.571
1097.788, 1198.941
1098.270, 1203.065
1098.752, 1211.023
1099.234, 1211.051
1099.716, 1208.278
1100.198, 1211.627
1100.680, 1217.333
1101.163, 1217.901
1101.645, 1214.161
1102.127, 1207.439
1102.609, 1199.373
1103.091, 1193.999
1103.573, 1193.187
1104.055, 1196.597
1104.537, 1211.098
1105.020, 1222.058
1105.502, 1209.536
1105.984, 1190.541
1106.466, 1187.284
1106.948, 1194.661
1107.430, 1196.531
1107.912, 1189.704
1108.394, 1184.507
1108.876, 1182.715
1109.359, 1186.986
1109.841, 1207.461
1110.323, 1224.022
1110.805, 1220.466
1111.287, 1208.640
1111.769, 1203.116
1112.251, 1203.401
1112.733, 1201.298
1113.215, 1192.896
1113.698, 1190.257
1114.180, 1197.225
1114.662, 1204.353
1115.144, 1209.712
1115.626, 1214.875
1116.108, 1223.565
1116.590, 1229.759
1117.072, 1219.294
1117.555, 1192.005
1118.037, 1186.484
1118.519, 1207.929
1119.001, 1221.813
1119.483, 1223.560
1119.965, 1220.868
1120.447, 1216.482
1120.929, 1212.016
1121.411, 1209.025
1121.894, 1207.491
1122.376, 1209.180
1122.858, 1212.490
1123.340, 1205.395
1123.822, 1190.930
1124.304, 1190.402
1124.786, 1206.399
1125.268, 1217.897
1125.750, 1212.526
1126.233, 1205.172
1126.715, 1214.566
1127.197, 1230.183
1127.679, 1239.973
1128.161, 1244.301
1128.643, 1243.689
1129.125, 1238.464
1129.607, 1227.208
1130.090, 1210.535
1130.572, 1197.349
1131.054, 1191.227
1131.536, 1191.167
1132.018, 1200.915
1132.500, 1211.773
1132.982, 1220.523
1133.464, 1225.023
1133.947, 1218.928
1134.429, 1206.477
1134.911, 1205.782
1135.393, 1225.730
1135.875, 1234.267
1136.357, 1218.725
1136.839, 1206.704
1137.321, 1205.978
1137.803, 1204.776
1138.286, 1193.093
1138.768, 1181.265
1139.250, 1186.028
1139.732, 1205.099
1140.214, 1217.294
1140.696, 1222.362
1141.178, 1221.944
1141.660, 1215.675
1142.142, 1208.724
1142.625, 1202.589
1143.107, 1199.274
1143.589, 1200.697
1144.071, 1204.042
1144.553, 1202.832
1145.035, 1200.072
1145.517, 1207.786
1145.999, 1221.439
1146.482, 1226.385
1146.964, 1222.253
1147.446, 1215.897
1147.928, 1210.319
1148.410, 1208.818
1148.892, 1217.904
1149.374, 1225.068
1149.856, 1213.480
1150.339, 1199.958
1150.821, 1203.657
1151.303, 1215.410
1151.785, 1220.571
1152.267, 1218.622
1152.749, 1217.934
1153.231, 1222.706
1153.713, 1219.965
1154.195, 1194.210
1154.677, 1177.958
1155.160, 1187.823
1155.642, 1202.643
1156.124, 1210.918
1156.606, 1214.885
1157.088, 1216.954
1157.570, 1217.439
1158.052, 1220.848
1158.534, 1229.282
1159.017, 1230.090
1159.499, 1221.177
1159.981, 1213.251
1160.463, 1209.406
1160.945, 1207.977
1161.427, 1207.814
1161.909, 1208.953
1162.391, 1212.885
1162.874, 1217.622
1163.356, 1213.684
1163.838, 1205.254
1164.320, 1208.543
1164.802, 1221.365
1165.284, 1226.509
1165.766, 1219.469
1166.248, 1214.174
1166.730, 1222.290
1167.213, 1228.986
1167.695, 1215.908
1168.177, 1202.332
1168.659, 1209.195
1169.141, 1223.204
1169.623, 1227.475
1170.105, 1223.035
1170.587, 1217.467
1171.069, 1211.400
1171.552, 1210.234
1172.034, 1220.368
1172.516, 1226.998
1172.998, 1227.705
1173.480, 1224.642
1173.962, 1216.282
1174.444, 1207.894
1174.926, 1205.273
1175.409, 1206.827
1175.891, 1206.221
1176.373, 1202.775
1176.855, 1209.676
1177.337, 1227.401
1177.819, 1232.514
1178.301, 1221.016
1178.783, 1211.189
1179.266, 1211.933
1179.748, 1216.734
1180.230, 1219.075
1180.712, 1220.673
1181.194, 1225.353
1181.676, 1230.530
1182.158, 1233.361
1182.640, 1232.345
1183.122, 1220.390
1183.604, 1201.689
1184.087, 1196.844
1184.569, 1215.709
1185.051, 1230.408
1185.533, 1222.959
1186.015, 1215.827
1186.497, 1220.001
1186.979, 1226.137
1187.461, 1227.587
1187.944, 1227.042
1188.426, 1230.711
1188.908, 1236.641
1189.390, 1230.838
1189.872, 1204.148
1190.354, 1201.149
1190.836, 1229.885
1191.318, 1245.202
1191.801, 1235.397
1192.283, 1223.684
1192.765, 1223.046
1193.247, 1228.331
1193.729, 1234.279
1194.211, 1239.527
1194.693, 1240.875
1195.175, 1238.823
1195.657, 1230.562
1196.140, 1221.020
1196.622, 1226.815
1197.104, 1247.028
1197.586, 1262.528
1198.068, 1265.062
1198.550, 1260.223
1199.032, 1245.386
1199.514, 1232.135
1199.996, 1228.025
1200.479, 1227.056
1200.961, 1223.012
1201.443, 1219.905
1201.925, 1227.696
1202.407, 1243.734
1202.889, 1245.706
1203.371, 1226.684
1203.853, 1215.832
1204.336, 1215.385
1204.818, 1216.130
1205.300, 1216.551
1205.782, 1215.887
1206.264, 1213.115
1206.746, 1213.424
1207.228, 1224.716
1207.710, 1240.262
1208.193, 1241.481
1208.675, 1233.672
1209.157, 1232.279
1209.639, 1235.624
1210.121, 1236.950
1210.603, 1235.012
1211.085, 1229.682
1211.567, 1220.718
1212.049, 1217.366
1212.531, 1229.899
1213.014, 1243.302
1213.496, 1253.218
1213.978, 1257.271
1214.460, 1246.766
1214.942, 1234.581
1215.424, 1239.658
1215.906, 1256.602
1216.388, 1263.537
##END=



