##NAMES=Siegenite
##RRUFFID=R070252
##IDEAL CHEMISTRY=Co^2+^Ni^3+^_2_S^2-^_4_
##LOCALITY=Gruge Viktoria Musen, Siegen, Siegerland, North Rhine-Westphalia, Germany
##OWNER=RRUFF
##SOURCE=Michael Scott
##DESCRIPTION=Steel gray cubo-octahedra associated with dark gray tetrahedrite (with parallel growth on corners), siderite and minor quartz
##STATUS=The identification of this mineral is confirmed by single-crystal X-ray diffraction and chemical analysis.
##URL=rruff.info/R070252
##MEASURED CHEMISTRY=Co_1.00_(Ni_1.56_Co_0.42_Fe_0.02_)_Î£=2_S_4_
163.1611, 781.2410
163.6432, 770.4681
164.1253, 761.3796
164.6075, 763.4325
165.0896, 777.0509
165.5717, 788.7713
166.0538, 788.2034
166.5359, 781.5005
167.0180, 777.4824
167.5002, 784.3771
167.9823, 792.4456
168.4644, 792.5020
168.9465, 782.5131
169.4286, 773.9920
169.9107, 777.4052
170.3929, 788.5849
170.8750, 798.8487
171.3571, 800.0616
171.8392, 799.6031
172.3213, 807.4958
172.8034, 827.8682
173.2856, 846.8197
173.7677, 849.6082
174.2498, 839.4930
174.7319, 827.6832
175.2140, 817.3018
175.6961, 810.3143
176.1783, 810.7618
176.6604, 821.5714
177.1425, 836.0518
177.6246, 847.6774
178.1067, 856.2877
178.5888, 861.5812
179.0710, 861.1907
179.5531, 857.2336
180.0352, 854.4695
180.5173, 854.6691
180.9994, 855.9601
181.4815, 854.6617
181.9637, 850.8647
182.4458, 847.7722
182.9279, 848.5509
183.4100, 852.4297
183.8921, 856.5428
184.3742, 860.2996
184.8564, 863.6738
185.3385, 866.3970
185.8206, 868.4612
186.3027, 870.2514
186.7848, 871.8651
187.2669, 873.4020
187.7491, 875.6890
188.2312, 879.5703
188.7133, 884.4341
189.1954, 888.3826
189.6775, 891.5093
190.1596, 893.1570
190.6418, 891.0437
191.1239, 885.3273
191.6060, 881.8839
192.0881, 884.8300
192.5702, 893.1459
193.0524, 897.3740
193.5345, 896.6675
194.0166, 894.0629
194.4987, 894.1426
194.9808, 897.0424
195.4629, 900.5924
195.9451, 904.0768
196.4272, 907.5283
196.9093, 909.7971
197.3914, 910.1757
197.8735, 910.4279
198.3556, 915.2881
198.8378, 925.8375
199.3199, 934.0657
199.8020, 934.0178
200.2841, 924.9375
200.7662, 918.7369
201.2483, 915.9166
201.7305, 916.5069
202.2126, 922.8074
202.6947, 937.3377
203.1768, 948.1703
203.6589, 945.3859
204.1410, 926.2389
204.6232, 913.2305
205.1053, 908.9752
205.5874, 911.8447
206.0695, 917.5791
206.5516, 927.6683
207.0337, 936.7098
207.5159, 940.5415
207.9980, 938.0157
208.4801, 935.4022
208.9622, 933.3997
209.4443, 931.8901
209.9264, 930.1683
210.4086, 927.9118
210.8907, 926.0871
211.3728, 925.4396
211.8549, 926.0646
212.3370, 927.9106
212.8191, 932.7755
213.3013, 939.5062
213.7834, 936.6797
214.2655, 918.1151
214.7476, 899.9061
215.2297, 897.3828
215.7118, 916.4794
216.1940, 934.9681
216.6761, 949.6102
217.1582, 960.4903
217.6403, 967.6840
218.1224, 971.0561
218.6045, 970.8343
219.0867, 966.0661
219.5688, 953.4227
220.0509, 944.1855
220.5330, 940.9515
221.0151, 943.7446
221.4972, 949.6304
221.9794, 961.1091
222.4615, 972.9473
222.9436, 978.9033
223.4257, 974.8900
223.9078, 973.6578
224.3899, 979.7868
224.8721, 994.4534
225.3542, 1001.522
225.8363, 997.2067
226.3184, 988.9490
226.8005, 985.3771
227.2827, 987.6898
227.7648, 992.6567
228.2469, 1000.905
228.7290, 1013.562
229.2111, 1020.012
229.6932, 1016.312
230.1754, 1009.529
230.6575, 1009.406
231.1396, 1020.263
231.6217, 1030.143
232.1038, 1035.484
232.5859, 1035.310
233.0681, 1036.023
233.5502, 1038.853
234.0323, 1041.692
234.5144, 1041.097
234.9965, 1034.477
235.4786, 1028.796
235.9608, 1026.161
236.4429, 1027.047
236.9250, 1028.965
237.4071, 1032.476
237.8892, 1036.660
238.3713, 1039.998
238.8535, 1041.922
239.3356, 1044.015
239.8177, 1047.595
240.2998, 1054.458
240.7819, 1055.238
241.2640, 1045.673
241.7462, 1032.515
242.2283, 1027.922
242.7104, 1037.094
243.1925, 1046.282
243.6746, 1050.777
244.1567, 1049.010
244.6389, 1047.875
245.1210, 1047.525
245.6031, 1047.715
246.0852, 1047.452
246.5673, 1044.065
247.0494, 1044.899
247.5316, 1054.846
248.0137, 1080.243
248.4958, 1092.487
248.9779, 1085.779
249.4600, 1069.085
249.9421, 1058.947
250.4243, 1057.016
250.9064, 1058.584
251.3885, 1063.290
251.8706, 1074.104
252.3527, 1077.444
252.8348, 1069.605
253.3170, 1056.611
253.7991, 1050.063
254.2812, 1052.299
254.7633, 1056.659
255.2454, 1061.593
255.7275, 1068.439
256.2097, 1070.007
256.6918, 1062.939
257.1739, 1052.883
257.6560, 1051.196
258.1381, 1062.310
258.6202, 1072.645
259.1024, 1076.288
259.5845, 1070.687
260.0666, 1069.371
260.5487, 1074.941
261.0308, 1082.817
261.5129, 1083.741
261.9951, 1074.141
262.4772, 1066.147
262.9593, 1066.018
263.4414, 1076.791
263.9235, 1080.322
264.4056, 1073.953
264.8878, 1062.838
265.3699, 1055.666
265.8520, 1052.926
266.3341, 1052.614
266.8162, 1055.265
267.2983, 1062.094
267.7805, 1063.028
268.2626, 1055.254
268.7447, 1044.703
269.2268, 1042.721
269.7089, 1051.963
270.1910, 1060.210
270.6732, 1061.586
271.1553, 1054.922
271.6374, 1052.990
272.1195, 1056.602
272.6016, 1063.763
273.0837, 1072.403
273.5659, 1083.524
274.0480, 1091.243
274.5301, 1092.201
275.0122, 1086.094
275.4943, 1081.553
275.9764, 1078.707
276.4586, 1077.179
276.9407, 1076.547
277.4228, 1076.856
277.9049, 1077.683
278.3870, 1078.562
278.8691, 1079.566
279.3513, 1082.580
279.8334, 1087.922
280.3155, 1094.462
280.7976, 1102.823
281.2798, 1113.283
281.7619, 1117.335
282.2440, 1107.241
282.7261, 1085.984
283.2082, 1077.666
283.6903, 1084.199
284.1725, 1096.637
284.6546, 1105.278
285.1367, 1110.106
285.6188, 1112.502
286.1009, 1112.627
286.5830, 1110.675
287.0652, 1106.396
287.5473, 1099.263
288.0294, 1093.180
288.5115, 1093.554
288.9936, 1099.656
289.4757, 1105.283
289.9579, 1107.170
290.4400, 1107.399
290.9221, 1113.029
291.4042, 1124.501
291.8863, 1135.868
292.3684, 1140.013
292.8506, 1138.505
293.3327, 1138.415
293.8148, 1143.742
294.2969, 1150.841
294.7790, 1152.474
295.2611, 1148.622
295.7433, 1142.347
296.2254, 1133.720
296.7075, 1124.412
297.1896, 1119.391
297.6717, 1120.600
298.1538, 1126.203
298.6360, 1136.078
299.1181, 1149.708
299.6002, 1159.958
300.0823, 1157.677
300.5644, 1148.632
301.0465, 1143.999
301.5287, 1148.529
302.0108, 1156.343
302.4929, 1161.616
302.9750, 1164.552
303.4571, 1166.029
303.9392, 1166.910
304.4214, 1166.640
304.9035, 1163.798
305.3856, 1155.598
305.8677, 1148.813
306.3498, 1151.836
306.8319, 1162.069
307.3141, 1170.418
307.7962, 1169.318
308.2783, 1164.666
308.7604, 1161.992
309.2425, 1162.318
309.7246, 1165.085
310.2068, 1173.096
310.6889, 1183.682
311.1710, 1190.033
311.6531, 1185.663
312.1352, 1177.766
312.6173, 1171.659
313.0995, 1168.859
313.5816, 1166.123
314.0637, 1159.055
314.5458, 1151.152
315.0279, 1148.902
315.5100, 1162.453
315.9922, 1176.537
316.4743, 1182.098
316.9564, 1175.954
317.4385, 1170.167
317.9206, 1169.042
318.4027, 1170.579
318.8849, 1171.983
319.3670, 1173.198
319.8491, 1173.544
320.3312, 1172.222
320.8133, 1168.693
321.2954, 1166.478
321.7776, 1166.722
322.2597, 1168.412
322.7418, 1170.464
323.2239, 1176.629
323.7060, 1179.244
324.1881, 1174.428
324.6703, 1161.188
325.1524, 1152.168
325.6345, 1147.778
326.1166, 1148.288
326.5987, 1153.973
327.0808, 1173.159
327.5630, 1187.718
328.0451, 1195.519
328.5272, 1196.681
329.0093, 1193.539
329.4914, 1183.964
329.9735, 1172.125
330.4557, 1159.935
330.9378, 1141.646
331.4199, 1133.541
331.9020, 1141.347
332.3841, 1161.014
332.8662, 1172.630
333.3484, 1173.355
333.8305, 1170.164
334.3126, 1165.731
334.7947, 1158.001
335.2768, 1155.993
335.7589, 1162.383
336.2411, 1173.510
336.7232, 1179.907
337.2053, 1179.996
337.6874, 1179.823
338.1695, 1183.069
338.6516, 1190.500
339.1338, 1193.571
339.6159, 1190.287
340.0980, 1185.514
340.5801, 1188.774
341.0622, 1201.119
341.5443, 1212.198
342.0265, 1217.544
342.5086, 1217.670
342.9907, 1217.877
343.4728, 1218.352
343.9549, 1218.172
344.4370, 1215.737
344.9192, 1211.293
345.4013, 1206.871
345.8834, 1201.920
346.3655, 1197.900
346.8476, 1200.101
347.3297, 1208.683
347.8119, 1218.319
348.2940, 1223.159
348.7761, 1224.891
349.2582, 1228.817
349.7403, 1238.753
350.2225, 1249.308
350.7046, 1251.929
351.1867, 1247.418
351.6688, 1241.783
352.1509, 1237.748
352.6331, 1235.762
353.1152, 1237.008
353.5973, 1243.281
354.0794, 1249.951
354.5615, 1253.953
355.0436, 1255.180
355.5258, 1253.304
356.0079, 1242.296
356.4900, 1231.347
356.9721, 1229.925
357.4542, 1242.401
357.9363, 1254.504
358.4185, 1260.233
358.9006, 1259.966
359.3827, 1254.355
359.8648, 1233.659
360.3469, 1215.606
360.8290, 1211.854
361.3112, 1225.654
361.7933, 1236.927
362.2754, 1236.657
362.7575, 1231.626
363.2396, 1229.197
363.7217, 1232.471
364.2039, 1237.093
364.6860, 1243.617
365.1681, 1252.052
365.6502, 1256.009
366.1323, 1251.514
366.6144, 1244.337
367.0966, 1238.382
367.5787, 1231.194
368.0608, 1228.571
368.5429, 1233.593
369.0250, 1244.357
369.5071, 1250.870
369.9893, 1250.351
370.4714, 1248.815
370.9535, 1249.060
371.4356, 1251.522
371.9177, 1254.794
372.3998, 1258.985
372.8820, 1263.935
373.3641, 1269.655
373.8462, 1277.094
374.3283, 1282.803
374.8104, 1284.883
375.2925, 1282.985
375.7747, 1281.242
376.2568, 1278.897
376.7389, 1278.165
377.2210, 1283.819
377.7031, 1296.530
378.1852, 1305.771
378.6674, 1306.940
379.1495, 1302.156
379.6316, 1300.545
380.1137, 1302.311
380.5958, 1305.525
381.0779, 1309.666
381.5601, 1314.171
382.0422, 1315.328
382.5243, 1310.128
383.0064, 1304.062
383.4885, 1309.826
383.9706, 1325.475
384.4528, 1336.291
384.9349, 1324.280
385.4170, 1302.966
385.8991, 1296.501
386.3812, 1312.062
386.8633, 1330.814
387.3455, 1335.599
387.8276, 1330.149
388.3097, 1323.014
388.7918, 1315.754
389.2739, 1310.336
389.7560, 1310.054
390.2382, 1315.806
390.7203, 1318.799
391.2024, 1309.427
391.6845, 1296.348
392.1666, 1289.438
392.6487, 1299.464
393.1309, 1309.325
393.6130, 1311.807
394.0951, 1307.384
394.5772, 1302.692
395.0593, 1302.127
395.5414, 1300.114
396.0236, 1293.137
396.5057, 1270.459
396.9878, 1254.935
397.4699, 1252.056
397.9520, 1258.387
398.4341, 1263.120
398.9163, 1265.392
399.3984, 1266.952
399.8805, 1268.397
400.3626, 1269.810
400.8447, 1270.638
401.3268, 1269.409
401.8090, 1268.686
402.2911, 1273.339
402.7732, 1287.156
403.2553, 1296.070
403.7374, 1294.379
404.2195, 1282.933
404.7017, 1277.689
405.1838, 1279.947
405.6659, 1284.915
406.1480, 1289.313
406.6301, 1293.206
407.1122, 1293.479
407.5944, 1287.928
408.0765, 1280.133
408.5586, 1279.336
409.0407, 1285.412
409.5228, 1292.683
410.0049, 1298.431
410.4871, 1302.445
410.9692, 1304.170
411.4513, 1303.515
411.9334, 1300.681
412.4155, 1292.137
412.8976, 1280.960
413.3798, 1276.187
413.8619, 1289.511
414.3440, 1306.781
414.8261, 1312.527
415.3082, 1306.434
415.7903, 1298.079
416.2725, 1289.232
416.7546, 1283.245
417.2367, 1283.964
417.7188, 1297.726
418.2009, 1312.811
418.6830, 1326.684
419.1652, 1338.251
419.6473, 1342.946
420.1294, 1331.489
420.6115, 1318.561
421.0937, 1312.882
421.5758, 1321.277
422.0579, 1324.863
422.5400, 1315.402
423.0221, 1300.883
423.5042, 1294.256
423.9864, 1300.663
424.4685, 1309.821
424.9506, 1322.109
425.4327, 1338.338
425.9148, 1343.498
426.3969, 1327.562
426.8791, 1311.974
427.3612, 1318.961
427.8433, 1360.176
428.3254, 1386.739
428.8075, 1388.882
429.2896, 1372.797
429.7718, 1357.812
430.2539, 1343.362
430.7360, 1332.664
431.2181, 1330.840
431.7002, 1336.860
432.1823, 1333.343
432.6645, 1316.831
433.1466, 1299.424
433.6287, 1299.370
434.1108, 1313.920
434.5929, 1329.827
435.0750, 1344.696
435.5572, 1356.077
436.0393, 1356.829
436.5214, 1347.471
437.0035, 1338.982
437.4856, 1342.675
437.9677, 1351.823
438.4499, 1356.548
438.9320, 1351.386
439.4141, 1346.266
439.8962, 1351.817
440.3783, 1363.251
440.8604, 1368.389
441.3426, 1351.484
441.8247, 1334.544
442.3068, 1332.453
442.7889, 1350.896
443.2710, 1364.476
443.7531, 1362.234
444.2353, 1353.302
444.7174, 1347.740
445.1995, 1351.313
445.6816, 1353.619
446.1637, 1351.014
446.6458, 1344.363
447.1280, 1343.320
447.6101, 1352.640
448.0922, 1362.347
448.5743, 1366.141
449.0564, 1359.790
449.5385, 1359.801
450.0207, 1370.223
450.5028, 1383.877
450.9849, 1385.162
451.4670, 1371.098
451.9491, 1359.854
452.4312, 1360.178
452.9134, 1370.143
453.3955, 1374.168
453.8776, 1371.692
454.3597, 1367.259
454.8418, 1363.372
455.3239, 1360.789
455.8061, 1363.875
456.2882, 1376.875
456.7703, 1390.915
457.2524, 1392.145
457.7345, 1382.897
458.2166, 1372.620
458.6988, 1363.032
459.1809, 1357.385
459.6630, 1362.039
460.1451, 1379.408
460.6272, 1394.035
461.1093, 1393.561
461.5915, 1385.417
462.0736, 1378.807
462.5557, 1371.095
463.0378, 1370.991
463.5199, 1390.195
464.0020, 1424.465
464.4842, 1443.109
464.9663, 1423.990
465.4484, 1399.051
465.9305, 1384.680
466.4126, 1383.087
466.8947, 1389.674
467.3769, 1413.697
467.8590, 1441.823
468.3411, 1450.884
468.8232, 1430.026
469.3053, 1411.639
469.7874, 1405.555
470.2696, 1410.864
470.7517, 1409.226
471.2338, 1397.949
471.7159, 1388.000
472.1980, 1391.644
472.6801, 1408.462
473.1623, 1418.984
473.6444, 1419.491
474.1265, 1414.621
474.6086, 1410.382
475.0907, 1407.103
475.5728, 1406.910
476.0550, 1414.327
476.5371, 1424.385
477.0192, 1428.572
477.5013, 1426.584
477.9834, 1422.732
478.4655, 1417.765
478.9477, 1413.721
479.4298, 1413.656
479.9119, 1423.225
480.3940, 1430.958
480.8761, 1428.046
481.3582, 1418.165
481.8404, 1411.910
482.3225, 1415.364
482.8046, 1421.063
483.2867, 1425.731
483.7688, 1428.732
484.2509, 1431.933
484.7331, 1437.241
485.2152, 1441.883
485.6973, 1442.917
486.1794, 1435.938
486.6615, 1433.235
487.1436, 1439.003
487.6258, 1450.472
488.1079, 1454.202
488.5900, 1448.639
489.0721, 1439.500
489.5542, 1426.726
490.0363, 1410.118
490.5185, 1406.144
491.0006, 1417.238
491.4827, 1434.374
491.9648, 1448.838
492.4470, 1460.078
492.9291, 1464.088
493.4112, 1455.764
493.8933, 1442.608
494.3754, 1436.643
494.8575, 1436.865
495.3397, 1437.306
495.8218, 1434.116
496.3039, 1429.015
496.7860, 1423.450
497.2681, 1417.029
497.7502, 1412.260
498.2324, 1410.888
498.7145, 1411.813
499.1966, 1413.514
499.6787, 1411.806
500.1608, 1414.597
500.6429, 1429.176
501.1251, 1454.181
501.6072, 1467.845
502.0893, 1458.730
502.5714, 1446.962
503.0535, 1442.117
503.5356, 1448.138
504.0178, 1451.802
504.4999, 1453.126
504.9820, 1452.016
505.4641, 1447.044
505.9462, 1436.815
506.4283, 1429.935
506.9105, 1428.720
507.3926, 1432.827
507.8747, 1443.510
508.3568, 1461.324
508.8389, 1476.009
509.3210, 1478.508
509.8032, 1472.176
510.2853, 1465.558
510.7674, 1459.180
511.2495, 1454.856
511.7316, 1455.513
512.2137, 1459.555
512.6959, 1463.702
513.1780, 1469.214
513.6601, 1472.223
514.1422, 1466.936
514.6243, 1455.127
515.1064, 1448.838
515.5886, 1457.741
516.0707, 1470.163
516.5528, 1478.964
517.0349, 1481.845
517.5170, 1484.187
517.9991, 1488.169
518.4813, 1491.202
518.9634, 1489.330
519.4455, 1477.137
519.9276, 1469.623
520.4097, 1472.002
520.8918, 1482.095
521.3740, 1484.630
521.8561, 1477.242
522.3382, 1470.132
522.8203, 1470.998
523.3024, 1479.258
523.7845, 1485.520
524.2667, 1489.603
524.7488, 1490.436
525.2309, 1483.609
525.7130, 1471.834
526.1951, 1464.732
526.6772, 1467.124
527.1594, 1474.299
527.6415, 1483.629
528.1236, 1493.871
528.6057, 1499.719
529.0878, 1489.904
529.5699, 1479.873
530.0521, 1484.970
530.5342, 1512.836
531.0163, 1529.951
531.4984, 1512.652
531.9805, 1484.862
532.4626, 1471.954
532.9448, 1494.712
533.4269, 1511.622
533.9090, 1515.880
534.3911, 1510.694
534.8732, 1508.149
535.3553, 1508.489
535.8375, 1511.134
536.3196, 1517.995
536.8017, 1529.833
537.2838, 1529.734
537.7659, 1514.762
538.2480, 1497.530
538.7302, 1491.616
539.2123, 1495.804
539.6944, 1503.022
540.1765, 1513.925
540.6586, 1523.171
541.1407, 1520.042
541.6229, 1508.078
542.1050, 1499.949
542.5871, 1506.234
543.0692, 1516.919
543.5513, 1522.388
544.0334, 1522.141
544.5156, 1523.596
544.9977, 1537.447
545.4798, 1550.276
545.9619, 1550.542
546.4440, 1521.081
546.9261, 1501.354
547.4083, 1502.805
547.8904, 1516.206
548.3725, 1524.771
548.8546, 1524.903
549.3367, 1526.365
549.8188, 1532.811
550.3010, 1543.414
550.7831, 1547.847
551.2652, 1544.822
551.7473, 1539.913
552.2294, 1535.716
552.7115, 1532.518
553.1937, 1534.540
553.6758, 1543.088
554.1579, 1552.814
554.6400, 1557.638
555.1221, 1558.326
555.6042, 1556.920
556.0864, 1552.830
556.5685, 1548.298
557.0506, 1544.752
557.5327, 1542.409
558.0148, 1542.167
558.4969, 1548.633
558.9791, 1554.196
559.4612, 1552.046
559.9433, 1538.669
560.4254, 1532.459
560.9075, 1545.008
561.3896, 1561.521
561.8718, 1568.943
562.3539, 1561.004
562.8360, 1554.444
563.3181, 1550.165
563.8002, 1548.202
564.2823, 1549.418
564.7645, 1554.766
565.2466, 1558.812
565.7287, 1557.730
566.2108, 1553.440
566.6929, 1557.496
567.1750, 1570.287
567.6572, 1581.838
568.1393, 1582.031
568.6214, 1575.125
569.1035, 1569.266
569.5856, 1565.602
570.0677, 1563.404
570.5499, 1563.797
571.0320, 1564.862
571.5141, 1563.575
571.9962, 1554.066
572.4783, 1546.736
572.9604, 1546.818
573.4426, 1553.130
573.9247, 1559.337
574.4068, 1568.049
574.8889, 1572.944
575.3710, 1569.234
575.8531, 1553.126
576.3353, 1549.657
576.8174, 1564.753
577.2995, 1583.747
577.7816, 1592.046
578.2637, 1588.468
578.7458, 1586.752
579.2280, 1589.892
579.7101, 1593.881
580.1922, 1590.624
580.6743, 1581.252
581.1564, 1572.154
581.6385, 1564.560
582.1207, 1559.817
582.6028, 1561.264
583.0849, 1568.194
583.5670, 1575.155
584.0491, 1578.326
584.5313, 1580.626
585.0134, 1584.303
585.4955, 1589.914
585.9776, 1596.150
586.4597, 1607.155
586.9418, 1616.669
587.4240, 1616.947
587.9061, 1596.813
588.3882, 1585.167
588.8703, 1589.313
589.3524, 1602.773
589.8345, 1604.937
590.3167, 1592.224
590.7988, 1582.048
591.2809, 1583.571
591.7630, 1594.160
592.2451, 1600.203
592.7272, 1601.561
593.2094, 1601.771
593.6915, 1603.712
594.1736, 1606.610
594.6557, 1609.477
595.1378, 1612.574
595.6199, 1613.583
596.1021, 1607.921
596.5842, 1599.805
597.0663, 1595.230
597.5485, 1600.591
598.0306, 1605.232
598.5127, 1605.032
598.9948, 1601.106
599.4769, 1598.418
599.9590, 1596.852
600.4412, 1597.003
600.9233, 1599.142
601.4054, 1603.319
601.8875, 1609.672
602.3696, 1619.936
602.8517, 1627.979
603.3339, 1626.714
603.8160, 1616.994
604.2981, 1609.584
604.7802, 1605.488
605.2623, 1604.824
605.7444, 1610.138
606.2266, 1619.250
606.7087, 1626.154
607.1908, 1629.444
607.6729, 1629.019
608.1550, 1621.047
608.6371, 1608.649
609.1193, 1601.694
609.6014, 1612.694
610.0835, 1622.779
610.5656, 1619.217
611.0477, 1597.811
611.5298, 1591.042
612.0120, 1610.675
612.4941, 1634.406
612.9762, 1647.384
613.4583, 1646.860
613.9404, 1645.308
614.4225, 1643.088
614.9047, 1640.125
615.3868, 1635.637
615.8689, 1629.790
616.3510, 1625.331
616.8331, 1623.286
617.3152, 1622.736
617.7974, 1621.827
618.2795, 1621.051
618.7616, 1622.219
619.2437, 1626.787
619.7258, 1633.322
620.2079, 1643.148
620.6901, 1656.099
621.1722, 1662.945
621.6543, 1655.859
622.1364, 1644.845
622.6185, 1635.808
623.1006, 1626.768
623.5828, 1625.320
624.0649, 1636.225
624.5470, 1650.354
625.0291, 1655.754
625.5112, 1650.229
625.9933, 1648.565
626.4755, 1655.641
626.9576, 1665.000
627.4397, 1660.747
627.9218, 1644.729
628.4039, 1631.024
628.8860, 1627.074
629.3682, 1629.164
629.8503, 1634.646
630.3324, 1642.762
630.8145, 1648.000
631.2966, 1639.932
631.7787, 1632.804
632.2609, 1640.066
632.7430, 1670.074
633.2251, 1687.989
633.7072, 1676.436
634.1893, 1656.379
634.6714, 1644.695
635.1536, 1643.252
635.6357, 1646.963
636.1178, 1658.344
636.5999, 1671.652
637.0820, 1673.719
637.5641, 1663.858
638.0463, 1660.268
638.5284, 1672.689
639.0105, 1691.623
639.4926, 1697.128
639.9747, 1691.159
640.4568, 1684.973
640.9390, 1687.098
641.4211, 1691.014
641.9032, 1689.357
642.3853, 1681.632
642.8674, 1676.851
643.3495, 1682.313
643.8317, 1689.509
644.3138, 1692.143
644.7959, 1684.016
645.2780, 1682.469
645.7601, 1692.513
646.2422, 1704.734
646.7244, 1707.401
647.2065, 1698.581
647.6886, 1689.554
648.1707, 1681.104
648.6528, 1675.185
649.1349, 1677.725
649.6171, 1687.513
650.0992, 1696.014
650.5813, 1699.675
651.0634, 1699.612
651.5455, 1694.730
652.0276, 1686.281
652.5098, 1681.241
652.9919, 1682.930
653.4740, 1689.481
653.9561, 1703.259
654.4382, 1727.682
654.9203, 1739.095
655.4025, 1723.951
655.8846, 1703.660
656.3667, 1692.631
656.8488, 1694.498
657.3309, 1694.115
657.8130, 1689.359
658.2952, 1685.126
658.7773, 1690.010
659.2594, 1703.159
659.7415, 1713.811
660.2236, 1718.713
660.7057, 1720.600
661.1879, 1723.348
661.6700, 1726.269
662.1521, 1727.394
662.6342, 1728.085
663.1163, 1724.674
663.5984, 1710.263
664.0806, 1687.082
664.5627, 1672.877
665.0448, 1679.561
665.5269, 1689.574
666.0090, 1696.057
666.4911, 1698.810
666.9733, 1698.827
667.4554, 1695.166
667.9375, 1690.636
668.4196, 1686.943
668.9017, 1684.127
669.3839, 1684.486
669.8660, 1688.975
670.3481, 1693.065
670.8302, 1689.646
671.3123, 1681.990
671.7944, 1677.127
672.2766, 1677.579
672.7587, 1680.904
673.2408, 1687.102
673.7229, 1694.835
674.2050, 1701.605
674.6871, 1707.898
675.1693, 1711.837
675.6514, 1712.691
676.1335, 1710.765
676.6156, 1706.847
677.0977, 1699.197
677.5798, 1693.572
678.0620, 1693.266
678.5441, 1697.642
679.0262, 1700.734
679.5083, 1702.551
679.9904, 1703.328
680.4725, 1702.816
680.9547, 1701.533
681.4368, 1700.713
681.9189, 1700.677
682.4010, 1699.428
682.8831, 1689.558
683.3652, 1680.770
683.8474, 1683.739
684.3295, 1713.335
684.8116, 1734.920
685.2937, 1740.151
685.7758, 1736.198
686.2579, 1731.104
686.7401, 1723.538
687.2222, 1718.308
687.7043, 1715.742
688.1864, 1716.565
688.6685, 1726.243
689.1506, 1743.841
689.6328, 1754.111
690.1149, 1744.909
690.5970, 1727.939
691.0791, 1720.685
691.5612, 1721.652
692.0433, 1723.356
692.5255, 1720.570
693.0076, 1718.168
693.4897, 1719.893
693.9718, 1726.447
694.4539, 1731.676
694.9360, 1733.687
695.4182, 1735.146
695.9003, 1737.919
696.3824, 1743.103
696.8645, 1744.119
697.3466, 1739.692
697.8287, 1734.445
698.3109, 1734.220
698.7930, 1737.889
699.2751, 1739.735
699.7572, 1738.981
700.2393, 1735.397
700.7214, 1723.878
701.2036, 1710.362
701.6857, 1704.907
702.1678, 1719.657
702.6499, 1733.069
703.1320, 1734.621
703.6141, 1728.988
704.0963, 1728.169
704.5784, 1737.600
705.0605, 1744.607
705.5426, 1746.425
706.0247, 1743.757
706.5068, 1738.611
706.9890, 1730.381
707.4711, 1724.468
707.9532, 1723.599
708.4353, 1727.140
708.9174, 1736.332
709.3995, 1750.286
709.8817, 1759.803
710.3638, 1752.182
710.8459, 1741.384
711.3280, 1742.525
711.8101, 1759.342
712.2922, 1767.922
712.7744, 1750.730
713.2565, 1731.061
713.7386, 1725.296
714.2207, 1741.837
714.7028, 1749.946
715.1849, 1746.749
715.6671, 1740.240
716.1492, 1739.257
716.6313, 1743.411
717.1134, 1748.311
717.5955, 1753.533
718.0776, 1758.131
718.5598, 1763.633
719.0419, 1767.245
719.5240, 1763.178
720.0061, 1739.105
720.4882, 1719.408
720.9703, 1718.276
721.4525, 1729.379
721.9346, 1738.269
722.4167, 1740.212
722.8988, 1744.037
723.3809, 1754.924
723.8630, 1768.568
724.3452, 1762.961
724.8273, 1734.169
725.3094, 1714.668
725.7915, 1725.753
726.2736, 1755.020
726.7557, 1772.013
727.2379, 1777.483
727.7200, 1777.356
728.2021, 1770.663
728.6842, 1763.424
729.1663, 1761.980
729.6484, 1767.090
730.1306, 1768.702
730.6127, 1760.172
731.0948, 1750.438
731.5769, 1743.941
732.0590, 1740.478
732.5411, 1741.283
733.0233, 1747.247
733.5054, 1755.485
733.9875, 1766.021
734.4696, 1777.627
734.9517, 1778.679
735.4338, 1766.188
735.9160, 1753.580
736.3981, 1757.039
736.8802, 1768.394
737.3623, 1775.484
737.8444, 1773.391
738.3266, 1769.899
738.8087, 1766.888
739.2908, 1764.602
739.7729, 1763.357
740.2551, 1762.271
740.7372, 1764.024
741.2193, 1770.536
741.7014, 1778.697
742.1835, 1781.034
742.6656, 1777.460
743.1478, 1775.207
743.6299, 1776.755
744.1120, 1780.662
744.5941, 1788.210
745.0762, 1796.700
745.5583, 1797.977
746.0405, 1778.598
746.5226, 1759.610
747.0047, 1755.594
747.4868, 1763.593
747.9689, 1765.025
748.4510, 1747.159
748.9332, 1736.191
749.4153, 1742.734
749.8974, 1764.900
750.3795, 1782.133
750.8616, 1794.855
751.3438, 1799.271
751.8259, 1786.347
752.3080, 1764.669
752.7901, 1753.871
753.2722, 1754.289
753.7543, 1761.208
754.2365, 1779.804
754.7186, 1797.865
755.2007, 1802.401
755.6828, 1788.231
756.1649, 1783.912
756.6470, 1808.591
757.1292, 1831.693
757.6113, 1833.010
758.0934, 1805.830
758.5755, 1786.854
759.0576, 1776.562
759.5397, 1772.380
760.0219, 1773.487
760.5040, 1778.514
760.9861, 1783.083
761.4682, 1786.341
761.9503, 1789.823
762.4324, 1797.627
762.9146, 1805.131
763.3967, 1806.406
763.8788, 1792.275
764.3609, 1784.549
764.8430, 1793.143
765.3251, 1806.328
765.8073, 1809.942
766.2894, 1800.289
766.7715, 1796.344
767.2536, 1802.598
767.7357, 1812.087
768.2178, 1811.715
768.7000, 1803.953
769.1821, 1799.254
769.6642, 1802.102
770.1463, 1807.360
770.6284, 1810.825
771.1105, 1813.480
771.5927, 1817.225
772.0748, 1827.976
772.5569, 1833.534
773.0390, 1827.890
773.5211, 1815.768
774.0032, 1809.057
774.4854, 1808.869
774.9675, 1810.266
775.4496, 1813.066
775.9317, 1815.377
776.4138, 1809.344
776.8959, 1797.160
777.3781, 1790.428
777.8602, 1801.828
778.3423, 1815.966
778.8244, 1818.434
779.3065, 1811.950
779.7886, 1808.633
780.2708, 1821.900
780.7529, 1828.180
781.2350, 1815.311
781.7171, 1786.603
782.1992, 1774.485
782.6813, 1782.286
783.1635, 1793.902
783.6456, 1802.427
784.1277, 1808.260
784.6098, 1813.752
785.0919, 1818.547
785.5740, 1819.522
786.0562, 1808.135
786.5383, 1796.825
787.0204, 1799.475
787.5025, 1816.676
787.9846, 1826.133
788.4667, 1813.848
788.9489, 1800.961
789.4310, 1796.241
789.9131, 1800.150
790.3952, 1804.201
790.8773, 1808.227
791.3594, 1813.016
791.8416, 1819.643
792.3237, 1827.380
792.8058, 1834.779
793.2879, 1841.795
793.7700, 1846.930
794.2521, 1848.728
794.7343, 1848.519
795.2164, 1847.818
795.6985, 1847.554
796.1806, 1842.655
796.6627, 1825.353
797.1448, 1811.334
797.6270, 1813.939
798.1091, 1836.953
798.5912, 1843.730
799.0733, 1831.633
799.5554, 1816.505
800.0375, 1814.797
800.5197, 1820.814
801.0018, 1823.538
801.4839, 1821.120
801.9660, 1818.408
802.4481, 1814.321
802.9302, 1813.712
803.4124, 1821.862
803.8945, 1847.839
804.3766, 1863.711
804.8587, 1867.632
805.3408, 1863.852
805.8229, 1852.873
806.3051, 1834.795
806.7872, 1826.902
807.2693, 1831.788
807.7514, 1839.946
808.2335, 1842.614
808.7156, 1841.785
809.1978, 1839.933
809.6799, 1836.676
810.1620, 1835.465
810.6441, 1839.115
811.1262, 1844.747
811.6083, 1850.048
812.0905, 1858.520
812.5726, 1856.682
813.0547, 1838.882
813.5368, 1821.198
814.0189, 1828.236
814.5010, 1854.493
814.9832, 1865.432
815.4653, 1852.783
815.9474, 1837.483
816.4295, 1839.211
816.9116, 1849.480
817.3937, 1857.936
817.8759, 1861.757
818.3580, 1864.126
818.8401, 1863.618
819.3222, 1863.258
819.8043, 1867.771
820.2864, 1880.646
820.7686, 1880.057
821.2507, 1860.678
821.7328, 1837.824
822.2149, 1832.864
822.6970, 1840.176
823.1791, 1844.679
823.6613, 1840.927
824.1434, 1840.804
824.6255, 1859.987
825.1076, 1883.564
825.5897, 1894.660
826.0718, 1881.007
826.5540, 1866.914
827.0361, 1848.209
827.5182, 1833.796
828.0003, 1837.941
828.4824, 1860.316
828.9645, 1874.616
829.4467, 1875.875
829.9288, 1872.700
830.4109, 1873.496
830.8930, 1876.786
831.3751, 1880.474
831.8572, 1884.430
832.3394, 1887.723
832.8215, 1889.391
833.3036, 1890.599
833.7857, 1893.082
834.2678, 1898.679
834.7499, 1899.741
835.2321, 1894.845
835.7142, 1887.547
836.1963, 1883.001
836.6784, 1879.910
837.1605, 1871.748
837.6426, 1855.122
838.1248, 1843.557
838.6069, 1852.910
839.0890, 1870.547
839.5711, 1882.235
840.0532, 1880.140
840.5353, 1881.411
841.0175, 1891.342
841.4996, 1900.637
841.9817, 1897.674
842.4638, 1881.728
842.9459, 1871.939
843.4280, 1870.420
843.9102, 1873.545
844.3923, 1880.743
844.8744, 1888.818
845.3565, 1891.759
845.8386, 1886.710
846.3207, 1882.955
846.8029, 1886.619
847.2850, 1891.684
847.7671, 1892.272
848.2492, 1884.097
848.7313, 1883.855
849.2134, 1893.995
849.6956, 1905.834
850.1777, 1910.849
850.6598, 1910.389
851.1419, 1910.250
851.6240, 1911.623
852.1061, 1907.792
852.5883, 1883.233
853.0704, 1857.452
853.5525, 1850.598
854.0346, 1875.612
854.5167, 1887.959
854.9988, 1876.541
855.4810, 1863.252
855.9631, 1865.019
856.4452, 1882.163
856.9273, 1895.066
857.4094, 1903.233
857.8915, 1907.252
858.3737, 1904.628
858.8558, 1899.581
859.3379, 1897.104
859.8200, 1897.823
860.3021, 1900.928
860.7842, 1912.256
861.2664, 1920.272
861.7485, 1916.628
862.2306, 1899.216
862.7127, 1892.121
863.1948, 1896.849
863.6769, 1905.030
864.1591, 1911.656
864.6412, 1917.116
865.1233, 1924.911
865.6054, 1934.450
866.0875, 1936.412
866.5696, 1914.679
867.0518, 1892.455
867.5339, 1884.874
868.0160, 1893.769
868.4981, 1905.340
868.9802, 1924.387
869.4623, 1935.642
869.9445, 1927.865
870.4266, 1906.571
870.9087, 1898.387
871.3908, 1902.158
871.8729, 1906.584
872.3550, 1902.256
872.8372, 1897.675
873.3193, 1900.550
873.8014, 1909.953
874.2835, 1919.492
874.7656, 1930.157
875.2477, 1937.769
875.7299, 1940.762
876.2120, 1939.981
876.6941, 1938.949
877.1762, 1937.676
877.6583, 1934.142
878.1404, 1924.409
878.6226, 1915.193
879.1047, 1915.685
879.5869, 1923.891
880.0690, 1934.666
880.5511, 1958.774
881.0332, 1970.276
881.5153, 1952.398
881.9974, 1920.066
882.4796, 1902.666
882.9617, 1902.076
883.4438, 1906.546
883.9259, 1914.742
884.4080, 1923.789
884.8901, 1929.813
885.3723, 1933.029
885.8544, 1933.383
886.3365, 1926.169
886.8186, 1923.796
887.3007, 1939.120
887.7828, 1959.423
888.2650, 1966.847
888.7471, 1957.347
889.2292, 1943.563
889.7113, 1923.156
890.1934, 1906.271
890.6755, 1910.201
891.1577, 1928.474
891.6398, 1940.761
892.1219, 1942.521
892.6040, 1941.451
893.0861, 1942.164
893.5682, 1942.958
894.0504, 1941.631
894.5325, 1934.686
895.0146, 1935.484
895.4967, 1949.862
895.9788, 1961.209
896.4609, 1948.872
896.9431, 1918.795
897.4252, 1912.432
897.9073, 1932.246
898.3894, 1951.060
898.8715, 1944.783
899.3536, 1931.291
899.8358, 1924.295
900.3179, 1925.294
900.8000, 1933.754
901.2821, 1959.383
901.7642, 1977.312
902.2463, 1972.642
902.7285, 1949.483
903.2106, 1939.585
903.6927, 1942.553
904.1748, 1946.419
904.6569, 1942.460
905.1390, 1936.883
905.6212, 1935.398
906.1033, 1937.742
906.5854, 1942.076
907.0675, 1952.654
907.5496, 1959.241
908.0317, 1958.216
908.5139, 1952.072
908.9960, 1947.956
909.4781, 1945.895
909.9602, 1944.649
910.4423, 1942.101
910.9244, 1942.902
911.4066, 1958.855
911.8887, 1981.076
912.3708, 1993.386
912.8529, 1980.819
913.3350, 1969.630
913.8171, 1964.076
914.2993, 1962.524
914.7814, 1963.677
915.2635, 1967.790
915.7456, 1971.336
916.2277, 1973.894
916.7098, 1975.470
917.1920, 1974.959
917.6741, 1973.880
918.1562, 1974.939
918.6383, 1979.737
919.1204, 1982.785
919.6025, 1981.145
920.0847, 1978.194
920.5668, 1976.371
921.0489, 1976.111
921.5310, 1971.938
922.0131, 1962.802
922.4952, 1958.406
922.9774, 1972.405
923.4595, 1993.334
923.9416, 2003.890
924.4237, 2003.477
924.9058, 2001.069
925.3879, 2002.611
925.8701, 2000.149
926.3522, 1987.930
926.8343, 1967.998
927.3164, 1958.030
927.7985, 1958.835
928.2806, 1961.579
928.7628, 1962.027
929.2449, 1962.241
929.7270, 1965.574
930.2091, 1971.352
930.6912, 1977.854
931.1733, 1985.158
931.6555, 1992.138
932.1376, 2000.353
932.6197, 2007.163
933.1018, 2006.737
933.5839, 1997.732
934.0660, 1991.581
934.5482, 1990.475
935.0303, 1992.300
935.5124, 1998.986
935.9945, 2005.341
936.4766, 2000.431
936.9587, 1975.072
937.4409, 1956.892
937.9230, 1958.346
938.4051, 1967.794
938.8872, 1977.016
939.3693, 1986.210
939.8514, 1996.000
940.3336, 2007.195
940.8157, 2012.320
941.2978, 1999.838
941.7799, 1979.988
942.2620, 1966.303
942.7441, 1959.761
943.2263, 1958.717
943.7084, 1964.278
944.1905, 1974.091
944.6726, 1989.856
945.1547, 2009.345
945.6368, 2017.122
946.1190, 2012.609
946.6011, 2007.336
947.0832, 2008.251
947.5653, 2009.205
948.0474, 1998.823
948.5295, 1982.166
949.0117, 1971.003
949.4938, 1971.661
949.9759, 1975.777
950.4580, 1984.325
950.9401, 1993.334
951.4222, 1994.950
951.9044, 1988.953
952.3865, 1990.966
952.8686, 2005.703
953.3507, 2018.126
953.8328, 2002.902
954.3149, 1980.243
954.7971, 1979.299
955.2792, 2015.091
955.7613, 2035.355
956.2434, 2022.739
956.7255, 2004.182
957.2076, 1993.778
957.6898, 1991.514
958.1719, 2000.688
958.6540, 2021.124
959.1361, 2035.922
959.6182, 2026.263
960.1003, 2011.444
960.5825, 2010.837
961.0646, 2022.197
961.5467, 2028.541
962.0288, 2025.457
962.5109, 2018.481
962.9930, 2006.250
963.4752, 1993.250
963.9573, 1990.982
964.4394, 1998.622
964.9215, 2012.730
965.4036, 2038.948
965.8857, 2057.483
966.3679, 2042.651
966.8500, 2014.746
967.3321, 2000.672
967.8142, 2015.909
968.2963, 2023.525
968.7784, 2021.089
969.2606, 2015.516
969.7427, 2012.350
970.2248, 2011.849
970.7069, 2015.518
971.1890, 2023.410
971.6711, 2032.772
972.1533, 2046.569
972.6354, 2057.163
973.1175, 2055.972
973.5996, 2043.409
974.0817, 2041.512
974.5638, 2053.857
975.0460, 2064.177
975.5281, 2065.328
976.0102, 2060.621
976.4923, 2053.141
976.9744, 2045.546
977.4565, 2045.640
977.9387, 2065.568
978.4208, 2083.531
978.9029, 2091.625
979.3850, 2093.415
979.8671, 2092.898
980.3492, 2089.473
980.8314, 2087.190
981.3135, 2086.451
981.7956, 2087.075
982.2777, 2092.894
982.7598, 2098.123
983.2419, 2091.220
983.7241, 2068.077
984.2062, 2053.930
984.6883, 2064.975
985.1704, 2078.187
985.6525, 2084.162
986.1346, 2083.338
986.6168, 2078.511
987.0989, 2069.895
987.5810, 2064.208
988.0631, 2069.786
988.5452, 2076.305
989.0273, 2072.871
989.5095, 2062.664
989.9916, 2053.805
990.4737, 2046.445
990.9558, 2042.907
991.4379, 2043.955
991.9200, 2048.291
992.4022, 2055.611
992.8843, 2064.739
993.3664, 2070.839
993.8485, 2072.861
994.3306, 2072.465
994.8127, 2070.228
995.2949, 2066.430
995.7770, 2059.774
996.2591, 2048.791
996.7412, 2047.081
997.2233, 2056.777
997.7054, 2068.050
998.1876, 2078.163
998.6697, 2084.347
999.1518, 2077.434
999.6339, 2060.452
1000.116, 2045.511
1000.598, 2030.747
1001.080, 2027.567
1001.562, 2049.827
1002.044, 2081.378
1002.527, 2092.042
1003.009, 2080.113
1003.491, 2070.591
1003.973, 2068.151
1004.455, 2068.936
1004.937, 2068.859
1005.419, 2069.486
1005.901, 2073.376
1006.384, 2082.180
1006.866, 2089.202
1007.348, 2095.674
1007.830, 2097.248
1008.312, 2089.184
1008.794, 2073.823
1009.276, 2063.309
1009.758, 2057.900
1010.240, 2059.124
1010.723, 2074.102
1011.205, 2089.845
1011.687, 2100.390
1012.169, 2104.992
1012.651, 2102.066
1013.133, 2087.789
1013.615, 2077.687
1014.097, 2074.604
1014.580, 2074.946
1015.062, 2073.576
1015.544, 2072.073
1016.026, 2073.909
1016.508, 2080.249
1016.990, 2086.741
1017.472, 2092.369
1017.954, 2097.010
1018.436, 2101.880
1018.919, 2106.590
1019.401, 2099.887
1019.883, 2081.727
1020.365, 2068.543
1020.847, 2076.353
1021.329, 2088.221
1021.811, 2085.199
1022.293, 2073.110
1022.776, 2066.456
1023.258, 2074.467
1023.740, 2076.234
1024.222, 2065.747
1024.704, 2055.064
1025.186, 2066.453
1025.668, 2091.806
1026.150, 2099.649
1026.632, 2084.093
1027.115, 2072.983
1027.597, 2092.252
1028.079, 2114.000
1028.561, 2117.946
1029.043, 2104.869
1029.525, 2093.523
1030.007, 2083.192
1030.489, 2082.588
1030.972, 2102.342
1031.454, 2126.633
1031.936, 2134.282
1032.418, 2129.514
1032.900, 2121.361
1033.382, 2105.301
1033.864, 2097.209
1034.346, 2103.577
1034.828, 2111.493
1035.311, 2101.773
1035.793, 2078.725
1036.275, 2073.468
1036.757, 2088.531
1037.239, 2106.926
1037.721, 2123.131
1038.203, 2132.776
1038.685, 2128.316
1039.167, 2111.934
1039.650, 2105.495
1040.132, 2111.544
1040.614, 2116.464
1041.096, 2114.771
1041.578, 2111.052
1042.060, 2114.122
1042.542, 2120.186
1043.024, 2121.564
1043.507, 2110.467
1043.989, 2105.961
1044.471, 2116.733
1044.953, 2128.891
1045.435, 2129.196
1045.917, 2119.220
1046.399, 2123.435
1046.881, 2141.408
1047.364, 2155.324
1047.846, 2150.402
1048.328, 2139.829
1048.810, 2128.398
1049.292, 2118.771
1049.774, 2120.629
1050.256, 2139.706
1050.738, 2148.524
1051.220, 2138.436
1051.703, 2124.644
1052.185, 2133.034
1052.667, 2151.677
1053.149, 2159.153
1053.631, 2148.286
1054.113, 2140.550
1054.595, 2145.545
1055.077, 2150.268
1055.559, 2145.040
1056.042, 2133.266
1056.524, 2144.763
1057.006, 2175.788
1057.488, 2195.730
1057.970, 2177.893
1058.452, 2154.063
1058.934, 2140.508
1059.416, 2135.781
1059.899, 2137.226
1060.381, 2147.211
1060.863, 2154.795
1061.345, 2159.803
1061.827, 2159.317
1062.309, 2141.907
1062.791, 2121.253
1063.273, 2119.186
1063.755, 2137.230
1064.238, 2158.746
1064.720, 2191.414
1065.202, 2210.367
1065.684, 2204.328
1066.166, 2182.231
1066.648, 2164.600
1067.130, 2152.707
1067.612, 2152.584
1068.094, 2171.791
1068.577, 2189.690
1069.059, 2194.554
1069.541, 2191.543
1070.023, 2184.939
1070.505, 2173.272
1070.987, 2168.056
1071.469, 2169.673
1071.951, 2173.282
1072.434, 2176.342
1072.916, 2178.966
1073.398, 2181.873
1073.880, 2184.556
1074.362, 2185.288
1074.844, 2184.160
1075.326, 2179.840
1075.808, 2170.563
1076.291, 2160.774
1076.773, 2155.224
1077.255, 2154.314
1077.737, 2161.872
1078.219, 2178.956
1078.701, 2191.644
1079.183, 2187.330
1079.665, 2182.142
1080.147, 2184.409
1080.630, 2192.879
1081.112, 2202.171
1081.594, 2212.041
1082.076, 2214.074
1082.558, 2200.710
1083.040, 2186.772
1083.522, 2187.308
1084.004, 2194.523
1084.486, 2197.790
1084.969, 2193.869
1085.451, 2192.012
1085.933, 2192.281
1086.415, 2194.432
1086.897, 2202.100
1087.379, 2209.618
1087.861, 2202.498
1088.343, 2185.055
1088.826, 2176.176
1089.308, 2195.278
1089.790, 2205.841
1090.272, 2196.005
1090.754, 2181.355
1091.236, 2191.824
1091.718, 2220.113
1092.200, 2230.315
1092.682, 2215.922
1093.165, 2200.094
1093.647, 2195.060
1094.129, 2195.423
1094.611, 2198.151
1095.093, 2203.028
1095.575, 2211.956
1096.057, 2225.365
1096.539, 2231.386
1097.022, 2222.486
1097.504, 2210.518
1097.986, 2206.509
1098.468, 2207.539
1098.950, 2209.844
1099.432, 2213.246
1099.914, 2217.663
1100.396, 2224.540
1100.879, 2227.549
1101.361, 2219.662
1101.843, 2205.853
1102.325, 2192.490
1102.807, 2181.196
1103.289, 2177.731
1103.771, 2188.883
1104.253, 2202.849
1104.735, 2221.636
1105.218, 2237.172
1105.700, 2233.260
1106.182, 2215.163
1106.664, 2209.635
1107.146, 2219.736
1107.628, 2230.466
1108.110, 2236.101
1108.592, 2236.128
1109.074, 2225.843
1109.557, 2209.974
1110.039, 2209.874
1110.521, 2225.792
1111.003, 2238.694
1111.485, 2244.070
1111.967, 2241.264
1112.449, 2217.798
1112.931, 2192.624
1113.414, 2188.923
1113.896, 2214.332
1114.378, 2233.170
1114.860, 2245.584
1115.342, 2250.598
1115.824, 2244.340
1116.306, 2233.155
1116.788, 2224.348
1117.271, 2218.896
1117.753, 2218.912
1118.235, 2230.836
1118.717, 2240.757
1119.199, 2250.490
1119.681, 2253.175
1120.163, 2232.715
1120.645, 2201.116
1121.127, 2200.567
1121.609, 2228.817
1122.092, 2247.477
1122.574, 2221.999
1123.056, 2202.639
1123.538, 2209.772
1124.020, 2229.646
1124.502, 2233.278
1124.984, 2223.081
1125.466, 2220.723
1125.949, 2231.000
1126.431, 2241.351
1126.913, 2242.287
1127.395, 2240.610
1127.877, 2240.161
1128.359, 2241.276
1128.841, 2248.130
1129.323, 2261.345
1129.806, 2269.017
1130.288, 2265.458
1130.770, 2257.628
1131.252, 2246.772
1131.734, 2238.659
1132.216, 2242.636
1132.698, 2264.845
1133.180, 2279.634
1133.662, 2286.284
1134.145, 2288.063
1134.627, 2280.930
1135.109, 2274.329
1135.591, 2291.948
1136.073, 2321.858
1136.555, 2333.390
1137.037, 2297.573
1137.519, 2273.351
1138.001, 2266.895
1138.484, 2266.950
1138.966, 2260.437
1139.448, 2251.875
1139.930, 2254.772
1140.412, 2268.367
1140.894, 2278.953
1141.376, 2276.260
1141.858, 2276.417
1142.341, 2286.861
1142.823, 2299.034
1143.305, 2295.351
1143.787, 2279.168
1144.269, 2263.576
1144.751, 2250.022
1145.233, 2245.573
1145.715, 2262.417
1146.198, 2281.577
1146.680, 2294.127
1147.162, 2300.155
1147.644, 2296.448
1148.126, 2284.086
1148.608, 2277.992
1149.090, 2283.851
1149.572, 2294.450
1150.054, 2312.974
1150.536, 2327.328
1151.019, 2321.347
1151.501, 2291.952
1151.983, 2293.617
1152.465, 2328.071
1152.947, 2350.568
1153.429, 2324.825
1153.911, 2290.021
1154.393, 2282.003
1154.876, 2291.436
1155.358, 2303.853
1155.840, 2322.417
1156.322, 2328.039
1156.804, 2318.510
1157.286, 2306.268
1157.768, 2298.433
1158.250, 2295.673
1158.733, 2301.738
1159.215, 2313.982
1159.697, 2322.641
1160.179, 2325.499
1160.661, 2325.569
1161.143, 2321.327
1161.625, 2319.725
1162.107, 2335.940
1162.589, 2356.998
1163.072, 2357.903
1163.554, 2338.209
1164.036, 2322.813
1164.518, 2320.178
1165.000, 2318.258
1165.482, 2313.352
1165.964, 2309.262
1166.446, 2317.508
1166.928, 2330.888
1167.411, 2329.453
1167.893, 2305.818
1168.375, 2295.554
1168.857, 2326.083
1169.339, 2351.701
1169.821, 2350.952
1170.303, 2336.063
1170.785, 2349.604
1171.268, 2380.222
1171.750, 2387.995
1172.232, 2347.650
1172.714, 2316.293
1173.196, 2327.427
1173.678, 2344.601
1174.160, 2345.357
1174.642, 2333.058
1175.125, 2329.066
1175.607, 2332.561
1176.089, 2339.314
1176.571, 2351.796
1177.053, 2361.222
1177.535, 2362.845
1178.017, 2360.093
1178.499, 2356.003
1178.981, 2350.519
1179.464, 2338.663
1179.946, 2321.270
1180.428, 2312.279
1180.910, 2330.898
1181.392, 2348.813
1181.874, 2347.771
1182.356, 2338.051
1182.838, 2336.636
1183.320, 2344.023
1183.803, 2342.037
1184.285, 2328.898
1184.767, 2318.983
1185.249, 2323.610
1185.731, 2334.573
1186.213, 2349.520
1186.695, 2365.894
1187.177, 2378.849
1187.660, 2388.827
1188.142, 2385.885
1188.624, 2366.711
1189.106, 2348.487
1189.588, 2341.431
1190.070, 2345.696
1190.552, 2370.471
1191.034, 2409.795
1191.516, 2422.721
1191.999, 2406.426
1192.481, 2389.132
1192.963, 2375.996
1193.445, 2371.131
1193.927, 2391.872
1194.409, 2413.995
1194.891, 2406.608
1195.373, 2367.211
1195.855, 2351.757
1196.338, 2362.300
1196.820, 2379.668
1197.302, 2401.881
1197.784, 2416.202
1198.266, 2400.900
1198.748, 2373.404
1199.230, 2354.824
1199.712, 2347.742
1200.195, 2348.985
1200.677, 2359.544
1201.159, 2371.600
1201.641, 2381.385
1202.123, 2389.912
1202.605, 2401.651
1203.087, 2411.628
1203.569, 2410.124
1204.052, 2387.363
1204.534, 2383.422
1205.016, 2401.819
1205.498, 2417.783
1205.980, 2406.432
1206.462, 2389.825
1206.944, 2400.330
1207.426, 2424.265
1207.908, 2426.819
1208.391, 2388.573
1208.873, 2381.140
1209.355, 2412.949
1209.837, 2445.839
1210.319, 2444.383
1210.801, 2428.554
1211.283, 2418.219
1211.765, 2412.974
1212.247, 2408.996
1212.730, 2405.655
1213.212, 2404.190
1213.694, 2405.076
1214.176, 2406.227
1214.658, 2407.184
1215.140, 2406.163
1215.622, 2396.824
1216.104, 2382.302
1216.587, 2382.684
1217.069, 2405.200
1217.551, 2419.955
1218.033, 2421.314
1218.515, 2417.331
1218.997, 2413.629
1219.479, 2411.808
1219.961, 2415.769
1220.443, 2424.854
1220.926, 2426.297
1221.408, 2415.896
1221.890, 2414.250
1222.372, 2428.517
1222.854, 2444.715
1223.336, 2445.762
1223.818, 2439.579
1224.300, 2434.182
1224.782, 2430.604
1225.265, 2429.092
1225.747, 2429.431
1226.229, 2433.686
1226.711, 2444.646
1227.193, 2453.826
1227.675, 2448.399
1228.157, 2436.803
1228.639, 2428.104
1229.122, 2423.282
1229.604, 2425.135
1230.086, 2435.244
1230.568, 2441.124
1231.050, 2436.021
1231.532, 2428.757
1232.014, 2429.150
1232.496, 2433.516
1232.979, 2435.947
1233.461, 2434.609
1233.943, 2447.907
1234.425, 2478.051
1234.907, 2499.310
1235.389, 2496.230
1235.871, 2484.429
1236.353, 2474.499
1236.835, 2467.885
1237.318, 2467.441
1237.800, 2473.823
1238.282, 2479.244
1238.764, 2483.626
1239.246, 2487.953
1239.728, 2495.022
1240.210, 2499.265
1240.692, 2487.166
1241.175, 2474.287
1241.657, 2485.327
1242.139, 2528.295
1242.621, 2541.961
1243.103, 2526.221
1243.585, 2501.840
1244.067, 2474.717
1244.549, 2450.490
1245.031, 2426.375
1245.514, 2411.741
1245.996, 2420.637
1246.478, 2456.098
1246.960, 2479.929
1247.442, 2491.714
1247.924, 2495.520
1248.406, 2488.651
1248.888, 2480.234
1249.370, 2472.946
1249.853, 2468.644
1250.335, 2470.024
1250.817, 2476.919
1251.299, 2486.915
1251.781, 2499.467
1252.263, 2508.993
1252.745, 2508.857
1253.227, 2508.763
1253.710, 2516.526
1254.192, 2523.838
1254.674, 2515.515
1255.156, 2495.427
1255.638, 2497.273
1256.120, 2520.342
1256.602, 2532.413
1257.084, 2497.800
1257.567, 2472.382
1258.049, 2475.129
1258.531, 2493.279
1259.013, 2514.903
1259.495, 2536.860
1259.977, 2546.481
1260.459, 2543.554
1260.941, 2537.081
1261.423, 2524.704
1261.906, 2518.484
1262.388, 2522.273
1262.870, 2531.035
1263.352, 2542.526
1263.834, 2551.855
1264.316, 2540.743
1264.798, 2510.541
1265.280, 2496.838
1265.762, 2524.857
1266.245, 2546.607
1266.727, 2552.535
1267.209, 2551.979
1267.691, 2557.228
1268.173, 2564.974
1268.655, 2570.250
1269.137, 2572.611
1269.619, 2572.143
1270.102, 2567.834
1270.584, 2563.690
1271.066, 2559.729
1271.548, 2559.023
1272.030, 2569.385
1272.512, 2582.589
1272.994, 2589.477
1273.476, 2588.988
1273.958, 2583.252
1274.441, 2569.905
1274.923, 2565.326
1275.405, 2575.136
1275.887, 2585.402
1276.369, 2580.646
1276.851, 2570.088
1277.333, 2561.708
1277.815, 2555.683
1278.297, 2547.450
1278.780, 2536.463
1279.262, 2538.439
1279.744, 2559.094
1280.226, 2579.878
1280.708, 2590.035
1281.190, 2590.417
1281.672, 2576.159
1282.154, 2554.043
1282.637, 2549.986
1283.119, 2561.909
1283.601, 2569.861
1284.083, 2569.200
1284.565, 2567.739
1285.047, 2566.527
1285.529, 2570.436
1286.011, 2583.499
1286.494, 2601.453
1286.976, 2613.831
1287.458, 2620.367
1287.940, 2618.900
1288.422, 2608.231
1288.904, 2595.921
1289.386, 2577.768
1289.868, 2569.436
1290.350, 2581.116
1290.833, 2598.580
1291.315, 2587.152
1291.797, 2562.116
1292.279, 2555.767
1292.761, 2576.696
1293.243, 2591.250
1293.725, 2594.561
1294.207, 2593.541
1294.689, 2588.890
1295.172, 2584.719
1295.654, 2588.307
1296.136, 2595.359
1296.618, 2599.666
1297.100, 2600.043
1297.582, 2604.943
1298.064, 2615.431
1298.546, 2624.118
1299.029, 2629.020
1299.511, 2630.294
1299.993, 2626.229
1300.475, 2619.982
1300.957, 2612.936
1301.439, 2606.132
1301.921, 2607.562
1302.403, 2616.872
1302.885, 2623.464
1303.368, 2624.414
1303.850, 2622.267
1304.332, 2613.987
1304.814, 2608.406
1305.296, 2612.238
1305.778, 2621.896
1306.260, 2624.852
1306.742, 2622.302
##END=



