##NAMES=Sigloite
##RRUFFID=R050576
##IDEAL CHEMISTRY=Fe^3+^Al_2_(PO_4_)_2_(OH)_3_&#183;7H_2_O
##LOCALITY=Viloco, Bolivia
##OWNER=RRUFF
##SOURCE=University of Arizona Mineral Museum
##DESCRIPTION=Tan colored prismatic crystals
##STATUS=The identification of this mineral has been confirmed by X-ray diffraction.
##URL=rruff.info/R050576
92.35352, 328.4961
92.83563, 340.1468
93.31775, 344.3284
93.79987, 340.1915
94.28198, 327.5457
94.76410, 314.3874
95.24622, 301.8804
95.72833, 290.1521
96.21045, 279.3875
96.69257, 270.0389
97.17468, 259.7842
97.65680, 247.2617
98.13892, 234.3418
98.62103, 222.2072
99.10315, 210.9525
99.58527, 200.6351
100.0674, 192.6427
100.5495, 189.1596
101.0316, 185.3009
101.5137, 179.8472
101.9958, 173.5045
102.4780, 167.4042
102.9601, 162.3405
103.4422, 158.2990
103.9243, 154.7312
104.4064, 151.7889
104.8885, 148.9610
105.3707, 145.8334
105.8528, 142.4398
106.3349, 139.2626
106.8170, 136.7415
107.2991, 134.9389
107.7813, 133.6806
108.2634, 133.8370
108.7455, 134.2205
109.2276, 133.0868
109.7097, 129.7289
110.1918, 125.8487
110.6740, 123.3206
111.1561, 121.9744
111.6382, 121.0832
112.1203, 120.5229
112.6024, 120.2206
113.0845, 119.5721
113.5666, 118.1824
114.0488, 116.6031
114.5309, 115.1625
115.0130, 113.8964
115.4951, 112.7688
115.9772, 111.8308
116.4593, 111.3085
116.9415, 110.2932
117.4236, 108.1709
117.9057, 105.8666
118.3878, 103.9605
118.8699, 102.6903
119.3520, 101.9905
119.8342, 101.7157
120.3163, 102.3741
120.7984, 102.9065
121.2805, 103.1561
121.7626, 103.2520
122.2447, 103.3948
122.7269, 103.7161
123.2090, 104.1668
123.6911, 104.3055
124.1732, 104.0758
124.6553, 103.6849
125.1374, 103.1343
125.6196, 102.4606
126.1017, 101.7789
126.5838, 101.1357
127.0659, 100.5686
127.5480, 100.1887
128.0302, 100.3472
128.5123, 100.5033
128.9944, 100.0346
129.4765, 98.81105
129.9586, 97.50822
130.4407, 96.73485
130.9229, 96.27053
131.4050, 95.71394
131.8871, 94.85276
132.3692, 93.76840
132.8513, 92.72805
133.3334, 91.71066
133.8155, 90.78065
134.2977, 89.92673
134.7798, 89.16506
135.2619, 88.53699
135.7440, 88.14269
136.2261, 88.02134
136.7082, 87.73241
137.1904, 86.99001
137.6725, 86.30681
138.1546, 85.90699
138.6367, 85.78536
139.1188, 85.79848
139.6009, 85.78455
140.0831, 85.77026
140.5652, 85.64590
141.0473, 85.34898
141.5294, 85.00462
142.0115, 84.67892
142.4936, 84.39587
142.9758, 84.16976
143.4579, 84.04221
143.9400, 84.18980
144.4221, 84.11550
144.9042, 83.61774
145.3863, 82.93403
145.8685, 82.36465
146.3506, 82.02494
146.8327, 81.83512
147.3148, 81.62154
147.7969, 81.35181
148.2790, 81.14008
148.7612, 81.06452
149.2433, 81.09282
149.7254, 81.11147
150.2075, 81.06611
150.6896, 80.99402
151.1717, 80.94686
151.6539, 80.91360
152.1360, 80.93279
152.6181, 81.02934
153.1002, 81.20247
153.5823, 81.46519
154.0644, 82.05093
154.5466, 82.62414
155.0287, 82.86665
155.5108, 82.64613
155.9929, 82.19984
156.4750, 81.91762
156.9571, 81.82076
157.4393, 81.86184
157.9214, 82.07783
158.4035, 82.37852
158.8856, 82.70731
159.3677, 83.05104
159.8498, 83.35954
160.3320, 83.42931
160.8141, 82.83395
161.2962, 82.51091
161.7783, 82.76691
162.2604, 83.35001
162.7425, 83.91570
163.2247, 84.25455
163.7068, 84.38066
164.1889, 84.44575
164.6710, 84.19662
165.1531, 84.14922
165.6352, 84.61614
166.1174, 85.42483
166.5995, 86.14790
167.0816, 86.46864
167.5637, 86.38204
168.0458, 86.32629
168.5279, 86.22880
169.0101, 86.21641
169.4922, 86.45347
169.9743, 86.90463
170.4564, 87.27537
170.9385, 87.30024
171.4206, 86.99377
171.9028, 86.73820
172.3849, 86.42911
172.8670, 86.24668
173.3491, 86.50025
173.8312, 87.27672
174.3133, 87.97069
174.7955, 87.90419
175.2776, 87.35281
175.7597, 86.90482
176.2418, 86.77310
176.7239, 86.85538
177.2060, 86.99187
177.6882, 87.24966
178.1703, 87.40269
178.6524, 87.19187
179.1345, 86.77589
179.6166, 86.49044
180.0987, 86.62846
180.5809, 87.09402
181.0630, 87.28953
181.5451, 86.93150
182.0272, 86.63748
182.5093, 86.75669
182.9914, 87.15049
183.4736, 87.49306
183.9557, 87.49780
184.4378, 87.14970
184.9199, 86.91850
185.4020, 86.91718
185.8841, 86.94413
186.3663, 86.92776
186.8484, 86.88363
187.3305, 86.87963
187.8126, 86.99832
188.2947, 87.28603
188.7768, 87.41736
189.2590, 87.35545
189.7411, 87.19785
190.2232, 86.91734
190.7053, 86.55693
191.1874, 86.23764
191.6695, 86.09922
192.1517, 86.21183
192.6338, 86.22250
193.1159, 86.06102
193.5980, 85.86697
194.0801, 85.72855
194.5622, 85.65565
195.0444, 85.59756
195.5265, 85.49242
196.0086, 85.31497
196.4907, 85.20657
196.9728, 85.21654
197.4549, 85.26682
197.9371, 85.26147
198.4192, 85.18242
198.9013, 85.14317
199.3834, 85.32271
199.8655, 85.72580
200.3476, 86.01949
200.8298, 86.11759
201.3119, 86.08788
201.7940, 86.00544
202.2761, 85.87164
202.7582, 85.72412
203.2403, 85.55836
203.7225, 85.38823
204.2046, 85.33961
204.6867, 85.59778
205.1688, 86.00050
205.6509, 86.14162
206.1330, 85.86553
206.6152, 85.52950
207.0973, 85.46125
207.5794, 85.58456
208.0615, 85.65016
208.5436, 85.47581
209.0257, 85.11384
209.5079, 84.83244
209.9900, 84.75990
210.4721, 84.61021
210.9542, 84.12358
211.4363, 83.41600
211.9184, 82.82060
212.4006, 82.65196
212.8827, 82.88479
213.3648, 82.97312
213.8469, 82.81339
214.3290, 82.59889
214.8111, 82.38521
215.2933, 82.18051
215.7754, 81.98272
216.2575, 81.76032
216.7396, 81.50403
217.2217, 81.43389
217.7038, 81.80338
218.1859, 82.14298
218.6681, 82.35700
219.1502, 82.42441
219.6323, 82.33248
220.1144, 82.02965
220.5965, 81.47561
221.0786, 81.16641
221.5608, 81.28445
222.0429, 81.45795
222.5250, 81.61861
223.0071, 81.72798
223.4892, 81.72097
223.9713, 81.51033
224.4535, 81.04262
224.9356, 80.89159
225.4177, 81.27126
225.8998, 81.70065
226.3819, 81.95363
226.8640, 82.06148
227.3462, 82.19839
227.8283, 82.52481
228.3104, 83.06418
228.7925, 83.48264
229.2746, 83.63289
229.7567, 83.81654
230.2389, 84.22522
230.7210, 84.82529
231.2031, 85.42001
231.6852, 85.84645
232.1673, 86.10160
232.6494, 86.42770
233.1316, 86.82776
233.6137, 87.28525
234.0958, 87.87744
234.5779, 88.56301
235.0600, 89.10562
235.5421, 89.29115
236.0243, 89.15517
236.5064, 89.16644
236.9885, 89.38096
237.4706, 89.69103
237.9527, 90.02343
238.4348, 90.38148
238.9170, 90.82989
239.3991, 91.48900
239.8812, 92.25998
240.3633, 92.80061
240.8454, 92.93674
241.3275, 92.98933
241.8097, 93.21117
242.2918, 93.59820
242.7739, 94.01353
243.2560, 94.40861
243.7381, 94.77502
244.2202, 95.08294
244.7024, 95.24574
245.1845, 95.46514
245.6666, 96.01888
246.1487, 96.91637
246.6308, 97.67856
247.1129, 98.10411
247.5951, 98.24574
248.0772, 98.10835
248.5593, 97.58016
249.0414, 97.06048
249.5235, 97.02615
250.0056, 97.51884
250.4878, 97.92950
250.9699, 97.98106
251.4520, 97.88902
251.9341, 97.83482
252.4162, 97.85146
252.8983, 97.87021
253.3805, 97.84685
253.8626, 97.79121
254.3447, 97.60165
254.8268, 97.11398
255.3089, 96.56570
255.7910, 96.09538
256.2732, 95.72602
256.7553, 95.43651
257.2374, 95.25262
257.7195, 95.20629
258.2016, 95.03819
258.6837, 94.54255
259.1659, 94.02769
259.6480, 93.64552
260.1301, 93.41148
260.6122, 93.25106
261.0943, 93.12823
261.5764, 93.06922
262.0586, 92.87632
262.5407, 92.40070
263.0228, 91.88731
263.5049, 91.43403
263.9870, 91.04262
264.4691, 90.66977
264.9513, 90.26231
265.4334, 89.80515
265.9155, 89.41523
266.3976, 89.10551
266.8797, 88.85816
267.3618, 88.76437
267.8440, 88.74802
268.3261, 88.61131
268.8082, 88.13866
269.2903, 87.30925
269.7724, 86.70839
270.2545, 86.53059
270.7367, 86.41354
271.2188, 86.24086
271.7009, 86.05191
272.1830, 85.96647
272.6651, 86.09675
273.1472, 86.42013
273.6294, 86.54453
274.1115, 86.25142
274.5936, 85.96504
275.0757, 85.76495
275.5578, 85.63181
276.0399, 85.54420
276.5221, 85.50101
277.0042, 85.46888
277.4863, 85.25237
277.9684, 84.61497
278.4505, 84.03436
278.9326, 83.68385
279.4148, 83.38846
279.8969, 82.89054
280.3790, 82.05486
280.8611, 80.98936
281.3432, 80.04284
281.8253, 79.38158
282.3075, 78.63885
282.7896, 77.75472
283.2717, 76.79716
283.7538, 75.78011
284.2359, 74.71891
284.7180, 73.72720
285.2002, 73.06473
285.6823, 73.10728
286.1644, 72.97713
286.6465, 72.53008
287.1286, 71.99806
287.6107, 71.59914
288.0929, 71.38601
288.5750, 71.24482
289.0571, 71.01049
289.5392, 70.68914
290.0213, 70.23412
290.5034, 69.40009
290.9856, 68.61299
291.4677, 68.29307
291.9498, 68.44104
292.4319, 68.63380
292.9140, 68.36327
293.3961, 67.45176
293.8783, 66.85310
294.3604, 66.81474
294.8425, 66.83743
295.3246, 66.62073
295.8067, 66.17503
296.2888, 65.70110
296.7710, 65.37613
297.2531, 65.21277
297.7352, 64.96284
298.2173, 64.51474
298.6994, 64.10690
299.1815, 63.92922
299.6637, 63.88969
300.1458, 63.72817
300.6279, 63.26101
301.1100, 62.52760
301.5921, 61.83393
302.0742, 61.15201
302.5564, 60.53447
303.0385, 60.01307
303.5206, 59.56565
304.0027, 59.15858
304.4848, 58.78273
304.9669, 58.41883
305.4491, 58.00288
305.9312, 57.49289
306.4133, 56.99015
306.8954, 56.48219
307.3775, 55.99765
307.8596, 55.58831
308.3418, 55.27351
308.8239, 54.99752
309.3060, 54.66726
309.7881, 54.26818
310.2702, 53.83620
310.7523, 53.29103
311.2345, 52.75657
311.7166, 52.37734
312.1987, 52.17518
312.6808, 52.02897
313.1629, 51.81453
313.6451, 51.53764
314.1272, 51.11238
314.6093, 50.30289
315.0914, 49.53509
315.5735, 49.13012
316.0556, 49.07638
316.5378, 49.12886
317.0199, 49.10183
317.5020, 48.99145
317.9841, 48.82150
318.4662, 48.57390
318.9483, 48.29602
319.4305, 47.94572
319.9126, 47.57457
320.3947, 47.32946
320.8768, 47.32164
321.3589, 47.48580
321.8410, 47.47202
322.3232, 47.20017
322.8053, 46.88089
323.2874, 46.47383
323.7695, 46.06940
324.2516, 45.83650
324.7337, 45.85428
325.2159, 46.00085
325.6980, 46.00366
326.1801, 45.74531
326.6622, 45.54691
327.1443, 45.49425
327.6264, 45.47971
328.1086, 45.38522
328.5907, 45.18423
329.0728, 44.94573
329.5549, 44.76406
330.0370, 44.67955
330.5191, 44.50969
331.0013, 44.10296
331.4834, 43.73014
331.9655, 43.66709
332.4476, 43.87113
332.9297, 44.00334
333.4118, 43.74381
333.8940, 43.06402
334.3761, 42.58516
334.8582, 42.40651
335.3403, 42.28180
335.8224, 42.10288
336.3045, 41.89923
336.7867, 41.77238
337.2688, 41.79845
337.7509, 41.91908
338.2330, 41.84835
338.7151, 41.31619
339.1972, 40.92949
339.6793, 40.90584
340.1614, 41.03331
340.6436, 41.04276
341.1257, 40.83305
341.6078, 40.48365
342.0899, 40.13958
342.5720, 39.74638
343.0541, 39.46597
343.5363, 39.34818
344.0184, 39.30347
344.5005, 39.31133
344.9826, 39.34307
345.4647, 39.30275
345.9468, 39.06749
346.4290, 38.57269
346.9111, 38.18574
347.3932, 37.84395
347.8753, 37.64342
348.3574, 37.72770
348.8395, 38.00348
349.3217, 38.23333
349.8038, 38.23884
350.2859, 38.04216
350.7680, 37.88871
351.2501, 37.80149
351.7322, 37.73192
352.2144, 37.70562
352.6965, 37.68252
353.1786, 37.60619
353.6607, 37.45118
354.1428, 37.24788
354.6249, 37.05810
355.1071, 36.81509
355.5892, 36.70893
356.0713, 36.84635
356.5534, 37.04327
357.0355, 37.16228
357.5176, 37.17649
357.9998, 37.14392
358.4819, 37.14082
358.9640, 37.19057
359.4461, 37.17110
359.9282, 37.07438
360.4103, 36.92042
360.8925, 36.64982
361.3746, 36.32111
361.8567, 36.07330
362.3388, 36.01730
362.8209, 36.13247
363.3030, 36.23437
363.7852, 36.38267
364.2673, 36.43055
364.7494, 36.24847
365.2315, 35.98696
365.7136, 35.84377
366.1957, 35.90766
366.6779, 36.07637
367.1600, 36.14899
367.6421, 36.11373
368.1242, 36.00563
368.6063, 35.69958
369.0884, 35.41864
369.5706, 35.34466
370.0527, 35.48832
370.5348, 35.69395
371.0169, 35.79564
371.4990, 35.78252
371.9811, 35.81359
372.4633, 35.92847
372.9454, 36.05311
373.4275, 36.18160
373.9096, 36.29478
374.3917, 36.34527
374.8738, 36.25543
375.3560, 36.10503
375.8381, 36.16064
376.3202, 36.50322
376.8023, 36.86671
377.2844, 37.21993
377.7665, 37.50590
378.2487, 37.62664
378.7308, 37.52831
379.2129, 37.38028
379.6950, 37.38359
380.1771, 37.54336
380.6592, 37.73173
381.1414, 37.94071
381.6235, 38.14903
382.1056, 38.34652
382.5877, 38.53188
383.0698, 38.68921
383.5519, 38.78444
384.0341, 38.84412
384.5162, 38.95947
384.9983, 39.16040
385.4804, 39.36129
385.9625, 39.42814
386.4446, 39.44541
386.9268, 39.60933
387.4089, 40.09706
387.8910, 40.65606
388.3731, 40.98387
388.8552, 41.08868
389.3373, 41.21737
389.8195, 41.50269
390.3016, 41.86840
390.7837, 42.14996
391.2658, 42.30426
391.7479, 42.49978
392.2300, 42.86518
392.7122, 43.32523
393.1943, 43.72382
393.6764, 44.02574
394.1585, 44.24916
394.6406, 44.39378
395.1227, 44.45714
395.6049, 44.54129
396.0870, 44.63690
396.5691, 44.77324
397.0512, 45.02035
397.5333, 45.35923
398.0154, 45.63508
398.4976, 45.72780
398.9797, 45.67316
399.4618, 45.70291
399.9439, 45.86105
400.4260, 46.03666
400.9081, 46.22698
401.3903, 46.40683
401.8724, 46.50929
402.3545, 46.50812
402.8366, 46.49859
403.3187, 46.65310
403.8008, 47.11799
404.2830, 47.41841
404.7651, 47.44484
405.2472, 47.39804
405.7293, 47.35969
406.2114, 47.36901
406.6935, 47.49678
407.1757, 47.82086
407.6578, 48.33283
408.1399, 48.75413
408.6220, 49.00993
409.1041, 49.25788
409.5862, 49.47834
410.0684, 49.72683
410.5505, 50.08783
411.0326, 50.59513
411.5147, 51.18871
411.9968, 51.76963
412.4789, 52.38785
412.9611, 52.86829
413.4432, 52.95879
413.9253, 53.12316
414.4074, 53.73618
414.8895, 54.74269
415.3716, 55.74152
415.8538, 56.32595
416.3359, 56.53515
416.8180, 57.05384
417.3001, 58.12259
417.7822, 59.16984
418.2643, 60.04856
418.7465, 60.77378
419.2286, 61.31849
419.7107, 61.62723
420.1928, 61.92823
420.6749, 62.64325
421.1570, 63.84931
421.6392, 64.90237
422.1213, 65.46366
422.6034, 65.96553
423.0855, 66.80088
423.5676, 67.96022
424.0497, 69.02727
424.5319, 69.61446
425.0140, 69.91753
425.4961, 70.49719
425.9782, 71.43966
426.4603, 72.47352
426.9424, 73.44608
427.4246, 74.36423
427.9067, 75.24137
428.3888, 76.13132
428.8709, 76.90852
429.3530, 77.38771
429.8351, 77.63412
430.3173, 77.95361
430.7994, 78.46180
431.2815, 79.07765
431.7636, 79.71844
432.2457, 80.41666
432.7278, 80.94587
433.2100, 81.12537
433.6921, 81.18346
434.1742, 81.34429
434.6563, 81.63400
435.1384, 82.01135
435.6205, 82.49426
436.1027, 83.05559
436.5848, 83.26809
437.0669, 82.88777
437.5490, 82.50334
438.0311, 82.38300
438.5132, 82.35545
438.9954, 82.13376
439.4775, 81.61268
439.9596, 80.93096
440.4417, 80.34020
440.9238, 79.94524
441.4059, 79.38701
441.8881, 78.63684
442.3702, 77.77238
442.8523, 76.81348
443.3344, 75.78106
443.8165, 74.67461
444.2986, 73.47048
444.7808, 72.21777
445.2629, 71.28029
445.7450, 71.12170
446.2271, 70.55930
446.7092, 69.13893
447.1913, 67.38663
447.6735, 65.73991
448.1556, 64.33384
448.6377, 63.15022
449.1198, 62.25321
449.6019, 61.67165
450.0840, 60.88876
450.5662, 59.67953
451.0483, 58.48175
451.5304, 57.53282
452.0125, 56.78034
452.4946, 56.08317
452.9767, 55.39172
453.4589, 54.70600
453.9410, 54.04520
454.4231, 53.41938
454.9052, 52.69975
455.3873, 51.69931
455.8694, 50.69230
456.3516, 50.10275
456.8337, 50.01593
457.3158, 49.82982
457.7979, 49.10494
458.2800, 48.14200
458.7621, 47.48130
459.2443, 47.21362
459.7264, 47.06129
460.2085, 46.82257
460.6906, 46.49955
461.1727, 46.15923
461.6548, 45.74900
462.1370, 45.37903
462.6191, 45.14008
463.1012, 44.97091
463.5833, 44.74482
464.0654, 44.41050
464.5475, 44.03487
465.0297, 43.73069
465.5118, 43.53450
465.9939, 43.32279
466.4760, 43.03440
466.9581, 42.78408
467.4402, 42.66552
467.9224, 42.64961
468.4045, 42.64564
468.8866, 42.59534
469.3687, 42.50124
469.8508, 42.37385
470.3329, 42.20428
470.8151, 42.01246
471.2972, 41.70802
471.7793, 41.44486
472.2614, 41.38257
472.7435, 41.53207
473.2256, 41.73200
473.7078, 41.82966
474.1899, 41.82713
474.6720, 41.79522
475.1541, 41.72898
475.6362, 41.63889
476.1183, 41.46701
476.6005, 41.29138
477.0826, 41.25133
477.5647, 41.42974
478.0468, 41.66413
478.5289, 41.79957
479.0110, 41.83821
479.4932, 41.78316
479.9753, 41.56574
480.4574, 41.36420
480.9395, 41.45594
481.4216, 41.80595
481.9037, 42.02361
482.3859, 41.85882
482.8680, 41.62022
483.3501, 41.65855
483.8322, 41.93577
484.3143, 42.10443
484.7964, 41.93678
485.2786, 41.58112
485.7607, 41.50494
486.2428, 41.96869
486.7249, 42.23267
487.2070, 42.02009
487.6891, 41.68438
488.1713, 41.58073
488.6534, 41.73371
489.1355, 41.91674
489.6176, 41.91158
490.0997, 41.72581
490.5818, 41.68661
491.0640, 41.92189
491.5461, 42.16716
492.0282, 42.46307
492.5103, 42.70878
492.9924, 42.74007
493.4745, 42.52357
493.9567, 42.27475
494.4388, 42.32014
494.9209, 42.70259
495.4030, 42.88689
495.8851, 42.73258
496.3672, 42.51603
496.8494, 42.32214
497.3315, 42.17719
497.8136, 42.13458
498.2957, 42.24195
498.7778, 42.41471
499.2599, 42.56445
499.7421, 42.69071
500.2242, 42.78854
500.7063, 42.88807
501.1884, 42.91328
501.6705, 42.70034
502.1526, 42.26191
502.6348, 41.96527
503.1169, 42.03300
503.5990, 42.19041
504.0811, 42.13769
504.5632, 41.90585
505.0453, 41.74891
505.5274, 41.81321
506.0096, 42.03182
506.4917, 42.21147
506.9738, 42.37981
507.4559, 42.46270
507.9380, 42.40773
508.4201, 42.29947
508.9023, 42.17653
509.3844, 42.06330
509.8665, 42.01851
510.3486, 42.11325
510.8307, 42.31313
511.3128, 42.29669
511.7950, 41.80440
512.2771, 41.48192
512.7592, 41.52626
513.2413, 41.72044
513.7234, 41.89997
514.2056, 42.02032
514.6877, 42.06886
515.1698, 41.98610
515.6519, 41.79608
516.1340, 41.73627
516.6161, 41.90422
517.0983, 42.01129
517.5804, 41.78145
518.0625, 41.41901
518.5446, 41.22767
519.0267, 41.31667
519.5089, 41.46428
519.9910, 41.55141
520.4731, 41.57087
520.9552, 41.47659
521.4373, 41.24018
521.9194, 40.99283
522.4016, 40.86742
522.8837, 40.87119
523.3658, 40.85613
523.8479, 40.75563
524.3300, 40.70658
524.8121, 40.84296
525.2943, 41.05743
525.7764, 41.15214
526.2585, 41.05657
526.7406, 40.87217
527.2227, 40.75835
527.7048, 40.74693
528.1870, 40.69236
528.6691, 40.64500
529.1512, 40.50562
529.6333, 40.09305
530.1154, 39.58649
530.5975, 39.33252
531.0797, 39.51706
531.5618, 39.87651
532.0439, 39.91295
532.5260, 39.56055
533.0081, 39.42378
533.4902, 39.80206
533.9724, 40.19118
534.4545, 40.19961
534.9366, 39.90874
535.4187, 39.63212
535.9008, 39.46619
536.3829, 39.38902
536.8651, 39.40314
537.3472, 39.49675
537.8293, 39.58760
538.3114, 39.63966
538.7935, 39.68855
539.2756, 39.81247
539.7578, 40.05152
540.2399, 40.16216
540.7220, 39.96679
541.2041, 39.77041
541.6862, 39.81287
542.1683, 40.03396
542.6505, 40.23895
543.1326, 40.32491
543.6147, 40.32158
544.0968, 40.28412
544.5789, 40.10917
545.0610, 40.11890
545.5432, 40.37261
546.0253, 40.74400
546.5074, 41.30391
546.9895, 41.92687
547.4716, 42.30583
547.9537, 42.18922
548.4359, 41.81952
548.9180, 41.74590
549.4001, 42.01948
549.8822, 42.23248
550.3643, 42.26355
550.8464, 42.19816
551.3286, 42.09317
551.8107, 41.95713
552.2928, 41.88833
552.7749, 41.99743
553.2570, 42.14305
553.7391, 42.15357
554.2213, 42.04736
554.7034, 41.95716
555.1855, 41.94320
555.6676, 41.98038
556.1497, 42.02984
556.6318, 42.15089
557.1140, 42.13340
557.5961, 41.87428
558.0782, 41.56175
558.5603, 41.28512
559.0424, 41.05985
559.5245, 40.88824
560.0067, 40.77051
560.4888, 40.70768
560.9709, 40.71826
561.4530, 40.85062
561.9351, 40.91975
562.4172, 40.73881
562.8994, 40.63373
563.3815, 40.86491
563.8636, 41.33191
564.3457, 41.69602
564.8278, 41.73804
565.3099, 41.64242
565.7921, 41.70803
566.2742, 41.92439
566.7563, 42.05299
567.2384, 42.01529
567.7205, 41.86700
568.2026, 41.58268
568.6848, 41.15581
569.1669, 41.02575
569.6490, 41.57291
570.1311, 42.15160
570.6132, 42.29085
571.0953, 42.11219
571.5775, 41.95037
572.0596, 41.94769
572.5417, 42.05336
573.0238, 42.18858
573.5059, 42.37921
573.9880, 42.52010
574.4702, 42.55208
574.9523, 42.59822
575.4344, 42.68348
575.9165, 42.82292
576.3986, 43.06282
576.8807, 43.43818
577.3629, 43.80724
577.8450, 43.92961
578.3271, 43.80903
578.8092, 43.76372
579.2913, 43.84301
579.7734, 43.99559
580.2556, 44.15880
580.7377, 44.36146
581.2198, 44.71236
581.7019, 45.43888
582.1840, 46.04654
582.6661, 46.09454
583.1483, 45.83154
583.6304, 45.76459
584.1125, 46.01897
584.5946, 46.37170
585.0767, 46.58942
585.5588, 46.66396
586.0409, 46.82497
586.5230, 47.15123
587.0051, 47.46529
587.4872, 47.74773
587.9694, 47.98880
588.4515, 48.17713
588.9336, 48.31280
589.4157, 48.40836
589.8978, 48.46605
590.3799, 48.49085
590.8621, 48.52922
591.3442, 48.58120
591.8263, 48.64794
592.3084, 48.80316
592.7905, 48.93380
593.2726, 48.90165
593.7548, 48.68293
594.2369, 48.39119
594.7190, 47.95715
595.2011, 47.54708
595.6832, 47.46259
596.1653, 47.68774
596.6475, 47.89573
597.1296, 47.89533
597.6117, 47.73717
598.0938, 47.56648
598.5759, 47.45860
599.0580, 47.20897
599.5402, 46.60175
600.0223, 46.04020
600.5044, 45.86888
600.9865, 45.97437
601.4686, 45.99854
601.9507, 45.72359
602.4329, 45.28274
602.9150, 44.97483
603.3971, 44.82910
603.8792, 44.61217
604.3613, 44.19807
604.8434, 43.80884
605.3256, 43.65882
605.8077, 43.66875
606.2898, 43.57740
606.7719, 43.25066
607.2540, 42.86528
607.7361, 42.53917
608.2183, 42.26461
608.7004, 42.05288
609.1825, 41.91097
609.6646, 41.72857
610.1467, 41.36544
610.6288, 40.80783
611.1110, 40.40068
611.5931, 40.19804
612.0752, 40.06533
612.5573, 40.00972
613.0394, 39.99028
613.5215, 40.00991
614.0037, 40.04454
614.4858, 39.97672
614.9679, 39.63875
615.4500, 39.09644
615.9321, 38.74471
616.4142, 38.64108
616.8964, 38.53205
617.3785, 38.32765
617.8606, 38.05947
618.3427, 37.74725
618.8248, 37.38489
619.3069, 37.07092
619.7891, 36.81902
620.2712, 36.64703
620.7533, 36.63907
621.2354, 36.74118
621.7175, 36.73352
622.1996, 36.50629
622.6818, 36.17281
623.1639, 35.94938
623.6460, 35.89124
624.1281, 35.78294
624.6102, 35.59681
625.0923, 35.39457
625.5745, 35.22576
626.0566, 35.05016
626.5387, 34.78176
627.0208, 34.38583
627.5029, 33.97897
627.9850, 33.70384
628.4672, 33.54428
628.9493, 33.39262
629.4314, 33.24920
629.9135, 33.07580
630.3956, 32.81927
630.8777, 32.52153
631.3599, 32.31142
631.8420, 32.27000
632.3241, 32.13587
632.8062, 31.73975
633.2883, 31.27105
633.7704, 30.90729
634.2526, 30.66096
634.7347, 30.49158
635.2168, 30.38403
635.6989, 30.28733
636.1810, 30.02787
636.6631, 29.48474
637.1453, 29.09106
637.6274, 29.03410
638.1095, 28.99447
638.5916, 28.76294
639.0737, 28.43157
639.5558, 28.24758
640.0380, 28.36599
640.5201, 28.52410
641.0022, 28.47492
641.4843, 28.24384
641.9664, 27.86154
642.4485, 27.30659
642.9307, 26.85181
643.4128, 26.78713
643.8949, 27.04668
644.3770, 27.02620
644.8591, 26.51117
645.3412, 26.04329
645.8234, 25.72819
646.3055, 25.48107
646.7876, 25.22229
647.2697, 24.95358
647.7518, 24.73021
648.2339, 24.59650
648.7161, 24.52774
649.1982, 24.46956
649.6803, 24.42980
650.1624, 24.35287
650.6445, 24.23211
651.1266, 24.06256
651.6088, 23.79196
652.0909, 23.45911
652.5730, 23.23123
653.0551, 23.22637
653.5372, 23.24417
654.0193, 23.14394
654.5015, 22.99136
654.9836, 22.92561
655.4657, 22.96584
655.9478, 22.97329
656.4299, 22.80550
656.9120, 22.48731
657.3942, 22.26671
657.8763, 22.19687
658.3584, 22.14090
658.8405, 22.11235
659.3226, 22.06270
659.8047, 21.92475
660.2869, 21.72272
660.7690, 21.57219
661.2511, 21.55646
661.7332, 21.60142
662.2153, 21.62993
662.6974, 21.63625
663.1796, 21.58840
663.6617, 21.47688
664.1438, 21.30455
664.6259, 21.04053
665.1080, 20.68331
665.5901, 20.50601
666.0723, 20.66901
666.5544, 20.78739
667.0365, 20.76830
667.5186, 20.66238
668.0007, 20.47927
668.4828, 20.25167
668.9650, 20.08731
669.4471, 20.10168
669.9292, 20.20714
670.4113, 20.11225
670.8934, 19.77867
671.3755, 19.58780
671.8577, 19.71035
672.3398, 19.91652
672.8219, 19.95968
673.3040, 19.87148
673.7861, 19.82155
674.2682, 19.89989
674.7504, 19.95016
675.2325, 19.86512
675.7146, 19.71670
676.1967, 19.59243
676.6788, 19.51792
677.1609, 19.51083
677.6431, 19.60608
678.1252, 19.76884
678.6073, 19.78835
679.0894, 19.59530
679.5715, 19.42934
680.0536, 19.35325
680.5358, 19.30956
681.0179, 19.29333
681.5000, 19.28329
681.9821, 19.19513
682.4642, 18.89860
682.9464, 18.63158
683.4285, 18.60164
683.9106, 18.74512
684.3927, 18.96792
684.8748, 19.23948
685.3569, 19.41081
685.8391, 19.32787
686.3212, 19.02911
686.8033, 18.84790
687.2854, 18.89263
687.7675, 18.88308
688.2496, 18.74172
688.7318, 18.58438
689.2139, 18.48052
689.6960, 18.43117
690.1781, 18.41076
690.6602, 18.40171
691.1423, 18.42673
691.6245, 18.54257
692.1066, 18.71971
692.5887, 18.85588
693.0708, 18.93436
693.5529, 18.93206
694.0350, 18.80458
694.5172, 18.58302
694.9993, 18.45773
695.4814, 18.51302
695.9635, 18.54784
696.4456, 18.55380
696.9277, 18.53321
697.4099, 18.47119
697.8920, 18.38445
698.3741, 18.31724
698.8562, 18.29701
699.3383, 18.28373
699.8204, 18.19737
700.3026, 18.05480
700.7847, 17.99860
701.2668, 18.06757
701.7489, 18.13280
702.2310, 18.09021
702.7131, 17.97816
703.1953, 17.94033
703.6774, 18.01720
704.1595, 18.07929
704.6416, 18.13675
705.1237, 18.15016
705.6058, 18.05813
706.0880, 17.90248
706.5701, 17.77023
707.0522, 17.70222
707.5343, 17.68749
708.0164, 17.72799
708.4985, 17.81881
708.9807, 17.88155
709.4628, 17.90242
709.9449, 17.92685
710.4270, 17.98749
710.9091, 18.06324
711.3912, 18.11757
711.8734, 18.16180
712.3555, 18.14616
712.8376, 18.03343
713.3197, 17.88398
713.8018, 17.69075
714.2839, 17.50274
714.7661, 17.40956
715.2482, 17.44238
715.7303, 17.54809
716.2124, 17.71527
716.6945, 17.92673
717.1766, 17.86952
717.6588, 17.42670
718.1409, 17.10470
718.6230, 17.17474
719.1051, 17.41012
719.5872, 17.50298
720.0693, 17.44973
720.5515, 17.42021
721.0336, 17.47319
721.5157, 17.53453
721.9978, 17.59915
722.4799, 17.62828
722.9620, 17.52268
723.4442, 17.28051
723.9263, 17.06651
724.4084, 17.04357
724.8905, 17.17838
725.3726, 17.31677
725.8547, 17.47908
726.3369, 17.55262
726.8190, 17.44786
727.3011, 17.31319
727.7832, 17.32667
728.2653, 17.44403
728.7474, 17.44854
729.2296, 17.10610
729.7117, 16.87877
730.1938, 17.08650
730.6759, 17.45949
731.1580, 17.69967
731.6401, 17.76188
732.1223, 17.70636
732.6044, 17.56115
733.0865, 17.37580
733.5686, 17.27583
734.0507, 17.27059
734.5328, 17.28473
735.0150, 17.30491
735.4971, 17.35108
735.9792, 17.49631
736.4613, 17.66421
736.9434, 17.68573
737.4255, 17.48203
737.9077, 17.30283
738.3898, 17.22758
738.8719, 17.21447
739.3540, 17.26682
739.8361, 17.34625
740.3182, 17.35327
740.8004, 17.24447
741.2825, 17.11166
741.7646, 17.10678
742.2467, 17.23082
742.7288, 17.27982
743.2109, 17.22581
743.6931, 17.17455
744.1752, 17.15463
744.6573, 17.17339
745.1394, 17.28125
745.6215, 17.49347
746.1036, 17.54936
746.5858, 17.22122
747.0679, 16.91141
747.5500, 16.85023
748.0321, 16.95261
748.5142, 17.13161
748.9963, 17.33759
749.4785, 17.45171
749.9606, 17.33996
750.4427, 17.08366
750.9248, 16.96827
751.4069, 17.00978
751.8890, 17.04285
752.3712, 17.01030
752.8533, 16.99729
753.3354, 17.13185
753.8175, 17.36613
754.2996, 17.42470
754.7817, 17.07981
755.2639, 16.87372
755.7460, 17.09946
756.2281, 17.38824
756.7102, 17.39557
757.1923, 17.17539
757.6744, 16.97555
758.1566, 16.91683
758.6387, 16.95476
759.1208, 17.07747
759.6029, 17.26078
760.0850, 17.27609
760.5671, 17.07113
761.0493, 16.91691
761.5314, 16.97754
762.0135, 17.14624
762.4956, 17.20899
762.9777, 17.11731
763.4598, 17.09298
763.9420, 17.23403
764.4241, 17.33817
764.9062, 17.26882
765.3883, 17.13980
765.8704, 17.11597
766.3525, 17.21655
766.8347, 17.30385
767.3168, 17.23270
767.7989, 17.10721
768.2810, 17.17591
768.7631, 17.40159
769.2452, 17.45988
769.7274, 17.24517
770.2095, 17.00134
770.6916, 16.96623
771.1737, 17.10915
771.6558, 17.17201
772.1379, 16.98928
772.6201, 16.97581
773.1022, 17.36683
773.5843, 17.72795
774.0664, 17.76440
774.5485, 17.56900
775.0306, 17.36697
775.5128, 17.22095
775.9949, 17.15661
776.4770, 17.28872
776.9591, 17.47631
777.4412, 17.40213
777.9233, 17.10030
778.4055, 16.94616
778.8876, 17.12344
779.3697, 17.43183
779.8518, 17.56127
780.3339, 17.49514
780.8160, 17.38181
781.2982, 17.10960
781.7803, 16.97532
782.2624, 17.22062
782.7445, 17.52514
783.2266, 17.57105
783.7087, 17.37802
784.1909, 17.25333
784.6730, 17.42751
785.1551, 17.56465
785.6372, 17.34385
786.1193, 16.99584
786.6014, 16.87452
787.0836, 17.01030
787.5657, 17.22251
788.0478, 17.39526
788.5299, 17.52971
789.0120, 17.63255
789.4941, 17.70602
789.9763, 17.71925
790.4584, 17.66322
790.9405, 17.55440
791.4226, 17.32196
791.9047, 17.08280
792.3868, 17.09954
792.8690, 17.44354
793.3511, 17.73240
793.8332, 17.93331
794.3153, 18.04227
794.7974, 18.02502
795.2795, 17.93006
795.7617, 17.78742
796.2438, 17.62485
796.7259, 17.54224
797.2080, 17.67918
797.6901, 17.90009
798.1722, 17.88561
798.6544, 17.66950
799.1365, 17.55196
799.6186, 17.60786
800.1007, 17.73259
800.5828, 17.85735
801.0649, 17.96844
801.5471, 17.99265
802.0292, 17.82098
802.5113, 17.74852
802.9934, 17.88012
803.4755, 18.00176
803.9576, 17.95240
804.4398, 17.84229
804.9219, 17.88094
805.4040, 18.12942
805.8861, 18.36485
806.3682, 18.49277
806.8503, 18.50547
807.3325, 18.32352
807.8146, 18.02024
808.2967, 17.79524
808.7788, 17.71120
809.2609, 17.70551
809.7430, 17.71474
810.2252, 17.74417
810.7073, 17.84140
811.1894, 18.03801
811.6715, 18.17453
812.1536, 18.21271
812.6357, 18.19430
813.1179, 18.10851
813.6000, 17.99251
814.0821, 17.96389
814.5642, 18.07324
815.0463, 18.17790
815.5284, 18.29197
816.0106, 18.34590
816.4927, 18.21775
816.9748, 18.01104
817.4569, 17.93702
817.9390, 18.06005
818.4211, 18.22857
818.9033, 18.31110
819.3854, 18.32595
819.8675, 18.30505
820.3496, 18.25204
820.8317, 18.19102
821.3138, 18.12134
821.7960, 18.10691
822.2781, 18.23163
822.7602, 18.46981
823.2423, 18.59672
823.7244, 18.58470
824.2065, 18.50994
824.6887, 18.28320
825.1708, 18.09126
825.6529, 18.06796
826.1350, 18.14066
826.6171, 18.15972
827.0992, 18.08307
827.5814, 18.01382
828.0635, 17.97024
828.5456, 17.98355
829.0277, 18.15096
829.5098, 18.38629
829.9919, 18.48897
830.4741, 18.40536
830.9562, 18.25470
831.4383, 18.13841
831.9204, 18.05913
832.4025, 18.03335
832.8846, 18.06370
833.3668, 18.09758
833.8489, 18.11832
834.3310, 18.16290
834.8131, 18.28698
835.2952, 18.45163
835.7773, 18.50134
836.2595, 18.40630
836.7416, 18.24352
837.2237, 17.82904
837.7058, 17.54719
838.1879, 17.68354
838.6700, 18.01507
839.1522, 18.23447
839.6343, 18.27835
840.1164, 18.25704
840.5985, 18.21430
841.0806, 18.15719
841.5627, 18.07626
842.0449, 17.99006
842.5270, 17.95671
843.0091, 17.97829
843.4912, 17.96420
843.9733, 17.83310
844.4554, 17.65766
844.9376, 17.66021
845.4197, 17.86770
845.9018, 17.94301
846.3839, 17.80268
846.8660, 17.67908
847.3481, 17.69641
847.8303, 17.80475
848.3124, 17.93795
848.7945, 18.12238
849.2766, 18.18825
849.7587, 18.01124
850.2408, 17.85859
850.7230, 17.81875
851.2051, 17.84714
851.6872, 17.93158
852.1693, 18.04283
852.6514, 18.09164
853.1335, 18.00630
853.6157, 17.90783
854.0978, 17.93484
854.5799, 18.01915
855.0620, 18.04507
855.5441, 18.00163
856.0262, 17.89729
856.5084, 17.73458
856.9905, 17.57024
857.4726, 17.49061
857.9547, 17.49422
858.4368, 17.54236
858.9189, 17.64896
859.4011, 17.74320
859.8832, 17.79776
860.3653, 17.84374
860.8474, 17.92692
861.3295, 18.03574
861.8116, 18.07285
862.2938, 17.98597
862.7759, 17.90481
863.2580, 17.78940
863.7401, 17.73812
864.2222, 17.84721
864.7043, 18.05322
865.1865, 18.27000
865.6686, 18.47483
866.1507, 18.57065
866.6328, 18.40790
867.1149, 18.16652
867.5970, 18.06507
868.0792, 18.05856
868.5613, 18.01481
869.0434, 17.91107
869.5255, 17.83443
870.0076, 17.85464
870.4897, 17.94973
870.9719, 18.09149
871.4540, 18.28634
871.9361, 18.35714
872.4182, 18.25844
872.9003, 18.13640
873.3824, 18.05312
873.8646, 18.00638
874.3467, 18.00306
874.8288, 18.06185
875.3109, 18.06255
875.7930, 17.95277
876.2751, 17.85808
876.7573, 17.79487
877.2394, 17.76715
877.7215, 17.81763
878.2036, 17.90722
878.6857, 17.89835
879.1678, 17.68168
879.6500, 17.52868
880.1321, 17.69670
880.6142, 17.94729
881.0963, 18.00448
881.5784, 17.91020
882.0605, 17.82558
882.5427, 17.80773
883.0248, 17.81589
883.5069, 17.81182
883.9890, 17.79972
884.4711, 17.78252
884.9532, 17.76261
885.4354, 17.80146
885.9175, 17.92443
886.3996, 17.99619
886.8817, 17.90052
887.3638, 17.70417
887.8459, 17.59618
888.3281, 17.59072
888.8102, 17.63335
889.2923, 17.80555
889.7744, 17.90972
890.2565, 17.80344
890.7386, 17.64789
891.2208, 17.59932
891.7029, 17.65850
892.1850, 17.74897
892.6671, 17.95990
893.1492, 18.06359
893.6313, 17.89171
894.1135, 17.64776
894.5956, 17.49030
895.0777, 17.42446
895.5598, 17.42613
896.0419, 17.48779
896.5240, 17.53345
897.0062, 17.50273
897.4883, 17.40788
897.9704, 17.21418
898.4525, 16.97253
898.9346, 16.86679
899.4167, 16.93805
899.8989, 17.05018
900.3810, 17.09263
900.8631, 17.09143
901.3452, 17.13437
901.8273, 17.23153
902.3094, 17.22220
902.7916, 17.04437
903.2737, 16.94304
903.7558, 17.08024
904.2379, 17.29715
904.7200, 17.34103
905.2021, 17.18580
905.6843, 17.11349
906.1664, 17.25428
906.6485, 17.29716
907.1306, 17.08520
907.6127, 16.86459
908.0948, 16.86125
908.5770, 16.97511
909.0591, 16.92484
909.5412, 16.59385
910.0233, 16.33946
910.5054, 16.40365
910.9875, 16.52169
911.4697, 16.47357
911.9518, 16.34049
912.4339, 16.27482
912.9160, 16.29956
913.3981, 16.32710
913.8802, 16.28323
914.3624, 16.24585
914.8445, 16.36935
915.3265, 16.58164
915.8087, 16.69146
916.2908, 16.67869
916.7729, 16.54783
917.2550, 16.29341
917.7371, 16.04425
918.2192, 15.98973
918.7014, 16.11028
919.1835, 16.18128
919.6656, 16.20109
920.1477, 16.16427
920.6298, 16.01649
921.1119, 15.94320
921.5941, 16.15140
922.0762, 16.50510
922.5583, 16.57478
923.0404, 16.18194
923.5225, 15.95582
924.0046, 16.02316
924.4868, 16.09136
924.9689, 16.07616
925.4510, 16.01846
925.9331, 15.93989
926.4152, 15.85357
926.8973, 15.81081
927.3795, 15.83676
927.8616, 15.88861
928.3437, 16.05260
928.8258, 16.14345
929.3079, 15.87731
929.7900, 15.44633
930.2722, 15.25088
930.7543, 15.39767
931.2364, 15.63472
931.7185, 15.82155
932.2006, 15.93933
932.6827, 15.90488
933.1649, 15.79445
933.6470, 15.84167
934.1291, 16.04358
934.6112, 16.13288
935.0933, 15.95211
935.5754, 15.65436
936.0576, 15.45362
936.5397, 15.35099
937.0218, 15.40356
937.5039, 15.62773
937.9860, 15.71376
938.4681, 15.53927
938.9503, 15.35218
939.4324, 15.38324
939.9145, 15.57242
940.3966, 15.68129
940.8787, 15.69093
941.3608, 15.66749
941.8430, 15.56901
942.3251, 15.50603
942.8072, 15.56720
943.2893, 15.65393
943.7714, 15.63897
944.2535, 15.52853
944.7357, 15.44124
945.2178, 15.35830
945.6999, 15.33829
946.1820, 15.43587
946.6641, 15.55776
947.1462, 15.67249
947.6284, 15.75636
948.1105, 15.74644
948.5926, 15.63166
949.0747, 15.59352
949.5568, 15.82483
950.0389, 16.05342
950.5211, 16.01847
951.0032, 15.89691
951.4853, 15.94386
951.9674, 16.14520
952.4495, 16.34924
952.9316, 16.48849
953.4138, 16.53386
953.8959, 16.37374
954.3780, 16.13811
954.8601, 16.07802
955.3422, 16.16878
955.8243, 16.32359
956.3065, 16.50935
956.7886, 16.62333
957.2707, 16.57379
957.7528, 16.46554
958.2349, 16.55376
958.7170, 16.82342
959.1992, 16.97480
959.6813, 16.98347
960.1634, 16.99581
960.6455, 17.06283
961.1276, 17.16257
961.6097, 17.27370
962.0919, 17.39545
962.5740, 17.52286
963.0561, 17.67820
963.5382, 17.76219
964.0203, 17.69297
964.5024, 17.68830
964.9846, 17.92186
965.4667, 18.22496
965.9488, 18.30635
966.4309, 18.13796
966.9130, 18.19967
967.3951, 18.75763
967.8773, 19.16718
968.3594, 19.26394
968.8415, 19.25917
969.3236, 19.18344
969.8057, 19.13495
970.2878, 19.30283
970.7700, 19.73130
971.2521, 20.11939
971.7342, 20.33085
972.2163, 20.52544
972.6984, 20.81473
973.1805, 21.10437
973.6627, 21.23166
974.1448, 21.27610
974.6269, 21.49060
975.1090, 21.97731
975.5911, 22.52007
976.0732, 23.02653
976.5554, 23.45508
977.0375, 23.70750
977.5196, 23.86539
978.0017, 24.07239
978.4838, 24.35115
978.9659, 24.65078
979.4481, 24.93511
979.9302, 25.27141
980.4123, 25.75450
980.8944, 26.35562
981.3765, 27.06121
981.8586, 27.82971
982.3408, 28.43424
982.8229, 28.82151
983.3050, 29.16559
983.7871, 29.60139
984.2692, 30.09938
984.7513, 30.56817
985.2335, 31.01755
985.7156, 31.63426
986.1977, 32.44479
986.6798, 33.11178
987.1619, 33.47671
987.6440, 33.85598
988.1262, 34.59611
988.6083, 35.61594
989.0904, 36.55767
989.5725, 37.44392
990.0546, 38.08136
990.5367, 38.31406
991.0189, 38.68706
991.5010, 39.51284
991.9831, 40.49648
992.4652, 41.27098
992.9473, 41.84276
993.4294, 42.46573
993.9116, 43.22887
994.3937, 43.88108
994.8758, 44.31652
995.3579, 44.74247
995.8400, 45.27781
996.3221, 45.85143
996.8043, 46.36457
997.2864, 46.81371
997.7685, 47.27133
998.2506, 47.88240
998.7327, 48.30996
999.2148, 48.33277
999.6970, 48.30462
1000.179, 48.41593
1000.661, 48.64620
1001.143, 48.99052
1001.625, 49.44733
1002.108, 49.74903
1002.590, 49.75708
1003.072, 49.65369
1003.554, 49.44638
1004.036, 49.22686
1004.518, 49.10123
1005.000, 49.02299
1005.482, 48.87729
1005.964, 48.63286
1006.447, 48.35223
1006.929, 48.13889
1007.411, 47.83233
1007.893, 47.28747
1008.375, 46.58364
1008.857, 45.77576
1009.339, 44.91453
1009.821, 44.11439
1010.304, 43.41301
1010.786, 42.62122
1011.268, 41.47398
1011.750, 40.22287
1012.232, 39.23758
1012.714, 38.36744
1013.196, 37.25163
1013.678, 35.91441
1014.160, 34.68248
1014.643, 33.70807
1015.125, 32.86921
1015.607, 32.06397
1016.089, 31.26674
1016.571, 30.36736
1017.053, 29.42383
1017.535, 28.66226
1018.017, 28.10175
1018.500, 27.55564
1018.982, 26.91051
1019.464, 26.33654
1019.946, 26.18724
1020.428, 26.30593
1020.910, 25.94633
1021.392, 25.15953
1021.874, 24.44669
1022.356, 23.90767
1022.839, 23.53458
1023.321, 23.33533
1023.803, 23.22166
1024.285, 23.04326
1024.767, 22.80480
1025.249, 22.55263
1025.731, 22.15125
1026.213, 22.28929
1026.696, 22.31080
1027.178, 22.22256
1027.660, 21.69470
1028.142, 21.73451
1028.624, 21.54680
1029.106, 21.34980
1029.588, 21.46948
1030.070, 21.00558
1030.552, 21.12024
1031.035, 21.00367
1031.517, 20.99310
1031.999, 20.75361
1032.481, 20.58485
1032.963, 20.64502
1033.445, 20.57844
1033.927, 20.31260
1034.409, 20.30871
1034.891, 19.83683
1035.374, 19.73654
1035.856, 19.44031
1036.338, 19.62467
1036.820, 19.69278
1037.302, 19.65083
1037.784, 19.16929
1038.266, 19.25541
1038.748, 19.11403
1039.231, 18.96317
1039.713, 19.12917
1040.195, 18.71158
1040.677, 18.87256
1041.159, 18.80257
1041.641, 18.83831
1042.123, 18.64514
1042.605, 18.52269
1043.088, 18.62901
1043.570, 18.60874
1044.052, 18.38923
1044.534, 18.43166
1045.016, 18.00608
1045.498, 17.99120
1045.980, 18.15353
1046.462, 17.94552
1046.944, 17.99216
1047.427, 17.94164
1047.909, 17.45056
1048.391, 17.72597
1048.873, 17.66988
1049.355, 17.41700
1049.837, 17.51045
1050.319, 17.66080
1050.801, 17.88014
1051.283, 17.91086
1051.766, 17.47341
1052.248, 17.17644
1052.730, 17.22663
1053.212, 17.41525
1053.694, 17.73520
1054.176, 18.03786
1054.658, 18.03727
1055.140, 17.69775
1055.623, 17.47836
1056.105, 17.55506
1056.587, 17.66784
1057.069, 17.81317
1057.551, 17.89300
1058.033, 17.75865
1058.515, 17.55261
1058.997, 17.52169
1059.479, 17.68912
1059.962, 17.82760
1060.444, 17.87107
1060.926, 17.87455
1061.408, 17.74699
1061.890, 17.69658
1062.372, 17.97887
1062.854, 18.37603
1063.336, 18.55800
1063.818, 18.49485
1064.301, 18.37657
1064.783, 18.13008
1065.265, 18.06913
1065.747, 18.46438
1066.229, 18.92973
1066.711, 19.23438
1067.193, 19.41242
1067.675, 19.49837
1068.158, 19.52391
1068.640, 19.60097
1069.122, 19.79023
1069.604, 19.98396
1070.086, 20.16777
1070.568, 20.30678
1071.050, 20.28938
1071.532, 20.26656
1072.015, 20.46962
1072.497, 20.86632
1072.979, 21.20675
1073.461, 21.41189
1073.943, 21.54786
1074.425, 21.55933
1074.907, 21.60653
1075.389, 21.82533
1075.871, 22.11753
1076.354, 22.29348
1076.836, 22.23148
1077.318, 22.63731
1077.800, 22.92689
1078.282, 23.10641
1078.764, 22.84638
1079.246, 23.15395
1079.728, 23.23407
1080.210, 23.30483
1080.693, 23.69262
1081.175, 23.49653
1081.657, 23.87898
1082.139, 24.03051
1082.621, 24.04750
1083.103, 24.15539
1083.585, 24.21800
1084.067, 24.20351
1084.549, 24.11585
1085.032, 23.86439
1085.514, 23.57447
1085.996, 23.52815
1086.478, 23.77840
1086.960, 23.98111
1087.442, 24.02204
1087.924, 23.93939
1088.406, 23.63576
1088.889, 23.32683
1089.371, 23.15256
1089.853, 23.11519
1090.335, 23.27249
1090.817, 23.58848
1091.299, 23.71105
1091.781, 23.40335
1092.263, 23.06659
1092.745, 22.83707
1093.228, 22.66507
1093.710, 22.52462
1094.192, 22.41622
1094.674, 22.38045
1095.156, 22.39163
1095.638, 22.30511
1096.120, 22.00935
1096.602, 21.79428
1097.084, 21.78748
1097.567, 21.86209
1098.049, 22.00818
1098.531, 22.15171
1099.013, 22.27190
1099.495, 22.32134
1099.977, 22.12488
1100.459, 21.53384
1100.941, 21.20477
1101.424, 21.59311
1101.906, 21.92792
1102.388, 21.79884
1102.870, 21.56370
1103.352, 21.56281
1103.834, 21.68868
1104.316, 21.65840
1104.798, 21.42070
1105.281, 21.17753
1105.763, 20.97647
1106.245, 20.76649
1106.727, 20.50696
1107.209, 20.26324
1107.691, 20.11671
1108.173, 19.99273
1108.655, 19.75883
1109.137, 19.41119
1109.620, 19.10979
1110.102, 18.98749
1110.584, 18.74131
1111.066, 18.14039
1111.548, 17.63820
1112.030, 17.53396
1112.512, 17.56132
1112.994, 17.41220
1113.476, 17.11655
1113.959, 16.90489
1114.441, 16.87376
1114.923, 16.73711
1115.405, 16.38243
1115.887, 16.06401
1116.369, 15.83438
1116.851, 15.67845
1117.333, 15.60409
1117.816, 15.58946
1118.298, 15.59092
1118.780, 15.63369
1119.262, 15.56360
1119.744, 15.29083
1120.226, 15.08435
1120.708, 15.06151
1121.190, 14.99306
1121.672, 14.69752
1122.155, 14.32851
1122.637, 14.13183
1123.119, 14.10518
1123.601, 14.09612
1124.083, 14.13508
1124.565, 14.08307
1125.047, 13.86151
1125.529, 13.73430
1126.011, 13.85209
1126.494, 14.02096
1126.976, 14.03059
1127.458, 13.91698
1127.940, 13.84157
1128.422, 13.82337
1128.904, 13.69586
1129.386, 13.42090
1129.868, 13.24398
1130.351, 13.24672
1130.833, 13.31330
1131.315, 13.37093
1131.797, 13.39383
1132.279, 13.31040
1132.761, 13.13191
1133.243, 13.04844
1133.725, 13.06098
1134.208, 13.05757
1134.690, 13.01864
1135.172, 12.99335
1135.654, 13.00824
1136.136, 13.02886
1136.618, 13.01705
1137.100, 12.97280
1137.582, 12.88348
1138.064, 12.75965
1138.547, 12.63882
1139.029, 12.53569
1139.511, 12.54753
1139.993, 12.69673
1140.475, 12.84091
1140.957, 12.86667
1141.439, 12.82673
1141.921, 12.77459
1142.403, 12.73340
1142.886, 12.77902
1143.368, 12.88144
1143.850, 12.92967
1144.332, 12.92297
1144.814, 12.98598
1145.296, 13.18181
1145.778, 13.35794
1146.260, 13.32971
1146.743, 13.22674
1147.225, 13.19730
1147.707, 13.22081
1148.189, 13.26735
1148.671, 13.33583
1149.153, 13.45688
1149.635, 13.62553
1150.117, 13.73921
1150.599, 13.71471
1151.082, 13.66467
1151.564, 13.64897
1152.046, 13.67041
1152.528, 13.77359
1153.010, 13.89048
1153.492, 13.90991
1153.974, 13.84440
1154.456, 13.79015
1154.938, 13.76873
1155.421, 13.80216
1155.903, 13.97306
1156.385, 14.10757
1156.867, 14.07110
1157.349, 14.00909
1157.831, 14.05307
1158.313, 14.16128
1158.795, 14.24215
1159.278, 14.28503
1159.760, 14.32150
1160.242, 14.34658
1160.724, 14.38094
1161.206, 14.41685
1161.688, 14.47538
1162.170, 14.58436
1162.652, 14.70583
1163.135, 14.82207
1163.617, 14.91726
1164.099, 14.92455
1164.581, 14.82460
1165.063, 14.69334
1165.545, 14.46351
1166.027, 14.37309
1166.509, 14.55207
1166.991, 14.70969
1167.474, 14.67636
1167.956, 14.49091
1168.438, 14.17164
1168.920, 13.75424
1169.402, 13.67925
1169.884, 14.00452
1170.366, 14.09183
1170.848, 13.85803
1171.330, 13.67561
1171.813, 13.68398
1172.295, 13.73740
1172.777, 13.71702
1173.259, 13.61820
1173.741, 13.38069
1174.223, 13.05446
1174.705, 12.92456
1175.187, 12.95226
1175.670, 12.85662
1176.152, 12.61396
1176.634, 12.47701
1177.116, 12.56452
1177.598, 12.64270
1178.080, 12.43636
1178.562, 12.12976
1179.044, 11.99366
1179.526, 11.96469
1180.009, 11.91967
1180.491, 11.88212
1180.973, 11.99359
1181.455, 12.23232
1181.937, 12.32009
1182.419, 12.09088
1182.901, 11.79158
1183.383, 11.57806
1183.865, 11.39249
1184.348, 11.13107
1184.830, 10.91845
1185.312, 10.95457
1185.794, 11.14261
1186.276, 11.24260
1186.758, 11.20676
1187.240, 11.13654
1187.722, 10.97601
1188.205, 10.91355
1188.687, 11.11866
1189.169, 11.29357
1189.651, 11.24470
1190.133, 11.11451
1190.615, 11.05132
1191.097, 11.04832
1191.579, 11.05315
1192.062, 11.06798
1192.544, 11.08489
1193.026, 11.12486
1193.508, 11.11594
1193.990, 11.01483
1194.472, 10.93371
1194.954, 10.94720
1195.436, 10.98760
1195.918, 10.96900
1196.401, 10.89217
1196.883, 10.72307
1197.365, 10.45082
1197.847, 10.41997
1198.329, 10.65689
1198.811, 10.76227
1199.293, 10.62563
1199.775, 10.45866
1200.257, 10.40352
1200.740, 10.38395
1201.222, 10.26172
1201.704, 10.10372
1202.186, 10.10526
1202.668, 10.20741
1203.150, 10.23377
1203.632, 10.19798
1204.114, 10.24609
1204.597, 10.40526
1205.079, 10.51789
1205.561, 10.47148
1206.043, 10.37960
1206.525, 10.27285
1207.007, 10.23905
1207.489, 10.45572
1207.971, 10.73618
1208.453, 10.83166
1208.936, 10.76529
1209.418, 10.66471
1209.900, 10.55923
1210.382, 10.47413
1210.864, 10.46629
1211.346, 10.40891
1211.828, 10.17769
1212.310, 9.991965
1212.792, 9.989309
1213.275, 10.07715
1213.757, 10.18104
1214.239, 10.28466
1214.721, 10.33854
1215.203, 10.34692
1215.685, 10.27194
1216.167, 10.05248
1216.649, 9.940588
1217.132, 10.01921
1217.614, 10.06890
1218.096, 9.960857
1218.578, 9.845626
1219.060, 9.910523
1219.542, 10.08925
1220.024, 10.16336
1220.506, 10.14507
1220.989, 10.14305
1221.471, 10.16072
1221.953, 10.19376
1222.435, 10.23781
1222.917, 10.27017
1223.399, 10.27903
1223.881, 10.27087
1224.363, 10.24419
1224.845, 10.21509
1225.328, 10.20835
1225.810, 10.21120
1226.292, 10.22201
1226.774, 10.21947
1227.256, 10.14660
1227.738, 10.01652
1228.220, 9.927122
1228.702, 9.918308
1229.184, 9.927800
1229.667, 9.883363
1230.149, 9.909533
1230.631, 10.21861
1231.113, 10.46017
1231.595, 10.26381
1232.077, 9.894162
1232.559, 9.774799
1233.041, 9.898481
1233.524, 9.956171
1234.006, 9.887959
1234.488, 9.916058
1234.970, 10.10222
1235.452, 10.22274
1235.934, 10.21020
1236.416, 10.16673
1236.898, 10.14851
1237.380, 10.15437
1237.863, 10.20061
1238.345, 10.24973
1238.827, 10.10389
1239.309, 9.804257
1239.791, 9.670993
1240.273, 9.695827
1240.755, 9.670167
1241.237, 9.560732
1241.719, 9.534939
1242.202, 9.687922
1242.684, 9.877119
1243.166, 9.992381
1243.648, 10.03099
1244.130, 9.936389
1244.612, 9.806903
1245.094, 9.776614
1245.576, 9.802172
1246.059, 9.776820
1246.541, 9.701549
1247.023, 9.674537
1247.505, 9.741842
1247.987, 9.789001
1248.469, 9.766247
1248.951, 9.743578
1249.433, 9.753775
1249.916, 9.758753
1250.398, 9.719919
1250.880, 9.676595
1251.362, 9.680455
1251.844, 9.723039
1252.326, 9.763918
1252.808, 9.814709
1253.290, 9.781857
1253.772, 9.644149
1254.255, 9.586763
1254.737, 9.649061
1255.219, 9.787782
1255.701, 9.985429
1256.183, 10.14424
1256.665, 10.14951
1257.147, 10.05338
1257.629, 9.900756
1258.111, 9.754608
1258.594, 9.801299
1259.076, 9.954136
1259.558, 9.980304
1260.040, 9.880916
1260.522, 9.819518
1261.004, 9.854538
1261.486, 9.906046
1261.968, 9.935754
1262.451, 9.960138
1262.933, 9.996535
1263.415, 10.01958
1263.897, 10.00841
1264.379, 9.978291
1264.861, 9.940221
1265.343, 9.898886
1265.825, 9.864125
1266.307, 9.835047
1266.790, 9.820129
1267.272, 9.814431
1267.754, 9.842303
1268.236, 9.917317
1268.718, 9.975828
1269.200, 9.987776
1269.682, 10.03214
1270.164, 10.19305
1270.646, 10.33977
1271.129, 10.16263
1271.611, 9.807587
1272.093, 9.797958
1272.575, 10.00214
1273.057, 10.03681
1273.539, 9.910249
1274.021, 9.782948
1274.503, 9.708274
1274.986, 9.699017
1275.468, 9.778030
1275.950, 9.845181
1276.432, 9.752441
1276.914, 9.733091
1277.396, 10.07992
1277.878, 10.41381
1278.360, 10.36537
1278.843, 10.11476
1279.325, 9.922953
1279.807, 9.815400
1280.289, 9.841379
1280.771, 10.09060
1281.253, 10.15061
1281.735, 9.936189
1282.217, 9.816227
1282.699, 9.869219
1283.182, 9.992190
1283.664, 10.15403
1284.146, 10.22242
1284.628, 10.03296
1285.110, 9.729401
1285.592, 9.571293
1286.074, 9.559272
##END=



