##NAMES=Sillimanite
##RRUFFID=R050601
##IDEAL CHEMISTRY=Al_2_OSiO_4_
##LOCALITY=Mogok, Burma
##OWNER=RRUFF
##SOURCE=Bill Larson
##DESCRIPTION=Tan colored cleavage fragment from a water worn pebble
##STATUS=The identification of this mineral has been confirmed by X-ray diffraction and chemical analysis
##URL=rruff.info/R050601
##MEASURED CHEMISTRY=(Al_1.99_Fe^3+^_0.01_)_Î£=2_Si_1.00_O_5_
92.06543, 9862.892
92.54755, 9649.395
93.02966, 9644.951
93.51178, 9904.658
93.99390, 10143.06
94.47601, 10350.29
94.95813, 10526.48
95.44025, 10671.30
95.92236, 10783.64
96.40448, 10858.42
96.88660, 10916.85
97.36871, 10967.58
97.85082, 11009.35
98.33294, 11040.22
98.81506, 11054.18
99.29717, 11039.06
99.77929, 11029.65
100.2614, 11028.82
100.7435, 11032.42
101.2256, 11038.19
101.7078, 11044.88
102.1899, 11051.02
102.6720, 11052.77
103.1541, 11057.71
103.6362, 11071.65
104.1183, 11093.84
104.6005, 11118.14
105.0826, 11139.84
105.5647, 11158.54
106.0468, 11174.99
106.5289, 11179.49
107.0110, 11183.70
107.4931, 11196.23
107.9753, 11219.27
108.4574, 11246.49
108.9395, 11264.75
109.4216, 11262.84
109.9037, 11268.58
110.3858, 11290.81
110.8680, 11318.84
111.3501, 11340.19
111.8322, 11347.70
112.3143, 11344.49
112.7964, 11351.54
113.2785, 11380.18
113.7607, 11405.99
114.2428, 11419.99
114.7249, 11425.44
115.2070, 11432.55
115.6891, 11449.92
116.1712, 11476.87
116.6534, 11493.83
117.1355, 11497.69
117.6176, 11494.50
118.0997, 11485.63
118.5818, 11470.67
119.0639, 11458.36
119.5461, 11459.77
120.0282, 11471.01
120.5103, 11481.46
120.9924, 11487.71
121.4745, 11490.96
121.9566, 11493.44
122.4388, 11493.06
122.9209, 11495.65
123.4030, 11508.15
123.8851, 11527.48
124.3672, 11543.02
124.8493, 11543.38
125.3315, 11527.03
125.8136, 11517.01
126.2957, 11521.12
126.7778, 11527.41
127.2599, 11532.25
127.7420, 11534.67
128.2242, 11534.87
128.7063, 11532.59
129.1884, 11525.26
129.6705, 11520.72
130.1526, 11521.98
130.6347, 11523.75
131.1169, 11520.90
131.5990, 11512.03
132.0811, 11500.92
132.5632, 11495.99
133.0453, 11505.22
133.5274, 11511.22
134.0096, 11512.03
134.4917, 11509.43
134.9738, 11505.73
135.4559, 11501.99
135.9380, 11498.12
136.4201, 11493.38
136.9023, 11482.96
137.3844, 11477.97
137.8665, 11487.38
138.3486, 11508.17
138.8307, 11526.08
139.3128, 11530.96
139.7950, 11528.47
140.2771, 11532.17
140.7592, 11545.59
141.2413, 11562.56
141.7234, 11578.33
142.2055, 11593.42
142.6877, 11604.04
143.1698, 11608.98
143.6519, 11608.00
144.1340, 11598.71
144.6161, 11576.88
145.0982, 11547.94
145.5803, 11525.98
146.0625, 11513.21
146.5446, 11504.72
147.0267, 11497.96
147.5088, 11493.48
147.9909, 11492.49
148.4730, 11496.48
148.9552, 11505.13
149.4373, 11511.46
149.9194, 11511.96
150.4015, 11513.28
150.8836, 11519.72
151.3657, 11528.75
151.8479, 11533.76
152.3300, 11527.47
152.8121, 11505.77
153.2942, 11498.71
153.7763, 11517.62
154.2584, 11537.85
154.7406, 11548.28
155.2227, 11547.61
155.7048, 11539.80
156.1869, 11527.93
156.6690, 11509.36
157.1511, 11497.97
157.6333, 11500.98
158.1154, 11506.96
158.5975, 11503.97
159.0796, 11489.24
159.5617, 11472.77
160.0438, 11470.61
160.5260, 11483.95
161.0081, 11489.91
161.4902, 11475.54
161.9723, 11451.60
162.4544, 11439.03
162.9365, 11446.13
163.4187, 11458.90
163.9008, 11460.56
164.3829, 11451.75
164.8650, 11442.66
165.3471, 11439.73
165.8292, 11441.97
166.3113, 11442.55
166.7935, 11438.71
167.2756, 11434.03
167.7577, 11431.62
168.2398, 11431.52
168.7219, 11431.21
169.2040, 11426.53
169.6862, 11415.91
170.1683, 11411.33
170.6504, 11424.36
171.1325, 11437.47
171.6146, 11439.58
172.0967, 11428.97
172.5789, 11413.90
173.0610, 11406.58
173.5431, 11411.28
174.0252, 11414.25
174.5073, 11417.83
174.9894, 11417.86
175.4716, 11409.06
175.9537, 11390.46
176.4358, 11367.93
176.9179, 11353.78
177.4000, 11358.59
177.8821, 11357.74
178.3643, 11345.21
178.8464, 11329.43
179.3285, 11319.24
179.8106, 11318.26
180.2927, 11323.46
180.7748, 11326.58
181.2570, 11327.80
181.7391, 11326.90
182.2212, 11321.72
182.7033, 11314.75
183.1854, 11310.54
183.6675, 11311.79
184.1497, 11315.63
184.6318, 11312.22
185.1139, 11296.38
185.5960, 11282.87
186.0781, 11278.00
186.5602, 11279.63
187.0423, 11281.87
187.5245, 11282.27
188.0066, 11281.15
188.4887, 11279.66
188.9708, 11277.74
189.4529, 11275.43
189.9350, 11272.78
190.4172, 11269.75
190.8993, 11265.89
191.3814, 11259.77
191.8635, 11253.37
192.3456, 11249.48
192.8277, 11248.99
193.3099, 11249.86
193.7920, 11251.90
194.2741, 11255.96
194.7562, 11254.64
195.2383, 11236.65
195.7204, 11215.30
196.2026, 11202.62
196.6847, 11203.01
197.1668, 11209.10
197.6489, 11210.52
198.1310, 11207.15
198.6131, 11199.25
199.0953, 11181.62
199.5774, 11162.45
200.0595, 11149.93
200.5416, 11147.50
201.0237, 11150.54
201.5058, 11148.27
201.9880, 11135.58
202.4701, 11126.81
202.9522, 11126.25
203.4343, 11129.44
203.9164, 11132.80
204.3985, 11134.78
204.8807, 11134.70
205.3628, 11130.03
205.8449, 11112.44
206.3270, 11101.30
206.8091, 11102.85
207.2912, 11110.23
207.7733, 11115.60
208.2555, 11115.03
208.7376, 11110.31
209.2197, 11108.09
209.7018, 11111.57
210.1839, 11114.10
210.6660, 11116.98
211.1482, 11118.13
211.6303, 11114.56
212.1124, 11104.64
212.5945, 11089.46
213.0766, 11072.85
213.5587, 11044.49
214.0409, 11026.61
214.5230, 11030.57
215.0051, 11047.40
215.4872, 11060.99
215.9693, 11062.76
216.4514, 11056.31
216.9336, 11055.62
217.4157, 11067.31
217.8978, 11074.94
218.3799, 11070.92
218.8620, 11058.55
219.3441, 11045.31
219.8263, 11033.56
220.3084, 11024.75
220.7905, 11022.26
221.2726, 11028.15
221.7547, 11035.76
222.2368, 11042.78
222.7190, 11049.11
223.2011, 11054.09
223.6832, 11056.93
224.1653, 11058.69
224.6474, 11061.67
225.1295, 11066.47
225.6117, 11071.04
226.0938, 11070.82
226.5759, 11067.13
227.0580, 11071.99
227.5401, 11095.00
228.0222, 11125.31
228.5043, 11147.70
228.9865, 11159.09
229.4686, 11171.68
229.9507, 11192.44
230.4328, 11221.33
230.9149, 11263.38
231.3970, 11317.24
231.8792, 11389.07
232.3613, 11483.46
232.8434, 11601.14
233.3255, 11738.91
233.8076, 11918.91
234.2897, 12150.94
234.7719, 12311.74
235.2540, 12378.04
235.7361, 12351.93
236.2182, 12197.49
236.7003, 11914.98
237.1824, 11604.15
237.6646, 11365.69
238.1467, 11205.12
238.6288, 11079.89
239.1109, 11003.16
239.5930, 10947.96
240.0751, 10904.46
240.5573, 10870.22
241.0394, 10844.16
241.5215, 10827.63
242.0036, 10824.11
242.4857, 10815.35
242.9678, 10792.78
243.4500, 10770.72
243.9321, 10757.23
244.4142, 10752.50
244.8963, 10750.55
245.3784, 10744.35
245.8605, 10732.15
246.3427, 10722.35
246.8248, 10716.07
247.3069, 10711.23
247.7890, 10707.61
248.2711, 10704.80
248.7532, 10702.18
249.2354, 10699.83
249.7175, 10699.67
250.1996, 10691.20
250.6817, 10664.75
251.1638, 10639.68
251.6459, 10625.35
252.1281, 10621.40
252.6102, 10621.90
253.0923, 10621.14
253.5744, 10618.49
254.0565, 10618.28
254.5386, 10624.17
255.0208, 10628.59
255.5029, 10627.11
255.9850, 10620.63
256.4671, 10613.54
256.9492, 10609.92
257.4313, 10610.45
257.9135, 10605.89
258.3956, 10591.45
258.8777, 10577.72
259.3598, 10570.17
259.8419, 10567.47
260.3240, 10564.81
260.8062, 10558.78
261.2883, 10549.37
261.7704, 10537.57
262.2525, 10520.23
262.7346, 10504.20
263.2167, 10492.89
263.6989, 10485.29
264.1810, 10478.32
264.6631, 10469.70
265.1452, 10460.03
265.6273, 10454.61
266.1094, 10457.93
266.5916, 10459.88
267.0737, 10455.45
267.5558, 10446.83
268.0379, 10439.22
268.5200, 10435.59
269.0021, 10435.00
269.4843, 10433.49
269.9664, 10430.64
270.4485, 10427.56
270.9306, 10425.40
271.4127, 10423.21
271.8948, 10418.76
272.3770, 10410.66
272.8591, 10400.30
273.3412, 10391.06
273.8233, 10383.17
274.3054, 10375.44
274.7875, 10365.95
275.2697, 10356.52
275.7518, 10351.91
276.2339, 10355.06
276.7160, 10360.33
277.1981, 10355.54
277.6802, 10338.92
278.1623, 10324.33
278.6444, 10316.86
279.1266, 10313.67
279.6087, 10310.20
280.0908, 10305.30
280.5729, 10299.98
281.0550, 10295.83
281.5371, 10292.90
282.0193, 10289.39
282.5014, 10285.48
282.9835, 10280.53
283.4656, 10272.70
283.9477, 10261.15
284.4298, 10249.78
284.9120, 10242.52
285.3941, 10238.96
285.8762, 10238.44
286.3583, 10244.17
286.8404, 10251.28
287.3225, 10253.48
287.8047, 10249.88
288.2868, 10244.30
288.7689, 10238.73
289.2510, 10233.51
289.7331, 10229.79
290.2152, 10226.40
290.6974, 10225.45
291.1795, 10231.29
291.6616, 10244.25
292.1437, 10255.06
292.6258, 10258.30
293.1079, 10254.89
293.5901, 10247.22
294.0722, 10229.37
294.5543, 10214.15
295.0364, 10215.44
295.5185, 10232.27
296.0006, 10246.67
296.4828, 10246.13
296.9649, 10240.95
297.4470, 10250.10
297.9291, 10279.92
298.4112, 10310.46
298.8933, 10326.55
299.3755, 10330.25
299.8576, 10334.06
300.3397, 10339.47
300.8218, 10349.97
301.3039, 10369.16
301.7860, 10397.36
302.2682, 10430.36
302.7503, 10467.34
303.2324, 10507.65
303.7145, 10548.61
304.1966, 10587.77
304.6787, 10631.37
305.1609, 10684.21
305.6430, 10745.90
306.1251, 10817.73
306.6072, 10899.47
307.0893, 10991.91
307.5714, 11101.76
308.0536, 11237.03
308.5357, 11368.88
309.0178, 11490.52
309.4999, 11593.50
309.9820, 11639.88
310.4641, 11607.71
310.9463, 11515.71
311.4284, 11379.85
311.9105, 11194.36
312.3926, 11001.33
312.8747, 10813.95
313.3568, 10641.18
313.8390, 10503.82
314.3211, 10417.04
314.8032, 10355.63
315.2853, 10294.64
315.7674, 10234.10
316.2495, 10180.98
316.7317, 10138.14
317.2138, 10105.50
317.6959, 10083.52
318.1780, 10076.13
318.6601, 10069.26
319.1422, 10051.41
319.6243, 10024.00
320.1064, 9997.033
320.5886, 9972.356
321.0707, 9950.943
321.5528, 9933.518
322.0349, 9920.088
322.5170, 9908.412
322.9991, 9897.017
323.4813, 9886.457
323.9634, 9879.502
324.4455, 9879.348
324.9276, 9877.126
325.4097, 9860.239
325.8918, 9831.947
326.3740, 9809.023
326.8561, 9801.261
327.3382, 9801.170
327.8203, 9796.848
328.3024, 9787.024
328.7845, 9775.286
329.2667, 9761.705
329.7488, 9748.279
330.2309, 9740.455
330.7130, 9746.105
331.1951, 9752.920
331.6772, 9745.982
332.1594, 9725.521
332.6415, 9708.123
333.1236, 9704.393
333.6057, 9708.596
334.0878, 9707.699
334.5699, 9699.572
335.0521, 9689.485
335.5342, 9679.162
336.0163, 9669.217
336.4984, 9662.645
336.9805, 9662.026
337.4626, 9663.142
337.9448, 9659.555
338.4269, 9651.119
338.9090, 9640.963
339.3911, 9628.189
339.8732, 9614.928
340.3553, 9606.277
340.8375, 9604.188
341.3196, 9603.002
341.8017, 9595.525
342.2838, 9582.457
342.7659, 9571.014
343.2480, 9562.947
343.7302, 9556.898
344.2123, 9551.768
344.6944, 9547.458
345.1765, 9543.467
345.6586, 9539.025
346.1407, 9534.620
346.6229, 9532.396
347.1050, 9534.174
347.5871, 9536.501
348.0692, 9539.300
348.5513, 9541.446
349.0334, 9538.085
349.5156, 9525.541
349.9977, 9507.389
350.4798, 9493.552
350.9619, 9485.258
351.4440, 9477.888
351.9261, 9469.982
352.4083, 9462.180
352.8904, 9455.839
353.3725, 9451.557
353.8546, 9447.673
354.3367, 9441.221
354.8188, 9430.927
355.3010, 9423.775
355.7831, 9422.914
356.2652, 9423.896
356.7473, 9424.393
357.2294, 9423.566
357.7115, 9417.948
358.1937, 9402.882
358.6758, 9377.854
359.1579, 9361.146
359.6400, 9355.759
360.1221, 9354.719
360.6042, 9359.189
361.0863, 9365.665
361.5685, 9364.674
362.0506, 9349.694
362.5327, 9325.416
363.0148, 9311.338
363.4969, 9317.992
363.9790, 9321.006
364.4612, 9314.592
364.9433, 9303.653
365.4254, 9293.866
365.9075, 9287.140
366.3896, 9282.397
366.8717, 9278.042
367.3539, 9274.629
367.8360, 9270.334
368.3181, 9262.401
368.8002, 9255.760
369.2823, 9255.420
369.7644, 9260.482
370.2466, 9264.999
370.7287, 9263.354
371.2108, 9255.101
371.6929, 9247.748
372.1750, 9242.144
372.6571, 9236.340
373.1393, 9228.799
373.6214, 9220.729
374.1035, 9214.467
374.5856, 9211.448
375.0677, 9210.323
375.5498, 9206.419
376.0320, 9194.834
376.5141, 9187.916
376.9962, 9192.971
377.4783, 9199.106
377.9604, 9195.786
378.4425, 9180.881
378.9247, 9161.421
379.4068, 9145.513
379.8889, 9131.722
380.3710, 9126.857
380.8531, 9143.815
381.3352, 9158.150
381.8174, 9157.177
382.2995, 9143.753
382.7816, 9128.814
383.2637, 9120.742
383.7458, 9118.295
384.2279, 9112.338
384.7101, 9096.499
385.1922, 9087.315
385.6743, 9095.054
386.1564, 9109.266
386.6385, 9117.119
387.1206, 9113.186
387.6028, 9103.270
388.0849, 9096.563
388.5670, 9094.033
389.0491, 9090.157
389.5312, 9084.095
390.0133, 9075.782
390.4955, 9063.871
390.9776, 9048.667
391.4597, 9034.076
391.9418, 9023.811
392.4239, 9017.035
392.9060, 9008.631
393.3882, 8996.243
393.8703, 8985.878
394.3524, 8982.897
394.8345, 8984.600
395.3166, 8985.210
395.7987, 8981.322
396.2809, 8976.315
396.7630, 8976.700
397.2451, 8983.133
397.7272, 8984.660
398.2093, 8973.678
398.6914, 8956.281
399.1736, 8942.040
399.6557, 8931.160
400.1378, 8923.417
400.6199, 8920.105
401.1020, 8919.834
401.5841, 8918.356
402.0662, 8914.034
402.5483, 8910.334
403.0305, 8913.000
403.5126, 8921.535
403.9947, 8926.656
404.4768, 8920.535
404.9589, 8914.361
405.4410, 8921.979
405.9232, 8942.333
406.4053, 8959.476
406.8874, 8962.072
407.3695, 8953.065
407.8516, 8948.564
408.3337, 8955.419
408.8159, 8958.257
409.2980, 8952.203
409.7801, 8939.120
410.2622, 8920.865
410.7443, 8897.795
411.2264, 8872.720
411.7086, 8849.427
412.1907, 8825.895
412.6728, 8810.770
413.1549, 8809.396
413.6370, 8811.842
414.1191, 8813.051
414.6013, 8811.946
415.0834, 8807.940
415.5655, 8799.998
416.0476, 8788.537
416.5297, 8781.644
417.0118, 8786.784
417.4940, 8787.996
417.9761, 8779.149
418.4582, 8766.147
418.9403, 8756.507
419.4224, 8753.041
419.9045, 8753.004
420.3867, 8751.713
420.8688, 8748.857
421.3509, 8745.654
421.8330, 8742.250
422.3151, 8738.534
422.7972, 8735.342
423.2794, 8732.027
423.7615, 8726.393
424.2436, 8715.748
424.7257, 8701.154
425.2078, 8689.939
425.6899, 8684.194
426.1721, 8678.222
426.6542, 8667.830
427.1363, 8656.854
427.6184, 8650.664
428.1005, 8651.632
428.5826, 8654.103
429.0648, 8649.945
429.5469, 8638.990
430.0290, 8631.968
430.5111, 8633.035
430.9932, 8636.932
431.4753, 8639.908
431.9575, 8641.798
432.4396, 8641.162
432.9217, 8636.563
433.4038, 8629.308
433.8859, 8620.124
434.3680, 8608.552
434.8502, 8600.713
435.3323, 8603.639
435.8144, 8612.510
436.2965, 8613.482
436.7786, 8601.186
437.2607, 8588.406
437.7429, 8583.518
438.2250, 8583.174
438.7071, 8579.334
439.1892, 8569.257
439.6713, 8556.564
440.1534, 8546.184
440.6356, 8538.565
441.1177, 8531.397
441.5998, 8520.979
442.0819, 8513.847
442.5640, 8518.406
443.0461, 8531.820
443.5282, 8542.275
444.0103, 8541.741
444.4925, 8531.795
444.9746, 8521.002
445.4567, 8505.486
445.9388, 8494.064
446.4209, 8488.820
446.9030, 8487.577
447.3852, 8489.842
447.8673, 8494.725
448.3494, 8498.297
448.8315, 8494.737
449.3136, 8481.860
449.7957, 8472.678
450.2779, 8468.542
450.7600, 8466.763
451.2421, 8466.374
451.7242, 8467.701
452.2063, 8472.570
452.6884, 8483.064
453.1706, 8494.662
453.6527, 8494.420
454.1348, 8476.604
454.6169, 8465.174
455.0990, 8475.108
455.5811, 8487.703
456.0633, 8489.857
456.5454, 8480.548
457.0275, 8468.318
457.5096, 8459.770
457.9917, 8453.419
458.4738, 8442.840
458.9560, 8425.784
459.4381, 8409.823
459.9202, 8402.831
460.4023, 8400.086
460.8844, 8391.982
461.3665, 8371.349
461.8487, 8352.944
462.3308, 8351.010
462.8129, 8361.051
463.2950, 8367.346
463.7771, 8364.612
464.2592, 8356.900
464.7414, 8349.580
465.2235, 8342.810
465.7056, 8334.999
466.1877, 8324.573
466.6698, 8314.009
467.1519, 8304.188
467.6341, 8295.794
468.1162, 8291.692
468.5983, 8294.639
469.0804, 8302.086
469.5625, 8302.021
470.0446, 8283.109
470.5268, 8271.193
471.0089, 8273.753
471.4910, 8281.024
471.9731, 8284.484
472.4552, 8282.246
472.9373, 8276.780
473.4195, 8270.194
473.9016, 8262.227
474.3837, 8256.460
474.8658, 8252.821
475.3479, 8251.658
475.8300, 8256.420
476.3122, 8262.587
476.7943, 8262.952
477.2764, 8253.919
477.7585, 8242.026
478.2406, 8238.389
478.7227, 8244.268
479.2049, 8246.679
479.6870, 8238.891
480.1691, 8231.678
480.6512, 8234.107
481.1333, 8244.471
481.6154, 8254.046
482.0976, 8259.836
482.5797, 8261.921
483.0618, 8260.998
483.5439, 8257.166
484.0260, 8247.531
484.5081, 8228.349
484.9902, 8203.873
485.4724, 8183.418
485.9545, 8168.230
486.4366, 8153.044
486.9187, 8133.774
487.4008, 8114.340
487.8829, 8099.745
488.3651, 8090.745
488.8472, 8086.491
489.3293, 8087.466
489.8114, 8093.573
490.2935, 8093.092
490.7756, 8083.453
491.2578, 8071.540
491.7399, 8057.482
492.2220, 8042.978
492.7041, 8030.048
493.1862, 8019.423
493.6683, 8010.445
494.1505, 8001.899
494.6326, 7993.084
495.1147, 7987.653
495.5968, 7990.199
496.0789, 7991.733
496.5610, 7989.325
497.0432, 7983.423
497.5253, 7974.591
498.0074, 7962.298
498.4895, 7949.751
498.9716, 7944.087
499.4537, 7946.709
499.9359, 7947.144
500.4180, 7941.167
500.9001, 7933.655
501.3822, 7928.792
501.8643, 7926.388
502.3464, 7923.919
502.8286, 7920.008
503.3107, 7915.377
503.7928, 7911.508
504.2749, 7908.452
504.7570, 7903.854
505.2391, 7895.750
505.7213, 7885.781
506.2034, 7878.477
506.6855, 7874.560
507.1676, 7871.188
507.6497, 7867.384
508.1318, 7863.833
508.6140, 7862.172
509.0961, 7862.194
509.5782, 7860.582
510.0603, 7853.736
510.5424, 7842.163
511.0245, 7836.842
511.5067, 7847.096
511.9888, 7852.325
512.4709, 7848.493
512.9530, 7838.272
513.4351, 7821.918
513.9172, 7800.663
514.3994, 7781.446
514.8815, 7773.944
515.3636, 7779.249
515.8457, 7781.810
516.3278, 7782.706
516.8099, 7779.097
517.2921, 7767.224
517.7742, 7751.405
518.2563, 7737.738
518.7384, 7727.723
519.2205, 7721.851
519.7026, 7723.646
520.1848, 7731.582
520.6669, 7733.372
521.1490, 7725.071
521.6311, 7712.723
522.1132, 7700.344
522.5953, 7688.354
523.0775, 7680.880
523.5596, 7683.069
524.0417, 7685.999
524.5238, 7682.929
525.0059, 7675.440
525.4880, 7668.129
525.9702, 7662.829
526.4523, 7658.995
526.9344, 7655.755
527.4165, 7653.617
527.8986, 7650.929
528.3807, 7648.650
528.8629, 7645.072
529.3450, 7637.815
529.8271, 7628.615
530.3092, 7621.853
530.7913, 7620.302
531.2734, 7621.013
531.7556, 7615.890
532.2377, 7601.720
532.7198, 7590.912
533.2019, 7589.813
533.6840, 7588.764
534.1661, 7580.811
534.6483, 7567.445
535.1304, 7556.391
535.6125, 7554.134
536.0946, 7555.507
536.5767, 7549.161
537.0588, 7534.478
537.5410, 7525.274
538.0231, 7530.154
538.5052, 7540.239
538.9873, 7541.237
539.4694, 7532.286
539.9515, 7523.060
540.4337, 7515.738
540.9158, 7509.725
541.3979, 7504.972
541.8800, 7501.163
542.3621, 7497.111
542.8442, 7492.217
543.3264, 7486.392
543.8085, 7479.197
544.2906, 7466.096
544.7726, 7458.253
545.2548, 7464.659
545.7369, 7469.522
546.2190, 7456.945
546.7011, 7430.427
547.1832, 7407.360
547.6653, 7401.627
548.1475, 7409.182
548.6296, 7414.960
549.1117, 7420.078
549.5938, 7420.440
550.0759, 7409.092
550.5580, 7396.187
551.0402, 7390.286
551.5223, 7391.693
552.0044, 7392.388
552.4865, 7385.878
552.9686, 7376.291
553.4507, 7371.037
553.9329, 7370.434
554.4150, 7371.770
554.8971, 7375.420
555.3792, 7378.633
555.8613, 7373.126
556.3434, 7354.331
556.8256, 7339.998
557.3077, 7335.358
557.7898, 7335.261
558.2719, 7336.212
558.7540, 7337.374
559.2361, 7338.458
559.7183, 7339.456
560.2004, 7339.856
560.6825, 7337.630
561.1646, 7333.826
561.6467, 7325.230
562.1288, 7307.366
562.6110, 7288.568
563.0931, 7273.431
563.5752, 7262.849
564.0573, 7256.935
564.5394, 7258.730
565.0215, 7263.687
565.5037, 7258.038
565.9858, 7239.569
566.4679, 7225.008
566.9500, 7221.638
567.4321, 7224.491
567.9142, 7227.337
568.3964, 7230.310
568.8785, 7231.504
569.3606, 7228.440
569.8427, 7224.512
570.3248, 7224.101
570.8069, 7226.457
571.2891, 7226.571
571.7712, 7221.308
572.2533, 7213.374
572.7354, 7209.993
573.2175, 7219.714
573.6996, 7218.287
574.1818, 7192.513
574.6639, 7167.932
575.1460, 7162.253
575.6281, 7171.146
576.1102, 7180.131
576.5923, 7180.757
577.0745, 7176.376
577.5566, 7174.736
578.0387, 7176.819
578.5208, 7176.341
579.0029, 7171.646
579.4850, 7164.381
579.9672, 7152.983
580.4493, 7139.487
580.9314, 7132.483
581.4135, 7141.342
581.8956, 7152.845
582.3777, 7154.041
582.8599, 7146.803
583.3420, 7136.702
583.8241, 7124.478
584.3062, 7115.762
584.7883, 7119.619
585.2704, 7140.361
585.7526, 7152.290
586.2347, 7149.117
586.7168, 7144.567
587.1989, 7142.787
587.6810, 7144.093
588.1631, 7149.307
588.6453, 7158.487
589.1274, 7168.220
589.6095, 7172.528
590.0916, 7170.361
590.5737, 7172.850
591.0558, 7183.052
591.5380, 7193.711
592.0201, 7203.454
592.5022, 7210.795
592.9843, 7212.811
593.4664, 7207.841
593.9485, 7201.083
594.4307, 7197.226
594.9128, 7194.492
595.3949, 7189.301
595.8770, 7181.205
596.3591, 7168.411
596.8412, 7147.878
597.3234, 7121.253
597.8055, 7100.907
598.2876, 7091.447
598.7697, 7081.169
599.2518, 7067.572
599.7339, 7052.655
600.2161, 7037.548
600.6982, 7022.837
601.1803, 7009.530
601.6624, 6998.267
602.1445, 6989.034
602.6266, 6982.699
603.1088, 6981.112
603.5909, 6977.470
604.0730, 6968.647
604.5551, 6957.975
605.0372, 6947.376
605.5193, 6937.019
606.0015, 6927.358
606.4836, 6918.469
606.9657, 6910.395
607.4478, 6903.636
607.9299, 6897.971
608.4120, 6891.860
608.8942, 6884.580
609.3763, 6877.157
609.8584, 6871.056
610.3405, 6866.491
610.8226, 6863.105
611.3047, 6864.459
611.7869, 6863.414
612.2690, 6855.897
612.7511, 6844.035
613.2332, 6830.517
613.7153, 6816.514
614.1974, 6804.215
614.6796, 6797.374
615.1617, 6796.293
615.6438, 6793.581
616.1259, 6787.651
616.6080, 6782.444
617.0901, 6780.707
617.5723, 6780.592
618.0544, 6779.763
618.5365, 6778.052
619.0186, 6774.624
619.5007, 6768.031
619.9828, 6759.702
620.4650, 6750.864
620.9471, 6741.986
621.4292, 6736.212
621.9113, 6736.249
622.3934, 6740.284
622.8755, 6741.392
623.3577, 6736.683
623.8398, 6733.138
624.3219, 6734.146
624.8040, 6733.615
625.2861, 6725.676
625.7682, 6712.565
626.2504, 6701.283
626.7325, 6696.078
627.2145, 6694.527
627.6967, 6693.175
628.1788, 6692.158
628.6609, 6687.548
629.1430, 6675.526
629.6251, 6664.534
630.1072, 6666.771
630.5894, 6677.461
631.0715, 6678.306
631.5536, 6655.532
632.0357, 6634.384
632.5178, 6629.576
632.9999, 6633.960
633.4821, 6637.256
633.9642, 6636.839
634.4463, 6633.901
634.9284, 6629.635
635.4105, 6623.931
635.8926, 6615.092
636.3748, 6599.261
636.8569, 6586.610
637.3390, 6580.646
637.8211, 6576.913
638.3032, 6571.540
638.7853, 6564.565
639.2675, 6559.009
639.7496, 6557.335
640.2317, 6557.902
640.7138, 6559.043
641.1959, 6560.530
641.6780, 6559.347
642.1602, 6554.169
642.6423, 6546.555
643.1244, 6537.699
643.6065, 6526.958
644.0886, 6520.060
644.5707, 6520.310
645.0529, 6520.704
645.5350, 6518.363
646.0171, 6514.364
646.4992, 6510.235
646.9813, 6506.482
647.4634, 6502.951
647.9456, 6499.697
648.4277, 6496.614
648.9098, 6492.505
649.3919, 6487.367
649.8740, 6481.172
650.3561, 6473.017
650.8383, 6464.324
651.3204, 6456.862
651.8025, 6450.778
652.2846, 6444.683
652.7667, 6436.728
653.2488, 6429.546
653.7310, 6427.866
654.2131, 6429.520
654.6952, 6425.852
655.1773, 6412.938
655.6594, 6398.376
656.1415, 6394.958
656.6237, 6406.342
657.1058, 6411.929
657.5879, 6407.800
658.0700, 6401.921
658.5521, 6396.108
659.0342, 6389.820
659.5164, 6381.202
659.9985, 6369.895
660.4806, 6360.848
660.9627, 6361.269
661.4448, 6366.169
661.9269, 6362.974
662.4091, 6351.031
662.8912, 6338.250
663.3733, 6327.962
663.8554, 6319.620
664.3375, 6312.028
664.8196, 6304.309
665.3018, 6300.196
665.7839, 6301.646
666.2660, 6304.849
666.7481, 6309.806
667.2302, 6314.553
667.7123, 6316.425
668.1945, 6314.416
668.6766, 6308.909
669.1587, 6297.788
669.6408, 6281.866
670.1229, 6274.834
670.6050, 6280.115
671.0872, 6285.209
671.5693, 6283.368
672.0514, 6277.819
672.5335, 6274.710
673.0156, 6275.148
673.4977, 6272.804
673.9799, 6263.864
674.4620, 6252.954
674.9441, 6242.246
675.4262, 6232.915
675.9083, 6227.580
676.3904, 6227.384
676.8726, 6229.545
677.3547, 6230.163
677.8368, 6229.590
678.3189, 6224.985
678.8010, 6213.666
679.2831, 6202.164
679.7653, 6193.637
680.2474, 6186.177
680.7295, 6176.385
681.2116, 6163.286
681.6937, 6153.950
682.1758, 6155.669
682.6580, 6161.351
683.1401, 6161.083
683.6222, 6155.620
684.1043, 6152.321
684.5864, 6154.998
685.0685, 6158.755
685.5507, 6154.401
686.0328, 6138.506
686.5149, 6128.188
686.9970, 6126.621
687.4791, 6127.186
687.9612, 6131.954
688.4434, 6135.868
688.9255, 6130.748
689.4076, 6115.024
689.8897, 6100.917
690.3718, 6101.378
690.8539, 6108.735
691.3361, 6106.860
691.8182, 6095.772
692.3003, 6085.829
692.7824, 6081.527
693.2645, 6080.412
693.7466, 6078.675
694.2288, 6076.173
694.7109, 6073.753
695.1930, 6070.577
695.6751, 6068.485
696.1572, 6070.736
696.6393, 6073.178
697.1215, 6069.354
697.6036, 6058.401
698.0857, 6047.366
698.5678, 6042.507
699.0499, 6042.329
699.5320, 6043.355
700.0142, 6045.707
700.4963, 6045.604
700.9784, 6040.832
701.4605, 6034.454
701.9426, 6030.999
702.4247, 6031.127
702.9069, 6028.884
703.3890, 6020.453
703.8711, 6013.995
704.3532, 6013.479
704.8353, 6016.334
705.3174, 6019.632
705.7996, 6022.624
706.2817, 6025.811
706.7638, 6029.688
707.2459, 6034.040
707.7280, 6038.273
708.2101, 6042.423
708.6923, 6046.588
709.1743, 6052.529
709.6564, 6055.872
710.1385, 6050.634
710.6207, 6037.470
711.1028, 6024.710
711.5849, 6013.184
712.0670, 6001.632
712.5491, 5989.356
713.0313, 5976.903
713.5134, 5964.916
713.9955, 5953.397
714.4776, 5941.690
714.9597, 5928.409
715.4418, 5916.026
715.9240, 5913.605
716.4061, 5923.158
716.8882, 5924.120
717.3703, 5907.251
717.8524, 5889.594
718.3345, 5888.453
718.8167, 5898.432
719.2988, 5900.495
719.7809, 5887.453
720.2630, 5875.148
720.7451, 5870.218
721.2272, 5867.774
721.7094, 5861.945
722.1915, 5853.551
722.6736, 5848.628
723.1557, 5851.270
723.6378, 5856.278
724.1199, 5851.424
724.6021, 5835.367
725.0842, 5826.562
725.5663, 5830.236
726.0484, 5834.185
726.5305, 5829.932
727.0126, 5821.111
727.4948, 5815.586
727.9769, 5815.433
728.4590, 5813.069
728.9411, 5802.415
729.4232, 5791.820
729.9053, 5788.504
730.3875, 5791.246
730.8696, 5797.265
731.3517, 5805.229
731.8338, 5810.555
732.3159, 5804.282
732.7980, 5786.476
733.2802, 5777.652
733.7623, 5781.902
734.2444, 5783.482
734.7265, 5773.340
735.2086, 5758.793
735.6907, 5750.642
736.1729, 5749.457
736.6550, 5746.875
737.1371, 5738.461
737.6192, 5730.966
738.1013, 5729.466
738.5834, 5731.157
739.0656, 5731.257
739.5477, 5728.685
740.0298, 5725.897
740.5119, 5725.646
740.9940, 5726.852
741.4761, 5725.105
741.9583, 5720.252
742.4404, 5712.650
742.9225, 5699.739
743.4046, 5687.751
743.8867, 5685.021
744.3688, 5689.502
744.8510, 5689.380
745.3331, 5678.569
745.8152, 5669.546
746.2973, 5669.041
746.7794, 5670.573
747.2615, 5665.498
747.7437, 5655.466
748.2258, 5650.553
748.7079, 5657.765
749.1900, 5669.498
749.6721, 5671.834
750.1542, 5664.901
750.6364, 5655.310
751.1185, 5642.325
751.6006, 5631.525
752.0827, 5626.960
752.5648, 5626.782
753.0469, 5625.953
753.5291, 5624.335
754.0112, 5622.377
754.4933, 5619.953
754.9754, 5617.285
755.4575, 5614.242
755.9396, 5611.095
756.4218, 5608.702
756.9039, 5607.217
757.3860, 5604.786
757.8681, 5599.281
758.3502, 5591.249
758.8323, 5581.989
759.3145, 5571.400
759.7966, 5562.440
760.2787, 5555.646
760.7608, 5552.428
761.2429, 5555.978
761.7250, 5567.425
762.2072, 5572.440
762.6893, 5567.038
763.1714, 5560.910
763.6535, 5557.182
764.1356, 5553.097
764.6177, 5544.750
765.0999, 5533.120
765.5820, 5523.486
766.0641, 5519.085
766.5462, 5517.542
767.0283, 5515.251
767.5104, 5513.065
767.9926, 5515.877
768.4747, 5524.635
768.9568, 5530.735
769.4389, 5527.453
769.9210, 5517.769
770.4031, 5511.873
770.8853, 5514.123
771.3674, 5511.550
771.8495, 5500.729
772.3316, 5489.049
772.8137, 5477.389
773.2958, 5467.830
773.7780, 5464.190
774.2601, 5467.644
774.7422, 5471.251
775.2243, 5471.446
775.7064, 5468.871
776.1885, 5462.376
776.6707, 5453.670
777.1528, 5449.172
777.6349, 5451.092
778.1170, 5453.907
778.5991, 5450.497
779.0812, 5441.318
779.5634, 5436.485
780.0455, 5437.625
780.5276, 5439.421
781.0097, 5442.890
781.4918, 5444.444
781.9739, 5438.880
782.4561, 5428.511
782.9382, 5423.472
783.4203, 5430.938
783.9024, 5436.801
784.3845, 5433.345
784.8666, 5425.301
785.3488, 5416.770
785.8309, 5408.958
786.3130, 5403.193
786.7951, 5400.292
787.2772, 5398.974
787.7593, 5397.910
788.2415, 5397.048
788.7236, 5392.464
789.2057, 5382.796
789.6878, 5373.832
790.1699, 5368.019
790.6520, 5364.882
791.1342, 5364.108
791.6162, 5366.093
792.0983, 5367.754
792.5804, 5369.481
793.0626, 5370.169
793.5447, 5367.884
794.0268, 5365.181
794.5089, 5366.305
794.9910, 5370.741
795.4731, 5372.550
795.9553, 5367.437
796.4374, 5358.034
796.9195, 5346.408
797.4016, 5333.644
797.8837, 5325.995
798.3658, 5324.749
798.8480, 5323.222
799.3301, 5316.298
799.8122, 5305.747
800.2943, 5297.621
800.7764, 5293.155
801.2585, 5288.443
801.7407, 5281.888
802.2228, 5276.880
802.7049, 5275.297
803.1870, 5275.866
803.6691, 5277.555
804.1512, 5280.334
804.6334, 5280.933
805.1155, 5274.071
805.5976, 5267.509
806.0797, 5271.317
806.5618, 5280.511
807.0439, 5283.512
807.5261, 5277.553
808.0082, 5269.193
808.4903, 5264.555
808.9724, 5262.494
809.4545, 5257.983
809.9366, 5250.085
810.4188, 5246.521
810.9009, 5251.049
811.3830, 5255.435
811.8651, 5253.511
812.3472, 5246.523
812.8293, 5238.910
813.3115, 5228.206
813.7936, 5222.119
814.2757, 5228.083
814.7578, 5232.706
815.2399, 5224.946
815.7220, 5211.057
816.2042, 5202.333
816.6863, 5201.875
817.1684, 5203.805
817.6505, 5203.159
818.1326, 5201.553
818.6147, 5203.529
819.0969, 5207.821
819.5790, 5206.524
820.0611, 5197.165
820.5432, 5186.362
821.0253, 5180.332
821.5074, 5178.526
821.9896, 5177.669
822.4717, 5178.902
822.9538, 5178.399
823.4359, 5174.858
823.9180, 5170.412
824.4001, 5166.231
824.8823, 5162.013
825.3644, 5157.396
825.8465, 5152.718
826.3286, 5146.172
826.8107, 5132.779
827.2928, 5121.129
827.7750, 5120.069
828.2571, 5125.712
828.7392, 5130.818
829.2213, 5132.922
829.7034, 5131.828
830.1855, 5125.785
830.6677, 5117.532
831.1498, 5117.163
831.6319, 5124.269
832.1140, 5123.109
832.5961, 5108.267
833.0782, 5092.683
833.5604, 5086.619
834.0425, 5088.398
834.5246, 5091.023
835.0067, 5098.121
835.4888, 5099.624
835.9709, 5091.468
836.4531, 5082.517
836.9352, 5076.412
837.4173, 5072.013
837.8994, 5066.946
838.3815, 5060.756
838.8636, 5056.490
839.3458, 5055.847
839.8279, 5057.676
840.3100, 5063.066
840.7921, 5069.529
841.2742, 5073.196
841.7563, 5072.836
842.2385, 5066.342
842.7206, 5050.116
843.2027, 5031.421
843.6848, 5033.452
844.1669, 5056.886
844.6490, 5062.711
845.1312, 5041.056
845.6133, 5020.501
846.0954, 5019.865
846.5775, 5029.674
847.0596, 5028.469
847.5417, 5009.332
848.0239, 5000.799
848.5060, 5010.344
848.9881, 5020.915
849.4702, 5034.203
849.9523, 5041.033
850.4344, 5026.435
850.9166, 4993.489
851.3987, 4967.875
851.8808, 4964.772
852.3629, 4968.511
852.8450, 4966.719
853.3271, 4962.755
853.8093, 4963.645
854.2914, 4968.539
854.7735, 4968.729
855.2556, 4959.136
855.7377, 4947.087
856.2198, 4946.201
856.7020, 4955.848
857.1841, 4959.923
857.6662, 4957.765
858.1483, 4951.494
858.6304, 4938.983
859.1125, 4927.983
859.5947, 4929.745
860.0768, 4944.360
860.5589, 4949.833
861.0410, 4936.028
861.5231, 4927.610
862.0052, 4928.879
862.4874, 4934.901
862.9695, 4944.623
863.4516, 4956.000
863.9337, 4965.389
864.4158, 4971.762
864.8979, 4976.612
865.3801, 4978.567
865.8622, 4981.264
866.3443, 4990.770
866.8264, 5003.977
867.3085, 5011.769
867.7906, 5012.218
868.2728, 5013.399
868.7549, 5023.590
869.2370, 5039.120
869.7191, 5049.775
870.2012, 5055.554
870.6833, 5059.007
871.1655, 5060.558
871.6476, 5060.036
872.1297, 5057.872
872.6118, 5052.907
873.0939, 5041.639
873.5760, 5020.565
874.0581, 5003.535
874.5402, 4996.796
875.0223, 4986.675
875.5045, 4965.061
875.9866, 4941.323
876.4687, 4925.297
876.9508, 4916.905
877.4329, 4908.074
877.9150, 4895.405
878.3972, 4882.783
878.8793, 4871.068
879.3614, 4861.323
879.8435, 4856.779
880.3256, 4855.266
880.8077, 4849.668
881.2899, 4836.706
881.7720, 4822.905
882.2541, 4815.599
882.7362, 4813.536
883.2183, 4814.729
883.7004, 4818.514
884.1826, 4818.802
884.6647, 4813.531
885.1468, 4806.326
885.6289, 4800.910
886.1110, 4796.523
886.5931, 4788.597
887.0753, 4774.748
887.5574, 4764.771
888.0395, 4762.306
888.5216, 4759.683
889.0037, 4751.421
889.4858, 4740.860
889.9680, 4733.903
890.4501, 4731.453
890.9322, 4727.626
891.4143, 4721.271
891.8964, 4713.764
892.3785, 4703.192
892.8607, 4693.479
893.3428, 4690.027
893.8249, 4691.617
894.3070, 4691.774
894.7891, 4687.003
895.2712, 4681.403
895.7534, 4680.170
896.2355, 4679.678
896.7176, 4672.595
897.1997, 4660.629
897.6818, 4651.713
898.1639, 4648.888
898.6461, 4648.894
899.1282, 4648.404
899.6103, 4647.497
900.0924, 4647.077
900.5745, 4647.309
901.0566, 4643.830
901.5388, 4634.925
902.0209, 4625.506
902.5030, 4618.881
902.9851, 4614.517
903.4672, 4610.856
903.9493, 4608.970
904.4315, 4606.050
904.9136, 4609.065
905.3957, 4611.776
905.8778, 4614.680
906.3599, 4615.284
906.8420, 4608.937
907.3242, 4596.800
907.8063, 4589.032
908.2884, 4591.127
908.7705, 4593.776
909.2526, 4595.440
909.7347, 4594.559
910.2169, 4587.491
910.6990, 4577.281
911.1811, 4571.315
911.6632, 4572.001
912.1453, 4571.785
912.6274, 4562.021
913.1096, 4549.071
913.5917, 4542.805
914.0738, 4541.480
914.5559, 4540.649
915.0380, 4538.952
915.5201, 4533.790
916.0023, 4522.486
916.4844, 4509.863
916.9665, 4507.431
917.4486, 4515.066
917.9307, 4520.693
918.4128, 4524.040
918.8950, 4523.060
919.3771, 4515.442
919.8592, 4506.534
920.3413, 4503.419
920.8234, 4505.895
921.3055, 4505.382
921.7877, 4500.097
922.2698, 4495.038
922.7519, 4490.563
923.2340, 4486.654
923.7161, 4483.124
924.1982, 4480.250
924.6804, 4479.164
925.1625, 4480.659
925.6446, 4479.394
926.1267, 4471.079
926.6088, 4463.124
927.0909, 4458.333
927.5731, 4456.461
928.0552, 4459.460
928.5373, 4465.167
929.0194, 4465.821
929.5015, 4456.263
929.9836, 4446.659
930.4658, 4447.221
930.9479, 4452.069
931.4300, 4453.257
931.9121, 4451.050
932.3942, 4448.247
932.8763, 4445.659
933.3585, 4441.214
933.8406, 4431.540
934.3227, 4420.975
934.8048, 4422.651
935.2869, 4434.814
935.7690, 4440.946
936.2512, 4438.613
936.7333, 4434.642
937.2154, 4432.760
937.6975, 4430.986
938.1796, 4425.175
938.6617, 4424.846
939.1439, 4425.102
939.6260, 4420.907
940.1081, 4426.488
940.5902, 4423.552
941.0723, 4419.501
941.5544, 4420.438
942.0366, 4424.809
942.5187, 4427.500
943.0008, 4429.376
943.4829, 4427.647
943.9650, 4415.966
944.4471, 4408.197
944.9293, 4415.293
945.4114, 4424.912
945.8935, 4419.660
946.3756, 4402.437
946.8577, 4397.623
947.3398, 4421.715
947.8220, 4443.380
948.3041, 4444.094
948.7862, 4438.853
949.2683, 4439.858
949.7504, 4445.927
950.2325, 4452.146
950.7147, 4457.292
951.1968, 4464.116
951.6789, 4476.715
952.1610, 4489.840
952.6431, 4494.161
953.1252, 4494.933
953.6074, 4505.287
954.0895, 4524.741
954.5716, 4541.325
955.0537, 4549.012
955.5358, 4563.134
956.0179, 4564.475
956.5000, 4579.231
956.9821, 4587.042
957.4642, 4588.457
957.9464, 4597.178
958.4285, 4616.984
958.9106, 4638.854
959.3927, 4656.560
959.8748, 4669.870
960.3569, 4677.663
960.8391, 4679.700
961.3212, 4677.359
961.8033, 4669.173
962.2854, 4661.179
962.7675, 4656.805
963.2496, 4651.541
963.7318, 4640.646
964.2139, 4624.698
964.6960, 4607.638
965.1781, 4587.363
965.6602, 4569.532
966.1423, 4556.998
966.6245, 4543.582
967.1066, 4526.566
967.5887, 4507.247
968.0708, 4486.968
968.5529, 4465.835
969.0350, 4444.737
969.5172, 4422.058
969.9993, 4401.776
970.4814, 4386.443
970.9635, 4372.845
971.4456, 4359.711
971.9277, 4346.104
972.4099, 4329.388
972.8920, 4309.175
973.3741, 4293.412
973.8562, 4292.173
974.3383, 4291.213
974.8204, 4277.392
975.3026, 4257.974
975.7847, 4242.696
976.2668, 4231.875
976.7489, 4220.920
977.2310, 4207.802
977.7131, 4196.069
978.1953, 4189.371
978.6774, 4186.376
979.1595, 4186.780
979.6416, 4188.684
980.1237, 4185.870
980.6058, 4177.671
981.0880, 4169.069
981.5701, 4163.203
982.0522, 4159.250
982.5343, 4157.397
983.0164, 4156.573
983.4985, 4149.126
983.9807, 4135.300
984.4628, 4126.250
984.9449, 4125.694
985.4270, 4124.837
985.9091, 4115.497
986.3912, 4101.391
986.8734, 4094.449
987.3555, 4095.941
987.8376, 4093.124
988.3197, 4083.628
988.8018, 4078.147
989.2839, 4082.528
989.7661, 4088.478
990.2482, 4086.655
990.7303, 4078.247
991.2124, 4072.002
991.6945, 4069.889
992.1766, 4065.052
992.6588, 4053.710
993.1409, 4044.863
993.6230, 4043.317
994.1051, 4045.624
994.5872, 4048.590
995.0693, 4052.147
995.5515, 4052.031
996.0336, 4045.221
996.5157, 4039.070
996.9978, 4035.432
997.4799, 4031.545
997.9620, 4024.901
998.4442, 4017.583
998.9263, 4013.098
999.4084, 4011.807
999.8905, 4009.956
1000.373, 4004.997
1000.855, 4001.572
1001.337, 4003.092
1001.819, 4005.232
1002.301, 4004.780
1002.783, 4002.224
1003.265, 3998.656
1003.747, 3994.364
1004.230, 3990.781
1004.712, 3988.738
1005.194, 3987.472
1005.676, 3987.249
1006.158, 3986.929
1006.640, 3985.145
1007.122, 3982.069
1007.604, 3978.048
1008.086, 3973.203
1008.569, 3969.933
1009.051, 3973.328
1009.533, 3976.297
1010.015, 3969.105
1010.497, 3956.897
1010.979, 3947.941
1011.461, 3943.284
1011.943, 3941.673
1012.426, 3942.594
1012.908, 3942.417
1013.390, 3934.866
1013.872, 3925.001
1014.354, 3923.123
1014.836, 3926.746
1015.318, 3928.540
1015.800, 3927.448
1016.282, 3926.476
1016.765, 3927.372
1017.247, 3928.215
1017.729, 3925.974
1018.211, 3921.454
1018.693, 3917.210
1019.175, 3913.338
1019.657, 3910.432
1020.139, 3908.594
1020.622, 3907.887
1021.104, 3908.615
1021.586, 3908.777
1022.068, 3903.899
1022.550, 3894.656
1023.032, 3888.330
1023.514, 3884.970
1023.996, 3882.586
1024.478, 3880.887
1024.961, 3877.913
1025.443, 3871.641
1025.925, 3864.976
1026.407, 3865.786
1026.889, 3874.769
1027.371, 3875.616
1027.853, 3866.639
1028.335, 3859.264
1028.818, 3856.553
1029.300, 3855.491
1029.782, 3853.570
1030.264, 3851.895
1030.746, 3854.377
1031.228, 3863.005
1031.710, 3862.696
1032.192, 3849.702
1032.674, 3838.917
1033.156, 3835.126
1033.639, 3832.915
1034.121, 3827.852
1034.603, 3821.155
1035.085, 3816.099
1035.567, 3812.220
1036.049, 3812.169
1036.531, 3819.052
1037.013, 3823.781
1037.496, 3823.191
1037.978, 3820.686
1038.460, 3818.648
1038.942, 3816.907
1039.424, 3815.196
1039.906, 3814.811
1040.388, 3810.379
1040.870, 3796.335
1041.353, 3786.283
1041.835, 3785.008
1042.317, 3787.500
1042.799, 3791.803
1043.281, 3796.645
1043.763, 3798.318
1044.245, 3796.643
1044.727, 3792.224
1045.209, 3782.749
1045.692, 3773.684
1046.174, 3764.884
1046.656, 3758.523
1047.138, 3757.450
1047.620, 3760.068
1048.102, 3762.464
1048.584, 3765.217
1049.066, 3764.311
1049.548, 3755.684
1050.031, 3747.923
1050.513, 3743.420
1050.995, 3741.118
1051.477, 3741.195
1051.959, 3742.457
1052.441, 3742.126
1052.923, 3739.531
1053.405, 3736.732
1053.888, 3732.871
1054.370, 3730.494
1054.852, 3732.887
1055.334, 3735.066
1055.816, 3731.830
1056.298, 3725.300
1056.780, 3721.362
1057.262, 3721.626
1057.745, 3719.941
1058.227, 3712.400
1058.709, 3705.443
1059.191, 3701.911
1059.673, 3699.975
1060.155, 3698.383
1060.637, 3696.979
1061.119, 3696.343
1061.601, 3696.785
1062.083, 3694.624
1062.566, 3685.583
1063.048, 3677.550
1063.530, 3673.411
1064.012, 3672.208
1064.494, 3675.725
1064.976, 3680.567
1065.458, 3680.292
1065.940, 3673.616
1066.423, 3665.544
1066.905, 3655.809
1067.387, 3647.942
1067.869, 3643.321
1068.351, 3641.451
1068.833, 3644.628
1069.315, 3649.170
1069.797, 3648.175
1070.280, 3640.657
1070.762, 3633.302
1071.244, 3627.555
1071.726, 3624.313
1072.208, 3627.489
1072.690, 3629.968
1073.172, 3624.032
1073.654, 3614.161
1074.136, 3608.121
1074.619, 3607.060
1075.101, 3607.459
1075.583, 3609.066
1076.065, 3609.925
1076.547, 3609.753
1077.029, 3607.829
1077.511, 3601.933
1077.993, 3594.790
1078.475, 3590.137
1078.958, 3588.461
1079.440, 3588.732
1079.922, 3591.774
1080.404, 3593.942
1080.886, 3593.401
1081.368, 3591.485
1081.850, 3588.800
1082.332, 3585.556
1082.814, 3581.795
1083.297, 3577.636
1083.779, 3573.202
1084.261, 3567.913
1084.743, 3564.344
1085.225, 3564.877
1085.707, 3566.182
1086.189, 3567.800
1086.671, 3567.773
1087.154, 3562.297
1087.636, 3553.318
1088.118, 3547.438
1088.600, 3546.756
1089.082, 3547.928
1089.564, 3553.335
1090.046, 3555.698
1090.528, 3545.244
1091.010, 3534.419
1091.493, 3540.583
1091.975, 3555.850
1092.457, 3556.260
1092.939, 3534.733
1093.421, 3521.525
1093.903, 3537.847
1094.385, 3551.850
1094.867, 3546.680
1095.349, 3535.456
1095.832, 3527.446
1096.314, 3522.589
1096.796, 3519.417
1097.278, 3517.623
1097.760, 3515.050
1098.242, 3510.204
1098.724, 3505.670
1099.206, 3502.070
1099.689, 3499.300
1100.171, 3497.516
1100.653, 3496.412
1101.135, 3495.850
1101.617, 3495.682
1102.099, 3494.942
1102.581, 3495.281
1103.063, 3491.826
1103.546, 3478.815
1104.028, 3467.056
1104.510, 3463.469
1104.992, 3463.240
1105.474, 3460.324
1105.956, 3455.364
1106.438, 3453.684
1106.920, 3458.594
1107.402, 3460.279
1107.885, 3452.594
1108.367, 3447.346
1108.849, 3452.397
1109.331, 3458.497
1109.813, 3457.055
1110.295, 3450.196
1110.777, 3444.468
1111.259, 3440.561
1111.741, 3436.750
1112.224, 3432.085
1112.706, 3428.795
1113.188, 3431.379
1113.670, 3431.400
1114.152, 3418.573
1114.634, 3401.759
1115.116, 3398.439
1115.598, 3410.355
1116.081, 3414.800
1116.563, 3404.648
1117.045, 3399.390
1117.527, 3404.551
1118.009, 3409.398
1118.491, 3408.070
1118.973, 3404.674
1119.455, 3404.060
1119.938, 3406.008
1120.420, 3408.868
1120.902, 3413.145
1121.384, 3416.962
1121.866, 3420.462
1122.348, 3422.692
1122.830, 3421.614
1123.312, 3422.529
1123.794, 3432.265
1124.276, 3446.279
1124.759, 3448.708
1125.241, 3435.550
1125.723, 3435.534
1126.205, 3453.704
1126.687, 3465.650
1127.169, 3465.480
1127.651, 3458.687
1128.133, 3447.597
1128.616, 3435.373
1129.098, 3428.909
1129.580, 3412.443
1130.062, 3413.461
1130.544, 3385.428
1131.026, 3366.287
1131.508, 3359.904
1131.990, 3356.290
1132.473, 3350.899
1132.955, 3345.575
1133.437, 3342.654
1133.919, 3338.561
1134.401, 3338.352
1134.883, 3334.053
1135.365, 3332.449
1135.847, 3333.606
1136.329, 3333.998
1136.812, 3332.511
1137.294, 3329.270
1137.776, 3324.072
1138.258, 3318.761
1138.740, 3316.543
1139.222, 3316.943
1139.704, 3319.724
1140.186, 3323.705
1140.668, 3324.590
1141.151, 3321.464
1141.633, 3313.327
1142.115, 3299.529
1142.597, 3287.491
1143.079, 3287.553
1143.561, 3292.665
1144.043, 3290.490
1144.525, 3284.789
1145.008, 3282.816
1145.490, 3284.678
1145.972, 3288.393
1146.454, 3292.997
1146.936, 3296.577
1147.418, 3297.443
1147.900, 3297.648
1148.382, 3302.577
1148.865, 3305.034
1149.347, 3293.112
1149.829, 3274.277
1150.311, 3261.294
1150.793, 3255.704
1151.275, 3253.472
1151.757, 3253.777
1152.239, 3253.076
1152.721, 3248.714
1153.203, 3243.474
1153.686, 3237.145
1154.168, 3232.537
1154.650, 3234.389
1155.132, 3239.610
1155.614, 3240.872
1156.096, 3236.781
1156.578, 3232.976
1157.060, 3232.012
1157.543, 3230.167
1158.025, 3224.750
1158.507, 3220.010
1158.989, 3218.371
1159.471, 3218.818
1159.953, 3221.778
1160.435, 3226.160
1160.917, 3224.493
1161.400, 3209.737
1161.882, 3203.309
1162.364, 3213.193
1162.846, 3219.261
1163.328, 3214.143
1163.810, 3206.653
1164.292, 3203.085
1164.774, 3201.456
1165.256, 3197.273
1165.739, 3190.216
1166.221, 3186.423
1166.703, 3186.496
1167.185, 3187.862
1167.667, 3190.698
1168.149, 3193.078
1168.631, 3194.202
1169.113, 3194.293
1169.595, 3193.573
1170.078, 3192.099
1170.560, 3190.447
1171.042, 3188.564
1171.524, 3181.587
1172.006, 3169.699
1172.488, 3165.775
1172.970, 3172.949
1173.452, 3181.716
1173.934, 3186.184
1174.417, 3186.312
1174.899, 3181.411
1175.381, 3172.444
1175.863, 3159.309
1176.345, 3144.852
1176.827, 3138.501
1177.309, 3139.633
1177.791, 3141.298
1178.274, 3140.996
1178.756, 3140.201
1179.238, 3139.945
1179.720, 3139.862
1180.202, 3139.988
1180.684, 3139.712
1181.166, 3138.042
1181.648, 3135.530
1182.130, 3133.363
1182.613, 3131.429
1183.095, 3128.347
1183.577, 3123.421
1184.059, 3119.270
1184.541, 3118.012
1185.023, 3116.941
1185.505, 3112.466
1185.987, 3109.593
1186.469, 3114.380
1186.952, 3122.823
1187.434, 3129.417
1187.916, 3133.149
1188.398, 3130.046
1188.880, 3111.713
1189.362, 3099.842
1189.844, 3102.052
1190.326, 3103.846
1190.809, 3099.533
1191.291, 3094.097
1191.773, 3091.442
1192.255, 3090.694
1192.737, 3090.129
1193.219, 3090.038
1193.701, 3086.638
1194.183, 3079.032
1194.666, 3070.738
1195.148, 3060.888
1195.630, 3056.978
1196.112, 3063.750
1196.594, 3071.973
1197.076, 3071.166
1197.558, 3064.964
1198.040, 3064.451
1198.522, 3068.726
1199.005, 3070.094
1199.487, 3068.374
1199.969, 3063.746
1200.451, 3056.638
1200.933, 3049.986
1201.415, 3045.419
1201.897, 3042.031
1202.379, 3037.836
1202.861, 3035.154
1203.344, 3039.266
1203.826, 3046.535
1204.308, 3051.494
1204.790, 3053.738
1205.272, 3053.601
1205.754, 3051.425
1206.236, 3048.442
1206.718, 3045.582
1207.201, 3040.789
1207.683, 3029.406
1208.165, 3019.652
1208.647, 3018.809
1209.129, 3020.852
1209.611, 3021.659
1210.093, 3019.645
1210.575, 3010.990
1211.057, 2994.982
1211.540, 2984.958
1212.022, 2986.583
1212.504, 2988.411
1212.986, 2989.025
1213.468, 2989.986
1213.950, 2993.324
1214.432, 2995.269
1214.914, 2991.291
1215.396, 2984.118
1215.879, 2981.580
1216.361, 2984.198
1216.843, 2983.723
1217.325, 2979.257
1217.807, 2978.251
1218.289, 2982.291
1218.771, 2985.230
1219.253, 2984.371
1219.736, 2980.035
1220.218, 2971.669
1220.700, 2962.644
1221.182, 2962.346
1221.664, 2967.106
1222.146, 2963.781
1222.628, 2954.560
1223.110, 2947.805
1223.593, 2945.208
1224.075, 2946.283
1224.557, 2950.753
1225.039, 2955.362
1225.521, 2956.932
1226.003, 2958.240
1226.485, 2964.533
1226.967, 2969.262
1227.449, 2963.178
1227.932, 2952.172
1228.414, 2946.913
1228.896, 2946.755
1229.378, 2940.983
1229.860, 2923.810
1230.342, 2913.731
1230.824, 2921.709
1231.306, 2927.740
1231.788, 2922.917
1232.271, 2918.175
1232.753, 2922.592
1233.235, 2928.097
1233.717, 2922.723
1234.199, 2908.750
1234.681, 2901.445
1235.163, 2902.364
1235.645, 2902.533
1236.128, 2901.712
1236.610, 2901.146
1237.092, 2901.301
1237.574, 2899.665
1238.056, 2894.484
1238.538, 2888.949
1239.020, 2887.552
1239.502, 2884.546
1239.984, 2886.497
1240.467, 2883.006
1240.949, 2882.722
1241.431, 2884.177
1241.913, 2879.750
1242.395, 2869.968
1242.877, 2867.669
1243.359, 2880.296
1243.841, 2889.915
1244.323, 2878.052
1244.806, 2864.590
1245.288, 2864.847
1245.770, 2869.911
1246.252, 2873.308
1246.734, 2874.266
1247.216, 2872.387
1247.698, 2867.948
1248.180, 2862.488
1248.662, 2854.314
1249.145, 2849.940
1249.627, 2852.558
1250.109, 2854.324
1250.591, 2853.935
1251.073, 2851.678
1251.555, 2846.638
1252.037, 2841.903
1252.519, 2842.572
1253.002, 2846.427
1253.484, 2841.297
1253.966, 2827.534
1254.448, 2823.545
1254.930, 2829.331
1255.412, 2834.168
1255.894, 2835.603
1256.376, 2835.929
1256.859, 2836.353
1257.341, 2835.893
1257.823, 2833.265
1258.305, 2829.615
1258.787, 2825.089
1259.269, 2821.633
1259.751, 2823.733
1260.233, 2827.915
1260.715, 2826.914
1261.198, 2821.488
1261.680, 2819.283
1262.162, 2823.256
1262.644, 2824.988
1263.126, 2817.508
1263.608, 2813.733
1264.090, 2820.500
1264.572, 2828.333
1265.054, 2834.006
1265.537, 2836.350
1266.019, 2833.536
1266.501, 2826.604
1266.983, 2818.256
1267.465, 2807.769
1267.947, 2805.181
1268.429, 2811.376
1268.911, 2815.164
1269.394, 2814.833
1269.876, 2813.114
1270.358, 2811.127
1270.840, 2805.412
1271.322, 2791.507
1271.804, 2777.654
1272.286, 2777.468
1272.768, 2785.048
1273.250, 2793.390
1273.733, 2800.142
1274.215, 2800.907
1274.697, 2797.107
1275.179, 2793.290
1275.661, 2790.683
1276.143, 2789.067
1276.625, 2789.665
1277.107, 2788.593
1277.589, 2783.153
1278.072, 2777.608
1278.554, 2773.135
1279.036, 2770.078
1279.518, 2769.755
1280.000, 2770.002
1280.482, 2766.669
1280.964, 2766.254
1281.446, 2765.260
1281.929, 2762.246
1282.411, 2762.529
1282.893, 2759.096
1283.375, 2755.130
1283.857, 2751.430
1284.339, 2748.267
1284.821, 2745.946
1285.303, 2746.288
1285.786, 2751.361
1286.268, 2760.700
##END=



