##NAMES=Sillimanite
##RRUFFID=R100126
##IDEAL CHEMISTRY=Al_2_OSiO_4_
##LOCALITY=Orissa, India
##OWNER=RRUFF
##SOURCE=William W. Pinch
##DESCRIPTION=Pale purple cut gemstone
##STATUS=The identification of this mineral has been confirmed by single-crystal X-ray diffraction.
##URL=rruff.info/R100126
91.03516, 13.19531
91.51727, 13.17356
91.99939, 13.24790
92.48151, 13.36234
92.96362, 13.35740
93.44574, 12.95827
93.92786, 12.40128
94.40997, 12.28244
94.89210, 12.75028
95.37421, 13.33190
95.85633, 13.19658
96.33845, 12.38000
96.82056, 11.62740
97.30268, 11.55853
97.78480, 12.08925
98.26691, 12.33401
98.74903, 12.11776
99.23115, 11.59854
99.71326, 11.20836
100.1954, 10.96268
100.6775, 10.80059
101.1596, 10.68506
101.6417, 10.62211
102.1239, 10.57855
102.6060, 10.54105
103.0881, 10.51237
103.5702, 10.55224
104.0523, 10.69349
104.5344, 10.86362
105.0166, 10.97494
105.4987, 10.94649
105.9808, 11.00938
106.4629, 11.28895
106.9450, 11.91420
107.4271, 12.16706
107.9093, 11.81194
108.3914, 11.16969
108.8735, 10.71317
109.3556, 10.56559
109.8377, 10.49592
110.3198, 10.43696
110.8020, 10.35606
111.2841, 10.34941
111.7662, 10.58273
112.2483, 10.89514
112.7304, 10.93472
113.2125, 10.35482
113.6947, 9.706045
114.1768, 9.246109
114.6589, 9.020769
115.1410, 8.960308
115.6231, 9.101175
116.1052, 9.409393
116.5874, 9.761351
117.0695, 10.37780
117.5516, 10.88960
118.0337, 11.00757
118.5158, 10.10131
118.9980, 9.278482
119.4801, 9.162669
119.9622, 9.694539
120.4443, 10.16355
120.9264, 10.19890
121.4085, 9.938381
121.8907, 9.549836
122.3728, 8.856669
122.8549, 8.214844
123.3370, 7.943395
123.8191, 8.058771
124.3012, 8.338383
124.7834, 8.801098
125.2655, 9.306276
125.7476, 9.553086
126.2297, 9.054400
126.7118, 8.316022
127.1939, 8.137944
127.6761, 8.639279
128.1582, 9.349398
128.6403, 9.757304
129.1224, 9.906748
129.6045, 10.00886
130.0867, 10.19152
130.5688, 10.42385
131.0509, 10.59352
131.5330, 10.68292
132.0151, 10.72800
132.4972, 10.76340
132.9794, 10.78901
133.4615, 10.86697
133.9436, 11.09975
134.4257, 11.46963
134.9078, 11.66550
135.3899, 11.54492
135.8721, 11.30303
136.3542, 11.53305
136.8363, 12.29974
137.3184, 13.25491
137.8005, 14.18126
138.2826, 15.10985
138.7648, 15.80408
139.2469, 16.08556
139.7290, 16.06495
140.2111, 16.56560
140.6932, 17.69589
141.1753, 19.15369
141.6575, 20.68265
142.1396, 22.35776
142.6217, 23.97819
143.1038, 25.72470
143.5859, 27.67779
144.0681, 28.29206
144.5502, 27.15763
145.0323, 25.05798
145.5144, 22.78352
145.9965, 20.01559
146.4786, 17.58532
146.9608, 15.72802
147.4429, 14.45070
147.9250, 13.60118
148.4071, 13.25769
148.8892, 13.31129
149.3713, 13.61560
149.8535, 14.60339
150.3356, 15.41830
150.8177, 15.79118
151.2998, 15.44857
151.7819, 15.25292
152.2640, 15.16846
152.7462, 15.23358
153.2283, 15.52070
153.7104, 16.29733
154.1925, 17.08261
154.6746, 17.72683
155.1567, 18.28702
155.6389, 18.56813
156.1210, 18.33593
156.6031, 17.79313
157.0852, 17.43752
157.5673, 17.54098
158.0495, 17.73454
158.5316, 17.83500
159.0137, 17.73954
159.4958, 17.64985
159.9779, 17.55567
160.4600, 17.49325
160.9422, 17.58099
161.4243, 18.20620
161.9064, 18.79556
162.3885, 18.93777
162.8706, 18.04511
163.3527, 17.26450
163.8349, 17.20714
164.3170, 17.72735
164.7991, 18.12873
165.2812, 17.95687
165.7633, 17.57351
166.2454, 17.30167
166.7276, 17.18761
167.2097, 17.26059
167.6918, 17.67097
168.1739, 18.36630
168.6560, 18.94178
169.1381, 18.92683
169.6203, 18.71639
170.1024, 18.66544
170.5845, 19.51775
171.0666, 20.37690
171.5487, 20.29816
172.0309, 19.35696
172.5130, 18.46973
172.9951, 18.35161
173.4772, 18.68547
173.9593, 18.98042
174.4414, 18.90521
174.9236, 18.77082
175.4057, 19.08072
175.8878, 19.84656
176.3699, 20.36341
176.8520, 19.73199
177.3341, 18.40966
177.8163, 17.38793
178.2984, 17.28126
178.7805, 17.65704
179.2626, 17.93343
179.7447, 18.09909
180.2268, 18.14782
180.7090, 17.97153
181.1911, 17.64818
181.6732, 17.42188
182.1553, 17.45138
182.6374, 17.64760
183.1195, 17.83280
183.6017, 18.00561
184.0838, 18.16320
184.5659, 18.36550
185.0480, 18.58054
185.5301, 18.65007
186.0123, 18.33588
186.4944, 17.80037
186.9765, 17.60073
187.4586, 17.79724
187.9407, 18.16096
188.4228, 18.38105
188.9050, 18.47018
189.3871, 18.57179
189.8692, 18.76454
190.3513, 19.03198
190.8334, 19.31892
191.3155, 19.64184
191.7977, 19.93067
192.2798, 20.03770
192.7619, 19.96386
193.2440, 19.89922
193.7261, 19.97420
194.2082, 20.17120
194.6904, 20.28099
195.1725, 20.28391
195.6546, 20.21617
196.1367, 20.10373
196.6188, 19.93548
197.1009, 19.85238
197.5831, 19.97964
198.0652, 20.31694
198.5473, 20.55759
199.0294, 20.66897
199.5115, 20.69891
199.9937, 20.73662
200.4758, 20.78131
200.9579, 20.83331
201.4400, 20.85120
201.9221, 20.81930
202.4042, 20.98234
202.8864, 21.40042
203.3685, 21.97244
203.8506, 22.42589
204.3327, 22.69877
204.8148, 23.08331
205.2969, 23.76512
205.7791, 24.78088
206.2612, 25.80037
206.7433, 26.74581
207.2254, 27.72697
207.7075, 29.07074
208.1896, 30.88160
208.6718, 32.76089
209.1539, 34.65449
209.6360, 36.69035
210.1181, 38.06620
210.6002, 38.85250
211.0823, 38.90287
211.5645, 37.57534
212.0466, 34.34975
212.5287, 30.96378
213.0108, 28.20138
213.4929, 25.93105
213.9750, 24.71144
214.4572, 24.64755
214.9393, 25.61705
215.4214, 27.29446
215.9035, 29.71073
216.3856, 32.79528
216.8678, 36.54184
217.3499, 41.20491
217.8320, 45.90516
218.3141, 50.80548
218.7962, 55.62960
219.2783, 59.43008
219.7605, 62.00084
220.2426, 63.86310
220.7247, 65.02988
221.2068, 64.87097
221.6889, 65.83702
222.1710, 68.28786
222.6532, 71.86761
223.1353, 75.35046
223.6174, 78.54008
224.0995, 82.02572
224.5816, 86.10799
225.0637, 90.96374
225.5459, 96.06563
226.0280, 101.3163
226.5101, 106.8371
226.9922, 112.6816
227.4743, 118.3652
227.9564, 125.1987
228.4386, 133.9718
228.9207, 144.8488
229.4028, 156.6737
229.8849, 168.4744
230.3670, 181.4337
230.8492, 199.2442
231.3313, 221.8411
231.8134, 249.0584
232.2955, 281.3253
232.7776, 318.4479
233.2597, 360.0131
233.7419, 407.0031
234.2240, 458.2778
234.7061, 512.9274
235.1882, 587.3240
235.6703, 640.3551
236.1524, 654.8997
236.6346, 624.8964
237.1167, 566.8873
237.5988, 465.1183
238.0809, 341.0609
238.5630, 242.6758
239.0451, 175.8878
239.5273, 127.0207
240.0094, 92.04180
240.4915, 74.88182
240.9736, 61.46161
241.4557, 52.55709
241.9378, 46.93957
242.4200, 42.16713
242.9021, 38.24968
243.3842, 35.08568
243.8663, 32.70942
244.3484, 31.35000
244.8306, 30.09565
245.3127, 28.96870
245.7948, 27.94547
246.2769, 26.95781
246.7590, 25.86283
247.2411, 25.06759
247.7233, 24.81143
248.2054, 25.34112
248.6875, 25.46334
249.1696, 24.97668
249.6517, 24.21862
250.1338, 23.74225
250.6160, 23.66462
251.0981, 23.65706
251.5802, 23.60894
252.0623, 23.48960
252.5444, 23.46833
253.0265, 23.47375
253.5087, 23.63605
253.9908, 24.18696
254.4729, 25.35530
254.9550, 26.45210
255.4371, 27.25410
255.9192, 27.70385
256.4014, 28.32859
256.8835, 29.41110
257.3656, 30.38752
257.8477, 30.57822
258.3298, 29.79856
258.8120, 28.61611
259.2941, 26.97839
259.7762, 24.81568
260.2583, 23.35003
260.7404, 22.83169
261.2225, 22.68180
261.7047, 22.22485
262.1868, 21.24810
262.6689, 20.52916
263.1510, 20.31148
263.6331, 20.57829
264.1152, 20.63244
264.5974, 20.38740
265.0795, 20.06208
265.5616, 19.89443
266.0437, 19.95943
266.5258, 19.91305
267.0079, 19.62589
267.4901, 19.14630
267.9722, 18.95504
268.4543, 19.14547
268.9364, 19.43447
269.4185, 19.59595
269.9006, 19.60650
270.3828, 19.59452
270.8649, 19.58503
271.3470, 19.56712
271.8291, 19.45265
272.3112, 19.17338
272.7933, 18.97248
273.2755, 19.08652
273.7576, 19.57992
274.2397, 19.93009
274.7218, 20.04522
275.2039, 19.99300
275.6860, 19.95083
276.1682, 19.89819
276.6503, 19.93137
277.1324, 20.15702
277.6145, 20.59424
278.0966, 20.94052
278.5787, 21.15879
279.0609, 21.29117
279.5430, 21.41401
280.0251, 21.52013
280.5072, 21.66202
280.9893, 21.82908
281.4715, 22.02061
281.9536, 22.44849
282.4357, 23.18583
282.9178, 24.03745
283.3999, 24.61686
283.8820, 24.90383
284.3642, 25.27875
284.8463, 25.90132
285.3284, 26.76913
285.8105, 27.80417
286.2926, 29.00646
286.7747, 30.38565
287.2569, 31.92688
287.7390, 33.63313
288.2211, 35.59744
288.7032, 37.81262
289.1853, 40.30921
289.6674, 43.23304
290.1496, 46.59138
290.6317, 50.39534
291.1138, 54.50593
291.5959, 59.01363
292.0780, 64.40424
292.5602, 71.25173
293.0423, 78.97697
293.5244, 86.12967
294.0065, 92.66109
294.4886, 98.99045
294.9707, 105.5470
295.4529, 112.2954
295.9350, 118.8904
296.4171, 125.0222
296.8992, 131.2673
297.3813, 138.5015
297.8634, 146.6720
298.3456, 155.6602
298.8277, 165.2000
299.3098, 175.4142
299.7919, 186.4837
300.2740, 198.2080
300.7561, 211.1033
301.2383, 225.1928
301.7204, 240.7245
302.2025, 257.9346
302.6846, 277.3525
303.1667, 298.5380
303.6488, 321.0556
304.1310, 344.3507
304.6131, 369.8464
305.0952, 398.7691
305.5773, 430.7884
306.0594, 464.8629
306.5415, 500.5338
307.0237, 540.0744
307.5058, 579.5927
307.9879, 625.4475
308.4700, 670.8862
308.9521, 718.9498
309.4343, 763.5720
309.9164, 795.3662
310.3985, 816.5018
310.8806, 819.2642
311.3627, 795.0193
311.8448, 743.0862
312.3270, 678.2803
312.8091, 598.1819
313.2912, 513.7223
313.7733, 437.8136
314.2554, 374.8752
314.7375, 321.7598
315.2197, 278.4169
315.7018, 244.0143
316.1839, 215.2695
316.6660, 192.0931
317.1481, 173.0560
317.6302, 157.3067
318.1124, 145.6016
318.5945, 135.7337
319.0766, 127.2334
319.5587, 120.0091
320.0408, 113.5945
320.5229, 108.2703
321.0051, 103.4151
321.4872, 98.63638
321.9693, 93.69467
322.4514, 89.26879
322.9335, 85.73644
323.4156, 82.79618
323.8978, 79.86712
324.3799, 76.82330
324.8620, 73.79750
325.3441, 70.76353
325.8262, 67.62223
326.3083, 64.87890
326.7905, 62.90114
327.2726, 61.22721
327.7547, 59.31565
328.2368, 56.60330
328.7189, 54.20269
329.2010, 52.40175
329.6832, 51.27464
330.1653, 50.07975
330.6474, 48.59483
331.1295, 47.20377
331.6116, 46.25294
332.0938, 46.34294
332.5759, 45.89188
333.0580, 44.45997
333.5401, 42.21571
334.0222, 40.53202
334.5043, 39.59016
334.9865, 38.93687
335.4686, 38.31532
335.9507, 37.73425
336.4328, 37.15815
336.9149, 36.58728
337.3970, 36.01037
337.8792, 35.41437
338.3613, 34.77831
338.8434, 34.15826
339.3255, 33.53185
339.8076, 32.86529
340.2898, 32.49008
340.7719, 32.50352
341.2540, 32.63614
341.7361, 32.42345
342.2182, 31.82019
342.7003, 31.34484
343.1825, 31.24500
343.6646, 31.44871
344.1467, 31.41047
344.6288, 31.06596
345.1109, 30.80194
345.5930, 31.13545
346.0752, 31.99454
346.5573, 32.65660
347.0394, 32.81908
347.5215, 32.79349
348.0036, 33.44110
348.4857, 34.73990
348.9679, 35.90145
349.4500, 36.26288
349.9321, 36.02653
350.4142, 35.78160
350.8963, 35.62943
351.3784, 35.47043
351.8606, 35.32437
352.3427, 35.11049
352.8248, 34.51662
353.3069, 33.04628
353.7890, 31.22100
354.2711, 29.72583
354.7533, 28.63554
355.2354, 27.71360
355.7175, 26.78506
356.1996, 25.89592
356.6817, 25.12638
357.1638, 24.41582
357.6460, 23.90699
358.1281, 23.72537
358.6102, 23.86057
359.0923, 24.17527
359.5744, 24.67676
360.0565, 25.28189
360.5387, 25.91700
361.0208, 26.64300
361.5029, 27.29603
361.9850, 27.75994
362.4671, 28.08290
362.9492, 28.40571
363.4314, 29.14416
363.9135, 29.62963
364.3956, 29.44799
364.8777, 28.31709
365.3598, 27.05444
365.8419, 25.57889
366.3241, 24.13063
366.8062, 23.08166
367.2883, 22.59779
367.7704, 22.40714
368.2526, 22.58832
368.7347, 23.27542
369.2168, 23.52900
369.6989, 22.99383
370.1810, 22.23552
370.6631, 21.71207
371.1453, 21.56901
371.6274, 21.43749
372.1095, 21.19295
372.5916, 20.89485
373.0737, 20.97178
373.5558, 21.64225
374.0380, 22.36373
374.5201, 22.85244
375.0022, 23.06686
375.4843, 23.15264
375.9664, 23.05173
376.4485, 22.87904
376.9307, 22.86649
377.4128, 23.03810
377.8949, 23.27075
378.3770, 23.54902
378.8591, 23.86495
379.3412, 24.04662
379.8234, 24.05832
380.3055, 24.05599
380.7876, 24.25769
381.2697, 24.64953
381.7518, 24.92174
382.2339, 24.86746
382.7161, 24.73779
383.1982, 25.25282
383.6803, 26.38629
384.1624, 27.50314
384.6445, 28.01291
385.1266, 28.14122
385.6088, 28.43114
386.0909, 28.95580
386.5730, 29.67769
387.0551, 30.54300
387.5372, 31.55872
388.0193, 32.76702
388.5015, 34.47062
388.9836, 36.21674
389.4657, 37.49270
389.9478, 38.26300
390.4299, 38.84603
390.9120, 39.75787
391.3942, 40.51844
391.8763, 40.51603
392.3584, 39.05833
392.8405, 37.25004
393.3226, 35.45549
393.8047, 33.72161
394.2869, 32.26328
394.7690, 31.25644
395.2511, 30.48811
395.7332, 29.82230
396.2154, 29.19080
396.6975, 28.76119
397.1796, 28.59221
397.6617, 28.64078
398.1438, 28.82991
398.6259, 29.00468
399.1081, 29.45782
399.5902, 30.37848
400.0723, 31.86344
400.5544, 33.12311
401.0365, 33.80154
401.5186, 34.52366
402.0008, 35.78681
402.4829, 37.73135
402.9650, 39.95936
403.4471, 42.41967
403.9292, 45.14186
404.4113, 48.14683
404.8935, 51.37482
405.3756, 55.05283
405.8577, 59.46069
406.3398, 64.69164
406.8219, 69.77684
407.3040, 74.92023
407.7862, 79.52648
408.2683, 83.15248
408.7504, 85.83543
409.2325, 86.42866
409.7146, 84.17165
410.1967, 79.62700
410.6789, 74.06499
411.1610, 67.44045
411.6431, 60.94568
412.1252, 55.40556
412.6073, 50.82964
413.0894, 47.39425
413.5716, 45.36255
414.0537, 44.13296
414.5358, 43.02223
415.0179, 42.13343
415.5000, 41.76780
415.9821, 42.32970
416.4643, 43.37309
416.9464, 44.48634
417.4285, 45.63449
417.9106, 46.82796
418.3927, 48.08369
418.8748, 49.38725
419.3570, 50.69859
419.8391, 52.05967
420.3212, 53.38623
420.8033, 54.95963
421.2854, 56.58652
421.7675, 57.40799
422.2497, 57.00020
422.7318, 55.84420
423.2139, 54.14717
423.6960, 51.79475
424.1781, 49.22313
424.6602, 46.25130
425.1424, 43.15346
425.6245, 40.35622
426.1066, 37.90899
426.5887, 35.73844
427.0709, 33.77752
427.5530, 32.02594
428.0351, 30.93927
428.5172, 30.83163
428.9993, 30.94263
429.4814, 30.68773
429.9636, 29.91329
430.4457, 29.36180
430.9278, 29.09990
431.4099, 29.08663
431.8920, 29.28451
432.3741, 29.72179
432.8563, 30.16309
433.3384, 30.45077
433.8205, 30.63141
434.3026, 31.04794
434.7847, 31.72564
435.2668, 32.44936
435.7490, 33.06187
436.2311, 33.55265
436.7132, 33.87447
437.1953, 34.05405
437.6774, 34.00465
438.1595, 33.52150
438.6417, 32.67643
439.1238, 31.76623
439.6059, 31.00390
440.0880, 30.25050
440.5701, 29.28869
441.0522, 28.04249
441.5344, 26.94064
442.0165, 26.38181
442.4986, 26.07871
442.9807, 25.68293
443.4628, 24.73580
443.9449, 24.01072
444.4271, 23.98517
444.9092, 24.52420
445.3913, 24.84747
445.8734, 24.50152
446.3555, 24.08676
446.8376, 23.88361
447.3198, 23.89737
447.8019, 24.16547
448.2840, 24.85591
448.7661, 25.72291
449.2482, 26.39374
449.7303, 26.55645
450.2125, 27.05142
450.6946, 28.14106
451.1767, 29.78656
451.6588, 31.26810
452.1409, 32.44298
452.6230, 33.81041
453.1052, 35.81523
453.5873, 38.53713
454.0694, 41.06519
454.5515, 43.30668
455.0337, 45.36658
455.5158, 47.58584
455.9979, 49.92481
456.4800, 51.51997
456.9621, 52.14545
457.4442, 51.74557
457.9264, 49.95655
458.4085, 46.82368
458.8906, 43.21616
459.3727, 39.42849
459.8548, 35.75325
460.3369, 32.76063
460.8191, 30.62523
461.3012, 28.98334
461.7833, 27.64377
462.2654, 26.57084
462.7475, 25.69400
463.2296, 25.04035
463.7118, 24.51488
464.1939, 24.03956
464.6760, 23.60372
465.1581, 23.35623
465.6402, 23.36655
466.1223, 23.56863
466.6045, 23.91841
467.0866, 24.68601
467.5687, 25.25541
468.0508, 25.43002
468.5329, 25.40324
469.0150, 25.60379
469.4972, 26.06821
469.9793, 26.70703
470.4614, 27.57885
470.9435, 28.71183
471.4256, 29.47955
471.9077, 29.77836
472.3899, 29.91995
472.8720, 30.14440
473.3541, 30.45353
473.8362, 30.85281
474.3183, 31.31141
474.8004, 31.91366
475.2826, 32.84974
475.7647, 34.10811
476.2468, 35.52752
476.7289, 36.96696
477.2110, 38.52749
477.6931, 40.46090
478.1753, 42.77420
478.6574, 45.20031
479.1395, 47.32288
479.6216, 49.47152
480.1037, 52.17373
480.5858, 55.76914
481.0680, 59.58764
481.5501, 63.62733
482.0322, 67.54934
482.5143, 70.60268
482.9964, 72.96654
483.4786, 73.99160
483.9607, 73.28315
484.4428, 70.78198
484.9249, 67.14951
485.4070, 61.75037
485.8892, 55.77198
486.3713, 50.01654
486.8534, 44.12346
487.3355, 39.08217
487.8176, 34.91558
488.2997, 31.62512
488.7819, 29.21587
489.2640, 27.96338
489.7461, 26.95446
490.2282, 25.87246
490.7103, 24.73334
491.1924, 24.03826
491.6746, 23.86522
492.1567, 23.79443
492.6388, 23.40722
493.1209, 22.75162
493.6030, 22.33113
494.0851, 22.26155
494.5673, 22.29287
495.0494, 22.02982
495.5315, 21.54892
496.0136, 21.13636
496.4957, 20.98486
496.9778, 20.93376
497.4600, 20.79237
497.9421, 20.57014
498.4242, 20.36565
498.9063, 20.38432
499.3884, 20.36271
499.8705, 19.98945
500.3527, 18.94170
500.8348, 18.20579
501.3169, 18.44274
501.7990, 19.12730
502.2811, 19.52173
502.7632, 19.18566
503.2454, 18.87774
503.7275, 18.82313
504.2096, 18.98636
504.6917, 18.93822
505.1738, 18.47238
505.6559, 18.07634
506.1381, 18.07306
506.6202, 18.63837
507.1023, 18.86693
507.5844, 18.69627
508.0665, 18.30344
508.5486, 17.85079
509.0308, 17.33168
509.5129, 17.00588
509.9950, 17.00922
510.4771, 17.17348
510.9592, 17.12908
511.4413, 16.89236
511.9235, 16.62492
512.4056, 16.35177
512.8877, 16.14132
513.3698, 16.15413
513.8519, 16.41952
514.3340, 16.62932
514.8162, 16.49322
515.2983, 16.19604
515.7804, 15.95669
516.2625, 15.83151
516.7446, 15.78696
517.2267, 15.82225
517.7089, 15.92913
518.1910, 16.08782
518.6731, 16.40136
519.1552, 16.66655
519.6373, 16.83940
520.1194, 16.93523
520.6016, 16.80904
521.0837, 16.31083
521.5658, 15.75987
522.0479, 15.34307
522.5300, 15.01027
523.0121, 15.07123
523.4943, 15.71991
523.9764, 16.53805
524.4585, 16.69677
524.9406, 16.17854
525.4227, 15.70123
525.9048, 15.51522
526.3870, 15.55090
526.8691, 15.66600
527.3513, 15.85689
527.8334, 16.05823
528.3155, 16.23814
528.7976, 16.39588
529.2797, 16.53382
529.7618, 16.65498
530.2440, 16.74524
530.7261, 16.65799
531.2082, 16.57608
531.6903, 16.73460
532.1724, 17.76077
532.6545, 18.45735
533.1367, 18.17084
533.6188, 17.19798
534.1009, 16.59374
534.5830, 16.89788
535.0651, 17.22876
535.5472, 17.27393
536.0294, 16.97582
536.5115, 16.81599
536.9936, 16.84794
537.4757, 16.94347
537.9578, 17.03274
538.4399, 17.14303
538.9221, 17.05123
539.4042, 16.67665
539.8863, 16.18962
540.3684, 15.89434
540.8505, 15.77746
541.3326, 15.67502
541.8148, 15.44841
542.2969, 15.23821
542.7790, 15.37943
543.2611, 15.82605
543.7432, 16.21452
544.2253, 16.23004
544.7075, 16.09899
545.1896, 16.06096
545.6717, 16.16598
546.1538, 16.26483
546.6359, 16.22693
547.1180, 16.16889
547.6002, 16.21531
548.0823, 16.71702
548.5644, 16.95465
549.0465, 16.55289
549.5286, 15.78261
550.0107, 15.44823
550.4929, 15.86959
550.9750, 16.24626
551.4571, 16.31010
551.9392, 16.05886
552.4213, 15.83783
552.9034, 15.64903
553.3856, 15.47969
553.8677, 15.29692
554.3498, 15.10923
554.8319, 15.03901
555.3140, 15.11870
555.7961, 15.24212
556.2783, 15.25634
556.7604, 15.20007
557.2425, 15.18584
557.7246, 15.30215
558.2067, 15.42961
558.6888, 15.40240
559.1710, 15.27640
559.6531, 15.24223
560.1352, 15.54023
560.6173, 15.84170
561.0994, 15.92530
561.5815, 15.74606
562.0637, 15.59848
562.5458, 15.54688
563.0279, 15.54334
563.5100, 15.54057
563.9921, 15.40362
564.4742, 15.53325
564.9564, 16.09889
565.4385, 16.80756
565.9206, 17.13018
566.4027, 16.98950
566.8848, 16.82980
567.3669, 16.75833
567.8491, 16.76731
568.3312, 16.85309
568.8133, 17.01279
569.2954, 17.18570
569.7775, 17.30231
570.2596, 17.41330
570.7418, 17.60267
571.2239, 17.87707
571.7060, 18.22695
572.1881, 18.70385
572.6702, 19.22501
573.1523, 19.68970
573.6345, 19.97252
574.1166, 20.37081
574.5987, 21.09895
575.0808, 21.98785
575.5629, 22.77043
576.0450, 23.16269
576.5272, 23.69676
577.0093, 24.43865
577.4914, 25.38618
577.9735, 26.58628
578.4556, 28.10387
578.9377, 29.72076
579.4199, 31.36561
579.9020, 33.01846
580.3841, 34.68956
580.8662, 36.36672
581.3483, 38.09944
581.8304, 39.89238
582.3126, 41.76072
582.7947, 43.73174
583.2768, 45.77536
583.7589, 48.03230
584.2410, 50.69550
584.7231, 53.67870
585.2053, 56.81097
585.6874, 60.07429
586.1696, 63.41602
586.6517, 66.56532
587.1338, 69.68989
587.6159, 73.52876
588.0980, 78.67992
588.5801, 84.21827
589.0623, 89.75353
589.5444, 95.21736
590.0265, 101.0328
590.5086, 107.3872
590.9907, 113.8497
591.4728, 120.2459
591.9550, 126.6306
592.4371, 132.3619
592.9192, 137.4711
593.4013, 141.6084
593.8834, 144.3889
594.3655, 145.7749
594.8477, 145.4971
595.3298, 143.4637
595.8119, 139.7509
596.2940, 133.8756
596.7761, 126.3030
597.2582, 118.4147
597.7404, 110.5417
598.2225, 102.9304
598.7046, 95.66579
599.1867, 88.78988
599.6688, 82.45786
600.1509, 76.71505
600.6331, 71.44865
601.1152, 66.66972
601.5973, 62.36275
602.0794, 58.43622
602.5615, 54.92500
603.0436, 51.79411
603.5258, 49.08997
604.0079, 46.86906
604.4900, 44.82700
604.9721, 42.96414
605.4542, 41.22460
605.9363, 39.45424
606.4185, 37.69242
606.9006, 36.14397
607.3827, 35.01400
607.8648, 34.11406
608.3469, 33.19265
608.8290, 32.26555
609.3112, 31.47211
609.7933, 31.05206
610.2754, 30.67699
610.7575, 29.98155
611.2396, 28.85762
611.7217, 28.08365
612.2039, 28.31016
612.6860, 28.70464
613.1681, 28.61995
613.6502, 27.71003
614.1323, 26.87508
614.6144, 26.00680
615.0966, 25.32678
615.5787, 25.29460
616.0608, 26.07236
616.5429, 26.43551
617.0250, 26.00594
617.5071, 25.10485
617.9893, 24.40290
618.4714, 23.88719
618.9535, 23.47884
619.4356, 23.19452
619.9177, 22.95193
620.3998, 22.61627
620.8820, 22.20192
621.3641, 21.84906
621.8462, 21.59832
622.3283, 21.46021
622.8104, 21.50668
623.2925, 21.84882
623.7747, 21.95318
624.2568, 21.40434
624.7389, 20.78037
625.2210, 20.56789
625.7031, 21.03533
626.1852, 21.33118
626.6674, 21.40777
627.1495, 21.29495
627.6316, 20.98229
628.1137, 20.45936
628.5958, 20.01579
629.0779, 19.81560
629.5601, 19.65067
630.0422, 18.91492
630.5243, 17.77188
631.0064, 16.96292
631.4885, 17.18560
631.9706, 17.74126
632.4528, 17.94634
632.9349, 17.81473
633.4170, 17.78812
633.8991, 18.25779
634.3812, 18.74215
634.8633, 18.93919
635.3455, 18.71943
635.8276, 18.51116
636.3097, 18.28546
636.7918, 18.11344
637.2739, 18.08052
637.7560, 18.24502
638.2382, 18.29863
638.7203, 18.18076
639.2024, 18.01270
639.6845, 18.03513
640.1666, 18.21038
640.6487, 18.21097
641.1309, 17.83076
641.6130, 17.37963
642.0951, 17.32368
642.5772, 17.55835
643.0594, 17.79288
643.5415, 17.92464
644.0236, 17.98011
644.5057, 17.94739
644.9879, 17.83778
645.4700, 17.74692
645.9521, 17.72385
646.4342, 17.69904
646.9163, 17.62523
647.3984, 17.48010
647.8806, 17.44514
648.3627, 17.55845
648.8448, 17.71073
649.3269, 17.85580
649.8090, 17.99270
650.2911, 17.91885
650.7733, 17.57351
651.2554, 17.21918
651.7375, 17.19849
652.2196, 17.40955
652.7017, 17.61498
653.1838, 17.78699
653.6660, 17.85798
654.1481, 17.65610
654.6302, 17.33587
655.1123, 17.16826
655.5944, 17.42120
656.0765, 17.65293
656.5587, 17.71038
657.0408, 17.62634
657.5229, 17.56543
658.0050, 17.50939
658.4871, 17.51369
658.9692, 17.63468
659.4514, 17.85094
659.9335, 17.91854
660.4156, 17.82923
660.8977, 17.66132
661.3798, 17.42527
661.8619, 17.15918
662.3441, 16.95777
662.8262, 16.82705
663.3083, 16.74559
663.7904, 16.65090
664.2725, 16.61831
664.7546, 16.77623
665.2368, 17.28320
665.7189, 17.61529
666.2010, 17.41723
666.6831, 17.03656
667.1652, 16.87936
667.6473, 17.16423
668.1295, 17.33341
668.6116, 17.31827
669.0937, 17.19068
669.5758, 17.07910
670.0579, 16.98183
670.5400, 16.90917
671.0222, 16.85971
671.5043, 16.84123
671.9864, 16.90193
672.4685, 17.02037
672.9506, 17.09148
673.4327, 16.98519
673.9149, 16.85625
674.3970, 16.83603
674.8791, 16.92115
675.3612, 17.06072
675.8433, 17.33163
676.3254, 17.57135
676.8076, 17.70801
677.2897, 17.74141
677.7718, 17.60738
678.2539, 17.12012
678.7360, 16.72707
679.2181, 16.79434
679.7003, 17.38176
680.1824, 17.78070
680.6645, 17.94429
681.1466, 18.02785
681.6287, 18.22557
682.1108, 18.48015
682.5930, 18.61833
683.0751, 18.58908
683.5572, 18.50011
684.0393, 18.38979
684.5214, 18.29273
685.0035, 18.25760
685.4857, 18.26791
685.9678, 18.37791
686.4499, 18.63678
686.9320, 19.00154
687.4141, 19.39344
687.8962, 19.91820
688.3784, 20.25034
688.8605, 20.24683
689.3426, 20.02994
689.8247, 20.00270
690.3068, 20.16747
690.7889, 20.46246
691.2711, 20.91221
691.7532, 21.44758
692.2353, 21.96733
692.7174, 22.45388
693.1995, 22.82501
693.6816, 22.86621
694.1638, 22.89355
694.6459, 23.18307
695.1280, 23.76728
695.6101, 24.29312
696.0922, 24.62751
696.5743, 24.91755
697.0565, 25.22238
697.5386, 25.51012
698.0207, 25.97674
698.5028, 26.66800
698.9849, 27.44211
699.4670, 28.18587
699.9492, 28.89934
700.4313, 29.54070
700.9135, 30.06742
701.3956, 30.69694
701.8777, 31.71302
702.3598, 32.98019
702.8419, 34.29002
703.3240, 35.66265
703.8062, 36.91112
704.2883, 37.75172
704.7704, 38.45495
705.2525, 39.39873
705.7346, 40.81985
706.2167, 42.28301
706.6989, 43.79506
707.1810, 45.30243
707.6631, 46.71416
708.1452, 48.01919
708.6273, 49.19838
709.1094, 50.39695
709.5916, 51.31405
710.0737, 51.20668
710.5558, 50.16052
711.0379, 48.61189
711.5200, 46.60107
712.0021, 44.33796
712.4843, 41.93720
712.9664, 39.40249
713.4485, 36.72880
713.9306, 33.29867
714.4127, 30.31331
714.8948, 28.62191
715.3770, 28.22172
715.8591, 27.28220
716.3412, 25.47220
716.8233, 23.78095
717.3054, 22.90794
717.7875, 22.80255
718.2697, 22.27625
718.7518, 21.29492
719.2339, 20.29874
719.7160, 19.68195
720.1981, 19.29303
720.6802, 18.84356
721.1624, 18.28298
721.6445, 17.90104
722.1266, 18.05205
722.6087, 18.35375
723.0908, 18.47521
723.5729, 18.27189
724.0551, 18.07046
724.5372, 17.90433
725.0193, 17.73140
725.5014, 17.47694
725.9835, 17.09856
726.4656, 16.92121
726.9478, 17.01703
727.4299, 17.21403
727.9120, 17.28040
728.3941, 17.24475
728.8762, 17.18240
729.3583, 17.08325
729.8405, 17.03192
730.3226, 17.22516
730.8047, 17.48747
731.2868, 17.52400
731.7689, 16.83416
732.2510, 16.39137
732.7332, 16.65369
733.2153, 17.25422
733.6974, 17.42661
734.1795, 16.95267
734.6616, 16.66331
735.1437, 16.84006
735.6259, 17.26476
736.1080, 17.32842
736.5901, 17.07366
737.0722, 16.87934
737.5543, 16.99401
738.0364, 17.21208
738.5186, 17.34599
739.0007, 17.38654
739.4828, 17.30630
739.9649, 16.86142
740.4470, 16.51509
740.9291, 16.58594
741.4113, 17.03509
741.8934, 17.16975
742.3755, 16.77974
742.8576, 16.45733
743.3397, 16.48324
743.8218, 16.80232
744.3040, 16.95480
744.7861, 16.93670
745.2682, 16.86885
745.7503, 16.75803
746.2324, 16.68174
746.7145, 16.83635
747.1967, 17.20612
747.6788, 17.47067
748.1609, 17.42497
748.6430, 17.23499
749.1251, 16.98676
749.6072, 16.67199
750.0894, 16.37328
750.5715, 16.00713
751.0536, 15.76999
751.5357, 15.85774
752.0178, 16.31682
752.4999, 16.51423
752.9821, 16.42584
753.4642, 16.23927
753.9463, 16.09016
754.4284, 15.98102
754.9105, 15.90043
755.3926, 15.83896
755.8748, 15.88141
756.3569, 16.19163
756.8390, 16.56525
757.3211, 16.83300
757.8032, 16.98236
758.2853, 16.96452
758.7675, 16.65737
759.2496, 16.31200
759.7318, 16.14299
760.2139, 16.16048
760.6960, 16.33915
761.1781, 16.73574
761.6602, 17.07995
762.1423, 16.96680
762.6245, 16.55084
763.1066, 16.18021
763.5887, 15.90178
764.0708, 15.78421
764.5529, 16.02599
765.0350, 16.39676
765.5172, 16.62337
765.9993, 16.57026
766.4814, 16.46042
766.9635, 16.23682
767.4456, 16.01952
767.9277, 15.96782
768.4099, 16.09548
768.8920, 16.31750
769.3741, 16.65764
769.8562, 16.99567
770.3383, 17.16399
770.8204, 17.19050
771.3026, 17.14463
771.7847, 17.02421
772.2668, 16.88265
772.7489, 16.70123
773.2310, 16.53670
773.7131, 16.47977
774.1953, 16.64738
774.6774, 16.79476
775.1595, 16.84710
775.6416, 16.89373
776.1237, 17.15062
776.6058, 17.66656
777.0880, 17.99436
777.5701, 17.96283
778.0522, 17.80680
778.5343, 17.93370
779.0164, 18.26459
779.4985, 18.57473
779.9807, 18.79619
780.4628, 18.93622
780.9449, 18.94035
781.4270, 18.87132
781.9091, 18.86039
782.3912, 18.91870
782.8734, 19.06809
783.3555, 19.38089
783.8376, 19.75538
784.3197, 19.86101
784.8018, 19.65774
785.2839, 19.71961
785.7661, 20.36885
786.2482, 21.16622
786.7303, 21.36217
787.2124, 21.08863
787.6945, 20.72744
788.1766, 20.36775
788.6588, 20.05263
789.1409, 19.74590
789.6230, 19.49493
790.1051, 19.44201
790.5872, 19.83664
791.0693, 20.05179
791.5515, 19.92341
792.0336, 19.55576
792.5157, 19.20303
792.9978, 18.86474
793.4799, 18.67544
793.9620, 18.77933
794.4442, 18.94568
794.9263, 18.75761
795.4084, 18.34471
795.8905, 18.06625
796.3726, 18.35653
796.8547, 18.52920
797.3369, 18.05902
797.8190, 17.21996
798.3011, 16.98797
798.7832, 17.77513
799.2653, 18.36553
799.7474, 18.43355
800.2296, 18.13668
800.7117, 17.86627
801.1938, 17.62464
801.6759, 17.43122
802.1580, 17.23504
802.6401, 17.15475
803.1223, 17.50490
803.6044, 18.08954
804.0865, 18.39276
804.5686, 18.02587
805.0507, 17.57205
805.5328, 17.08233
806.0150, 16.65121
806.4971, 16.56950
806.9792, 16.96683
807.4613, 17.29790
807.9434, 17.40543
808.4255, 17.36406
808.9077, 17.32651
809.3898, 17.29051
809.8719, 17.24496
810.3540, 17.15114
810.8361, 17.08136
811.3182, 17.09971
811.8004, 17.18534
812.2825, 17.28900
812.7646, 17.47099
813.2467, 17.57611
813.7288, 17.54318
814.2109, 17.42985
814.6931, 17.39200
815.1752, 17.44076
815.6573, 17.46136
816.1394, 17.41758
816.6215, 17.33462
817.1037, 17.29246
817.5858, 17.24671
818.0679, 17.07550
818.5500, 16.38477
819.0322, 15.93195
819.5143, 16.37966
819.9964, 17.28796
820.4785, 17.71362
820.9606, 17.28064
821.4427, 16.97169
821.9249, 16.92477
822.4070, 17.08575
822.8891, 17.48627
823.3712, 18.07742
823.8533, 18.25276
824.3354, 17.64295
824.8176, 16.97565
825.2997, 17.22150
825.7818, 17.95979
826.2639, 18.46427
826.7460, 18.33212
827.2281, 18.14017
827.7103, 17.99047
828.1924, 17.86498
828.6745, 17.74548
829.1566, 17.64444
829.6387, 17.47440
830.1208, 17.17254
830.6030, 16.91828
831.0851, 17.04134
831.5672, 17.43872
832.0493, 17.87412
832.5314, 18.37615
833.0135, 18.64583
833.4957, 18.19831
833.9778, 17.52021
834.4599, 17.17669
834.9420, 17.56337
835.4241, 17.91763
835.9063, 18.30245
836.3884, 18.57587
836.8705, 18.50003
837.3526, 18.08706
837.8347, 17.76179
838.3168, 17.56534
838.7990, 17.50491
839.2811, 17.66646
839.7632, 17.93191
840.2453, 18.14489
840.7274, 18.27806
841.2095, 18.34981
841.6917, 18.33417
842.1738, 18.28023
842.6559, 18.20712
843.1380, 18.05981
843.6201, 18.10702
844.1022, 18.38071
844.5844, 18.73873
845.0665, 19.08837
845.5486, 19.41470
846.0307, 19.71527
846.5128, 19.99526
846.9949, 20.06918
847.4771, 19.48734
847.9592, 18.88402
848.4413, 18.82562
848.9234, 19.52597
849.4055, 19.90907
849.8876, 19.71442
850.3698, 19.56918
850.8519, 19.95727
851.3340, 20.80584
851.8161, 21.03838
852.2982, 20.65966
852.7803, 20.34832
853.2625, 20.75398
853.7446, 21.38323
854.2267, 21.62623
854.7088, 21.50965
855.1909, 21.65940
855.6730, 22.58645
856.1552, 23.49379
856.6373, 24.03729
857.1194, 24.27568
857.6015, 24.66813
858.0836, 25.20621
858.5657, 26.00408
859.0479, 27.32822
859.5300, 28.81107
860.0121, 29.53380
860.4942, 29.74203
860.9763, 30.29432
861.4584, 31.95058
861.9406, 33.69418
862.4227, 34.97857
862.9048, 35.96165
863.3869, 37.19182
863.8690, 38.75846
864.3511, 40.34681
864.8333, 41.81805
865.3154, 43.37570
865.7975, 45.55444
866.2796, 48.27440
866.7617, 51.24579
867.2438, 54.60604
867.7260, 57.82358
868.2081, 60.08369
868.6902, 62.08464
869.1723, 64.95411
869.6544, 70.45841
870.1365, 74.70303
870.6187, 77.24678
871.1008, 78.72935
871.5829, 80.18934
872.0650, 81.55601
872.5471, 81.23959
873.0292, 78.86511
873.5114, 75.48990
873.9935, 72.00330
874.4756, 68.25483
874.9577, 63.95742
875.4399, 58.73273
875.9220, 53.86055
876.4041, 49.65529
876.8862, 45.96622
877.3683, 42.73745
877.8505, 39.97222
878.3326, 37.65108
878.8147, 35.78510
879.2968, 34.32022
879.7789, 33.46235
880.2610, 32.89651
880.7432, 32.04315
881.2253, 30.87907
881.7074, 29.83440
882.1895, 29.17049
882.6716, 28.62854
883.1537, 28.00942
883.6359, 27.32978
884.1180, 27.06528
884.6001, 27.32222
885.0822, 27.53994
885.5643, 27.41344
886.0464, 27.08291
886.5286, 26.83085
887.0107, 26.66407
887.4928, 26.61052
887.9749, 26.86635
888.4570, 27.05685
888.9391, 26.91913
889.4213, 26.55874
889.9034, 26.30339
890.3855, 26.06959
890.8676, 26.19052
891.3497, 26.84574
891.8318, 27.72967
892.3140, 28.25274
892.7961, 28.50884
893.2782, 28.85910
893.7603, 29.38766
894.2424, 30.08710
894.7245, 31.24808
895.2067, 32.43901
895.6888, 33.13108
896.1709, 32.71413
896.6530, 32.63417
897.1351, 32.96025
897.6172, 33.51690
898.0994, 34.28261
898.5815, 35.17831
899.0636, 35.49889
899.5457, 35.14620
900.0278, 34.73381
900.5099, 34.77915
900.9921, 34.98692
901.4742, 35.09224
901.9563, 35.05189
902.4384, 34.98261
902.9205, 34.74552
903.4026, 34.70532
903.8848, 35.10031
904.3669, 35.86643
904.8490, 36.51479
905.3311, 37.04361
905.8132, 37.48938
906.2953, 38.03895
906.7775, 38.39332
907.2596, 38.15580
907.7417, 37.45968
908.2238, 36.77280
908.7059, 36.29454
909.1880, 35.75658
909.6702, 35.12174
910.1523, 34.38539
910.6344, 33.52890
911.1165, 32.55333
911.5986, 31.41060
912.0807, 29.88760
912.5629, 28.69545
913.0450, 29.05478
913.5271, 30.14027
914.0092, 30.69454
914.4913, 29.87149
914.9734, 29.41027
915.4556, 29.89602
915.9377, 30.53097
916.4198, 30.49371
916.9019, 29.71909
917.3840, 29.48953
917.8661, 29.91130
918.3483, 30.49522
918.8304, 30.83126
919.3125, 31.05844
919.7946, 31.35920
920.2767, 31.75046
920.7589, 32.09131
921.2410, 32.39365
921.7231, 32.56591
922.2052, 32.49868
922.6873, 32.24583
923.1694, 32.32472
923.6516, 32.74321
924.1337, 33.18291
924.6158, 33.43402
925.0979, 33.66361
925.5800, 34.07792
926.0621, 34.64339
926.5443, 35.28310
927.0264, 36.13280
927.5085, 36.84428
927.9906, 37.31399
928.4727, 37.64936
928.9548, 37.94079
929.4370, 38.17271
929.9191, 38.81224
930.4012, 40.00800
930.8833, 41.30505
931.3654, 42.28044
931.8475, 42.99561
932.3297, 43.46497
932.8118, 43.52629
933.2939, 43.96136
933.7761, 45.25666
934.2582, 46.67623
934.7403, 47.78613
935.2224, 48.58721
935.7045, 49.35610
936.1866, 50.09358
936.6688, 50.94319
937.1509, 52.04504
937.6330, 53.28912
938.1151, 54.45648
938.5972, 55.62516
939.0793, 57.14367
939.5615, 59.60465
940.0436, 61.84536
940.5257, 63.33994
941.0078, 64.54312
941.4899, 66.80832
941.9720, 70.08415
942.4542, 72.89207
942.9363, 74.60473
943.4184, 76.27551
943.9005, 78.99336
944.3826, 82.40572
944.8647, 86.10243
945.3469, 89.92164
945.8290, 94.12929
946.3111, 98.86092
946.7932, 103.7926
947.2753, 108.5314
947.7574, 113.1685
948.2396, 118.4135
948.7217, 124.3137
949.2038, 130.4714
949.6859, 136.4117
950.1680, 142.5955
950.6501, 149.4617
951.1323, 157.0170
951.6144, 164.9093
952.0965, 172.9207
952.5786, 181.3938
953.0607, 190.4622
953.5428, 200.0366
954.0250, 210.0128
954.5071, 220.3093
954.9892, 230.4265
955.4713, 239.6818
955.9534, 249.3226
956.4355, 260.6617
956.9177, 272.7793
957.3998, 284.5393
957.8819, 296.1293
958.3640, 306.7797
958.8461, 316.5126
959.3282, 325.2955
959.8104, 333.0089
960.2925, 339.6299
960.7746, 344.8664
961.2567, 348.7070
961.7388, 351.0355
962.2209, 351.9534
962.7031, 351.2375
963.1852, 348.7478
963.6673, 344.4648
964.1494, 338.0283
964.6315, 329.1774
965.1136, 319.2316
965.5958, 308.5143
966.0779, 297.1616
966.5600, 285.1830
967.0421, 272.6884
967.5242, 260.3371
968.0063, 248.4995
968.4885, 236.5086
968.9706, 223.2264
969.4527, 210.0728
969.9348, 198.7151
970.4169, 189.6873
970.8990, 179.9426
971.3812, 169.1701
971.8633, 158.6248
972.3454, 149.9272
972.8275, 142.2560
973.3096, 134.0260
973.7917, 125.1620
974.2739, 117.4764
974.7560, 112.6215
975.2381, 108.0105
975.7202, 102.4245
976.2023, 96.24222
976.6844, 91.41849
977.1666, 87.90099
977.6487, 84.41393
978.1308, 80.30055
978.6129, 76.28862
979.0950, 73.24048
979.5771, 70.77425
980.0593, 68.23972
980.5414, 64.99155
981.0235, 62.45088
981.5056, 60.95015
981.9877, 59.71595
982.4698, 57.86041
982.9520, 55.51395
983.4341, 53.53830
983.9162, 51.98474
984.3983, 50.48205
984.8804, 48.59277
985.3625, 46.79052
985.8447, 45.48522
986.3268, 44.67745
986.8089, 43.86083
987.2910, 43.04124
987.7731, 42.19861
988.2552, 41.34859
988.7374, 40.43895
989.2195, 39.24942
989.7016, 37.92754
990.1837, 36.89143
990.6658, 36.44659
991.1479, 35.97809
991.6301, 35.10314
992.1122, 34.16930
992.5944, 33.53288
993.0765, 33.28298
993.5586, 32.89138
994.0407, 32.34130
994.5228, 31.74197
995.0049, 31.15036
995.4871, 30.58286
995.9692, 30.02528
996.4513, 29.49023
996.9334, 29.07049
997.4155, 28.83419
997.8976, 28.69113
998.3798, 28.71220
998.8619, 28.74716
999.3440, 28.33411
999.8261, 27.53139
1000.308, 26.96191
1000.790, 26.88659
1001.272, 26.74887
1001.755, 25.86456
1002.237, 24.78638
1002.719, 24.12180
1003.201, 24.04529
1003.683, 24.11934
1004.165, 24.46331
1004.647, 24.65879
1005.129, 24.32434
1005.612, 23.65596
1006.094, 23.21753
1006.576, 22.97013
1007.058, 22.70819
1007.540, 22.21194
1008.022, 21.81315
1008.504, 21.72457
1008.986, 21.78934
1009.468, 21.75258
1009.951, 21.60862
1010.433, 21.36475
1010.915, 20.97808
1011.397, 20.68982
1011.879, 20.99551
1012.361, 21.43919
1012.843, 21.37430
1013.325, 20.62506
1013.807, 20.09835
1014.290, 20.07131
1014.772, 20.10559
1015.254, 20.03012
1015.736, 19.86469
1016.218, 19.65703
1016.700, 19.42131
1017.182, 19.23907
1017.664, 19.14255
1018.147, 19.11455
1018.629, 19.22081
1019.111, 19.35789
1019.593, 19.36373
1020.075, 19.18926
1020.557, 19.02789
1021.039, 18.89489
1021.521, 18.74629
1022.003, 18.46794
1022.486, 18.17476
1022.968, 18.10617
1023.450, 18.25573
1023.932, 18.40301
1024.414, 18.56573
1024.896, 18.57308
1025.378, 18.27606
1025.860, 17.83971
1026.343, 17.73978
1026.825, 17.96265
1027.307, 18.34778
1027.789, 18.93313
1028.271, 19.40377
1028.753, 19.43347
1029.235, 19.21833
1029.717, 18.92359
1030.199, 18.45383
1030.682, 18.41075
1031.164, 18.97704
1031.646, 19.45728
1032.128, 19.29405
1032.610, 18.77594
1033.092, 18.68474
1033.574, 18.91064
1034.056, 19.05316
1034.539, 18.82725
1035.021, 18.61628
1035.503, 18.57357
1035.985, 18.58770
1036.467, 18.50904
1036.949, 18.33621
1037.431, 18.15373
1037.913, 17.97316
1038.396, 17.76773
1038.878, 17.42419
1039.360, 17.10654
1039.842, 17.05503
1040.324, 17.28017
1040.806, 17.16703
1041.288, 16.49168
1041.770, 15.94470
1042.252, 15.77130
1042.734, 15.80822
1043.217, 15.76292
1043.699, 15.64493
1044.181, 15.46578
1044.663, 15.16824
1045.145, 14.95058
1045.627, 15.01031
1046.109, 15.07620
1046.591, 14.91708
1047.074, 14.51838
1047.556, 14.27952
1048.038, 14.19899
1048.520, 14.19402
1049.002, 14.29485
1049.484, 14.37189
1049.966, 14.21246
1050.448, 14.35406
1050.931, 13.93081
1051.413, 14.43099
1051.895, 14.71840
1052.377, 14.70851
1052.859, 14.48124
1053.341, 13.92275
1053.823, 13.27247
1054.305, 13.16439
1054.787, 13.67291
1055.270, 14.04984
1055.752, 13.82084
1056.234, 13.53414
1056.716, 13.41576
1057.198, 13.42968
1057.680, 13.45224
1058.162, 13.48264
1058.644, 13.50506
1059.126, 13.50269
1059.609, 13.52101
1060.091, 13.69566
1060.573, 13.86030
1061.055, 13.77134
1061.537, 13.26361
1062.019, 13.13170
1062.501, 13.46993
1062.983, 13.83862
1063.466, 13.98027
1063.948, 13.94014
1064.430, 13.74113
1064.912, 13.42918
1065.394, 13.14076
1065.876, 12.88677
1066.358, 12.72349
1066.840, 12.64207
1067.323, 12.66325
1067.805, 12.83112
1068.287, 13.13225
1068.769, 13.53547
1069.251, 14.03628
1069.733, 14.32301
1070.215, 13.93589
1070.697, 13.47691
1071.179, 13.43962
1071.661, 13.69060
1072.144, 13.57386
1072.626, 13.00894
1073.108, 12.63105
1073.590, 12.61502
1074.072, 12.81709
1074.554, 13.25133
1075.036, 13.70044
1075.518, 13.82802
1076.001, 13.46726
1076.483, 13.31455
1076.965, 13.55679
1077.447, 13.72921
1077.929, 13.55112
1078.411, 13.15533
1078.893, 12.92642
1079.375, 12.81456
1079.858, 12.65107
1080.340, 12.14568
1080.822, 11.88942
1081.304, 12.39282
1081.786, 13.00943
1082.268, 13.10326
1082.750, 12.66034
1083.232, 12.46268
1083.714, 12.52497
1084.197, 12.61769
1084.679, 12.55552
1085.161, 12.47972
1085.643, 12.51257
1086.125, 12.51531
1086.607, 12.54853
1087.089, 12.65130
1087.571, 12.69150
1088.054, 12.84291
1088.536, 12.97853
1089.018, 12.85263
1089.500, 12.66311
1089.982, 12.71125
1090.464, 13.03226
1090.946, 13.41348
1091.428, 14.09664
1091.911, 14.34169
1092.393, 13.75871
1092.875, 12.76041
1093.357, 12.23568
1093.839, 12.13578
1094.321, 12.34651
1094.803, 12.95615
1095.285, 13.48346
1095.767, 13.65815
1096.250, 13.70064
1096.732, 13.76640
1097.214, 13.84826
1097.696, 13.74399
1098.178, 13.46782
1098.660, 13.32049
1099.142, 13.58163
1099.624, 13.87997
1100.106, 13.88068
1100.589, 13.75477
1101.071, 13.78704
1101.553, 14.06830
1102.035, 14.23507
1102.517, 14.26831
1102.999, 14.25793
1103.481, 14.31350
1103.963, 14.34708
1104.446, 14.21350
1104.928, 13.94666
1105.410, 13.68962
1105.892, 13.30198
1106.374, 13.25123
1106.856, 13.68773
1107.338, 14.31355
1107.820, 14.80121
1108.302, 15.14788
1108.785, 15.34605
1109.267, 15.39385
1109.749, 15.40444
1110.231, 15.39746
1110.713, 15.38669
1111.195, 15.30745
1111.677, 15.26967
1112.159, 15.61061
1112.641, 16.28799
1113.124, 17.07630
1113.606, 17.97724
1114.088, 18.75693
1114.570, 18.99657
1115.052, 19.27075
1115.534, 20.08004
1116.016, 21.38991
1116.498, 22.60713
1116.981, 23.73901
1117.463, 24.83954
1117.945, 25.86513
1118.427, 26.98118
1118.909, 28.26552
1119.391, 29.78230
1119.873, 31.65689
1120.355, 33.99421
1120.838, 36.36469
1121.320, 38.74716
1121.802, 41.25167
1122.284, 43.85089
1122.766, 46.67011
1123.248, 49.92126
1123.730, 53.61539
1124.212, 57.80540
1124.694, 62.94464
1125.177, 68.01109
1125.659, 73.08800
1126.141, 77.76978
1126.623, 82.09602
1127.105, 85.58357
1127.587, 86.91733
1128.069, 86.14394
1128.551, 84.05948
1129.033, 80.45168
1129.516, 76.18642
1129.998, 71.35695
1130.480, 66.24957
1130.962, 61.09661
1131.444, 56.01324
1131.926, 51.31489
1132.408, 47.03941
1132.890, 43.37696
1133.373, 40.65343
1133.855, 38.39263
1134.337, 36.45152
1134.819, 34.69891
1135.301, 32.64742
1135.783, 30.33319
1136.265, 28.34146
1136.747, 26.84245
1137.229, 25.60872
1137.712, 24.60177
1138.194, 23.65506
1138.676, 22.54017
1139.158, 21.24849
1139.640, 20.33605
1140.122, 19.81738
1140.604, 19.49074
1141.086, 19.35845
1141.569, 19.21457
1142.051, 18.76098
1142.533, 18.17654
1143.015, 17.69563
1143.497, 17.37871
1143.979, 17.09140
1144.461, 16.83466
1144.943, 16.61492
1145.426, 16.51580
1145.908, 16.39543
1146.390, 15.92958
1146.872, 15.28700
1147.354, 14.81464
1147.836, 14.67682
1148.318, 14.65744
1148.800, 14.80752
1149.282, 14.93947
1149.765, 14.87972
1150.247, 14.69214
1150.729, 14.48990
1151.211, 14.28544
1151.693, 14.11131
1152.175, 13.95763
1152.657, 13.88217
1153.139, 13.94346
1153.621, 14.00385
1154.104, 13.85597
1154.586, 13.57463
1155.068, 13.45630
1155.550, 13.49470
1156.032, 13.42505
1156.514, 12.97242
1156.996, 12.56292
1157.478, 12.29062
1157.961, 12.16860
1158.443, 12.24765
1158.925, 12.50541
1159.407, 12.87198
1159.889, 13.34208
1160.371, 13.67267
1160.853, 13.71138
1161.335, 13.55851
1161.818, 13.15581
1162.300, 12.65482
1162.782, 12.53335
1163.264, 12.76035
1163.746, 12.96673
1164.228, 13.08613
1164.710, 13.09138
1165.192, 12.87037
1165.674, 12.60606
1166.156, 12.42392
1166.639, 12.31938
1167.121, 12.25934
1167.603, 12.24461
1168.085, 12.32555
1168.567, 12.56525
1169.049, 12.76567
1169.531, 12.65007
1170.013, 12.48348
1170.496, 12.56461
1170.978, 12.90048
1171.460, 13.17446
1171.942, 13.39264
1172.424, 13.46274
1172.906, 13.31451
1173.388, 13.05078
1173.870, 12.63507
1174.353, 12.23757
1174.835, 12.13341
1175.317, 12.40626
1175.799, 12.50101
1176.281, 12.40114
1176.763, 12.26013
1177.245, 12.13690
1177.727, 12.04616
1178.209, 12.01430
1178.692, 12.02276
1179.174, 12.05095
1179.656, 12.16342
1180.138, 12.06111
1180.620, 11.68169
1181.102, 11.40319
1181.584, 11.65017
1182.066, 12.03680
1182.548, 12.02467
1183.031, 11.77089
1183.513, 11.65384
1183.995, 11.78099
1184.477, 11.94631
1184.959, 12.16296
1185.441, 12.33914
1185.923, 12.34831
1186.405, 12.29797
1186.888, 12.42247
1187.370, 12.62727
1187.852, 12.53925
1188.334, 11.79823
1188.816, 11.40888
1189.298, 11.51737
1189.780, 11.80386
1190.262, 11.99996
1190.745, 12.12739
1191.227, 12.20934
1191.709, 12.25102
1192.191, 12.27465
1192.673, 12.34854
1193.155, 12.26170
1193.637, 11.94541
1194.119, 11.56947
1194.601, 11.23074
1195.084, 11.01732
1195.566, 11.18572
1196.048, 11.69832
1196.530, 11.97806
1197.012, 11.87285
1197.494, 11.57895
1197.976, 11.02281
1198.458, 10.55354
1198.941, 10.83907
1199.423, 11.47606
1199.905, 11.75889
1200.387, 11.62111
1200.869, 11.48866
1201.351, 11.39569
1201.833, 11.42396
1202.315, 11.62869
1202.797, 11.89325
1203.280, 12.08276
1203.762, 12.17588
1204.244, 12.07962
1204.726, 11.76700
1205.208, 11.62298
1205.690, 11.85009
1206.172, 11.94567
1206.654, 11.69217
1207.136, 11.35437
1207.619, 11.47120
1208.101, 11.80697
1208.583, 11.92114
1209.065, 11.69664
1209.547, 11.58495
1210.029, 11.70267
1210.511, 11.82843
1210.993, 11.91954
1211.476, 11.91829
1211.958, 11.57350
1212.440, 11.11183
1212.922, 10.99259
1213.404, 11.39499
1213.886, 11.64876
1214.368, 11.65786
1214.850, 11.56912
1215.333, 11.40640
1215.815, 11.23674
1216.297, 11.24083
1216.779, 11.30734
1217.261, 11.19769
1217.743, 10.75971
1218.225, 10.59711
1218.707, 10.89855
1219.189, 11.07072
1219.672, 10.71856
1220.154, 10.22781
1220.636, 10.32130
1221.118, 10.78889
1221.600, 11.31252
1222.082, 11.96246
1222.564, 12.08423
1223.046, 11.45199
1223.528, 10.90832
1224.011, 10.97259
1224.493, 11.28453
1224.975, 11.22443
1225.457, 10.96883
1225.939, 10.83217
1226.421, 10.95797
1226.903, 11.00217
1227.385, 10.94982
1227.868, 10.84963
1228.350, 10.63001
1228.832, 10.48911
1229.314, 10.91023
1229.796, 11.56471
1230.278, 11.87432
1230.760, 11.58871
1231.242, 11.33968
1231.724, 11.12210
1232.207, 10.95754
1232.689, 10.84308
1233.171, 10.80556
1233.653, 10.94359
1234.135, 11.15845
1234.617, 11.27850
1235.099, 11.24750
1235.581, 11.27368
1236.063, 11.38266
1236.546, 11.36565
1237.028, 10.88097
1237.510, 10.42876
1237.992, 10.69075
1238.474, 11.28717
1238.956, 11.56701
1239.438, 11.40949
1239.920, 11.33215
1240.403, 11.34439
1240.885, 11.32207
1241.367, 11.13504
1241.849, 10.93297
1242.331, 10.81301
1242.813, 10.78243
1243.295, 10.86646
1243.777, 11.10210
1244.260, 11.21434
1244.742, 11.20451
1245.224, 11.18924
1245.706, 11.31003
1246.188, 11.37640
1246.670, 11.15551
1247.152, 10.86329
1247.634, 10.82280
1248.116, 11.06510
1248.599, 11.09015
1249.081, 10.90636
1249.563, 10.67699
1250.045, 10.31976
1250.527, 10.15471
1251.009, 10.54872
1251.491, 11.08162
1251.973, 11.34509
1252.455, 11.34513
1252.938, 11.13419
1253.420, 10.75661
1253.902, 10.54286
1254.384, 10.80005
1254.866, 11.09736
1255.348, 11.38792
1255.830, 11.54154
1256.313, 11.35211
1256.795, 10.89585
1257.277, 10.61969
1257.759, 10.52179
1258.241, 10.56548
1258.723, 10.96544
1259.205, 11.15294
1259.687, 10.88032
1260.169, 10.59656
1260.651, 10.82456
1261.134, 11.33140
1261.616, 11.28270
1262.098, 10.83188
1262.580, 10.53871
1263.062, 10.73659
1263.544, 10.93577
1264.026, 11.12619
1264.508, 11.23077
1264.991, 11.15085
1265.473, 10.95895
1265.955, 10.68639
1266.437, 10.42634
1266.919, 10.42652
1267.401, 11.09705
1267.883, 11.35637
1268.365, 11.10997
1268.848, 10.76300
1269.330, 10.61464
1269.812, 10.55612
1270.294, 10.41165
1270.776, 10.25444
1271.258, 10.27475
1271.740, 10.59035
1272.222, 10.67768
1272.704, 10.49319
1273.187, 10.41939
1273.669, 10.95136
1274.151, 11.48151
1274.633, 11.33530
1275.115, 10.89504
1275.597, 10.80893
1276.079, 11.17347
1276.561, 11.27158
1277.043, 11.10738
1277.526, 10.92669
1278.008, 10.94602
1278.490, 10.91768
1278.972, 10.57911
1279.454, 10.20863
1279.936, 10.08117
1280.418, 10.19343
1280.900, 10.50391
1281.383, 10.95709
1281.865, 11.20567
1282.347, 10.98902
1282.829, 10.65602
1283.311, 10.12415
1283.793, 9.752013
1284.275, 9.901389
1284.757, 10.43245
1285.240, 10.85400
1285.722, 11.14764
1286.204, 11.23017
1286.686, 10.81735
1287.168, 10.66747
1287.650, 10.94980
1288.132, 11.28180
1288.614, 11.42633
1289.096, 11.42190
1289.578, 11.30547
1290.061, 11.11076
1290.543, 10.89517
1291.025, 10.58971
1291.507, 10.50776
1291.989, 10.69620
1292.471, 10.88784
1292.953, 10.91535
1293.435, 10.88494
1293.918, 10.98139
1294.400, 11.07418
1294.882, 10.91761
1295.364, 10.45892
1295.846, 10.25820
1296.328, 10.31950
1296.810, 10.42152
1297.292, 10.48436
1297.775, 10.50733
1298.257, 10.48786
1298.739, 10.42699
1299.221, 10.31592
1299.703, 10.16469
1300.185, 10.06956
1300.667, 10.03241
1301.149, 10.07920
1301.631, 10.27678
1302.114, 10.40272
1302.596, 10.39377
##END=



