##NAMES=Sillimanite
##RRUFFID=R100126
##IDEAL CHEMISTRY=Al_2_OSiO_4_
##LOCALITY=Orissa, India
##OWNER=RRUFF
##SOURCE=William W. Pinch
##DESCRIPTION=Pale purple cut gemstone
##STATUS=The identification of this mineral has been confirmed by single-crystal X-ray diffraction.
##URL=rruff.info/R100126
90.60547, 4610.255
91.08759, 4533.445
91.56970, 4530.021
92.05182, 4560.245
92.53394, 4654.906
93.01605, 4740.510
93.49817, 4796.622
93.98029, 4831.121
94.46240, 4848.263
94.94452, 4846.370
95.42664, 4829.365
95.90874, 4799.596
96.39086, 4759.703
96.87298, 4716.477
97.35509, 4674.133
97.83721, 4627.169
98.31933, 4578.961
98.80145, 4527.050
99.28356, 4476.029
99.76568, 4428.695
100.2478, 4385.693
100.7299, 4346.785
101.2120, 4312.395
101.6941, 4280.981
102.1763, 4255.638
102.6584, 4239.889
103.1405, 4229.018
103.6226, 4216.422
104.1047, 4197.878
104.5868, 4174.567
105.0690, 4154.997
105.5511, 4139.791
106.0332, 4126.159
106.5153, 4112.803
106.9974, 4099.643
107.4795, 4086.975
107.9617, 4075.126
108.4438, 4063.769
108.9259, 4052.181
109.4080, 4039.501
109.8901, 4026.632
110.3722, 4015.038
110.8544, 4005.313
111.3365, 3995.460
111.8186, 3982.825
112.3007, 3968.974
112.7828, 3957.233
113.2649, 3951.459
113.7471, 3950.923
114.2292, 3946.334
114.7113, 3933.902
115.1934, 3920.470
115.6755, 3908.385
116.1576, 3897.688
116.6397, 3887.476
117.1219, 3876.642
117.6040, 3864.571
118.0861, 3853.695
118.5682, 3843.469
119.0503, 3834.465
119.5324, 3827.457
120.0146, 3822.431
120.4967, 3818.327
120.9788, 3813.471
121.4609, 3807.601
121.9430, 3801.094
122.4251, 3793.707
122.9073, 3785.713
123.3894, 3777.348
123.8715, 3768.581
124.3536, 3759.766
124.8357, 3751.801
125.3178, 3743.981
125.8000, 3737.816
126.2821, 3734.907
126.7642, 3734.480
127.2463, 3733.628
127.7284, 3730.726
128.2105, 3726.842
128.6927, 3724.092
129.1748, 3723.185
129.6569, 3722.380
130.1390, 3719.874
130.6211, 3715.437
131.1032, 3710.750
131.5854, 3706.205
132.0675, 3701.913
132.5496, 3697.931
133.0317, 3694.099
133.5138, 3690.835
133.9959, 3689.103
134.4781, 3689.217
134.9602, 3690.618
135.4423, 3692.470
135.9244, 3695.391
136.4065, 3700.463
136.8886, 3708.678
137.3708, 3719.732
137.8529, 3728.738
138.3350, 3728.973
138.8171, 3733.788
139.2992, 3746.202
139.7813, 3765.838
140.2635, 3791.855
140.7456, 3824.396
141.2277, 3865.080
141.7098, 3897.620
142.1919, 3934.567
142.6740, 3955.563
143.1561, 3944.357
143.6383, 3902.024
144.1204, 3846.616
144.6025, 3793.616
145.0846, 3743.027
145.5667, 3702.391
146.0488, 3676.198
146.5310, 3658.393
147.0131, 3642.961
147.4952, 3628.869
147.9773, 3617.148
148.4594, 3609.806
148.9415, 3606.098
149.4237, 3603.650
149.9058, 3602.488
150.3879, 3602.019
150.8700, 3600.560
151.3521, 3597.494
151.8342, 3593.736
152.3164, 3589.995
152.7985, 3586.288
153.2806, 3582.659
153.7627, 3578.954
154.2448, 3575.142
154.7269, 3572.113
155.2091, 3570.670
155.6912, 3569.580
156.1733, 3568.321
156.6554, 3566.807
157.1375, 3565.156
157.6196, 3563.745
158.1018, 3563.173
158.5839, 3560.933
159.0660, 3555.179
159.5481, 3549.080
160.0302, 3544.409
160.5123, 3541.674
160.9945, 3540.441
161.4766, 3540.063
161.9587, 3541.595
162.4408, 3542.399
162.9229, 3542.135
163.4050, 3541.362
163.8871, 3540.888
164.3693, 3541.001
164.8514, 3540.900
165.3335, 3538.493
165.8156, 3530.922
166.2977, 3525.088
166.7798, 3522.240
167.2620, 3521.465
167.7441, 3521.816
168.2262, 3523.200
168.7083, 3524.754
169.1904, 3523.839
169.6725, 3519.526
170.1547, 3515.095
170.6368, 3511.305
171.1189, 3508.302
171.6010, 3506.896
172.0831, 3508.493
172.5652, 3511.071
173.0474, 3510.497
173.5295, 3505.395
174.0116, 3499.797
174.4937, 3496.879
174.9758, 3496.629
175.4579, 3496.688
175.9401, 3496.330
176.4222, 3495.634
176.9043, 3494.662
177.3864, 3493.390
177.8685, 3491.927
178.3506, 3490.183
178.8328, 3487.871
179.3149, 3486.360
179.7970, 3486.545
180.2791, 3487.503
180.7612, 3488.653
181.2433, 3489.868
181.7255, 3490.857
182.2076, 3490.948
182.6897, 3489.698
183.1718, 3488.245
183.6539, 3486.749
184.1360, 3485.223
184.6181, 3483.590
185.1003, 3481.777
185.5824, 3479.982
186.0645, 3479.040
186.5466, 3481.264
187.0287, 3481.371
187.5108, 3477.205
187.9930, 3470.993
188.4751, 3465.396
188.9572, 3461.915
189.4393, 3460.327
189.9214, 3459.493
190.4035, 3460.217
190.8857, 3460.843
191.3678, 3461.101
191.8499, 3461.071
192.3320, 3461.095
192.8141, 3461.508
193.2962, 3462.051
193.7784, 3460.476
194.2605, 3454.375
194.7426, 3449.219
195.2247, 3447.329
195.7068, 3447.965
196.1889, 3448.902
196.6711, 3448.836
197.1532, 3447.947
197.6353, 3447.358
198.1174, 3448.325
198.5995, 3448.409
199.0816, 3445.151
199.5638, 3439.138
200.0459, 3434.460
200.5280, 3433.977
201.0101, 3436.572
201.4922, 3438.368
201.9743, 3439.188
202.4565, 3439.253
202.9386, 3438.204
203.4207, 3435.993
203.9028, 3434.658
204.3849, 3435.777
204.8670, 3438.395
205.3492, 3441.270
205.8313, 3444.535
206.3134, 3447.550
206.7955, 3449.484
207.2776, 3450.240
207.7597, 3450.370
208.2419, 3449.501
208.7240, 3448.354
209.2061, 3447.801
209.6882, 3448.401
210.1703, 3449.105
210.6524, 3448.071
211.1346, 3444.936
211.6167, 3440.870
212.0988, 3435.276
212.5809, 3429.442
213.0630, 3424.475
213.5451, 3420.805
214.0273, 3418.363
214.5094, 3417.186
214.9915, 3418.086
215.4736, 3418.853
215.9557, 3419.520
216.4378, 3419.688
216.9200, 3418.879
217.4021, 3416.875
217.8842, 3413.996
218.3663, 3410.988
218.8484, 3406.392
219.3305, 3404.033
219.8127, 3405.844
220.2948, 3409.304
220.7769, 3411.927
221.2590, 3412.581
221.7411, 3411.657
222.2232, 3410.247
222.7054, 3406.285
223.1875, 3404.456
223.6696, 3406.218
224.1517, 3409.811
224.6338, 3413.338
225.1159, 3415.970
225.5980, 3417.930
226.0802, 3419.859
226.5623, 3419.866
227.0444, 3422.164
227.5265, 3427.345
228.0086, 3434.921
228.4907, 3443.791
228.9729, 3453.375
229.4550, 3464.879
229.9371, 3481.496
230.4192, 3501.295
230.9013, 3528.526
231.3834, 3560.766
231.8656, 3601.525
232.3477, 3656.355
232.8298, 3727.645
233.3119, 3812.787
233.7940, 3914.812
234.2761, 4056.470
234.7583, 4158.785
235.2404, 4206.735
235.7225, 4201.678
236.2046, 4134.827
236.6867, 3990.379
237.1688, 3813.985
237.6510, 3680.981
238.1331, 3590.081
238.6152, 3522.045
239.0973, 3477.647
239.5794, 3451.240
240.0615, 3432.168
240.5437, 3418.922
241.0258, 3409.482
241.5079, 3401.284
241.9900, 3394.161
242.4721, 3388.542
242.9542, 3385.396
243.4364, 3383.944
243.9185, 3382.116
244.4006, 3379.327
244.8827, 3376.481
245.3648, 3374.449
245.8469, 3373.157
246.3290, 3372.279
246.8112, 3372.058
247.2933, 3372.175
247.7754, 3371.562
248.2575, 3369.808
248.7396, 3367.739
249.2217, 3365.587
249.7039, 3363.539
250.1860, 3362.367
250.6681, 3363.487
251.1502, 3365.984
251.6323, 3366.295
252.1144, 3363.230
252.5966, 3359.573
253.0787, 3356.316
253.5608, 3353.738
254.0429, 3352.491
254.5250, 3353.191
255.0071, 3355.535
255.4893, 3358.648
255.9714, 3363.750
256.4535, 3367.547
256.9356, 3368.439
257.4177, 3367.327
257.8998, 3365.666
258.3820, 3364.297
258.8641, 3362.930
259.3462, 3360.382
259.8283, 3355.670
260.3104, 3351.381
260.7925, 3347.979
261.2747, 3345.486
261.7568, 3344.157
262.2389, 3344.365
262.7210, 3345.334
263.2031, 3344.572
263.6852, 3340.333
264.1674, 3337.379
264.6495, 3337.632
265.1316, 3339.210
265.6137, 3340.238
266.0958, 3339.930
266.5779, 3338.562
267.0601, 3336.573
267.5422, 3332.925
268.0243, 3330.662
268.5064, 3330.906
268.9885, 3332.126
269.4706, 3333.161
269.9528, 3333.576
270.4349, 3333.382
270.9170, 3332.457
271.3991, 3330.046
271.8812, 3328.429
272.3633, 3328.406
272.8455, 3328.687
273.3276, 3328.240
273.8097, 3326.837
274.2918, 3325.036
274.7739, 3323.530
275.2560, 3321.794
275.7382, 3321.615
276.2202, 3323.983
276.7024, 3326.799
277.1845, 3329.154
277.6666, 3330.705
278.1487, 3331.157
278.6308, 3329.966
279.1129, 3326.384
279.5951, 3323.719
280.0772, 3321.702
280.5593, 3320.590
281.0414, 3321.079
281.5235, 3322.797
282.0056, 3324.472
282.4878, 3324.871
282.9699, 3323.831
283.4520, 3322.666
283.9341, 3320.856
284.4162, 3319.457
284.8983, 3319.641
285.3805, 3320.728
285.8626, 3320.738
286.3447, 3317.859
286.8268, 3312.206
287.3089, 3309.560
287.7910, 3312.850
288.2732, 3315.771
288.7553, 3315.965
289.2374, 3314.513
289.7195, 3313.901
290.2016, 3315.780
290.6837, 3319.371
291.1659, 3320.290
291.6480, 3315.136
292.1301, 3311.259
292.6122, 3310.578
293.0943, 3311.687
293.5764, 3312.523
294.0586, 3312.129
294.5407, 3311.094
295.0228, 3311.032
295.5049, 3311.862
295.9870, 3313.893
296.4691, 3318.161
296.9513, 3323.213
297.4334, 3327.939
297.9155, 3331.900
298.3976, 3334.500
298.8797, 3334.465
299.3618, 3328.411
299.8440, 3326.316
300.3261, 3329.889
300.8082, 3336.241
301.2903, 3343.685
301.7724, 3351.653
302.2545, 3359.580
302.7367, 3366.633
303.2188, 3372.005
303.7009, 3379.926
304.1830, 3390.578
304.6651, 3403.326
305.1472, 3417.837
305.6294, 3434.067
306.1115, 3452.140
306.5936, 3472.207
307.0757, 3494.429
307.5578, 3517.711
308.0399, 3544.273
308.5221, 3569.563
309.0042, 3595.430
309.4863, 3618.830
309.9684, 3632.418
310.4505, 3631.391
310.9326, 3616.661
311.4148, 3593.631
311.8969, 3556.333
312.3790, 3518.961
312.8611, 3481.928
313.3432, 3447.599
313.8253, 3419.429
314.3075, 3399.240
314.7896, 3385.429
315.2717, 3374.106
315.7538, 3368.381
316.2359, 3360.637
316.7180, 3347.612
317.2001, 3333.455
317.6823, 3322.626
318.1644, 3316.379
318.6465, 3313.267
319.1286, 3311.169
319.6107, 3310.120
320.0928, 3310.353
320.5750, 3313.843
321.0571, 3317.189
321.5392, 3317.507
322.0213, 3314.625
322.5034, 3310.579
322.9855, 3307.431
323.4677, 3305.381
323.9498, 3302.278
324.4319, 3297.229
324.9140, 3292.090
325.3961, 3287.445
325.8782, 3283.461
326.3604, 3280.313
326.8425, 3278.190
327.3246, 3277.035
327.8067, 3276.067
328.2888, 3276.110
328.7709, 3275.458
329.2531, 3273.076
329.7352, 3269.857
330.2173, 3267.470
330.6994, 3266.780
331.1815, 3266.869
331.6636, 3265.193
332.1458, 3259.471
332.6279, 3254.781
333.1100, 3251.022
333.5921, 3248.508
334.0742, 3247.961
334.5563, 3249.466
335.0385, 3251.813
335.5206, 3253.285
336.0027, 3253.705
336.4848, 3253.504
336.9669, 3252.515
337.4490, 3251.090
337.9312, 3248.812
338.4133, 3246.054
338.8954, 3244.407
339.3775, 3245.710
339.8596, 3250.457
340.3417, 3251.811
340.8239, 3246.124
341.3060, 3241.289
341.7881, 3240.845
342.2702, 3243.356
342.7523, 3245.652
343.2344, 3245.780
343.7166, 3244.100
344.1987, 3242.362
344.6808, 3239.552
345.1629, 3237.904
345.6450, 3238.234
346.1271, 3239.599
346.6093, 3241.066
347.0914, 3242.267
347.5735, 3243.309
348.0556, 3244.450
348.5377, 3246.427
349.0198, 3247.114
349.5020, 3245.771
349.9841, 3243.921
350.4662, 3243.111
350.9483, 3243.200
351.4304, 3242.399
351.9125, 3238.529
352.3947, 3230.999
352.8768, 3224.422
353.3589, 3217.958
353.8410, 3213.262
354.3231, 3212.271
354.8052, 3213.507
355.2874, 3213.875
355.7695, 3211.112
356.2516, 3205.928
356.7337, 3202.356
357.2158, 3200.944
357.6979, 3200.591
358.1800, 3202.078
358.6621, 3204.019
359.1443, 3204.718
359.6264, 3203.539
360.1085, 3201.623
360.5906, 3200.984
361.0727, 3201.892
361.5548, 3203.468
362.0370, 3208.066
362.5191, 3211.449
363.0012, 3210.431
363.4833, 3205.042
363.9654, 3198.079
364.4475, 3191.792
364.9297, 3186.115
365.4118, 3182.157
365.8939, 3181.020
366.3760, 3180.510
366.8581, 3179.488
367.3402, 3178.403
367.8224, 3178.363
368.3045, 3180.383
368.7866, 3183.578
369.2687, 3185.548
369.7508, 3186.616
370.2329, 3185.583
370.7151, 3180.793
371.1972, 3174.514
371.6793, 3168.501
372.1614, 3163.189
372.6435, 3159.132
373.1256, 3157.476
373.6078, 3158.405
374.0899, 3159.248
374.5720, 3159.758
375.0541, 3159.703
375.5362, 3158.704
376.0183, 3156.856
376.5005, 3155.035
376.9826, 3153.829
377.4647, 3153.094
377.9468, 3152.250
378.4289, 3151.088
378.9110, 3150.163
379.3932, 3150.277
379.8753, 3150.836
380.3574, 3150.663
380.8395, 3149.009
381.3216, 3146.794
381.8037, 3145.131
382.2859, 3144.027
382.7680, 3143.047
383.2501, 3142.311
383.7322, 3141.375
384.2143, 3139.490
384.6964, 3136.377
385.1786, 3133.361
385.6607, 3130.927
386.1428, 3129.206
386.6249, 3128.765
387.1070, 3130.087
387.5891, 3131.791
388.0713, 3132.430
388.5534, 3132.109
389.0355, 3130.903
389.5176, 3127.558
389.9997, 3124.127
390.4818, 3123.303
390.9640, 3125.013
391.4461, 3125.989
391.9282, 3123.490
392.4103, 3118.447
392.8924, 3116.005
393.3745, 3118.992
393.8567, 3121.213
394.3388, 3119.550
394.8209, 3115.462
395.3030, 3111.732
395.7851, 3109.342
396.2672, 3107.740
396.7494, 3105.837
397.2315, 3102.843
397.7136, 3101.521
398.1957, 3103.516
398.6778, 3106.174
399.1599, 3107.401
399.6420, 3106.974
400.1241, 3105.714
400.6063, 3104.319
401.0884, 3102.795
401.5705, 3100.909
402.0526, 3098.365
402.5347, 3095.888
403.0168, 3092.662
403.4990, 3089.892
403.9811, 3089.994
404.4632, 3094.186
404.9453, 3100.472
405.4274, 3103.818
405.9095, 3101.302
406.3917, 3100.781
406.8738, 3104.504
407.3559, 3108.656
407.8380, 3110.838
408.3201, 3110.601
408.8022, 3108.589
409.2844, 3105.268
409.7665, 3100.585
410.2486, 3095.298
410.7307, 3087.804
411.2128, 3081.455
411.6949, 3077.809
412.1771, 3075.809
412.6592, 3073.620
413.1413, 3070.238
413.6234, 3066.509
414.1055, 3064.315
414.5876, 3063.980
415.0698, 3064.179
415.5519, 3065.772
416.0340, 3067.020
416.5161, 3066.117
416.9982, 3063.043
417.4803, 3060.367
417.9625, 3060.489
418.4446, 3063.054
418.9267, 3065.662
419.4088, 3068.292
419.8909, 3070.683
420.3730, 3073.706
420.8552, 3076.350
421.3373, 3076.153
421.8194, 3070.814
422.3015, 3063.816
422.7836, 3059.617
423.2657, 3058.183
423.7479, 3055.861
424.2300, 3049.846
424.7121, 3043.487
425.1942, 3042.703
425.6763, 3048.958
426.1584, 3053.185
426.6406, 3049.637
427.1227, 3042.077
427.6048, 3037.047
428.0869, 3035.731
428.5690, 3035.140
429.0511, 3032.005
429.5333, 3026.501
430.0154, 3024.610
430.4975, 3029.756
430.9796, 3035.310
431.4617, 3037.680
431.9438, 3037.463
432.4260, 3036.229
432.9081, 3034.534
433.3902, 3032.941
433.8723, 3032.900
434.3544, 3036.245
434.8365, 3038.045
435.3187, 3037.269
435.8008, 3035.449
436.2829, 3033.654
436.7650, 3032.100
437.2471, 3030.690
437.7292, 3029.446
438.2114, 3028.393
438.6935, 3026.254
439.1756, 3022.355
439.6577, 3018.113
440.1398, 3012.716
440.6219, 3007.557
441.1040, 3005.071
441.5862, 3006.279
442.0683, 3008.720
442.5504, 3007.585
443.0325, 3001.372
443.5146, 2996.239
443.9967, 2992.295
444.4789, 2989.948
444.9610, 2990.176
445.4431, 2992.447
445.9252, 2994.973
446.4073, 2996.483
446.8894, 2997.216
447.3716, 2997.984
447.8537, 2998.571
448.3358, 2999.703
448.8179, 3001.804
449.3000, 3004.550
449.7821, 3007.009
450.2643, 3008.363
450.7464, 3012.370
451.2285, 3023.161
451.7106, 3039.732
452.1927, 3056.817
452.6748, 3073.116
453.1570, 3092.419
453.6391, 3110.074
454.1212, 3132.359
454.6033, 3153.348
455.0854, 3175.611
455.5675, 3193.622
456.0497, 3203.859
456.5318, 3205.841
457.0139, 3197.019
457.4960, 3174.222
457.9781, 3141.979
458.4602, 3111.687
458.9424, 3081.490
459.4245, 3056.428
459.9066, 3039.575
460.3887, 3027.174
460.8708, 3015.962
461.3529, 3005.212
461.8351, 2994.970
462.3172, 2984.995
462.7993, 2975.261
463.2814, 2968.465
463.7635, 2967.459
464.2456, 2965.889
464.7278, 2961.164
465.2099, 2955.213
465.6920, 2950.938
466.1741, 2949.410
466.6562, 2949.203
467.1383, 2947.816
467.6205, 2944.562
468.1026, 2942.214
468.5847, 2942.049
469.0668, 2941.750
469.5489, 2939.912
470.0310, 2937.035
470.5132, 2934.626
470.9953, 2933.647
471.4774, 2933.734
471.9595, 2934.087
472.4416, 2934.861
472.9237, 2935.385
473.4059, 2935.427
473.8880, 2935.102
474.3701, 2934.764
474.8522, 2934.500
475.3343, 2933.091
475.8164, 2928.073
476.2986, 2921.486
476.7807, 2918.304
477.2628, 2919.209
477.7449, 2922.885
478.2270, 2929.334
478.7091, 2937.939
479.1913, 2945.814
479.6734, 2952.558
480.1555, 2958.798
480.6376, 2964.246
481.1197, 2969.473
481.6018, 2976.535
482.0839, 2986.319
482.5660, 2995.470
483.0482, 2999.518
483.5303, 2997.790
484.0124, 2991.935
484.4945, 2979.605
484.9766, 2965.656
485.4587, 2951.299
485.9409, 2937.418
486.4230, 2925.386
486.9051, 2915.950
487.3872, 2908.632
487.8693, 2902.262
488.3514, 2897.541
488.8336, 2892.375
489.3157, 2885.160
489.7978, 2878.672
490.2799, 2875.200
490.7620, 2874.487
491.2441, 2874.436
491.7263, 2873.377
492.2084, 2871.612
492.6905, 2870.773
493.1726, 2871.587
493.6547, 2871.616
494.1368, 2869.216
494.6190, 2865.847
495.1011, 2862.836
495.5832, 2860.403
496.0653, 2858.405
496.5474, 2856.804
497.0295, 2855.561
497.5117, 2854.935
497.9938, 2855.308
498.4759, 2854.705
498.9580, 2850.517
499.4401, 2843.648
499.9222, 2839.114
500.4044, 2838.396
500.8865, 2838.815
501.3686, 2839.443
501.8507, 2840.139
502.3328, 2840.801
502.8149, 2841.419
503.2971, 2841.523
503.7792, 2840.404
504.2613, 2837.711
504.7434, 2834.943
505.2255, 2831.895
505.7076, 2829.012
506.1898, 2825.666
506.6719, 2822.751
507.1540, 2822.645
507.6361, 2826.779
508.1182, 2832.431
508.6003, 2832.584
509.0825, 2823.956
509.5646, 2818.652
510.0467, 2821.899
510.5288, 2825.277
511.0109, 2823.757
511.4930, 2818.082
511.9752, 2812.193
512.4573, 2808.118
512.9394, 2805.731
513.4215, 2805.125
513.9036, 2806.613
514.3857, 2807.975
514.8679, 2809.210
515.3500, 2809.167
515.8321, 2805.833
516.3142, 2798.665
516.7963, 2792.862
517.2784, 2790.892
517.7606, 2791.468
518.2427, 2793.772
518.7248, 2797.505
519.2069, 2799.758
519.6890, 2798.253
520.1711, 2793.819
520.6533, 2790.632
521.1354, 2789.496
521.6175, 2788.294
522.0996, 2787.192
522.5817, 2785.578
523.0638, 2782.082
523.5460, 2776.949
524.0281, 2772.587
524.5102, 2771.486
524.9923, 2773.543
525.4744, 2775.147
525.9565, 2776.719
526.4387, 2777.169
526.9208, 2775.420
527.4029, 2772.956
527.8850, 2771.398
528.3671, 2771.131
528.8492, 2771.183
529.3314, 2770.742
529.8135, 2769.803
530.2956, 2768.157
530.7777, 2765.594
531.2598, 2762.765
531.7419, 2759.125
532.2241, 2755.705
532.7062, 2754.487
533.1883, 2756.711
533.6704, 2759.401
534.1525, 2761.524
534.6346, 2762.502
535.1168, 2760.042
535.5989, 2753.284
536.0810, 2746.754
536.5631, 2745.503
537.0452, 2749.836
537.5273, 2751.510
538.0095, 2748.320
538.4916, 2745.183
538.9737, 2743.960
539.4558, 2743.913
539.9379, 2744.063
540.4200, 2744.031
540.9022, 2743.559
541.3843, 2742.144
541.8664, 2739.504
542.3485, 2737.575
542.8306, 2737.004
543.3127, 2736.519
543.7948, 2736.058
544.2769, 2735.345
544.7590, 2733.803
545.2411, 2731.098
545.7233, 2728.371
546.2054, 2727.116
546.6875, 2727.246
547.1696, 2727.812
547.6517, 2729.204
548.1339, 2729.961
548.6160, 2728.008
549.0981, 2724.323
549.5802, 2721.665
550.0623, 2721.096
550.5444, 2721.091
551.0266, 2720.621
551.5087, 2719.973
551.9908, 2719.950
552.4729, 2720.823
552.9550, 2721.853
553.4371, 2722.168
553.9193, 2721.740
554.4014, 2720.729
554.8835, 2717.966
555.3656, 2716.021
555.8477, 2716.921
556.3298, 2718.876
556.8120, 2718.850
557.2941, 2715.821
557.7762, 2712.096
558.2583, 2711.273
558.7404, 2713.843
559.2225, 2715.265
559.7047, 2715.508
560.1868, 2714.332
560.6689, 2710.495
561.1510, 2705.599
561.6331, 2702.401
562.1152, 2702.000
562.5974, 2702.705
563.0795, 2703.807
563.5616, 2704.824
564.0437, 2703.482
564.5258, 2698.808
565.0079, 2694.152
565.4901, 2692.740
565.9722, 2694.490
566.4543, 2695.584
566.9364, 2694.956
567.4185, 2694.918
567.9006, 2697.789
568.3828, 2701.257
568.8649, 2701.683
569.3470, 2698.309
569.8291, 2693.597
570.3112, 2690.286
570.7933, 2688.405
571.2755, 2687.257
571.7576, 2686.803
572.2397, 2687.206
572.7218, 2689.014
573.2039, 2691.390
573.6860, 2693.729
574.1682, 2695.837
574.6503, 2696.888
575.1324, 2695.369
575.6145, 2691.973
576.0966, 2690.002
576.5787, 2689.979
577.0609, 2690.033
577.5430, 2688.508
578.0251, 2686.474
578.5072, 2686.502
578.9893, 2689.488
579.4714, 2692.630
579.9536, 2695.933
580.4357, 2698.258
580.9178, 2697.813
581.3999, 2694.644
581.8820, 2690.396
582.3641, 2686.030
582.8463, 2681.914
583.3284, 2680.104
583.8105, 2681.159
584.2926, 2683.957
584.7747, 2690.504
585.2568, 2697.115
585.7390, 2700.460
586.2211, 2700.885
586.7032, 2701.417
587.1853, 2703.989
587.6674, 2708.371
588.1495, 2714.334
588.6317, 2722.245
589.1138, 2729.448
589.5959, 2734.282
590.0780, 2738.860
590.5601, 2745.826
591.0422, 2755.135
591.5244, 2764.132
592.0065, 2772.015
592.4886, 2779.198
592.9707, 2786.672
593.4528, 2793.776
593.9349, 2798.566
594.4171, 2800.208
594.8992, 2798.644
595.3813, 2793.332
595.8634, 2782.050
596.3455, 2773.557
596.8276, 2772.365
597.3098, 2768.838
597.7919, 2756.425
598.2740, 2739.520
598.7561, 2725.870
599.2382, 2718.687
599.7203, 2714.250
600.2025, 2707.354
600.6846, 2698.086
601.1667, 2690.473
601.6488, 2685.237
602.1309, 2681.136
602.6130, 2677.951
603.0952, 2675.254
603.5773, 2672.248
604.0594, 2668.700
604.5415, 2665.094
605.0236, 2661.789
605.5057, 2658.527
605.9879, 2654.591
606.4700, 2650.008
606.9521, 2646.024
607.4342, 2643.678
607.9163, 2642.853
608.3984, 2642.700
608.8806, 2643.887
609.3627, 2644.801
609.8448, 2646.215
610.3269, 2646.608
610.8090, 2644.053
611.2911, 2639.061
611.7733, 2634.308
612.2554, 2631.549
612.7375, 2630.366
613.2196, 2630.412
613.7017, 2631.972
614.1838, 2631.520
614.6660, 2626.903
615.1481, 2621.173
615.6302, 2618.066
616.1123, 2617.382
616.5944, 2616.379
617.0765, 2614.379
617.5587, 2612.021
618.0408, 2609.173
618.5229, 2606.371
619.0050, 2604.963
619.4871, 2605.386
619.9692, 2606.302
620.4514, 2605.865
620.9335, 2603.850
621.4156, 2602.120
621.8977, 2600.519
622.3798, 2599.411
622.8619, 2599.307
623.3441, 2599.535
623.8262, 2599.350
624.3083, 2598.578
624.7904, 2597.533
625.2725, 2596.674
625.7546, 2595.735
626.2367, 2593.712
626.7188, 2590.437
627.2009, 2587.510
627.6830, 2585.773
628.1652, 2584.898
628.6473, 2584.225
629.1294, 2583.921
629.6115, 2583.282
630.0936, 2581.683
630.5757, 2580.159
631.0579, 2579.816
631.5400, 2580.176
632.0221, 2579.765
632.5042, 2577.809
632.9863, 2575.258
633.4684, 2574.135
633.9506, 2574.968
634.4327, 2574.461
634.9148, 2570.897
635.3969, 2567.961
635.8790, 2568.724
636.3611, 2570.952
636.8433, 2570.515
637.3254, 2565.703
637.8075, 2560.309
638.2896, 2556.670
638.7717, 2554.495
639.2538, 2553.380
639.7360, 2553.251
640.2181, 2553.722
640.7002, 2554.695
641.1823, 2555.906
641.6644, 2556.273
642.1465, 2556.362
642.6287, 2554.707
643.1108, 2549.158
643.5929, 2543.728
644.0750, 2541.448
644.5571, 2541.674
645.0392, 2541.882
645.5214, 2540.670
646.0035, 2538.802
646.4856, 2537.332
646.9677, 2536.266
647.4498, 2536.253
647.9319, 2537.837
648.4141, 2539.608
648.8962, 2540.647
649.3783, 2540.918
649.8604, 2540.235
650.3425, 2537.756
650.8246, 2535.407
651.3068, 2534.233
651.7889, 2533.434
652.2710, 2532.082
652.7531, 2530.036
653.2352, 2527.598
653.7173, 2524.978
654.1995, 2522.194
654.6816, 2519.112
655.1637, 2514.953
655.6458, 2512.393
656.1279, 2513.317
656.6100, 2514.778
657.0922, 2515.185
657.5743, 2514.708
658.0564, 2514.296
658.5385, 2514.909
659.0206, 2514.906
659.5027, 2512.100
659.9849, 2507.429
660.4670, 2503.417
660.9491, 2500.647
661.4312, 2498.790
661.9133, 2497.730
662.3954, 2497.368
662.8776, 2496.245
663.3597, 2493.258
663.8418, 2490.977
664.3239, 2489.942
664.8060, 2489.490
665.2881, 2489.329
665.7703, 2489.269
666.2524, 2489.016
666.7345, 2488.544
667.2166, 2487.535
667.6987, 2484.859
668.1808, 2480.592
668.6630, 2477.519
669.1451, 2476.299
669.6272, 2476.508
670.1093, 2478.869
670.5914, 2482.886
671.0735, 2483.220
671.5557, 2476.034
672.0378, 2469.720
672.5199, 2467.483
673.0020, 2467.212
673.4841, 2467.028
673.9662, 2466.392
674.4484, 2465.044
674.9305, 2462.664
675.4126, 2459.602
675.8947, 2456.716
676.3768, 2453.644
676.8589, 2452.484
677.3411, 2454.637
677.8232, 2457.804
678.3053, 2461.090
678.7874, 2463.992
679.2695, 2464.478
679.7516, 2460.657
680.2338, 2456.134
680.7159, 2452.459
681.1980, 2449.675
681.6801, 2447.858
682.1622, 2447.002
682.6443, 2447.146
683.1265, 2448.603
683.6086, 2450.726
684.0907, 2450.199
684.5728, 2445.408
685.0549, 2441.464
685.5370, 2439.116
686.0192, 2437.730
686.5013, 2437.348
686.9834, 2437.648
687.4655, 2437.906
687.9476, 2438.153
688.4297, 2437.713
688.9119, 2435.128
689.3940, 2431.543
689.8761, 2429.719
690.3582, 2430.129
690.8403, 2431.719
691.3224, 2434.141
691.8046, 2436.720
692.2867, 2436.119
692.7688, 2429.531
693.2509, 2424.278
693.7330, 2420.250
694.2151, 2417.974
694.6973, 2418.497
695.1794, 2420.973
695.6615, 2423.704
696.1436, 2426.297
696.6257, 2427.733
697.1078, 2426.054
697.5900, 2422.222
698.0721, 2419.215
698.5542, 2417.369
699.0363, 2417.874
699.5184, 2422.377
700.0005, 2429.235
700.4827, 2432.582
700.9648, 2428.700
701.4469, 2427.310
701.9290, 2430.128
702.4111, 2433.951
702.8932, 2436.795
703.3754, 2439.173
703.8575, 2442.101
704.3396, 2445.870
704.8217, 2451.733
705.3038, 2462.342
705.7859, 2476.553
706.2681, 2489.081
706.7502, 2499.445
707.2323, 2508.394
707.7144, 2516.420
708.1965, 2523.300
708.6786, 2528.963
709.1607, 2535.136
709.6428, 2535.189
710.1249, 2526.088
710.6071, 2513.315
711.0892, 2498.249
711.5713, 2482.249
712.0534, 2466.960
712.5355, 2452.878
713.0176, 2439.781
713.4998, 2426.896
713.9819, 2414.612
714.4640, 2405.136
714.9461, 2398.957
715.4282, 2392.831
715.9103, 2384.956
716.3925, 2377.031
716.8746, 2371.804
717.3567, 2369.470
717.8388, 2367.673
718.3209, 2367.255
718.8030, 2366.211
719.2852, 2363.616
719.7673, 2359.800
720.2494, 2354.519
720.7315, 2348.138
721.2136, 2342.881
721.6957, 2341.376
722.1779, 2342.316
722.6600, 2340.728
723.1421, 2336.219
723.6242, 2332.529
724.1063, 2331.048
724.5884, 2330.243
725.0706, 2328.354
725.5527, 2325.505
726.0348, 2323.548
726.5169, 2323.774
726.9990, 2323.445
727.4811, 2320.805
727.9633, 2317.688
728.4454, 2316.336
728.9275, 2316.682
729.4096, 2316.875
729.8917, 2315.523
730.3738, 2313.595
730.8560, 2313.603
731.3381, 2315.642
731.8202, 2315.926
732.3023, 2313.113
732.7844, 2310.331
733.2665, 2310.865
733.7487, 2313.192
734.2308, 2311.430
734.7129, 2302.082
735.1950, 2295.324
735.6771, 2295.805
736.1592, 2297.417
736.6414, 2294.874
737.1235, 2289.406
737.6056, 2285.107
738.0877, 2283.803
738.5698, 2283.957
739.0519, 2283.692
739.5341, 2283.015
740.0162, 2281.718
740.4983, 2279.436
740.9804, 2278.415
741.4625, 2280.906
741.9446, 2284.295
742.4268, 2283.049
742.9089, 2275.844
743.3910, 2271.233
743.8731, 2271.596
744.3552, 2272.853
744.8373, 2273.884
745.3195, 2274.207
745.8016, 2272.885
746.2837, 2269.975
746.7658, 2267.333
747.2479, 2267.003
747.7300, 2267.982
748.2122, 2267.368
748.6943, 2265.143
749.1764, 2263.307
749.6585, 2262.972
750.1406, 2261.641
750.6227, 2255.535
751.1049, 2244.980
751.5870, 2240.022
752.0691, 2245.750
752.5512, 2249.721
753.0333, 2248.596
753.5154, 2245.749
753.9976, 2243.403
754.4797, 2241.953
754.9618, 2241.408
755.4439, 2241.953
755.9260, 2242.728
756.4081, 2242.716
756.8903, 2241.971
757.3724, 2240.665
757.8545, 2238.798
758.3366, 2236.642
758.8187, 2234.340
759.3008, 2231.876
759.7830, 2229.067
760.2651, 2224.791
760.7472, 2222.911
761.2293, 2226.492
761.7114, 2228.917
762.1935, 2226.670
762.6757, 2222.070
763.1578, 2217.918
763.6399, 2214.945
764.1220, 2213.353
764.6041, 2213.845
765.0862, 2215.493
765.5684, 2217.497
766.0505, 2219.515
766.5326, 2219.891
767.0147, 2218.050
767.4968, 2215.091
767.9789, 2211.993
768.4611, 2208.802
768.9432, 2207.396
769.4253, 2209.337
769.9074, 2210.343
770.3895, 2209.379
770.8716, 2207.629
771.3538, 2206.250
771.8359, 2204.762
772.3180, 2201.176
772.8001, 2192.950
773.2822, 2186.427
773.7643, 2187.644
774.2465, 2192.418
774.7286, 2194.645
775.2107, 2194.063
775.6928, 2193.586
776.1749, 2194.897
776.6570, 2196.723
777.1392, 2196.485
777.6213, 2193.906
778.1034, 2191.348
778.5855, 2188.795
779.0676, 2186.327
779.5497, 2183.255
780.0319, 2180.751
780.5140, 2180.710
780.9961, 2183.347
781.4782, 2185.435
781.9603, 2186.382
782.4424, 2186.352
782.9246, 2184.651
783.4067, 2182.370
783.8888, 2180.700
784.3709, 2180.082
784.8530, 2181.229
785.3351, 2185.440
785.8173, 2190.642
786.2994, 2190.873
786.7815, 2186.117
787.2636, 2183.234
787.7457, 2184.117
788.2278, 2184.795
788.7100, 2181.624
789.1921, 2176.015
789.6742, 2173.727
790.1563, 2177.566
790.6384, 2179.430
791.1205, 2177.970
791.6026, 2175.396
792.0847, 2171.696
792.5668, 2168.193
793.0490, 2167.575
793.5311, 2170.549
794.0132, 2172.556
794.4953, 2169.333
794.9774, 2162.937
795.4595, 2155.892
795.9417, 2148.724
796.4238, 2144.295
796.9059, 2143.583
797.3880, 2144.778
797.8701, 2146.153
798.3522, 2147.615
798.8344, 2147.746
799.3165, 2145.477
799.7986, 2143.865
800.2807, 2145.036
800.7628, 2145.456
801.2449, 2141.687
801.7271, 2135.523
802.2092, 2132.058
802.6913, 2133.278
803.1734, 2135.283
803.6555, 2136.923
804.1376, 2137.779
804.6198, 2136.978
805.1019, 2135.023
805.5840, 2133.326
806.0661, 2132.517
806.5482, 2132.105
807.0303, 2131.461
807.5125, 2130.632
807.9946, 2129.980
808.4767, 2129.596
808.9588, 2128.976
809.4409, 2128.112
809.9230, 2126.681
810.4052, 2124.071
810.8873, 2120.276
811.3694, 2117.109
811.8515, 2114.567
812.3336, 2112.632
812.8157, 2110.997
813.2979, 2110.206
813.7800, 2111.243
814.2621, 2113.474
814.7442, 2115.189
815.2263, 2115.591
815.7084, 2115.681
816.1906, 2116.778
816.6727, 2118.140
817.1548, 2117.988
817.6369, 2116.408
818.1190, 2115.072
818.6011, 2114.766
819.0833, 2114.427
819.5654, 2112.200
820.0475, 2107.926
820.5296, 2106.418
821.0117, 2109.993
821.4938, 2111.487
821.9760, 2106.721
822.4581, 2101.210
822.9402, 2100.410
823.4223, 2103.110
823.9044, 2103.361
824.3865, 2097.390
824.8687, 2092.860
825.3508, 2093.995
825.8329, 2096.969
826.3150, 2099.214
826.7971, 2099.871
827.2792, 2097.301
827.7614, 2090.718
828.2435, 2084.068
828.7256, 2083.046
829.2077, 2086.003
829.6898, 2086.417
830.1719, 2084.120
830.6541, 2081.946
831.1362, 2080.906
831.6183, 2080.521
832.1004, 2080.298
832.5825, 2080.231
833.0646, 2080.091
833.5468, 2081.130
834.0289, 2080.087
834.5110, 2073.948
834.9931, 2068.229
835.4752, 2067.235
835.9573, 2069.329
836.4395, 2069.859
836.9216, 2067.081
837.4037, 2064.615
837.8858, 2064.817
838.3679, 2065.937
838.8500, 2066.304
839.3322, 2065.996
839.8143, 2065.564
840.2964, 2065.208
840.7785, 2064.782
841.2606, 2063.986
841.7427, 2063.038
842.2249, 2063.155
842.7070, 2064.411
843.1891, 2064.364
843.6712, 2061.918
844.1533, 2059.755
844.6354, 2060.744
845.1176, 2063.834
845.5997, 2063.819
846.0818, 2056.680
846.5639, 2052.833
847.0460, 2055.571
847.5281, 2057.920
848.0103, 2055.299
848.4924, 2050.772
848.9745, 2049.272
849.4566, 2051.769
849.9387, 2054.674
850.4208, 2057.023
850.9030, 2058.181
851.3851, 2056.779
851.8672, 2054.042
852.3493, 2052.464
852.8314, 2052.374
853.3135, 2051.907
853.7957, 2049.415
854.2778, 2046.445
854.7599, 2047.206
855.2420, 2051.583
855.7241, 2053.453
856.2062, 2051.492
856.6884, 2050.463
857.1705, 2053.318
857.6526, 2058.120
858.1347, 2061.337
858.6168, 2062.584
859.0989, 2063.883
859.5811, 2065.001
860.0632, 2066.440
860.5453, 2068.009
861.0274, 2070.177
861.5095, 2073.245
861.9916, 2077.292
862.4738, 2082.481
862.9559, 2089.407
863.4380, 2096.551
863.9201, 2101.703
864.4022, 2107.341
864.8843, 2116.437
865.3665, 2128.860
865.8486, 2143.135
866.3307, 2158.599
866.8128, 2175.216
867.2949, 2192.769
867.7770, 2211.323
868.2592, 2231.824
868.7413, 2254.276
869.2234, 2275.989
869.7055, 2296.290
870.1876, 2316.058
870.6697, 2337.230
871.1519, 2358.100
871.6340, 2368.916
872.1161, 2369.253
872.5981, 2360.268
873.0803, 2337.866
873.5624, 2310.390
874.0445, 2278.632
874.5266, 2245.102
875.0087, 2211.734
875.4908, 2178.748
875.9730, 2150.399
876.4551, 2129.837
876.9372, 2112.706
877.4193, 2096.725
877.9014, 2082.358
878.3835, 2070.544
878.8657, 2061.175
879.3478, 2053.311
879.8299, 2046.570
880.3120, 2040.409
880.7941, 2033.691
881.2762, 2026.942
881.7584, 2021.863
882.2405, 2018.561
882.7226, 2016.820
883.2047, 2016.718
883.6868, 2016.890
884.1689, 2015.370
884.6511, 2012.225
885.1332, 2009.971
885.6153, 2009.322
886.0974, 2007.458
886.5795, 2002.905
887.0616, 1998.141
887.5438, 1995.362
888.0259, 1993.786
888.5080, 1990.954
888.9901, 1985.934
889.4722, 1981.725
889.9543, 1978.591
890.4365, 1976.501
890.9186, 1975.820
891.4007, 1975.983
891.8828, 1976.218
892.3649, 1976.451
892.8470, 1977.354
893.3292, 1980.715
893.8113, 1983.141
894.2934, 1980.135
894.7755, 1974.470
895.2576, 1970.966
895.7397, 1969.930
896.2219, 1968.979
896.7040, 1966.844
897.1861, 1965.159
897.6682, 1966.909
898.1503, 1971.565
898.6324, 1975.662
899.1146, 1979.403
899.5967, 1978.283
900.0788, 1969.738
900.5609, 1960.073
901.0430, 1955.243
901.5251, 1954.712
902.0073, 1955.372
902.4894, 1958.897
902.9715, 1960.101
903.4536, 1955.739
903.9357, 1952.507
904.4178, 1954.317
904.9000, 1958.486
905.3821, 1961.635
905.8642, 1963.488
906.3463, 1964.223
906.8284, 1964.274
907.3105, 1962.729
907.7927, 1957.807
908.2748, 1952.059
908.7569, 1948.107
909.2390, 1945.844
909.7211, 1943.884
910.2032, 1941.742
910.6854, 1939.010
911.1675, 1934.210
911.6496, 1929.170
912.1317, 1927.396
912.6138, 1928.161
913.0959, 1928.473
913.5781, 1927.422
914.0602, 1926.048
914.5423, 1925.407
915.0244, 1925.019
915.5065, 1922.856
915.9886, 1918.890
916.4708, 1917.575
916.9529, 1920.073
917.4350, 1921.721
917.9171, 1919.566
918.3992, 1915.866
918.8813, 1914.768
919.3635, 1916.831
919.8456, 1917.255
920.3277, 1915.742
920.8098, 1913.111
921.2919, 1908.035
921.7740, 1903.255
922.2562, 1901.123
922.7383, 1900.836
923.2204, 1899.825
923.7025, 1897.094
924.1846, 1895.423
924.6667, 1897.062
925.1489, 1898.276
925.6310, 1895.283
926.1131, 1891.264
926.5952, 1891.273
927.0773, 1895.496
927.5594, 1899.210
928.0416, 1899.694
928.5237, 1898.815
929.0058, 1897.022
929.4879, 1895.637
929.9700, 1897.629
930.4521, 1902.160
930.9343, 1905.432
931.4164, 1905.853
931.8985, 1904.971
932.3806, 1904.801
932.8627, 1904.691
933.3448, 1901.918
933.8270, 1896.805
934.3091, 1892.628
934.7912, 1890.091
935.2733, 1889.287
935.7554, 1890.637
936.2375, 1892.901
936.7197, 1892.759
937.2018, 1889.458
937.6839, 1888.424
938.1660, 1891.150
938.6481, 1892.197
939.1302, 1888.348
939.6124, 1883.860
940.0945, 1883.305
940.5766, 1886.235
941.0587, 1888.542
941.5408, 1890.979
942.0229, 1891.637
942.5051, 1887.696
942.9872, 1884.922
943.4693, 1887.774
943.9514, 1892.622
944.4335, 1894.184
944.9156, 1891.922
945.3978, 1889.833
945.8799, 1888.908
946.3620, 1888.955
946.8441, 1890.926
947.3262, 1893.048
947.8083, 1892.669
948.2905, 1890.951
948.7726, 1891.587
949.2547, 1895.969
949.7368, 1900.480
950.2189, 1901.450
950.7010, 1901.303
951.1832, 1903.648
951.6653, 1907.486
952.1474, 1909.932
952.6295, 1910.747
953.1116, 1912.251
953.5938, 1915.962
954.0759, 1920.986
954.5580, 1926.308
955.0400, 1931.695
955.5222, 1935.548
956.0043, 1937.886
956.4864, 1940.606
956.9685, 1944.214
957.4506, 1949.779
957.9327, 1958.835
958.4149, 1970.076
958.8970, 1977.482
959.3791, 1980.410
959.8612, 1982.814
960.3433, 1984.801
960.8254, 1986.822
961.3076, 1989.770
961.7897, 1991.973
962.2718, 1990.924
962.7539, 1986.566
963.2360, 1982.244
963.7181, 1978.683
964.2003, 1974.030
964.6824, 1966.839
965.1645, 1959.902
965.6466, 1955.679
966.1287, 1952.266
966.6108, 1946.149
967.0930, 1936.727
967.5751, 1927.627
968.0572, 1920.296
968.5393, 1912.538
969.0214, 1902.166
969.5035, 1892.098
969.9857, 1885.510
970.4678, 1881.527
970.9499, 1877.552
971.4320, 1872.912
971.9141, 1867.286
972.3962, 1859.430
972.8784, 1851.538
973.3605, 1845.375
973.8426, 1840.621
974.3247, 1836.855
974.8068, 1833.858
975.2889, 1831.392
975.7711, 1829.483
976.2532, 1827.262
976.7353, 1823.332
977.2174, 1818.639
977.6995, 1814.742
978.1816, 1811.637
978.6638, 1809.216
979.1459, 1807.362
979.6280, 1805.466
980.1101, 1802.969
980.5922, 1800.373
981.0743, 1799.113
981.5565, 1796.926
982.0386, 1794.898
982.5207, 1793.838
983.0028, 1791.189
983.4849, 1790.117
983.9670, 1789.062
984.4492, 1786.078
984.9313, 1785.247
985.4134, 1784.066
985.8955, 1781.814
986.3776, 1781.758
986.8597, 1779.277
987.3419, 1776.464
987.8240, 1774.006
988.3061, 1772.344
988.7882, 1772.437
989.2703, 1774.259
989.7524, 1774.232
990.2346, 1771.547
990.7167, 1768.825
991.1988, 1766.925
991.6809, 1764.196
992.1630, 1757.835
992.6451, 1751.028
993.1273, 1750.700
993.6094, 1758.419
994.0915, 1761.125
994.5736, 1753.472
995.0557, 1748.028
995.5378, 1748.578
996.0200, 1750.682
996.5021, 1752.332
996.9842, 1753.068
997.4663, 1751.972
997.9484, 1748.610
998.4305, 1745.756
998.9127, 1744.365
999.3948, 1743.275
999.8769, 1742.278
1000.359, 1741.134
1000.841, 1739.284
1001.323, 1737.170
1001.805, 1736.228
1002.287, 1737.154
1002.770, 1737.082
1003.252, 1732.723
1003.734, 1728.795
1004.216, 1730.060
1004.698, 1733.027
1005.180, 1732.729
1005.662, 1729.376
1006.144, 1726.166
1006.627, 1724.391
1007.109, 1723.570
1007.591, 1723.671
1008.073, 1724.202
1008.555, 1725.390
1009.037, 1726.261
1009.519, 1724.378
1010.001, 1719.977
1010.483, 1716.089
1010.966, 1714.480
1011.448, 1713.943
1011.930, 1713.119
1012.412, 1712.342
1012.894, 1712.795
1013.376, 1713.877
1013.858, 1712.994
1014.340, 1709.913
1014.823, 1707.967
1015.305, 1709.745
1015.787, 1712.476
1016.269, 1711.277
1016.751, 1707.142
1017.233, 1703.830
1017.715, 1701.352
1018.197, 1697.745
1018.679, 1692.548
1019.162, 1689.846
1019.644, 1693.530
1020.126, 1699.926
1020.608, 1699.985
1021.090, 1694.321
1021.572, 1691.716
1022.054, 1692.612
1022.536, 1693.057
1023.018, 1691.809
1023.501, 1689.448
1023.983, 1686.155
1024.465, 1682.762
1024.947, 1682.467
1025.429, 1685.723
1025.911, 1686.213
1026.393, 1683.057
1026.875, 1680.732
1027.358, 1681.026
1027.840, 1681.690
1028.322, 1680.289
1028.804, 1681.221
1029.286, 1677.644
1029.768, 1681.340
1030.250, 1682.982
1030.732, 1682.010
1031.214, 1680.071
1031.697, 1677.239
1032.179, 1674.567
1032.661, 1673.249
1033.143, 1672.993
1033.625, 1672.057
1034.107, 1668.852
1034.589, 1669.350
1035.071, 1676.913
1035.553, 1682.153
1036.036, 1681.028
1036.518, 1676.999
1037.000, 1672.626
1037.482, 1668.270
1037.964, 1666.101
1038.446, 1667.870
1038.928, 1668.402
1039.410, 1667.311
1039.893, 1665.483
1040.375, 1662.056
1040.857, 1658.923
1041.339, 1658.726
1041.821, 1660.677
1042.303, 1660.450
1042.785, 1656.647
1043.267, 1653.239
1043.750, 1650.300
1044.232, 1647.875
1044.714, 1646.045
1045.196, 1644.691
1045.678, 1643.691
1046.160, 1643.067
1046.642, 1643.091
1047.124, 1644.966
1047.606, 1644.789
1048.089, 1639.759
1048.571, 1635.387
1049.053, 1634.527
1049.535, 1634.851
1050.017, 1634.076
1050.499, 1632.362
1050.981, 1631.023
1051.463, 1630.741
1051.945, 1629.605
1052.428, 1626.117
1052.910, 1623.055
1053.392, 1621.881
1053.874, 1621.593
1054.356, 1621.546
1054.838, 1621.450
1055.320, 1620.561
1055.802, 1618.332
1056.285, 1616.707
1056.767, 1616.397
1057.249, 1616.614
1057.731, 1617.721
1058.213, 1618.572
1058.695, 1617.560
1059.177, 1615.341
1059.659, 1614.309
1060.141, 1615.477
1060.624, 1615.590
1061.106, 1612.568
1061.588, 1609.355
1062.070, 1606.485
1062.552, 1604.917
1063.034, 1606.548
1063.516, 1610.093
1063.998, 1612.193
1064.480, 1611.979
1064.963, 1610.891
1065.445, 1609.372
1065.927, 1607.276
1066.409, 1603.328
1066.891, 1599.748
1067.373, 1599.433
1067.855, 1601.111
1068.337, 1601.605
1068.820, 1600.154
1069.302, 1597.530
1069.784, 1593.003
1070.266, 1588.698
1070.748, 1585.418
1071.230, 1583.126
1071.712, 1581.889
1072.194, 1581.521
1072.677, 1581.803
1073.159, 1582.670
1073.641, 1583.554
1074.123, 1584.490
1074.605, 1585.031
1075.087, 1585.467
1075.569, 1584.942
1076.051, 1581.741
1076.533, 1577.404
1077.016, 1574.652
1077.498, 1573.972
1077.980, 1574.252
1078.462, 1576.209
1078.944, 1577.309
1079.426, 1575.908
1079.908, 1573.582
1080.390, 1571.428
1080.872, 1569.328
1081.354, 1566.582
1081.837, 1563.340
1082.319, 1561.161
1082.801, 1560.534
1083.283, 1561.257
1083.765, 1565.600
1084.247, 1568.803
1084.729, 1566.098
1085.211, 1560.860
1085.694, 1557.047
1086.176, 1555.426
1086.658, 1556.400
1087.140, 1561.782
1087.622, 1564.940
1088.104, 1560.323
1088.586, 1555.696
1089.068, 1557.519
1089.551, 1560.975
1090.033, 1559.421
1090.515, 1554.045
1090.997, 1551.344
1091.479, 1553.802
1091.961, 1555.479
1092.443, 1553.759
1092.925, 1551.161
1093.407, 1548.577
1093.890, 1546.102
1094.372, 1543.513
1094.854, 1541.126
1095.336, 1539.848
1095.818, 1540.032
1096.300, 1539.750
1096.782, 1537.359
1097.264, 1535.772
1097.746, 1537.397
1098.229, 1539.067
1098.711, 1538.009
1099.193, 1535.246
1099.675, 1532.688
1100.157, 1530.611
1100.639, 1529.309
1101.121, 1529.294
1101.603, 1529.428
1102.086, 1529.853
1102.568, 1529.835
1103.050, 1528.692
1103.532, 1526.948
1104.014, 1525.305
1104.496, 1523.805
1104.978, 1522.178
1105.460, 1519.001
1105.943, 1518.031
1106.425, 1522.513
1106.907, 1526.104
1107.389, 1525.424
1107.871, 1522.869
1108.353, 1520.596
1108.835, 1518.754
1109.317, 1517.539
1109.799, 1517.594
1110.281, 1516.720
1110.764, 1514.320
1111.246, 1511.571
1111.728, 1507.993
1112.210, 1504.916
1112.692, 1503.594
1113.174, 1503.539
1113.656, 1503.505
1114.138, 1503.472
1114.621, 1503.559
1115.103, 1504.383
1115.585, 1504.279
1116.067, 1502.150
1116.549, 1500.131
1117.031, 1499.443
1117.513, 1499.657
1117.995, 1500.501
1118.478, 1498.779
1118.960, 1501.010
1119.442, 1495.748
1119.924, 1492.034
1120.406, 1489.973
1120.888, 1490.523
1121.370, 1495.386
1121.852, 1501.009
1122.334, 1503.050
1122.817, 1506.041
1123.299, 1507.675
1123.781, 1507.643
1124.263, 1509.202
1124.745, 1506.637
1125.227, 1507.221
1125.709, 1514.266
1126.191, 1521.497
1126.673, 1523.585
1127.156, 1522.371
1127.638, 1522.506
1128.120, 1524.099
1128.602, 1523.353
1129.084, 1520.104
1129.566, 1516.002
1130.048, 1511.296
1130.530, 1506.607
1131.013, 1502.263
1131.495, 1498.350
1131.977, 1495.104
1132.459, 1492.364
1132.941, 1488.907
1133.423, 1487.323
1133.905, 1483.317
1134.387, 1484.358
1134.870, 1484.942
1135.352, 1483.855
1135.834, 1482.551
1136.316, 1482.608
1136.798, 1482.849
1137.280, 1480.010
1137.762, 1479.083
1138.244, 1477.533
1138.726, 1474.390
1139.208, 1473.640
1139.691, 1470.579
1140.173, 1467.490
1140.655, 1465.776
1141.137, 1464.676
1141.619, 1463.263
1142.101, 1461.776
1142.583, 1460.691
1143.065, 1459.866
1143.548, 1458.596
1144.030, 1457.216
1144.512, 1457.387
1144.994, 1459.682
1145.476, 1462.215
1145.958, 1464.713
1146.440, 1465.161
1146.922, 1459.600
1147.405, 1452.263
1147.887, 1447.883
1148.369, 1446.322
1148.851, 1446.845
1149.333, 1448.858
1149.815, 1450.560
1150.297, 1450.984
1150.779, 1451.263
1151.261, 1452.236
1151.744, 1453.110
1152.226, 1454.040
1152.708, 1453.995
1153.190, 1450.613
1153.672, 1445.320
1154.154, 1442.901
1154.636, 1444.937
1155.118, 1446.066
1155.600, 1443.879
1156.083, 1441.680
1156.565, 1440.381
1157.047, 1439.694
1157.529, 1439.916
1158.011, 1440.328
1158.493, 1439.678
1158.975, 1437.929
1159.457, 1436.550
1159.940, 1435.598
1160.422, 1435.083
1160.904, 1435.639
1161.386, 1435.648
1161.868, 1433.492
1162.350, 1431.948
1162.832, 1434.593
1163.314, 1439.340
1163.796, 1439.325
1164.279, 1433.339
1164.761, 1429.395
1165.243, 1428.060
1165.725, 1426.832
1166.207, 1425.215
1166.689, 1423.608
1167.171, 1422.083
1167.653, 1421.190
1168.135, 1421.911
1168.618, 1423.841
1169.100, 1425.033
1169.582, 1425.466
1170.064, 1422.924
1170.546, 1417.332
1171.028, 1414.534
1171.510, 1416.478
1171.992, 1418.844
1172.474, 1418.134
1172.957, 1418.420
1173.439, 1415.233
1173.921, 1415.190
1174.403, 1412.125
1174.885, 1407.588
1175.367, 1407.901
1175.849, 1412.825
1176.331, 1415.934
1176.814, 1414.465
1177.296, 1411.397
1177.778, 1408.725
1178.260, 1406.670
1178.742, 1405.665
1179.224, 1405.304
1179.706, 1405.478
1180.188, 1405.663
1180.671, 1404.749
1181.153, 1402.774
1181.635, 1401.140
1182.117, 1400.710
1182.599, 1399.790
1183.081, 1396.787
1183.563, 1393.836
1184.045, 1391.671
1184.527, 1390.731
1185.010, 1392.257
1185.492, 1395.054
1185.974, 1396.479
1186.456, 1396.128
1186.938, 1395.327
1187.420, 1393.270
1187.902, 1392.338
1188.384, 1394.367
1188.866, 1395.779
1189.349, 1394.392
1189.831, 1392.283
1190.313, 1391.719
1190.795, 1392.204
1191.277, 1391.724
1191.759, 1389.956
1192.241, 1388.599
1192.723, 1387.720
1193.206, 1386.979
1193.688, 1386.285
1194.170, 1385.736
1194.652, 1385.340
1195.134, 1385.386
1195.616, 1386.610
1196.098, 1385.066
1196.580, 1386.927
1197.063, 1382.871
1197.545, 1380.282
1198.027, 1379.335
1198.509, 1378.347
1198.991, 1376.842
1199.473, 1375.333
1199.955, 1374.183
1200.437, 1373.188
1200.919, 1371.960
1201.401, 1370.783
1201.884, 1370.513
1202.366, 1370.484
1202.848, 1369.245
1203.330, 1367.016
1203.812, 1364.743
1204.294, 1362.807
1204.776, 1361.749
1205.258, 1362.162
1205.741, 1362.972
1206.223, 1363.558
1206.705, 1364.194
1207.187, 1365.471
1207.669, 1366.638
1208.151, 1366.946
1208.633, 1366.303
1209.115, 1364.595
1209.598, 1361.558
1210.080, 1358.908
1210.562, 1356.758
1211.044, 1355.206
1211.526, 1355.341
1212.008, 1354.719
1212.490, 1351.434
1212.972, 1347.663
1213.454, 1346.076
1213.937, 1346.212
1214.419, 1345.796
1214.901, 1344.619
1215.383, 1344.011
1215.865, 1344.090
1216.347, 1343.787
1216.829, 1342.663
1217.311, 1343.270
1217.793, 1347.382
1218.276, 1351.772
1218.758, 1352.089
1219.240, 1349.400
1219.722, 1346.106
1220.204, 1342.490
1220.686, 1339.014
1221.168, 1336.203
1221.650, 1336.652
1222.133, 1340.191
1222.615, 1341.912
1223.097, 1338.870
1223.579, 1335.052
1224.061, 1333.867
1224.543, 1333.836
1225.025, 1334.079
1225.507, 1334.205
1225.990, 1334.094
1226.472, 1333.398
1226.954, 1331.019
1227.436, 1327.120
1227.918, 1324.586
1228.400, 1325.040
1228.882, 1325.252
1229.364, 1323.258
1229.846, 1322.496
1230.328, 1326.531
1230.811, 1330.021
1231.293, 1328.240
1231.775, 1328.396
1232.257, 1321.347
1232.739, 1321.143
1233.221, 1317.568
1233.703, 1308.579
1234.185, 1306.036
1234.668, 1312.163
1235.150, 1316.974
1235.632, 1317.146
1236.114, 1315.580
1236.596, 1314.418
1237.078, 1313.431
1237.560, 1312.150
1238.042, 1310.738
1238.525, 1309.925
1239.007, 1309.390
1239.489, 1307.629
1239.971, 1305.097
1240.453, 1304.239
1240.935, 1305.554
1241.417, 1306.794
1241.899, 1306.637
1242.381, 1305.776
1242.864, 1303.634
1243.346, 1302.263
1243.828, 1304.618
1244.310, 1307.674
1244.792, 1308.554
1245.274, 1307.126
1245.756, 1302.946
1246.238, 1296.028
1246.720, 1291.807
1247.203, 1293.500
1247.685, 1294.036
1248.167, 1292.320
1248.649, 1290.217
1249.131, 1287.783
1249.613, 1286.037
1250.095, 1286.112
1250.577, 1284.234
1251.059, 1285.719
1251.542, 1283.016
1252.024, 1282.193
1252.506, 1283.232
1252.988, 1283.609
1253.470, 1283.117
1253.952, 1282.630
1254.434, 1282.391
1254.916, 1281.590
1255.399, 1279.595
1255.881, 1277.405
1256.363, 1276.150
1256.845, 1275.579
1257.327, 1275.182
1257.809, 1275.351
1258.291, 1277.365
1258.773, 1280.223
1259.255, 1281.478
1259.738, 1280.914
1260.220, 1280.897
1260.702, 1283.014
1261.184, 1283.686
1261.666, 1280.815
1262.148, 1277.585
1262.630, 1274.621
1263.112, 1272.422
1263.594, 1271.645
1264.077, 1271.571
1264.559, 1271.143
1265.041, 1270.449
1265.523, 1270.262
1266.005, 1270.606
1266.487, 1271.518
1266.969, 1273.172
1267.451, 1273.518
1267.934, 1272.048
1268.416, 1269.728
1268.898, 1267.005
1269.380, 1265.142
1269.862, 1266.105
1270.344, 1268.052
1270.826, 1267.411
1271.308, 1265.432
1271.791, 1264.405
1272.273, 1264.023
1272.755, 1263.268
1273.237, 1262.081
1273.719, 1260.984
1274.201, 1260.143
1274.683, 1259.508
1275.165, 1259.804
1275.647, 1259.227
1276.130, 1255.479
1276.612, 1252.562
1277.094, 1254.045
1277.576, 1256.494
1278.058, 1256.204
1278.540, 1253.970
1279.022, 1251.853
1279.504, 1249.814
1279.986, 1248.942
1280.469, 1249.340
1280.951, 1250.029
1281.433, 1250.915
1281.915, 1252.179
1282.397, 1253.903
1282.879, 1254.381
1283.361, 1252.157
1283.843, 1249.021
1284.326, 1247.120
1284.808, 1246.359
##END=



