##NAMES=Sillimanite
##RRUFFID=R060787
##IDEAL CHEMISTRY=Al_2_OSiO_4_
##LOCALITY=Moragahakanda, Sri Lanka
##OWNER=RRUFF
##SOURCE=Michael Scott
##DESCRIPTION=Mass of colorless parallel prismatic crystals
##STATUS=The identification of this mineral has been confirmed by X-ray diffraction and chemical analysis
##URL=rruff.info/R060787
##MEASURED CHEMISTRY=Al_2.01_Si_0.99_O_5_
179.3817, 46474.27
179.8638, 46464.98
180.3460, 46490.93
180.8281, 46548.24
181.3102, 46608.87
181.7923, 46648.49
182.2744, 46682.04
182.7565, 46757.59
183.2387, 46919.63
183.7208, 47082.99
184.2029, 47178.61
184.6850, 47214.09
185.1671, 47255.66
185.6492, 47348.50
186.1314, 47470.98
186.6135, 47555.20
187.0956, 47563.23
187.5777, 47572.10
188.0598, 47650.19
188.5419, 47790.01
189.0241, 47913.07
189.5062, 47972.07
189.9883, 47989.02
190.4704, 48028.40
190.9525, 48121.17
191.4346, 48198.98
191.9168, 48192.11
192.3989, 48111.01
192.8810, 48052.15
193.3631, 48059.64
193.8452, 48124.36
194.3273, 48216.41
194.8095, 48357.53
195.2916, 48491.34
195.7737, 48566.81
196.2558, 48590.95
196.7379, 48624.14
197.2200, 48697.62
197.7022, 48792.53
198.1843, 48872.59
198.6664, 48934.62
199.1485, 48987.97
199.6306, 49030.48
200.1127, 49065.36
200.5949, 49118.13
201.0770, 49213.11
201.5591, 49319.36
202.0412, 49386.19
202.5233, 49402.74
203.0054, 49408.86
203.4876, 49434.12
203.9697, 49473.16
204.4518, 49495.01
204.9339, 49482.00
205.4160, 49452.15
205.8981, 49431.70
206.3803, 49420.59
206.8624, 49416.26
207.3445, 49428.08
207.8266, 49448.66
208.3087, 49441.56
208.7908, 49380.06
209.2730, 49305.78
209.7551, 49276.88
210.2372, 49298.74
210.7193, 49318.52
211.2014, 49293.88
211.6835, 49241.96
212.1657, 49224.32
212.6478, 49269.71
213.1299, 49333.51
213.6120, 49359.35
214.0941, 49346.57
214.5762, 49342.68
215.0584, 49368.19
215.5405, 49419.54
216.0226, 49493.10
216.5047, 49600.57
216.9868, 49707.05
217.4689, 49777.16
217.9511, 49814.72
218.4332, 49836.64
218.9153, 49837.82
219.3974, 49830.30
219.8795, 49839.49
220.3616, 49872.89
220.8438, 49914.04
221.3259, 49943.21
221.8080, 49963.99
222.2901, 49997.27
222.7722, 50052.29
223.2543, 50122.85
223.7365, 50200.38
224.2186, 50283.94
224.7007, 50372.32
225.1828, 50462.93
225.6649, 50556.61
226.1470, 50656.46
226.6292, 50759.54
227.1113, 50870.64
227.5934, 50990.17
228.0755, 51116.42
228.5576, 51268.28
229.0397, 51461.39
229.5219, 51692.45
230.0040, 51949.92
230.4861, 52214.84
230.9682, 52517.34
231.4503, 52891.82
231.9324, 53338.26
232.4146, 53816.38
232.8967, 54266.76
233.3788, 54742.91
233.8609, 55391.01
234.3430, 56465.26
234.8251, 57492.41
235.3073, 58276.52
235.7894, 58784.68
236.2715, 58736.96
236.7536, 57832.48
237.2357, 56315.75
237.7178, 54984.96
238.2000, 53805.40
238.6821, 52836.19
239.1642, 52145.11
239.6463, 51698.57
240.1284, 51394.79
240.6105, 51218.25
241.0927, 51129.90
241.5748, 51039.43
242.0569, 50935.16
242.5390, 50854.14
243.0211, 50822.42
243.5033, 50822.64
243.9854, 50827.25
244.4675, 50832.85
244.9496, 50823.75
245.4317, 50761.65
245.9138, 50630.43
246.3960, 50515.00
246.8781, 50425.79
247.3602, 50364.44
247.8423, 50338.68
248.3244, 50351.68
248.8065, 50382.52
249.2887, 50399.40
249.7708, 50389.66
250.2529, 50422.59
250.7350, 50558.43
251.2171, 50706.03
251.6992, 50765.71
252.1814, 50728.44
252.6635, 50677.47
253.1456, 50696.17
253.6277, 50797.56
254.1098, 50897.65
254.5919, 51018.39
255.0741, 51119.87
255.5562, 51161.46
256.0383, 51152.23
256.5204, 51145.82
257.0025, 51189.27
257.4846, 51282.46
257.9668, 51322.04
258.4489, 51275.44
258.9310, 51220.02
259.4131, 51184.54
259.8952, 51164.93
260.3773, 51147.42
260.8595, 51124.02
261.3416, 51096.10
261.8237, 51070.65
262.3058, 51033.36
262.7879, 51015.90
263.2701, 51050.34
263.7522, 51101.36
264.2343, 51114.71
264.7164, 51065.73
265.1985, 50981.14
265.6806, 50928.87
266.1628, 50915.57
266.6449, 50931.24
267.1270, 51023.03
267.6091, 51117.45
268.0912, 51141.02
268.5733, 51076.16
269.0555, 50966.60
269.5376, 50877.11
270.0197, 50807.00
270.5018, 50762.93
270.9839, 50752.96
271.4660, 50757.02
271.9482, 50769.68
272.4303, 50786.27
272.9124, 50797.03
273.3945, 50789.21
273.8766, 50758.10
274.3587, 50737.15
274.8409, 50705.39
275.3230, 50703.51
275.8051, 50771.92
276.2872, 50885.14
276.7693, 50980.60
277.2514, 51003.80
277.7336, 50965.94
278.2157, 50971.20
278.6978, 51059.08
279.1799, 51138.40
279.6620, 51168.40
280.1441, 51176.30
280.6263, 51204.55
281.1084, 51278.31
281.5905, 51374.50
282.0726, 51441.96
282.5547, 51478.64
283.0368, 51488.05
283.5190, 51436.71
284.0011, 51377.73
284.4832, 51364.33
284.9653, 51414.53
285.4474, 51486.05
285.9295, 51535.05
286.4117, 51562.04
286.8938, 51560.91
287.3759, 51517.67
287.8580, 51453.92
288.3401, 51378.04
288.8222, 51291.84
289.3044, 51218.10
289.7865, 51178.93
290.2686, 51168.70
290.7507, 51158.99
291.2328, 51147.50
291.7149, 51135.18
292.1971, 51122.65
292.6792, 51110.39
293.1613, 51099.43
293.6434, 51100.02
294.1255, 51099.21
294.6076, 51065.58
295.0898, 50990.60
295.5719, 50926.58
296.0540, 50902.25
296.5361, 50919.50
297.0182, 50983.05
297.5003, 51123.68
297.9825, 51286.42
298.4646, 51435.82
298.9467, 51570.38
299.4288, 51680.31
299.9109, 51745.05
300.3930, 51791.18
300.8752, 51895.36
301.3573, 52067.02
301.8394, 52270.05
302.3215, 52497.51
302.8036, 52746.27
303.2857, 53022.96
303.7679, 53336.68
304.2500, 53644.60
304.7321, 53863.15
305.2142, 53918.55
305.6963, 54075.88
306.1784, 54437.39
306.6606, 54856.78
307.1427, 55206.62
307.6248, 55469.79
308.1069, 55705.49
308.5890, 55985.42
309.0711, 56335.39
309.5533, 56549.34
310.0354, 56664.32
310.5175, 56636.46
310.9996, 56412.75
311.4817, 56028.30
311.9638, 55547.99
312.4460, 55006.06
312.9281, 54418.35
313.4102, 53886.76
313.8923, 53386.80
314.3744, 52980.96
314.8565, 52719.98
315.3387, 52541.90
315.8208, 52379.33
316.3029, 52206.01
316.7850, 52038.84
317.2671, 51910.76
317.7492, 51833.88
318.2314, 51768.00
318.7135, 51725.71
319.1956, 51680.62
319.6777, 51605.19
320.1598, 51501.84
320.6419, 51408.87
321.1241, 51365.87
321.6062, 51372.77
322.0883, 51383.69
322.5704, 51400.43
323.0525, 51415.48
323.5346, 51400.14
324.0168, 51377.89
324.4989, 51409.19
324.9810, 51567.20
325.4631, 51776.92
325.9452, 51867.15
326.4273, 51806.63
326.9095, 51748.88
327.3916, 51788.00
327.8737, 51869.73
328.3558, 51919.16
328.8379, 51908.47
329.3200, 51895.20
329.8022, 51943.02
330.2843, 52037.16
330.7664, 52093.93
331.2485, 52085.62
331.7306, 52029.56
332.2127, 51938.93
332.6949, 51804.71
333.1770, 51700.20
333.6591, 51673.81
334.1412, 51679.36
334.6233, 51652.27
335.1054, 51582.36
335.5876, 51504.98
336.0697, 51456.57
336.5518, 51441.68
337.0339, 51402.16
337.5160, 51318.55
337.9981, 51230.25
338.4803, 51154.78
338.9624, 51092.77
339.4445, 51038.89
339.9266, 50988.25
340.4087, 50946.43
340.8908, 50938.34
341.3730, 50991.03
341.8551, 51045.75
342.3372, 51103.88
342.8193, 51157.95
343.3014, 51205.05
343.7835, 51242.38
344.2657, 51261.30
344.7478, 51238.03
345.2299, 51133.68
345.7120, 51097.28
346.1941, 51181.30
346.6762, 51281.97
347.1584, 51358.41
347.6405, 51407.09
348.1226, 51435.11
348.6047, 51437.34
349.0868, 51422.74
349.5689, 51453.75
350.0511, 51562.34
350.5332, 51661.56
351.0153, 51730.02
351.4974, 51768.43
351.9795, 51774.31
352.4616, 51742.98
352.9438, 51690.15
353.4259, 51627.77
353.9080, 51555.41
354.3901, 51498.21
354.8722, 51471.67
355.3543, 51456.50
355.8365, 51432.89
356.3186, 51401.08
356.8007, 51358.65
357.2828, 51292.19
357.7649, 51217.48
358.2470, 51168.72
358.7292, 51153.21
359.2113, 51140.16
359.6934, 51097.22
360.1755, 51027.93
360.6576, 50987.50
361.1397, 51010.20
361.6219, 51032.86
362.1040, 51018.50
362.5861, 50972.76
363.0682, 50910.36
363.5503, 50834.32
364.0324, 50757.78
364.5146, 50717.34
364.9967, 50758.77
365.4788, 50776.79
365.9609, 50753.19
366.4430, 50711.75
366.9251, 50664.42
367.4073, 50618.23
367.8894, 50587.35
368.3715, 50587.59
368.8536, 50619.71
369.3357, 50677.73
369.8178, 50779.51
370.3000, 50890.04
370.7821, 51022.43
371.2642, 51152.77
371.7463, 51234.85
372.2284, 51236.40
372.7105, 51185.20
373.1927, 51151.29
373.6748, 51135.76
374.1569, 51134.48
374.6390, 51158.58
375.1211, 51189.39
375.6032, 51215.57
376.0854, 51235.43
376.5675, 51242.39
377.0496, 51224.00
377.5317, 51186.14
378.0138, 51156.78
378.4959, 51143.84
378.9781, 51131.71
379.4602, 51106.67
379.9423, 51071.03
380.4244, 51029.23
380.9065, 50999.45
381.3886, 50951.78
381.8708, 50837.17
382.3529, 50669.74
382.8350, 50530.48
383.3171, 50461.90
383.7992, 50451.36
384.2813, 50463.39
384.7635, 50533.08
385.2456, 50568.35
385.7277, 50536.80
386.2098, 50472.35
386.6919, 50398.80
387.1740, 50326.43
387.6562, 50277.68
388.1383, 50281.91
388.6204, 50350.43
389.1025, 50408.96
389.5846, 50441.78
390.0667, 50481.39
390.5489, 50551.46
391.0310, 50635.07
391.5131, 50699.84
391.9952, 50727.63
392.4773, 50728.71
392.9594, 50728.25
393.4416, 50726.72
393.9237, 50721.34
394.4058, 50683.72
394.8879, 50660.24
395.3700, 50699.27
395.8521, 50803.00
396.3343, 50902.13
396.8164, 50937.13
397.2985, 50923.39
397.7806, 50919.67
398.2627, 50935.12
398.7448, 50947.48
399.2270, 50946.21
399.7091, 50928.78
400.1912, 50885.37
400.6733, 50789.37
401.1554, 50689.62
401.6375, 50617.21
402.1197, 50568.43
402.6018, 50526.69
403.0839, 50480.38
403.5660, 50454.63
404.0481, 50508.89
404.5302, 50731.26
405.0124, 50830.21
405.4945, 50675.32
405.9766, 50480.02
406.4587, 50411.95
406.9408, 50471.91
407.4229, 50562.81
407.9051, 50609.85
408.3872, 50615.23
408.8693, 50600.25
409.3514, 50544.66
409.8335, 50494.45
410.3156, 50458.26
410.7978, 50431.52
411.2799, 50409.63
411.7620, 50390.82
412.2441, 50373.48
412.7262, 50348.83
413.2083, 50314.90
413.6905, 50310.10
414.1726, 50354.56
414.6547, 50408.29
415.1368, 50440.80
415.6189, 50457.71
416.1010, 50479.22
416.5832, 50517.71
417.0653, 50561.89
417.5474, 50602.53
418.0295, 50638.66
418.5116, 50655.94
418.9937, 50640.68
419.4759, 50608.90
419.9580, 50601.08
420.4401, 50634.21
420.9222, 50647.44
421.4043, 50618.31
421.8864, 50567.72
422.3686, 50509.16
422.8507, 50448.62
423.3328, 50403.41
423.8149, 50394.05
424.2970, 50422.11
424.7791, 50415.46
425.2613, 50312.43
425.7434, 50245.09
426.2255, 50278.20
426.7076, 50351.25
427.1897, 50386.10
427.6718, 50353.38
428.1540, 50283.67
428.6361, 50210.31
429.1182, 50126.13
429.6003, 50091.51
430.0824, 50166.13
430.5645, 50236.30
431.0467, 50224.23
431.5288, 50148.93
432.0109, 50079.55
432.4930, 50038.89
432.9751, 50026.82
433.4572, 50054.43
433.9394, 50120.90
434.4215, 50182.44
434.9036, 50228.07
435.3857, 50249.52
435.8678, 50218.59
436.3499, 50103.04
436.8321, 50036.34
437.3142, 50103.00
437.7963, 50205.49
438.2784, 50235.23
438.7605, 50183.63
439.2426, 50113.08
439.7248, 50075.32
440.2069, 50069.26
440.6890, 50066.96
441.1711, 50093.15
441.6532, 50093.34
442.1353, 50031.25
442.6175, 49950.71
443.0996, 49898.68
443.5817, 49889.47
444.0638, 49905.35
444.5459, 49929.33
445.0280, 49961.83
445.5102, 49985.33
445.9923, 49983.66
446.4744, 49992.88
446.9565, 50036.01
447.4386, 50103.86
447.9207, 50177.31
448.4029, 50260.80
448.8850, 50335.17
449.3671, 50361.85
449.8492, 50353.56
450.3313, 50390.33
450.8134, 50513.13
451.2956, 50665.47
451.7777, 50745.40
452.2598, 50721.19
452.7419, 50773.50
453.2240, 50988.20
453.7061, 51231.09
454.1883, 51403.79
454.6704, 51514.19
455.1525, 51625.94
455.6346, 51784.27
456.1167, 51960.22
456.5988, 52050.53
457.0810, 52068.00
457.5631, 51964.77
458.0452, 51664.13
458.5273, 51310.40
459.0095, 50985.64
459.4916, 50708.46
459.9737, 50481.53
460.4558, 50322.91
460.9379, 50217.21
461.4200, 50094.64
461.9022, 49944.51
462.3843, 49811.72
462.8664, 49716.72
463.3485, 49657.10
463.8306, 49632.86
464.3127, 49662.09
464.7949, 49684.39
465.2770, 49656.65
465.7591, 49606.33
466.2412, 49581.25
466.7233, 49590.47
467.2054, 49610.49
467.6876, 49622.66
468.1697, 49627.83
468.6518, 49606.78
469.1339, 49521.48
469.6160, 49457.39
470.0981, 49443.20
470.5803, 49461.38
471.0624, 49499.88
471.5445, 49552.05
472.0266, 49588.49
472.5087, 49559.81
472.9908, 49457.13
473.4730, 49370.67
473.9551, 49307.62
474.4372, 49256.94
474.9193, 49205.62
475.4014, 49161.71
475.8835, 49144.95
476.3657, 49175.59
476.8478, 49214.93
477.3299, 49208.32
477.8120, 49172.29
478.2941, 49190.94
478.7762, 49301.60
479.2584, 49434.27
479.7405, 49497.17
480.2226, 49470.64
480.7047, 49477.85
481.1868, 49542.56
481.6689, 49621.50
482.1511, 49706.81
482.6332, 49787.30
483.1153, 49849.36
483.5974, 49887.59
484.0795, 49891.71
484.5616, 49832.80
485.0438, 49684.26
485.5259, 49548.58
486.0080, 49404.99
486.4901, 49300.26
486.9722, 49285.11
487.4543, 49332.07
487.9365, 49358.54
488.4186, 49313.71
488.9007, 49232.93
489.3828, 49163.82
489.8649, 49106.07
490.3470, 49058.37
490.8292, 49022.52
491.3113, 48993.09
491.7934, 48963.68
492.2755, 48935.61
492.7576, 48899.27
493.2397, 48840.38
493.7219, 48783.55
494.2040, 48763.66
494.6861, 48764.19
495.1682, 48721.15
495.6503, 48591.80
496.1324, 48430.01
496.6146, 48391.62
497.0967, 48569.01
497.5788, 48672.22
498.0609, 48621.48
498.5430, 48545.36
499.0251, 48522.79
499.5073, 48545.25
499.9894, 48554.67
500.4715, 48510.45
500.9536, 48437.12
501.4357, 48372.30
501.9178, 48315.60
502.4000, 48286.30
502.8821, 48303.91
503.3642, 48338.65
503.8463, 48343.50
504.3284, 48317.81
504.8105, 48281.26
505.2927, 48221.17
505.7748, 48164.88
506.2569, 48129.99
506.7390, 48118.54
507.2211, 48135.59
507.7032, 48187.37
508.1854, 48253.62
508.6675, 48273.54
509.1496, 48210.65
509.6317, 48179.67
510.1138, 48214.69
510.5959, 48259.65
511.0781, 48282.89
511.5602, 48287.00
512.0423, 48292.18
512.5244, 48316.69
513.0065, 48342.47
513.4886, 48333.84
513.9708, 48291.21
514.4529, 48258.47
514.9350, 48262.21
515.4171, 48265.85
515.8992, 48192.48
516.3813, 48020.61
516.8635, 47930.82
517.3456, 48044.82
517.8277, 48161.42
518.3098, 48104.49
518.7919, 47934.98
519.2740, 47836.43
519.7562, 47905.74
520.2383, 48061.98
520.7204, 48128.76
521.2025, 48065.22
521.6846, 48030.04
522.1667, 48072.18
522.6489, 48108.79
523.1310, 48099.57
523.6131, 48052.83
524.0952, 47992.87
524.5773, 47914.73
525.0594, 47849.18
525.5416, 47845.71
526.0237, 47893.04
526.5058, 47930.14
526.9879, 47942.29
527.4700, 47929.88
527.9521, 47888.25
528.4343, 47810.98
528.9164, 47748.64
529.3985, 47712.50
529.8806, 47680.27
530.3627, 47635.28
530.8448, 47589.73
531.3270, 47574.86
531.8091, 47600.56
532.2912, 47621.40
532.7733, 47545.95
533.2554, 47353.98
533.7375, 47278.35
534.2197, 47413.81
534.7018, 47536.70
535.1839, 47496.72
535.6660, 47375.03
536.1481, 47315.30
536.6302, 47370.30
537.1124, 47443.48
537.5945, 47459.00
538.0766, 47445.25
538.5587, 47468.55
539.0408, 47540.21
539.5229, 47608.21
540.0051, 47625.42
540.4872, 47593.45
540.9693, 47552.19
541.4514, 47480.46
541.9335, 47425.22
542.4156, 47406.56
542.8978, 47400.09
543.3799, 47382.88
543.8620, 47351.55
544.3441, 47317.79
544.8262, 47288.62
545.3083, 47265.82
545.7905, 47261.58
546.2726, 47283.08
546.7547, 47288.72
547.2368, 47253.63
547.7189, 47196.64
548.2010, 47148.93
548.6832, 47110.04
549.1653, 47081.36
549.6474, 47064.20
550.1295, 47056.48
550.6116, 47057.98
551.0938, 47067.27
551.5759, 47084.70
552.0580, 47112.48
552.5401, 47138.11
553.0222, 47123.44
553.5043, 47039.79
553.9865, 46990.82
554.4686, 47017.11
554.9507, 47052.38
555.4328, 47073.50
555.9149, 47077.53
556.3970, 47058.98
556.8792, 46995.07
557.3613, 46936.72
557.8434, 46957.09
558.3255, 47033.50
558.8076, 47074.10
559.2897, 47051.96
559.7719, 47006.25
560.2540, 46976.89
560.7361, 46964.64
561.2182, 46958.77
561.7003, 46969.31
562.1824, 46972.79
562.6646, 46949.48
563.1467, 46921.24
563.6288, 46932.32
564.1109, 46985.46
564.5930, 47008.50
565.0751, 46888.72
565.5573, 46658.39
566.0394, 46545.70
566.5215, 46583.34
567.0036, 46617.38
567.4857, 46571.53
567.9678, 46477.45
568.4500, 46392.79
568.9321, 46311.81
569.4142, 46260.66
569.8963, 46252.36
570.3784, 46273.47
570.8605, 46334.16
571.3427, 46416.76
571.8248, 46466.36
572.3069, 46450.29
572.7890, 46392.87
573.2711, 46357.01
573.7532, 46359.11
574.2354, 46329.12
574.7175, 46203.06
575.1996, 46103.28
575.6817, 46122.16
576.1638, 46219.21
576.6459, 46284.66
577.1281, 46271.00
577.6102, 46231.55
578.0923, 46181.37
578.5744, 46142.22
579.0565, 46188.93
579.5386, 46338.71
580.0208, 46490.87
580.5029, 46544.73
580.9850, 46503.04
581.4671, 46486.48
581.9492, 46542.99
582.4313, 46564.70
582.9135, 46489.24
583.3956, 46403.55
583.8777, 46389.45
584.3598, 46453.64
584.8419, 46543.02
585.3240, 46634.35
585.8062, 46717.33
586.2883, 46756.11
586.7704, 46751.00
587.2525, 46768.79
587.7346, 46839.41
588.2167, 46938.45
588.6989, 47033.40
589.1810, 47129.18
589.6631, 47198.17
590.1452, 47197.52
590.6273, 47214.02
591.1094, 47312.83
591.5916, 47452.37
592.0737, 47561.72
592.5558, 47615.66
593.0379, 47641.46
593.5200, 47685.57
594.0021, 47743.00
594.4843, 47722.82
594.9664, 47595.09
595.4485, 47467.03
595.9306, 47418.17
596.4127, 47401.41
596.8948, 47307.77
597.3770, 47093.80
597.8591, 46912.58
598.3412, 46825.99
598.8233, 46779.35
599.3054, 46746.02
599.7875, 46708.45
600.2697, 46622.69
600.7518, 46457.07
601.2339, 46263.14
601.7160, 46168.64
602.1981, 46202.14
602.6802, 46195.55
603.1624, 46101.96
603.6445, 46002.77
604.1266, 45949.96
604.6087, 45931.10
605.0908, 45914.77
605.5729, 45892.61
606.0551, 45874.54
606.5372, 45882.83
607.0193, 45891.83
607.5014, 45853.95
607.9835, 45766.73
608.4656, 45673.09
608.9478, 45609.02
609.4299, 45567.15
609.9120, 45504.44
610.3941, 45384.98
610.8762, 45320.20
611.3583, 45391.28
611.8405, 45470.13
612.3226, 45468.79
612.8047, 45399.11
613.2868, 45333.41
613.7689, 45307.54
614.2510, 45291.18
614.7332, 45244.40
615.2153, 45186.49
615.6974, 45176.03
616.1795, 45228.48
616.6616, 45286.43
617.1437, 45290.27
617.6259, 45241.25
618.1080, 45194.65
618.5901, 45157.63
619.0722, 45112.96
619.5543, 45035.53
620.0364, 44965.32
620.5186, 44940.91
621.0007, 44962.32
621.4828, 44993.51
621.9649, 45020.86
622.4470, 45041.96
622.9291, 45052.50
623.4113, 45053.43
623.8934, 45050.73
624.3755, 45046.58
624.8576, 45035.81
625.3397, 45009.64
625.8218, 44964.49
626.3040, 44935.32
626.7861, 44939.00
627.2682, 44939.52
627.7503, 44948.08
628.2324, 44939.67
628.7145, 44872.03
629.1967, 44744.65
629.6788, 44635.03
630.1609, 44604.78
630.6430, 44622.13
631.1251, 44633.20
631.6072, 44640.07
632.0894, 44678.77
632.5715, 44773.98
633.0536, 44861.80
633.5357, 44839.10
634.0178, 44670.67
634.4999, 44560.27
634.9821, 44531.05
635.4642, 44529.53
635.9463, 44572.66
636.4284, 44618.80
636.9105, 44603.77
637.3926, 44517.10
637.8748, 44448.63
638.3569, 44499.86
638.8390, 44602.33
639.3211, 44618.71
639.8032, 44550.71
640.2853, 44475.00
640.7675, 44422.55
641.2496, 44380.72
641.7317, 44325.96
642.2138, 44243.66
642.6959, 44204.92
643.1780, 44232.03
643.6602, 44274.21
644.1423, 44351.39
644.6244, 44418.12
645.1065, 44405.12
645.5886, 44298.26
646.0707, 44184.32
646.5529, 44139.22
647.0350, 44131.06
647.5171, 44100.31
647.9992, 44047.10
648.4813, 43989.40
648.9634, 43930.16
649.4456, 43889.39
649.9277, 43906.14
650.4098, 44003.89
650.8919, 44067.20
651.3740, 44102.41
651.8561, 44096.64
652.3383, 44002.90
652.8204, 43885.61
653.3025, 43826.73
653.7846, 43844.93
654.2667, 43881.21
654.7488, 43904.98
655.2310, 43913.78
655.7131, 43886.46
656.1952, 43831.93
656.6773, 43823.54
657.1594, 43899.73
657.6415, 43994.88
658.1237, 44000.35
658.6058, 43890.95
659.0879, 43815.32
659.5700, 43784.28
660.0521, 43776.73
660.5342, 43821.83
661.0164, 43869.32
661.4985, 43852.69
661.9806, 43761.27
662.4627, 43669.36
662.9448, 43637.01
663.4269, 43618.98
663.9091, 43532.50
664.3912, 43403.09
664.8733, 43350.11
665.3554, 43421.93
665.8375, 43536.68
666.3196, 43584.03
666.8018, 43559.45
667.2839, 43512.33
667.7660, 43409.90
668.2481, 43335.63
668.7302, 43321.42
669.2123, 43339.54
669.6945, 43379.20
670.1766, 43436.98
670.6587, 43454.38
671.1408, 43359.23
671.6229, 43252.61
672.1050, 43229.44
672.5872, 43267.84
673.0693, 43315.69
673.5514, 43355.03
674.0335, 43383.54
674.5156, 43398.41
674.9977, 43399.56
675.4799, 43385.86
675.9620, 43353.18
676.4441, 43314.84
676.9262, 43255.41
677.4083, 43208.37
677.8904, 43217.45
678.3726, 43278.73
678.8547, 43319.30
679.3368, 43325.95
679.8189, 43302.91
680.3010, 43224.18
680.7831, 43129.52
681.2653, 43083.49
681.7474, 43093.79
682.2295, 43108.75
682.7116, 43084.05
683.1937, 43027.93
683.6758, 42959.67
684.1580, 42871.58
684.6401, 42829.38
685.1222, 42864.11
685.6043, 42923.70
686.0864, 42966.23
686.5685, 42991.06
687.0507, 42996.74
687.5328, 42987.50
688.0149, 42954.09
688.4970, 42845.68
688.9791, 42746.17
689.4612, 42760.45
689.9434, 42869.10
690.4255, 42954.13
690.9076, 42938.09
691.3897, 42876.53
691.8718, 42855.32
692.3539, 42869.64
692.8361, 42888.54
693.3182, 42907.82
693.8003, 42922.16
694.2824, 42924.46
694.7645, 42919.32
695.2466, 42928.63
695.7288, 42962.23
696.2109, 42994.68
696.6930, 43020.51
697.1751, 43048.77
697.6572, 43100.74
698.1393, 43156.11
698.6215, 43164.25
699.1036, 43092.64
699.5857, 43031.25
700.0678, 43069.56
700.5499, 43162.41
701.0320, 43237.43
701.5142, 43286.81
701.9963, 43306.36
702.4784, 43288.14
702.9605, 43271.43
703.4426, 43351.78
703.9247, 43578.64
704.4069, 43689.20
704.8890, 43570.62
705.3711, 43501.79
705.8532, 43648.04
706.3353, 43887.87
706.8174, 44078.26
707.2996, 44204.15
707.7817, 44290.55
708.2638, 44349.71
708.7459, 44369.85
709.2280, 44328.04
709.7101, 44243.16
710.1923, 44154.47
710.6744, 44073.11
711.1565, 43975.60
711.6386, 43838.20
712.1207, 43662.07
712.6028, 43433.06
713.0850, 43137.72
713.5671, 42906.71
714.0492, 42798.06
714.5313, 42739.05
715.0134, 42646.83
715.4955, 42518.21
715.9777, 42412.29
716.4598, 42355.14
716.9419, 42284.82
717.4240, 42169.71
717.9061, 42046.53
718.3882, 41933.76
718.8704, 41843.98
719.3525, 41809.80
719.8346, 41875.11
720.3167, 41961.82
720.7988, 41968.20
721.2809, 41919.94
721.7631, 41896.46
722.2452, 41910.27
722.7273, 41911.53
723.2094, 41861.63
723.6915, 41776.72
724.1736, 41709.68
724.6558, 41667.38
725.1379, 41624.36
725.6200, 41570.90
726.1021, 41526.72
726.5842, 41512.80
727.0663, 41511.60
727.5485, 41490.57
728.0306, 41441.54
728.5127, 41387.23
728.9948, 41330.65
729.4769, 41278.41
729.9590, 41247.69
730.4412, 41224.66
730.9233, 41166.45
731.4054, 41059.14
731.8875, 40961.59
732.3696, 40952.76
732.8517, 41017.48
733.3339, 41084.30
733.8160, 41156.37
734.2981, 41180.95
734.7802, 41124.34
735.2623, 41040.87
735.7444, 41000.10
736.2266, 41005.24
736.7087, 41011.38
737.1908, 41029.33
737.6729, 41033.59
738.1550, 41004.80
738.6371, 40971.00
739.1193, 40948.27
739.6014, 40942.83
740.0835, 40971.02
740.5656, 41083.98
741.0477, 41170.86
741.5298, 41093.77
742.0120, 40935.17
742.4941, 40846.15
742.9762, 40844.58
743.4583, 40879.42
743.9404, 40925.27
744.4225, 40949.89
744.9047, 40852.86
745.3868, 40611.06
745.8689, 40439.63
746.3510, 40348.79
746.8331, 40344.94
747.3152, 40490.91
747.7974, 40700.03
748.2795, 40772.40
748.7616, 40658.70
749.2437, 40582.81
749.7258, 40598.42
750.2079, 40626.45
750.6901, 40633.19
751.1722, 40624.34
751.6543, 40614.24
752.1364, 40605.18
752.6185, 40582.45
753.1006, 40513.82
753.5828, 40437.86
754.0649, 40433.67
754.5470, 40477.00
755.0291, 40463.23
755.5112, 40365.22
755.9933, 40268.30
756.4755, 40260.49
756.9576, 40319.43
757.4397, 40305.07
757.9218, 40182.23
758.4039, 40099.35
758.8860, 40095.46
759.3682, 40116.95
759.8503, 40132.60
760.3324, 40143.77
760.8145, 40155.20
761.2966, 40181.14
761.7787, 40179.49
762.2609, 40114.84
762.7430, 40041.72
763.2251, 39994.93
763.7072, 39971.75
764.1893, 39962.87
764.6714, 39964.75
765.1536, 39963.46
765.6357, 39944.73
766.1178, 39913.37
766.5999, 39877.32
767.0820, 39837.36
767.5641, 39796.31
768.0463, 39754.55
768.5284, 39718.30
769.0105, 39693.96
769.4926, 39681.99
769.9747, 39698.28
770.4568, 39770.70
770.9390, 39800.82
771.4211, 39728.59
771.9032, 39649.32
772.3853, 39657.01
772.8674, 39726.45
773.3495, 39755.39
773.8317, 39709.49
774.3138, 39658.30
774.7959, 39611.45
775.2780, 39574.43
775.7601, 39563.87
776.2422, 39565.07
776.7244, 39535.19
777.2065, 39453.66
777.6886, 39387.53
778.1707, 39427.57
778.6528, 39519.64
779.1349, 39560.73
779.6171, 39547.53
780.0992, 39483.10
780.5813, 39365.46
781.0634, 39256.54
781.5455, 39243.03
782.0276, 39319.51
782.5098, 39350.06
782.9919, 39308.20
783.4740, 39300.36
783.9561, 39370.04
784.4382, 39460.51
784.9203, 39526.72
785.4025, 39569.88
785.8846, 39598.54
786.3667, 39607.06
786.8488, 39608.13
787.3309, 39607.89
787.8130, 39596.45
788.2952, 39569.85
788.7773, 39525.12
789.2594, 39444.98
789.7415, 39316.48
790.2236, 39218.79
790.7057, 39251.05
791.1879, 39333.05
791.6700, 39343.55
792.1521, 39293.21
792.6342, 39249.16
793.1163, 39234.47
793.5984, 39204.73
794.0806, 39094.46
794.5627, 38927.71
795.0448, 38863.63
795.5269, 38920.85
796.0090, 38953.45
796.4911, 38923.16
796.9733, 38870.27
797.4554, 38831.34
797.9375, 38800.08
798.4196, 38739.08
798.9017, 38595.82
799.3839, 38498.89
799.8660, 38473.23
800.3481, 38469.25
800.8302, 38475.24
801.3123, 38479.57
801.7944, 38456.68
802.2766, 38395.15
802.7587, 38363.16
803.2408, 38427.15
803.7229, 38506.84
804.2050, 38544.41
804.6871, 38540.46
805.1693, 38491.53
805.6514, 38403.95
806.1335, 38315.51
806.6156, 38246.67
807.0977, 38213.22
807.5798, 38283.21
808.0620, 38436.61
808.5441, 38497.59
809.0262, 38429.49
809.5083, 38360.49
809.9904, 38389.86
810.4725, 38465.86
810.9547, 38427.20
811.4368, 38202.43
811.9189, 38098.16
812.4010, 38177.38
812.8831, 38283.35
813.3652, 38389.16
813.8474, 38460.57
814.3295, 38432.41
814.8116, 38292.48
815.2937, 38200.44
815.7758, 38210.82
816.2579, 38235.56
816.7401, 38269.66
817.2222, 38281.56
817.7043, 38217.67
818.1864, 38097.27
818.6685, 38013.89
819.1506, 38030.01
819.6328, 38054.96
820.1149, 38002.61
820.5970, 37907.26
821.0791, 37808.25
821.5612, 37719.26
822.0433, 37667.36
822.5255, 37665.34
823.0076, 37695.29
823.4897, 37747.07
823.9718, 37812.89
824.4539, 37831.35
824.9360, 37800.37
825.4182, 37749.20
825.9003, 37680.08
826.3824, 37614.64
826.8645, 37569.38
827.3466, 37546.99
827.8287, 37578.25
828.3109, 37710.21
828.7930, 37802.18
829.2751, 37832.94
829.7573, 37828.35
830.2394, 37783.79
830.7215, 37719.63
831.2036, 37672.80
831.6857, 37645.64
832.1678, 37641.17
832.6500, 37690.86
833.1321, 37730.46
833.6142, 37724.67
834.0963, 37685.59
834.5784, 37615.79
835.0605, 37525.62
835.5427, 37465.67
836.0248, 37488.59
836.5069, 37525.62
836.9890, 37483.29
837.4711, 37410.72
837.9532, 37425.80
838.4354, 37520.48
838.9175, 37563.83
839.3996, 37478.79
839.8817, 37347.35
840.3638, 37306.38
840.8459, 37343.14
841.3281, 37356.96
841.8102, 37344.88
842.2923, 37313.11
842.7744, 37257.76
843.2565, 37209.77
843.7386, 37211.14
844.2208, 37257.66
844.7029, 37274.49
845.1850, 37250.00
845.6671, 37220.02
846.1492, 37171.89
846.6313, 37139.77
847.1135, 37164.42
847.5956, 37219.09
848.0777, 37238.87
848.5598, 37204.34
849.0419, 37179.66
849.5240, 37192.30
850.0062, 37194.86
850.4883, 37145.59
850.9704, 37082.66
851.4525, 37059.81
851.9346, 37080.75
852.4167, 37098.68
852.8989, 37082.67
853.3810, 37064.98
853.8631, 37079.14
854.3452, 37101.41
854.8273, 37098.90
855.3094, 37071.80
855.7916, 37031.45
856.2737, 36981.70
856.7558, 36947.91
857.2379, 36975.37
857.7200, 37039.38
858.2021, 37068.32
858.6843, 37065.82
859.1664, 37070.81
859.6485, 37095.73
860.1306, 37152.42
860.6127, 37259.79
861.0948, 37403.06
861.5770, 37511.91
862.0591, 37583.84
862.5412, 37638.44
863.0233, 37664.53
863.5054, 37714.21
863.9875, 37810.84
864.4697, 37961.13
864.9518, 38188.70
865.4339, 38524.86
865.9160, 38822.17
866.3981, 39050.43
866.8802, 39280.15
867.3624, 39526.23
867.8445, 39784.61
868.3266, 40065.66
868.8087, 40361.08
869.2908, 40619.73
869.7729, 40823.43
870.2551, 41002.77
870.7372, 41206.20
871.2193, 41350.96
871.7014, 41377.99
872.1835, 41297.92
872.6656, 41134.02
873.1478, 40893.07
873.6299, 40591.47
874.1120, 40226.86
874.5941, 39819.49
875.0762, 39342.41
875.5583, 38857.01
876.0405, 38474.25
876.5226, 38201.41
877.0047, 37955.06
877.4868, 37678.87
877.9689, 37418.94
878.4510, 37248.24
878.9332, 37144.94
879.4153, 37061.09
879.8974, 36989.27
880.3795, 36914.48
880.8616, 36831.20
881.3438, 36740.19
881.8259, 36638.10
882.3080, 36531.54
882.7901, 36471.82
883.2722, 36465.12
883.7543, 36387.43
884.2365, 36195.09
884.7186, 36025.21
885.2007, 35980.46
885.6828, 36014.60
886.1649, 36007.24
886.6470, 35947.81
887.1292, 35884.64
887.6113, 35802.18
888.0934, 35745.98
888.5755, 35734.07
889.0576, 35752.82
889.5397, 35808.35
890.0219, 35896.10
890.5040, 35911.66
890.9861, 35781.10
891.4682, 35686.14
891.9503, 35661.49
892.4324, 35661.47
892.9146, 35678.07
893.3967, 35694.16
893.8788, 35676.32
894.3609, 35614.45
894.8430, 35571.81
895.3251, 35587.54
895.8073, 35606.12
896.2894, 35610.57
896.7715, 35593.46
897.2536, 35529.43
897.7357, 35435.84
898.2178, 35372.63
898.7000, 35369.72
899.1821, 35392.67
899.6642, 35439.20
900.1463, 35478.95
900.6284, 35464.64
901.1105, 35415.33
901.5927, 35383.82
902.0748, 35382.38
902.5569, 35376.21
903.0390, 35331.23
903.5211, 35272.13
904.0032, 35234.68
904.4854, 35216.67
904.9675, 35212.50
905.4496, 35220.97
905.9317, 35247.19
906.4138, 35295.29
906.8959, 35333.97
907.3781, 35305.12
907.8602, 35224.28
908.3423, 35197.87
908.8244, 35224.30
909.3065, 35208.75
909.7886, 35123.01
910.2708, 35035.79
910.7529, 35004.54
911.2350, 35010.58
911.7171, 34997.91
912.1992, 34962.49
912.6813, 34935.96
913.1635, 34923.10
913.6456, 34909.84
914.1277, 34901.63
914.6098, 34868.01
915.0919, 34750.02
915.5740, 34555.30
916.0562, 34493.15
916.5383, 34653.62
917.0204, 34760.68
917.5025, 34772.99
917.9846, 34743.93
918.4667, 34690.33
918.9489, 34620.38
919.4310, 34539.90
919.9131, 34434.58
920.3952, 34389.31
920.8773, 34455.13
921.3594, 34518.20
921.8416, 34575.94
922.3237, 34597.54
922.8058, 34523.18
923.2879, 34393.00
923.7700, 34335.03
924.2521, 34397.89
924.7343, 34461.13
925.2164, 34520.48
925.6985, 34538.91
926.1806, 34457.50
926.6627, 34345.10
927.1448, 34289.45
927.6270, 34295.59
928.1091, 34303.49
928.5912, 34283.12
929.0733, 34267.36
929.5554, 34280.75
930.0375, 34302.38
930.5197, 34311.44
931.0018, 34311.69
931.4839, 34316.43
931.9660, 34328.59
932.4481, 34336.23
932.9302, 34339.79
933.4124, 34326.13
933.8945, 34263.20
934.3766, 34184.03
934.8587, 34141.47
935.3408, 34136.73
935.8229, 34149.01
936.3051, 34169.80
936.7872, 34181.50
937.2693, 34159.69
937.7514, 34120.30
938.2335, 34084.88
938.7156, 34057.05
939.1978, 34054.13
939.6799, 34073.54
940.1620, 34070.24
940.6441, 34009.39
941.1262, 33936.23
941.6083, 33936.27
942.0905, 33983.64
942.5726, 33980.71
943.0547, 33930.94
943.5368, 33900.57
944.0189, 33909.95
944.5010, 33914.22
944.9832, 33863.98
945.4653, 33793.97
945.9474, 33814.80
946.4295, 33917.21
946.9116, 33972.02
947.3937, 33966.91
947.8759, 33925.11
948.3580, 33848.84
948.8401, 33799.35
949.3222, 33870.55
949.8043, 34033.66
950.2864, 34074.14
950.7686, 33973.81
951.2507, 33944.43
951.7328, 34026.43
952.2149, 34144.25
952.6970, 34267.32
953.1791, 34367.84
953.6613, 34384.41
954.1434, 34310.67
954.6255, 34321.08
955.1076, 34444.47
955.5897, 34545.92
956.0718, 34590.88
956.5540, 34624.96
957.0361, 34682.34
957.5182, 34751.45
958.0003, 34798.99
958.4824, 34815.17
958.9645, 34857.34
959.4467, 34948.86
959.9288, 35016.21
960.4109, 35026.63
960.8930, 35024.00
961.3751, 35053.27
961.8572, 35101.68
962.3394, 35111.86
962.8215, 35070.17
963.3036, 35020.03
963.7857, 34964.34
964.2678, 34894.41
964.7499, 34777.18
965.2321, 34668.57
965.7142, 34652.22
966.1963, 34714.08
966.6784, 34698.18
967.1605, 34559.48
967.6426, 34413.33
968.1248, 34225.08
968.6069, 34072.64
969.0890, 34028.25
969.5711, 34014.26
970.0532, 33922.77
970.5353, 33752.15
971.0175, 33611.68
971.4996, 33512.15
971.9817, 33440.64
972.4638, 33413.66
972.9459, 33395.08
973.4280, 33387.05
973.9102, 33363.77
974.3923, 33265.02
974.8744, 33080.00
975.3565, 32967.50
975.8386, 33014.16
976.3207, 33054.35
976.8029, 33058.48
977.2850, 33027.59
977.7671, 32942.62
978.2492, 32829.97
978.7313, 32734.26
979.2134, 32660.71
979.6956, 32616.26
980.1777, 32628.32
980.6598, 32637.58
981.1419, 32610.55
981.6240, 32581.96
982.1061, 32601.14
982.5883, 32639.23
983.0704, 32615.02
983.5525, 32499.02
984.0346, 32404.78
984.5167, 32394.88
984.9988, 32381.76
985.4810, 32322.48
985.9631, 32241.51
986.4452, 32138.90
986.9273, 32038.87
987.4094, 32011.09
987.8915, 32092.44
988.3737, 32159.79
988.8558, 32168.09
989.3379, 32148.57
989.8200, 32111.29
990.3021, 32060.55
990.7842, 31997.07
991.2664, 31923.66
991.7485, 31843.54
992.2306, 31748.80
992.7127, 31678.72
993.1948, 31664.30
993.6769, 31663.97
994.1591, 31639.84
994.6412, 31622.46
995.1233, 31661.39
995.6054, 31747.22
996.0875, 31820.24
996.5696, 31861.63
997.0518, 31884.98
997.5339, 31893.78
998.0160, 31889.35
998.4981, 31866.32
998.9802, 31833.98
999.4623, 31803.09
999.9445, 31774.79
1000.427, 31744.09
1000.909, 31699.33
1001.391, 31674.76
1001.873, 31713.06
1002.355, 31750.09
1002.837, 31726.62
1003.319, 31679.16
1003.801, 31664.35
1004.284, 31684.13
1004.766, 31695.79
1005.248, 31680.74
1005.730, 31661.63
1006.212, 31655.75
1006.694, 31643.76
1007.176, 31607.77
1007.658, 31558.67
1008.140, 31507.47
1008.623, 31458.87
1009.105, 31425.41
1009.587, 31420.67
1010.069, 31415.20
1010.551, 31404.25
1011.033, 31378.97
1011.515, 31315.91
1011.997, 31243.29
1012.479, 31196.26
1012.962, 31180.95
1013.444, 31196.64
1013.926, 31269.93
1014.408, 31325.22
1014.890, 31340.64
1015.372, 31316.40
1015.854, 31209.67
1016.336, 31086.84
1016.819, 31057.90
1017.301, 31121.67
1017.783, 31146.56
1018.265, 31055.27
1018.747, 30975.95
1019.229, 30967.01
1019.711, 30975.02
1020.193, 30978.96
1020.675, 30968.92
1021.158, 30924.16
1021.640, 30849.43
1022.122, 30798.03
1022.604, 30810.09
1023.086, 30805.90
1023.568, 30729.54
1024.050, 30663.48
1024.532, 30674.30
1025.015, 30717.05
1025.497, 30734.93
1025.979, 30721.96
1026.461, 30689.93
1026.943, 30610.41
1027.425, 30563.29
1027.907, 30604.98
1028.389, 30642.36
1028.871, 30598.97
1029.354, 30537.58
1029.836, 30545.93
1030.318, 30621.33
1030.800, 30680.11
1031.282, 30703.61
1031.764, 30717.62
1032.246, 30740.69
1032.728, 30737.83
1033.210, 30660.38
1033.693, 30570.18
1034.175, 30545.34
1034.657, 30580.37
1035.139, 30602.79
1035.621, 30615.19
1036.103, 30600.74
1036.585, 30534.36
1037.067, 30470.80
1037.550, 30447.91
1038.032, 30426.72
1038.514, 30339.70
1038.996, 30206.99
1039.478, 30168.20
1039.960, 30313.42
1040.442, 30381.55
1040.924, 30308.21
1041.406, 30251.42
1041.889, 30286.97
1042.371, 30334.04
1042.853, 30307.30
1043.335, 30225.87
1043.817, 30176.80
1044.299, 30168.54
1044.781, 30171.55
1045.263, 30197.69
1045.745, 30212.03
1046.228, 30208.93
1046.710, 30182.21
1047.192, 30117.86
1047.674, 30030.70
1048.156, 29971.81
1048.638, 29951.52
1049.120, 29909.33
1049.602, 29825.27
1050.085, 29790.39
1050.567, 29844.56
1051.049, 29911.83
1051.531, 29934.56
1052.013, 29925.74
1052.495, 29919.06
1052.977, 29916.62
1053.459, 29872.29
1053.942, 29770.59
1054.424, 29751.73
1054.906, 29865.98
1055.388, 29945.10
1055.870, 29864.50
1056.352, 29718.42
1056.834, 29690.52
1057.316, 29768.15
1057.798, 29802.79
1058.281, 29794.58
1058.763, 29736.00
1059.245, 29625.42
1059.727, 29569.68
1060.209, 29635.27
1060.691, 29729.92
1061.173, 29714.49
1061.655, 29620.57
1062.137, 29560.92
1062.620, 29529.63
1063.102, 29491.34
1063.584, 29443.60
1064.066, 29411.09
1064.548, 29404.89
1065.030, 29403.90
1065.512, 29382.69
1065.994, 29353.97
1066.477, 29339.29
1066.959, 29338.08
1067.441, 29357.43
1067.923, 29389.44
1068.405, 29406.00
1068.887, 29397.45
1069.369, 29374.29
1069.851, 29337.86
1070.333, 29302.14
1070.816, 29283.63
1071.298, 29276.89
1071.780, 29279.08
1072.262, 29284.88
1072.744, 29290.42
1073.226, 29291.08
1073.708, 29263.03
1074.190, 29167.05
1074.672, 29097.63
1075.155, 29168.12
1075.637, 29256.34
1076.119, 29245.26
1076.601, 29175.52
1077.083, 29112.33
1077.565, 29065.41
1078.047, 29013.19
1078.530, 28931.89
1079.012, 28892.11
1079.494, 28969.43
1079.976, 29041.73
1080.458, 29031.56
1080.940, 28986.33
1081.422, 28956.34
1081.904, 28938.82
1082.386, 28906.48
1082.869, 28845.64
1083.351, 28806.10
1083.833, 28819.63
1084.315, 28823.29
1084.797, 28777.70
1085.279, 28736.58
1085.761, 28758.93
1086.243, 28808.24
1086.725, 28797.68
1087.208, 28712.20
1087.690, 28681.37
1088.172, 28748.10
1088.654, 28779.87
1089.136, 28743.54
1089.618, 28695.37
1090.100, 28659.29
1090.582, 28635.00
1091.065, 28623.16
1091.547, 28622.71
1092.029, 28626.24
1092.511, 28636.78
1092.993, 28625.62
1093.475, 28583.71
1093.957, 28559.35
1094.439, 28572.77
1094.922, 28607.68
1095.404, 28654.79
1095.886, 28696.50
1096.368, 28671.50
1096.850, 28588.35
1097.332, 28518.92
1097.814, 28467.62
1098.296, 28441.01
1098.778, 28439.64
1099.260, 28443.71
1099.743, 28440.04
1100.225, 28430.45
1100.707, 28409.26
1101.189, 28388.40
1101.671, 28417.64
1102.153, 28462.77
1102.635, 28415.32
1103.117, 28284.13
1103.600, 28179.83
1104.082, 28152.63
1104.564, 28165.25
1105.046, 28229.33
1105.528, 28274.22
1106.010, 28192.34
1106.492, 28078.47
1106.974, 28065.21
1107.457, 28117.98
1107.939, 28122.74
1108.421, 28055.93
1108.903, 28015.08
1109.385, 28075.65
1109.867, 28125.45
1110.349, 28115.89
1110.831, 28081.69
1111.313, 28010.63
1111.796, 27951.05
1112.278, 27993.66
1112.760, 28120.74
1113.242, 28162.53
1113.724, 28022.69
1114.206, 27946.58
1114.688, 28005.88
1115.170, 28054.77
1115.652, 28055.47
1116.135, 28028.51
1116.617, 27976.55
1117.099, 27917.59
1117.581, 27905.26
1118.063, 27953.46
1118.545, 27927.04
1119.027, 27796.17
1119.509, 27723.34
1119.992, 27745.14
1120.474, 27799.12
1120.956, 27858.69
1121.438, 27897.94
1121.920, 27868.04
1122.402, 27796.18
1122.884, 27807.24
1123.366, 27889.05
1123.849, 27956.29
1124.331, 27999.59
1124.813, 28020.07
1125.295, 28019.43
1125.777, 28016.69
1126.259, 28026.04
1126.741, 28044.58
1127.223, 28091.96
1127.705, 28129.97
1128.188, 28069.90
1128.670, 27956.96
1129.152, 27902.62
1129.634, 27908.02
1130.116, 27883.85
1130.598, 27787.90
1131.080, 27692.94
1131.562, 27656.71
1132.044, 27626.31
1132.527, 27569.82
1133.009, 27498.74
1133.491, 27415.78
1133.973, 27331.79
1134.455, 27262.34
1134.937, 27210.23
1135.419, 27177.86
1135.901, 27186.80
1136.384, 27183.38
1136.866, 27130.05
1137.348, 27098.78
1137.830, 27140.25
1138.312, 27198.29
1138.794, 27221.40
1139.276, 27209.80
1139.758, 27157.66
1140.240, 27039.97
1140.723, 26992.32
1141.205, 27035.75
1141.687, 27046.38
1142.169, 26985.96
1142.651, 26939.87
1143.133, 26967.79
1143.615, 27024.60
1144.097, 27040.35
1144.579, 27022.32
1145.062, 26994.74
1145.544, 26960.54
1146.026, 26933.42
1146.508, 26914.00
1146.990, 26892.79
1147.472, 26867.37
1147.954, 26856.47
1148.436, 26886.10
1148.919, 26909.63
1149.401, 26856.43
1149.883, 26782.03
1150.365, 26757.54
1150.847, 26762.17
1151.329, 26756.01
1151.811, 26735.42
1152.293, 26718.09
1152.776, 26713.21
1153.258, 26695.81
1153.740, 26631.36
1154.222, 26585.48
1154.704, 26594.32
1155.186, 26623.68
1155.668, 26668.88
1156.150, 26706.33
1156.632, 26687.79
1157.115, 26613.14
1157.597, 26549.36
1158.079, 26485.65
1158.561, 26463.28
1159.043, 26504.05
1159.525, 26530.31
1160.007, 26512.21
1160.489, 26478.47
1160.971, 26452.05
1161.454, 26432.86
1161.936, 26423.51
1162.418, 26422.21
1162.900, 26408.96
1163.382, 26386.02
1163.864, 26370.80
1164.346, 26365.04
1164.828, 26356.10
1165.311, 26338.46
1165.793, 26317.49
1166.275, 26299.17
1166.757, 26279.47
1167.239, 26246.48
1167.721, 26214.28
1168.203, 26198.36
1168.685, 26199.63
1169.167, 26228.08
1169.650, 26274.80
1170.132, 26295.74
1170.614, 26272.82
1171.096, 26231.44
1171.578, 26154.86
1172.060, 26095.09
1172.542, 26088.34
1173.024, 26092.10
1173.506, 26072.34
1173.989, 26039.11
1174.471, 26007.37
1174.953, 25976.93
1175.435, 25976.80
1175.917, 26020.74
1176.399, 26046.71
1176.881, 26049.99
1177.363, 26030.92
1177.846, 25985.55
1178.328, 25942.78
1178.810, 25928.13
1179.292, 25928.81
1179.774, 25926.32
1180.256, 25915.84
1180.738, 25865.98
1181.220, 25794.67
1181.703, 25765.78
1182.185, 25780.97
1182.667, 25806.12
1183.149, 25826.59
1183.631, 25827.93
1184.113, 25789.59
1184.595, 25743.56
1185.077, 25710.93
1185.559, 25685.42
1186.042, 25661.83
1186.524, 25641.47
1187.006, 25618.97
1187.488, 25600.79
1187.970, 25620.01
1188.452, 25707.82
1188.934, 25746.36
1189.416, 25704.52
1189.898, 25647.97
1190.381, 25564.53
1190.863, 25513.27
1191.345, 25538.67
1191.827, 25590.58
1192.309, 25607.26
1192.791, 25588.38
1193.273, 25513.52
1193.755, 25389.41
1194.238, 25346.71
1194.720, 25383.66
1195.202, 25419.59
1195.684, 25432.77
1196.166, 25423.13
1196.648, 25388.95
1197.130, 25356.88
1197.612, 25360.64
1198.094, 25376.00
1198.577, 25380.16
1199.059, 25374.38
1199.541, 25354.90
1200.023, 25329.21
1200.505, 25312.95
1200.987, 25306.88
1201.469, 25294.73
1201.951, 25281.77
1202.433, 25241.65
1202.916, 25120.88
1203.398, 25040.90
1203.880, 25067.62
1204.362, 25105.98
1204.844, 25093.42
1205.326, 25050.90
1205.808, 25018.20
1206.290, 24991.66
1206.773, 24912.89
1207.255, 24781.02
1207.737, 24708.62
1208.219, 24704.03
1208.701, 24733.17
1209.183, 24783.04
1209.665, 24828.33
1210.147, 24851.79
1210.630, 24860.39
1211.112, 24857.30
1211.594, 24848.79
1212.076, 24835.83
1212.558, 24827.46
1213.040, 24838.62
1213.522, 24863.85
1214.004, 24896.11
1214.486, 24931.02
1214.969, 24936.13
1215.451, 24861.65
1215.933, 24827.23
1216.415, 24897.82
1216.897, 24948.91
1217.379, 24940.47
1217.861, 24899.29
1218.343, 24827.51
1218.825, 24760.54
1219.308, 24779.60
1219.790, 24867.79
1220.272, 24820.39
1220.754, 24648.96
1221.236, 24614.17
1221.718, 24722.40
1222.200, 24784.86
1222.682, 24747.97
1223.165, 24693.75
1223.647, 24673.80
1224.129, 24676.31
1224.611, 24730.57
1225.093, 24757.76
1225.575, 24627.21
1226.057, 24462.56
1226.539, 24417.42
1227.021, 24454.25
1227.504, 24474.23
1227.986, 24463.42
1228.468, 24454.56
1228.950, 24462.25
1229.432, 24454.11
1229.914, 24409.78
1230.396, 24391.11
1230.878, 24424.02
1231.360, 24464.49
1231.843, 24487.16
1232.325, 24489.89
1232.807, 24465.45
1233.289, 24421.01
1233.771, 24383.55
1234.253, 24351.31
1234.735, 24323.22
1235.217, 24292.98
1235.700, 24225.98
1236.182, 24127.49
1236.664, 24069.36
1237.146, 24092.31
1237.628, 24121.81
1238.110, 24122.09
1238.592, 24094.71
1239.074, 24002.91
1239.557, 23921.95
1240.039, 23923.16
1240.521, 23966.48
1241.003, 23994.61
1241.485, 24006.65
1241.967, 24005.71
1242.449, 23989.55
1242.931, 23967.49
1243.413, 23935.85
1243.896, 23926.75
1244.378, 23948.13
1244.860, 23961.31
1245.342, 23947.21
1245.824, 23927.39
1246.306, 23927.86
1246.788, 23926.35
1247.270, 23875.05
1247.752, 23808.87
1248.235, 23781.20
1248.717, 23776.96
1249.199, 23767.54
1249.681, 23751.23
1250.163, 23741.34
1250.645, 23742.22
1251.127, 23724.92
1251.609, 23657.21
1252.092, 23611.36
1252.574, 23623.45
1253.056, 23612.88
1253.538, 23529.72
1254.020, 23464.32
1254.502, 23501.18
1254.984, 23577.97
1255.466, 23562.22
1255.948, 23477.37
1256.431, 23440.60
1256.913, 23447.84
1257.395, 23504.79
1257.877, 23587.96
1258.359, 23605.86
1258.841, 23546.79
1259.323, 23503.33
1259.805, 23529.30
1260.287, 23546.76
1260.770, 23495.55
1261.252, 23438.80
1261.734, 23398.72
1262.216, 23376.97
1262.698, 23394.41
1263.180, 23415.40
1263.662, 23384.90
1264.144, 23317.15
1264.627, 23283.71
1265.109, 23286.79
1265.591, 23310.98
1266.073, 23356.86
1266.555, 23404.39
1267.037, 23447.37
1267.519, 23446.25
1268.001, 23384.82
1268.484, 23313.73
1268.966, 23276.88
1269.448, 23248.65
1269.930, 23188.96
1270.412, 23138.62
1270.894, 23148.26
1271.376, 23180.73
1271.858, 23190.11
1272.340, 23179.79
1272.823, 23172.63
##END=



