##NAMES=Silver
##RRUFFID=R070463
##IDEAL CHEMISTRY=Ag
##LOCALITY=Tsumeb mine, Tsumeb, Otavi District, Oshikoto, Namibia
##OWNER=RRUFF
##SOURCE=Michael Scott
##DESCRIPTION=Silvery gold metallic blebs, associated with rhobohedral calcite and green prismatic malachite. 
##STATUS=The identification of this mineral is confirmed by single-crystal X-ray diffraction and chemical analysis.
##URL=rruff.info/R070463
##MEASURED CHEMISTRY=Ag ; (Hg trace)
139.7201, 20975.85
140.2022, 21848.66
140.6843, 22861.84
141.1664, 23907.19
141.6486, 24950.03
142.1307, 26043.38
142.6128, 27237.03
143.0949, 28534.27
143.5770, 29878.07
144.0591, 31255.74
144.5413, 32654.04
145.0234, 34017.95
145.5055, 35323.21
145.9876, 36598.77
146.4697, 37895.28
146.9518, 39233.66
147.4340, 40511.11
147.9161, 41622.47
148.3982, 42610.29
148.8803, 43544.69
149.3624, 44525.52
149.8445, 45446.14
150.3266, 46115.61
150.8088, 46488.70
151.2909, 46739.13
151.7730, 46966.54
152.2551, 47169.10
152.7372, 47334.21
153.2193, 47420.27
153.7015, 47469.61
154.1836, 47576.14
154.6657, 47752.91
155.1478, 47962.59
155.6299, 48164.20
156.1120, 48376.01
156.5942, 48642.30
157.0763, 48978.48
157.5584, 49383.53
158.0405, 49863.24
158.5226, 50435.20
159.0047, 51058.16
159.4869, 51708.30
159.9690, 52385.72
160.4511, 53098.18
160.9332, 53834.62
161.4153, 54478.31
161.8974, 54872.63
162.3796, 55273.98
162.8617, 55656.49
163.3438, 56026.80
163.8259, 56377.06
164.3080, 56699.11
164.7901, 56996.85
165.2723, 57268.48
165.7544, 57478.21
166.2365, 57635.43
166.7186, 57726.47
167.2007, 57742.05
167.6828, 57704.02
168.1650, 57645.83
168.6471, 57584.84
169.1292, 57525.31
169.6113, 57489.01
170.0934, 57538.96
170.5755, 57541.00
171.0577, 57425.89
171.5398, 57241.04
172.0219, 57070.35
172.5040, 56970.70
172.9861, 56935.26
173.4682, 56900.08
173.9504, 56852.66
174.4325, 56816.25
174.9146, 56775.04
175.3967, 56747.10
175.8788, 56766.95
176.3609, 56864.39
176.8431, 57029.57
177.3252, 57166.30
177.8073, 57245.28
178.2894, 57317.20
178.7715, 57382.84
179.2536, 57448.28
179.7358, 57522.75
180.2179, 57613.20
180.7000, 57717.53
181.1821, 57815.87
181.6642, 57891.72
182.1463, 57978.06
182.6285, 58101.42
183.1106, 58237.97
183.5927, 58349.93
184.0748, 58412.59
184.5569, 58430.15
185.0390, 58430.59
185.5212, 58398.99
186.0033, 58365.87
186.4854, 58329.62
186.9675, 58296.48
187.4496, 58280.02
187.9317, 58291.38
188.4139, 58321.38
188.8960, 58308.20
189.3781, 58182.67
189.8602, 58085.85
190.3423, 58053.90
190.8244, 58060.80
191.3066, 58069.11
191.7887, 58058.22
192.2708, 58029.14
192.7529, 57987.96
193.2350, 57930.83
193.7171, 57863.75
194.1993, 57764.27
194.6814, 57660.92
195.1635, 57593.92
195.6456, 57585.02
196.1277, 57621.51
196.6098, 57653.71
197.0920, 57725.81
197.5741, 57741.97
198.0562, 57652.55
198.5383, 57516.00
199.0204, 57407.44
199.5025, 57361.78
199.9847, 57358.30
200.4668, 57334.69
200.9489, 57285.42
201.4310, 57220.64
201.9131, 57117.40
202.3952, 57008.07
202.8774, 56928.29
203.3595, 56892.38
203.8416, 56891.27
204.3237, 56905.07
204.8058, 56986.36
205.2879, 57013.06
205.7701, 56952.01
206.2522, 56850.38
206.7343, 56744.16
207.2164, 56647.17
207.6985, 56566.91
208.1806, 56519.23
208.6628, 56536.02
209.1449, 56537.26
209.6270, 56514.40
210.1091, 56479.82
210.5912, 56438.84
211.0733, 56394.05
211.5555, 56353.86
212.0376, 56331.21
212.5197, 56331.34
213.0018, 56340.64
213.4839, 56365.53
213.9660, 56394.43
214.4482, 56425.24
214.9303, 56454.69
215.4124, 56470.42
215.8945, 56453.52
216.3766, 56385.54
216.8587, 56337.92
217.3409, 56323.42
217.8230, 56317.46
218.3051, 56314.49
218.7872, 56308.93
219.2693, 56285.93
219.7514, 56227.55
220.2336, 56124.96
220.7157, 56028.78
221.1978, 55940.46
221.6799, 55856.78
222.1620, 55771.47
222.6441, 55687.73
223.1263, 55619.76
223.6084, 55583.21
224.0905, 55582.68
224.5726, 55564.25
225.0547, 55533.97
225.5368, 55484.48
226.0190, 55402.71
226.5011, 55298.35
226.9832, 55191.69
227.4653, 55096.80
227.9474, 55013.97
228.4296, 54947.99
228.9117, 54917.96
229.3938, 54883.31
229.8759, 54838.42
230.3580, 54780.66
230.8401, 54700.00
231.3223, 54585.56
231.8044, 54450.86
232.2865, 54375.83
232.7686, 54442.69
233.2507, 54477.46
233.7328, 54436.85
234.2150, 54354.70
234.6971, 54273.58
235.1792, 54212.77
235.6613, 54171.29
236.1434, 54148.66
236.6255, 54183.11
237.1077, 54184.70
237.5898, 54149.31
238.0719, 54079.59
238.5540, 53961.59
239.0361, 53794.43
239.5182, 53617.41
240.0004, 53513.32
240.4825, 53572.09
240.9646, 53551.23
241.4467, 53401.59
241.9288, 53212.21
242.4109, 53042.12
242.8931, 52907.59
243.3752, 52799.02
243.8573, 52710.19
244.3394, 52665.74
244.8215, 52573.55
245.3036, 52406.32
245.7858, 52222.10
246.2679, 52051.57
246.7500, 51896.77
247.2321, 51743.45
247.7142, 51573.92
248.1963, 51381.81
248.6785, 51214.04
249.1606, 51086.98
249.6427, 50967.70
250.1248, 50857.66
250.6069, 50746.16
251.0890, 50607.63
251.5712, 50411.20
252.0533, 50163.34
252.5354, 49979.11
253.0175, 49928.36
253.4996, 49865.57
253.9817, 49738.04
254.4639, 49576.78
254.9460, 49440.17
255.4281, 49369.53
255.9102, 49332.62
256.3923, 49205.73
256.8744, 48912.02
257.3565, 48653.04
257.8387, 48503.34
258.3208, 48393.36
258.8029, 48242.98
259.2850, 48017.11
259.7671, 47766.64
260.2492, 47599.89
260.7314, 47562.34
261.2135, 47480.02
261.6956, 47296.33
262.1777, 47072.92
262.6598, 46840.03
263.1419, 46606.90
263.6241, 46388.94
264.1062, 46213.82
264.5883, 46090.29
265.0704, 45941.94
265.5525, 45743.94
266.0346, 45529.70
266.5168, 45312.57
266.9989, 45095.30
267.4810, 44880.18
267.9631, 44669.06
268.4452, 44461.93
268.9273, 44257.11
269.4095, 44048.77
269.8916, 43850.03
270.3737, 43671.59
270.8558, 43506.59
271.3379, 43338.26
271.8200, 43154.82
272.3022, 42959.93
272.7843, 42762.00
273.2664, 42555.71
273.7485, 42356.71
274.2306, 42169.58
274.7127, 41993.96
275.1949, 41834.56
275.6770, 41703.76
276.1591, 41577.04
276.6412, 41435.11
277.1233, 41279.25
277.6054, 41076.90
278.0876, 40770.91
278.5697, 40431.75
279.0518, 40166.56
279.5339, 40003.97
280.0160, 39861.55
280.4981, 39680.51
280.9803, 39468.36
281.4624, 39264.16
281.9445, 39088.72
282.4266, 38914.36
282.9087, 38689.84
283.3908, 38405.41
283.8730, 38154.20
284.3551, 37997.03
284.8372, 37890.78
285.3193, 37757.30
285.8014, 37581.00
286.2835, 37385.84
286.7657, 37194.59
287.2478, 37007.74
287.7299, 36825.05
288.2120, 36653.00
288.6941, 36482.25
289.1762, 36301.54
289.6584, 36111.20
290.1405, 35924.29
290.6226, 35750.21
291.1047, 35588.68
291.5868, 35425.08
292.0689, 35264.12
292.5511, 35097.16
293.0332, 34907.04
293.5153, 34706.46
293.9974, 34526.80
294.4795, 34386.36
294.9616, 34275.13
295.4438, 34161.67
295.9259, 34048.10
296.4080, 33928.98
296.8901, 33805.72
297.3722, 33675.51
297.8543, 33532.29
298.3365, 33374.33
298.8186, 33212.71
299.3007, 33066.39
299.7828, 32945.01
300.2649, 32817.86
300.7470, 32683.60
301.2292, 32545.41
301.7113, 32394.46
302.1934, 32237.62
302.6755, 32103.13
303.1576, 32024.94
303.6397, 32011.04
304.1219, 31952.23
304.6040, 31813.94
305.0861, 31666.74
305.5682, 31526.98
306.0503, 31394.66
306.5324, 31262.26
307.0146, 31124.72
307.4967, 30987.29
307.9788, 30869.59
308.4609, 30794.60
308.9430, 30702.11
309.4251, 30579.52
309.9073, 30437.72
310.3894, 30282.57
310.8715, 30116.28
311.3536, 29950.51
311.8357, 29801.13
312.3178, 29666.94
312.8000, 29552.34
313.2821, 29483.30
313.7642, 29414.51
314.2463, 29315.42
314.7284, 29187.34
315.2105, 29059.21
315.6927, 28957.61
316.1748, 28876.99
316.6569, 28783.99
317.1390, 28677.12
317.6211, 28556.80
318.1032, 28405.31
318.5854, 28241.73
319.0675, 28109.72
319.5496, 28050.23
320.0317, 28013.64
320.5138, 27918.46
320.9959, 27759.25
321.4781, 27624.06
321.9602, 27574.72
322.4423, 27569.79
322.9244, 27527.95
323.4065, 27433.80
323.8886, 27327.25
324.3708, 27240.06
324.8529, 27159.64
325.3350, 27039.57
325.8171, 26851.93
326.2992, 26655.68
326.7813, 26552.03
327.2635, 26553.87
327.7456, 26539.49
328.2277, 26493.53
328.7098, 26418.17
329.1919, 26304.68
329.6740, 26155.79
330.1562, 26003.06
330.6383, 25872.99
331.1204, 25766.62
331.6025, 25666.03
332.0846, 25574.27
332.5667, 25484.62
333.0489, 25393.80
333.5310, 25302.94
334.0131, 25213.26
334.4952, 25125.92
334.9773, 25040.53
335.4594, 24954.65
335.9416, 24857.25
336.4237, 24775.30
336.9058, 24722.50
337.3879, 24677.81
337.8700, 24626.92
338.3521, 24564.60
338.8343, 24488.16
339.3164, 24384.82
339.7985, 24236.84
340.2806, 24139.95
340.7627, 24153.55
341.2448, 24164.09
341.7270, 24118.08
342.2091, 24031.60
342.6912, 23952.88
343.1733, 23916.31
343.6554, 23910.27
344.1375, 23894.39
344.6197, 23871.27
345.1018, 23831.13
345.5839, 23747.67
346.0660, 23656.52
346.5481, 23602.33
347.0302, 23604.18
347.5124, 23610.45
347.9945, 23553.50
348.4766, 23436.99
348.9587, 23348.86
349.4408, 23323.00
349.9229, 23316.60
350.4051, 23286.11
350.8872, 23232.96
351.3693, 23177.54
351.8514, 23121.44
352.3335, 23070.89
352.8156, 23041.70
353.2978, 23037.31
353.7799, 23027.48
354.2620, 22985.08
354.7441, 22915.87
355.2262, 22864.87
355.7083, 22838.56
356.1905, 22824.15
356.6726, 22827.03
357.1547, 22836.72
357.6368, 22825.13
358.1189, 22777.62
358.6010, 22712.85
359.0832, 22670.66
359.5653, 22670.33
360.0474, 22658.97
360.5295, 22628.12
361.0116, 22589.84
361.4937, 22548.33
361.9759, 22507.29
362.4580, 22477.76
362.9401, 22473.67
363.4222, 22498.24
363.9043, 22501.35
364.3864, 22468.15
364.8686, 22428.82
365.3507, 22385.06
365.8328, 22341.43
366.3149, 22301.69
366.7970, 22267.10
367.2791, 22240.83
367.7613, 22234.40
368.2434, 22261.35
368.7255, 22269.49
369.2076, 22224.72
369.6897, 22175.58
370.1718, 22158.11
370.6540, 22173.95
371.1361, 22191.30
371.6182, 22183.43
372.1003, 22154.85
372.5824, 22127.84
373.0645, 22104.02
373.5467, 22081.22
374.0288, 22059.23
374.5109, 22037.30
374.9930, 22013.22
375.4751, 21981.52
375.9572, 21952.44
376.4394, 21936.58
376.9215, 21932.68
377.4036, 21935.33
377.8857, 21949.63
378.3678, 21959.83
378.8499, 21924.89
379.3321, 21825.85
379.8142, 21753.62
380.2963, 21743.83
380.7784, 21762.81
381.2605, 21784.12
381.7426, 21800.42
382.2248, 21796.67
382.7069, 21753.18
383.1890, 21666.34
383.6711, 21616.71
384.1532, 21637.12
384.6353, 21652.78
385.1175, 21632.46
385.5996, 21593.84
386.0817, 21568.15
386.5638, 21569.88
387.0459, 21583.33
387.5280, 21573.64
388.0102, 21526.24
388.4923, 21489.81
388.9744, 21478.59
389.4565, 21469.19
389.9386, 21440.78
390.4207, 21397.69
390.9029, 21366.29
391.3850, 21372.67
391.8671, 21409.04
392.3492, 21435.53
392.8313, 21445.09
393.3134, 21460.32
393.7956, 21515.86
394.2777, 21576.53
394.7598, 21590.70
395.2419, 21535.44
395.7240, 21459.54
396.2061, 21394.52
396.6883, 21341.70
397.1704, 21307.34
397.6525, 21297.00
398.1346, 21298.00
398.6167, 21294.34
399.0988, 21285.72
399.5810, 21283.47
400.0631, 21300.02
400.5452, 21316.05
401.0273, 21316.58
401.5094, 21301.63
401.9915, 21274.02
402.4737, 21231.07
402.9558, 21181.16
403.4379, 21164.24
403.9200, 21229.93
404.4021, 21265.74
404.8842, 21228.24
405.3664, 21174.47
405.8485, 21167.49
406.3306, 21216.76
406.8127, 21277.57
407.2948, 21296.14
407.7769, 21266.79
408.2591, 21241.92
408.7412, 21219.90
409.2233, 21204.61
409.7054, 21202.79
410.1875, 21207.44
410.6696, 21205.16
411.1518, 21186.87
411.6339, 21166.63
412.1160, 21170.60
412.5981, 21200.95
413.0802, 21224.62
413.5623, 21232.25
414.0445, 21228.93
414.5266, 21219.96
415.0087, 21205.32
415.4908, 21190.38
415.9729, 21175.45
416.4550, 21162.34
416.9372, 21155.95
417.4193, 21156.18
417.9014, 21152.25
418.3835, 21134.19
418.8656, 21106.08
419.3477, 21092.24
419.8299, 21088.61
420.3120, 21101.44
420.7941, 21155.94
421.2762, 21218.08
421.7583, 21239.87
422.2404, 21210.62
422.7226, 21163.96
423.2047, 21142.42
423.6868, 21153.35
424.1689, 21153.68
424.6510, 21125.31
425.1331, 21105.45
425.6153, 21109.42
426.0974, 21130.52
426.5795, 21158.43
427.0616, 21190.72
427.5437, 21218.12
428.0258, 21218.69
428.5080, 21186.24
428.9901, 21161.48
429.4722, 21148.17
429.9543, 21151.13
430.4364, 21183.63
430.9185, 21242.24
431.4007, 21285.26
431.8828, 21276.37
432.3649, 21246.29
432.8470, 21243.35
433.3291, 21269.67
433.8112, 21301.34
434.2934, 21326.83
434.7755, 21345.79
435.2576, 21357.95
435.7397, 21363.21
436.2218, 21363.07
436.7039, 21347.11
437.1861, 21331.41
437.6682, 21343.17
438.1503, 21383.91
438.6324, 21420.42
439.1145, 21415.06
439.5966, 21363.84
440.0788, 21331.52
440.5609, 21330.49
441.0430, 21336.21
441.5251, 21339.08
442.0072, 21346.89
442.4893, 21378.90
442.9715, 21443.83
443.4536, 21505.20
443.9357, 21497.10
444.4178, 21411.88
444.8999, 21371.23
445.3820, 21423.03
445.8642, 21483.30
446.3463, 21489.20
446.8284, 21452.97
447.3105, 21416.21
447.7926, 21394.73
448.2747, 21379.33
448.7569, 21360.71
449.2390, 21339.43
449.7211, 21319.00
450.2032, 21301.42
450.6853, 21284.56
451.1674, 21262.25
451.6496, 21226.30
452.1317, 21208.71
452.6138, 21236.27
453.0959, 21265.82
453.5780, 21258.96
454.0602, 21220.62
454.5423, 21182.46
455.0244, 21166.98
455.5065, 21169.11
455.9886, 21164.16
456.4707, 21155.39
456.9529, 21132.93
457.4349, 21080.41
457.9171, 21025.45
458.3992, 20991.25
458.8813, 20980.01
459.3634, 20975.69
459.8455, 20968.00
460.3276, 20956.24
460.8098, 20935.88
461.2919, 20903.43
461.7740, 20873.60
462.2561, 20864.68
462.7382, 20860.56
463.2203, 20827.60
463.7025, 20743.47
464.1846, 20671.26
464.6667, 20659.98
465.1488, 20677.12
465.6309, 20663.47
466.1130, 20607.35
466.5952, 20544.70
467.0773, 20513.17
467.5594, 20515.79
468.0415, 20495.25
468.5236, 20431.14
469.0057, 20371.26
469.4879, 20338.74
469.9700, 20314.59
470.4521, 20265.54
470.9342, 20182.22
471.4163, 20099.81
471.8984, 20082.17
472.3806, 20141.74
472.8627, 20141.25
473.3448, 20024.61
473.8269, 19911.62
474.3090, 19878.28
474.7911, 19891.35
475.2733, 19881.56
475.7554, 19815.88
476.2375, 19736.29
476.7196, 19685.58
477.2017, 19657.38
477.6838, 19621.03
478.1660, 19563.99
478.6481, 19508.56
479.1302, 19486.76
479.6123, 19506.69
480.0944, 19502.47
480.5765, 19458.77
481.0587, 19404.29
481.5408, 19340.11
482.0229, 19278.43
482.5050, 19247.21
482.9871, 19259.34
483.4692, 19287.03
483.9514, 19273.71
484.4335, 19200.57
484.9156, 19142.35
485.3977, 19106.55
485.8798, 19082.59
486.3619, 19077.06
486.8441, 19080.27
487.3262, 19068.68
487.8083, 19023.42
488.2904, 18968.82
488.7725, 18946.13
489.2546, 18953.50
489.7368, 18947.48
490.2189, 18909.80
490.7010, 18862.24
491.1831, 18832.25
491.6652, 18819.52
492.1473, 18811.85
492.6295, 18825.10
493.1116, 18827.66
493.5937, 18786.84
494.0758, 18716.45
494.5579, 18652.84
495.0400, 18613.65
495.5222, 18594.90
496.0043, 18591.90
496.4864, 18623.10
496.9685, 18628.49
497.4506, 18578.82
497.9327, 18531.14
498.4149, 18522.47
498.8970, 18539.65
499.3791, 18542.11
499.8612, 18499.62
500.3433, 18444.67
500.8254, 18437.77
501.3076, 18479.24
501.7897, 18511.93
502.2718, 18518.56
502.7539, 18511.57
503.2360, 18501.16
503.7181, 18487.29
504.2003, 18483.15
504.6824, 18508.56
505.1645, 18529.50
505.6466, 18510.81
506.1287, 18466.57
506.6108, 18440.59
507.0930, 18454.14
507.5751, 18481.97
508.0572, 18471.85
508.5393, 18398.55
509.0214, 18349.21
509.5035, 18327.75
509.9857, 18325.01
510.4678, 18355.77
510.9499, 18400.76
511.4320, 18419.41
511.9141, 18386.96
512.3962, 18333.07
512.8784, 18304.16
513.3605, 18299.00
513.8426, 18283.71
514.3247, 18245.31
514.8068, 18204.05
515.2889, 18185.06
515.7711, 18185.64
516.2532, 18180.41
516.7353, 18161.85
517.2174, 18140.73
517.6995, 18122.02
518.1816, 18105.69
518.6638, 18093.41
519.1459, 18085.64
519.6280, 18074.05
520.1101, 18041.88
520.5922, 17977.67
521.0743, 17944.14
521.5565, 17967.66
522.0386, 17995.60
522.5207, 18012.54
523.0028, 18022.78
523.4849, 18035.93
523.9670, 18056.62
524.4492, 18073.11
524.9313, 18066.39
525.4134, 18042.37
525.8955, 18036.67
526.3776, 18061.78
526.8597, 18077.09
527.3419, 18039.55
527.8240, 17957.56
528.3061, 17910.46
528.7882, 17922.03
529.2703, 17939.51
529.7524, 17954.77
530.2346, 17961.91
530.7167, 17947.49
531.1988, 17912.11
531.6809, 17879.17
532.1630, 17875.51
532.6451, 17899.35
533.1273, 17903.72
533.6094, 17877.90
534.0915, 17850.50
534.5736, 17828.97
535.0557, 17810.54
535.5378, 17787.30
536.0200, 17757.55
536.5021, 17746.70
536.9842, 17804.16
537.4663, 17879.57
537.9484, 17865.33
538.4305, 17757.48
538.9127, 17662.98
539.3948, 17646.49
539.8769, 17683.56
540.3590, 17703.63
540.8411, 17701.73
541.3232, 17691.11
541.8054, 17663.97
542.2875, 17635.44
542.7696, 17612.36
543.2517, 17597.58
543.7338, 17596.63
544.2159, 17616.31
544.6981, 17643.67
545.1802, 17646.65
545.6623, 17621.51
546.1444, 17594.51
546.6265, 17566.30
547.1086, 17543.40
547.5908, 17533.79
548.0729, 17535.08
548.5550, 17533.92
549.0371, 17528.70
549.5192, 17517.70
550.0013, 17488.49
550.4835, 17453.14
550.9656, 17446.18
551.4477, 17479.03
551.9298, 17520.81
552.4119, 17529.62
552.8940, 17499.05
553.3762, 17478.11
553.8583, 17472.55
554.3404, 17470.74
554.8225, 17478.52
555.3046, 17484.66
555.7867, 17469.16
556.2689, 17426.20
556.7510, 17390.46
557.2331, 17410.01
557.7152, 17461.95
558.1973, 17466.51
558.6794, 17412.10
559.1616, 17358.94
559.6437, 17346.54
560.1258, 17360.80
560.6079, 17353.83
561.0900, 17312.33
561.5721, 17278.12
562.0543, 17261.31
562.5364, 17251.86
563.0185, 17243.46
563.5006, 17234.81
563.9827, 17224.25
564.4648, 17209.20
564.9470, 17195.92
565.4291, 17207.15
565.9112, 17253.18
566.3933, 17271.74
566.8754, 17228.56
567.3575, 17179.12
567.8397, 17176.96
568.3218, 17208.74
568.8039, 17216.41
569.2860, 17160.44
569.7681, 17096.99
570.2502, 17057.66
570.7324, 17041.26
571.2145, 17055.23
571.6966, 17100.24
572.1787, 17141.13
572.6608, 17132.59
573.1429, 17070.93
573.6251, 17050.62
574.1072, 17118.40
574.5893, 17167.75
575.0714, 17166.61
575.5535, 17142.79
576.0356, 17122.13
576.5178, 17109.73
576.9999, 17099.55
577.4820, 17088.36
577.9641, 17076.04
578.4462, 17064.95
578.9283, 17054.84
579.4105, 17031.94
579.8926, 16983.59
580.3747, 16930.13
580.8568, 16912.94
581.3389, 16954.65
581.8210, 16979.58
582.3032, 16978.14
582.7853, 16969.28
583.2674, 16957.53
583.7495, 16946.96
584.2316, 16944.31
584.7137, 16952.75
585.1959, 16964.09
585.6780, 16971.55
586.1601, 16974.25
586.6422, 16952.30
587.1243, 16892.41
587.6064, 16837.90
588.0886, 16815.20
588.5707, 16820.02
589.0528, 16837.86
589.5349, 16884.40
590.0170, 16914.97
590.4991, 16905.98
590.9813, 16880.98
591.4634, 16856.89
591.9455, 16839.12
592.4276, 16835.51
592.9097, 16853.59
593.3918, 16882.93
593.8740, 16893.18
594.3561, 16880.14
594.8382, 16862.71
595.3203, 16834.01
595.8024, 16811.82
596.2845, 16808.25
596.7667, 16820.45
597.2488, 16839.91
597.7309, 16877.35
598.2130, 16904.91
598.6951, 16898.51
599.1772, 16870.43
599.6594, 16836.19
600.1415, 16801.38
600.6236, 16785.17
601.1057, 16811.21
601.5878, 16872.26
602.0699, 16890.24
602.5521, 16831.90
603.0342, 16786.90
603.5163, 16775.28
603.9984, 16778.43
604.4805, 16784.58
604.9626, 16792.44
605.4448, 16803.28
605.9269, 16828.73
606.4090, 16849.38
606.8911, 16839.68
607.3732, 16805.04
607.8553, 16762.31
608.3375, 16715.45
608.8196, 16676.29
609.3017, 16660.88
609.7838, 16672.08
610.2659, 16673.75
610.7480, 16658.27
611.2302, 16642.36
611.7123, 16633.58
612.1944, 16623.55
612.6765, 16596.83
613.1586, 16554.29
613.6407, 16524.48
614.1229, 16535.95
614.6050, 16571.05
615.0871, 16602.16
615.5692, 16628.28
616.0513, 16638.49
616.5334, 16626.84
617.0156, 16601.29
617.4977, 16569.13
617.9798, 16521.53
618.4619, 16508.41
618.9440, 16560.92
619.4261, 16609.01
619.9083, 16634.17
620.3904, 16636.96
620.8725, 16610.59
621.3546, 16556.51
621.8367, 16509.01
622.3188, 16505.59
622.8010, 16533.52
623.2831, 16556.50
623.7652, 16573.91
624.2473, 16582.94
624.7294, 16579.37
625.2115, 16571.44
625.6937, 16576.71
626.1758, 16607.96
626.6579, 16607.53
627.1400, 16540.30
627.6221, 16477.59
628.1042, 16453.94
628.5864, 16457.18
629.0685, 16470.61
629.5506, 16488.01
630.0327, 16499.89
630.5148, 16493.98
630.9969, 16473.59
631.4791, 16449.54
631.9612, 16419.80
632.4433, 16406.53
632.9254, 16427.40
633.4075, 16463.68
633.8896, 16479.71
634.3718, 16470.40
634.8539, 16460.59
635.3360, 16459.53
635.8181, 16450.56
636.3002, 16408.54
636.7823, 16357.00
637.2645, 16340.03
637.7466, 16371.99
638.2287, 16416.34
638.7108, 16433.10
639.1929, 16425.56
639.6750, 16407.38
640.1572, 16374.88
640.6393, 16355.56
641.1214, 16367.69
641.6035, 16395.68
642.0856, 16409.29
642.5677, 16404.54
643.0499, 16401.81
643.5320, 16404.28
644.0141, 16407.70
644.4962, 16409.84
644.9783, 16411.40
645.4604, 16417.02
645.9426, 16427.71
646.4247, 16430.67
646.9068, 16402.88
647.3889, 16353.17
647.8710, 16330.47
648.3531, 16341.12
648.8353, 16343.21
649.3174, 16311.80
649.7995, 16267.32
650.2816, 16243.75
650.7637, 16240.77
651.2458, 16260.14
651.7280, 16345.96
652.2101, 16407.83
652.6922, 16382.59
653.1743, 16311.32
653.6564, 16254.42
654.1385, 16231.42
654.6207, 16233.71
655.1028, 16268.40
655.5849, 16321.76
656.0670, 16340.47
656.5491, 16322.27
657.0313, 16286.46
657.5134, 16231.47
657.9955, 16178.44
658.4776, 16164.56
658.9597, 16203.68
659.4418, 16225.89
659.9240, 16205.93
660.4061, 16198.03
660.8882, 16243.67
661.3703, 16303.69
661.8524, 16326.74
662.3345, 16302.11
662.8167, 16259.05
663.2988, 16209.46
663.7809, 16163.50
664.2630, 16148.21
664.7451, 16162.68
665.2272, 16187.36
665.7094, 16219.26
666.1915, 16245.37
666.6736, 16244.76
667.1557, 16211.16
667.6378, 16201.16
668.1199, 16237.40
668.6021, 16267.29
669.0842, 16283.47
669.5663, 16283.73
670.0484, 16254.60
670.5305, 16201.44
671.0126, 16165.26
671.4948, 16187.00
671.9769, 16230.21
672.4590, 16235.94
672.9411, 16214.12
673.4232, 16217.54
673.9053, 16263.88
674.3875, 16306.29
674.8696, 16293.54
675.3517, 16227.90
675.8338, 16175.15
676.3159, 16136.45
676.7980, 16110.10
677.2802, 16101.59
677.7623, 16099.99
678.2444, 16097.40
678.7265, 16094.22
679.2086, 16096.02
679.6907, 16114.40
680.1729, 16126.43
680.6550, 16099.05
681.1371, 16053.10
681.6192, 16037.55
682.1013, 16058.84
682.5834, 16080.08
683.0656, 16070.67
683.5477, 16039.87
684.0298, 16027.78
684.5119, 16044.48
684.9940, 16050.36
685.4761, 16027.83
685.9583, 16006.88
686.4404, 16004.76
686.9225, 16017.55
687.4046, 16037.92
687.8867, 16074.89
688.3688, 16096.72
688.8510, 16074.80
689.3331, 16038.15
689.8152, 16020.13
690.2973, 16020.08
690.7794, 16020.27
691.2615, 16011.04
691.7437, 15997.41
692.2258, 15985.28
692.7079, 15974.13
693.1900, 15984.48
693.6721, 16032.34
694.1542, 16063.96
694.6364, 16038.48
695.1185, 15983.86
695.6006, 15959.87
696.0827, 15976.59
696.5648, 15988.43
697.0469, 15975.64
697.5291, 15968.34
698.0112, 15998.72
698.4933, 16042.88
698.9754, 16056.69
699.4575, 16027.20
699.9396, 15983.96
700.4218, 15950.46
700.9039, 15927.46
701.3860, 15922.50
701.8681, 15935.60
702.3502, 15941.59
702.8323, 15929.73
703.3145, 15911.36
703.7966, 15902.52
704.2787, 15905.39
704.7608, 15897.67
705.2429, 15866.62
705.7250, 15841.61
706.2072, 15827.71
706.6893, 15823.18
707.1714, 15830.30
707.6535, 15846.46
708.1356, 15859.63
708.6177, 15864.60
709.0999, 15862.54
709.5820, 15849.89
710.0641, 15831.81
710.5462, 15820.76
711.0283, 15818.94
711.5104, 15821.47
711.9926, 15825.31
712.4747, 15828.87
712.9568, 15824.39
713.4389, 15806.50
713.9210, 15797.44
714.4031, 15799.83
714.8853, 15811.68
715.3674, 15839.48
715.8495, 15874.39
716.3316, 15896.55
716.8137, 15902.27
717.2958, 15898.16
717.7780, 15872.32
718.2601, 15849.13
718.7422, 15858.50
719.2243, 15888.56
719.7064, 15907.07
720.1885, 15900.13
720.6707, 15875.61
721.1528, 15831.07
721.6349, 15774.45
722.1170, 15762.66
722.5991, 15803.47
723.0812, 15830.82
723.5634, 15813.42
724.0455, 15773.94
724.5276, 15743.60
725.0097, 15720.16
725.4918, 15719.00
725.9739, 15768.52
726.4561, 15803.45
726.9382, 15803.25
727.4203, 15782.32
727.9024, 15745.45
728.3845, 15699.16
728.8666, 15669.15
729.3488, 15674.24
729.8309, 15696.56
730.3130, 15725.85
730.7951, 15756.47
731.2772, 15776.75
731.7593, 15783.97
732.2415, 15776.70
732.7236, 15752.44
733.2057, 15715.75
733.6878, 15679.19
734.1699, 15636.82
734.6520, 15622.63
735.1342, 15662.85
735.6163, 15696.90
736.0984, 15667.35
736.5805, 15607.52
737.0626, 15592.54
737.5447, 15643.26
738.0269, 15692.37
738.5090, 15739.63
738.9911, 15765.25
739.4732, 15737.39
739.9553, 15682.82
740.4374, 15650.77
740.9196, 15657.29
741.4017, 15677.41
741.8838, 15692.63
742.3659, 15701.83
742.8480, 15698.81
743.3301, 15684.93
743.8123, 15676.37
744.2944, 15679.37
744.7765, 15685.58
745.2586, 15685.91
745.7407, 15680.47
746.2228, 15672.48
746.7050, 15673.98
747.1871, 15652.18
747.6692, 15552.64
748.1513, 15470.53
748.6334, 15496.01
749.1155, 15597.77
749.5977, 15653.95
750.0798, 15607.61
750.5619, 15557.97
751.0440, 15554.18
751.5261, 15573.13
752.0082, 15599.64
752.4904, 15625.12
752.9725, 15631.79
753.4546, 15609.87
753.9367, 15581.24
754.4188, 15581.77
754.9009, 15605.17
755.3831, 15607.13
755.8652, 15583.04
756.3473, 15568.72
756.8294, 15583.16
757.3115, 15607.30
757.7936, 15610.22
758.2758, 15585.65
758.7579, 15581.54
759.2400, 15632.85
759.7221, 15660.09
760.2042, 15628.43
760.6863, 15580.78
761.1685, 15549.64
761.6506, 15538.19
762.1327, 15543.90
762.6148, 15587.77
763.0969, 15619.07
763.5790, 15583.60
764.0612, 15524.61
764.5433, 15509.87
765.0254, 15537.52
765.5075, 15555.45
765.9896, 15531.79
766.4717, 15492.68
766.9539, 15487.33
767.4360, 15512.59
767.9181, 15522.30
768.4002, 15510.92
768.8823, 15500.67
769.3644, 15503.56
769.8466, 15511.80
770.3287, 15510.61
770.8108, 15495.34
771.2929, 15492.92
771.7750, 15512.30
772.2571, 15532.82
772.7393, 15567.41
773.2214, 15588.25
773.7035, 15536.40
774.1856, 15430.49
774.6677, 15405.21
775.1498, 15605.34
775.6320, 15790.40
776.1141, 15756.80
776.5962, 15622.48
777.0783, 15552.85
777.5604, 15558.48
778.0425, 15564.16
778.5247, 15524.72
779.0068, 15467.24
779.4889, 15437.60
779.9710, 15433.09
780.4531, 15429.62
780.9352, 15426.23
781.4174, 15418.62
781.8995, 15401.99
782.3816, 15386.18
782.8637, 15388.83
783.3458, 15414.79
783.8279, 15430.41
784.3101, 15426.13
784.7922, 15424.09
785.2743, 15438.09
785.7564, 15449.14
786.2385, 15431.55
786.7206, 15391.82
787.2028, 15372.62
787.6849, 15404.75
788.1670, 15435.81
788.6491, 15436.22
789.1312, 15421.58
789.6133, 15406.56
790.0955, 15393.50
790.5776, 15379.94
791.0597, 15364.24
791.5418, 15353.78
792.0239, 15363.10
792.5060, 15385.82
792.9882, 15398.70
793.4703, 15400.92
793.9524, 15398.99
794.4345, 15395.07
794.9166, 15391.45
795.3987, 15392.81
795.8809, 15399.40
796.3630, 15388.37
796.8451, 15343.95
797.3272, 15314.50
797.8093, 15320.03
798.2914, 15333.85
798.7736, 15335.61
799.2557, 15328.16
799.7378, 15321.63
800.2199, 15312.89
800.7020, 15312.59
801.1841, 15327.92
801.6663, 15348.76
802.1484, 15380.45
802.6305, 15408.34
803.1126, 15397.96
803.5947, 15338.62
804.0768, 15284.00
804.5590, 15292.40
805.0411, 15325.29
805.5232, 15315.71
806.0053, 15276.64
806.4874, 15262.60
806.9695, 15287.08
807.4517, 15311.83
807.9338, 15298.12
808.4159, 15260.49
808.8980, 15256.74
809.3801, 15292.08
809.8622, 15320.65
810.3444, 15341.23
810.8265, 15338.58
811.3086, 15289.73
811.7907, 15218.80
812.2728, 15186.68
812.7549, 15205.93
813.2371, 15234.86
813.7192, 15304.15
814.2013, 15346.56
814.6834, 15315.36
815.1655, 15259.42
815.6476, 15231.45
816.1298, 15236.83
816.6119, 15254.86
817.0940, 15303.49
817.5761, 15333.07
818.0582, 15290.18
818.5403, 15223.12
819.0225, 15190.61
819.5046, 15196.12
819.9867, 15220.23
820.4688, 15255.18
820.9509, 15284.98
821.4330, 15282.19
821.9152, 15257.96
822.3973, 15250.30
822.8794, 15259.18
823.3615, 15251.59
823.8436, 15212.58
824.3257, 15168.58
824.8079, 15153.49
825.2900, 15165.67
825.7721, 15176.62
826.2542, 15188.06
826.7363, 15191.00
827.2184, 15172.66
827.7006, 15162.23
828.1826, 15191.72
828.6647, 15248.21
829.1469, 15277.62
829.6290, 15276.82
830.1111, 15256.12
830.5932, 15188.36
831.0753, 15130.61
831.5574, 15106.63
832.0396, 15111.70
832.5217, 15149.35
833.0038, 15217.25
833.4859, 15263.37
833.9680, 15239.22
834.4501, 15207.84
834.9323, 15227.71
835.4144, 15265.91
835.8965, 15272.47
836.3786, 15244.07
836.8607, 15203.96
837.3428, 15163.45
837.8250, 15131.15
838.3071, 15122.40
838.7892, 15131.90
839.2713, 15146.17
839.7534, 15163.07
840.2355, 15168.72
840.7177, 15156.85
841.1998, 15136.30
841.6819, 15116.07
842.1640, 15097.17
842.6461, 15095.62
843.1282, 15113.88
843.6104, 15142.33
844.0925, 15191.34
844.5746, 15225.94
845.0567, 15208.43
845.5388, 15154.65
846.0209, 15129.56
846.5031, 15153.76
846.9852, 15168.78
847.4673, 15165.51
847.9494, 15162.90
848.4315, 15171.01
848.9136, 15182.98
849.3958, 15193.15
849.8779, 15200.26
850.3600, 15193.71
850.8421, 15148.09
851.3242, 15113.63
851.8063, 15135.02
852.2885, 15169.89
852.7706, 15167.18
853.2527, 15131.23
853.7348, 15095.27
854.2169, 15073.91
854.6990, 15065.15
855.1812, 15075.47
855.6633, 15092.77
856.1454, 15090.13
856.6275, 15073.74
857.1096, 15075.20
857.5917, 15103.55
858.0739, 15132.00
858.5560, 15133.54
859.0381, 15114.78
859.5202, 15093.17
860.0023, 15068.84
860.4844, 15062.40
860.9666, 15079.88
861.4487, 15096.00
861.9308, 15093.55
862.4129, 15081.69
862.8950, 15081.08
863.3771, 15094.73
863.8593, 15104.22
864.3414, 15111.14
864.8235, 15109.99
865.3056, 15091.36
865.7877, 15070.77
866.2698, 15071.38
866.7520, 15088.22
867.2341, 15080.62
867.7162, 15010.56
868.1983, 14969.36
868.6804, 14994.71
869.1625, 15026.41
869.6447, 15026.69
870.1268, 15008.40
870.6089, 14994.70
871.0910, 14990.10
871.5731, 14996.39
872.0552, 15031.96
872.5374, 15060.14
873.0195, 15052.75
873.5016, 15024.20
873.9837, 14981.56
874.4658, 14936.64
874.9479, 14922.51
875.4301, 14962.80
875.9122, 15015.51
876.3943, 15039.78
876.8764, 15042.16
877.3585, 15023.43
877.8406, 14992.93
878.3228, 14985.92
878.8049, 15013.59
879.2870, 15048.87
879.7691, 15066.29
880.2512, 15067.11
880.7333, 15050.31
881.2155, 15017.39
881.6976, 14991.91
882.1797, 14977.70
882.6618, 14976.14
883.1439, 14991.53
883.6260, 15010.54
884.1082, 15001.72
884.5903, 14958.92
885.0724, 14946.08
885.5545, 14977.52
886.0366, 14997.01
886.5187, 14983.26
887.0009, 14957.70
887.4830, 14934.80
887.9651, 14916.96
888.4472, 14923.11
888.9293, 14979.44
889.4114, 15017.04
889.8936, 15037.30
890.3757, 15036.21
890.8578, 14991.50
891.3399, 14935.11
891.8220, 14916.08
892.3041, 14939.81
892.7863, 14949.81
893.2684, 14928.21
893.7505, 14899.28
894.2326, 14859.15
894.7147, 14826.20
895.1968, 14822.49
895.6790, 14839.06
896.1611, 14849.91
896.6432, 14845.94
897.1253, 14840.71
897.6074, 14838.31
898.0895, 14841.62
898.5717, 14863.94
899.0538, 14889.26
899.5359, 14881.36
900.0180, 14842.10
900.5001, 14820.03
900.9822, 14852.38
901.4644, 14898.98
901.9465, 14914.17
902.4286, 14907.70
902.9107, 14894.11
903.3928, 14877.21
903.8749, 14865.60
904.3571, 14862.22
904.8392, 14858.85
905.3213, 14846.22
905.8034, 14827.08
906.2855, 14803.97
906.7676, 14779.54
907.2498, 14780.58
907.7319, 14811.55
908.2140, 14835.22
908.6961, 14828.05
909.1782, 14804.27
909.6603, 14788.47
910.1425, 14780.64
910.6246, 14784.54
911.1067, 14805.95
911.5888, 14797.95
912.0709, 14733.63
912.5530, 14681.12
913.0352, 14712.29
913.5173, 14799.15
913.9994, 14819.75
914.4815, 14736.46
914.9636, 14699.33
915.4457, 14738.51
915.9279, 14776.08
916.4100, 14780.91
916.8921, 14767.76
917.3742, 14750.16
917.8563, 14727.99
918.3384, 14719.85
918.8206, 14743.97
919.3027, 14755.31
919.7848, 14737.62
920.2669, 14719.69
920.7490, 14725.84
921.2311, 14739.29
921.7133, 14727.56
922.1954, 14684.22
922.6775, 14647.51
923.1596, 14606.11
923.6417, 14596.29
924.1238, 14662.92
924.6060, 14740.71
925.0881, 14771.83
925.5702, 14763.27
926.0523, 14750.04
926.5344, 14741.71
927.0165, 14728.84
927.4987, 14706.79
927.9808, 14678.96
928.4629, 14623.63
928.9450, 14577.69
929.4271, 14611.04
929.9092, 14712.18
930.3914, 14780.17
930.8735, 14752.74
931.3556, 14711.21
931.8377, 14728.45
932.3198, 14760.68
932.8019, 14752.39
933.2841, 14716.15
933.7662, 14685.33
934.2483, 14670.28
934.7304, 14669.46
935.2125, 14689.18
935.6946, 14710.98
936.1768, 14711.34
936.6589, 14695.88
937.1410, 14665.70
937.6231, 14629.59
938.1052, 14622.57
938.5873, 14658.28
939.0695, 14694.00
939.5516, 14677.36
940.0337, 14631.25
940.5158, 14608.89
940.9979, 14604.80
941.4800, 14594.66
941.9622, 14575.84
942.4443, 14565.24
942.9264, 14572.49
943.4085, 14593.12
943.8906, 14628.64
944.3727, 14673.06
944.8549, 14686.33
945.3370, 14669.93
945.8191, 14650.38
946.3012, 14633.39
946.7833, 14629.63
947.2654, 14650.42
947.7476, 14678.75
948.2297, 14668.16
948.7118, 14617.47
949.1939, 14600.55
949.6760, 14622.35
950.1581, 14651.93
950.6403, 14683.10
951.1224, 14702.24
951.6045, 14694.25
952.0866, 14665.57
952.5687, 14640.25
953.0508, 14618.12
953.5330, 14602.51
954.0151, 14597.01
954.4972, 14584.64
954.9793, 14551.00
955.4614, 14523.72
955.9435, 14540.30
956.4257, 14595.08
956.9078, 14626.73
957.3899, 14632.50
957.8720, 14620.79
958.3541, 14580.10
958.8362, 14545.00
959.3184, 14530.13
959.8005, 14532.70
960.2826, 14553.44
960.7647, 14593.84
961.2468, 14614.41
961.7289, 14603.19
962.2111, 14595.36
962.6932, 14604.12
963.1753, 14604.81
963.6574, 14567.12
964.1395, 14520.48
964.6216, 14527.51
965.1038, 14604.69
965.5859, 14635.20
966.0680, 14583.20
966.5501, 14534.45
967.0322, 14490.30
967.5143, 14464.65
967.9965, 14483.20
968.4786, 14522.46
968.9607, 14526.11
969.4428, 14478.23
969.9249, 14452.96
970.4070, 14484.50
970.8892, 14500.23
971.3713, 14457.85
971.8534, 14413.03
972.3355, 14413.21
972.8176, 14446.16
973.2997, 14477.35
973.7819, 14510.41
974.2640, 14517.23
974.7461, 14456.17
975.2282, 14415.01
975.7103, 14452.12
976.1924, 14502.89
976.6746, 14499.69
977.1567, 14456.13
977.6388, 14434.17
978.1209, 14452.37
978.6030, 14470.51
979.0851, 14485.71
979.5673, 14490.93
980.0494, 14480.33
980.5315, 14459.99
981.0136, 14425.21
981.4957, 14385.28
981.9778, 14379.13
982.4600, 14438.30
982.9421, 14477.23
983.4242, 14450.09
983.9063, 14417.22
984.3884, 14418.09
984.8705, 14429.44
985.3527, 14416.21
985.8348, 14381.56
986.3169, 14363.68
986.7990, 14386.49
987.2811, 14399.90
987.7632, 14370.87
988.2454, 14341.48
988.7275, 14341.04
989.2096, 14356.07
989.6917, 14371.94
990.1738, 14384.17
990.6559, 14383.43
991.1381, 14355.88
991.6202, 14335.63
992.1023, 14344.79
992.5844, 14358.73
993.0665, 14359.27
993.5486, 14353.30
994.0308, 14355.46
994.5129, 14365.28
994.9950, 14362.30
995.4771, 14319.97
995.9592, 14296.81
996.4413, 14338.13
996.9235, 14390.12
997.4056, 14412.42
997.8877, 14416.09
998.3698, 14425.95
998.8519, 14443.05
999.3340, 14440.94
999.8162, 14393.31
1000.298, 14350.29
1000.780, 14337.92
1001.263, 14337.35
1001.745, 14338.32
1002.227, 14338.48
1002.709, 14334.47
1003.191, 14326.83
1003.673, 14323.95
1004.155, 14328.69
1004.637, 14339.76
1005.119, 14363.34
1005.602, 14386.21
1006.084, 14399.14
1006.566, 14403.31
1007.048, 14401.27
1007.530, 14393.77
1008.012, 14382.34
1008.494, 14360.75
1008.976, 14345.66
1009.458, 14345.44
1009.941, 14354.11
1010.423, 14379.83
1010.905, 14405.12
1011.387, 14396.12
1011.869, 14352.52
1012.351, 14323.88
1012.833, 14339.60
1013.315, 14357.91
1013.798, 14362.15
1014.280, 14361.42
1014.762, 14360.73
1015.244, 14360.62
1015.726, 14359.33
1016.208, 14357.46
1016.690, 14362.57
1017.172, 14390.24
1017.654, 14404.65
1018.137, 14382.54
1018.619, 14352.27
1019.101, 14327.77
1019.583, 14311.10
1020.065, 14304.63
1020.547, 14307.64
1021.029, 14312.58
1021.511, 14315.90
1021.994, 14322.96
1022.476, 14346.20
1022.958, 14362.32
1023.440, 14344.22
1023.922, 14317.30
1024.404, 14318.88
1024.886, 14349.06
1025.368, 14376.06
1025.850, 14403.90
1026.333, 14408.18
1026.815, 14354.81
1027.297, 14308.27
1027.779, 14312.40
1028.261, 14337.40
1028.743, 14348.83
1029.225, 14344.39
1029.707, 14332.39
1030.190, 14313.96
1030.672, 14288.36
1031.154, 14235.02
1031.636, 14198.71
1032.118, 14211.19
1032.600, 14243.02
1033.082, 14263.71
1033.564, 14273.54
1034.047, 14284.84
1034.529, 14310.49
1035.011, 14314.86
1035.493, 14273.77
1035.975, 14237.90
1036.457, 14220.56
1036.939, 14220.23
1037.421, 14247.52
1037.903, 14292.86
1038.385, 14309.34
1038.868, 14285.62
1039.350, 14257.77
1039.832, 14204.87
1040.314, 14179.29
1040.796, 14219.92
1041.278, 14266.90
1041.760, 14267.81
1042.242, 14235.23
1042.725, 14210.67
1043.207, 14193.33
1043.689, 14186.65
1044.171, 14192.52
1044.653, 14205.44
1045.135, 14225.71
1045.617, 14251.61
1046.099, 14292.52
1046.582, 14329.23
1047.064, 14307.48
1047.546, 14214.62
1048.028, 14152.88
1048.510, 14129.00
1048.992, 14114.33
1049.474, 14103.64
1049.956, 14100.50
1050.438, 14110.20
1050.921, 14123.24
1051.403, 14119.13
1051.885, 14097.93
1052.367, 14099.99
1052.849, 14129.72
1053.331, 14153.57
1053.813, 14167.75
1054.295, 14161.69
1054.777, 14125.55
1055.260, 14083.22
1055.742, 14070.18
1056.224, 14082.27
1056.706, 14100.29
1057.188, 14123.57
1057.670, 14113.57
1058.152, 14065.42
1058.634, 14035.20
1059.117, 14048.88
1059.599, 14079.00
1060.081, 14096.55
1060.563, 14103.82
1061.045, 14107.30
1061.527, 14106.43
1062.009, 14093.69
1062.491, 14071.66
1062.974, 14063.23
1063.456, 14075.72
1063.938, 14094.69
1064.420, 14110.35
1064.902, 14117.81
1065.384, 14102.03
1065.866, 14074.38
1066.348, 14061.94
1066.830, 14062.81
1067.313, 14066.11
1067.795, 14068.50
1068.277, 14069.00
1068.759, 14065.82
1069.241, 14065.87
1069.723, 14087.70
1070.205, 14109.00
1070.687, 14089.08
1071.169, 14048.86
1071.652, 14031.24
1072.134, 14038.07
1072.616, 14043.46
1073.098, 14035.72
1073.580, 14025.13
1074.062, 14016.81
1074.544, 14011.14
1075.026, 14008.36
1075.508, 14008.44
1075.991, 14013.75
1076.473, 14021.47
1076.955, 14026.17
1077.437, 14026.79
1077.919, 14016.72
1078.401, 13976.56
1078.883, 13946.86
1079.365, 13957.74
1079.848, 13975.87
1080.330, 13970.53
1080.812, 13954.29
1081.294, 13956.03
1081.776, 13979.04
1082.258, 13988.37
1082.740, 13962.63
1083.222, 13945.49
1083.704, 13955.06
1084.187, 13962.68
1084.669, 13948.69
1085.151, 13928.58
1085.633, 13922.54
1086.115, 13928.70
1086.597, 13931.00
1087.079, 13923.17
1087.561, 13925.15
1088.043, 13945.39
1088.526, 13959.14
1089.008, 13961.60
1089.490, 13946.99
1089.972, 13897.92
1090.454, 13839.09
1090.936, 13851.57
1091.418, 13950.50
1091.900, 13992.05
1092.383, 13965.48
1092.865, 13945.62
1093.347, 13948.82
1093.829, 13961.67
1094.311, 13977.87
1094.793, 13989.31
1095.275, 13980.42
1095.757, 13955.89
1096.240, 13939.69
1096.722, 13931.34
1097.204, 13927.98
1097.686, 13927.95
1098.168, 13916.88
1098.650, 13888.88
1099.132, 13858.63
1099.614, 13833.57
1100.096, 13828.47
1100.578, 13899.63
1101.061, 13998.27
1101.543, 13999.42
1102.025, 13929.10
1102.507, 13893.83
1102.989, 13915.08
1103.471, 13933.33
1103.953, 13910.36
1104.435, 13880.95
1104.918, 13877.75
1105.400, 13882.42
1105.882, 13876.96
1106.364, 13865.92
1106.846, 13859.69
1107.328, 13855.92
1107.810, 13837.87
1108.292, 13795.52
1108.775, 13775.27
1109.257, 13820.66
1109.739, 13862.36
1110.221, 13867.05
1110.703, 13855.95
1111.185, 13840.76
1111.667, 13825.68
1112.149, 13812.01
1112.631, 13799.15
1113.114, 13807.97
1113.596, 13877.50
1114.078, 13909.59
1114.560, 13871.87
1115.042, 13829.57
1115.524, 13798.39
1116.006, 13787.52
1116.488, 13816.75
1116.970, 13872.52
1117.453, 13889.23
1117.935, 13855.35
1118.417, 13831.95
1118.899, 13819.47
1119.381, 13816.73
1119.863, 13822.62
1120.345, 13847.94
1120.827, 13907.11
1121.310, 13962.97
1121.792, 13939.11
1122.274, 13854.29
1122.756, 13818.98
1123.238, 13826.45
1123.720, 13838.81
1124.202, 13848.37
1124.684, 13842.16
1125.167, 13815.53
1125.649, 13785.12
1126.131, 13761.93
1126.613, 13752.21
1127.095, 13781.57
1127.577, 13819.89
1128.059, 13814.66
1128.541, 13777.92
1129.023, 13736.65
1129.505, 13701.36
1129.988, 13684.51
1130.470, 13693.50
1130.952, 13715.62
1131.434, 13755.99
1131.916, 13791.99
1132.398, 13811.68
1132.880, 13815.89
1133.362, 13795.96
1133.845, 13764.02
1134.327, 13746.23
1134.809, 13745.93
1135.291, 13762.75
1135.773, 13836.28
1136.255, 13866.87
1136.737, 13791.97
1137.219, 13728.97
1137.702, 13743.35
1138.184, 13781.49
1138.666, 13780.61
1139.148, 13747.58
1139.630, 13717.34
1140.112, 13684.62
1140.594, 13687.70
1141.076, 13736.36
1141.558, 13769.53
1142.041, 13770.78
1142.523, 13752.54
1143.005, 13719.42
1143.487, 13691.28
1143.969, 13707.83
1144.451, 13754.97
1144.933, 13781.81
1145.415, 13789.96
1145.897, 13786.14
1146.380, 13770.34
1146.862, 13726.75
1147.344, 13654.56
1147.826, 13612.78
1148.308, 13660.36
1148.790, 13728.89
1149.272, 13763.64
1149.754, 13766.96
1150.237, 13717.48
1150.719, 13652.07
1151.201, 13629.70
1151.683, 13648.50
1152.165, 13665.52
1152.647, 13667.37
1153.129, 13671.28
1153.611, 13686.85
1154.094, 13700.44
1154.576, 13706.73
1155.058, 13709.73
1155.540, 13710.71
1156.022, 13711.29
1156.504, 13717.28
1156.986, 13727.76
1157.468, 13716.87
1157.950, 13668.26
1158.432, 13650.31
1158.915, 13676.65
1159.397, 13696.37
1159.879, 13692.28
1160.361, 13678.26
1160.843, 13662.73
1161.325, 13653.86
1161.807, 13680.16
1162.289, 13728.90
1162.772, 13710.81
1163.254, 13644.12
1163.736, 13627.17
1164.218, 13664.10
1164.700, 13691.67
1165.182, 13685.29
1165.664, 13669.86
1166.146, 13663.55
1166.629, 13662.31
1167.111, 13661.15
1167.593, 13663.35
1168.075, 13677.34
1168.557, 13694.69
1169.039, 13703.27
1169.521, 13701.75
1170.003, 13691.55
1170.485, 13669.13
1170.968, 13656.76
1171.450, 13666.37
1171.932, 13679.08
1172.414, 13698.49
1172.896, 13708.70
1173.378, 13699.67
1173.860, 13675.12
1174.342, 13629.41
1174.824, 13570.16
1175.307, 13575.94
1175.789, 13670.83
1176.271, 13707.87
1176.753, 13674.66
1177.235, 13626.07
1177.717, 13574.05
1178.199, 13551.02
1178.681, 13582.56
1179.164, 13629.43
1179.646, 13630.95
1180.128, 13601.86
1180.610, 13570.18
1181.092, 13542.84
1181.574, 13544.33
1182.056, 13566.07
1182.538, 13575.20
1183.021, 13563.25
1183.503, 13543.39
1183.985, 13513.93
1184.467, 13502.63
1184.949, 13547.46
1185.431, 13593.54
1185.913, 13603.19
1186.395, 13593.78
1186.877, 13575.11
1187.359, 13556.53
1187.842, 13558.96
1188.324, 13587.61
1188.806, 13611.72
1189.288, 13645.38
1189.770, 13640.49
1190.252, 13573.15
1190.734, 13516.17
1191.216, 13499.29
1191.699, 13498.19
1192.181, 13490.08
1192.663, 13482.34
1193.145, 13496.47
1193.627, 13528.01
1194.109, 13549.13
1194.591, 13559.30
1195.073, 13553.57
1195.556, 13534.88
1196.038, 13520.99
1196.520, 13518.73
1197.002, 13518.00
1197.484, 13508.41
1197.966, 13502.14
1198.448, 13503.56
1198.930, 13520.26
1199.412, 13590.47
1199.895, 13659.28
1200.377, 13639.12
1200.859, 13550.33
1201.341, 13482.41
1201.823, 13447.98
1202.305, 13446.60
1202.787, 13524.90
1203.269, 13559.63
1203.751, 13507.79
1204.234, 13465.61
1204.716, 13480.36
1205.198, 13511.68
1205.680, 13518.21
1206.162, 13507.75
1206.644, 13502.84
1207.126, 13502.95
1207.608, 13500.14
1208.091, 13495.30
1208.573, 13496.40
1209.055, 13503.71
1209.537, 13510.48
1210.019, 13513.69
1210.501, 13513.01
1210.983, 13506.84
1211.465, 13498.98
1211.948, 13487.21
1212.430, 13481.01
1212.912, 13508.51
1213.394, 13534.64
1213.876, 13496.06
1214.358, 13412.52
1214.840, 13369.60
1215.322, 13389.15
1215.804, 13403.02
1216.286, 13402.06
1216.769, 13400.21
1217.251, 13397.03
1217.733, 13397.45
1218.215, 13404.25
1218.697, 13414.29
1219.179, 13425.59
1219.661, 13435.90
1220.143, 13442.42
1220.626, 13443.16
1221.108, 13411.76
1221.590, 13361.78
1222.072, 13364.21
1222.554, 13415.83
1223.036, 13452.85
1223.518, 13452.06
1224.000, 13430.78
1224.483, 13389.45
1224.965, 13356.45
1225.447, 13357.78
1225.929, 13370.14
1226.411, 13382.64
1226.893, 13391.02
1227.375, 13390.60
1227.857, 13383.22
1228.339, 13370.73
1228.822, 13351.24
1229.304, 13354.98
1229.786, 13398.82
1230.268, 13415.09
1230.750, 13390.38
1231.232, 13373.11
1231.714, 13380.37
1232.196, 13394.30
1232.678, 13402.07
1233.161, 13404.05
1233.643, 13397.91
1234.125, 13388.11
1234.607, 13390.39
1235.089, 13395.60
1235.571, 13377.89
1236.053, 13346.40
1236.535, 13334.01
1237.018, 13343.86
1237.500, 13342.58
1237.982, 13308.56
1238.464, 13287.14
1238.946, 13302.17
1239.428, 13325.05
1239.910, 13349.76
1240.392, 13372.97
1240.875, 13401.21
1241.357, 13418.31
1241.839, 13398.62
1242.321, 13349.53
1242.803, 13311.18
1243.285, 13283.66
1243.767, 13262.49
1244.249, 13248.04
1244.731, 13257.82
1245.214, 13291.24
1245.696, 13304.26
1246.178, 13276.69
1246.660, 13245.40
1247.142, 13238.26
1247.624, 13251.90
1248.106, 13284.85
1248.588, 13334.99
1249.070, 13446.09
1249.553, 13540.13
1250.035, 13485.95
1250.517, 13327.89
1250.999, 13226.77
1251.481, 13204.24
1251.963, 13223.56
1252.445, 13323.32
1252.927, 13362.46
1253.410, 13313.20
1253.892, 13256.40
1254.374, 13215.25
1254.856, 13202.59
1255.338, 13231.75
1255.820, 13275.56
1256.302, 13294.33
1256.784, 13291.72
1257.266, 13267.05
1257.749, 13232.71
1258.231, 13211.88
1258.713, 13203.98
1259.195, 13205.70
1259.677, 13212.93
1260.159, 13212.01
1260.641, 13197.08
1261.123, 13178.54
1261.605, 13146.32
1262.088, 13130.66
1262.570, 13158.15
1263.052, 13177.25
1263.534, 13156.96
1264.016, 13129.04
1264.498, 13128.94
1264.980, 13146.37
1265.462, 13146.14
##END=



