##NAMES=Silver
##RRUFFID=R070463
##IDEAL CHEMISTRY=Ag
##LOCALITY=Tsumeb mine, Tsumeb, Otavi District, Oshikoto, Namibia
##OWNER=RRUFF
##SOURCE=Michael Scott
##DESCRIPTION=Silvery gold metallic blebs, associated with rhobohedral calcite and green prismatic malachite. 
##STATUS=The identification of this mineral is confirmed by single-crystal X-ray diffraction and chemical analysis.
##URL=rruff.info/R070463
##MEASURED CHEMISTRY=Ag ; (Hg trace)
137.6203, 2082.522
138.1024, 2172.917
138.5845, 2270.910
139.0667, 2362.732
139.5488, 2441.608
140.0309, 2506.151
140.5130, 2566.404
140.9951, 2624.365
141.4772, 2679.273
141.9594, 2724.395
142.4415, 2755.532
142.9236, 2784.482
143.4057, 2821.520
143.8878, 2869.574
144.3699, 2918.446
144.8521, 2967.705
145.3342, 3018.085
145.8163, 3060.041
146.2984, 3089.974
146.7805, 3114.437
147.2626, 3140.623
147.7448, 3161.700
148.2269, 3193.583
148.7090, 3243.477
149.1911, 3322.452
149.6732, 3386.004
150.1554, 3425.274
150.6375, 3451.017
151.1196, 3480.635
151.6017, 3511.161
152.0838, 3548.646
152.5659, 3595.208
153.0481, 3656.291
153.5302, 3718.567
154.0123, 3786.352
154.4944, 3855.687
154.9765, 3914.929
155.4586, 3954.894
155.9408, 3989.875
156.4229, 4026.730
156.9050, 4051.158
157.3871, 4057.782
157.8692, 4066.886
158.3513, 4078.791
158.8335, 4081.149
159.3156, 4063.598
159.7977, 4040.135
160.2798, 4021.187
160.7619, 4009.987
161.2440, 4003.045
161.7262, 4003.910
162.2083, 4012.660
162.6904, 4011.803
163.1725, 3978.142
163.6546, 3936.736
164.1367, 3915.537
164.6189, 3942.579
165.1010, 3977.525
165.5831, 3997.550
166.0652, 3998.674
166.5473, 3998.953
167.0294, 4010.688
167.5116, 4027.627
167.9937, 4039.432
168.4758, 4028.411
168.9579, 4017.734
169.4400, 4029.414
169.9221, 4074.392
170.4043, 4117.806
170.8864, 4129.914
171.3685, 4119.712
171.8506, 4112.101
172.3327, 4127.154
172.8148, 4149.789
173.2970, 4162.542
173.7791, 4158.212
174.2612, 4149.466
174.7433, 4147.121
175.2254, 4150.610
175.7076, 4157.128
176.1897, 4173.800
176.6718, 4190.909
177.1539, 4191.216
177.6360, 4157.437
178.1181, 4116.456
178.6003, 4101.438
179.0824, 4111.681
179.5645, 4133.261
180.0466, 4166.253
180.5287, 4203.083
181.0108, 4223.767
181.4930, 4208.542
181.9751, 4178.006
182.4572, 4172.973
182.9393, 4194.748
183.4214, 4221.683
183.9035, 4233.046
184.3857, 4230.902
184.8678, 4223.417
185.3499, 4206.086
185.8320, 4185.674
186.3141, 4185.688
186.7962, 4209.782
187.2784, 4238.184
187.7605, 4241.304
188.2426, 4222.267
188.7247, 4207.555
189.2068, 4218.010
189.6889, 4246.019
190.1711, 4255.552
190.6532, 4240.839
191.1353, 4216.716
191.6174, 4208.446
192.0995, 4215.949
192.5816, 4225.295
193.0638, 4226.666
193.5459, 4221.399
194.0280, 4223.203
194.5101, 4235.514
194.9922, 4252.703
195.4743, 4263.864
195.9565, 4269.052
196.4386, 4267.815
196.9207, 4235.278
197.4028, 4262.309
197.8849, 4277.229
198.3671, 4280.689
198.8492, 4238.364
199.3313, 4255.161
199.8134, 4248.264
200.2955, 4240.396
200.7776, 4265.514
201.2598, 4229.848
201.7419, 4254.443
202.2240, 4254.982
202.7061, 4266.532
203.1882, 4254.241
203.6703, 4249.314
204.1525, 4268.234
204.6346, 4273.950
205.1167, 4258.915
205.5988, 4271.164
206.0809, 4234.666
206.5630, 4240.944
207.0452, 4265.678
207.5273, 4251.842
208.0094, 4264.527
208.4915, 4247.061
208.9736, 4284.588
209.4557, 4310.396
209.9379, 4308.767
210.4200, 4279.339
210.9021, 4262.283
211.3842, 4262.493
211.8663, 4268.205
212.3484, 4262.090
212.8306, 4238.510
213.3127, 4221.208
213.7948, 4219.328
214.2769, 4235.123
214.7590, 4246.182
215.2411, 4250.261
215.7233, 4251.865
216.2054, 4259.042
216.6875, 4275.682
217.1696, 4287.980
217.6517, 4291.018
218.1338, 4283.606
218.6160, 4269.915
219.0981, 4219.915
219.5802, 4249.240
220.0623, 4266.310
220.5444, 4271.775
221.0265, 4231.311
221.5087, 4249.824
221.9908, 4244.499
222.4729, 4238.057
222.9550, 4264.457
223.4371, 4229.928
223.9192, 4255.516
224.4014, 4256.903
224.8835, 4269.155
225.3656, 4257.424
225.8477, 4252.911
226.3298, 4272.100
226.8119, 4277.940
227.2941, 4262.885
227.7762, 4274.969
228.2583, 4238.162
228.7404, 4243.985
229.2225, 4268.121
229.7046, 4253.542
230.1868, 4265.338
230.6689, 4266.889
231.1510, 4222.393
231.6331, 4257.582
232.1152, 4258.103
232.5974, 4223.030
233.0795, 4255.049
233.5616, 4224.575
234.0437, 4202.703
234.5258, 4217.183
235.0079, 4260.383
235.4901, 4277.585
235.9722, 4251.532
236.4543, 4223.185
236.9364, 4218.799
237.4185, 4257.348
237.9006, 4278.847
238.3828, 4271.703
238.8649, 4242.604
239.3470, 4227.990
239.8291, 4236.522
240.3112, 4248.730
240.7933, 4251.679
241.2755, 4239.522
241.7576, 4230.255
242.2397, 4227.535
242.7218, 4229.661
243.2039, 4224.362
243.6860, 4206.245
244.1682, 4187.210
244.6503, 4175.190
245.1324, 4171.147
245.6145, 4172.660
246.0966, 4184.710
246.5787, 4204.497
247.0609, 4205.967
247.5430, 4178.435
248.0251, 4145.864
248.5072, 4126.186
248.9893, 4126.444
249.4714, 4124.675
249.9536, 4116.641
250.4357, 4103.354
250.9178, 4096.688
251.3999, 4101.620
251.8820, 4106.936
252.3641, 4103.430
252.8463, 4086.250
253.3284, 4071.759
253.8105, 4065.372
254.2926, 4065.395
254.7747, 4051.642
255.2568, 4014.402
255.7390, 3976.107
256.2211, 3955.368
256.7032, 3960.491
257.1853, 3963.562
257.6674, 3959.852
258.1495, 3950.127
258.6317, 3942.730
259.1138, 3938.421
259.5959, 3935.379
260.0780, 3932.523
260.5601, 3930.534
261.0422, 3926.256
261.5244, 3916.918
262.0065, 3903.688
262.4886, 3901.455
262.9707, 3916.739
263.4528, 3932.548
263.9349, 3933.202
264.4171, 3911.687
264.8992, 3896.030
265.3813, 3893.208
265.8634, 3900.905
266.3455, 3898.254
266.8276, 3881.447
267.3098, 3861.295
267.7919, 3847.105
268.2740, 3841.317
268.7561, 3832.918
269.2382, 3820.014
269.7203, 3803.104
270.2025, 3783.646
270.6846, 3759.050
271.1667, 3737.839
271.6488, 3728.716
272.1309, 3734.815
272.6130, 3738.531
273.0952, 3737.162
273.5773, 3731.089
274.0594, 3721.363
274.5415, 3706.793
275.0236, 3692.159
275.5057, 3682.931
275.9879, 3680.423
276.4700, 3673.368
276.9521, 3657.407
277.4342, 3636.035
277.9163, 3627.090
278.3984, 3634.452
278.8806, 3639.946
279.3627, 3621.759
279.8448, 3577.334
280.3269, 3554.900
280.8090, 3571.212
281.2911, 3611.432
281.7733, 3624.124
282.2554, 3605.947
282.7375, 3578.177
283.2196, 3552.042
283.7017, 3527.593
284.1838, 3518.132
284.6660, 3530.098
285.1481, 3554.906
285.6302, 3572.397
286.1123, 3582.749
286.5944, 3584.181
287.0765, 3574.274
287.5587, 3553.573
288.0408, 3525.101
288.5229, 3484.269
289.0050, 3441.859
289.4871, 3424.309
289.9692, 3431.588
290.4514, 3443.198
290.9335, 3447.510
291.4156, 3444.638
291.8977, 3434.321
292.3798, 3414.902
292.8619, 3390.529
293.3441, 3364.443
293.8262, 3337.163
294.3083, 3320.028
294.7904, 3329.714
295.2726, 3356.304
295.7547, 3369.417
296.2368, 3364.070
296.7189, 3345.496
297.2010, 3313.012
297.6831, 3270.100
298.1653, 3236.440
298.6474, 3232.947
299.1295, 3246.482
299.6116, 3247.765
300.0937, 3230.209
300.5758, 3209.282
301.0580, 3209.846
301.5401, 3224.883
302.0222, 3229.116
302.5043, 3192.498
302.9864, 3140.894
303.4685, 3117.067
303.9507, 3130.094
304.4328, 3149.624
304.9149, 3146.410
305.3970, 3126.615
305.8791, 3105.196
306.3612, 3084.685
306.8434, 3069.075
307.3255, 3066.041
307.8076, 3078.143
308.2897, 3089.572
308.7718, 3086.677
309.2539, 3074.247
309.7361, 3061.195
310.2182, 3047.855
310.7003, 3037.784
311.1824, 3035.953
311.6645, 3043.323
312.1466, 3049.813
312.6288, 3050.881
313.1109, 3046.917
313.5930, 3038.624
314.0751, 3021.960
314.5572, 3004.370
315.0393, 2989.523
315.5215, 2977.624
316.0036, 2968.732
316.4857, 2964.294
316.9678, 2962.361
317.4499, 2960.721
317.9320, 2958.656
318.4142, 2956.840
318.8963, 2956.227
319.3784, 2956.684
319.8605, 2955.515
320.3426, 2955.166
320.8247, 2951.068
321.3069, 2939.550
321.7890, 2904.155
322.2711, 2877.334
322.7532, 2872.797
323.2353, 2887.120
323.7174, 2894.073
324.1996, 2876.167
324.6817, 2857.226
325.1638, 2851.759
325.6459, 2886.972
326.1280, 2906.168
326.6101, 2895.359
327.0923, 2861.271
327.5744, 2834.688
328.0565, 2820.842
328.5386, 2811.888
329.0207, 2804.549
329.5028, 2801.827
329.9850, 2796.627
330.4671, 2786.215
330.9492, 2773.573
331.4313, 2766.424
331.9134, 2768.950
332.3955, 2772.174
332.8777, 2772.561
333.3598, 2768.828
333.8419, 2765.733
334.3240, 2764.493
334.8061, 2763.152
335.2882, 2758.016
335.7704, 2747.880
336.2525, 2735.911
336.7346, 2721.685
337.2167, 2704.011
337.6988, 2693.440
338.1809, 2692.861
338.6631, 2695.392
339.1452, 2691.050
339.6273, 2677.999
340.1094, 2665.134
340.5915, 2654.725
341.0736, 2646.679
341.5558, 2640.136
342.0379, 2635.035
342.5200, 2631.445
343.0021, 2630.406
343.4842, 2632.131
343.9663, 2631.686
344.4485, 2627.278
344.9306, 2619.949
345.4127, 2612.547
345.8948, 2604.789
346.3769, 2600.251
346.8590, 2604.470
347.3412, 2615.842
347.8233, 2624.986
348.3054, 2631.248
348.7875, 2632.854
349.2696, 2622.204
349.7517, 2600.618
350.2339, 2581.844
350.7160, 2578.140
351.1981, 2584.316
351.6802, 2589.489
352.1623, 2592.519
352.6444, 2592.247
353.1266, 2583.065
353.6087, 2568.098
354.0908, 2558.663
354.5729, 2567.960
355.0550, 2583.456
355.5371, 2589.799
356.0193, 2584.752
356.5014, 2574.474
356.9835, 2557.661
357.4656, 2539.753
357.9477, 2530.772
358.4298, 2549.488
358.9120, 2568.764
359.3941, 2565.035
359.8762, 2536.223
360.3583, 2511.435
360.8404, 2510.453
361.3225, 2520.478
361.8047, 2526.994
362.2868, 2514.989
362.7689, 2508.153
363.2510, 2523.595
363.7331, 2558.660
364.2152, 2579.558
364.6974, 2559.173
365.1795, 2530.368
365.6616, 2515.825
366.1437, 2540.475
366.6258, 2556.040
367.1079, 2547.732
367.5901, 2522.200
368.0722, 2507.420
368.5543, 2519.869
369.0364, 2532.849
369.5185, 2533.558
370.0006, 2506.810
370.4828, 2494.144
370.9649, 2505.286
371.4470, 2528.399
371.9291, 2539.897
372.4112, 2533.749
372.8933, 2524.210
373.3755, 2514.554
373.8576, 2503.139
374.3397, 2499.730
374.8218, 2507.709
375.3039, 2519.873
375.7861, 2527.739
376.2682, 2531.379
376.7503, 2529.402
377.2324, 2518.283
377.7145, 2499.718
378.1967, 2493.819
378.6788, 2504.092
379.1609, 2516.174
379.6430, 2516.291
380.1251, 2504.367
380.6072, 2490.173
381.0894, 2473.214
381.5715, 2457.539
382.0536, 2456.420
382.5357, 2470.088
383.0178, 2483.125
383.4999, 2481.800
383.9821, 2470.588
384.4642, 2465.978
384.9463, 2471.195
385.4284, 2480.154
385.9105, 2485.063
386.3926, 2486.793
386.8748, 2489.111
387.3569, 2496.815
387.8390, 2505.138
388.3211, 2506.164
388.8032, 2498.677
389.2853, 2491.023
389.7675, 2490.112
390.2496, 2493.458
390.7317, 2497.094
391.2138, 2501.002
391.6959, 2503.504
392.1780, 2502.704
392.6602, 2498.884
393.1423, 2495.592
393.6244, 2495.410
394.1065, 2496.117
394.5886, 2495.896
395.0707, 2495.094
395.5529, 2492.335
396.0350, 2481.676
396.5171, 2467.501
396.9992, 2464.690
397.4813, 2482.382
397.9634, 2492.661
398.4456, 2498.903
398.9277, 2501.325
399.4098, 2488.485
399.8919, 2495.353
400.3740, 2494.322
400.8561, 2492.968
401.3383, 2502.610
401.8204, 2491.990
402.3025, 2501.457
402.7846, 2502.905
403.2667, 2508.023
403.7488, 2505.195
404.2310, 2504.822
404.7131, 2512.397
405.1952, 2515.571
405.6773, 2511.828
406.1594, 2517.179
406.6415, 2506.282
407.1237, 2509.643
407.6058, 2519.156
408.0879, 2515.813
408.5700, 2521.310
409.0521, 2523.440
409.5342, 2510.269
410.0164, 2523.708
410.4985, 2525.639
410.9806, 2515.754
411.4627, 2528.281
411.9448, 2520.025
412.4269, 2519.187
412.9091, 2523.932
413.3912, 2522.858
413.8733, 2530.958
414.3554, 2530.220
414.8375, 2528.691
415.3196, 2530.609
415.8018, 2522.761
416.2839, 2531.702
416.7660, 2536.811
417.2481, 2523.030
417.7302, 2494.503
418.2123, 2476.542
418.6945, 2494.988
419.1766, 2525.387
419.6587, 2545.638
420.1408, 2548.779
420.6229, 2545.736
421.1050, 2534.265
421.5872, 2520.157
422.0693, 2515.561
422.5514, 2538.879
423.0335, 2559.712
423.5156, 2563.802
423.9977, 2544.755
424.4799, 2529.925
424.9620, 2521.909
425.4441, 2519.905
425.9262, 2523.207
426.4083, 2537.249
426.8904, 2549.348
427.3726, 2558.671
427.8547, 2564.939
428.3368, 2565.332
428.8189, 2557.695
429.3010, 2547.317
429.7831, 2533.841
430.2653, 2511.479
430.7474, 2513.587
431.2295, 2553.216
431.7116, 2607.420
432.1937, 2624.006
432.6758, 2598.594
433.1580, 2571.832
433.6401, 2564.012
434.1222, 2571.976
434.6043, 2572.567
435.0864, 2564.893
435.5685, 2554.849
436.0507, 2544.211
436.5328, 2535.402
437.0149, 2539.234
437.4970, 2567.376
437.9791, 2601.293
438.4612, 2613.104
438.9434, 2605.233
439.4255, 2592.938
439.9076, 2585.944
440.3897, 2580.376
440.8718, 2570.596
441.3539, 2553.016
441.8361, 2539.122
442.3182, 2538.315
442.8003, 2545.922
443.2824, 2553.639
443.7645, 2558.224
444.2466, 2562.413
444.7288, 2568.724
445.2109, 2577.703
445.6930, 2582.097
446.1751, 2576.512
446.6572, 2567.789
447.1393, 2561.262
447.6215, 2562.493
448.1036, 2559.597
448.5857, 2545.978
449.0678, 2526.777
449.5499, 2521.807
450.0320, 2542.306
450.5142, 2561.205
450.9963, 2564.778
451.4784, 2546.238
451.9605, 2541.183
452.4426, 2554.322
452.9247, 2574.387
453.4069, 2586.410
453.8890, 2589.503
454.3711, 2592.070
454.8532, 2598.815
455.3353, 2606.339
455.8174, 2598.248
456.2996, 2573.484
456.7817, 2548.466
457.2638, 2538.087
457.7459, 2538.023
458.2281, 2534.265
458.7102, 2522.617
459.1923, 2511.918
459.6744, 2515.534
460.1565, 2529.339
460.6386, 2541.118
461.1208, 2546.293
461.6029, 2546.154
462.0850, 2541.185
462.5671, 2531.447
463.0492, 2519.741
463.5313, 2503.532
464.0135, 2487.882
464.4956, 2477.992
464.9777, 2481.938
465.4598, 2484.298
465.9419, 2478.469
466.4240, 2467.138
466.9062, 2459.963
467.3883, 2462.359
467.8704, 2465.670
468.3525, 2466.214
468.8346, 2462.442
469.3167, 2459.736
469.7989, 2456.519
470.2810, 2455.314
470.7631, 2461.329
471.2452, 2481.913
471.7273, 2490.157
472.2094, 2475.627
472.6916, 2444.386
473.1737, 2427.564
473.6558, 2427.027
474.1379, 2432.611
474.6200, 2442.181
475.1021, 2454.422
475.5843, 2451.327
476.0664, 2427.224
476.5485, 2400.304
477.0306, 2401.196
477.5127, 2423.191
477.9948, 2439.835
478.4770, 2434.346
478.9591, 2419.218
479.4412, 2408.111
479.9233, 2401.234
480.4054, 2402.018
480.8875, 2422.575
481.3697, 2447.293
481.8518, 2458.923
482.3339, 2446.661
482.8160, 2433.578
483.2981, 2432.563
483.7802, 2437.984
484.2624, 2438.183
484.7445, 2425.067
485.2266, 2410.911
485.7087, 2398.754
486.1908, 2388.234
486.6729, 2383.745
487.1551, 2388.138
487.6372, 2396.359
488.1193, 2405.489
488.6014, 2418.941
489.0835, 2425.513
489.5656, 2422.318
490.0478, 2412.551
490.5299, 2404.297
491.0120, 2397.527
491.4941, 2392.495
491.9762, 2389.547
492.4583, 2388.623
492.9405, 2388.947
493.4226, 2390.916
493.9047, 2392.007
494.3868, 2387.124
494.8689, 2378.592
495.3510, 2375.203
495.8332, 2380.708
496.3153, 2390.237
496.7974, 2401.199
497.2795, 2411.887
497.7616, 2415.684
498.2437, 2400.513
498.7259, 2381.963
499.2080, 2374.305
499.6901, 2380.280
500.1722, 2387.910
500.6543, 2397.509
501.1364, 2403.421
501.6186, 2399.826
502.1007, 2367.195
502.5828, 2345.057
503.0649, 2348.892
503.5470, 2372.896
504.0291, 2385.624
504.5113, 2378.447
504.9934, 2369.274
505.4755, 2365.475
505.9576, 2369.198
506.4397, 2368.650
506.9218, 2360.963
507.4040, 2352.901
507.8861, 2354.411
508.3682, 2367.219
508.8503, 2374.372
509.3324, 2369.240
509.8145, 2358.208
510.2967, 2360.155
510.7788, 2374.655
511.2609, 2388.570
511.7430, 2394.162
512.2252, 2392.980
512.7073, 2386.349
513.1894, 2373.605
513.6715, 2362.381
514.1536, 2361.109
514.6357, 2365.424
515.1179, 2368.599
515.6000, 2369.395
516.0821, 2367.273
516.5642, 2358.266
517.0463, 2345.202
517.5284, 2338.472
518.0106, 2348.841
518.4927, 2360.452
518.9748, 2365.787
519.4569, 2363.210
519.9390, 2357.388
520.4211, 2342.947
520.9033, 2328.986
521.3854, 2325.528
521.8675, 2339.374
522.3496, 2349.563
522.8317, 2354.110
523.3138, 2352.670
523.7960, 2340.636
524.2781, 2314.643
524.7602, 2294.657
525.2423, 2293.870
525.7244, 2309.747
526.2065, 2324.857
526.6887, 2339.114
527.1708, 2350.245
527.6529, 2355.894
528.1350, 2356.411
528.6171, 2352.284
529.0992, 2341.843
529.5814, 2329.368
530.0635, 2316.196
530.5456, 2303.851
531.0277, 2296.517
531.5098, 2299.718
531.9919, 2305.915
532.4741, 2311.456
532.9562, 2316.100
533.4383, 2318.119
533.9204, 2317.090
534.4025, 2313.148
534.8846, 2306.242
535.3668, 2283.201
535.8489, 2275.741
536.3310, 2294.354
536.8131, 2326.908
537.2952, 2343.750
537.7773, 2341.110
538.2595, 2331.639
538.7416, 2315.763
539.2237, 2294.746
539.7058, 2290.407
540.1879, 2304.868
540.6700, 2323.274
541.1522, 2335.003
541.6343, 2340.022
542.1164, 2335.693
542.5985, 2318.460
543.0806, 2300.503
543.5627, 2301.248
544.0449, 2312.945
544.5270, 2316.588
545.0091, 2291.247
545.4912, 2263.932
545.9733, 2256.082
546.4554, 2266.392
546.9376, 2277.740
547.4197, 2284.972
547.9018, 2289.640
548.3839, 2293.097
548.8660, 2298.559
549.3481, 2296.471
549.8303, 2277.434
550.3124, 2254.720
550.7945, 2245.442
551.2766, 2256.315
551.7587, 2267.443
552.2408, 2277.607
552.7230, 2284.967
553.2051, 2277.474
553.6872, 2251.707
554.1693, 2229.510
554.6514, 2226.242
555.1335, 2238.713
555.6157, 2249.699
556.0978, 2258.820
556.5799, 2264.904
557.0620, 2263.645
557.5441, 2258.688
558.0262, 2258.606
558.5084, 2271.233
558.9905, 2281.433
559.4726, 2270.716
559.9547, 2247.954
560.4368, 2235.616
560.9189, 2260.289
561.4011, 2282.683
561.8832, 2278.174
562.3653, 2241.702
562.8474, 2221.422
563.3295, 2245.106
563.8116, 2271.933
564.2938, 2275.519
564.7759, 2237.300
565.2580, 2217.174
565.7401, 2223.219
566.2222, 2242.341
566.7043, 2250.744
567.1865, 2246.482
567.6686, 2246.523
568.1507, 2260.205
568.6328, 2280.103
569.1149, 2281.365
569.5970, 2264.702
570.0792, 2248.412
570.5613, 2247.694
571.0434, 2254.811
571.5255, 2257.319
572.0076, 2253.209
572.4897, 2249.716
572.9719, 2255.037
573.4540, 2262.847
573.9361, 2265.447
574.4182, 2253.109
574.9003, 2243.305
575.3824, 2244.089
575.8646, 2251.492
576.3467, 2253.293
576.8288, 2241.027
577.3109, 2231.784
577.7930, 2232.405
578.2751, 2243.654
578.7573, 2246.848
579.2394, 2239.045
579.7215, 2229.741
580.2036, 2227.662
580.6857, 2232.881
581.1678, 2231.802
581.6500, 2221.143
582.1321, 2210.058
582.6142, 2217.268
583.0963, 2236.436
583.5784, 2244.567
584.0605, 2221.623
584.5427, 2194.134
585.0248, 2194.027
585.5069, 2215.182
585.9890, 2232.537
586.4711, 2227.739
586.9532, 2219.210
587.4354, 2221.010
587.9175, 2238.216
588.3996, 2243.689
588.8817, 2216.566
589.3638, 2185.616
589.8459, 2173.904
590.3281, 2193.840
590.8102, 2210.087
591.2923, 2220.925
591.7744, 2226.541
592.2565, 2225.124
592.7386, 2215.136
593.2208, 2208.780
593.7029, 2211.073
594.1850, 2219.782
594.6671, 2230.144
595.1492, 2241.876
595.6313, 2249.162
596.1135, 2247.816
596.5956, 2239.566
597.0777, 2222.708
597.5598, 2195.036
598.0419, 2176.896
598.5240, 2192.978
599.0062, 2220.262
599.4883, 2234.281
599.9704, 2211.982
600.4525, 2195.474
600.9346, 2195.909
601.4167, 2208.363
601.8989, 2221.119
602.3810, 2237.348
602.8631, 2247.861
603.3452, 2246.980
603.8273, 2236.419
604.3094, 2240.176
604.7916, 2263.450
605.2737, 2281.061
605.7558, 2268.024
606.2379, 2231.643
606.7200, 2214.785
607.2021, 2221.899
607.6843, 2236.175
608.1664, 2242.913
608.6485, 2243.949
609.1306, 2242.325
609.6127, 2236.139
610.0948, 2232.060
610.5770, 2238.722
611.0591, 2250.627
611.5412, 2255.655
612.0233, 2240.038
612.5054, 2226.751
612.9875, 2226.114
613.4697, 2238.217
613.9518, 2244.636
614.4339, 2245.715
614.9160, 2240.757
615.3981, 2225.365
615.8802, 2195.063
616.3624, 2186.240
616.8445, 2203.856
617.3266, 2229.060
617.8087, 2244.534
618.2908, 2249.886
618.7729, 2239.343
619.2551, 2203.808
619.7372, 2169.351
620.2193, 2171.989
620.7014, 2200.736
621.1835, 2227.949
621.6656, 2240.700
622.1478, 2247.774
622.6299, 2255.125
623.1120, 2262.075
623.5941, 2262.152
624.0762, 2249.889
624.5583, 2233.566
625.0405, 2215.593
625.5226, 2194.212
626.0047, 2180.020
626.4868, 2173.519
626.9689, 2173.451
627.4510, 2180.928
627.9332, 2196.916
628.4153, 2207.790
628.8974, 2211.022
629.3795, 2210.533
629.8616, 2211.508
630.3438, 2213.844
630.8259, 2217.341
631.3080, 2223.479
631.7901, 2229.250
632.2722, 2231.561
632.7543, 2230.794
633.2365, 2228.491
633.7186, 2223.366
634.2007, 2218.661
634.6828, 2217.436
635.1649, 2220.850
635.6470, 2219.499
636.1292, 2204.797
636.6113, 2191.891
637.0934, 2191.793
637.5755, 2211.897
638.0576, 2219.880
638.5397, 2210.867
639.0219, 2197.409
639.5040, 2197.586
639.9861, 2210.442
640.4682, 2220.716
640.9503, 2224.028
641.4324, 2223.611
641.9146, 2222.583
642.3967, 2221.560
642.8788, 2222.550
643.3609, 2226.175
643.8430, 2232.445
644.3251, 2245.244
644.8073, 2263.019
645.2894, 2271.768
645.7715, 2254.106
646.2536, 2237.324
646.7357, 2237.588
647.2178, 2261.205
647.7000, 2275.976
648.1821, 2280.542
648.6642, 2277.988
649.1463, 2268.146
649.6284, 2249.666
650.1105, 2239.410
650.5927, 2239.465
651.0748, 2247.410
651.5569, 2267.026
652.0390, 2292.946
652.5211, 2305.084
653.0032, 2287.453
653.4854, 2263.787
653.9675, 2257.042
654.4496, 2262.542
654.9317, 2266.227
655.4138, 2259.944
655.8959, 2252.494
656.3781, 2246.432
656.8602, 2241.874
657.3423, 2243.828
657.8244, 2258.418
658.3065, 2272.223
658.7886, 2278.045
659.2708, 2274.668
659.7529, 2269.932
660.2350, 2263.052
660.7171, 2257.122
661.1992, 2255.392
661.6813, 2257.374
662.1635, 2261.202
662.6456, 2267.009
663.1277, 2273.051
663.6099, 2277.799
664.0920, 2281.360
664.5741, 2284.014
665.0562, 2290.656
665.5383, 2291.579
666.0204, 2275.697
666.5026, 2249.828
666.9847, 2235.435
667.4668, 2246.411
667.9489, 2258.311
668.4310, 2266.718
668.9131, 2271.495
669.3953, 2268.677
669.8774, 2255.864
670.3595, 2243.150
670.8416, 2237.879
671.3237, 2238.781
671.8058, 2236.384
672.2880, 2230.001
672.7701, 2226.078
673.2522, 2233.623
673.7343, 2246.446
674.2164, 2255.123
674.6985, 2256.425
675.1807, 2257.143
675.6628, 2264.792
676.1449, 2272.561
676.6270, 2271.920
677.1091, 2245.208
677.5912, 2230.366
678.0734, 2238.435
678.5555, 2258.802
679.0376, 2266.438
679.5197, 2258.581
680.0018, 2247.172
680.4839, 2234.239
680.9661, 2221.188
681.4482, 2209.470
681.9303, 2199.729
682.4124, 2200.215
682.8945, 2231.033
683.3766, 2267.521
683.8588, 2272.947
684.3409, 2247.021
684.8230, 2223.150
685.3051, 2224.114
685.7872, 2230.119
686.2693, 2225.268
686.7515, 2199.119
687.2336, 2186.032
687.7157, 2195.117
688.1978, 2210.972
688.6799, 2219.853
689.1620, 2220.076
689.6442, 2221.078
690.1263, 2224.232
690.6084, 2227.365
691.0905, 2225.992
691.5726, 2221.078
692.0547, 2217.827
692.5369, 2219.005
693.0190, 2220.844
693.5011, 2218.648
693.9832, 2213.809
694.4653, 2209.784
694.9474, 2206.588
695.4296, 2205.999
695.9117, 2212.892
696.3938, 2225.601
696.8759, 2226.104
697.3580, 2198.674
697.8401, 2180.683
698.3223, 2191.953
698.8044, 2232.819
699.2865, 2249.352
699.7686, 2238.535
700.2507, 2220.974
700.7328, 2209.717
701.2150, 2204.607
701.6971, 2209.074
702.1792, 2224.594
702.6613, 2233.767
703.1434, 2209.427
703.6255, 2177.116
704.1077, 2167.730
704.5898, 2202.408
705.0719, 2230.674
705.5540, 2235.363
706.0361, 2227.666
706.5182, 2222.888
707.0004, 2225.992
707.4825, 2221.115
707.9646, 2202.635
708.4467, 2179.243
708.9288, 2171.510
709.4109, 2179.258
709.8931, 2182.078
710.3752, 2168.335
710.8573, 2150.593
711.3394, 2152.423
711.8215, 2168.436
712.3036, 2178.597
712.7858, 2160.353
713.2679, 2143.263
713.7500, 2151.444
714.2321, 2183.006
714.7142, 2203.115
715.1964, 2190.792
715.6785, 2179.604
716.1606, 2184.560
716.6427, 2207.827
717.1248, 2217.196
717.6069, 2209.804
718.0891, 2197.570
718.5712, 2189.357
719.0533, 2184.297
719.5354, 2178.089
720.0175, 2170.002
720.4996, 2165.556
720.9818, 2173.953
721.4639, 2187.183
721.9460, 2194.157
722.4281, 2188.322
722.9102, 2186.297
723.3923, 2198.967
723.8745, 2216.291
724.3566, 2226.236
724.8387, 2226.604
725.3208, 2222.248
725.8029, 2210.070
726.2850, 2196.583
726.7672, 2196.465
727.2493, 2209.757
727.7314, 2215.718
728.2135, 2205.317
728.6956, 2188.286
729.1777, 2177.435
729.6599, 2172.375
730.1420, 2171.439
730.6241, 2177.198
731.1062, 2183.767
731.5883, 2190.248
732.0704, 2195.493
732.5526, 2193.597
733.0347, 2170.514
733.5168, 2154.811
733.9989, 2156.985
734.4810, 2175.781
734.9631, 2191.771
735.4453, 2205.618
735.9274, 2213.541
736.4095, 2210.271
736.8916, 2199.126
737.3737, 2190.612
737.8558, 2184.937
738.3380, 2182.063
738.8201, 2184.448
739.3022, 2188.081
739.7843, 2188.474
740.2664, 2184.009
740.7485, 2181.152
741.2307, 2185.329
741.7128, 2189.300
742.1949, 2187.079
742.6770, 2173.683
743.1591, 2167.867
743.6412, 2172.116
744.1234, 2179.646
744.6055, 2181.684
745.0876, 2179.154
745.5697, 2178.675
746.0518, 2181.665
746.5339, 2186.101
747.0161, 2192.666
747.4982, 2198.411
747.9803, 2198.227
748.4624, 2182.274
748.9445, 2170.558
749.4266, 2172.704
749.9088, 2182.943
750.3909, 2190.197
750.8730, 2196.203
751.3551, 2194.860
751.8372, 2181.351
752.3193, 2162.677
752.8015, 2159.923
753.2836, 2172.586
753.7657, 2183.098
754.2478, 2183.003
754.7299, 2178.426
755.2120, 2178.208
755.6942, 2181.337
756.1763, 2184.398
756.6584, 2187.896
757.1405, 2188.658
757.6226, 2181.501
758.1047, 2167.679
758.5869, 2163.250
759.0690, 2174.700
759.5511, 2186.483
760.0332, 2192.226
760.5153, 2192.612
760.9974, 2199.156
761.4796, 2212.908
761.9617, 2220.664
762.4438, 2207.916
762.9259, 2185.159
763.4080, 2171.859
763.8901, 2168.600
764.3723, 2168.043
764.8544, 2166.216
765.3365, 2165.210
765.8186, 2166.599
766.3007, 2170.911
766.7828, 2176.263
767.2650, 2184.256
767.7471, 2191.057
768.2292, 2192.687
768.7113, 2188.080
769.1934, 2191.000
769.6755, 2203.686
770.1577, 2213.656
770.6398, 2203.998
771.1219, 2182.898
771.6040, 2167.546
772.0861, 2160.666
772.5682, 2159.374
773.0504, 2167.142
773.5325, 2176.869
774.0146, 2181.408
774.4967, 2175.225
774.9788, 2170.835
775.4609, 2169.616
775.9431, 2169.554
776.4252, 2167.995
776.9073, 2164.640
777.3894, 2163.495
777.8715, 2165.801
778.3536, 2168.440
778.8358, 2165.159
779.3179, 2158.969
779.8000, 2157.465
780.2821, 2165.368
780.7642, 2173.864
781.2463, 2177.846
781.7285, 2179.031
782.2106, 2180.082
782.6927, 2182.285
783.1748, 2182.931
783.6569, 2179.487
784.1390, 2175.823
784.6212, 2181.102
785.1033, 2196.166
785.5854, 2208.001
786.0675, 2213.127
786.5496, 2213.177
787.0317, 2211.019
787.5139, 2205.981
787.9960, 2196.279
788.4781, 2169.701
788.9602, 2149.918
789.4423, 2154.619
789.9244, 2175.808
790.4066, 2189.792
790.8887, 2192.164
791.3708, 2189.924
791.8529, 2181.714
792.3350, 2171.077
792.8171, 2173.682
793.2993, 2189.960
793.7814, 2197.252
794.2635, 2179.234
794.7456, 2152.421
795.2277, 2140.073
795.7098, 2140.249
796.1920, 2146.751
796.6741, 2167.689
797.1562, 2183.597
797.6383, 2180.890
798.1204, 2162.344
798.6025, 2152.119
799.0847, 2152.219
799.5668, 2157.722
800.0489, 2169.667
800.5310, 2185.266
801.0131, 2189.354
801.4952, 2182.360
801.9774, 2176.326
802.4595, 2182.064
802.9416, 2190.262
803.4237, 2188.702
803.9058, 2178.738
804.3879, 2169.731
804.8701, 2163.577
805.3522, 2161.248
805.8343, 2164.205
806.3164, 2171.940
806.7985, 2182.408
807.2806, 2199.706
807.7628, 2208.450
808.2449, 2194.278
808.7270, 2165.475
809.2091, 2163.553
809.6912, 2186.229
810.1733, 2205.830
810.6555, 2197.871
811.1376, 2182.767
811.6197, 2179.924
812.1018, 2189.568
812.5839, 2197.320
813.0660, 2199.165
813.5482, 2197.906
814.0303, 2193.397
814.5124, 2185.690
814.9945, 2184.292
815.4766, 2190.688
815.9587, 2196.080
816.4409, 2193.805
816.9230, 2186.559
817.4051, 2182.489
817.8872, 2181.157
818.3693, 2176.737
818.8514, 2158.809
819.3336, 2141.959
819.8157, 2136.417
820.2978, 2143.444
820.7799, 2154.303
821.2620, 2173.461
821.7441, 2188.292
822.2263, 2190.447
822.7084, 2180.865
823.1905, 2181.705
823.6726, 2193.485
824.1547, 2204.647
824.6368, 2206.512
825.1190, 2202.825
825.6011, 2197.017
826.0832, 2189.641
826.5653, 2186.012
827.0474, 2188.266
827.5295, 2195.198
828.0117, 2211.028
828.4938, 2236.719
828.9760, 2242.581
829.4581, 2222.568
829.9402, 2199.047
830.4223, 2182.481
830.9044, 2173.335
831.3865, 2177.212
831.8687, 2193.258
832.3508, 2207.982
832.8329, 2213.986
833.3150, 2212.587
833.7971, 2199.526
834.2792, 2175.023
834.7614, 2162.827
835.2435, 2180.301
835.7256, 2198.781
836.2077, 2207.047
836.6898, 2205.457
837.1719, 2205.460
837.6541, 2207.078
838.1362, 2210.165
838.6183, 2217.343
839.1004, 2224.927
839.5825, 2224.893
840.0646, 2217.904
840.5468, 2211.087
841.0289, 2206.932
841.5110, 2205.038
841.9931, 2205.120
842.4752, 2207.215
842.9573, 2212.914
843.4395, 2225.631
843.9216, 2234.297
844.4037, 2231.744
844.8858, 2220.937
845.3679, 2216.049
845.8500, 2216.522
846.3322, 2216.389
846.8143, 2208.068
847.2964, 2200.303
847.7785, 2204.010
848.2606, 2217.264
848.7427, 2224.589
849.2249, 2213.596
849.7070, 2205.545
850.1891, 2209.492
850.6712, 2222.535
851.1533, 2224.368
851.6354, 2213.882
852.1176, 2204.350
852.5997, 2204.789
853.0818, 2208.587
853.5639, 2201.917
854.0460, 2187.917
854.5281, 2178.220
855.0103, 2176.729
855.4924, 2182.549
855.9745, 2203.349
856.4566, 2232.861
856.9387, 2241.279
857.4208, 2220.171
857.9030, 2199.147
858.3851, 2184.798
858.8672, 2178.450
859.3493, 2187.181
859.8314, 2208.303
860.3135, 2228.170
860.7957, 2245.852
861.2778, 2254.763
861.7599, 2243.784
862.2420, 2220.624
862.7241, 2204.115
863.2062, 2203.366
863.6884, 2202.993
864.1705, 2198.967
864.6526, 2195.129
865.1347, 2204.615
865.6168, 2227.078
866.0989, 2236.500
866.5811, 2219.771
867.0632, 2197.052
867.5453, 2190.910
868.0274, 2197.073
868.5095, 2207.306
868.9916, 2228.330
869.4738, 2241.748
869.9559, 2239.472
870.4380, 2228.786
870.9201, 2216.902
871.4022, 2201.572
871.8843, 2198.505
872.3665, 2213.608
872.8486, 2231.988
873.3307, 2229.436
873.8128, 2214.354
874.2949, 2207.751
874.7770, 2219.370
875.2592, 2227.231
875.7413, 2211.963
876.2234, 2190.703
876.7055, 2183.386
877.1876, 2199.164
877.6697, 2210.138
878.1519, 2215.243
878.6340, 2216.885
879.1161, 2218.072
879.5982, 2218.156
880.0803, 2213.083
880.5624, 2201.772
881.0446, 2191.765
881.5267, 2189.522
882.0088, 2191.116
882.4909, 2193.299
882.9730, 2196.028
883.4551, 2197.519
883.9373, 2194.899
884.4194, 2195.021
884.9015, 2206.377
885.3836, 2228.320
885.8657, 2230.666
886.3478, 2212.820
886.8300, 2195.991
887.3121, 2196.693
887.7942, 2207.163
888.2763, 2224.761
888.7584, 2248.370
889.2405, 2257.662
889.7227, 2230.113
890.2048, 2203.893
890.6869, 2192.459
891.1690, 2194.986
891.6511, 2207.040
892.1332, 2229.679
892.6154, 2244.131
893.0975, 2228.898
893.5796, 2205.335
894.0617, 2210.926
894.5438, 2237.305
895.0259, 2252.938
895.5081, 2233.707
895.9902, 2213.489
896.4723, 2203.339
896.9544, 2201.923
897.4365, 2208.125
897.9186, 2224.690
898.4008, 2235.142
898.8829, 2234.630
899.3650, 2226.233
899.8471, 2209.336
900.3292, 2188.888
900.8113, 2177.337
901.2935, 2184.285
901.7756, 2194.363
902.2577, 2204.856
902.7398, 2213.061
903.2219, 2214.247
903.7040, 2204.574
904.1862, 2198.833
904.6683, 2198.998
905.1504, 2202.297
905.6325, 2206.135
906.1146, 2210.091
906.5967, 2212.491
907.0789, 2212.328
907.5610, 2214.042
908.0431, 2225.084
908.5252, 2236.419
909.0073, 2239.018
909.4894, 2228.410
909.9716, 2221.808
910.4537, 2220.502
910.9358, 2220.281
911.4179, 2216.280
911.9000, 2210.379
912.3821, 2211.601
912.8643, 2220.004
913.3464, 2227.745
913.8285, 2234.179
914.3106, 2234.216
914.7927, 2218.962
915.2748, 2187.675
915.7570, 2172.651
916.2391, 2180.985
916.7212, 2193.435
917.2033, 2203.316
917.6854, 2210.690
918.1675, 2215.858
918.6497, 2218.771
919.1318, 2218.993
919.6139, 2213.647
920.0960, 2208.047
920.5781, 2207.073
921.0602, 2208.799
921.5424, 2207.253
922.0245, 2198.508
922.5066, 2192.097
922.9887, 2189.585
923.4708, 2190.158
923.9529, 2190.694
924.4351, 2192.275
924.9172, 2203.931
925.3993, 2234.912
925.8814, 2257.905
926.3635, 2239.945
926.8456, 2205.427
927.3278, 2184.585
927.8099, 2191.440
928.2920, 2199.493
928.7741, 2210.650
929.2562, 2219.869
929.7383, 2220.918
930.2205, 2215.043
930.7026, 2211.462
931.1847, 2210.818
931.6668, 2212.949
932.1489, 2222.859
932.6310, 2231.878
933.1132, 2229.482
933.5953, 2213.128
934.0774, 2207.667
934.5595, 2222.999
935.0416, 2234.731
935.5237, 2228.813
936.0059, 2210.807
936.4880, 2210.154
936.9701, 2224.686
937.4522, 2234.951
937.9343, 2225.239
938.4164, 2211.507
938.8986, 2202.781
939.3807, 2199.511
939.8628, 2203.110
940.3449, 2222.190
940.8270, 2232.688
941.3091, 2227.966
941.7913, 2215.991
942.2734, 2211.722
942.7555, 2214.091
943.2376, 2218.436
943.7197, 2224.950
944.2018, 2228.596
944.6840, 2222.194
945.1661, 2212.300
945.6482, 2206.399
946.1303, 2208.603
946.6124, 2208.496
947.0945, 2204.180
947.5767, 2201.297
948.0588, 2208.109
948.5409, 2221.224
949.0230, 2221.655
949.5051, 2208.967
949.9872, 2198.201
950.4694, 2202.617
950.9515, 2210.351
951.4336, 2213.859
951.9157, 2212.496
952.3978, 2208.415
952.8799, 2199.620
953.3621, 2192.910
953.8442, 2190.528
954.3263, 2192.224
954.8084, 2199.555
955.2905, 2210.911
955.7726, 2220.107
956.2548, 2224.530
956.7369, 2225.589
957.2190, 2223.679
957.7011, 2218.823
958.1832, 2210.088
958.6653, 2192.097
959.1475, 2186.189
959.6296, 2196.735
960.1117, 2214.026
960.5938, 2228.726
961.0759, 2240.041
961.5580, 2245.778
962.0402, 2245.089
962.5223, 2242.529
963.0044, 2239.805
963.4865, 2236.636
963.9686, 2232.345
964.4507, 2226.639
964.9329, 2224.205
965.4150, 2225.858
965.8971, 2226.135
966.3792, 2218.120
966.8613, 2207.937
967.3434, 2209.041
967.8256, 2218.878
968.3077, 2226.595
968.7898, 2227.147
969.2719, 2225.224
969.7540, 2220.390
970.2361, 2214.914
970.7183, 2215.002
971.2004, 2221.456
971.6825, 2223.514
972.1646, 2216.981
972.6467, 2210.547
973.1288, 2216.580
973.6110, 2229.124
974.0931, 2239.789
974.5752, 2247.762
975.0573, 2250.562
975.5394, 2245.712
976.0215, 2237.838
976.5037, 2226.782
976.9858, 2212.552
977.4679, 2217.297
977.9500, 2241.235
978.4321, 2260.965
978.9142, 2256.911
979.3964, 2242.557
979.8785, 2225.313
980.3606, 2207.379
980.8427, 2200.825
981.3248, 2214.973
981.8069, 2227.090
982.2891, 2231.930
982.7712, 2231.164
983.2533, 2227.262
983.7354, 2221.093
984.2175, 2216.250
984.6996, 2213.208
985.1818, 2213.234
985.6639, 2219.689
986.1460, 2228.440
986.6281, 2234.339
987.1102, 2236.326
987.5923, 2237.519
988.0745, 2238.419
988.5566, 2236.736
989.0387, 2225.241
989.5208, 2210.778
990.0029, 2215.256
990.4850, 2237.836
990.9672, 2250.820
991.4493, 2225.247
991.9314, 2201.552
992.4135, 2203.235
992.8957, 2223.688
993.3778, 2235.587
993.8599, 2238.649
994.3420, 2235.087
994.8242, 2222.278
995.3063, 2209.357
995.7884, 2208.294
996.2705, 2216.112
996.7526, 2228.196
997.2347, 2251.494
997.7169, 2264.238
998.1990, 2260.012
998.6811, 2248.403
999.1632, 2235.189
999.6453, 2220.633
1000.127, 2214.441
1000.610, 2217.045
1001.092, 2221.854
1001.574, 2225.535
1002.056, 2227.643
1002.538, 2225.998
1003.020, 2221.144
1003.502, 2222.561
1003.984, 2236.603
1004.466, 2243.357
1004.949, 2233.787
1005.431, 2216.500
1005.913, 2211.113
1006.395, 2215.265
1006.877, 2221.658
1007.359, 2229.228
1007.841, 2235.793
1008.323, 2236.185
1008.806, 2237.488
1009.288, 2249.033
1009.770, 2276.195
1010.252, 2288.466
1010.734, 2283.717
1011.216, 2273.243
1011.698, 2261.525
1012.180, 2252.608
1012.662, 2255.842
1013.145, 2269.738
1013.627, 2277.849
1014.109, 2269.965
1014.591, 2260.912
1015.073, 2254.134
1015.555, 2227.131
1016.037, 2255.018
1016.519, 2270.793
1017.002, 2275.108
1017.484, 2233.639
1017.966, 2251.291
1018.448, 2245.249
1018.930, 2238.236
1019.412, 2264.209
1019.894, 2229.399
1020.376, 2254.849
1020.858, 2256.244
1021.341, 2268.648
1021.823, 2257.213
1022.305, 2253.141
1022.787, 2272.917
1023.269, 2258.809
1023.751, 2266.082
1024.233, 2277.916
1024.715, 2284.558
1025.198, 2280.077
1025.680, 2268.368
1026.162, 2254.721
1026.644, 2238.237
1027.126, 2238.797
1027.608, 2265.225
1028.090, 2294.068
1028.572, 2298.511
1029.054, 2290.562
1029.536, 2285.009
1030.019, 2285.251
1030.501, 2284.805
1030.983, 2284.068
1031.465, 2280.914
1031.947, 2271.622
1032.429, 2259.291
1032.911, 2258.049
1033.393, 2266.396
1033.876, 2275.807
1034.358, 2289.127
1034.840, 2294.707
1035.322, 2279.429
1035.804, 2255.015
1036.286, 2243.066
1036.768, 2245.187
1037.250, 2253.495
1037.733, 2268.942
1038.215, 2281.653
1038.697, 2278.973
1039.179, 2267.828
1039.661, 2254.700
1040.143, 2239.775
1040.625, 2234.924
1041.107, 2249.729
1041.589, 2264.851
1042.072, 2273.419
1042.554, 2276.243
1043.036, 2274.533
1043.518, 2269.193
1044.000, 2264.688
1044.482, 2263.280
1044.964, 2262.823
1045.446, 2258.684
1045.928, 2256.554
1046.411, 2265.815
1046.893, 2294.053
1047.375, 2304.279
1047.857, 2293.061
1048.339, 2276.436
1048.821, 2264.788
1049.303, 2259.025
1049.785, 2263.459
1050.268, 2276.631
1050.750, 2286.688
1051.232, 2290.944
1051.714, 2289.463
1052.196, 2279.550
1052.678, 2266.394
1053.160, 2262.019
1053.642, 2265.196
1054.125, 2269.441
1054.607, 2273.164
1055.089, 2277.990
1055.571, 2294.319
1056.053, 2305.750
1056.535, 2292.190
1057.017, 2248.398
1057.499, 2227.584
1057.981, 2231.789
1058.464, 2246.569
1058.946, 2269.649
1059.428, 2293.788
1059.910, 2309.070
1060.392, 2316.529
1060.874, 2318.675
1061.356, 2313.358
1061.838, 2305.982
1062.320, 2295.296
1062.803, 2285.392
1063.285, 2282.943
1063.767, 2286.109
1064.249, 2287.247
1064.731, 2285.495
1065.213, 2282.355
1065.695, 2272.468
1066.177, 2267.331
1066.660, 2278.862
1067.142, 2302.463
1067.624, 2312.973
1068.106, 2309.309
1068.588, 2304.918
1069.070, 2304.277
1069.552, 2304.988
1070.034, 2303.784
1070.516, 2302.312
1070.999, 2303.393
1071.481, 2311.103
1071.963, 2312.205
1072.445, 2302.874
1072.927, 2294.240
1073.409, 2296.138
1073.891, 2304.692
1074.373, 2307.083
1074.855, 2304.354
1075.338, 2301.565
1075.820, 2299.304
1076.302, 2299.730
1076.784, 2304.479
1077.266, 2311.769
1077.748, 2321.493
1078.230, 2333.651
1078.713, 2333.760
1079.195, 2318.875
1079.677, 2303.197
1080.159, 2300.497
1080.641, 2301.785
1081.123, 2296.718
1081.605, 2284.833
1082.087, 2289.452
1082.569, 2317.975
1083.052, 2337.040
1083.534, 2330.963
1084.016, 2316.366
1084.498, 2324.440
1084.980, 2343.044
1085.462, 2347.918
1085.944, 2323.640
1086.426, 2306.449
1086.908, 2304.700
1087.391, 2307.969
1087.873, 2309.786
1088.355, 2310.513
1088.837, 2314.458
1089.319, 2320.523
1089.801, 2321.003
1090.283, 2304.154
1090.765, 2288.701
1091.248, 2286.121
1091.730, 2290.513
1092.212, 2292.323
1092.694, 2291.249
1093.176, 2290.119
1093.658, 2289.158
1094.140, 2288.751
1094.622, 2289.082
1095.104, 2290.281
1095.587, 2292.193
1096.069, 2294.920
1096.551, 2300.540
1097.033, 2312.455
1097.515, 2317.449
1097.997, 2308.739
1098.479, 2296.241
1098.961, 2299.105
1099.443, 2310.583
1099.926, 2317.927
1100.408, 2317.974
1100.890, 2313.248
1101.372, 2298.874
1101.854, 2286.433
1102.336, 2282.763
1102.818, 2286.710
1103.300, 2292.485
1103.783, 2300.234
1104.265, 2310.959
1104.747, 2332.957
1105.229, 2349.268
1105.711, 2350.751
1106.193, 2341.921
1106.675, 2327.312
1107.157, 2305.875
1107.640, 2287.693
1108.122, 2273.038
1108.604, 2267.717
1109.086, 2282.727
1109.568, 2304.489
1110.050, 2323.775
1110.532, 2339.096
1111.014, 2345.356
1111.496, 2338.473
1111.979, 2334.781
1112.461, 2338.512
1112.943, 2343.007
1113.425, 2334.639
1113.907, 2322.528
1114.389, 2323.906
1114.871, 2343.762
1115.353, 2354.068
1115.835, 2343.024
1116.318, 2331.042
1116.800, 2324.782
1117.282, 2323.927
1117.764, 2332.215
1118.246, 2345.381
1118.728, 2347.957
1119.210, 2327.435
1119.692, 2311.601
1120.175, 2317.248
1120.657, 2328.080
1121.139, 2332.654
1121.621, 2331.081
1122.103, 2327.407
1122.585, 2321.909
1123.067, 2318.698
1123.549, 2321.029
1124.031, 2325.668
1124.514, 2332.075
1124.996, 2338.796
1125.478, 2343.007
1125.960, 2344.098
1126.442, 2345.158
1126.924, 2346.194
1127.406, 2348.811
1127.888, 2359.954
1128.370, 2369.303
1128.853, 2360.102
1129.335, 2335.867
1129.817, 2329.750
1130.299, 2352.732
1130.781, 2369.767
1131.263, 2373.498
1131.745, 2368.223
1132.227, 2353.669
1132.710, 2336.774
1133.192, 2330.396
1133.674, 2337.868
1134.156, 2343.623
1134.638, 2342.021
1135.120, 2342.592
1135.602, 2350.582
1136.084, 2361.750
1136.567, 2365.159
1137.049, 2362.195
1137.531, 2356.208
1138.013, 2345.189
1138.495, 2338.569
1138.977, 2343.594
1139.459, 2350.740
1139.941, 2353.629
1140.423, 2352.963
1140.906, 2357.371
1141.388, 2366.000
1141.870, 2372.366
1142.352, 2372.818
1142.834, 2370.381
1143.316, 2365.450
1143.798, 2359.140
1144.280, 2353.038
1144.762, 2347.415
1145.245, 2337.657
1145.727, 2323.275
1146.209, 2315.896
1146.691, 2332.425
1147.173, 2351.667
1147.655, 2353.914
1148.137, 2345.069
1148.619, 2347.912
1149.102, 2366.392
1149.584, 2377.572
1150.066, 2377.054
1150.548, 2373.854
1151.030, 2379.374
1151.512, 2385.903
1151.994, 2383.541
1152.476, 2371.823
1152.958, 2363.220
1153.441, 2358.914
1153.923, 2356.086
1154.405, 2354.054
1154.887, 2352.951
1155.369, 2353.837
1155.851, 2355.456
1156.333, 2355.551
1156.815, 2353.237
1157.297, 2352.155
1157.780, 2353.346
1158.262, 2354.201
1158.744, 2352.812
1159.226, 2351.072
1159.708, 2355.100
1160.190, 2362.135
1160.672, 2365.419
1161.154, 2361.535
1161.637, 2356.103
1162.119, 2346.140
1162.601, 2340.844
1163.083, 2348.366
1163.565, 2365.468
1164.047, 2379.871
1164.529, 2391.277
1165.011, 2398.873
1165.494, 2396.908
1165.976, 2398.331
1166.458, 2412.954
1166.940, 2426.357
1167.422, 2421.428
1167.904, 2400.538
1168.386, 2389.175
1168.868, 2386.980
1169.350, 2382.701
1169.833, 2360.100
1170.315, 2344.590
1170.797, 2354.157
1171.279, 2374.613
1171.761, 2383.610
1172.243, 2381.865
1172.725, 2392.888
1173.207, 2419.511
1173.689, 2438.713
1174.172, 2426.599
1174.654, 2407.953
1175.136, 2399.148
1175.618, 2396.626
1176.100, 2388.304
1176.582, 2373.872
1177.064, 2368.561
1177.546, 2376.329
1178.029, 2387.507
1178.511, 2394.496
1178.993, 2400.760
1179.475, 2410.210
1179.957, 2422.258
1180.439, 2432.729
1180.921, 2442.702
1181.403, 2433.726
1181.885, 2391.480
1182.368, 2353.712
1182.850, 2370.527
1183.332, 2405.953
1183.814, 2421.896
1184.296, 2414.078
1184.778, 2404.944
1185.260, 2393.793
1185.742, 2387.191
1186.224, 2388.777
1186.707, 2395.465
1187.189, 2404.582
1187.671, 2416.209
1188.153, 2432.478
1188.635, 2458.991
1189.117, 2468.637
1189.599, 2460.126
1190.081, 2441.368
1190.564, 2404.507
1191.046, 2372.184
1191.528, 2379.663
1192.010, 2411.087
1192.492, 2435.972
1192.974, 2449.386
1193.456, 2455.676
1193.938, 2453.573
1194.421, 2449.976
1194.903, 2455.493
1195.385, 2459.034
1195.867, 2435.923
1196.349, 2398.321
1196.831, 2383.517
1197.313, 2410.422
1197.795, 2432.996
1198.277, 2449.444
1198.760, 2457.228
1199.242, 2447.333
1199.724, 2431.431
1200.206, 2427.115
1200.688, 2432.959
1201.170, 2437.225
1201.652, 2438.639
1202.134, 2436.624
1202.616, 2430.376
1203.099, 2422.740
1203.581, 2414.111
1204.063, 2407.725
1204.545, 2411.182
1205.027, 2423.739
1205.509, 2431.365
1205.991, 2431.050
1206.473, 2427.943
1206.956, 2422.274
1207.438, 2416.334
1207.920, 2412.770
1208.402, 2411.269
1208.884, 2410.272
1209.366, 2409.523
1209.848, 2415.847
1210.330, 2434.025
1210.813, 2449.491
1211.295, 2459.328
1211.777, 2461.725
1212.259, 2445.645
1212.741, 2423.334
1213.223, 2417.038
1213.705, 2432.882
1214.187, 2442.941
1214.669, 2442.844
1215.151, 2440.016
1215.634, 2434.425
1216.116, 2432.322
1216.598, 2449.588
1217.080, 2476.006
1217.562, 2493.641
1218.044, 2496.503
1218.526, 2500.190
1219.008, 2508.014
1219.491, 2510.584
1219.973, 2500.274
1220.455, 2486.531
1220.937, 2487.880
1221.419, 2497.949
1221.901, 2505.607
1222.383, 2507.801
1222.865, 2508.651
1223.348, 2509.243
1223.830, 2506.193
1224.312, 2496.300
1224.794, 2483.114
1225.276, 2469.906
1225.758, 2458.884
1226.240, 2454.629
1226.722, 2464.951
1227.204, 2466.886
1227.687, 2456.572
1228.169, 2450.811
1228.651, 2467.108
1229.133, 2489.764
1229.615, 2493.513
1230.097, 2484.166
1230.579, 2473.799
1231.061, 2459.919
1231.543, 2456.560
1232.026, 2466.204
1232.508, 2476.452
1232.990, 2478.651
1233.472, 2475.336
1233.954, 2466.795
1234.436, 2456.048
1234.918, 2450.581
1235.400, 2452.100
1235.883, 2457.017
1236.365, 2465.567
1236.847, 2475.630
1237.329, 2487.687
1237.811, 2498.358
1238.293, 2503.927
1238.775, 2504.942
1239.257, 2502.670
1239.740, 2495.763
1240.222, 2491.452
1240.704, 2490.336
1241.186, 2490.736
1241.668, 2493.946
1242.150, 2495.668
1242.632, 2487.085
1243.114, 2473.958
1243.596, 2475.462
1244.079, 2497.740
1244.561, 2502.470
1245.043, 2483.697
1245.525, 2472.840
1246.007, 2515.557
1246.489, 2560.945
1246.971, 2561.742
1247.453, 2528.911
1247.936, 2501.870
1248.418, 2479.180
1248.900, 2479.836
1249.382, 2507.288
1249.864, 2535.814
1250.346, 2546.483
1250.828, 2547.690
1251.310, 2542.085
1251.792, 2532.295
1252.275, 2522.983
1252.757, 2514.113
1253.239, 2511.936
1253.721, 2517.549
1254.203, 2523.891
1254.685, 2526.059
1255.167, 2527.157
1255.649, 2529.427
1256.131, 2531.916
1256.614, 2530.953
1257.096, 2527.371
1257.578, 2530.125
1258.060, 2540.793
1258.542, 2551.118
1259.024, 2562.420
1259.506, 2563.404
1259.988, 2543.720
1260.471, 2516.336
1260.953, 2509.572
1261.435, 2520.112
1261.917, 2537.128
1262.399, 2559.445
1262.881, 2572.615
1263.363, 2564.519
1263.845, 2550.950
1264.328, 2532.460
1264.810, 2517.828
1265.292, 2530.064
1265.774, 2559.272
1266.256, 2579.099
1266.738, 2585.470
1267.220, 2587.135
1267.702, 2583.930
1268.184, 2580.647
1268.667, 2578.330
1269.149, 2576.980
1269.631, 2578.801
1270.113, 2580.762
1270.595, 2574.736
1271.077, 2558.853
1271.559, 2554.397
1272.041, 2570.021
1272.523, 2579.461
1273.006, 2573.185
1273.488, 2563.776
1273.970, 2574.946
1274.452, 2591.204
1274.934, 2589.485
1275.416, 2566.373
1275.898, 2550.432
1276.380, 2542.211
1276.863, 2542.361
1277.345, 2552.543
1277.827, 2566.164
1278.309, 2577.974
1278.791, 2587.622
1279.273, 2595.065
1279.755, 2600.067
1280.237, 2600.136
1280.719, 2594.803
1281.202, 2591.432
1281.684, 2591.699
1282.166, 2595.317
1282.648, 2602.939
1283.130, 2613.254
1283.612, 2627.283
1284.094, 2642.994
1284.576, 2650.377
1285.058, 2650.292
1285.541, 2651.120
1286.023, 2655.265
1286.505, 2658.366
1286.987, 2657.342
1287.469, 2654.640
1287.951, 2651.285
1288.433, 2647.537
1288.915, 2641.102
1289.398, 2634.783
1289.880, 2641.311
1290.362, 2666.141
1290.844, 2683.747
1291.326, 2679.255
1291.808, 2672.481
1292.290, 2668.712
1292.772, 2668.071
1293.255, 2672.045
1293.737, 2678.970
1294.219, 2686.676
1294.701, 2695.435
1295.183, 2697.897
1295.665, 2691.209
1296.147, 2684.962
1296.629, 2681.723
1297.111, 2681.521
1297.594, 2687.702
1298.076, 2694.792
1298.558, 2695.271
1299.040, 2688.291
1299.522, 2680.853
1300.004, 2671.434
1300.486, 2672.390
1300.968, 2689.720
1301.450, 2709.128
1301.933, 2720.057
1302.415, 2723.470
##END=



