##NAMES=Simpsonite
##RRUFFID=R061059
##IDEAL CHEMISTRY=Al_4_Ta^5+^_3_O_13_(OH)
##LOCALITY=Mt. Vasin-Myl'k, Voron'ya Tundra, Russia
##OWNER=RRUFF
##SOURCE=Michael Scott
##DESCRIPTION=Subhedral off-white to pale yellowish gray crystal associated with spodumene, feldspar and quartz
##STATUS=The identification of this mineral has been confirmed by single-crystal X-ray diffraction.
##URL=rruff.info/R061059
121.0401, 3474.591
121.5222, 3708.122
122.0043, 3955.648
122.4864, 4192.346
122.9685, 4408.632
123.4506, 4602.036
123.9328, 4768.423
124.4149, 4892.544
124.8970, 4994.356
125.3791, 5093.912
125.8612, 5189.923
126.3433, 5291.957
126.8255, 5397.954
127.3076, 5513.891
127.7897, 5662.551
128.2718, 5843.666
128.7539, 6067.186
129.2361, 6356.639
129.7182, 6717.133
130.2003, 7145.380
130.6824, 7641.088
131.1645, 8205.656
131.6466, 8822.867
132.1288, 9474.490
132.6109, 10163.74
133.0930, 10923.15
133.5751, 11763.78
134.0572, 12676.84
134.5393, 13600.88
135.0215, 14543.75
135.5036, 15496.66
135.9857, 16463.05
136.4678, 17447.10
136.9499, 18439.14
137.4320, 19426.17
137.9142, 20411.84
138.3963, 21489.45
138.8784, 22657.73
139.3605, 23918.51
139.8426, 25296.88
140.3247, 26885.30
140.8069, 28358.89
141.2890, 29684.94
141.7711, 31101.93
142.2532, 31596.49
142.7353, 31030.36
143.2174, 29568.89
143.6996, 27714.57
144.1817, 25197.46
144.6638, 22632.87
145.1459, 20311.82
145.6280, 18230.34
146.1101, 16432.83
146.5923, 14980.33
147.0744, 13857.95
147.5565, 12910.91
148.0386, 12192.55
148.5207, 11618.71
149.0028, 11135.21
149.4850, 10779.28
149.9671, 10464.94
150.4492, 10184.41
150.9313, 9933.591
151.4134, 9723.305
151.8955, 9561.630
152.3777, 9437.705
152.8598, 9342.290
153.3419, 9256.705
153.8240, 9216.701
154.3061, 9233.507
154.7883, 9316.244
155.2704, 9434.180
155.7525, 9581.873
156.2346, 9763.155
156.7167, 9982.116
157.1988, 10263.21
157.6810, 10564.52
158.1631, 10868.44
158.6452, 11173.66
159.1273, 11477.67
159.6094, 11764.95
160.0915, 12046.38
160.5737, 12356.42
161.0558, 12711.83
161.5379, 13095.80
162.0200, 13498.18
162.5021, 13898.20
162.9842, 14328.40
163.4664, 14803.14
163.9485, 15318.99
164.4306, 15852.86
164.9127, 16521.46
165.3948, 17157.11
165.8769, 17590.46
166.3591, 17875.06
166.8412, 17856.10
167.3233, 17360.56
167.8054, 16386.07
168.2875, 15291.01
168.7696, 14172.14
169.2518, 13089.64
169.7339, 12132.69
170.2160, 11346.87
170.6981, 10699.99
171.1802, 10163.11
171.6623, 9743.528
172.1445, 9405.239
172.6266, 9150.308
173.1087, 8959.299
173.5908, 8787.135
174.0729, 8612.493
174.5550, 8443.334
175.0372, 8293.952
175.5193, 8166.762
176.0014, 8052.938
176.4835, 7936.118
176.9656, 7821.154
177.4477, 7726.830
177.9299, 7677.342
178.4120, 7655.529
178.8941, 7631.389
179.3762, 7598.087
179.8583, 7562.517
180.3405, 7535.517
180.8226, 7516.117
181.3047, 7497.196
181.7868, 7475.921
182.2689, 7451.130
182.7510, 7419.015
183.2332, 7372.916
183.7153, 7323.653
184.1974, 7294.878
184.6795, 7287.023
185.1616, 7278.416
185.6437, 7243.232
186.1259, 7187.433
186.6080, 7141.957
187.0901, 7123.680
187.5722, 7120.872
188.0543, 7095.109
188.5364, 7043.515
189.0186, 6989.520
189.5007, 6966.117
189.9828, 6969.978
190.4649, 6960.479
190.9470, 6906.694
191.4291, 6822.653
191.9113, 6780.467
192.3934, 6786.899
192.8755, 6814.705
193.3576, 6828.787
193.8397, 6828.882
194.3218, 6827.354
194.8040, 6829.528
195.2861, 6835.321
195.7682, 6840.454
196.2503, 6843.937
196.7324, 6848.818
197.2145, 6862.474
197.6967, 6886.370
198.1788, 6908.285
198.6609, 6916.730
199.1430, 6910.855
199.6251, 6921.956
200.1072, 6953.777
200.5894, 7000.852
201.0715, 7052.690
201.5536, 7109.239
202.0357, 7168.914
202.5178, 7231.231
202.9999, 7296.542
203.4821, 7362.225
203.9642, 7430.083
204.4463, 7497.215
204.9284, 7553.848
205.4105, 7598.422
205.8926, 7636.506
206.3748, 7667.325
206.8569, 7686.239
207.3390, 7723.113
207.8211, 7785.340
208.3032, 7869.162
208.7854, 7949.593
209.2675, 8023.380
209.7496, 8103.034
210.2317, 8203.214
210.7138, 8332.720
211.1959, 8451.875
211.6781, 8553.359
212.1602, 8637.785
212.6423, 8712.911
213.1244, 8777.593
213.6065, 8834.912
214.0886, 8884.059
214.5708, 8916.561
215.0529, 8963.632
215.5350, 9033.576
216.0171, 9125.995
216.4992, 9222.495
216.9813, 9321.824
217.4635, 9427.345
217.9456, 9543.284
218.4277, 9675.723
218.9098, 9806.286
219.3919, 9935.631
219.8740, 10066.54
220.3562, 10162.08
220.8383, 10222.12
221.3204, 10248.63
221.8025, 10241.86
222.2846, 10194.89
222.7667, 10129.60
223.2489, 10047.86
223.7310, 9948.415
224.2131, 9849.134
224.6952, 9743.644
225.1773, 9644.005
225.6594, 9570.374
226.1416, 9524.562
226.6237, 9500.273
227.1058, 9502.444
227.5879, 9545.055
228.0700, 9556.202
228.5521, 9520.104
229.0343, 9461.877
229.5164, 9426.198
229.9985, 9426.012
230.4806, 9427.233
230.9627, 9418.501
231.4448, 9398.979
231.9270, 9371.775
232.4091, 9334.669
232.8912, 9291.015
233.3733, 9243.976
233.8554, 9174.756
234.3376, 9130.829
234.8197, 9136.288
235.3018, 9217.835
235.7839, 9281.873
236.2660, 9322.702
236.7481, 9347.155
237.2303, 9367.059
237.7124, 9364.673
238.1945, 9384.355
238.6766, 9447.504
239.1587, 9572.254
239.6408, 9700.747
240.1230, 9823.843
240.6051, 9951.803
241.0872, 10110.88
241.5693, 10301.25
242.0514, 10522.45
242.5335, 10769.31
243.0157, 11025.59
243.4978, 11349.09
243.9799, 11752.70
244.4620, 12221.28
244.9441, 12725.89
245.4262, 13295.15
245.9084, 13859.58
246.3905, 14388.76
246.8726, 14871.93
247.3547, 15339.51
247.8368, 15779.37
248.3189, 16203.27
248.8011, 16668.78
249.2832, 17188.46
249.7653, 17731.99
250.2474, 18284.74
250.7295, 18833.95
251.2116, 19411.49
251.6938, 20025.26
252.1759, 20667.02
252.6580, 21344.64
253.1401, 22114.50
253.6222, 22824.42
254.1043, 23430.45
254.5865, 24067.38
255.0686, 24268.55
255.5507, 23968.39
256.0328, 23207.09
256.5149, 22126.76
256.9970, 20598.72
257.4792, 18970.47
257.9613, 17409.35
258.4434, 15875.82
258.9255, 14558.82
259.4076, 13488.42
259.8897, 12647.01
260.3719, 11948.05
260.8540, 11417.87
261.3361, 10984.40
261.8182, 10616.72
262.3003, 10322.41
262.7824, 10062.34
263.2646, 9835.177
263.7467, 9640.271
264.2288, 9486.007
264.7109, 9379.693
265.1930, 9299.852
265.6751, 9231.088
266.1573, 9169.438
266.6394, 9137.916
267.1215, 9146.124
267.6036, 9184.082
268.0857, 9210.616
268.5678, 9213.804
269.0500, 9233.368
269.5321, 9293.756
270.0142, 9396.065
270.4963, 9532.515
270.9784, 9703.656
271.4605, 9907.438
271.9427, 10140.23
272.4248, 10406.77
272.9069, 10688.63
273.3890, 10981.21
273.8711, 11292.77
274.3532, 11573.86
274.8354, 11808.99
275.3175, 12016.97
275.7996, 12255.93
276.2817, 12535.97
276.7639, 12820.51
277.2460, 13081.91
277.7281, 13316.15
278.2102, 13580.43
278.6923, 13882.38
279.1744, 14215.65
279.6566, 14549.39
280.1387, 14879.05
280.6208, 15240.07
281.1029, 15745.22
281.5850, 16394.90
282.0671, 16762.10
282.5493, 16794.30
283.0314, 16535.21
283.5135, 16023.16
283.9956, 15241.41
284.4777, 14391.28
284.9598, 13566.29
285.4420, 12768.94
285.9241, 12070.08
286.4062, 11472.81
286.8883, 10982.58
287.3704, 10628.62
287.8525, 10411.69
288.3347, 10257.25
288.8168, 10135.87
289.2989, 10043.97
289.7810, 9972.679
290.2631, 9924.128
290.7452, 9888.967
291.2274, 9843.739
291.7095, 9791.302
292.1916, 9764.664
292.6737, 9801.561
293.1558, 9882.353
293.6379, 9938.618
294.1201, 9961.920
294.6022, 9972.226
295.0843, 9993.768
295.5664, 10025.78
296.0485, 10063.87
296.5306, 10109.17
297.0128, 10158.55
297.4949, 10206.53
297.9770, 10252.70
298.4591, 10298.71
298.9412, 10352.61
299.4233, 10410.26
299.9055, 10455.73
300.3876, 10484.54
300.8697, 10494.33
301.3518, 10480.72
301.8339, 10442.56
302.3160, 10384.01
302.7982, 10302.58
303.2803, 10202.80
303.7624, 10098.66
304.2445, 9976.256
304.7266, 9862.010
305.2087, 9785.031
305.6909, 9748.721
306.1730, 9733.039
306.6551, 9726.806
307.1372, 9730.251
307.6193, 9743.720
308.1014, 9772.667
308.5836, 9808.836
309.0657, 9840.933
309.5478, 9868.467
310.0299, 9911.148
310.5120, 9993.870
310.9941, 10095.85
311.4763, 10191.02
311.9584, 10250.77
312.4405, 10314.06
312.9226, 10414.43
313.4047, 10550.87
313.8868, 10675.82
314.3690, 10762.52
314.8511, 10826.40
315.3332, 10883.69
315.8153, 10942.12
316.2974, 10992.30
316.7795, 11035.56
317.2617, 11070.30
317.7438, 11080.61
318.2259, 11038.67
318.7080, 10981.92
319.1901, 10938.83
319.6722, 10911.19
320.1544, 10903.36
320.6365, 10925.12
321.1186, 10970.96
321.6007, 11014.54
322.0828, 11031.50
322.5649, 11055.88
323.0471, 11107.56
323.5292, 11206.29
324.0113, 11310.80
324.4934, 11413.18
324.9755, 11515.93
325.4576, 11630.89
325.9398, 11764.04
326.4219, 11905.64
326.9040, 12052.37
327.3861, 12203.53
327.8682, 12358.14
328.3503, 12539.57
328.8325, 12722.67
329.3146, 12856.73
329.7967, 12948.88
330.2788, 12984.54
330.7610, 12956.58
331.2431, 12852.63
331.7252, 12715.90
332.2073, 12526.70
332.6894, 12314.92
333.1715, 12115.66
333.6537, 11900.97
334.1358, 11746.16
334.6179, 11686.95
335.1000, 11739.63
335.5821, 11777.76
336.0642, 11782.54
336.5464, 11792.67
337.0285, 11862.48
337.5106, 12008.39
337.9927, 12159.89
338.4748, 12292.98
338.9569, 12409.61
339.4391, 12557.59
339.9212, 12746.14
340.4033, 12942.58
340.8854, 13111.19
341.3675, 13253.81
341.8496, 13374.69
342.3318, 13473.83
342.8139, 13553.44
343.2960, 13626.85
343.7781, 13694.99
344.2602, 13750.21
344.7423, 13780.24
345.2245, 13787.53
345.7066, 13800.49
346.1887, 13836.15
346.6708, 13865.43
347.1529, 13821.57
347.6350, 13706.41
348.1172, 13561.97
348.5993, 13415.97
349.0814, 13263.99
349.5635, 13089.24
350.0456, 12882.08
350.5277, 12670.15
351.0099, 12478.69
351.4920, 12309.41
351.9741, 12165.28
352.4562, 12057.95
352.9383, 11974.67
353.4204, 11900.62
353.9026, 11834.65
354.3847, 11777.99
354.8668, 11722.55
355.3489, 11677.33
355.8310, 11661.91
356.3131, 11703.46
356.7953, 11767.56
357.2774, 11827.92
357.7595, 11883.12
358.2416, 11936.87
358.7237, 11967.73
359.2058, 12005.36
359.6880, 12085.94
360.1701, 12257.55
360.6522, 12444.30
361.1343, 12605.09
361.6164, 12742.66
362.0985, 12899.25
362.5807, 13099.90
363.0628, 13320.89
363.5449, 13544.05
364.0270, 13777.34
364.5091, 14000.26
364.9912, 14194.54
365.4734, 14371.14
365.9555, 14570.95
366.4376, 14828.96
366.9197, 15091.22
367.4018, 15331.22
367.8839, 15525.58
368.3661, 15731.90
368.8482, 15943.40
369.3303, 16169.04
369.8124, 16426.13
370.2945, 16715.35
370.7766, 17035.65
371.2588, 17390.52
371.7409, 17784.34
372.2230, 18200.45
372.7051, 18635.04
373.1872, 19084.92
373.6693, 19546.92
374.1515, 20027.50
374.6336, 20492.04
375.1157, 20930.02
375.5978, 21338.18
376.0799, 21737.01
376.5620, 22116.26
377.0442, 22511.62
377.5263, 22977.87
378.0084, 23518.43
378.4905, 24058.23
378.9726, 24577.58
379.4547, 25088.02
379.9369, 25644.27
380.4190, 26245.97
380.9011, 26882.02
381.3832, 27562.79
381.8653, 28283.10
382.3474, 28978.89
382.8296, 29661.63
383.3117, 30288.96
383.7938, 30822.68
384.2759, 31258.21
384.7580, 31572.38
385.2402, 31747.42
385.7223, 31797.84
386.2044, 31747.64
386.6865, 31594.32
387.1686, 31357.97
387.6508, 31042.05
388.1329, 30653.18
388.6150, 30211.40
389.0971, 29680.04
389.5792, 29125.53
390.0613, 28590.37
390.5435, 28078.10
391.0256, 27635.82
391.5077, 27269.00
391.9898, 26992.63
392.4719, 26819.69
392.9540, 26769.74
393.4362, 26811.17
393.9183, 26966.52
394.4004, 27215.27
394.8825, 27469.54
395.3646, 27666.45
395.8467, 27884.53
396.3289, 28174.21
396.8110, 28584.56
397.2931, 28985.78
397.7752, 29324.53
398.2573, 29641.51
398.7394, 30019.45
399.2216, 30542.83
399.7037, 31052.45
400.1858, 31513.96
400.6679, 31928.41
401.1500, 32279.55
401.6321, 32620.69
402.1143, 32860.13
402.5964, 32894.45
403.0785, 32697.75
403.5606, 32345.64
404.0427, 31831.39
404.5248, 31161.57
405.0070, 30423.51
405.4891, 29591.26
405.9712, 28743.11
406.4533, 27919.88
406.9354, 27112.33
407.4175, 26394.84
407.8997, 25767.41
408.3818, 25234.48
408.8639, 24808.57
409.3460, 24485.97
409.8281, 24288.13
410.3102, 24257.25
410.7924, 24364.97
411.2745, 24496.90
411.7566, 24644.41
412.2387, 24834.42
412.7208, 25099.32
413.2029, 25430.20
413.6851, 25805.87
414.1672, 26237.43
414.6493, 26696.93
415.1314, 27150.06
415.6135, 27594.93
416.0956, 28071.66
416.5778, 28631.01
417.0599, 29222.38
417.5420, 29795.32
418.0241, 30335.84
418.5062, 30845.39
418.9883, 31350.32
419.4705, 31829.04
419.9526, 32200.34
420.4347, 32424.98
420.9168, 32539.87
421.3989, 32564.10
421.8810, 32495.15
422.3632, 32350.38
422.8453, 32082.80
423.3274, 31757.27
423.8095, 31459.06
424.2916, 31154.35
424.7737, 30928.41
425.2559, 30803.85
425.7380, 30785.25
426.2201, 30799.84
426.7022, 30840.53
427.1843, 30920.28
427.6664, 31055.46
428.1486, 31281.66
428.6307, 31484.40
429.1128, 31653.94
429.5949, 31792.14
430.0770, 31930.72
430.5591, 32102.52
431.0413, 32161.12
431.5234, 32031.99
432.0055, 31716.35
432.4876, 31258.32
432.9697, 30666.77
433.4518, 29930.28
433.9340, 28987.64
434.4161, 27857.42
434.8982, 26709.91
435.3803, 25593.55
435.8624, 24513.48
436.3445, 23443.24
436.8267, 22397.61
437.3088, 21419.99
437.7909, 20543.58
438.2730, 19762.31
438.7551, 19067.97
439.2372, 18464.93
439.7194, 17934.11
440.2015, 17472.36
440.6836, 17072.44
441.1657, 16728.95
441.6479, 16441.46
442.1300, 16203.01
442.6121, 16010.20
443.0942, 15863.45
443.5763, 15758.21
444.0584, 15707.87
444.5406, 15693.21
445.0227, 15691.39
445.5048, 15664.74
445.9869, 15685.82
446.4690, 15787.50
446.9511, 15965.89
447.4333, 16136.93
447.9154, 16253.55
448.3975, 16400.13
448.8796, 16626.02
449.3617, 16967.42
449.8438, 17308.17
450.3260, 17641.63
450.8081, 17977.24
451.2902, 18326.17
451.7723, 18686.94
452.2544, 19074.14
452.7365, 19489.70
453.2187, 19937.06
453.7008, 20381.42
454.1829, 20821.65
454.6650, 21274.45
455.1471, 21760.55
455.6292, 22278.73
456.1114, 22785.66
456.5935, 23275.49
457.0756, 23743.05
457.5577, 24201.49
458.0398, 24640.60
458.5219, 25022.96
459.0041, 25360.74
459.4862, 25611.22
459.9683, 25702.69
460.4504, 25625.65
460.9325, 25420.15
461.4146, 25084.99
461.8968, 24646.54
462.3789, 24151.68
462.8610, 23570.32
463.3431, 22972.68
463.8252, 22371.39
464.3073, 21772.29
464.7895, 21224.83
465.2716, 20741.05
465.7537, 20314.21
466.2358, 19945.27
466.7179, 19638.63
467.2000, 19384.63
467.6822, 19195.99
468.1643, 19055.49
468.6464, 18928.58
469.1285, 18826.52
469.6106, 18720.29
470.0927, 18596.00
470.5749, 18452.00
471.0570, 18327.95
471.5391, 18226.94
472.0212, 18139.29
472.5033, 18060.67
472.9854, 17992.05
473.4676, 17917.46
473.9497, 17831.10
474.4318, 17743.21
474.9139, 17679.99
475.3960, 17640.77
475.8781, 17602.00
476.3603, 17545.30
476.8424, 17481.10
477.3245, 17436.55
477.8066, 17415.08
478.2887, 17394.03
478.7708, 17334.21
479.2530, 17262.96
479.7351, 17228.68
480.2172, 17265.54
480.6993, 17325.79
481.1814, 17390.77
481.6635, 17455.27
482.1457, 17499.54
482.6278, 17472.96
483.1099, 17452.14
483.5920, 17487.62
484.0741, 17606.20
484.5562, 17724.16
485.0384, 17850.64
485.5205, 17960.75
486.0026, 18019.55
486.4847, 17971.71
486.9668, 17945.03
487.4489, 17971.11
487.9311, 18043.57
488.4132, 18091.25
488.8953, 18101.29
489.3774, 18111.68
489.8595, 18144.55
490.3416, 18201.44
490.8238, 18276.44
491.3059, 18372.69
491.7880, 18482.71
492.2701, 18584.70
492.7522, 18681.35
493.2343, 18802.81
493.7165, 18977.94
494.1986, 19180.45
494.6807, 19339.64
495.1628, 19459.07
495.6450, 19581.52
496.1271, 19754.07
496.6092, 19948.30
497.0913, 20124.71
497.5734, 20267.68
498.0555, 20407.55
498.5377, 20562.72
499.0198, 20731.37
499.5019, 20910.90
499.9840, 21148.89
500.4661, 21353.79
500.9482, 21482.78
501.4304, 21531.14
501.9125, 21552.77
502.3946, 21559.48
502.8767, 21540.05
503.3588, 21486.37
503.8409, 21387.93
504.3231, 21270.60
504.8052, 21131.39
505.2873, 20973.95
505.7694, 20807.01
506.2515, 20625.06
506.7336, 20446.84
507.2158, 20270.54
507.6979, 20099.29
508.1800, 19977.86
508.6621, 19909.83
509.1442, 19875.45
509.6263, 19857.37
510.1085, 19857.65
510.5906, 19885.79
511.0727, 19945.00
511.5548, 20031.45
512.0369, 20145.20
512.5190, 20283.60
513.0012, 20437.87
513.4833, 20608.76
513.9654, 20789.75
514.4475, 20969.08
514.9296, 21147.30
515.4117, 21347.70
515.8939, 21611.60
516.3760, 21888.50
516.8581, 22135.69
517.3402, 22329.85
517.8223, 22512.97
518.3044, 22707.99
518.7866, 22896.99
519.2687, 23039.82
519.7508, 23126.80
520.2329, 23181.78
520.7150, 23219.08
521.1971, 23241.22
521.6793, 23186.56
522.1614, 23045.47
522.6435, 22847.39
523.1256, 22613.61
523.6077, 22345.62
524.0898, 22031.80
524.5720, 21660.91
525.0541, 21258.67
525.5362, 20862.79
526.0183, 20476.32
526.5004, 20096.70
526.9825, 19708.32
527.4647, 19334.27
527.9468, 18995.00
528.4289, 18689.63
528.9110, 18426.04
529.3931, 18227.01
529.8752, 18060.64
530.3574, 17892.05
530.8395, 17701.67
531.3216, 17532.34
531.8037, 17409.11
532.2858, 17316.54
532.7679, 17226.42
533.2501, 17116.23
533.7322, 17025.16
534.2143, 16962.21
534.6964, 16927.46
535.1785, 16929.41
535.6606, 16995.82
536.1428, 17066.66
536.6249, 17099.95
537.1070, 17068.29
537.5891, 17104.12
538.0712, 17235.92
538.5533, 17397.65
539.0355, 17475.09
539.5176, 17466.75
539.9997, 17489.77
540.4818, 17599.64
540.9639, 17752.13
541.4460, 17840.07
541.9282, 17868.81
542.4103, 17896.11
542.8924, 17968.32
543.3745, 18059.48
543.8566, 18137.69
544.3387, 18200.27
544.8209, 18246.33
545.3030, 18258.32
545.7851, 18259.47
546.2672, 18278.72
546.7493, 18364.33
547.2314, 18427.31
547.7136, 18427.70
548.1957, 18380.17
548.6778, 18348.90
549.1599, 18344.13
549.6420, 18351.52
550.1241, 18372.08
550.6063, 18412.44
551.0884, 18427.46
551.5705, 18417.61
552.0526, 18382.14
552.5347, 18313.63
553.0168, 18209.61
553.4990, 18108.27
553.9811, 18016.44
554.4632, 17928.38
554.9453, 17832.52
555.4274, 17730.41
555.9095, 17634.04
556.3917, 17557.51
556.8738, 17486.98
557.3559, 17397.13
557.8380, 17289.92
558.3201, 17190.49
558.8022, 17111.17
559.2844, 17050.97
559.7665, 17006.91
560.2486, 16968.13
560.7307, 16967.34
561.2128, 17025.91
561.6949, 17125.63
562.1771, 17239.77
562.6592, 17364.72
563.1413, 17500.82
563.6234, 17649.32
564.1055, 17808.32
564.5876, 17972.71
565.0698, 18137.56
565.5519, 18318.37
566.0340, 18531.84
566.5161, 18779.15
566.9982, 19013.19
567.4803, 19230.38
567.9625, 19451.54
568.4446, 19712.51
568.9267, 20001.68
569.4088, 20259.10
569.8909, 20466.06
570.3730, 20643.55
570.8552, 20821.31
571.3373, 20994.38
571.8194, 21153.64
572.3015, 21311.68
572.7836, 21438.85
573.2657, 21507.98
573.7479, 21517.45
574.2300, 21505.67
574.7121, 21494.29
575.1942, 21460.30
575.6763, 21387.55
576.1584, 21262.77
576.6406, 21118.90
577.1227, 20965.45
577.6049, 20787.75
578.0870, 20558.34
578.5691, 20267.29
579.0512, 19969.23
579.5333, 19675.25
580.0154, 19373.17
580.4976, 19081.27
580.9797, 18765.30
581.4618, 18452.10
581.9439, 18145.10
582.4260, 17849.95
582.9081, 17576.25
583.3903, 17323.04
583.8724, 17077.94
584.3545, 16820.40
584.8366, 16567.20
585.3187, 16340.06
585.8008, 16158.38
586.2830, 15989.10
586.7651, 15814.18
587.2472, 15643.53
587.7293, 15495.47
588.2114, 15382.43
588.6935, 15285.93
589.1757, 15206.95
589.6578, 15144.94
590.1399, 15068.32
590.6220, 14963.96
591.1041, 14868.15
591.5862, 14806.84
592.0684, 14782.63
592.5505, 14761.31
593.0326, 14742.44
593.5147, 14723.43
593.9968, 14701.84
594.4789, 14677.64
594.9611, 14647.32
595.4432, 14594.32
595.9253, 14556.96
596.4074, 14597.21
596.8895, 14692.32
597.3716, 14776.45
597.8538, 14805.60
598.3359, 14822.04
598.8180, 14843.67
599.3001, 14871.56
599.7822, 14920.25
600.2643, 15014.28
600.7465, 15114.10
601.2286, 15194.29
601.7107, 15233.98
602.1928, 15294.82
602.6749, 15378.13
603.1570, 15482.04
603.6392, 15607.32
604.1213, 15758.32
604.6034, 15903.69
605.0855, 16033.95
605.5676, 16158.41
606.0497, 16297.24
606.5319, 16451.15
607.0140, 16615.94
607.4961, 16789.05
607.9782, 16972.96
608.4603, 17177.26
608.9424, 17400.98
609.4246, 17630.07
609.9067, 17863.16
610.3888, 18094.29
610.8709, 18310.39
611.3530, 18487.13
611.8351, 18701.29
612.3173, 18989.93
612.7994, 19318.46
613.2815, 19631.31
613.7636, 19913.78
614.2457, 20213.46
614.7278, 20544.18
615.2100, 20892.25
615.6921, 21218.67
616.1742, 21520.22
616.6563, 21811.77
617.1384, 22095.70
617.6205, 22375.79
618.1027, 22685.90
618.5848, 23024.06
619.0669, 23359.93
619.5490, 23665.64
620.0311, 23950.94
620.5132, 24225.42
620.9954, 24482.18
621.4775, 24747.64
621.9596, 25062.52
622.4417, 25385.54
622.9238, 25668.10
623.4059, 25911.66
623.8881, 26098.00
624.3702, 26212.13
624.8523, 26268.53
625.3344, 26306.68
625.8165, 26331.90
626.2986, 26328.61
626.7808, 26298.19
627.2629, 26237.05
627.7450, 26102.27
628.2271, 25888.94
628.7092, 25653.01
629.1913, 25442.53
629.6735, 25243.26
630.1556, 25019.73
630.6377, 24766.96
631.1198, 24504.51
631.6019, 24244.71
632.0840, 23984.82
632.5662, 23729.32
633.0483, 23490.90
633.5304, 23233.75
634.0125, 22918.44
634.4946, 22576.69
634.9767, 22281.94
635.4589, 22071.49
635.9410, 21866.25
636.4231, 21656.05
636.9052, 21441.01
637.3873, 21189.58
637.8694, 20887.72
638.3516, 20595.74
638.8337, 20366.05
639.3158, 20185.13
639.7979, 19954.26
640.2800, 19669.83
640.7621, 19381.48
641.2443, 19143.94
641.7264, 18931.14
642.2085, 18703.21
642.6906, 18456.12
643.1727, 18187.22
643.6548, 17878.56
644.1370, 17554.24
644.6191, 17249.03
645.1012, 16973.79
645.5833, 16712.53
646.0654, 16468.16
646.5475, 16234.27
647.0297, 15981.98
647.5118, 15697.50
647.9939, 15423.63
648.4760, 15179.35
648.9581, 14960.34
649.4402, 14765.26
649.9224, 14596.93
650.4045, 14427.14
650.8866, 14226.23
651.3687, 14011.22
651.8508, 13821.95
652.3329, 13662.84
652.8151, 13522.87
653.2972, 13402.00
653.7793, 13290.77
654.2614, 13177.88
654.7435, 13057.59
655.2256, 12938.31
655.7078, 12816.44
656.1899, 12699.04
656.6720, 12596.41
657.1541, 12514.21
657.6362, 12435.54
658.1183, 12355.81
658.6005, 12277.52
659.0826, 12212.95
659.5647, 12164.30
660.0468, 12114.03
660.5289, 12050.89
661.0110, 11979.31
661.4932, 11909.95
661.9753, 11843.35
662.4574, 11785.96
662.9395, 11745.64
663.4216, 11716.07
663.9037, 11690.87
664.3859, 11670.04
664.8680, 11648.70
665.3501, 11628.77
665.8322, 11604.84
666.3143, 11571.83
666.7964, 11481.47
667.2786, 11448.55
667.7607, 11504.25
668.2428, 11597.61
668.7249, 11647.62
669.2070, 11648.61
669.6891, 11630.49
670.1713, 11594.33
670.6534, 11549.52
671.1355, 11516.99
671.6176, 11496.87
672.0997, 11488.15
672.5818, 11510.74
673.0640, 11532.76
673.5461, 11512.57
674.0282, 11454.34
674.5103, 11397.58
674.9924, 11350.47
675.4745, 11321.10
675.9567, 11319.81
676.4388, 11359.87
676.9209, 11382.48
677.4030, 11383.02
677.8851, 11367.88
678.3672, 11336.12
678.8494, 11278.58
679.3315, 11246.65
679.8136, 11249.22
680.2957, 11261.99
680.7778, 11250.82
681.2599, 11219.37
681.7421, 11184.23
682.2242, 11145.89
682.7063, 11113.30
683.1884, 11109.83
683.6705, 11119.43
684.1526, 11105.87
684.6348, 11021.53
685.1169, 10943.15
685.5990, 10909.19
686.0811, 10915.26
686.5632, 10910.91
687.0454, 10881.85
687.5275, 10858.05
688.0096, 10853.88
688.4918, 10869.54
688.9739, 10873.98
689.4560, 10868.22
689.9381, 10846.02
690.4202, 10781.79
690.9023, 10696.14
691.3845, 10663.25
691.8666, 10692.43
692.3487, 10733.32
692.8308, 10752.80
693.3129, 10753.85
693.7950, 10737.13
694.2772, 10687.21
694.7593, 10650.38
695.2414, 10654.17
695.7235, 10675.51
696.2056, 10681.10
696.6877, 10655.02
697.1699, 10641.78
697.6520, 10657.27
698.1341, 10683.25
698.6162, 10664.80
699.0983, 10598.24
699.5804, 10550.71
700.0626, 10555.66
700.5447, 10589.71
701.0268, 10608.10
701.5089, 10612.93
701.9910, 10615.04
702.4731, 10625.08
702.9553, 10631.62
703.4374, 10620.79
703.9195, 10592.35
704.4016, 10573.66
704.8837, 10581.35
705.3658, 10592.88
705.8480, 10597.44
706.3301, 10595.01
706.8122, 10584.19
707.2943, 10561.57
707.7764, 10537.52
708.2585, 10521.93
708.7407, 10514.20
709.2228, 10501.53
709.7049, 10479.19
710.1870, 10467.33
710.6691, 10502.67
711.1512, 10561.08
711.6334, 10597.60
712.1155, 10591.03
712.5976, 10575.02
713.0797, 10557.65
713.5618, 10543.96
714.0439, 10543.03
714.5261, 10565.31
715.0082, 10589.61
715.4903, 10614.38
715.9724, 10638.76
716.4545, 10656.07
716.9366, 10661.01
717.4188, 10690.37
717.9009, 10783.43
718.3830, 10897.46
718.8651, 10893.99
719.3472, 10788.75
719.8293, 10695.76
720.3115, 10696.01
720.7936, 10733.53
721.2757, 10763.10
721.7578, 10781.32
722.2399, 10791.91
722.7220, 10792.61
723.2042, 10788.46
723.6863, 10780.14
724.1684, 10764.64
724.6505, 10759.76
725.1326, 10767.89
725.6147, 10782.17
726.0969, 10798.26
726.5790, 10816.15
727.0611, 10832.66
727.5432, 10847.51
728.0253, 10861.30
728.5074, 10873.51
728.9896, 10885.29
729.4717, 10898.96
729.9538, 10915.63
730.4359, 10933.21
730.9180, 10952.64
731.4001, 10971.54
731.8823, 10986.46
732.3644, 10987.20
732.8465, 10997.50
733.3286, 11026.09
733.8107, 11061.25
734.2928, 11072.49
734.7750, 11055.34
735.2571, 11049.70
735.7392, 11070.29
736.2213, 11106.78
736.7034, 11138.88
737.1855, 11168.29
737.6677, 11200.91
738.1498, 11249.10
738.6319, 11294.52
739.1140, 11319.50
739.5961, 11327.78
740.0782, 11341.60
740.5604, 11364.06
741.0425, 11397.23
741.5246, 11448.21
742.0067, 11516.51
742.4888, 11555.60
742.9709, 11553.83
743.4531, 11557.01
743.9352, 11601.41
744.4173, 11676.89
744.8994, 11733.00
745.3815, 11768.68
745.8636, 11798.34
746.3458, 11827.90
746.8279, 11860.25
747.3100, 11900.81
747.7921, 11953.28
748.2742, 12000.34
748.7563, 12062.16
749.2385, 12100.53
749.7206, 12082.85
750.2027, 11980.45
750.6848, 11881.95
751.1669, 11770.17
751.6490, 11693.28
752.1312, 11733.24
752.6133, 11876.92
753.0954, 11990.40
753.5775, 12048.47
754.0596, 12075.38
754.5417, 12081.98
755.0239, 12079.15
755.5060, 12086.13
755.9881, 12115.88
756.4702, 12145.91
756.9523, 12173.67
757.4344, 12194.63
757.9166, 12200.43
758.3987, 12181.37
758.8808, 12165.42
759.3629, 12156.58
759.8450, 12154.43
760.3271, 12158.20
760.8093, 12168.29
761.2914, 12181.68
761.7735, 12197.45
762.2556, 12216.63
762.7377, 12240.53
763.2198, 12269.06
763.7020, 12301.69
764.1841, 12338.96
764.6662, 12379.05
765.1483, 12415.26
765.6304, 12450.53
766.1125, 12507.53
766.5947, 12605.65
767.0768, 12694.28
767.5589, 12746.60
768.0410, 12771.57
768.5231, 12847.77
769.0052, 12979.10
769.4874, 13086.49
769.9695, 13088.25
770.4516, 13046.33
770.9337, 13072.58
771.4158, 13164.41
771.8979, 13263.18
772.3801, 13361.87
772.8622, 13436.70
773.3443, 13461.26
773.8264, 13422.64
774.3085, 13416.17
774.7906, 13459.52
775.2728, 13516.49
775.7549, 13575.51
776.2370, 13638.84
776.7191, 13656.22
777.2012, 13623.14
777.6833, 13579.80
778.1655, 13568.86
778.6476, 13570.58
779.1297, 13544.60
779.6118, 13482.67
780.0939, 13425.45
780.5760, 13404.05
781.0582, 13392.04
781.5403, 13366.62
782.0224, 13314.28
782.5045, 13270.47
782.9866, 13240.97
783.4688, 13213.39
783.9509, 13171.88
784.4330, 13116.00
784.9151, 13075.20
785.3972, 13053.04
785.8793, 13046.08
786.3615, 13059.44
786.8436, 13083.44
787.3257, 13101.05
787.8078, 13106.22
788.2899, 13109.04
788.7720, 13110.41
789.2542, 13113.56
789.7363, 13122.57
790.2184, 13137.60
790.7005, 13157.07
791.1826, 13178.01
791.6647, 13206.00
792.1469, 13258.06
792.6290, 13332.58
793.1111, 13378.35
793.5932, 13377.17
794.0753, 13364.01
794.5574, 13380.49
795.0396, 13416.37
795.5217, 13452.41
796.0038, 13477.97
796.4859, 13509.00
796.9681, 13559.21
797.4502, 13617.05
797.9323, 13658.71
798.4144, 13668.06
798.8965, 13698.93
799.3787, 13768.65
799.8608, 13853.01
800.3429, 13895.32
800.8250, 13901.88
801.3071, 13930.42
801.7892, 14011.23
802.2714, 14104.40
802.7535, 14176.41
803.2356, 14228.66
803.7177, 14265.15
804.1998, 14274.44
804.6819, 14282.54
805.1641, 14291.02
805.6462, 14304.39
806.1283, 14335.12
806.6104, 14388.43
807.0925, 14441.79
807.5746, 14488.41
808.0568, 14532.68
808.5389, 14576.49
809.0210, 14624.47
809.5031, 14697.09
809.9852, 14833.01
810.4673, 14970.37
810.9495, 15057.38
811.4316, 15107.40
811.9137, 15157.09
812.3958, 15245.75
812.8779, 15295.28
813.3600, 15250.42
813.8422, 15161.66
814.3243, 15226.75
814.8064, 15473.51
815.2885, 15648.42
815.7706, 15632.73
816.2527, 15510.63
816.7349, 15424.69
817.2170, 15372.35
817.6991, 15343.41
818.1812, 15338.86
818.6633, 15351.22
819.1454, 15376.31
819.6276, 15415.01
820.1097, 15473.34
820.5918, 15565.72
821.0739, 15651.00
821.5560, 15715.67
822.0381, 15767.00
822.5203, 15839.31
823.0024, 15931.75
823.4845, 16008.25
823.9666, 16025.85
824.4487, 16039.14
824.9308, 16130.84
825.4130, 16279.59
825.8951, 16412.83
826.3772, 16488.46
826.8593, 16557.18
827.3414, 16641.33
827.8235, 16714.83
828.3057, 16814.75
828.7878, 16873.10
829.2699, 16939.95
829.7520, 17025.07
830.2341, 17125.86
830.7162, 17239.38
831.1984, 17362.02
831.6805, 17478.47
832.1626, 17575.44
832.6447, 17665.05
833.1268, 17739.18
833.6089, 17809.19
834.0911, 17916.42
834.5732, 18095.23
835.0553, 18281.47
835.5374, 18451.31
836.0195, 18621.90
836.5016, 18875.30
836.9838, 19218.84
837.4659, 19485.44
837.9480, 19562.82
838.4301, 19569.72
838.9122, 19685.21
839.3943, 19888.63
839.8765, 20112.70
840.3586, 20349.53
840.8407, 20580.15
841.3228, 20783.40
841.8049, 20971.39
842.2870, 21184.81
842.7692, 21421.51
843.2513, 21689.95
843.7334, 21999.76
844.2155, 22335.23
844.6976, 22667.04
845.1797, 22996.48
845.6619, 23330.56
846.1440, 23663.52
846.6261, 24011.41
847.1082, 24389.16
847.5903, 24790.14
848.0724, 25207.01
848.5546, 25654.11
849.0367, 26094.54
849.5188, 26499.54
850.0009, 26907.43
850.4830, 27418.64
850.9651, 28042.55
851.4473, 28657.16
851.9294, 29226.78
852.4115, 29779.22
852.8936, 30345.61
853.3757, 30924.57
853.8578, 31524.64
854.3400, 32132.94
854.8221, 32785.97
855.3042, 33509.86
855.7863, 34274.04
856.2684, 35013.10
856.7505, 35706.96
857.2327, 36415.97
857.7148, 37158.13
858.1969, 37904.69
858.6790, 38609.08
859.1611, 39284.63
859.6432, 39997.76
860.1254, 40815.29
860.6075, 41587.34
861.0896, 42192.10
861.5717, 42700.98
862.0538, 43207.29
862.5359, 43771.43
863.0181, 44280.59
863.5002, 44739.57
863.9823, 45141.64
864.4644, 45496.67
864.9465, 45799.66
865.4286, 46000.39
865.9108, 46085.45
866.3929, 46082.82
866.8750, 45995.65
867.3571, 45852.44
867.8392, 45698.71
868.3214, 45589.39
868.8035, 45373.15
869.2856, 44944.76
869.7677, 44437.09
870.2498, 43968.86
870.7319, 43559.53
871.2141, 43068.96
871.6962, 42485.70
872.1783, 41853.86
872.6604, 41182.25
873.1425, 40497.48
873.6246, 39852.02
874.1068, 39263.88
874.5889, 38666.66
875.0710, 38019.79
875.5531, 37348.79
876.0352, 36665.46
876.5173, 35965.18
876.9995, 35283.82
877.4816, 34624.27
877.9637, 33972.87
878.4458, 33304.95
878.9279, 32633.81
879.4100, 31994.69
879.8922, 31391.46
880.3743, 30802.52
880.8564, 30204.64
881.3385, 29619.46
881.8206, 29069.30
882.3027, 28552.46
882.7849, 28062.08
883.2670, 27595.55
883.7491, 27150.30
884.2312, 26725.33
884.7133, 26320.53
885.1954, 25935.55
885.6776, 25573.21
886.1597, 25227.10
886.6418, 24894.81
887.1239, 24577.61
887.6060, 24270.85
888.0881, 23976.19
888.5703, 23699.79
889.0524, 23459.99
889.5345, 23222.70
890.0166, 22966.08
890.4987, 22707.20
890.9808, 22514.60
891.4630, 22390.78
891.9451, 22277.05
892.4272, 22148.41
892.9093, 22020.04
893.3914, 21902.61
893.8735, 21797.65
894.3557, 21711.11
894.8378, 21658.95
895.3199, 21607.20
895.8020, 21541.55
896.2841, 21473.52
896.7662, 21427.16
897.2484, 21406.90
897.7305, 21379.60
898.2126, 21339.58
898.6947, 21291.85
899.1768, 21246.46
899.6589, 21198.10
900.1411, 21131.91
900.6232, 21036.66
901.1053, 20944.89
901.5874, 20881.64
902.0695, 20822.27
902.5516, 20745.27
903.0338, 20656.60
903.5159, 20526.51
903.9980, 20346.40
904.4801, 20148.81
904.9622, 19948.03
905.4443, 19754.24
905.9265, 19602.73
906.4086, 19499.15
906.8907, 19376.11
907.3729, 19171.52
907.8550, 18948.78
908.3371, 18749.54
908.8192, 18575.08
909.3013, 18434.05
909.7834, 18337.16
910.2656, 18244.96
910.7477, 18126.85
911.2298, 17994.29
911.7119, 17892.78
912.1940, 17819.15
912.6761, 17755.52
913.1583, 17697.70
913.6404, 17640.59
914.1225, 17577.33
914.6046, 17510.33
915.0867, 17454.54
915.5688, 17410.76
916.0510, 17380.60
916.5331, 17371.06
917.0152, 17370.51
917.4973, 17345.77
917.9794, 17301.66
918.4615, 17258.51
918.9437, 17215.67
919.4258, 17188.76
919.9079, 17209.54
920.3900, 17247.53
920.8721, 17243.30
921.3542, 17147.37
921.8364, 17093.91
922.3185, 17114.08
922.8006, 17149.16
923.2827, 17101.95
923.7648, 16990.79
924.2469, 16902.19
924.7291, 16853.57
925.2112, 16821.09
925.6933, 16819.20
926.1754, 16804.21
926.6575, 16722.53
927.1396, 16516.77
927.6218, 16390.55
928.1039, 16381.95
928.5860, 16388.68
929.0681, 16336.03
929.5502, 16231.45
930.0323, 16114.67
930.5145, 15988.17
930.9966, 15882.87
931.4787, 15840.66
931.9608, 15810.41
932.4429, 15749.68
932.9250, 15657.42
933.4072, 15579.76
933.8893, 15534.14
934.3714, 15473.58
934.8535, 15372.51
935.3356, 15250.00
935.8177, 15163.52
936.2999, 15110.04
936.7820, 15067.72
937.2641, 15026.25
937.7462, 14993.19
938.2283, 14994.24
938.7104, 15004.13
939.1926, 14968.81
939.6747, 14835.90
940.1568, 14747.00
940.6389, 14734.29
941.1210, 14740.99
941.6031, 14669.14
942.0853, 14540.53
942.5674, 14448.38
943.0495, 14414.93
943.5316, 14396.61
944.0137, 14369.65
944.4958, 14336.64
944.9780, 14300.88
945.4601, 14265.42
945.9422, 14216.84
946.4243, 14148.20
946.9064, 14081.96
947.3885, 14037.06
947.8707, 14008.02
948.3528, 13965.55
948.8349, 13910.97
949.3170, 13866.11
949.7991, 13849.88
950.2813, 13842.19
950.7634, 13818.96
951.2455, 13846.08
951.7276, 13809.80
952.2097, 13913.24
952.6918, 14001.72
953.1740, 14061.52
953.6561, 14069.88
954.1382, 13933.97
954.6203, 13698.60
955.1024, 13509.80
955.5845, 13435.13
956.0667, 13400.60
956.5488, 13385.47
957.0309, 13380.89
957.5130, 13374.23
957.9951, 13364.72
958.4772, 13355.07
958.9594, 13345.76
959.4415, 13334.95
959.9236, 13321.89
960.4057, 13305.23
960.8878, 13276.15
961.3699, 13232.64
961.8521, 13203.96
962.3342, 13215.31
962.8163, 13237.66
963.2984, 13262.01
963.7805, 13287.73
964.2626, 13246.04
964.7448, 13112.96
965.2269, 13069.19
965.7090, 13302.58
966.1911, 13618.99
966.6732, 13664.23
967.1553, 13503.55
967.6375, 13329.10
968.1196, 13194.48
968.6017, 13094.50
969.0838, 13040.55
969.5659, 13013.70
970.0480, 12981.95
970.5302, 12943.06
971.0123, 12930.48
971.4944, 12955.53
971.9765, 12986.68
972.4586, 12988.56
972.9407, 12974.35
973.4229, 12959.56
973.9050, 12944.03
974.3871, 12939.85
974.8692, 12959.20
975.3513, 12978.36
975.8334, 12982.64
976.3156, 12972.45
976.7977, 12960.34
977.2798, 12945.86
977.7619, 12921.43
978.2440, 12857.65
978.7261, 12801.13
979.2083, 12804.61
979.6904, 12855.25
980.1725, 12887.81
980.6546, 12891.29
981.1367, 12879.71
981.6188, 12849.90
982.1010, 12813.81
982.5831, 12799.99
983.0652, 12802.81
983.5473, 12795.30
984.0294, 12765.09
984.5115, 12738.06
984.9937, 12743.44
985.4758, 12754.72
985.9579, 12738.05
986.4400, 12672.13
986.9221, 12648.73
987.4042, 12679.84
987.8864, 12713.02
988.3685, 12694.61
988.8506, 12650.21
989.3327, 12642.89
989.8148, 12671.03
990.2969, 12698.13
990.7791, 12715.75
991.2612, 12717.93
991.7433, 12691.66
992.2254, 12648.89
992.7075, 12629.95
993.1896, 12637.74
993.6718, 12643.59
994.1539, 12640.77
994.6360, 12628.73
995.1181, 12598.10
995.6002, 12560.41
996.0823, 12533.87
996.5645, 12522.06
997.0466, 12526.73
997.5287, 12566.99
998.0108, 12601.20
998.4929, 12582.90
998.9750, 12516.24
999.4572, 12498.08
999.9393, 12530.93
1000.421, 12578.19
1000.904, 12621.01
1001.386, 12659.55
1001.868, 12704.95
1002.350, 12751.21
1002.832, 12745.39
1003.314, 12657.69
1003.796, 12582.45
1004.278, 12547.95
1004.760, 12538.39
1005.243, 12522.98
1005.725, 12504.95
1006.207, 12494.34
1006.689, 12496.36
1007.171, 12501.70
1007.653, 12510.36
1008.135, 12517.13
1008.617, 12515.68
1009.099, 12502.17
1009.582, 12498.33
1010.064, 12505.28
1010.546, 12514.51
1011.028, 12520.71
1011.510, 12523.93
1011.992, 12519.48
1012.474, 12509.76
1012.956, 12512.49
1013.439, 12556.74
1013.921, 12584.82
1014.403, 12578.35
1014.885, 12549.03
1015.367, 12520.74
1015.849, 12495.12
1016.331, 12491.35
1016.813, 12523.51
1017.296, 12552.97
1017.778, 12539.46
1018.260, 12509.13
1018.742, 12491.75
1019.224, 12494.49
1019.706, 12500.80
1020.188, 12510.87
1020.670, 12524.11
1021.152, 12543.87
1021.635, 12565.46
1022.117, 12574.45
1022.599, 12572.65
1023.081, 12572.72
1023.563, 12595.16
1024.045, 12603.81
1024.527, 12569.46
1025.009, 12516.51
1025.491, 12500.25
1025.974, 12522.74
1026.456, 12553.73
1026.938, 12592.74
1027.420, 12617.34
1027.902, 12586.00
1028.384, 12535.38
1028.866, 12515.10
1029.348, 12547.13
1029.831, 12556.67
1030.313, 12528.54
1030.795, 12496.77
1031.277, 12483.06
1031.759, 12482.32
1032.241, 12465.67
1032.723, 12438.74
1033.205, 12430.97
1033.688, 12477.50
1034.170, 12526.16
1034.652, 12554.28
1035.134, 12564.97
1035.616, 12564.92
1036.098, 12551.02
1036.580, 12538.32
1037.062, 12526.91
1037.544, 12522.67
1038.026, 12544.04
1038.509, 12570.46
1038.991, 12570.86
1039.473, 12539.27
1039.955, 12511.11
1040.437, 12490.00
1040.919, 12480.86
1041.401, 12492.85
1041.883, 12516.76
1042.366, 12504.58
1042.848, 12465.82
1043.330, 12453.56
1043.812, 12519.61
1044.294, 12576.83
1044.776, 12561.57
1045.258, 12510.20
1045.740, 12471.35
1046.223, 12443.26
1046.705, 12445.64
1047.187, 12484.79
1047.669, 12523.21
1048.151, 12523.67
1048.633, 12503.02
1049.115, 12485.15
1049.597, 12470.63
1050.079, 12451.00
1050.562, 12405.75
1051.044, 12377.51
1051.526, 12376.09
1052.008, 12398.28
1052.490, 12452.65
1052.972, 12529.14
1053.454, 12563.46
1053.936, 12527.07
1054.418, 12483.33
1054.901, 12465.07
1055.383, 12466.78
1055.865, 12489.55
1056.347, 12539.48
1056.829, 12557.20
1057.311, 12537.37
1057.793, 12517.13
1058.275, 12522.96
1058.758, 12541.27
1059.240, 12563.17
1059.722, 12581.46
1060.204, 12575.11
1060.686, 12510.47
1061.168, 12458.08
1061.650, 12428.00
1062.132, 12412.07
1062.615, 12400.53
1063.097, 12393.50
1063.579, 12393.46
1064.061, 12401.17
1064.543, 12404.99
1065.025, 12395.89
1065.507, 12381.68
1065.989, 12363.24
1066.471, 12342.70
1066.953, 12337.18
1067.436, 12347.81
1067.918, 12362.10
1068.400, 12377.48
1068.882, 12390.35
1069.364, 12392.81
1069.846, 12390.90
1070.328, 12394.63
1070.811, 12415.33
1071.293, 12420.40
1071.775, 12401.00
1072.257, 12380.55
1072.739, 12377.16
1073.221, 12386.91
1073.703, 12405.18
1074.185, 12427.59
1074.667, 12429.70
1075.150, 12363.50
1075.632, 12316.85
1076.114, 12350.57
1076.596, 12411.43
1077.078, 12400.79
1077.560, 12317.93
1078.042, 12252.83
1078.524, 12216.70
1079.006, 12216.36
1079.489, 12304.19
1079.971, 12397.79
1080.453, 12404.89
1080.935, 12307.83
1081.417, 12274.15
1081.899, 12323.78
1082.381, 12374.41
1082.863, 12395.06
1083.346, 12395.76
1083.828, 12379.47
1084.310, 12359.71
1084.792, 12367.95
1085.274, 12446.86
1085.756, 12488.86
1086.238, 12451.71
1086.720, 12405.24
1087.203, 12418.83
1087.685, 12478.88
1088.167, 12459.37
1088.649, 12368.97
1089.131, 12300.37
1089.613, 12335.18
1090.095, 12380.48
1090.577, 12377.64
1091.059, 12351.87
1091.542, 12358.41
1092.024, 12402.03
1092.506, 12440.24
1092.988, 12468.06
1093.470, 12483.11
1093.952, 12466.40
1094.434, 12445.98
1094.916, 12456.09
1095.398, 12501.43
1095.881, 12538.57
1096.363, 12568.80
1096.845, 12581.89
1097.327, 12574.58
1097.809, 12547.53
1098.291, 12478.38
1098.773, 12395.27
1099.255, 12365.72
1099.738, 12441.88
1100.220, 12496.13
1100.702, 12482.13
1101.184, 12452.83
1101.666, 12441.12
1102.148, 12444.91
1102.630, 12448.02
1103.112, 12450.84
1103.594, 12457.62
1104.077, 12480.68
1104.559, 12497.36
1105.041, 12489.80
1105.523, 12470.01
1106.005, 12460.26
1106.487, 12463.39
1106.969, 12450.68
1107.451, 12417.31
1107.933, 12391.32
1108.416, 12406.04
1108.898, 12436.05
1109.380, 12462.16
1109.862, 12481.81
1110.344, 12483.34
1110.826, 12458.55
1111.308, 12439.13
1111.790, 12433.15
1112.273, 12435.47
1112.755, 12447.62
1113.237, 12459.07
1113.719, 12445.94
1114.201, 12394.76
1114.683, 12359.65
1115.165, 12347.50
1115.647, 12362.17
1116.130, 12425.51
1116.612, 12510.00
1117.094, 12490.31
1117.576, 12394.18
1118.058, 12334.46
1118.540, 12389.62
1119.022, 12443.36
1119.504, 12448.32
1119.986, 12428.18
1120.469, 12395.19
1120.951, 12347.52
1121.433, 12359.13
1121.915, 12429.79
1122.397, 12484.00
1122.879, 12449.57
1123.361, 12399.09
1123.843, 12383.23
1124.325, 12393.75
1124.808, 12402.27
1125.290, 12409.52
1125.772, 12403.72
1126.254, 12377.79
1126.736, 12365.89
1127.218, 12427.53
1127.700, 12506.75
1128.182, 12538.26
1128.665, 12516.54
1129.147, 12490.76
1129.629, 12459.72
1130.111, 12438.55
1130.593, 12432.56
1131.075, 12436.84
1131.557, 12448.10
1132.039, 12462.03
1132.521, 12471.14
1133.004, 12475.03
1133.486, 12470.11
1133.968, 12452.82
1134.450, 12432.00
1134.932, 12408.61
1135.414, 12387.29
1135.896, 12390.16
1136.378, 12411.14
1136.860, 12426.37
1137.343, 12423.61
1137.825, 12416.89
1138.307, 12393.98
1138.789, 12383.07
1139.271, 12420.08
1139.753, 12503.09
1140.235, 12528.70
1140.717, 12498.91
1141.200, 12462.93
1141.682, 12457.12
1142.164, 12448.55
1142.646, 12402.06
1143.128, 12345.90
1143.610, 12336.30
1144.092, 12380.07
1144.574, 12412.58
1145.057, 12427.72
1145.539, 12431.17
1146.021, 12418.55
1146.503, 12404.87
1146.985, 12406.46
1147.467, 12421.40
1147.949, 12423.05
1148.431, 12403.40
1148.913, 12405.74
1149.396, 12447.56
1149.878, 12487.48
1150.360, 12456.08
1150.842, 12402.27
1151.324, 12394.78
1151.806, 12449.78
1152.288, 12482.53
1152.770, 12479.14
1153.252, 12475.39
1153.735, 12485.83
1154.217, 12502.80
1154.699, 12515.80
1155.181, 12524.04
1155.663, 12525.87
1156.145, 12520.40
1156.627, 12508.61
1157.109, 12482.22
1157.592, 12466.80
1158.074, 12485.67
1158.556, 12524.74
1159.038, 12542.13
1159.520, 12540.77
1160.002, 12530.51
1160.484, 12504.82
1160.966, 12485.13
1161.448, 12476.06
1161.931, 12473.33
1162.413, 12481.05
1162.895, 12493.51
1163.377, 12462.80
1163.859, 12396.79
1164.341, 12360.08
1164.823, 12429.87
1165.305, 12486.09
1165.787, 12463.10
1166.270, 12415.05
1166.752, 12433.73
1167.234, 12510.32
1167.716, 12514.22
1168.198, 12432.77
1168.680, 12366.09
1169.162, 12390.44
1169.644, 12442.12
1170.127, 12499.00
1170.609, 12550.39
1171.091, 12561.25
1171.573, 12531.94
1172.055, 12523.24
1172.537, 12550.17
1173.019, 12575.35
1173.501, 12551.26
1173.984, 12525.21
1174.466, 12552.79
1174.948, 12621.95
1175.430, 12624.37
1175.912, 12556.04
1176.394, 12509.97
1176.876, 12524.97
1177.358, 12545.18
1177.840, 12500.28
1178.323, 12441.29
1178.805, 12430.63
1179.287, 12475.96
1179.769, 12501.57
1180.251, 12505.33
1180.733, 12507.45
1181.215, 12513.10
1181.697, 12527.62
1182.180, 12578.09
1182.662, 12631.83
1183.144, 12634.06
1183.626, 12551.01
1184.108, 12522.04
1184.590, 12558.04
1185.072, 12587.82
1185.554, 12544.03
1186.036, 12483.36
1186.519, 12480.55
1187.001, 12514.79
1187.483, 12542.58
1187.965, 12558.48
1188.447, 12564.46
1188.929, 12560.19
1189.411, 12548.75
1189.893, 12525.51
1190.375, 12501.86
1190.858, 12494.80
1191.340, 12501.49
1191.822, 12510.57
1192.304, 12527.03
1192.786, 12527.38
1193.268, 12503.27
1193.750, 12480.70
1194.232, 12497.45
1194.715, 12528.16
1195.197, 12535.31
1195.679, 12517.97
1196.161, 12489.04
1196.643, 12433.41
1197.125, 12403.12
1197.607, 12410.73
1198.089, 12437.93
1198.572, 12472.07
1199.054, 12502.85
1199.536, 12508.70
1200.018, 12487.45
1200.500, 12470.12
1200.982, 12457.75
1201.464, 12461.04
1201.946, 12489.20
1202.428, 12522.30
1202.911, 12519.95
1203.393, 12501.76
1203.875, 12508.65
1204.357, 12552.71
1204.839, 12574.63
1205.321, 12549.72
1205.803, 12533.92
1206.285, 12554.03
1206.767, 12585.97
1207.250, 12580.13
1207.732, 12550.23
1208.214, 12522.20
1208.696, 12501.26
1209.178, 12486.30
1209.660, 12475.61
1210.142, 12471.96
1210.624, 12474.55
1211.107, 12487.03
1211.589, 12537.97
1212.071, 12601.46
1212.553, 12614.21
1213.035, 12521.53
1213.517, 12472.51
1213.999, 12498.35
1214.481, 12535.54
1214.964, 12546.00
1215.446, 12539.88
1215.928, 12541.24
1216.410, 12546.29
1216.892, 12545.24
1217.374, 12533.29
1217.856, 12516.27
1218.338, 12488.19
1218.820, 12469.59
1219.302, 12481.85
1219.785, 12512.14
1220.267, 12532.49
1220.749, 12543.66
1221.231, 12548.09
1221.713, 12553.00
1222.195, 12535.68
1222.677, 12481.37
1223.159, 12434.75
1223.642, 12440.20
1224.124, 12480.05
1224.606, 12517.31
1225.088, 12555.01
1225.570, 12608.57
1226.052, 12738.08
1226.534, 12787.87
1227.016, 12720.77
1227.499, 12633.28
1227.981, 12641.63
1228.463, 12690.60
1228.945, 12666.73
1229.427, 12582.59
1229.909, 12528.59
1230.391, 12543.48
1230.873, 12562.26
1231.355, 12579.03
1231.838, 12593.82
1232.320, 12605.82
1232.802, 12616.27
1233.284, 12629.87
1233.766, 12645.00
1234.248, 12645.61
1234.730, 12610.83
1235.212, 12607.20
1235.694, 12653.93
1236.177, 12706.78
1236.659, 12711.02
1237.141, 12687.58
1237.623, 12654.57
1238.105, 12616.97
1238.587, 12612.48
1239.069, 12659.70
1239.551, 12688.61
1240.034, 12680.96
1240.516, 12665.04
1240.998, 12687.63
1241.480, 12715.36
1241.962, 12696.50
1242.444, 12630.25
1242.926, 12602.53
1243.408, 12625.78
1243.891, 12646.36
1244.373, 12648.94
1244.855, 12651.51
1245.337, 12695.12
1245.819, 12735.93
1246.301, 12711.72
1246.783, 12618.72
1247.265, 12577.67
1247.747, 12595.49
1248.229, 12622.88
1248.712, 12649.26
1249.194, 12670.94
1249.676, 12692.37
1250.158, 12701.47
1250.640, 12673.82
1251.122, 12613.63
1251.604, 12598.52
1252.086, 12630.40
1252.569, 12667.11
1253.051, 12697.63
1253.533, 12721.57
1254.015, 12741.62
1254.497, 12751.67
1254.979, 12740.65
1255.461, 12712.03
1255.943, 12695.54
1256.426, 12690.71
1256.908, 12698.26
1257.390, 12725.40
1257.872, 12742.19
1258.354, 12713.44
1258.836, 12678.06
1259.318, 12670.51
1259.800, 12642.29
1260.282, 12618.99
1260.765, 12614.58
1261.247, 12582.73
1261.729, 12590.83
1262.211, 12599.03
1262.693, 12576.51
1263.175, 12558.24
1263.657, 12567.02
1264.139, 12597.74
1264.621, 12634.26
1265.104, 12671.68
1265.586, 12686.55
1266.068, 12655.00
1266.550, 12641.55
1267.032, 12690.61
1267.514, 12732.82
1267.996, 12721.42
1268.478, 12679.36
1268.961, 12689.09
1269.443, 12731.45
1269.925, 12754.06
1270.407, 12726.50
1270.889, 12713.40
1271.371, 12728.96
1271.853, 12747.59
1272.335, 12753.29
1272.818, 12753.17
1273.300, 12768.04
1273.782, 12765.44
1274.264, 12761.35
1274.746, 12765.98
1275.228, 12749.58
1275.710, 12746.60
1276.192, 12749.96
1276.674, 12755.21
1277.156, 12765.58
1277.639, 12791.89
1278.121, 12824.60
1278.603, 12848.83
1279.085, 12867.18
1279.567, 12852.98
1280.049, 12800.58
1280.531, 12755.99
1281.013, 12741.75
1281.496, 12749.97
1281.978, 12797.84
1282.460, 12849.42
1282.942, 12849.30
1283.424, 12787.55
1283.906, 12756.63
1284.388, 12756.42
1284.870, 12770.14
1285.353, 12795.22
1285.835, 12822.87
1286.317, 12865.43
1286.799, 12892.06
1287.281, 12861.68
1287.763, 12778.87
1288.245, 12771.19
1288.727, 12826.13
1289.209, 12858.78
1289.692, 12812.68
1290.174, 12764.88
1290.656, 12741.75
1291.138, 12729.33
1291.620, 12726.97
1292.102, 12732.35
1292.584, 12717.70
1293.066, 12690.88
1293.549, 12679.36
1294.031, 12708.50
1294.513, 12725.72
1294.995, 12723.35
1295.477, 12709.00
1295.959, 12691.43
1296.441, 12695.68
1296.923, 12741.17
1297.406, 12803.14
1297.888, 12824.62
##END=



