##NAMES=Simpsonite
##RRUFFID=R050629
##IDEAL CHEMISTRY=Al_4_Ta^5+^_3_O_13_(OH)
##LOCALITY=Equador, Rio Grande do Norte, Brazil
##OWNER=RRUFF
##SOURCE=Gemological Center
##DESCRIPTION=Yellow fragment
##STATUS=The identification of this mineral has been confirmed by X-ray diffraction and chemical analysis
##URL=rruff.info/R050629
##MEASURED CHEMISTRY=Al_4.00_(Ta_2.93_Nb_0.07_)_Î£=3_O_13_(OH)
92.06543, 245.6885
92.54755, 247.8906
93.02966, 249.6102
93.51178, 247.1784
93.99390, 243.2668
94.47601, 239.2278
94.95813, 235.1266
95.44025, 230.3403
95.92236, 224.2977
96.40448, 216.8181
96.88660, 209.9399
97.36871, 203.5359
97.85082, 197.8177
98.33294, 193.0820
98.81506, 189.2254
99.29717, 185.3862
99.77929, 181.6019
100.2614, 177.9315
100.7435, 173.9378
101.2256, 168.8171
101.7078, 163.2445
102.1899, 158.9293
102.6720, 156.5535
103.1541, 155.0635
103.6362, 153.2223
104.1183, 151.0340
104.6005, 149.1523
105.0826, 148.1000
105.5647, 147.8894
106.0468, 148.2477
106.5289, 150.1504
107.0110, 151.9202
107.4931, 152.5480
107.9753, 151.7493
108.4574, 149.8972
108.9395, 147.5736
109.4216, 143.7872
109.9037, 141.1558
110.3858, 140.6080
110.8680, 140.9708
111.3501, 140.9099
111.8322, 139.6586
112.3143, 137.5547
112.7964, 136.8018
113.2785, 138.3758
113.7607, 140.1142
114.2428, 141.5008
114.7249, 142.6103
115.2070, 143.6718
115.6891, 144.6735
116.1712, 145.7645
116.6534, 148.1467
117.1355, 152.1320
117.6176, 157.0965
118.0997, 162.1582
118.5818, 167.1718
119.0639, 173.7353
119.5461, 184.0100
120.0282, 197.1580
120.5103, 211.2699
120.9924, 227.2449
121.4745, 243.7312
121.9566, 257.9793
122.4388, 270.4088
122.9209, 278.8891
123.4030, 282.4868
123.8851, 281.7410
124.3672, 278.4741
124.8493, 273.0890
125.3315, 265.3313
125.8136, 259.0014
126.2957, 254.4062
126.7778, 251.4239
127.2599, 250.2550
127.7420, 250.8677
128.2242, 252.9417
128.7063, 256.0468
129.1884, 260.1301
129.6705, 265.6287
130.1526, 273.2548
130.6347, 281.5886
131.1169, 289.3497
131.5990, 296.1668
132.0811, 302.8232
132.5632, 311.0447
133.0453, 321.9145
133.5274, 333.2299
134.0096, 344.3601
134.4917, 355.9801
134.9738, 368.8330
135.4559, 383.1970
135.9380, 399.2923
136.4201, 417.5859
136.9023, 436.6780
137.3844, 459.0059
137.8665, 485.0044
138.3486, 514.7770
138.8307, 549.6595
139.3128, 592.7029
139.7950, 640.4612
140.2771, 684.9376
140.7592, 730.5088
141.2413, 768.0114
141.7234, 787.3978
142.2055, 787.1409
142.6877, 775.9642
143.1698, 758.6141
143.6519, 733.3283
144.1340, 695.4572
144.6161, 640.3637
145.0982, 573.0790
145.5803, 504.8400
146.0625, 429.4673
146.5446, 364.3922
147.0267, 314.1378
147.5088, 276.3510
147.9909, 247.6640
148.4730, 226.8617
148.9552, 213.6198
149.4373, 201.9729
149.9194, 192.0179
150.4015, 183.6770
150.8836, 177.1559
151.3657, 172.3288
151.8479, 168.9006
152.3300, 166.7307
152.8121, 165.9700
153.2942, 165.5364
153.7763, 165.4212
154.2584, 165.5447
154.7406, 165.9863
155.2227, 166.6883
155.7048, 167.3931
156.1869, 167.7603
156.6690, 167.5631
157.1511, 167.9925
157.6333, 169.2678
158.1154, 171.0245
158.5975, 172.8359
159.0796, 174.5996
159.5617, 176.7408
160.0438, 179.7270
160.5260, 183.4269
161.0081, 188.4762
161.4902, 195.0032
161.9723, 202.9759
162.4544, 212.3516
162.9365, 223.0383
163.4187, 235.3006
163.9008, 250.4302
164.3829, 268.2527
164.8650, 284.2143
165.3471, 298.1044
165.8292, 309.0743
166.3113, 310.8484
166.7935, 298.9437
167.2756, 279.1851
167.7577, 254.4178
168.2398, 225.1227
168.7219, 196.3976
169.2040, 172.9211
169.6862, 155.0099
170.1683, 140.4503
170.6504, 130.4387
171.1325, 122.8642
171.6146, 117.2529
172.0967, 113.3774
172.5789, 110.4552
173.0610, 107.3285
173.5431, 103.5941
174.0252, 100.6379
174.5073, 98.99676
174.9894, 97.71640
175.4716, 96.05253
175.9537, 93.79021
176.4358, 91.27956
176.9179, 89.21898
177.4000, 87.60584
177.8821, 86.56149
178.3643, 86.41697
178.8464, 86.66798
179.3285, 86.92433
179.8106, 87.02560
180.2927, 86.88622
180.7748, 86.24637
181.2570, 84.18429
181.7391, 82.76360
182.2212, 82.70333
182.7033, 83.33921
183.1854, 83.64809
183.6675, 83.12878
184.1497, 82.06484
184.6318, 81.36388
185.1139, 81.23392
185.5960, 81.05268
186.0781, 80.65501
186.5602, 80.04806
187.0423, 79.19100
187.5245, 77.92397
188.0066, 76.53524
188.4887, 75.64194
188.9708, 75.29233
189.4529, 75.31661
189.9350, 75.62216
190.4172, 76.21004
190.8993, 77.15340
191.3814, 78.84699
191.8635, 80.71504
192.3456, 81.92141
192.8277, 82.18886
193.3099, 82.16424
193.7920, 82.45216
194.2741, 83.07925
194.7562, 83.83089
195.2383, 84.95995
195.7204, 86.02189
196.2026, 86.44113
196.6847, 85.88050
197.1668, 85.22039
197.6489, 85.94173
198.1310, 88.56469
198.6131, 91.10799
199.0953, 93.20329
199.5774, 94.89259
200.0595, 96.00398
200.5416, 96.41960
201.0237, 96.59988
201.5058, 97.58508
201.9880, 99.77363
202.4701, 102.1252
202.9522, 104.3515
203.4343, 106.6392
203.9164, 109.2606
204.3985, 112.3491
204.8807, 115.6452
205.3628, 118.3048
205.8449, 119.2283
206.3270, 120.9577
206.8091, 124.0031
207.2912, 127.8591
207.7733, 132.0118
208.2555, 136.1949
208.7376, 140.4411
209.2197, 144.8734
209.7018, 150.4158
210.1839, 155.0829
210.6660, 159.1347
211.1482, 162.0733
211.6303, 163.2215
212.1124, 162.2108
212.5945, 159.2412
213.0766, 154.8877
213.5587, 146.9855
214.0409, 140.3489
214.5230, 136.2154
215.0051, 133.9618
215.4872, 132.3615
215.9693, 130.7453
216.4514, 129.4623
216.9336, 129.9902
217.4157, 132.8310
217.8978, 136.3040
218.3799, 140.5803
218.8620, 145.1479
219.3441, 148.7881
219.8263, 150.9047
220.3084, 151.6373
220.7905, 151.6214
221.2726, 151.1863
221.7547, 149.6539
222.2368, 146.2409
222.7190, 141.2977
223.2011, 136.0986
223.6832, 130.7009
224.1653, 125.8559
224.6474, 122.7495
225.1295, 121.8159
225.6117, 121.5134
226.0938, 120.7223
226.5759, 119.5598
227.0580, 119.0375
227.5401, 119.5619
228.0222, 120.9885
228.5043, 123.0786
228.9865, 125.9126
229.4686, 129.0080
229.9507, 131.7905
230.4328, 134.2601
230.9149, 137.2881
231.3970, 140.9119
231.8792, 145.4515
232.3613, 150.9632
232.8434, 157.4174
233.3255, 165.3371
233.8076, 175.3367
234.2897, 187.4864
234.7719, 200.8871
235.2540, 216.5235
235.7361, 232.7108
236.2182, 248.9233
236.7003, 265.0305
237.1824, 280.0161
237.6646, 292.9998
238.1467, 304.0625
238.6288, 312.9991
239.1109, 319.9496
239.5930, 324.5333
240.0751, 325.4506
240.5573, 322.9505
241.0394, 319.5425
241.5215, 318.0321
242.0036, 318.7247
242.4857, 320.1008
242.9678, 321.6671
243.4500, 324.1985
243.9321, 328.4080
244.4142, 334.2008
244.8963, 340.7369
245.3784, 346.7447
245.8605, 351.3550
246.3427, 358.7187
246.8248, 369.2571
247.3069, 381.9164
247.7890, 396.4933
248.2711, 412.8728
248.7532, 430.6413
249.2354, 449.2539
249.7175, 467.8485
250.1996, 491.2720
250.6817, 520.2081
251.1638, 552.4827
251.6459, 587.8387
252.1281, 625.8976
252.6102, 666.2750
253.0923, 710.1826
253.5744, 760.1268
254.0565, 795.9066
254.5386, 828.7767
255.0208, 840.7591
255.5029, 820.3176
255.9850, 770.3866
256.4671, 701.3150
256.9492, 619.1232
257.4313, 521.7035
257.9135, 438.7748
258.3956, 368.7892
258.8777, 310.8697
259.3598, 266.8342
259.8419, 234.8922
260.3240, 210.5763
260.8062, 191.0611
261.2883, 176.3222
261.7704, 163.3702
262.2525, 151.3638
262.7346, 141.3397
263.2167, 134.0826
263.6989, 129.1999
264.1810, 125.8680
264.6631, 123.6849
265.1452, 122.5465
265.6273, 121.5028
266.1094, 120.5395
266.5916, 119.6659
267.0737, 118.9087
267.5558, 118.2495
268.0379, 117.5510
268.5200, 116.6329
269.0021, 115.7404
269.4843, 115.9536
269.9664, 118.0711
270.4485, 120.0615
270.9306, 120.8898
271.4127, 121.1317
271.8948, 122.0400
272.3770, 124.2235
272.8591, 127.2890
273.3412, 130.3346
273.8233, 133.3507
274.3054, 136.3578
274.7875, 139.1113
275.2697, 141.8759
275.7518, 145.1145
276.2339, 148.9707
276.7160, 153.4161
277.1981, 158.3931
277.6802, 163.7188
278.1623, 169.9075
278.6444, 177.1939
279.1266, 185.4489
279.6087, 194.5747
280.0908, 204.6717
280.5729, 215.1726
281.0550, 226.2871
281.5371, 238.3757
282.0193, 246.9721
282.5014, 251.7294
282.9835, 252.0869
283.4656, 246.6613
283.9477, 234.8874
284.4298, 219.2486
284.9120, 200.6332
285.3941, 179.5515
285.8762, 160.7556
286.3583, 145.1685
286.8404, 132.4008
287.3225, 122.2209
287.8047, 114.6729
288.2868, 109.0259
288.7689, 105.0739
289.2510, 102.6607
289.7331, 101.1807
290.2152, 101.0574
290.6974, 101.5459
291.1795, 101.8748
291.6616, 102.0187
292.1437, 102.4000
292.6258, 103.3848
293.1079, 104.7987
293.5901, 106.1951
294.0722, 107.4719
294.5543, 108.7877
295.0364, 110.2453
295.5185, 111.8516
296.0006, 113.6108
296.4828, 115.4586
296.9649, 117.5377
297.4470, 120.0393
297.9291, 123.0759
298.4112, 126.2856
298.8933, 129.5579
299.3755, 132.8367
299.8576, 135.8339
300.3397, 138.3286
300.8218, 140.6163
301.3039, 143.1347
301.7860, 145.9088
302.2682, 148.6602
302.7503, 151.0279
303.2324, 153.2219
303.7145, 156.0745
304.1966, 160.0107
304.6787, 164.2749
305.1609, 167.7352
305.6430, 170.5424
306.1251, 174.2634
306.6072, 180.0545
307.0893, 187.1788
307.5714, 193.9013
308.0536, 199.7282
308.5357, 205.9896
309.0178, 214.0044
309.4999, 223.3290
309.9820, 233.0310
310.4641, 242.6460
310.9463, 252.5029
311.4284, 263.0345
311.9105, 274.2495
312.3926, 285.9206
312.8747, 298.1687
313.3568, 310.6889
313.8390, 323.0337
314.3211, 336.3571
314.8032, 348.1739
315.2853, 356.6349
315.7674, 361.7328
316.2495, 362.3301
316.7317, 357.7277
317.2138, 347.8112
317.6959, 332.6323
318.1780, 310.8262
318.6601, 287.2659
319.1422, 264.5505
319.6243, 242.7637
320.1064, 223.0899
320.5886, 205.6741
321.0707, 191.0430
321.5528, 179.2703
322.0349, 170.3084
322.5170, 163.3391
322.9991, 158.3644
323.4813, 155.0763
323.9634, 152.5727
324.4455, 150.7547
324.9276, 149.6255
325.4097, 149.2944
325.8918, 149.6558
326.3740, 150.4559
326.8561, 151.8591
327.3382, 153.5637
327.8203, 155.0302
328.3024, 156.1489
328.7845, 157.4428
329.2667, 160.0667
329.7488, 163.1696
330.2309, 164.5223
330.7130, 163.1871
331.1951, 160.2829
331.6772, 156.7783
332.1594, 152.6723
332.6415, 147.8455
333.1236, 141.6685
333.6057, 134.9532
334.0878, 129.2771
334.5699, 124.6552
335.0521, 121.1891
335.5342, 119.1160
336.0163, 118.3154
336.4984, 118.2463
336.9805, 118.8211
337.4626, 119.9527
337.9448, 121.5030
338.4269, 123.4826
338.9090, 125.6890
339.3911, 128.2500
339.8732, 130.9530
340.3553, 133.4537
340.8375, 135.7374
341.3196, 137.5938
341.8017, 138.9486
342.2838, 139.8081
342.7659, 139.3533
343.2480, 137.0229
343.7302, 133.5278
344.2123, 129.3071
344.6944, 124.4333
345.1765, 119.6201
345.6586, 115.2023
346.1407, 111.3506
346.6229, 108.3990
347.1050, 106.9093
347.5871, 105.8503
348.0692, 104.6354
348.5513, 103.3371
349.0334, 102.2293
349.5156, 101.4794
349.9977, 100.9905
350.4798, 100.4816
350.9619, 99.78845
351.4440, 99.38470
351.9261, 99.61313
352.4083, 100.1890
352.8904, 100.6228
353.3725, 100.7530
353.8546, 100.8112
354.3367, 101.1520
354.8188, 101.8531
355.3010, 102.5049
355.7831, 102.6841
356.2652, 103.0381
356.7473, 104.1652
357.2294, 106.1261
357.7115, 108.6046
358.1937, 111.3759
358.6758, 114.4584
359.1579, 117.7190
359.6400, 121.0435
360.1221, 124.6349
360.6042, 128.7364
361.0863, 133.1993
361.5685, 137.5496
362.0506, 141.5041
362.5327, 145.2207
363.0148, 149.3679
363.4969, 153.8340
363.9790, 158.8178
364.4612, 164.3562
364.9433, 170.4397
365.4254, 177.0203
365.9075, 184.0844
366.3896, 191.5821
366.8717, 199.5246
367.3539, 208.5623
367.8360, 216.4437
368.3181, 222.1773
368.8002, 227.5779
369.2823, 233.9325
369.7644, 241.2297
370.2466, 248.5954
370.7287, 255.1422
371.2108, 260.7477
371.6929, 267.7544
372.1750, 276.4194
372.6571, 286.1131
373.1393, 297.1504
373.6214, 309.0666
374.1035, 321.3589
374.5856, 333.7261
375.0677, 346.0861
375.5498, 358.3056
376.0320, 370.7642
376.5141, 382.4645
376.9962, 393.6039
377.4783, 403.8729
377.9604, 412.6015
378.4425, 419.8047
378.9247, 426.4482
379.4068, 433.7074
379.8889, 441.4693
380.3710, 450.2791
380.8531, 459.7046
381.3352, 470.5812
381.8174, 484.0461
382.2995, 499.4458
382.7816, 515.2526
383.2637, 530.9812
383.7458, 546.0973
384.2279, 556.7313
384.7101, 562.9138
385.1922, 563.8856
385.6743, 559.3070
386.1564, 550.3732
386.6385, 537.9573
387.1206, 522.1877
387.6028, 504.4999
388.0849, 486.5474
388.5670, 467.9979
389.0491, 451.0084
389.5312, 436.0408
390.0133, 422.8906
390.4955, 411.5118
390.9776, 401.9003
391.4597, 394.0480
391.9418, 387.6766
392.4239, 382.9358
392.9060, 381.0658
393.3882, 382.9041
393.8703, 386.4091
394.3524, 390.3493
394.8345, 394.8160
395.3166, 400.1026
395.7987, 406.2581
396.2809, 413.3167
396.7630, 421.2438
397.2451, 430.1001
397.7272, 439.8409
398.2093, 450.3927
398.6914, 462.0498
399.1736, 475.1717
399.6557, 490.2218
400.1378, 505.6336
400.6199, 521.6234
401.1020, 537.3181
401.5841, 550.8145
402.0662, 562.1456
402.5483, 569.7466
403.0305, 571.1530
403.5126, 566.8058
403.9947, 558.4205
404.4768, 544.8390
404.9589, 528.2909
405.4410, 510.0041
405.9232, 490.4030
406.4053, 471.0096
406.8874, 452.5309
407.3695, 435.2747
407.8516, 419.9513
408.3337, 404.9853
408.8159, 393.4752
409.2980, 386.5298
409.7801, 383.5764
410.2622, 384.0946
410.7443, 387.9605
411.2264, 394.0673
411.7086, 400.5902
412.1907, 406.8179
412.6728, 415.6253
413.1549, 427.3680
413.6370, 441.2978
414.1191, 457.1825
414.6013, 474.8430
415.0834, 494.0887
415.5655, 514.9077
416.0476, 537.2512
416.5297, 558.8945
417.0118, 579.0507
417.4940, 599.2707
417.9761, 622.1045
418.4582, 644.3474
418.9403, 662.3214
419.4224, 674.6693
419.9045, 681.4799
420.3867, 683.1829
420.8688, 680.4432
421.3509, 670.4605
421.8330, 649.3928
422.3151, 624.7502
422.7972, 598.5826
423.2794, 572.1635
423.7615, 547.3712
424.2436, 525.4617
424.7257, 506.4686
425.2078, 490.3631
425.6899, 477.4787
426.1721, 467.1631
426.6542, 460.1529
427.1363, 454.7753
427.6184, 449.0933
428.1005, 442.4874
428.5826, 435.5077
429.0648, 428.7656
429.5469, 422.2204
430.0290, 416.0668
430.5111, 411.1559
430.9932, 405.7335
431.4753, 398.7522
431.9575, 390.1856
432.4396, 379.8032
432.9217, 367.7780
433.4038, 353.8337
433.8859, 336.7977
434.3680, 316.4174
434.8502, 295.4748
435.3323, 274.9372
435.8144, 255.3689
436.2965, 237.8115
436.7786, 222.4101
437.2607, 208.8655
437.7429, 197.4698
438.2250, 187.8481
438.7071, 179.0037
439.1892, 170.5536
439.6713, 163.2802
440.1534, 158.5591
440.6356, 156.9534
441.1177, 155.5542
441.5998, 154.0645
442.0819, 152.8655
442.5640, 152.1059
443.0461, 151.8711
443.5282, 152.4282
444.0103, 154.0447
444.4925, 156.5030
444.9746, 158.5699
445.4567, 159.1461
445.9388, 160.6990
446.4209, 164.0916
446.9030, 168.2575
447.3852, 172.1893
447.8673, 175.5987
448.3494, 178.8452
448.8315, 182.2966
449.3136, 185.8423
449.7957, 190.1487
450.2779, 195.1428
450.7600, 201.0392
451.2421, 207.9948
451.7242, 215.9238
452.2063, 224.7966
452.6884, 234.6611
453.1706, 245.1187
453.6527, 255.0895
454.1348, 264.3784
454.6169, 273.6563
455.0990, 283.7955
455.5811, 293.4970
456.0633, 301.8369
456.5454, 308.7174
457.0275, 314.6841
457.5096, 320.4666
457.9917, 325.7020
458.4738, 328.9716
458.9560, 329.7812
459.4381, 329.7895
459.9202, 330.1988
460.4023, 330.5522
460.8844, 330.0267
461.3665, 329.0967
461.8487, 326.3555
462.3308, 320.2891
462.8129, 311.4452
463.2950, 301.5731
463.7771, 290.9467
464.2592, 280.0772
464.7414, 269.5074
465.2235, 259.1647
465.7056, 249.3998
466.1877, 239.6969
466.6698, 230.9045
467.1519, 223.7449
467.6341, 218.1507
468.1162, 213.8602
468.5983, 210.8521
469.0804, 208.7927
469.5625, 206.2603
470.0446, 203.0271
470.5268, 199.5921
471.0089, 195.5457
471.4910, 191.5786
471.9731, 188.4729
472.4552, 186.3037
472.9373, 184.4128
473.4195, 181.9424
473.9016, 178.7606
474.3837, 176.8258
474.8658, 176.9175
475.3479, 177.5074
475.8300, 178.2676
476.3122, 179.2225
476.7943, 180.3990
477.2764, 181.7818
477.7585, 183.5646
478.2406, 186.2652
478.7227, 190.0125
479.2049, 193.3889
479.6870, 195.8340
480.1691, 198.1528
480.6512, 200.7859
481.1333, 203.7548
481.6154, 207.1187
482.0976, 210.9411
482.5797, 215.1639
483.0618, 219.9867
483.5439, 225.4405
484.0260, 230.2922
484.5081, 233.7319
484.9902, 236.3435
485.4724, 239.5332
485.9545, 243.6773
486.4366, 247.2651
486.9187, 249.6651
487.4008, 251.2796
487.8829, 252.4126
488.3651, 253.1750
488.8472, 254.0699
489.3293, 255.4911
489.8114, 257.4454
490.2935, 259.9426
490.7756, 262.5373
491.2578, 266.0650
491.7399, 270.5558
492.2220, 276.1761
492.7041, 283.3313
493.1862, 292.0871
493.6683, 301.7793
494.1505, 311.2511
494.6326, 319.8705
495.1147, 330.6639
495.5968, 345.3211
496.0789, 360.4931
496.5610, 374.8292
497.0432, 388.7866
497.5253, 403.7631
498.0074, 420.6403
498.4895, 437.9579
498.9716, 453.2968
499.4537, 466.7874
499.9359, 477.6424
500.4180, 486.5934
500.9001, 491.7699
501.3822, 491.6553
501.8643, 486.4450
502.3464, 478.2079
502.8286, 467.0086
503.3107, 453.7388
503.7928, 439.2578
504.2749, 423.6310
504.7570, 407.7251
505.2391, 391.7891
505.7213, 376.0218
506.2034, 361.2042
506.6855, 347.2135
507.1676, 334.2641
507.6497, 322.3975
508.1318, 311.5952
508.6140, 302.2483
509.0961, 294.2437
509.5782, 286.5362
510.0603, 278.2233
510.5424, 269.3631
511.0245, 261.1733
511.5067, 253.4886
511.9888, 246.7101
512.4709, 240.9116
512.9530, 236.0293
513.4351, 232.0761
513.9172, 229.0143
514.3994, 226.6378
514.8815, 224.7627
515.3636, 223.4032
515.8457, 222.2410
516.3278, 220.9516
516.8099, 220.3450
517.2921, 221.1444
517.7742, 222.6506
518.2563, 223.7868
518.7384, 224.1598
519.2205, 224.2213
519.7026, 224.5518
520.1848, 225.0713
520.6669, 225.2015
521.1490, 224.9068
521.6311, 224.0214
522.1132, 222.3472
522.5953, 219.9444
523.0775, 216.8255
523.5596, 212.3575
524.0417, 207.7566
524.5238, 203.8504
525.0059, 200.5352
525.4880, 197.4738
525.9702, 194.5691
526.4523, 191.6691
526.9344, 188.3718
527.4165, 184.0695
527.8986, 181.1411
528.3807, 180.5453
528.8629, 180.3037
529.3450, 178.9100
529.8271, 177.0053
530.3092, 176.3347
530.7913, 177.9553
531.2734, 180.9695
531.7556, 183.0760
532.2377, 183.6472
532.7198, 185.0818
533.2019, 188.4204
533.6840, 192.1534
534.1661, 195.5235
534.6483, 198.5642
535.1304, 201.6885
535.6125, 205.2741
536.0946, 209.0144
536.5767, 212.6262
537.0588, 216.1518
537.5410, 218.5828
538.0231, 219.1786
538.5052, 218.7683
538.9873, 218.6555
539.4694, 218.8919
539.9515, 218.9871
540.4337, 219.1588
540.9158, 218.8900
541.3979, 217.3855
541.8800, 214.8285
542.3621, 212.1676
542.8442, 209.8788
543.3264, 208.1378
543.8085, 207.5506
544.2906, 208.7247
544.7726, 210.3109
545.2548, 212.5571
545.7369, 214.9966
546.2190, 217.0720
546.7011, 218.9445
547.1832, 221.3581
547.6653, 224.9183
548.1475, 229.3863
548.6296, 233.7238
549.1117, 237.7468
549.5938, 242.1001
550.0759, 247.6579
550.5580, 253.1618
551.0402, 257.7652
551.5223, 261.3770
552.0044, 264.2342
552.4865, 266.4579
552.9686, 268.0331
553.4507, 269.0086
553.9329, 269.3869
554.4150, 268.8913
554.8971, 267.3456
555.3792, 264.8476
555.8613, 261.6369
556.3434, 257.8405
556.8256, 253.2151
557.3077, 246.4986
557.7898, 239.7443
558.2719, 234.9045
558.7540, 231.9678
559.2361, 229.8925
559.7183, 227.9460
560.2004, 226.2570
560.6825, 225.3278
561.1646, 225.2667
561.6467, 225.8645
562.1288, 226.9970
562.6110, 228.7558
563.0931, 231.4067
563.5752, 234.8163
564.0573, 238.3835
564.5394, 241.3675
565.0215, 244.3859
565.5037, 249.2650
565.9858, 256.2972
566.4679, 263.3841
566.9500, 269.4720
567.4321, 275.5075
567.9142, 282.7596
568.3964, 291.2859
568.8785, 300.0665
569.3606, 308.9194
569.8427, 317.7520
570.3248, 326.5079
570.8069, 335.1578
571.2891, 343.9558
571.7712, 353.0211
572.2533, 362.0822
572.7354, 370.3698
573.2175, 377.9124
573.6996, 384.5658
574.1818, 391.3182
574.6639, 396.4015
575.1460, 398.3893
575.6281, 397.7934
576.1102, 396.1381
576.5923, 394.3792
577.0745, 391.8899
577.5566, 387.3175
578.0387, 380.6062
578.5208, 372.1470
579.0029, 361.7495
579.4850, 349.8578
579.9672, 336.5173
580.4493, 322.0201
580.9314, 307.5766
581.4135, 293.6563
581.8956, 279.9591
582.3777, 265.7662
582.8599, 251.4328
583.3420, 238.0437
583.8241, 225.9303
584.3062, 215.0284
584.7883, 205.3092
585.2704, 196.9220
585.7526, 189.0361
586.2347, 181.4048
586.7168, 174.4556
587.1989, 168.5159
587.6810, 163.3300
588.1631, 158.5084
588.6453, 153.9126
589.1274, 149.6265
589.6095, 145.7122
590.0916, 142.1127
590.5737, 139.4481
591.0558, 138.3374
591.5380, 137.2740
592.0201, 135.5802
592.5022, 133.4882
592.9843, 131.2190
593.4664, 128.6790
593.9485, 126.5619
594.4307, 125.5714
594.9128, 125.3972
595.3949, 125.4344
595.8770, 125.6077
596.3591, 125.5696
596.8412, 124.8860
597.3234, 123.7440
597.8055, 123.5436
598.2876, 124.8931
598.7697, 126.2207
599.2518, 127.2199
599.7339, 128.1227
600.2161, 129.0703
600.6982, 130.1349
601.1803, 131.4056
601.6624, 132.9328
602.1445, 134.7503
602.6266, 137.0205
603.1088, 139.8367
603.5909, 142.8361
604.0730, 145.8444
604.5551, 149.0660
605.0372, 152.7058
605.5193, 156.7397
606.0015, 160.7822
606.4836, 164.4676
606.9657, 168.2048
607.4478, 172.4118
607.9299, 177.0891
608.4120, 182.2410
608.8942, 187.8285
609.3763, 193.9689
609.8584, 201.0083
610.3405, 209.3426
610.8226, 217.0452
611.3047, 223.2495
611.7869, 229.7520
612.2690, 237.5630
612.7511, 246.1904
613.2332, 254.7851
613.7153, 263.0389
614.1974, 271.1674
614.6796, 279.3337
615.1617, 287.5477
615.6438, 296.7019
616.1259, 307.4036
616.6080, 318.1010
617.0901, 327.6477
617.5723, 336.8817
618.0544, 347.0132
618.5365, 358.3486
619.0186, 370.0985
619.5007, 381.9053
619.9828, 393.7916
620.4650, 405.8662
620.9471, 418.1245
621.4292, 430.3819
621.9113, 442.4603
622.3934, 454.5011
622.8755, 466.8678
623.3577, 480.1540
623.8398, 492.9200
624.3219, 505.3294
624.8040, 517.0123
625.2861, 527.6772
625.7682, 537.3139
626.2504, 546.2018
626.7325, 554.5459
627.2145, 561.9472
627.6967, 567.6337
628.1788, 571.5970
628.6609, 574.1633
629.1430, 575.1956
629.6251, 575.1884
630.1072, 575.0001
630.5894, 574.2704
631.0715, 571.2028
631.5536, 564.8967
632.0357, 556.8808
632.5178, 547.5667
632.9999, 537.1370
633.4821, 525.9650
633.9642, 514.1216
634.4463, 501.0144
634.9284, 486.0258
635.4105, 469.2047
635.8926, 452.0026
636.3748, 433.6989
636.8569, 416.3378
637.3390, 400.8168
637.8211, 385.8808
638.3032, 370.3491
638.7853, 354.3147
639.2675, 338.7577
639.7496, 324.2032
640.2317, 310.6833
640.7138, 298.3464
641.1959, 287.1565
641.6780, 276.0099
642.1602, 264.4882
642.6423, 252.9794
643.1244, 241.8835
643.6065, 231.2592
644.0886, 221.0501
644.5707, 211.2571
645.0529, 201.8972
645.5350, 192.8528
646.0171, 184.2576
646.4992, 176.3194
646.9813, 169.0981
647.4634, 162.3012
647.9456, 155.6013
648.4277, 149.0292
648.9098, 142.9394
649.3919, 137.3541
649.8740, 132.2556
650.3561, 127.8165
650.8383, 123.7896
651.3204, 119.9634
651.8025, 116.3304
652.2846, 112.9503
652.7667, 109.7475
653.2488, 106.8996
653.7310, 104.7564
654.2131, 103.1560
654.6952, 101.5772
655.1773, 99.80387
655.6594, 97.92998
656.1415, 96.06857
656.6237, 94.18376
657.1058, 92.50182
657.5879, 90.90964
658.0700, 89.66798
658.5521, 89.02170
659.0342, 88.68972
659.5164, 88.38194
659.9985, 88.02302
660.4806, 87.55511
660.9627, 86.65248
661.4448, 85.66977
661.9269, 85.60657
662.4091, 86.51569
662.8912, 87.27095
663.3733, 87.24494
663.8554, 86.87836
664.3375, 87.05433
664.8196, 88.00061
665.3018, 88.84879
665.7839, 89.57237
666.2660, 90.20675
666.7481, 90.57485
667.2302, 90.92216
667.7123, 91.76363
668.1945, 93.27585
668.6766, 94.85313
669.1587, 95.61222
669.6408, 95.62733
670.1229, 96.08707
670.6050, 97.14326
671.0872, 98.27565
671.5693, 99.23630
672.0514, 100.1057
672.5335, 100.9819
673.0156, 101.8274
673.4977, 102.8513
673.9799, 104.5064
674.4620, 106.0335
674.9441, 106.8831
675.4262, 107.0514
675.9083, 106.6044
676.3904, 105.5682
676.8726, 104.1965
677.3547, 102.8741
677.8368, 101.6081
678.3189, 100.3480
678.8010, 99.08140
679.2831, 97.82972
679.7653, 96.84573
680.2474, 95.76944
680.7295, 94.09016
681.2116, 91.69246
681.6937, 89.16392
682.1758, 86.70086
682.6580, 84.36649
683.1401, 82.21500
683.6222, 80.25713
684.1043, 78.51690
684.5864, 77.02412
685.0685, 75.63042
685.5507, 74.06187
686.0328, 72.24986
686.5149, 70.55390
686.9970, 68.69601
687.4791, 67.28890
687.9612, 66.86144
688.4434, 66.82400
688.9255, 66.42637
689.4076, 65.50131
689.8897, 64.50228
690.3718, 63.85935
690.8539, 63.35880
691.3361, 62.47956
691.8182, 61.23507
692.3003, 60.27714
692.7824, 59.95811
693.2645, 59.84977
693.7466, 59.20843
694.2288, 57.77518
694.7109, 56.90493
695.1930, 56.85703
695.6751, 57.02840
696.1572, 57.42600
696.6393, 57.81592
697.1215, 57.91967
697.6036, 57.67984
698.0857, 57.26077
698.5678, 56.69554
699.0499, 56.08038
699.5320, 55.79181
700.0142, 55.85673
700.4963, 55.58956
700.9784, 54.53267
701.4605, 53.40504
701.9426, 53.32019
702.4247, 54.48370
702.9069, 55.06386
703.3890, 54.45134
703.8711, 53.92773
704.3532, 54.08439
704.8353, 54.55643
705.3174, 55.02361
705.7996, 55.33484
706.2817, 55.21321
706.7638, 54.17862
707.2459, 52.66175
707.7280, 52.19838
708.2101, 52.93309
708.6923, 53.35090
709.1743, 52.89202
709.6564, 52.17026
710.1385, 51.79345
710.6207, 51.74551
711.1028, 51.85853
711.5849, 52.38178
712.0670, 52.75429
712.5491, 52.59088
713.0313, 52.26235
713.5134, 52.22477
713.9955, 52.50467
714.4776, 52.79675
714.9597, 52.86110
715.4418, 52.79685
715.9240, 52.90631
716.4061, 53.22295
716.8882, 53.38752
717.3703, 53.19756
717.8524, 53.05691
718.3345, 53.47573
718.8167, 54.23641
719.2988, 54.56020
719.7809, 53.99814
720.2630, 53.58462
720.7451, 53.74758
721.2272, 54.17142
721.7094, 54.68780
722.1915, 55.17334
722.6736, 55.34885
723.1557, 55.02026
723.6378, 54.46346
724.1199, 54.28035
724.6021, 54.51439
725.0842, 54.50526
725.5663, 53.96782
726.0484, 53.64042
726.5305, 54.31243
727.0126, 55.40376
727.4948, 55.62504
727.9769, 54.49844
728.4590, 53.79647
728.9411, 54.15191
729.4232, 55.04530
729.9053, 56.42358
730.3875, 57.93723
730.8696, 58.77657
731.3517, 58.61063
731.8338, 58.15990
732.3159, 58.53355
732.7980, 59.72902
733.2802, 60.46888
733.7623, 60.60466
734.2444, 60.70875
734.7265, 61.07093
735.2086, 61.48948
735.6907, 61.64541
736.1729, 61.51272
736.6550, 61.48510
737.1371, 61.41465
737.6192, 61.70551
738.1013, 62.90519
738.5834, 64.51611
739.0656, 65.82503
739.5477, 66.63410
740.0298, 66.98299
740.5119, 66.72665
740.9940, 66.14606
741.4761, 66.56451
741.9583, 68.18313
742.4404, 69.62388
742.9225, 70.44443
743.4046, 71.09142
743.8867, 72.12389
744.3688, 73.41993
744.8510, 74.23577
745.3331, 73.91787
745.8152, 73.85809
746.2973, 74.79209
746.7794, 76.01455
747.2615, 76.84935
747.7437, 77.24865
748.2258, 77.40403
748.7079, 77.36526
749.1900, 77.44546
749.6721, 78.43847
750.1542, 80.32241
750.6364, 81.52417
751.1185, 81.67223
751.6006, 81.75807
752.0827, 82.49296
752.5648, 83.57459
753.0469, 84.22109
753.5291, 84.52528
754.0112, 84.21786
754.4933, 82.68081
754.9754, 81.08835
755.4575, 80.12657
755.9396, 79.64384
756.4218, 79.29720
756.9039, 78.96630
757.3860, 78.69194
757.8681, 78.78055
758.3502, 78.95544
758.8323, 77.88252
759.3145, 75.47647
759.7966, 73.96746
760.2787, 74.43259
760.7608, 75.56023
761.2429, 75.65318
761.7250, 74.58669
762.2072, 73.95319
762.6893, 74.13335
763.1714, 74.22487
763.6535, 73.73806
764.1356, 73.27305
764.6177, 73.42354
765.0999, 74.16076
765.5820, 75.04837
766.0641, 75.88667
766.5462, 76.67142
767.0283, 77.36890
767.5104, 78.00742
767.9926, 78.66482
768.4747, 79.35460
768.9568, 80.10530
769.4389, 80.93096
769.9210, 81.83397
770.4031, 82.80571
770.8853, 83.93320
771.3674, 84.96629
771.8495, 86.07980
772.3316, 86.91761
772.8137, 87.22409
773.2958, 87.18904
773.7780, 87.04692
774.2601, 86.84200
774.7422, 86.73839
775.2243, 87.04969
775.7064, 87.38289
776.1885, 86.96302
776.6707, 86.08400
777.1528, 86.00827
777.6349, 87.17317
778.1170, 88.44479
778.5991, 88.38886
779.0812, 87.09097
779.5634, 86.35482
780.0455, 86.45695
780.5276, 86.50034
781.0097, 86.30556
781.4918, 85.95271
781.9739, 85.44188
782.4561, 84.81534
782.9382, 84.25833
783.4203, 83.85070
783.9024, 83.46297
784.3845, 82.73424
784.8666, 82.17892
785.3488, 82.79495
785.8309, 84.24184
786.3130, 84.91511
786.7951, 83.87685
787.2772, 82.30911
787.7593, 82.38783
788.2415, 84.06454
788.7236, 85.21647
789.2057, 85.62301
789.6878, 85.94530
790.1699, 86.45409
790.6520, 87.09608
791.1342, 87.82882
791.6162, 88.70988
792.0983, 89.34194
792.5804, 89.41181
793.0626, 89.56873
793.5447, 90.27479
794.0268, 91.08404
794.5089, 91.31062
794.9910, 91.00047
795.4731, 90.98938
795.9553, 91.90553
796.4374, 93.31455
796.9195, 94.74906
797.4016, 96.12846
797.8837, 96.91379
798.3658, 96.98797
798.8480, 97.18631
799.3301, 98.18933
799.8122, 99.68043
800.2943, 100.5731
800.7764, 100.5861
801.2585, 100.6125
801.7407, 100.5470
802.2228, 100.6187
802.7049, 100.9718
803.1870, 101.4917
803.6691, 102.0011
804.1512, 102.4632
804.6334, 103.0359
805.1155, 104.1083
805.5976, 105.0521
806.0797, 105.0471
806.5618, 104.5037
807.0439, 104.2822
807.5261, 104.6277
808.0082, 105.3526
808.4903, 106.3396
808.9724, 107.4923
809.4545, 108.4932
809.9366, 109.3846
810.4188, 109.8012
810.9009, 109.4529
811.3830, 109.0550
811.8651, 109.1044
812.3472, 109.5321
812.8293, 110.0774
813.3115, 110.8331
813.7936, 111.5025
814.2757, 111.9618
814.7578, 112.4024
815.2399, 112.8831
815.7220, 113.4438
816.2042, 114.1454
816.6863, 114.9974
817.1684, 115.9214
817.6505, 117.0364
818.1326, 118.0795
818.6147, 118.2519
819.0969, 117.7989
819.5790, 118.1193
820.0611, 119.6261
820.5432, 121.6588
821.0253, 123.6638
821.5074, 125.6001
821.9896, 127.0944
822.4717, 127.6846
822.9538, 128.9288
823.4359, 131.6845
823.9180, 134.3792
824.4001, 135.8858
824.8823, 136.7944
825.3644, 138.3508
825.8465, 140.9872
826.3286, 143.2432
826.8107, 143.8925
827.2928, 144.5625
827.7750, 146.8876
828.2571, 150.1682
828.7392, 152.8411
829.2213, 154.5172
829.7034, 156.1191
830.1855, 158.6473
830.6677, 161.6759
831.1498, 163.8618
831.6319, 165.2244
832.1140, 166.9620
832.5961, 169.4432
833.0782, 171.8245
833.5604, 173.2293
834.0425, 174.0616
834.5246, 176.1771
835.0067, 181.2889
835.4888, 184.7132
835.9709, 184.8857
836.4531, 185.1713
836.9352, 187.2864
837.4173, 190.3431
837.8994, 192.8530
838.3815, 194.5262
838.8636, 196.6356
839.3458, 199.8649
839.8279, 203.7903
840.3100, 208.3629
840.7921, 213.2454
841.2742, 217.6982
841.7563, 221.6419
842.2385, 225.8029
842.7206, 230.7592
843.2027, 236.2183
843.6848, 241.2639
844.1669, 245.8440
844.6490, 251.4099
845.1312, 258.2921
845.6133, 265.4560
846.0954, 272.1588
846.5775, 278.8012
847.0596, 286.2398
847.5417, 294.5871
848.0239, 303.3524
848.5060, 312.6323
848.9881, 322.2220
849.4702, 331.8372
849.9523, 341.9210
850.4344, 353.0168
850.9166, 365.1071
851.3987, 377.6951
851.8808, 390.9845
852.3629, 404.1884
852.8450, 416.5451
853.3271, 428.5319
853.8093, 440.7151
854.2914, 453.2328
854.7735, 466.5695
855.2556, 480.8847
855.7377, 495.9507
856.2198, 511.4419
856.7020, 527.3571
857.1841, 542.8929
857.6662, 557.8984
858.1483, 573.1008
858.6304, 589.0810
859.1125, 604.6466
859.5947, 618.2259
860.0768, 629.7776
860.5589, 642.0340
861.0410, 656.2086
861.5231, 669.3378
862.0052, 681.3280
862.4874, 692.0051
862.9695, 700.7903
863.4516, 708.2908
863.9337, 716.1855
864.4158, 725.5012
864.8979, 732.2778
865.3801, 732.6526
865.8622, 730.3792
866.3443, 729.6307
866.8264, 729.5997
867.3085, 727.9857
867.7906, 724.0791
868.2728, 718.2188
868.7549, 710.5526
869.2370, 701.4372
869.7191, 691.6609
870.2012, 681.2439
870.6833, 670.7803
871.1655, 660.4753
871.6476, 649.3638
872.1297, 636.6325
872.6118, 622.9911
873.0939, 610.3903
873.5760, 599.7083
874.0581, 587.4812
874.5402, 572.2082
875.0223, 557.2812
875.5045, 544.1072
875.9866, 531.4167
876.4687, 517.5608
876.9508, 502.6903
877.4329, 488.3162
877.9150, 475.0468
878.3972, 462.3566
878.8793, 450.3331
879.3614, 438.4942
879.8435, 425.9879
880.3256, 413.1584
880.8077, 401.0064
881.2899, 389.9686
881.7720, 379.9029
882.2541, 370.9571
882.7362, 362.7515
883.2183, 354.1729
883.7004, 345.2678
884.1826, 336.6034
884.6647, 328.3440
885.1468, 320.8512
885.6289, 314.6641
886.1110, 309.4617
886.5931, 303.5116
887.0753, 296.3954
887.5574, 289.7716
888.0395, 283.8449
888.5216, 278.3122
889.0037, 272.7121
889.4858, 267.4875
889.9680, 263.5478
890.4501, 261.1820
890.9322, 258.3687
891.4143, 253.9368
891.8964, 250.0515
892.3785, 247.9319
892.8607, 246.5967
893.3428, 244.8269
893.8249, 242.7672
894.3070, 241.6491
894.7891, 242.3021
895.2712, 243.2700
895.7534, 243.2502
896.2355, 242.7017
896.7176, 242.0693
897.1997, 241.5729
897.6818, 241.8189
898.1639, 243.0171
898.6461, 244.6136
899.1282, 246.1717
899.6103, 247.5047
900.0924, 247.6651
900.5745, 246.5996
901.0566, 245.7495
901.5388, 245.6978
902.0209, 244.6440
902.5030, 241.2132
902.9851, 235.8939
903.4672, 229.9911
903.9493, 223.1353
904.4315, 216.6620
904.9136, 210.6053
905.3957, 204.8866
905.8778, 200.0189
906.3599, 195.1192
906.8420, 189.0465
907.3242, 181.9861
907.8063, 175.6148
908.2884, 170.7282
908.7705, 166.0860
909.2526, 161.3916
909.7347, 156.6633
910.2169, 151.5562
910.6990, 146.4986
911.1811, 142.3368
911.6632, 139.3663
912.1453, 137.0365
912.6274, 135.2991
913.1096, 133.6333
913.5917, 130.9848
914.0738, 127.7794
914.5559, 125.2294
915.0380, 123.5712
915.5201, 122.3785
916.0023, 121.3810
916.4844, 120.4597
916.9665, 119.2672
917.4486, 117.8064
917.9307, 116.8492
918.4128, 116.6018
918.8950, 115.6530
919.3771, 113.0780
919.8592, 110.3666
920.3413, 109.5377
920.8234, 110.5230
921.3055, 110.5073
921.7877, 108.8291
922.2698, 107.3195
922.7519, 105.9658
923.2340, 105.0446
923.7161, 105.0174
924.1982, 105.4215
924.6804, 105.3644
925.1625, 104.6450
925.6446, 104.2325
926.1267, 104.8560
926.6088, 105.2694
927.0909, 104.4382
927.5731, 103.3443
928.0552, 103.1809
928.5373, 103.8650
929.0194, 104.4801
929.5015, 104.5681
929.9836, 104.6120
930.4658, 104.8102
930.9479, 105.3565
931.4300, 107.0326
931.9121, 109.2808
932.3942, 110.3521
932.8763, 109.7703
933.3585, 108.5553
933.8406, 107.4410
934.3227, 106.6873
934.8048, 107.2296
935.2869, 108.8861
935.7690, 109.9059
936.2512, 110.0170
936.7333, 110.2894
937.2154, 111.3850
937.6975, 112.6521
938.1796, 112.9323
938.6617, 112.1654
939.1439, 111.7812
939.6260, 111.8405
940.1081, 112.1529
940.5902, 113.0018
941.0723, 113.6328
941.5544, 113.4676
942.0366, 112.6205
942.5187, 111.4564
943.0008, 109.9284
943.4829, 108.2087
943.9650, 106.2268
944.4471, 104.1483
944.9293, 102.0386
945.4114, 99.86066
945.8935, 97.69547
946.3756, 95.46424
946.8577, 92.73915
947.3398, 88.83074
947.8220, 85.39080
948.3041, 83.44035
948.7862, 82.13654
949.2683, 81.06361
949.7504, 79.93996
950.2325, 78.24192
950.7147, 75.89809
951.1968, 73.70571
951.6789, 72.32079
952.1610, 71.30846
952.6431, 70.12366
953.1252, 68.88420
953.6074, 67.84168
954.0895, 67.01102
954.5716, 66.38412
955.0537, 65.96288
955.5358, 65.25672
956.0179, 63.24819
956.5000, 60.38248
956.9821, 58.85335
957.4642, 58.59767
957.9464, 58.19683
958.4285, 57.28522
958.9106, 56.54079
959.3927, 56.52335
959.8748, 56.94085
960.3569, 57.03533
960.8391, 56.76709
961.3212, 56.37538
961.8033, 55.79945
962.2854, 55.27530
962.7675, 54.88124
963.2496, 54.58606
963.7318, 54.42440
964.2139, 54.35229
964.6960, 54.02391
965.1781, 53.17787
965.6602, 52.50602
966.1423, 51.79688
966.6245, 51.51073
967.1066, 52.21683
967.5887, 53.22217
968.0708, 53.74145
968.5529, 53.72324
969.0350, 53.32101
969.5172, 52.25725
969.9993, 51.22876
970.4814, 50.20790
970.9635, 49.53770
971.4456, 49.81972
971.9277, 50.54321
972.4099, 50.72705
972.8920, 50.13756
973.3741, 49.43721
973.8562, 49.01172
974.3383, 48.60392
974.8204, 47.82664
975.3026, 47.05292
975.7847, 46.93789
976.2668, 47.33667
976.7489, 47.55214
977.2310, 47.27270
977.7131, 46.84397
978.1953, 46.56127
978.6774, 46.39090
979.1595, 46.37623
979.6416, 46.41256
980.1237, 46.14251
980.6058, 45.53304
981.0880, 44.91252
981.5701, 44.49401
982.0522, 44.17207
982.5343, 43.67156
983.0164, 43.09574
983.4985, 43.19685
983.9807, 43.94961
984.4628, 44.18938
984.9449, 43.53354
985.4270, 42.82331
985.9091, 42.80971
986.3912, 43.23753
986.8734, 43.36445
987.3555, 43.17781
987.8376, 42.69476
988.3197, 41.74717
988.8018, 41.23425
989.2839, 41.67115
989.7661, 42.28123
990.2482, 42.18201
990.7303, 41.49099
991.2124, 41.06926
991.6945, 41.00838
992.1766, 41.02279
992.6588, 41.34746
993.1409, 41.35209
993.6230, 40.41508
994.1051, 39.26762
994.5872, 38.89978
995.0693, 39.30129
995.5515, 39.68913
996.0336, 40.14555
996.5157, 40.45211
996.9978, 40.84676
997.4799, 40.80251
997.9620, 39.44131
998.4442, 37.75714
998.9263, 37.34298
999.4084, 38.35622
999.8905, 39.23532
1000.373, 39.76472
1000.855, 39.87611
1001.337, 39.14217
1001.819, 38.34307
1002.301, 38.12008
1002.783, 38.30255
1003.265, 38.57572
1003.747, 38.85807
1004.230, 38.80466
1004.712, 37.85070
1005.194, 36.96038
1005.676, 36.92749
1006.158, 37.18407
1006.640, 36.97614
1007.122, 36.45858
1007.604, 36.31701
1008.086, 36.78739
1008.569, 37.19087
1009.051, 36.83487
1009.533, 36.29921
1010.015, 36.28790
1010.497, 36.51615
1010.979, 36.40827
1011.461, 36.00797
1011.943, 35.82153
1012.426, 36.08630
1012.908, 36.45705
1013.390, 36.49113
1013.872, 36.42575
1014.354, 36.88092
1014.836, 37.58654
1015.318, 37.60341
1015.800, 36.90405
1016.282, 36.43937
1016.765, 36.76143
1017.247, 37.32869
1017.729, 37.42986
1018.211, 37.13793
1018.693, 36.54547
1019.175, 35.74831
1019.657, 35.43159
1020.139, 35.72192
1020.622, 36.08652
1021.104, 36.18751
1021.586, 36.08654
1022.068, 35.87386
1022.550, 35.55520
1023.032, 34.99305
1023.514, 34.17096
1023.996, 34.45554
1024.478, 36.31382
1024.961, 37.85385
1025.443, 37.63271
1025.925, 36.43371
1026.407, 36.09526
1026.889, 36.69413
1027.371, 36.43247
1027.853, 35.10646
1028.335, 34.09054
1028.818, 33.74942
1029.300, 33.79209
1029.782, 34.10113
1030.264, 34.47554
1030.746, 34.31115
1031.228, 34.36275
1031.710, 34.38082
1032.192, 33.78379
1032.674, 34.00869
1033.156, 33.22704
1033.639, 32.43355
1034.121, 32.47972
1034.603, 33.07917
1035.085, 33.37844
1035.567, 33.22562
1036.049, 33.36443
1036.531, 33.98377
1037.013, 34.54866
1037.496, 35.11592
1037.978, 35.31089
1038.460, 34.50927
1038.942, 33.17480
1039.424, 32.82988
1039.906, 33.99515
1040.388, 34.56948
1040.870, 34.11470
1041.353, 33.69910
1041.835, 33.52884
1042.317, 33.53691
1042.799, 33.84080
1043.281, 34.26911
1043.763, 34.26698
1044.245, 33.59222
1044.727, 33.20573
1045.209, 33.36834
1045.692, 33.52835
1046.174, 33.61541
1046.656, 33.57837
1047.138, 33.26015
1047.620, 32.80303
1048.102, 32.62349
1048.584, 32.88378
1049.066, 32.92626
1049.548, 32.43606
1050.031, 32.01665
1050.513, 31.84086
1050.995, 31.82790
1051.477, 32.07232
1051.959, 32.39106
1052.441, 32.28654
1052.923, 31.55502
1053.405, 31.09720
1053.888, 31.23059
1054.370, 31.50247
1054.852, 31.85525
1055.334, 32.17868
1055.816, 32.50830
1056.298, 32.71186
1056.780, 32.39539
1057.262, 31.37833
1057.745, 30.72680
1058.227, 30.94809
1058.709, 31.32345
1059.191, 31.77548
1059.673, 32.06576
1060.155, 31.83658
1060.637, 31.34198
1061.119, 31.19306
1061.601, 31.54017
1062.083, 31.69958
1062.566, 31.18866
1063.048, 30.76326
1063.530, 30.94097
1064.012, 31.17794
1064.494, 30.82730
1064.976, 30.22756
1065.458, 30.17529
1065.940, 30.82672
1066.423, 31.39232
1066.905, 31.63752
1067.387, 31.63930
1067.869, 31.26195
1068.351, 30.81316
1068.833, 30.43639
1069.315, 30.23088
1069.797, 30.44379
1070.280, 31.07782
1070.762, 31.45310
1071.244, 31.12810
1071.726, 30.69634
1072.208, 30.30104
1072.690, 30.03181
1073.172, 30.09270
1073.654, 30.26712
1074.136, 30.11906
1074.619, 29.63609
1075.101, 29.37593
1075.583, 29.77033
1076.065, 30.08056
1076.547, 29.83383
1077.029, 29.48460
1077.511, 29.35271
1077.993, 29.37167
1078.475, 29.39277
1078.958, 29.41007
1079.440, 29.56714
1079.922, 30.09682
1080.404, 30.36547
1080.886, 29.72416
1081.368, 29.08213
1081.850, 29.15555
1082.332, 29.58847
1082.814, 29.97939
1083.297, 30.22253
1083.779, 30.19839
1084.261, 29.76188
1084.743, 29.40582
1085.225, 29.38252
1085.707, 29.48343
1086.189, 29.77741
1086.671, 29.97365
1087.154, 29.55600
1087.636, 28.74943
1088.118, 28.39381
1088.600, 28.80772
1089.082, 29.22125
1089.564, 29.29452
1090.046, 29.30811
1090.528, 29.49053
1091.010, 29.63088
1091.493, 29.48073
1091.975, 29.11365
1092.457, 28.68429
1092.939, 28.19899
1093.421, 28.02638
1093.903, 28.67531
1094.385, 29.18289
1094.867, 28.94444
1095.349, 28.53830
1095.832, 28.42616
1096.314, 28.52673
1096.796, 28.62142
1097.278, 28.67353
1097.760, 28.75858
1098.242, 28.96375
1098.724, 29.11631
1099.206, 29.34482
1099.689, 29.31122
1100.171, 28.40235
1100.653, 27.29812
1101.135, 27.09433
1101.617, 27.79574
1102.099, 28.28657
1102.581, 28.38088
1103.063, 28.11482
1103.546, 26.83357
1104.028, 25.96147
1104.510, 26.64722
1104.992, 27.85226
1105.474, 28.39794
1105.956, 28.34744
1106.438, 28.42809
1106.920, 28.95434
1107.402, 29.07945
1107.885, 28.13645
1108.367, 27.46169
1108.849, 27.87506
1109.331, 28.46176
1109.813, 28.35799
1110.295, 27.78758
1110.777, 27.42515
1111.259, 27.31821
1111.741, 27.40262
1112.224, 28.03555
1112.706, 28.35083
1113.188, 27.85083
1113.670, 27.31005
1114.152, 27.20510
1114.634, 27.39649
1115.116, 27.71551
1115.598, 28.20128
1116.081, 28.32278
1116.563, 27.78200
1117.045, 27.40221
1117.527, 27.60147
1118.009, 27.44850
1118.491, 25.96085
1118.973, 24.43809
1119.455, 24.70143
1119.938, 26.51075
1120.420, 27.61180
1120.902, 27.76916
1121.384, 27.75561
1121.866, 27.40008
1122.348, 27.32668
1122.830, 27.96837
1123.312, 28.55549
1123.794, 28.27034
1124.276, 28.54730
1124.759, 28.48270
1125.241, 28.03360
1125.723, 28.06341
1126.205, 27.15995
1126.687, 26.49778
1127.169, 26.38694
1127.651, 26.41537
1128.133, 26.28878
1128.616, 26.19757
1129.098, 26.55557
1129.580, 27.31191
1130.062, 27.57873
1130.544, 27.32292
1131.026, 26.87845
1131.508, 26.25234
1131.990, 25.88944
1132.473, 26.02307
1132.955, 26.33011
1133.437, 26.41553
1133.919, 26.39240
1134.401, 26.74491
1134.883, 26.84772
1135.365, 26.95173
1135.847, 27.30621
1136.329, 27.17131
1136.812, 27.40328
1137.294, 27.54266
1137.776, 27.20872
1138.258, 26.67062
1138.740, 26.43325
1139.222, 26.38272
1139.704, 26.01153
1140.186, 26.12368
1140.668, 25.52957
1141.151, 26.22418
1141.633, 26.76089
1142.115, 26.73812
1142.597, 26.45898
1143.079, 26.12714
1143.561, 25.87484
1144.043, 26.08045
1144.525, 26.46202
1145.008, 26.35258
1145.490, 25.87821
1145.972, 25.63159
1146.454, 25.78564
1146.936, 26.10400
1147.418, 26.53371
1147.900, 26.81845
1148.382, 26.55215
1148.865, 26.14400
1149.347, 26.14109
1149.829, 26.31402
1150.311, 26.14081
1150.793, 25.66075
1151.275, 25.39886
1151.757, 25.59074
1152.239, 25.87474
1152.721, 26.09258
1153.203, 26.27964
1153.686, 26.45231
1154.168, 26.61119
1154.650, 26.79203
1155.132, 26.94802
1155.614, 26.97821
1156.096, 26.86355
1156.578, 26.68417
1157.060, 26.38700
1157.543, 26.13874
1158.025, 26.05222
1158.507, 25.95108
1158.989, 25.33460
1159.471, 24.90921
1159.953, 26.02171
1160.435, 28.34111
1160.917, 29.25203
1161.400, 27.82384
1161.882, 26.67321
1162.364, 25.82768
1162.846, 25.25330
1163.328, 24.84415
1163.810, 24.86273
1164.292, 25.76757
1164.774, 27.02009
1165.256, 27.46256
1165.739, 27.04659
1166.221, 26.61206
1166.703, 26.08769
1167.185, 25.83720
1167.667, 25.95740
1168.149, 26.16173
1168.631, 26.31857
1169.113, 26.53116
1169.595, 26.96866
1170.078, 26.90054
1170.560, 27.44270
1171.042, 26.88337
1171.524, 26.56009
1172.006, 26.49543
1172.488, 26.31971
1172.970, 25.94546
1173.452, 25.81167
1173.934, 26.22796
1174.417, 26.75542
1174.899, 26.68224
1175.381, 26.27394
1175.863, 26.21540
1176.345, 26.43387
1176.827, 26.83615
1177.309, 27.30817
1177.791, 27.48641
1178.274, 27.26068
1178.756, 26.80639
1179.238, 26.05875
1179.720, 25.62821
1180.202, 26.67870
1180.684, 28.00653
1181.166, 28.00269
1181.648, 27.21959
1182.130, 26.58289
1182.613, 26.28808
1183.095, 26.34979
1183.577, 26.82664
1184.059, 27.17622
1184.541, 26.92817
1185.023, 26.71633
1185.505, 27.04008
1185.987, 27.39424
1186.469, 27.22136
1186.952, 26.83930
1187.434, 26.88944
1187.916, 27.39532
1188.398, 27.68982
1188.880, 27.60855
1189.362, 27.41612
1189.844, 27.06183
1190.326, 26.69676
1190.809, 26.19673
1191.291, 25.91021
1191.773, 26.34945
1192.255, 25.93699
1192.737, 26.95474
1193.219, 25.86125
1193.701, 25.33330
1194.183, 25.47587
1194.666, 25.85336
1195.148, 26.51264
1195.630, 26.94631
1196.112, 26.90979
1196.594, 26.57312
1197.076, 26.04715
1197.558, 25.52018
1198.040, 25.65275
1198.522, 26.34479
1199.005, 26.79913
1199.487, 26.96960
1199.969, 26.64466
1200.451, 25.84219
1200.933, 25.05717
1201.415, 24.55730
1201.897, 24.51099
1202.379, 25.46385
1202.861, 26.60629
1203.344, 26.66376
1203.826, 25.97918
1204.308, 24.66134
1204.790, 23.26581
1205.272, 23.10540
1205.754, 24.26872
1206.236, 25.48611
1206.718, 26.22203
1207.201, 26.57516
1207.683, 26.30030
1208.165, 26.01217
1208.647, 26.34582
1209.129, 26.68558
1209.611, 26.18698
1210.093, 25.25878
1210.575, 24.94297
1211.057, 25.39839
1211.540, 25.59814
1212.022, 25.03036
1212.504, 24.77025
1212.986, 25.39581
1213.468, 25.71372
1213.950, 24.92901
1214.432, 24.16114
1214.914, 24.56975
1215.396, 25.65589
1215.879, 26.05767
1216.361, 25.73341
1216.843, 25.17833
1217.325, 24.29704
1217.807, 23.84915
1218.289, 23.96751
1218.771, 24.42710
1219.253, 25.16269
1219.736, 25.81761
1220.218, 26.04365
1220.700, 25.87198
1221.182, 25.11084
1221.664, 24.06979
1222.146, 23.88592
1222.628, 24.34818
1223.110, 24.59681
1223.593, 24.52706
1224.075, 24.53497
1224.557, 24.79394
1225.039, 25.05803
1225.521, 25.04309
1226.003, 25.05914
1226.485, 25.69731
1226.967, 26.21864
1227.449, 25.42343
1227.932, 24.22533
1228.414, 24.30166
1228.896, 25.50241
1229.378, 26.09856
1229.860, 25.44038
1230.342, 25.09308
1230.824, 25.94295
1231.306, 26.40158
1231.788, 25.45309
1232.271, 24.62772
1232.753, 25.02287
1233.235, 25.83845
1233.717, 26.03498
1234.199, 25.69666
1234.681, 25.31882
1235.163, 24.78724
1235.645, 24.86752
1236.128, 25.72223
1236.610, 26.20866
1237.092, 26.02917
1237.574, 25.73065
1238.056, 25.63242
1238.538, 25.63688
1239.020, 25.65302
1239.502, 25.62407
1239.984, 25.28704
1240.467, 24.81961
1240.949, 24.84201
1241.431, 25.19676
1241.913, 25.20027
1242.395, 24.79196
1242.877, 24.55582
1243.359, 24.79952
1243.841, 25.06298
1244.323, 25.01026
1244.806, 24.84540
1245.288, 24.76405
1245.770, 24.60007
1246.252, 23.89879
1246.734, 23.16805
1247.216, 23.35454
1247.698, 24.40382
1248.180, 25.24730
1248.662, 25.83931
1249.145, 25.96758
1249.627, 25.40573
1250.109, 24.70731
1250.591, 23.64073
1251.073, 23.11484
1251.555, 23.86711
1252.037, 25.05057
1252.519, 25.53035
1253.002, 25.42243
1253.484, 25.20096
1253.966, 24.87128
1254.448, 24.80783
1254.930, 24.98086
1255.412, 24.58132
1255.894, 23.53407
1256.376, 23.07466
1256.859, 23.86502
1257.341, 24.80223
1257.823, 24.70710
1258.305, 24.19262
1258.787, 23.95648
1259.269, 23.88846
1259.751, 23.93058
1260.233, 23.97898
1260.715, 23.80719
1261.198, 23.48119
1261.680, 23.38631
1262.162, 23.68305
1262.644, 23.85278
1263.126, 23.49582
1263.608, 23.33611
1264.090, 23.85888
1264.572, 24.30275
1265.054, 24.02357
1265.537, 23.71139
1266.019, 24.19626
1266.501, 25.18225
1266.983, 25.69118
1267.465, 25.71142
1267.947, 25.24735
1268.429, 24.22279
1268.911, 23.64384
1269.394, 23.66741
1269.876, 23.82983
1270.358, 23.93891
1270.840, 23.94430
1271.322, 23.76182
1271.804, 23.60962
1272.286, 24.03007
1272.768, 24.55367
1273.250, 24.15768
1273.733, 23.39131
1274.215, 23.31093
1274.697, 23.80053
1275.179, 24.21438
1275.661, 24.37642
1276.143, 24.34389
1276.625, 24.01987
1277.107, 23.74404
1277.589, 23.46802
1278.072, 23.46814
1278.554, 24.22425
1279.036, 24.93166
1279.518, 24.77902
1280.000, 24.33244
1280.482, 24.66313
1280.964, 25.65278
1281.446, 25.72257
1281.929, 24.71193
1282.411, 24.01875
1282.893, 23.70972
1283.375, 23.89965
1283.857, 24.60557
1284.339, 25.29694
1284.821, 25.67791
1285.303, 25.56551
1285.786, 24.78649
1286.268, 23.33053
##END=



