##NAMES=Simpsonite
##RRUFFID=R050629
##IDEAL CHEMISTRY=Al_4_Ta^5+^_3_O_13_(OH)
##LOCALITY=Equador, Rio Grande do Norte, Brazil
##OWNER=RRUFF
##SOURCE=Gemological Center
##DESCRIPTION=Yellow fragment
##STATUS=The identification of this mineral has been confirmed by X-ray diffraction and chemical analysis
##URL=rruff.info/R050629
##MEASURED CHEMISTRY=Al_4.00_(Ta_2.93_Nb_0.07_)_Î£=3_O_13_(OH)
91.11523, 43.82899
91.59735, 44.43236
92.07947, 43.90109
92.56158, 42.58567
93.04370, 41.58971
93.52582, 41.92287
94.00793, 42.99294
94.49006, 43.45186
94.97218, 43.03676
95.45429, 42.26710
95.93641, 41.88692
96.41853, 41.89203
96.90064, 42.11167
97.38276, 42.51526
97.86488, 43.07966
98.34699, 43.60841
98.82911, 44.16561
99.31123, 44.61480
99.79334, 44.24242
100.2755, 42.77454
100.7576, 41.44675
101.2397, 41.61084
101.7218, 43.66880
102.2039, 45.28435
102.6861, 45.82153
103.1682, 45.29899
103.6503, 45.23865
104.1324, 45.89120
104.6145, 46.72808
105.0966, 47.07002
105.5788, 46.52458
106.0609, 46.16213
106.5430, 46.31679
107.0251, 47.19355
107.5072, 47.83955
107.9893, 47.88823
108.4715, 47.80119
108.9536, 48.40822
109.4357, 50.37110
109.9178, 52.44419
110.3999, 54.24456
110.8820, 55.41546
111.3642, 56.87475
111.8463, 58.58528
112.3284, 60.60254
112.8105, 63.08022
113.2926, 66.37587
113.7747, 69.94839
114.2569, 73.46301
114.7390, 75.66725
115.2211, 79.21307
115.7032, 84.88001
116.1853, 92.46965
116.6674, 100.9366
117.1496, 109.4981
117.6317, 119.1161
118.1138, 130.4886
118.5959, 142.8885
119.0780, 157.9696
119.5602, 175.8584
120.0423, 196.7862
120.5244, 222.0835
121.0065, 250.6604
121.4886, 284.4720
121.9707, 326.2879
122.4529, 377.3457
122.9350, 436.3383
123.4171, 505.3217
123.8992, 585.2267
124.3813, 664.0725
124.8634, 736.2748
125.3456, 800.3673
125.8277, 853.2263
126.3098, 884.4274
126.7919, 905.5623
127.2740, 933.6287
127.7561, 970.7947
128.2383, 1011.634
128.7204, 1048.450
129.2025, 1082.523
129.6846, 1120.570
130.1667, 1167.026
130.6488, 1220.241
131.1310, 1277.820
131.6131, 1339.135
132.0952, 1405.242
132.5773, 1478.296
133.0594, 1558.681
133.5415, 1643.991
134.0237, 1732.626
134.5058, 1825.247
134.9879, 1924.213
135.4700, 2029.647
135.9521, 2142.413
136.4343, 2264.769
136.9164, 2394.419
137.3985, 2545.307
137.8806, 2727.779
138.3627, 2943.028
138.8448, 3194.093
139.3270, 3482.538
139.8091, 3810.671
140.2912, 4187.005
140.7733, 4623.104
141.2554, 5093.069
141.7375, 5609.081
142.2197, 6277.587
142.7018, 6715.141
143.1839, 6798.555
143.6660, 6506.621
144.1481, 6192.941
144.6302, 5866.463
145.1124, 5512.773
145.5945, 5118.681
146.0766, 4663.240
146.5587, 4190.658
147.0408, 3692.476
147.5230, 3135.411
148.0051, 2685.028
148.4872, 2356.434
148.9693, 2118.474
149.4514, 1941.996
149.9335, 1857.996
150.4157, 1798.447
150.8978, 1746.923
151.3799, 1703.090
151.8620, 1665.578
152.3441, 1632.882
152.8262, 1606.105
153.3084, 1588.273
153.7905, 1584.797
154.2726, 1585.448
154.7547, 1586.447
155.2368, 1585.823
155.7189, 1588.227
156.2011, 1595.072
156.6832, 1605.288
157.1653, 1616.173
157.6474, 1626.575
158.1295, 1637.873
158.6116, 1650.328
159.0938, 1659.432
159.5759, 1675.824
160.0580, 1700.456
160.5401, 1733.832
161.0222, 1778.068
161.5044, 1824.845
161.9865, 1887.475
162.4686, 1974.797
162.9507, 2089.155
163.4328, 2227.666
163.9149, 2391.664
164.3971, 2580.922
164.8792, 2787.775
165.3613, 3032.485
165.8434, 3283.087
166.3255, 3512.994
166.8076, 3810.552
167.2898, 3999.067
167.7719, 3961.098
168.2540, 3711.534
168.7361, 3370.758
169.2182, 2923.103
169.7003, 2449.218
170.1825, 2045.526
170.6646, 1757.668
171.1467, 1545.340
171.6288, 1383.981
172.1109, 1273.747
172.5931, 1190.738
173.0752, 1127.310
173.5573, 1078.749
174.0394, 1037.321
174.5215, 1003.271
175.0036, 973.3073
175.4858, 944.6269
175.9679, 916.9181
176.4500, 890.9185
176.9321, 866.8157
177.4142, 844.5090
177.8963, 824.1863
178.3785, 804.9661
178.8606, 787.7214
179.3427, 774.3641
179.8248, 764.8052
180.3069, 758.2804
180.7890, 755.5482
181.2712, 755.6051
181.7533, 755.2985
182.2354, 753.1321
182.7175, 749.5840
183.1996, 745.3849
183.6818, 740.3262
184.1639, 735.6067
184.6460, 733.0230
185.1281, 732.1771
185.6102, 730.8396
186.0923, 727.6993
186.5745, 723.1942
187.0566, 719.2479
187.5387, 716.2944
188.0208, 712.4628
188.5029, 704.2457
188.9850, 692.0117
189.4672, 679.7968
189.9493, 669.1035
190.4314, 659.9991
190.9135, 652.2931
191.3956, 645.9832
191.8777, 641.1776
192.3599, 637.8941
192.8420, 636.1490
193.3241, 635.8123
193.8062, 637.2172
194.2883, 640.2279
194.7704, 643.1660
195.2526, 645.8217
195.7347, 648.5702
196.2168, 652.2423
196.6989, 656.8950
197.1810, 661.6138
197.6632, 666.2333
198.1453, 670.7826
198.6274, 673.5922
199.1095, 673.8411
199.5916, 673.3381
200.0737, 675.8317
200.5559, 681.5554
201.0380, 688.7742
201.5201, 696.4929
202.0022, 704.7277
202.4843, 714.7419
202.9664, 727.4965
203.4486, 741.1899
203.9307, 751.1024
204.4128, 756.2170
204.8949, 761.3621
205.3770, 769.3030
205.8591, 780.4210
206.3413, 791.4833
206.8234, 802.0577
207.3055, 812.6547
207.7876, 824.7404
208.2697, 838.5084
208.7519, 852.8668
209.2340, 867.0499
209.7161, 880.6446
210.1982, 896.2598
210.6803, 914.6754
211.1624, 934.8176
211.6446, 954.7908
212.1267, 976.2153
212.6088, 993.1601
213.0909, 1001.840
213.5730, 1000.317
214.0551, 997.7004
214.5373, 993.0349
215.0194, 988.1833
215.5015, 987.8891
215.9836, 991.5019
216.4657, 1001.125
216.9478, 1018.303
217.4300, 1044.179
217.9121, 1074.189
218.3942, 1108.389
218.8763, 1146.258
219.3584, 1186.808
219.8405, 1231.921
220.3227, 1275.668
220.8048, 1317.221
221.2869, 1362.689
221.7690, 1389.273
222.2511, 1394.978
222.7333, 1381.552
223.2154, 1351.994
223.6975, 1298.292
224.1796, 1241.506
224.6617, 1190.778
225.1438, 1145.584
225.6260, 1108.186
226.1081, 1079.504
226.5902, 1058.570
227.0723, 1043.594
227.5544, 1034.845
228.0365, 1031.399
228.5187, 1033.220
229.0008, 1041.849
229.4829, 1051.872
229.9650, 1062.958
230.4471, 1075.515
230.9292, 1090.611
231.4114, 1108.252
231.8935, 1128.726
232.3756, 1151.712
232.8577, 1176.954
233.3398, 1205.831
233.8220, 1236.770
234.3041, 1271.887
234.7862, 1315.488
235.2683, 1367.797
235.7504, 1427.885
236.2325, 1496.032
236.7147, 1570.142
237.1968, 1655.248
237.6789, 1753.516
238.1610, 1861.957
238.6431, 1976.120
239.1252, 2109.961
239.6074, 2230.363
240.0895, 2328.737
240.5716, 2412.066
241.0537, 2449.519
241.5358, 2428.895
242.0179, 2368.331
242.5001, 2300.602
242.9822, 2217.986
243.4643, 2140.491
243.9464, 2074.238
244.4285, 2018.475
244.9106, 1976.001
245.3928, 1947.632
245.8749, 1931.602
246.3570, 1924.643
246.8391, 1925.172
247.3212, 1937.411
247.8034, 1962.803
248.2855, 2001.977
248.7676, 2051.808
249.2497, 2109.833
249.7318, 2180.538
250.2139, 2269.905
250.6961, 2376.080
251.1782, 2504.844
251.6603, 2659.236
252.1424, 2841.175
252.6245, 3042.752
253.1066, 3271.390
253.5888, 3514.528
254.0709, 3761.673
254.5530, 4019.511
255.0351, 4272.095
255.5172, 4539.032
255.9993, 4837.897
256.4815, 4983.481
256.9636, 4971.394
257.4457, 4809.512
257.9278, 4478.888
258.4099, 3892.246
258.8921, 3331.461
259.3742, 2843.263
259.8563, 2431.271
260.3384, 2113.126
260.8205, 1912.486
261.3026, 1778.490
261.7848, 1665.865
262.2669, 1584.327
262.7490, 1499.144
263.2311, 1399.886
263.7132, 1288.153
264.1953, 1196.392
264.6775, 1126.688
265.1596, 1074.782
265.6417, 1038.311
266.1238, 1019.302
266.6059, 1009.290
267.0880, 1008.964
267.5702, 1016.992
268.0523, 1024.547
268.5344, 1031.866
269.0165, 1038.412
269.4986, 1043.531
269.9807, 1046.767
270.4629, 1050.687
270.9450, 1055.246
271.4271, 1060.834
271.9092, 1068.874
272.3913, 1079.551
272.8734, 1092.140
273.3556, 1105.990
273.8377, 1120.913
274.3198, 1138.250
274.8019, 1158.294
275.2840, 1180.893
275.7661, 1205.537
276.2483, 1231.777
276.7304, 1261.626
277.2125, 1294.550
277.6946, 1330.303
278.1768, 1374.439
278.6589, 1427.465
279.1410, 1488.799
279.6231, 1558.051
280.1052, 1636.445
280.5873, 1719.233
281.0695, 1804.257
281.5516, 1891.848
282.0337, 1981.255
282.5158, 2075.147
282.9979, 2165.131
283.4800, 2248.328
283.9622, 2326.422
284.4443, 2361.797
284.9264, 2334.459
285.4085, 2247.750
285.8906, 2118.837
286.3727, 1939.259
286.8549, 1747.888
287.3370, 1588.068
287.8191, 1459.637
288.3012, 1359.341
288.7833, 1291.268
289.2654, 1251.116
289.7476, 1224.079
290.2297, 1210.554
290.7118, 1207.019
291.1939, 1211.940
291.6760, 1224.525
292.1581, 1240.531
292.6403, 1260.265
293.1224, 1281.696
293.6045, 1302.651
294.0866, 1323.016
294.5687, 1337.479
295.0508, 1344.992
295.5330, 1343.456
296.0151, 1324.770
296.4972, 1283.486
296.9793, 1227.971
297.4614, 1168.758
297.9435, 1106.391
298.4257, 1049.804
298.9078, 1006.219
299.3899, 973.2756
299.8720, 947.4980
300.3541, 928.7061
300.8362, 915.1652
301.3184, 905.6038
301.8005, 899.6012
302.2826, 895.8295
302.7647, 894.0533
303.2469, 893.7765
303.7290, 894.3260
304.2111, 895.6650
304.6932, 897.6214
305.1753, 899.7151
305.6574, 902.2465
306.1396, 905.8599
306.6217, 911.1512
307.1038, 917.5799
307.5859, 924.3123
308.0680, 931.2461
308.5501, 939.6580
309.0323, 950.5917
309.5144, 963.6407
309.9965, 978.0978
310.4786, 993.3787
310.9607, 1010.347
311.4428, 1029.677
311.9250, 1051.281
312.4071, 1075.109
312.8892, 1100.284
313.3713, 1127.429
313.8534, 1157.483
314.3355, 1193.280
314.8177, 1229.448
315.2998, 1264.746
315.7819, 1298.559
316.2640, 1328.585
316.7461, 1357.063
317.2282, 1379.068
317.7104, 1391.327
318.1925, 1393.545
318.6746, 1385.230
319.1567, 1361.956
319.6388, 1327.437
320.1209, 1292.165
320.6031, 1253.874
321.0852, 1219.780
321.5673, 1193.165
322.0494, 1174.947
322.5315, 1163.131
323.0136, 1157.900
323.4958, 1158.724
323.9779, 1164.741
324.4600, 1175.119
324.9421, 1191.378
325.4242, 1214.379
325.9064, 1244.959
326.3885, 1279.029
326.8706, 1317.132
327.3527, 1358.166
327.8348, 1401.442
328.3170, 1449.043
328.7991, 1496.865
329.2812, 1544.813
329.7633, 1593.193
330.2454, 1638.096
330.7275, 1681.772
331.2097, 1719.637
331.6918, 1748.319
332.1739, 1766.557
332.6560, 1777.380
333.1381, 1779.265
333.6202, 1773.551
334.1024, 1765.505
334.5845, 1751.436
335.0666, 1740.611
335.5487, 1736.605
336.0308, 1736.623
336.5129, 1751.708
336.9951, 1783.529
337.4772, 1829.566
337.9593, 1886.974
338.4414, 1957.377
338.9235, 2035.238
339.4056, 2120.479
339.8878, 2212.841
340.3699, 2307.505
340.8520, 2407.118
341.3341, 2504.836
341.8162, 2600.169
342.2983, 2694.271
342.7805, 2766.894
343.2626, 2818.092
343.7447, 2842.858
344.2268, 2808.798
344.7089, 2712.093
345.1910, 2576.108
345.6732, 2409.851
346.1553, 2216.217
346.6374, 2036.313
347.1195, 1874.740
347.6016, 1733.011
348.0837, 1614.741
348.5659, 1518.587
349.0480, 1438.590
349.5301, 1373.964
350.0122, 1322.282
350.4944, 1280.781
350.9765, 1250.065
351.4586, 1226.408
351.9407, 1207.098
352.4228, 1191.770
352.9049, 1179.197
353.3871, 1168.450
353.8692, 1160.224
354.3513, 1156.291
354.8334, 1156.886
355.3155, 1158.300
355.7976, 1156.474
356.2798, 1153.663
356.7619, 1153.479
357.2440, 1157.035
357.7261, 1163.899
358.2082, 1174.557
358.6903, 1188.669
359.1725, 1203.944
359.6546, 1218.054
360.1367, 1233.315
360.6188, 1251.633
361.1009, 1273.253
361.5830, 1297.991
362.0652, 1326.496
362.5473, 1358.085
363.0294, 1391.081
363.5115, 1424.668
363.9936, 1459.871
364.4757, 1496.679
364.9579, 1535.182
365.4400, 1576.129
365.9221, 1618.915
366.4042, 1664.730
366.8863, 1715.083
367.3684, 1770.120
367.8506, 1829.797
368.3327, 1894.921
368.8148, 1965.463
369.2969, 2038.327
369.7790, 2113.493
370.2611, 2191.388
370.7433, 2272.641
371.2254, 2356.466
371.7075, 2443.352
372.1896, 2532.415
372.6717, 2624.845
373.1538, 2723.292
373.6360, 2826.521
374.1181, 2937.374
374.6002, 3055.903
375.0823, 3182.958
375.5645, 3317.279
376.0466, 3457.784
376.5287, 3604.866
377.0108, 3762.732
377.4929, 3932.132
377.9750, 4095.575
378.4572, 4245.014
378.9393, 4381.897
379.4214, 4510.915
379.9035, 4628.780
380.3856, 4748.259
380.8677, 4875.079
381.3499, 5010.310
381.8320, 5168.401
382.3141, 5357.534
382.7962, 5567.133
383.2783, 5786.470
383.7604, 6013.723
384.2426, 6234.165
384.7247, 6460.775
385.2068, 6671.213
385.6889, 6829.696
386.1710, 6933.818
386.6531, 6971.563
387.1353, 6917.476
387.6174, 6785.558
388.0995, 6613.247
388.5816, 6383.299
389.0637, 6140.448
389.5458, 5922.122
390.0280, 5727.556
390.5101, 5558.523
390.9922, 5416.666
391.4743, 5300.659
391.9564, 5207.400
392.4385, 5135.617
392.9207, 5088.297
393.4028, 5070.023
393.8849, 5078.064
394.3670, 5105.074
394.8491, 5155.732
395.3312, 5219.068
395.8134, 5290.953
396.2955, 5374.807
396.7776, 5456.033
397.2597, 5528.693
397.7418, 5596.888
398.2239, 5666.571
398.7061, 5734.400
399.1882, 5807.318
399.6703, 5885.015
400.1524, 5967.229
400.6346, 6062.782
401.1167, 6174.275
401.5988, 6295.722
402.0809, 6426.979
402.5630, 6594.269
403.0451, 6722.046
403.5273, 6811.048
404.0094, 6854.964
404.4915, 6829.994
404.9736, 6723.300
405.4557, 6577.691
405.9378, 6406.836
406.4200, 6209.817
406.9021, 5996.295
407.3842, 5766.423
407.8663, 5525.103
408.3484, 5269.279
408.8305, 4997.281
409.3127, 4751.688
409.7948, 4539.308
410.2769, 4363.979
410.7590, 4241.457
411.2411, 4171.550
411.7232, 4142.960
412.2054, 4153.610
412.6875, 4198.827
413.1696, 4264.011
413.6517, 4347.244
414.1338, 4451.435
414.6159, 4579.546
415.0981, 4730.537
415.5802, 4901.250
416.0623, 5090.478
416.5444, 5298.117
417.0265, 5519.567
417.5086, 5756.284
417.9908, 6005.280
418.4729, 6266.239
418.9550, 6536.332
419.4371, 6808.849
419.9192, 7097.102
420.4013, 7373.364
420.8835, 7638.162
421.3656, 7883.102
421.8477, 8087.773
422.3298, 8245.396
422.8119, 8359.019
423.2940, 8424.423
423.7762, 8424.713
424.2583, 8425.983
424.7404, 8439.193
425.2225, 8455.275
425.7047, 8464.924
426.1868, 8481.668
426.6689, 8474.536
427.1510, 8442.426
427.6331, 8384.219
428.1152, 8286.692
428.5974, 8144.063
429.0795, 7968.435
429.5616, 7759.932
430.0437, 7511.115
430.5258, 7263.313
431.0079, 7018.573
431.4901, 6777.469
431.9722, 6542.903
432.4543, 6316.691
432.9364, 6086.676
433.4185, 5856.861
433.9006, 5622.570
434.3828, 5364.930
434.8649, 5083.222
435.3470, 4787.596
435.8291, 4474.823
436.3112, 4152.846
436.7933, 3851.967
437.2755, 3574.815
437.7576, 3323.802
438.2397, 3106.718
438.7218, 2922.182
439.2039, 2765.615
439.6860, 2640.232
440.1682, 2537.491
440.6503, 2452.524
441.1324, 2383.958
441.6145, 2330.078
442.0966, 2293.802
442.5787, 2270.037
443.0609, 2253.334
443.5430, 2243.329
444.0251, 2238.644
444.5072, 2238.435
444.9893, 2243.076
445.4714, 2253.780
445.9536, 2271.400
446.4357, 2294.670
446.9178, 2323.050
447.3999, 2356.539
447.8820, 2395.541
448.3641, 2439.656
448.8463, 2489.589
449.3284, 2546.847
449.8105, 2610.490
450.2926, 2682.114
450.7747, 2761.903
451.2569, 2850.268
451.7390, 2946.125
452.2211, 3049.492
452.7032, 3162.730
453.1853, 3288.344
453.6674, 3427.864
454.1496, 3570.735
454.6317, 3717.510
455.1138, 3867.558
455.5959, 4022.328
456.0780, 4181.678
456.5602, 4330.930
457.0423, 4475.148
457.5244, 4599.460
458.0065, 4677.913
458.4886, 4710.291
458.9707, 4700.677
459.4529, 4640.378
459.9350, 4542.888
460.4171, 4426.593
460.8992, 4288.213
461.3813, 4148.422
461.8634, 4023.328
462.3456, 3906.845
462.8277, 3791.493
463.3098, 3678.417
463.7919, 3560.164
464.2740, 3430.791
464.7561, 3290.815
465.2383, 3149.774
465.7204, 3002.709
466.2025, 2860.440
466.6846, 2730.606
467.1667, 2611.495
467.6488, 2509.477
468.1310, 2426.457
468.6131, 2359.698
469.0952, 2303.624
469.5773, 2262.179
470.0594, 2225.354
470.5415, 2190.782
471.0237, 2158.637
471.5058, 2129.476
471.9879, 2104.061
472.4700, 2079.877
472.9521, 2054.794
473.4342, 2028.510
473.9164, 2005.081
474.3985, 1984.259
474.8806, 1967.235
475.3627, 1956.006
475.8448, 1950.416
476.3270, 1948.880
476.8091, 1949.922
477.2912, 1954.879
477.7733, 1967.057
478.2554, 1986.256
478.7375, 2009.486
479.2197, 2034.386
479.7018, 2062.082
480.1839, 2094.374
480.6660, 2132.584
481.1481, 2172.253
481.6302, 2210.019
482.1124, 2247.257
482.5945, 2286.292
483.0766, 2328.437
483.5587, 2372.313
484.0408, 2417.168
484.5229, 2462.790
485.0051, 2509.494
485.4872, 2561.252
485.9693, 2611.457
486.4514, 2656.015
486.9335, 2697.438
487.4156, 2729.610
487.8978, 2752.319
488.3799, 2765.816
488.8620, 2770.081
489.3441, 2761.812
489.8262, 2752.077
490.3083, 2741.228
490.7905, 2730.738
491.2726, 2731.236
491.7547, 2742.830
492.2368, 2764.803
492.7189, 2794.681
493.2010, 2833.616
493.6832, 2887.750
494.1653, 2958.881
494.6474, 3042.155
495.1295, 3133.741
495.6116, 3233.452
496.0938, 3341.837
496.5759, 3459.967
497.0580, 3586.169
497.5401, 3718.934
498.0222, 3858.274
498.5044, 3997.606
498.9865, 4138.906
499.4686, 4277.023
499.9507, 4412.057
500.4328, 4549.197
500.9149, 4662.360
501.3971, 4753.482
501.8792, 4812.833
502.3613, 4829.832
502.8434, 4793.024
503.3255, 4724.641
503.8076, 4616.929
504.2898, 4477.732
504.7719, 4340.657
505.2540, 4200.651
505.7361, 4070.545
506.2182, 3954.274
506.7003, 3852.797
507.1825, 3763.649
507.6646, 3688.245
508.1467, 3622.191
508.6288, 3562.750
509.1109, 3509.929
509.5930, 3456.506
510.0752, 3400.330
510.5573, 3343.972
511.0394, 3291.740
511.5215, 3243.575
512.0037, 3198.987
512.4858, 3157.224
512.9679, 3119.088
513.4500, 3084.535
513.9321, 3053.635
514.4142, 3030.305
514.8964, 3019.562
515.3785, 3016.742
515.8606, 3016.813
516.3427, 3017.181
516.8248, 3022.583
517.3069, 3036.535
517.7891, 3056.543
518.2712, 3078.092
518.7533, 3104.586
519.2354, 3127.897
519.7175, 3146.010
520.1996, 3159.117
520.6818, 3166.985
521.1639, 3172.521
521.6460, 3169.209
522.1281, 3153.540
522.6102, 3125.188
523.0923, 3085.551
523.5745, 3033.991
524.0566, 2971.782
524.5387, 2899.666
525.0208, 2817.389
525.5029, 2728.789
525.9850, 2631.835
526.4672, 2532.058
526.9493, 2438.254
527.4314, 2349.648
527.9135, 2267.138
528.3956, 2188.294
528.8777, 2114.855
529.3599, 2050.251
529.8420, 1994.243
530.3241, 1945.899
530.8062, 1904.479
531.2883, 1869.501
531.7704, 1841.443
532.2526, 1821.897
532.7347, 1806.396
533.2168, 1793.057
533.6989, 1782.714
534.1810, 1776.943
534.6631, 1776.627
535.1453, 1780.547
535.6274, 1788.821
536.1095, 1801.635
536.5916, 1815.513
537.0737, 1829.676
537.5558, 1846.365
538.0380, 1868.251
538.5201, 1896.795
539.0022, 1921.724
539.4843, 1941.752
539.9664, 1958.973
540.4485, 1975.815
540.9307, 1992.108
541.4128, 2007.074
541.8949, 2019.634
542.3770, 2031.235
542.8591, 2043.594
543.3412, 2056.834
543.8234, 2072.486
544.3055, 2091.482
544.7876, 2113.284
545.2697, 2136.894
545.7518, 2162.105
546.2339, 2190.531
546.7161, 2223.277
547.1982, 2259.220
547.6803, 2298.148
548.1624, 2339.905
548.6445, 2384.399
549.1266, 2433.079
549.6088, 2484.398
550.0909, 2535.268
550.5730, 2586.704
551.0551, 2636.554
551.5372, 2684.444
552.0193, 2730.372
552.5015, 2772.562
552.9836, 2812.055
553.4657, 2844.307
553.9478, 2868.287
554.4299, 2883.358
554.9120, 2882.654
555.3942, 2865.509
555.8763, 2834.031
556.3584, 2787.688
556.8405, 2728.772
557.3226, 2662.461
557.8047, 2586.690
558.2869, 2509.011
558.7690, 2433.700
559.2511, 2361.620
559.7332, 2295.833
560.2154, 2234.872
560.6975, 2183.118
561.1796, 2143.252
561.6617, 2115.508
562.1439, 2094.055
562.6260, 2077.937
563.1081, 2067.954
563.5902, 2063.926
564.0723, 2065.990
564.5544, 2073.764
565.0366, 2087.071
565.5187, 2106.351
566.0008, 2132.626
566.4829, 2166.929
566.9650, 2203.598
567.4471, 2240.786
567.9293, 2280.167
568.4114, 2325.347
568.8935, 2376.246
569.3756, 2429.981
569.8577, 2484.216
570.3398, 2540.398
570.8220, 2599.170
571.3041, 2661.208
571.7862, 2724.775
572.2683, 2791.166
572.7504, 2857.809
573.2325, 2923.652
573.7147, 2989.030
574.1968, 3050.843
574.6789, 3108.738
575.1610, 3161.995
575.6431, 3210.409
576.1252, 3260.530
576.6074, 3296.989
577.0895, 3316.975
577.5716, 3322.035
578.0537, 3318.813
578.5358, 3308.950
579.0179, 3287.017
579.5001, 3250.629
579.9822, 3199.717
580.4643, 3137.996
580.9464, 3065.145
581.4285, 2983.886
581.9106, 2892.626
582.3928, 2793.603
582.8749, 2694.300
583.3570, 2594.599
583.8391, 2497.579
584.3212, 2402.726
584.8033, 2312.406
585.2855, 2229.916
585.7676, 2155.914
586.2497, 2090.627
586.7318, 2035.232
587.2139, 1988.243
587.6960, 1945.415
588.1782, 1904.808
588.6603, 1869.096
589.1424, 1840.354
589.6245, 1818.513
590.1066, 1797.056
590.5887, 1775.809
591.0709, 1755.450
591.5530, 1736.389
592.0351, 1718.773
592.5172, 1701.340
592.9993, 1684.070
593.4814, 1666.956
593.9636, 1649.654
594.4457, 1632.493
594.9278, 1616.201
595.4099, 1600.673
595.8920, 1586.690
596.3741, 1575.592
596.8563, 1566.987
597.3384, 1559.937
597.8205, 1554.722
598.3026, 1550.412
598.7847, 1545.677
599.2668, 1540.844
599.7490, 1539.134
600.2311, 1542.331
600.7132, 1548.204
601.1953, 1556.031
601.6774, 1566.522
602.1595, 1576.061
602.6417, 1582.938
603.1238, 1590.939
603.6059, 1603.764
604.0880, 1622.175
604.5701, 1641.072
605.0522, 1659.405
605.5344, 1678.680
606.0165, 1700.599
606.4986, 1725.221
606.9807, 1752.100
607.4628, 1781.164
607.9449, 1812.085
608.4271, 1843.695
608.9092, 1876.468
609.3913, 1911.057
609.8735, 1948.152
610.3556, 1986.902
610.8377, 2027.283
611.3198, 2069.127
611.8019, 2111.979
612.2841, 2156.807
612.7662, 2202.084
613.2483, 2247.563
613.7304, 2291.796
614.2125, 2337.595
614.6946, 2386.017
615.1768, 2435.395
615.6589, 2483.181
616.1410, 2529.133
616.6231, 2578.165
617.1052, 2631.202
617.5873, 2687.794
618.0695, 2745.091
618.5516, 2803.502
619.0337, 2864.024
619.5158, 2926.930
619.9979, 2992.453
620.4800, 3060.355
620.9622, 3130.767
621.4443, 3202.215
621.9264, 3277.064
622.4085, 3350.819
622.8906, 3421.192
623.3727, 3487.208
623.8549, 3552.328
624.3370, 3621.056
624.8191, 3686.304
625.3012, 3743.051
625.7833, 3791.496
626.2654, 3831.660
626.7476, 3863.604
627.2297, 3887.070
627.7118, 3901.485
628.1939, 3906.827
628.6760, 3904.411
629.1581, 3894.297
629.6403, 3877.091
630.1224, 3853.521
630.6045, 3823.640
631.0866, 3787.422
631.5687, 3741.653
632.0508, 3691.843
632.5330, 3642.800
633.0151, 3594.618
633.4972, 3546.047
633.9793, 3495.490
634.4614, 3445.378
634.9435, 3397.499
635.4257, 3353.405
635.9078, 3306.011
636.3899, 3253.520
636.8720, 3198.905
637.3541, 3145.460
637.8362, 3093.197
638.3184, 3038.964
638.8005, 2982.598
639.2826, 2925.546
639.7647, 2869.832
640.2468, 2815.134
640.7289, 2761.254
641.2111, 2708.620
641.6932, 2655.863
642.1753, 2600.657
642.6574, 2543.348
643.1395, 2485.789
643.6216, 2429.081
644.1038, 2371.196
644.5859, 2310.558
645.0680, 2247.789
645.5501, 2184.210
646.0322, 2119.268
646.5143, 2055.049
646.9965, 1993.016
647.4786, 1932.730
647.9607, 1873.426
648.4428, 1813.562
648.9249, 1756.628
649.4070, 1703.094
649.8892, 1653.241
650.3713, 1609.729
650.8534, 1572.927
651.3355, 1538.508
651.8176, 1500.475
652.2997, 1461.362
652.7819, 1426.955
653.2640, 1399.451
653.7461, 1374.588
654.2282, 1349.499
654.7103, 1325.210
655.1924, 1303.337
655.6746, 1285.415
656.1567, 1268.404
656.6388, 1251.486
657.1209, 1234.987
657.6030, 1220.121
658.0851, 1207.182
658.5673, 1195.132
659.0494, 1183.870
659.5316, 1173.256
660.0137, 1161.941
660.4958, 1149.816
660.9779, 1139.247
661.4600, 1132.621
661.9421, 1128.454
662.4243, 1122.593
662.9064, 1114.975
663.3885, 1107.688
663.8706, 1102.497
664.3527, 1098.387
664.8348, 1094.393
665.3170, 1090.309
665.7991, 1086.545
666.2812, 1082.646
666.7633, 1079.439
667.2454, 1077.847
667.7275, 1079.546
668.2097, 1079.778
668.6918, 1077.496
669.1739, 1074.565
669.6560, 1074.456
670.1381, 1077.585
670.6202, 1078.919
671.1024, 1076.747
671.5845, 1072.925
672.0666, 1070.276
672.5487, 1068.853
673.0308, 1068.936
673.5129, 1072.042
673.9951, 1075.643
674.4772, 1077.738
674.9593, 1078.471
675.4414, 1078.500
675.9235, 1077.347
676.4056, 1076.215
676.8878, 1076.201
677.3699, 1077.512
677.8520, 1076.297
678.3341, 1071.176
678.8162, 1065.601
679.2983, 1061.679
679.7805, 1059.577
680.2626, 1056.886
680.7447, 1053.631
681.2268, 1049.750
681.7089, 1045.021
682.1910, 1039.641
682.6732, 1034.215
683.1553, 1028.820
683.6374, 1023.464
684.1195, 1017.923
684.6016, 1012.479
685.0837, 1007.400
685.5659, 1003.118
686.0480, 998.8060
686.5301, 994.2581
687.0122, 989.5360
687.4943, 984.6946
687.9764, 979.4980
688.4586, 974.6197
688.9407, 969.8320
689.4228, 965.6217
689.9049, 963.8281
690.3870, 964.4925
690.8691, 964.3182
691.3513, 961.4291
691.8334, 957.2423
692.3155, 954.0634
692.7976, 951.7822
693.2797, 949.8229
693.7618, 947.9034
694.2440, 946.1560
694.7261, 944.7538
695.2082, 943.7090
695.6903, 942.5359
696.1724, 941.2002
696.6545, 939.6532
697.1367, 937.5987
697.6188, 934.7383
698.1009, 933.8865
698.5830, 935.8719
699.0651, 938.0112
699.5472, 937.8407
700.0294, 935.6749
700.5115, 934.2638
700.9936, 933.8412
701.4757, 933.7751
701.9578, 933.5021
702.4399, 933.1218
702.9221, 932.7377
703.4042, 932.2431
703.8863, 932.0496
704.3684, 932.5933
704.8505, 933.4424
705.3326, 934.0923
705.8148, 933.9793
706.2969, 934.3633
706.7790, 935.8270
707.2611, 937.5159
707.7432, 937.7850
708.2253, 936.4638
708.7075, 934.9384
709.1896, 933.4277
709.6718, 932.1122
710.1539, 931.0510
710.6360, 930.4360
711.1181, 931.0240
711.6002, 934.8359
712.0823, 938.6981
712.5645, 939.6637
713.0466, 938.3439
713.5287, 936.9979
714.0108, 936.6933
714.4929, 936.2335
714.9750, 934.6840
715.4572, 932.2002
715.9393, 931.1757
716.4214, 931.9079
716.9035, 933.4294
717.3856, 935.3469
717.8677, 937.6664
718.3499, 940.8317
718.8320, 944.9563
719.3141, 947.4666
719.7962, 945.0002
720.2783, 940.2460
720.7604, 937.1663
721.2426, 936.1686
721.7247, 936.1708
722.2068, 937.3611
722.6889, 938.7800
723.1710, 939.6542
723.6531, 939.5509
724.1353, 939.7913
724.6174, 940.4706
725.0995, 941.4643
725.5816, 942.7518
726.0637, 944.3761
726.5458, 945.8909
727.0280, 947.2883
727.5101, 948.5099
727.9922, 949.3112
728.4743, 949.8662
728.9564, 950.7448
729.4385, 952.1458
729.9207, 953.6456
730.4028, 954.8380
730.8849, 955.9283
731.3670, 957.1885
731.8491, 958.3289
732.3312, 960.0897
732.8134, 962.7991
733.2955, 966.1764
733.7776, 970.0930
734.2597, 975.4003
734.7418, 978.4512
735.2239, 977.6766
735.7061, 975.1332
736.1882, 975.7328
736.6703, 979.0861
737.1524, 982.1152
737.6345, 983.0589
738.1166, 983.6251
738.5988, 985.6909
739.0809, 988.9456
739.5630, 992.4974
740.0451, 996.7117
740.5272, 1000.433
741.0093, 1002.328
741.4915, 1002.952
741.9736, 1005.812
742.4557, 1012.515
742.9378, 1018.199
743.4199, 1020.220
743.9020, 1019.719
744.3842, 1024.029
744.8663, 1033.194
745.3484, 1042.114
745.8305, 1047.959
746.3126, 1051.581
746.7947, 1053.367
747.2769, 1053.657
747.7590, 1054.815
748.2411, 1058.479
748.7232, 1063.121
749.2053, 1068.175
749.6874, 1073.724
750.1696, 1078.458
750.6517, 1081.451
751.1338, 1084.945
751.6159, 1090.749
752.0980, 1099.100
752.5801, 1104.181
753.0623, 1105.655
753.5444, 1106.490
754.0265, 1109.293
754.5086, 1113.211
754.9907, 1116.724
755.4728, 1119.716
755.9550, 1122.020
756.4371, 1123.196
756.9192, 1123.858
757.4013, 1124.414
757.8835, 1124.668
758.3656, 1125.576
758.8477, 1127.267
759.3298, 1129.531
759.8120, 1132.290
760.2941, 1135.542
760.7762, 1138.943
761.2583, 1142.377
761.7404, 1146.600
762.2225, 1153.015
762.7047, 1160.833
763.1868, 1167.961
763.6689, 1173.793
764.1510, 1179.947
764.6331, 1187.240
765.1152, 1195.577
765.5974, 1204.864
766.0795, 1216.139
766.5616, 1226.743
767.0437, 1235.159
767.5258, 1244.004
768.0079, 1256.756
768.4901, 1274.040
768.9722, 1289.648
769.4543, 1302.261
769.9364, 1314.100
770.4185, 1328.587
770.9006, 1344.707
771.3828, 1359.772
771.8649, 1372.177
772.3470, 1384.893
772.8291, 1401.068
773.3112, 1418.360
773.7933, 1433.533
774.2755, 1445.788
774.7576, 1455.982
775.2397, 1464.097
775.7218, 1470.386
776.2039, 1475.284
776.6860, 1478.777
777.1682, 1481.324
777.6503, 1483.276
778.1324, 1483.769
778.6145, 1481.493
779.0966, 1476.625
779.5787, 1469.557
780.0609, 1459.208
780.5430, 1448.371
781.0251, 1438.899
781.5072, 1429.999
781.9893, 1420.384
782.4714, 1408.818
782.9536, 1397.610
783.4357, 1386.650
783.9178, 1376.565
784.3999, 1368.847
784.8820, 1363.635
785.3641, 1358.710
785.8463, 1353.634
786.3284, 1348.114
786.8105, 1340.390
787.2926, 1331.914
787.7747, 1326.465
788.2568, 1327.659
788.7390, 1330.239
789.2211, 1332.357
789.7032, 1333.932
790.1853, 1334.742
790.6674, 1333.130
791.1495, 1333.351
791.6317, 1336.333
792.1138, 1341.413
792.5959, 1347.225
793.0780, 1353.820
793.5601, 1360.218
794.0422, 1366.498
794.5244, 1372.004
795.0065, 1375.128
795.4886, 1376.893
795.9707, 1379.640
796.4528, 1384.673
796.9349, 1390.628
797.4171, 1397.693
797.8992, 1405.312
798.3813, 1411.584
798.8634, 1415.460
799.3455, 1420.269
799.8276, 1426.867
800.3098, 1434.606
800.7919, 1442.149
801.2740, 1449.503
801.7561, 1456.339
802.2382, 1462.716
802.7203, 1468.136
803.2025, 1471.378
803.6846, 1473.297
804.1667, 1475.875
804.6488, 1479.936
805.1309, 1484.651
805.6130, 1490.670
806.0952, 1496.996
806.5773, 1501.484
807.0594, 1503.513
807.5416, 1505.716
808.0237, 1508.751
808.5058, 1512.338
808.9879, 1516.045
809.4700, 1519.824
809.9521, 1523.392
810.4343, 1526.734
810.9164, 1529.745
811.3985, 1532.244
811.8806, 1534.356
812.3627, 1536.346
812.8448, 1537.355
813.3270, 1539.502
813.8091, 1543.674
814.2912, 1548.811
814.7733, 1552.471
815.2554, 1554.515
815.7375, 1556.365
816.2197, 1558.070
816.7018, 1560.379
817.1839, 1564.310
817.6660, 1569.759
818.1481, 1576.463
818.6302, 1584.780
819.1124, 1593.782
819.5945, 1603.390
820.0766, 1613.405
820.5587, 1623.460
821.0408, 1633.018
821.5229, 1643.374
822.0051, 1654.662
822.4872, 1666.984
822.9693, 1681.050
823.4514, 1696.781
823.9335, 1712.422
824.4156, 1727.238
824.8978, 1742.850
825.3799, 1761.618
825.8620, 1782.668
826.3441, 1804.311
826.8262, 1827.004
827.3083, 1849.169
827.7905, 1869.673
828.2726, 1889.944
828.7547, 1912.388
829.2368, 1937.181
829.7189, 1961.886
830.2010, 1986.238
830.6832, 2009.738
831.1653, 2031.427
831.6474, 2051.827
832.1295, 2073.222
832.6116, 2096.225
833.0938, 2119.029
833.5759, 2140.210
834.0580, 2160.875
834.5401, 2182.292
835.0222, 2206.517
835.5043, 2228.926
835.9865, 2248.381
836.4686, 2267.479
836.9507, 2289.350
837.4328, 2313.878
837.9149, 2337.199
838.3970, 2358.622
838.8792, 2381.933
839.3613, 2412.001
839.8434, 2446.145
840.3255, 2480.012
840.8076, 2512.144
841.2897, 2546.974
841.7719, 2585.531
842.2540, 2627.429
842.7361, 2672.297
843.2182, 2720.473
843.7003, 2769.987
844.1824, 2819.923
844.6646, 2872.850
845.1467, 2931.008
845.6288, 2993.810
846.1109, 3059.465
846.5930, 3127.808
847.0751, 3200.531
847.5573, 3279.386
848.0394, 3362.525
848.5215, 3449.154
849.0036, 3539.036
849.4857, 3634.292
849.9678, 3735.409
850.4500, 3841.146
850.9321, 3951.368
851.4142, 4066.729
851.8963, 4188.614
852.3784, 4317.453
852.8605, 4451.772
853.3427, 4589.708
853.8248, 4731.509
854.3069, 4876.432
854.7890, 5024.697
855.2711, 5179.423
855.7532, 5339.537
856.2354, 5504.579
856.7175, 5675.193
857.1996, 5849.413
857.6818, 6022.949
858.1639, 6195.758
858.6460, 6372.427
859.1281, 6560.150
859.6102, 6751.844
860.0923, 6935.305
860.5745, 7113.138
861.0566, 7287.955
861.5387, 7467.499
862.0208, 7639.924
862.5029, 7803.027
862.9850, 7955.728
863.4672, 8099.015
863.9493, 8237.115
864.4314, 8358.319
864.9135, 8460.755
865.3956, 8546.208
865.8777, 8621.301
866.3599, 8684.643
866.8420, 8725.584
867.3241, 8738.718
867.8062, 8733.468
868.2883, 8715.854
868.7704, 8684.655
869.2526, 8638.306
869.7347, 8576.469
870.2168, 8496.903
870.6989, 8397.159
871.1810, 8284.362
871.6631, 8165.767
872.1453, 8041.798
872.6274, 7912.499
873.1095, 7778.663
873.5916, 7637.932
874.0737, 7487.018
874.5558, 7330.536
875.0380, 7171.845
875.5201, 7012.060
876.0022, 6850.862
876.4843, 6686.456
876.9664, 6523.583
877.4485, 6365.696
877.9307, 6212.955
878.4128, 6060.349
878.8949, 5907.060
879.3770, 5755.037
879.8591, 5603.624
880.3412, 5455.497
880.8234, 5316.107
881.3055, 5184.972
881.7876, 5056.258
882.2697, 4922.531
882.7518, 4793.414
883.2339, 4674.839
883.7161, 4566.196
884.1982, 4457.966
884.6803, 4349.319
885.1624, 4244.295
885.6445, 4144.019
886.1266, 4049.409
886.6088, 3960.489
887.0909, 3876.824
887.5730, 3798.582
888.0551, 3724.939
888.5372, 3656.591
889.0193, 3595.717
889.5015, 3540.744
889.9836, 3484.885
890.4657, 3424.823
890.9478, 3371.073
891.4299, 3326.496
891.9120, 3288.174
892.3942, 3249.648
892.8763, 3211.377
893.3584, 3176.817
893.8405, 3145.849
894.3226, 3119.823
894.8047, 3102.036
895.2869, 3089.009
895.7690, 3076.534
896.2511, 3061.912
896.7332, 3051.272
897.2153, 3045.213
897.6974, 3042.502
898.1796, 3042.634
898.6617, 3045.319
899.1438, 3049.179
899.6259, 3054.307
900.1080, 3057.699
900.5901, 3057.723
901.0723, 3054.345
901.5544, 3048.517
902.0365, 3041.161
902.5186, 3024.816
903.0007, 2998.820
903.4828, 2964.766
903.9650, 2922.320
904.4471, 2871.801
904.9292, 2816.732
905.4113, 2756.552
905.8935, 2693.344
906.3756, 2625.777
906.8577, 2557.567
907.3398, 2492.892
907.8220, 2431.210
908.3041, 2371.797
908.7862, 2311.452
909.2683, 2255.629
909.7504, 2205.437
910.2325, 2160.375
910.7147, 2119.815
911.1968, 2083.400
911.6789, 2049.568
912.1610, 2018.344
912.6431, 1989.126
913.1252, 1961.714
913.6074, 1935.856
914.0895, 1911.166
914.5716, 1887.480
915.0537, 1865.227
915.5358, 1844.483
916.0179, 1824.828
916.5001, 1805.576
916.9822, 1786.717
917.4643, 1768.644
917.9464, 1751.398
918.4285, 1734.772
918.9106, 1718.422
919.3928, 1702.918
919.8749, 1688.785
920.3570, 1676.104
920.8391, 1664.691
921.3212, 1654.784
921.8033, 1646.058
922.2855, 1639.460
922.7676, 1634.368
923.2497, 1623.118
923.7318, 1605.570
924.2139, 1589.874
924.6960, 1581.762
925.1782, 1576.672
925.6603, 1568.821
926.1424, 1559.197
926.6245, 1550.495
927.1066, 1543.352
927.5887, 1537.884
928.0709, 1535.246
928.5530, 1533.318
929.0351, 1527.478
929.5172, 1517.433
929.9993, 1510.205
930.4814, 1507.420
930.9636, 1506.863
931.4457, 1507.522
931.9278, 1508.196
932.4099, 1506.882
932.8920, 1502.138
933.3741, 1498.765
933.8563, 1499.162
934.3384, 1500.090
934.8205, 1499.363
935.3026, 1496.858
935.7847, 1495.637
936.2668, 1495.734
936.7490, 1496.104
937.2311, 1495.470
937.7132, 1494.998
938.1953, 1496.956
938.6774, 1500.747
939.1595, 1502.457
939.6417, 1498.219
940.1238, 1494.978
940.6059, 1495.015
941.0880, 1497.096
941.5701, 1498.724
942.0522, 1499.775
942.5344, 1495.710
943.0165, 1483.458
943.4986, 1469.079
943.9807, 1459.386
944.4628, 1451.806
944.9449, 1442.544
945.4271, 1429.367
945.9092, 1416.377
946.3913, 1403.844
946.8734, 1391.620
947.3555, 1380.016
947.8376, 1368.950
948.3198, 1355.846
948.8019, 1340.575
949.2840, 1324.541
949.7661, 1307.130
950.2482, 1290.973
950.7303, 1279.121
951.2125, 1271.707
951.6946, 1264.238
952.1767, 1256.429
952.6588, 1247.934
953.1409, 1238.023
953.6230, 1227.663
954.1052, 1219.571
954.5873, 1213.701
955.0695, 1209.957
955.5516, 1209.781
956.0337, 1209.567
956.5158, 1207.881
956.9979, 1203.951
957.4800, 1196.068
957.9622, 1179.173
958.4443, 1168.079
958.9264, 1164.833
959.4085, 1164.778
959.8906, 1163.385
960.3727, 1160.755
960.8549, 1157.130
961.3370, 1152.490
961.8191, 1147.687
962.3012, 1142.790
962.7833, 1138.257
963.2654, 1134.555
963.7476, 1131.687
964.2297, 1128.987
964.7118, 1126.631
965.1939, 1124.008
965.6760, 1120.527
966.1581, 1116.947
966.6403, 1115.223
967.1224, 1114.788
967.6045, 1113.889
968.0866, 1111.924
968.5687, 1109.193
969.0508, 1105.092
969.5330, 1100.616
970.0151, 1097.007
970.4972, 1094.332
970.9793, 1092.472
971.4614, 1091.594
971.9435, 1090.714
972.4257, 1088.854
972.9078, 1086.266
973.3899, 1082.846
973.8720, 1078.519
974.3541, 1075.500
974.8362, 1075.576
975.3184, 1076.069
975.8005, 1075.886
976.2826, 1075.088
976.7647, 1074.302
977.2468, 1073.526
977.7289, 1071.880
978.2111, 1068.278
978.6932, 1064.498
979.1753, 1062.911
979.6574, 1062.500
980.1395, 1061.322
980.6216, 1058.526
981.1038, 1055.379
981.5859, 1051.778
982.0680, 1048.177
982.5501, 1045.185
983.0322, 1042.727
983.5143, 1040.391
983.9965, 1038.134
984.4786, 1035.777
984.9607, 1032.635
985.4428, 1029.768
985.9249, 1028.135
986.4070, 1027.833
986.8892, 1027.446
987.3713, 1027.262
987.8534, 1026.032
988.3355, 1022.811
988.8176, 1018.710
989.2997, 1016.122
989.7819, 1014.776
990.2640, 1013.939
990.7461, 1014.114
991.2282, 1013.568
991.7103, 1010.814
992.1924, 1007.402
992.6746, 1005.113
993.1567, 1004.058
993.6388, 1003.945
994.1209, 1005.064
994.6030, 1005.273
995.0851, 1001.587
995.5673, 996.4213
996.0494, 992.8687
996.5315, 991.0803
997.0136, 990.0460
997.4957, 990.3689
997.9778, 990.2666
998.4600, 989.0265
998.9421, 987.1025
999.4242, 985.8051
999.9063, 985.1161
1000.388, 984.9451
1000.871, 985.5665
1001.353, 985.9343
1001.835, 984.9734
1002.317, 983.2972
1002.799, 981.6044
1003.281, 979.8686
1003.763, 978.4027
1004.245, 977.1581
1004.728, 976.2933
1005.210, 976.4557
1005.692, 977.0315
1006.174, 975.6724
1006.656, 972.6722
1007.138, 970.2578
1007.620, 970.3662
1008.102, 970.5320
1008.584, 969.3704
1009.067, 967.4691
1009.549, 966.2518
1010.031, 965.7960
1010.513, 965.0804
1010.995, 963.6996
1011.477, 962.6775
1011.959, 964.1799
1012.441, 966.4149
1012.924, 966.6539
1013.406, 963.8259
1013.888, 961.7108
1014.370, 961.4387
1014.852, 961.2343
1015.334, 959.9857
1015.816, 958.0029
1016.298, 957.1008
1016.780, 957.2362
1017.263, 958.0029
1017.745, 960.3114
1018.227, 962.0361
1018.709, 961.5916
1019.191, 959.6367
1019.673, 957.3508
1020.155, 954.2416
1020.637, 952.6162
1021.120, 952.9698
1021.602, 953.7321
1022.084, 953.1032
1022.566, 951.6802
1023.048, 950.5361
1023.530, 949.7841
1024.012, 949.0596
1024.494, 948.4377
1024.976, 947.5287
1025.458, 945.7297
1025.941, 943.6155
1026.423, 943.9797
1026.905, 946.6746
1027.387, 949.0839
1027.869, 950.3686
1028.351, 950.8136
1028.833, 950.1322
1029.316, 948.9939
1029.798, 948.2662
1030.280, 948.3052
1030.762, 948.3058
1031.244, 948.4967
1031.726, 948.0435
1032.208, 945.3467
1032.690, 941.7275
1033.172, 941.3138
1033.655, 943.6088
1034.137, 945.6757
1034.619, 946.3355
1035.101, 946.1369
1035.583, 944.6171
1036.065, 942.7343
1036.547, 942.5362
1037.029, 944.1161
1037.511, 944.7265
1037.994, 943.8766
1038.476, 942.2247
1038.958, 939.7394
1039.440, 937.2610
1039.922, 935.6993
1040.404, 935.2196
1040.886, 935.3750
1041.368, 936.6171
1041.851, 937.3262
1042.333, 936.4116
1042.815, 934.8419
1043.297, 935.6670
1043.779, 938.0248
1044.261, 939.2574
1044.743, 937.5195
1045.225, 935.7860
1045.708, 935.1552
1046.190, 935.0985
1046.672, 935.1406
1047.154, 935.2633
1047.636, 935.7450
1048.118, 936.6232
1048.600, 937.0215
1049.082, 936.0500
1049.564, 934.4246
1050.047, 932.5945
1050.529, 930.6718
1051.011, 929.1485
1051.493, 927.9662
1051.975, 927.3477
1052.457, 927.3681
1052.939, 927.9006
1053.421, 929.3717
1053.903, 931.0873
1054.386, 931.1304
1054.868, 928.9007
1055.350, 927.2100
1055.832, 928.0939
1056.314, 929.1623
1056.796, 929.2363
1057.278, 928.3741
1057.760, 926.6930
1058.243, 924.2468
1058.725, 922.5042
1059.207, 922.4374
1059.689, 922.7893
1060.171, 922.1990
1060.653, 921.3929
1061.135, 921.4949
1061.617, 923.2592
1062.099, 924.4891
1062.582, 925.2234
1063.064, 925.2704
1063.546, 923.7458
1064.028, 921.7195
1064.510, 922.1354
1064.992, 924.3680
1065.474, 924.8451
1065.956, 919.0919
1066.438, 915.4247
1066.921, 916.8035
1067.403, 920.3963
1067.885, 921.2637
1068.367, 919.7363
1068.849, 918.9492
1069.331, 919.4453
1069.813, 919.7634
1070.295, 918.1868
1070.778, 916.5104
1071.260, 916.3644
1071.742, 917.6624
1072.224, 918.2959
1072.706, 918.1096
1073.188, 918.2720
1073.670, 919.5175
1074.152, 920.7266
1074.635, 919.9092
1075.117, 918.1447
1075.599, 917.2166
1076.081, 918.2039
1076.563, 918.4853
1077.045, 917.4480
1077.527, 916.4532
1078.009, 916.7647
1078.491, 917.8677
1078.974, 917.2946
1079.456, 915.4662
1079.938, 914.5163
1080.420, 916.3657
1080.902, 918.2698
1081.384, 919.4816
1081.866, 919.9462
1082.348, 919.3625
1082.831, 917.6882
1083.313, 916.0095
1083.795, 914.4145
1084.277, 913.2596
1084.759, 913.1899
1085.241, 913.4431
1085.723, 913.2200
1086.205, 912.6358
1086.688, 912.9749
1087.170, 914.7783
1087.652, 915.8170
1088.134, 915.5621
1088.616, 914.3478
1089.098, 912.0187
1089.580, 909.3079
1090.062, 907.3961
1090.544, 906.5357
1091.026, 906.2991
1091.509, 906.4185
1091.991, 907.4335
1092.473, 910.2389
1092.955, 913.8497
1093.437, 914.5038
1093.919, 912.6879
1094.401, 910.3586
1094.883, 907.4654
1095.366, 905.5948
1095.848, 906.4386
1096.330, 907.9326
1096.812, 907.9506
1097.294, 906.2103
1097.776, 906.1868
1098.258, 907.9010
1098.740, 909.2828
1099.223, 908.0032
1099.705, 906.6596
1100.187, 908.0820
1100.669, 911.0522
1101.151, 912.3002
1101.633, 911.3787
1102.115, 909.3303
1102.597, 905.8231
1103.079, 902.9252
1103.562, 903.7996
1104.044, 906.2215
1104.526, 906.8005
1105.008, 905.4421
1105.490, 904.5540
1105.972, 905.4572
1106.454, 905.6539
1106.936, 904.2497
1107.418, 902.3109
1107.901, 902.2992
1108.383, 903.4284
1108.865, 903.1726
1109.347, 900.6769
1109.829, 898.9665
1110.311, 899.9133
1110.793, 901.5241
1111.275, 903.0271
1111.758, 904.2805
1112.240, 904.4026
1112.722, 903.4716
1113.204, 902.2470
1113.686, 900.7145
1114.168, 899.5613
1114.650, 899.4119
1115.132, 899.8342
1115.615, 900.4432
1116.097, 901.3220
1116.579, 901.6320
1117.061, 901.3369
1117.543, 900.9808
1118.025, 901.1250
1118.507, 901.2162
1118.989, 900.0085
1119.471, 898.4006
1119.953, 898.6328
1120.436, 902.7987
1120.918, 904.3664
1121.400, 902.4659
1121.882, 899.7538
1122.364, 898.6716
1122.846, 898.5325
1123.328, 898.1152
1123.810, 897.4854
1124.293, 897.4055
1124.775, 899.2797
1125.257, 899.9918
1125.739, 898.5802
1126.221, 896.4925
1126.703, 896.0530
1127.185, 896.7513
1127.667, 897.0973
1128.150, 896.8951
1128.632, 896.4996
1129.114, 896.1508
1129.596, 895.5076
1130.078, 894.1183
1130.560, 892.5069
1131.042, 892.4661
1131.524, 893.7881
1132.006, 895.3055
1132.489, 896.9349
1132.971, 897.7592
1133.453, 896.1941
1133.935, 894.3490
1134.417, 893.7186
1134.899, 894.2910
1135.381, 896.2097
1135.863, 899.4831
1136.346, 901.4224
1136.828, 900.3353
1137.310, 898.4362
1137.792, 897.4225
1138.274, 896.9492
1138.756, 896.7224
1139.238, 896.9978
1139.720, 895.7299
1140.203, 892.4891
1140.685, 890.4677
1141.167, 893.1356
1141.649, 896.9626
1142.131, 897.2297
1142.613, 895.3068
1143.095, 894.1415
1143.577, 895.0077
1144.059, 895.1593
1144.542, 894.2458
1145.024, 893.4131
1145.506, 893.7395
1145.988, 894.8206
1146.470, 896.5839
1146.952, 898.5897
1147.434, 899.1286
1147.916, 895.8972
1148.398, 893.6794
1148.881, 893.3468
1149.363, 893.7155
1149.845, 893.0278
1150.327, 891.9112
1150.809, 892.2355
1151.291, 894.0543
1151.773, 895.4557
1152.255, 894.9435
1152.738, 894.8051
1153.220, 895.9985
1153.702, 897.6535
1154.184, 898.0457
1154.666, 897.4127
1155.148, 896.5432
1155.630, 895.5156
1156.112, 894.9077
1156.594, 895.2383
1157.077, 895.8316
1157.559, 896.2263
1158.041, 896.6028
1158.523, 898.0078
1159.005, 900.2010
1159.487, 901.2645
1159.969, 900.4664
1160.451, 899.3102
1160.933, 898.6633
1161.416, 898.2127
1161.898, 897.6933
1162.380, 897.1475
1162.862, 896.9980
1163.344, 897.2410
1163.826, 897.4372
1164.308, 897.2888
1164.790, 897.3210
1165.273, 898.3215
1165.755, 899.4728
1166.237, 899.8378
1166.719, 899.3013
1167.201, 899.0648
1167.683, 899.1505
1168.165, 898.7872
1168.647, 896.7521
1169.130, 895.0407
1169.612, 896.2545
1170.094, 898.7062
1170.576, 899.6569
1171.058, 898.1895
1171.540, 898.2529
1172.022, 900.1028
1172.504, 901.6025
1172.986, 900.5032
1173.469, 898.9166
1173.951, 899.8373
1174.433, 902.0104
1174.915, 902.1590
1175.397, 898.8756
1175.879, 896.9626
1176.361, 896.7941
1176.843, 897.2607
1177.326, 897.5498
1177.808, 897.7819
1178.290, 898.0621
1178.772, 898.4130
1179.254, 898.9122
1179.736, 899.5236
1180.218, 900.4501
1180.700, 901.8809
1181.182, 903.0652
1181.665, 903.0173
1182.147, 902.3192
1182.629, 901.7416
1183.111, 901.3376
1183.593, 901.0117
1184.075, 900.5237
1184.557, 900.7580
1185.039, 902.2003
1185.521, 903.5446
1186.004, 902.2599
1186.486, 900.0269
1186.968, 900.0502
1187.450, 902.5052
1187.932, 903.5438
1188.414, 901.6276
1188.896, 899.6184
1189.378, 897.8846
1189.861, 896.9406
1190.343, 898.4209
1190.825, 901.0020
1191.307, 902.1518
1191.789, 901.3991
1192.271, 900.7500
1192.753, 900.4197
1193.235, 900.7635
1193.718, 902.4091
1194.200, 903.9813
1194.682, 902.0413
1195.164, 886.0124
1195.646, 894.1703
1196.128, 899.1064
1196.610, 900.9858
1197.092, 891.0938
1197.574, 896.0658
1198.057, 894.8760
1198.539, 893.2917
1199.021, 899.9358
1199.503, 891.0002
1199.985, 897.2178
1200.467, 897.1811
1200.949, 899.7929
1201.431, 896.2050
1201.913, 894.3398
1202.396, 898.3805
1202.878, 898.9235
1203.360, 894.0515
1203.842, 895.9595
1204.324, 885.3444
1204.806, 893.7786
1205.288, 893.5873
1205.770, 895.6262
1206.253, 896.9175
1206.735, 895.2902
1207.217, 891.9432
1207.699, 889.7792
1208.181, 888.8009
1208.663, 889.0176
1209.145, 891.6451
1209.627, 892.9957
1210.109, 892.0665
1210.592, 890.7334
1211.074, 890.2216
1211.556, 890.2957
1212.038, 890.2400
1212.520, 890.1661
1213.002, 890.3942
1213.484, 891.4278
1213.966, 892.1913
1214.448, 892.7522
1214.931, 892.7260
1215.413, 891.2501
1215.895, 889.1177
1216.377, 888.8980
1216.859, 889.9830
1217.341, 890.4213
1217.823, 888.2635
1218.305, 887.3808
1218.788, 888.7849
1219.270, 890.2277
1219.752, 889.1604
1220.234, 886.8940
1220.716, 887.0102
1221.198, 888.9293
1221.680, 890.4675
1222.162, 890.5871
1222.645, 890.6300
1223.127, 890.7264
1223.609, 890.7773
1224.091, 890.6609
1224.573, 890.4481
1225.055, 890.0555
1225.537, 889.6710
1226.019, 889.9742
1226.501, 892.4693
1226.984, 893.6572
1227.466, 893.0859
1227.948, 891.6164
1228.430, 889.1295
1228.912, 886.8330
1229.394, 887.7318
1229.876, 891.0440
1230.358, 892.9882
1230.841, 891.4775
1231.323, 890.9345
1231.805, 892.0649
1232.287, 893.2850
1232.769, 892.3546
1233.251, 890.7919
1233.733, 890.9086
1234.215, 892.6185
1234.698, 895.2891
1235.180, 900.9843
1235.662, 901.7724
1236.144, 895.6134
1236.626, 889.0827
1237.108, 890.7667
1237.590, 895.0534
1238.072, 894.1381
1238.554, 888.9840
1239.036, 886.7743
1239.519, 889.1412
1240.001, 890.8199
1240.483, 891.1537
1240.965, 890.7399
1241.447, 889.4041
1241.929, 888.2314
1242.411, 888.7878
1242.893, 890.6827
1243.376, 891.5674
1243.858, 891.0117
1244.340, 891.3109
1244.822, 892.9396
1245.304, 894.2737
1245.786, 893.2750
1246.268, 891.7341
1246.750, 891.4706
1247.233, 892.1432
1247.715, 891.7229
1248.197, 889.9398
1248.679, 889.9006
1249.161, 892.2289
1249.643, 894.0839
1250.125, 891.6760
1250.607, 889.0533
1251.089, 889.7946
1251.572, 892.7136
1252.054, 894.4545
1252.536, 895.0208
1253.018, 895.0729
1253.500, 894.6733
1253.982, 894.2521
1254.464, 894.5305
1254.946, 894.4290
1255.428, 892.5139
1255.911, 890.1614
1256.393, 890.8939
1256.875, 894.2477
1257.357, 895.5851
1257.839, 894.2606
1258.321, 892.6246
1258.803, 892.0517
1259.285, 891.6217
1259.768, 890.9859
1260.250, 890.2355
1260.732, 889.4573
1261.214, 888.7135
1261.696, 888.0042
1262.178, 887.3535
1262.660, 887.7910
1263.142, 891.5086
1263.625, 894.0549
1264.107, 893.8001
1264.589, 892.3016
1265.071, 892.0219
1265.553, 892.5179
1266.035, 892.7034
1266.517, 892.4639
1266.999, 892.3088
1267.481, 892.4066
1267.964, 892.5742
1268.446, 892.8405
1268.928, 893.0069
1269.410, 892.3427
1269.892, 891.6277
1270.374, 892.6084
1270.856, 895.2228
1271.338, 896.2501
1271.820, 894.7139
1272.303, 893.6283
1272.785, 893.6918
1273.267, 893.8223
1273.749, 892.2015
1274.231, 890.3285
1274.713, 890.2455
1275.195, 891.7413
1275.677, 892.2493
1276.160, 891.4604
1276.642, 891.0047
1277.124, 891.1607
1277.606, 891.6085
1278.088, 892.6185
1278.570, 893.2913
1279.052, 892.5046
1279.534, 890.8002
1280.016, 889.8682
1280.499, 889.7305
1280.981, 889.7317
1281.463, 889.7696
1281.945, 890.3143
1282.427, 892.8804
1282.909, 894.7737
1283.391, 894.2312
1283.873, 892.1743
1284.356, 889.4213
1284.838, 886.3986
1285.320, 886.3793
1285.802, 889.5677
1286.284, 892.3525
1286.766, 892.9666
1287.248, 892.4293
1287.730, 890.6171
1288.213, 888.6484
1288.695, 888.1217
1289.177, 888.7068
1289.659, 889.8292
1290.141, 891.3096
1290.623, 892.1718
1291.105, 891.9685
1291.587, 891.1077
1292.069, 889.3160
1292.552, 887.7845
1293.034, 888.7043
1293.516, 890.2714
1293.998, 888.9893
1294.480, 885.5793
1294.962, 885.0393
1295.444, 888.9434
1295.926, 891.5551
1296.408, 892.2662
1296.891, 891.5852
1297.373, 888.3449
1297.855, 885.3167
1298.337, 886.0071
1298.819, 889.0195
1299.301, 889.7274
1299.783, 887.8464
1300.265, 886.9512
1300.748, 887.3246
1301.230, 887.6179
1301.712, 886.2360
1302.194, 885.3029
1302.676, 886.0208
##END=



