##NAMES=Sinhalite
##RRUFFID=R100163
##IDEAL CHEMISTRY=MgAlBO_4_
##LOCALITY=Ratnapura, Sri Lanka
##OWNER=RRUFF
##SOURCE=William W. Pinch
##DESCRIPTION=Pale brown cut gemstone
##STATUS=The identification of this mineral has been confirmed by single-crystal X-ray diffraction.
##URL=rruff.info/R100163
93.49817, 226.2563
93.98029, 222.3555
94.46240, 218.3137
94.94452, 214.1292
95.42664, 210.1628
95.90874, 206.8200
96.39086, 204.0811
96.87298, 201.5032
97.35509, 198.3922
97.83721, 194.1885
98.31933, 190.4337
98.80145, 187.1394
99.28356, 184.2582
99.76568, 181.8061
100.2478, 179.7583
100.7299, 178.0633
101.2120, 176.6452
101.6941, 175.7032
102.1763, 174.8031
102.6584, 173.9178
103.1405, 173.0392
103.6226, 172.1642
104.1047, 171.2776
104.5868, 170.3844
105.0690, 169.5281
105.5511, 169.0032
106.0332, 168.2238
106.5153, 166.6004
106.9974, 164.2547
107.4795, 162.2178
107.9617, 161.4950
108.4438, 161.7063
108.9259, 161.4643
109.4080, 160.1396
109.8901, 158.4250
110.3722, 157.4023
110.8544, 157.4027
111.3365, 157.3225
111.8186, 156.1465
112.3007, 154.3464
112.7828, 152.8599
113.2649, 152.2991
113.7471, 152.6064
114.2292, 153.1039
114.7113, 154.5651
115.1934, 155.4475
115.6755, 154.8432
116.1576, 152.9975
116.6397, 150.8660
117.1219, 149.3767
117.6040, 148.5841
118.0861, 148.3532
118.5682, 149.3711
119.0503, 150.3485
119.5324, 150.4530
120.0146, 149.5403
120.4967, 148.0963
120.9788, 146.9208
121.4609, 146.0779
121.9430, 145.4822
122.4251, 145.2650
122.9073, 145.2491
123.3894, 145.3077
123.8715, 145.4256
124.3536, 145.4597
124.8357, 144.9527
125.3178, 143.6913
125.8000, 142.4973
126.2821, 141.6330
126.7642, 141.0760
127.2463, 140.7801
127.7284, 140.8189
128.2105, 141.0671
128.6927, 141.2973
129.1748, 141.5829
129.6569, 141.7156
130.1390, 141.4351
130.6211, 140.6812
131.1032, 139.8774
131.5854, 139.1247
132.0675, 138.4471
132.5496, 137.8845
133.0317, 137.4536
133.5138, 137.1424
133.9959, 136.9437
134.4781, 136.9956
134.9602, 136.9302
135.4423, 136.4964
135.9244, 135.9303
136.4065, 135.5654
136.8886, 135.6361
137.3708, 136.0991
137.8529, 136.3487
138.3350, 136.1273
138.8171, 135.9349
139.2992, 136.0408
139.7813, 136.2881
140.2635, 136.3066
140.7456, 135.7565
141.2277, 134.5500
141.7098, 133.5003
142.1919, 132.3946
142.6740, 131.5751
143.1561, 131.4259
143.6383, 131.8918
144.1204, 132.3860
144.6025, 132.2808
145.0846, 131.4528
145.5667, 130.7512
146.0488, 130.0563
146.5310, 129.5718
147.0131, 129.6912
147.4952, 130.5952
147.9773, 131.5285
148.4594, 131.4364
148.9415, 130.5085
149.4237, 129.6515
149.9058, 129.1448
150.3879, 128.9531
150.8700, 129.0339
151.3521, 129.5590
151.8342, 130.1146
152.3164, 130.4528
152.7985, 130.5656
153.2806, 130.3950
153.7627, 129.7238
154.2448, 128.5348
154.7269, 127.6497
155.2091, 127.5669
155.6912, 127.5359
156.1733, 127.0858
156.6554, 126.2162
157.1375, 125.3484
157.6196, 125.0182
158.1018, 125.4109
158.5839, 125.8221
159.0660, 126.3166
159.5481, 126.7465
160.0302, 126.9952
160.5123, 127.0416
160.9945, 126.9688
161.4766, 126.9226
161.9587, 126.9488
162.4408, 126.9295
162.9229, 127.0287
163.4050, 127.0118
163.8871, 126.4963
164.3693, 125.3517
164.8514, 124.0105
165.3335, 123.5605
165.8156, 125.0169
166.2977, 125.9457
166.7798, 125.9105
167.2620, 125.2294
167.7441, 124.2689
168.2262, 123.1038
168.7083, 121.9458
169.1904, 121.4414
169.6725, 121.7539
170.1547, 122.2306
170.6368, 122.8213
171.1189, 123.4249
171.6010, 123.6361
172.0831, 123.0688
172.5652, 122.1512
173.0474, 121.7776
173.5295, 122.1584
174.0116, 122.6782
174.4937, 122.9339
174.9758, 122.9272
175.4579, 122.7197
175.9401, 122.2537
176.4222, 121.6220
176.9043, 120.8351
177.3864, 119.7633
177.8685, 118.8456
178.3506, 118.7817
178.8328, 119.8597
179.3149, 120.7627
179.7970, 120.9659
180.2791, 120.8359
180.7612, 120.6580
181.2433, 120.5392
181.7255, 120.4026
182.2076, 120.0531
182.6897, 119.3061
183.1718, 118.6845
183.6539, 118.2225
184.1360, 117.9405
184.6181, 117.9437
185.1003, 118.3053
185.5824, 118.8468
186.0645, 118.9034
186.5466, 117.5689
187.0287, 116.8719
187.5108, 117.8980
187.9930, 119.4878
188.4751, 120.0223
188.9572, 118.5335
189.4393, 115.5087
189.9214, 113.6933
190.4035, 113.9751
190.8857, 114.4792
191.3678, 115.0274
191.8499, 115.5587
192.3320, 116.0197
192.8141, 116.3749
193.2962, 116.6344
193.7784, 116.8723
194.2605, 117.3688
194.7426, 117.5675
195.2247, 116.9546
195.7068, 115.8280
196.1889, 115.0397
196.6711, 115.1499
197.1532, 116.0255
197.6353, 116.8015
198.1174, 117.5933
198.5995, 118.2000
199.0816, 118.5000
199.5638, 118.5093
200.0459, 118.3130
200.5280, 117.8495
201.0101, 117.2430
201.4922, 116.8681
201.9743, 116.9212
202.4565, 117.0227
202.9386, 116.7765
203.4207, 116.1697
203.9028, 115.6782
204.3849, 115.6295
204.8670, 115.8430
205.3492, 116.0876
205.8313, 116.3867
206.3134, 116.6201
206.7955, 116.5888
207.2776, 116.2309
207.7597, 115.8971
208.2419, 115.8156
208.7240, 115.8145
209.2061, 115.6881
209.6882, 115.2999
210.1703, 114.9033
210.6524, 115.0833
211.1346, 116.2579
211.6167, 116.9012
212.0988, 116.1011
212.5809, 114.7824
213.0630, 113.7557
213.5451, 113.3316
214.0273, 113.4254
214.5094, 113.9457
214.9915, 115.3317
215.4736, 116.3350
215.9557, 116.5725
216.4378, 116.4442
216.9200, 116.3287
217.4021, 116.3925
217.8842, 116.5715
218.3663, 116.6507
218.8484, 116.2110
219.3305, 116.3289
219.8127, 117.4661
220.2948, 119.0352
220.7769, 120.4365
221.2590, 121.3972
221.7411, 122.0499
222.2232, 122.7750
222.7054, 123.1594
223.1875, 124.1780
223.6696, 126.2526
224.1517, 128.8568
224.6338, 131.5055
225.1159, 133.9976
225.5980, 136.2130
226.0802, 137.7860
226.5623, 138.8174
227.0444, 139.0264
227.5265, 138.1132
228.0086, 136.4367
228.4907, 134.2744
228.9729, 131.7053
229.4550, 129.0529
229.9371, 127.2342
230.4192, 126.6928
230.9013, 126.2202
231.3834, 125.8095
231.8656, 125.3246
232.3477, 124.5364
232.8298, 123.3389
233.3119, 121.8755
233.7940, 120.3700
234.2761, 118.6346
234.7583, 117.2878
235.2404, 116.7600
235.7225, 116.6825
236.2046, 116.3267
236.6867, 115.3517
237.1688, 114.2685
237.6510, 114.2195
238.1331, 115.4673
238.6152, 116.0716
239.0973, 114.7042
239.5794, 112.2708
240.0615, 110.7928
240.5437, 110.9944
241.0258, 111.9129
241.5079, 112.3042
241.9900, 112.1898
242.4721, 112.0170
242.9542, 111.9093
243.4364, 111.8815
243.9185, 112.0292
244.4006, 112.5016
244.8827, 112.9042
245.3648, 112.8634
245.8469, 112.4226
246.3290, 111.7532
246.8112, 110.6066
247.2933, 109.2661
247.7754, 108.7184
248.2575, 109.5733
248.7396, 110.4149
249.2217, 109.8023
249.7039, 108.1740
250.1860, 107.0460
250.6681, 107.7113
251.1502, 109.6109
251.6323, 110.6468
252.1144, 110.4484
252.5966, 109.7820
253.0787, 108.9581
253.5608, 108.0704
254.0429, 107.3325
254.5250, 107.0008
255.0071, 106.9243
255.4893, 106.4166
255.9714, 104.9801
256.4535, 103.9456
256.9356, 104.1687
257.4177, 105.0823
257.8998, 105.7376
258.3820, 105.4988
258.8641, 104.6821
259.3462, 104.4776
259.8283, 105.4497
260.3104, 106.0992
260.7925, 105.6853
261.2747, 104.7842
261.7568, 104.1753
262.2389, 104.2844
262.7210, 104.8464
263.2031, 105.0526
263.6852, 104.5509
264.1674, 104.3015
264.6495, 104.7489
265.1316, 105.4339
265.6137, 105.8370
266.0958, 105.7235
266.5779, 105.3250
267.0601, 105.2097
267.5422, 105.6147
268.0243, 105.8812
268.5064, 105.8440
268.9885, 105.6872
269.4706, 105.5741
269.9528, 105.5618
270.4349, 105.5900
270.9170, 105.5182
271.3991, 105.1826
271.8812, 105.0857
272.3633, 105.9267
272.8455, 106.5681
273.3276, 105.8159
273.8097, 103.5189
274.2918, 100.8268
274.7739, 99.56088
275.2560, 100.6022
275.7382, 101.2443
276.2202, 101.3285
276.7024, 101.2220
277.1845, 101.1505
277.6666, 101.1461
278.1487, 101.1014
278.6308, 100.8743
279.1129, 100.3961
279.5951, 99.96928
280.0772, 99.55332
280.5593, 99.20881
281.0414, 98.94585
281.5235, 98.77840
282.0056, 98.74380
282.4878, 98.89729
282.9699, 99.27947
283.4520, 99.56238
283.9341, 99.60144
284.4162, 99.69689
284.8983, 100.1027
285.3805, 100.6884
285.8626, 101.0622
286.3447, 100.8654
286.8268, 100.1171
287.3089, 99.96419
287.7910, 100.9718
288.2732, 101.9162
288.7553, 102.4205
289.2374, 102.6074
289.7195, 102.7607
290.2016, 103.0594
290.6837, 103.4473
291.1659, 103.6065
291.6480, 103.3236
292.1301, 103.0610
292.6122, 102.8772
293.0943, 102.7615
293.5764, 102.7121
294.0586, 102.7308
294.5407, 102.7768
295.0228, 102.7394
295.5049, 102.6851
295.9870, 102.4517
296.4691, 101.8688
296.9513, 101.1749
297.4334, 100.6672
297.9155, 100.4366
298.3976, 100.2751
298.8797, 99.82357
299.3618, 98.81029
299.8440, 98.00942
300.3261, 97.34938
300.8082, 96.94357
301.2903, 96.98137
301.7724, 97.45895
302.2545, 98.08820
302.7367, 98.56972
303.2188, 98.93473
303.7009, 98.91045
304.1830, 98.11587
304.6651, 97.27832
305.1472, 96.87492
305.6294, 96.89409
306.1115, 97.01745
306.5936, 96.96806
307.0757, 96.72998
307.5578, 96.64573
308.0399, 96.83560
308.5221, 97.03029
309.0042, 97.01565
309.4863, 96.89820
309.9684, 96.98935
310.4505, 97.51768
310.9326, 98.40063
311.4148, 99.04088
311.8969, 99.04754
312.3790, 99.30225
312.8611, 100.4484
313.3432, 101.9027
313.8253, 102.6970
314.3075, 102.3690
314.7896, 101.2611
315.2717, 100.2185
315.7538, 99.09776
316.2359, 98.25207
316.7180, 97.74635
317.2001, 97.51407
317.6823, 97.59874
318.1644, 97.99554
318.6465, 98.40623
319.1286, 98.35162
319.6107, 97.47133
320.0928, 96.99744
320.5750, 96.98080
321.0571, 97.31556
321.5392, 98.09409
322.0213, 99.23858
322.5034, 100.3255
322.9855, 100.8537
323.4677, 100.6688
323.9498, 101.1835
324.4319, 102.9438
324.9140, 104.7821
325.3961, 106.2730
325.8782, 107.3590
326.3604, 108.0824
326.8425, 108.4752
327.3246, 108.3930
327.8067, 108.1174
328.2888, 107.1224
328.7709, 105.8765
329.2531, 104.2816
329.7352, 102.5250
330.2173, 100.8739
330.6994, 99.45190
331.1815, 98.23729
331.6636, 97.16441
332.1458, 96.22414
332.6279, 95.45820
333.1100, 94.78037
333.5921, 94.32415
334.0742, 94.41460
334.5563, 95.08540
335.0385, 95.76302
335.5206, 95.53455
336.0027, 93.69788
336.4848, 92.79141
336.9669, 93.45448
337.4490, 94.42874
337.9312, 95.00317
338.4133, 95.09007
338.8954, 94.86904
339.3775, 94.46285
339.8596, 93.83340
340.3417, 93.49430
340.8239, 93.64100
341.3060, 93.83129
341.7881, 93.86068
342.2702, 93.81599
342.7523, 93.92190
343.2344, 94.33287
343.7166, 94.95964
344.1987, 95.36356
344.6808, 95.60644
345.1629, 95.51255
345.6450, 94.69921
346.1271, 93.68728
346.6093, 93.04408
347.0914, 92.98066
347.5735, 93.30883
348.0556, 93.67471
348.5377, 93.98561
349.0198, 94.52999
349.5020, 95.83559
349.9841, 96.95920
350.4662, 96.87733
350.9483, 95.71717
351.4304, 94.71302
351.9125, 95.28090
352.3947, 97.69344
352.8768, 99.85490
353.3589, 101.7579
353.8410, 103.4174
354.3231, 104.7589
354.8052, 105.8544
355.2874, 106.8187
355.7695, 107.6949
356.2516, 108.5276
356.7337, 109.6409
357.2158, 111.7332
357.6979, 113.1093
358.1800, 112.6779
358.6621, 111.7593
359.1443, 111.8696
359.6264, 113.5887
360.1085, 116.1720
360.5906, 118.2653
361.0727, 119.5523
361.5548, 121.1858
362.0370, 122.8742
362.5191, 125.2107
363.0012, 128.6023
363.4833, 133.0911
363.9654, 138.3688
364.4475, 143.9552
364.9297, 149.7749
365.4118, 157.1124
365.8939, 165.2405
366.3760, 175.9939
366.8581, 188.9087
367.3402, 204.8697
367.8224, 225.4754
368.3045, 251.4034
368.7866, 282.6046
369.2687, 319.6090
369.7508, 363.8552
370.2329, 410.8627
370.7151, 464.0743
371.1972, 516.8193
371.6793, 566.0392
372.1614, 611.6484
372.6435, 644.2943
373.1256, 651.7473
373.6078, 633.3940
374.0899, 598.6726
374.5720, 537.3383
375.0541, 470.0197
375.5362, 408.7506
376.0183, 354.3625
376.5005, 309.1203
376.9826, 275.8055
377.4647, 252.8746
377.9468, 234.7854
378.4289, 222.0029
378.9110, 212.4761
379.3932, 205.9040
379.8753, 201.3747
380.3574, 197.4281
380.8395, 194.1471
381.3216, 190.7478
381.8037, 186.1560
382.2859, 180.3428
382.7680, 174.3286
383.2501, 168.1280
383.7322, 162.3109
384.2143, 157.5640
384.6964, 154.0099
385.1786, 151.2331
385.6607, 149.0833
386.1428, 147.5633
386.6249, 146.5759
387.1070, 145.9861
387.5891, 146.2621
388.0713, 148.2143
388.5534, 151.6796
389.0355, 155.7622
389.5176, 159.9023
389.9997, 164.8184
390.4818, 170.9018
390.9640, 178.2747
391.4461, 187.5796
391.9282, 199.2149
392.4103, 213.3142
392.8924, 229.6641
393.3745, 248.7659
393.8567, 269.3528
394.3388, 292.8282
394.8209, 317.2184
395.3030, 339.6093
395.7851, 359.6046
396.2672, 374.2258
396.7494, 378.1678
397.2315, 369.2396
397.7136, 353.5035
398.1957, 326.2889
398.6778, 295.4908
399.1599, 265.4645
399.6420, 237.7152
400.1241, 214.5032
400.6063, 197.9239
401.0884, 187.9990
401.5705, 182.5441
402.0526, 182.1774
402.5347, 184.8362
403.0168, 191.0147
403.4990, 199.5972
403.9811, 209.1623
404.4632, 219.0100
404.9453, 228.9842
405.4274, 238.9418
405.9095, 251.3902
406.3917, 259.1147
406.8738, 262.2152
407.3559, 260.9004
407.8380, 254.2178
408.3201, 242.7572
408.8022, 229.1150
409.2844, 215.2646
409.7665, 201.1365
410.2486, 188.8635
410.7307, 178.1448
411.2128, 169.9194
411.6949, 165.0847
412.1771, 162.7777
412.6592, 161.7307
413.1413, 161.3953
413.6234, 161.7215
414.1055, 162.8250
414.5876, 165.1873
415.0698, 166.8657
415.5519, 167.7747
416.0340, 167.5693
416.5161, 165.9649
416.9982, 162.9082
417.4803, 158.4798
417.9625, 152.1978
418.4446, 144.3691
418.9267, 136.8180
419.4088, 129.4586
419.8909, 122.8615
420.3730, 117.5609
420.8552, 113.2425
421.3373, 109.4110
421.8194, 105.9230
422.3015, 102.8258
422.7836, 100.1511
423.2657, 97.90609
423.7479, 96.20164
424.2300, 95.19639
424.7121, 94.69386
425.1942, 94.38435
425.6763, 94.32644
426.1584, 94.16455
426.6406, 93.71680
427.1227, 93.07434
427.6048, 92.34824
428.0869, 91.54147
428.5690, 90.78352
429.0511, 90.15153
429.5333, 89.67251
430.0154, 89.48689
430.4975, 89.95439
430.9796, 90.37704
431.4617, 90.26892
431.9438, 89.79684
432.4260, 89.42262
432.9081, 89.37315
433.3902, 89.51084
433.8723, 89.50085
434.3544, 89.02525
434.8365, 88.94451
435.3187, 89.69670
435.8008, 90.58133
436.2829, 90.89767
436.7650, 90.65149
437.2471, 90.50475
437.7292, 91.18838
438.2114, 92.75325
438.6935, 93.19466
439.1756, 91.05449
439.6577, 89.40115
440.1398, 89.24201
440.6219, 89.88467
441.1040, 90.34946
441.5862, 90.22318
442.0683, 89.86777
442.5504, 89.98793
443.0325, 90.80503
443.5146, 91.42028
443.9967, 91.60122
444.4789, 91.69191
444.9610, 91.84610
445.4431, 92.06619
445.9252, 92.29141
446.4073, 92.46851
446.8894, 92.61592
447.3716, 92.77885
447.8537, 92.89768
448.3358, 93.18200
448.8179, 93.98595
449.3000, 94.89178
449.7821, 95.28723
450.2643, 94.87948
450.7464, 94.75832
451.2285, 96.39405
451.7106, 99.31657
452.1927, 100.9387
452.6748, 100.2964
453.1570, 99.17089
453.6391, 99.41076
454.1212, 100.7446
454.6033, 102.1145
455.0854, 103.0999
455.5675, 104.1450
456.0497, 105.5697
456.5318, 107.3918
457.0139, 109.7339
457.4960, 112.7827
457.9781, 116.2451
458.4602, 119.2850
458.9424, 121.4786
459.4245, 124.1918
459.9066, 128.0353
460.3887, 132.2948
460.8708, 136.2408
461.3529, 139.7721
461.8351, 143.2622
462.3172, 147.1833
462.7993, 151.5581
463.2814, 154.8902
463.7635, 157.5412
464.2456, 158.8273
464.7278, 158.5482
465.2099, 156.8075
465.6920, 153.4277
466.1741, 148.3788
466.6562, 142.6413
467.1383, 137.7557
467.6205, 133.6635
468.1026, 130.5053
468.5847, 128.7128
469.0668, 127.4898
469.5489, 126.5018
470.0310, 125.8046
470.5132, 125.6421
470.9953, 126.1874
471.4774, 127.3421
471.9595, 128.8279
472.4416, 130.5802
472.9237, 132.8940
473.4059, 136.0158
473.8880, 139.6922
474.3701, 143.7424
474.8522, 148.1261
475.3343, 152.8537
475.8164, 157.9301
476.2986, 163.3266
476.7807, 169.1930
477.2628, 175.6414
477.7449, 181.8812
478.2270, 187.0378
478.7091, 191.4686
479.1913, 196.6369
479.6734, 203.5897
480.1555, 210.1980
480.6376, 215.7288
481.1197, 220.0756
481.6018, 223.0041
482.0839, 224.4262
482.5660, 224.5043
483.0482, 223.2368
483.5303, 219.9365
484.0124, 217.8683
484.4945, 217.3080
484.9766, 217.6342
485.4587, 218.7406
485.9409, 220.4608
486.4230, 222.4614
486.9051, 224.5434
487.3872, 226.9007
487.8693, 230.1873
488.3514, 235.4805
488.8336, 239.7015
489.3157, 242.4458
489.7978, 244.3718
490.2799, 246.2838
490.7620, 247.9350
491.2441, 248.1080
491.7263, 245.8370
492.2084, 241.2804
492.6905, 235.1142
493.1726, 227.1938
493.6547, 218.0429
494.1368, 206.7639
494.6190, 194.9651
495.1011, 184.2449
495.5832, 174.9361
496.0653, 166.3521
496.5474, 157.8597
497.0295, 149.7383
497.5117, 143.0067
497.9938, 137.9434
498.4759, 133.7149
498.9580, 129.7641
499.4401, 126.0795
499.9222, 122.5692
500.4044, 119.3339
500.8865, 116.1533
501.3686, 112.7131
501.8507, 109.2527
502.3328, 106.1837
502.8149, 103.6537
503.2971, 101.6176
503.7792, 100.0324
504.2613, 98.95044
504.7434, 98.16431
505.2255, 98.17117
505.7076, 97.95431
506.1898, 96.87657
506.6719, 95.21780
507.1540, 93.55051
507.6361, 92.16230
508.1182, 91.05151
508.6003, 90.21883
509.0825, 89.65194
509.5646, 89.39769
510.0467, 89.88779
510.5288, 90.32693
511.0109, 90.16615
511.4930, 89.53377
511.9752, 89.01933
512.4573, 89.17885
512.9394, 89.58103
513.4215, 89.05717
513.9036, 87.40927
514.3857, 86.07954
514.8679, 85.71408
515.3500, 85.89043
515.8321, 86.07298
516.3142, 86.25636
516.7963, 86.39854
517.2784, 86.45443
517.7606, 86.47159
518.2427, 86.55830
518.7248, 86.71323
519.2069, 86.70765
519.6890, 86.26848
520.1711, 85.58823
520.6533, 85.67049
521.1354, 87.76826
521.6175, 88.84908
522.0996, 87.41592
522.5817, 85.30756
523.0638, 84.55883
523.5460, 85.36791
524.0281, 86.35469
524.5102, 86.15503
524.9923, 84.81308
525.4744, 83.82267
525.9565, 83.26218
526.4387, 83.00106
526.9208, 83.23884
527.4029, 83.62527
527.8850, 83.83497
528.3671, 83.77869
528.8492, 83.50407
529.3314, 82.82399
529.8135, 81.83786
530.2956, 81.57854
530.7777, 82.30272
531.2598, 83.34587
531.7419, 84.60463
532.2241, 85.84126
532.7062, 86.62222
533.1883, 86.70620
533.6704, 86.64891
534.1525, 86.74992
534.6346, 87.00082
535.1168, 87.42339
535.5989, 88.03596
536.0810, 88.66325
536.5631, 89.06921
537.0452, 89.24065
537.5273, 89.81654
538.0095, 91.35087
538.4916, 92.63594
538.9737, 92.82780
539.4558, 92.62582
539.9379, 93.11112
540.4200, 94.61892
540.9022, 96.64090
541.3843, 98.46875
541.8664, 100.0340
542.3485, 101.7968
542.8306, 103.7334
543.3127, 105.9054
543.7948, 108.1579
544.2769, 110.7055
544.7590, 113.7334
545.2411, 117.2541
545.7233, 121.6764
546.2054, 127.3104
546.6875, 134.2004
547.1696, 142.7095
547.6517, 153.0108
548.1339, 164.6733
548.6160, 177.6380
549.0981, 191.6653
549.5802, 206.5672
550.0623, 224.0482
550.5444, 240.4504
551.0266, 254.7850
551.5087, 266.1996
551.9908, 273.2635
552.4729, 275.6135
552.9550, 272.0464
553.4371, 260.4771
553.9193, 239.4791
554.4014, 218.4082
554.8835, 195.0699
555.3656, 174.0789
555.8477, 157.1886
556.3298, 143.5426
556.8120, 132.0730
557.2941, 122.2925
557.7762, 114.3599
558.2583, 108.8138
558.7404, 105.9870
559.2225, 102.9557
559.7047, 99.19842
560.1868, 95.88549
560.6689, 93.50210
561.1510, 91.87854
561.6331, 90.78763
562.1152, 90.32075
562.5974, 89.93581
563.0795, 89.05689
563.5616, 87.83172
564.0437, 86.77710
564.5258, 85.98006
565.0079, 85.42171
565.4901, 85.13773
565.9722, 85.12180
566.4543, 85.06126
566.9364, 84.85264
567.4185, 84.71831
567.9006, 84.82304
568.3828, 85.02367
568.8649, 85.09628
569.3470, 84.99235
569.8291, 84.86073
570.3112, 84.87985
570.7933, 85.06063
571.2755, 85.19748
571.7576, 85.24531
572.2397, 85.30494
572.7218, 85.38016
573.2039, 85.48918
573.6860, 85.56515
574.1682, 85.60374
574.6503, 85.92164
575.1324, 87.12601
575.6145, 88.92476
576.0966, 89.91285
576.5787, 89.82389
577.0609, 89.62454
577.5430, 89.80594
578.0251, 90.31979
578.5072, 91.04257
578.9893, 92.15621
579.4714, 93.06276
579.9536, 93.35253
580.4357, 93.40491
580.9178, 93.59629
581.3999, 94.01260
581.8820, 94.77566
582.3641, 96.04807
582.8463, 97.68834
583.3284, 98.86748
583.8105, 99.02947
584.2926, 99.54018
584.7747, 100.4417
585.2568, 101.7558
585.7390, 103.7928
586.2211, 106.3433
586.7032, 108.5777
587.1853, 109.7267
587.6674, 110.2670
588.1495, 111.4925
588.6317, 113.4853
589.1138, 115.6980
589.5959, 118.1269
590.0780, 120.5529
590.5601, 122.6786
591.0422, 124.5129
591.5244, 126.3338
592.0065, 127.7759
592.4886, 129.5849
592.9707, 132.7003
593.4528, 136.7950
593.9349, 140.7306
594.4171, 143.9834
594.8992, 146.8959
595.3813, 150.0269
595.8634, 153.2054
596.3455, 157.1775
596.8276, 162.0891
597.3098, 167.5110
597.7919, 173.4377
598.2740, 179.7246
598.7561, 186.1112
599.2382, 192.4889
599.7203, 199.2100
600.2025, 206.7789
600.6846, 215.2151
601.1667, 224.3101
601.6488, 234.3582
602.1309, 244.3735
602.6130, 254.0787
603.0952, 263.2046
603.5773, 270.8512
604.0594, 276.8656
604.5415, 281.5424
605.0236, 285.6185
605.5057, 288.2633
605.9879, 288.0340
606.4700, 284.7803
606.9521, 279.4449
607.4342, 272.6942
607.9163, 264.6205
608.3984, 255.7727
608.8806, 245.9531
609.3627, 235.5930
609.8448, 224.6597
610.3269, 213.2766
610.8090, 200.8861
611.2911, 187.9553
611.7733, 176.2110
612.2554, 166.9805
612.7375, 159.6294
613.2196, 152.7503
613.7017, 146.3314
614.1838, 140.0960
614.6660, 133.7781
615.1481, 127.7982
615.6302, 122.4943
616.1123, 117.8275
616.5944, 114.0608
617.0765, 111.8017
617.5587, 109.9362
618.0408, 107.9026
618.5229, 105.6660
619.0050, 102.9963
619.4871, 99.83729
619.9692, 96.97990
620.4514, 95.64037
620.9335, 96.11946
621.4156, 95.77136
621.8977, 93.68476
622.3798, 91.82652
622.8619, 90.73447
623.3441, 90.11754
623.8262, 89.81400
624.3083, 89.76048
624.7904, 89.40291
625.2725, 87.86855
625.7546, 85.71358
626.2367, 84.59779
626.7188, 84.67705
627.2009, 84.92522
627.6830, 84.88686
628.1652, 84.62076
628.6473, 84.22652
629.1294, 83.67043
629.6115, 83.12797
630.0936, 82.80809
630.5757, 82.35239
631.0579, 81.25335
631.5400, 79.79763
632.0221, 78.70898
632.5042, 78.35777
632.9863, 78.55442
633.4684, 79.08651
633.9506, 80.12521
634.4327, 80.63927
634.9148, 80.25799
635.3969, 79.73341
635.8790, 79.31998
636.3611, 79.05761
636.8433, 79.08036
637.3254, 79.55022
637.8075, 79.89011
638.2896, 79.63034
638.7717, 78.96422
639.2538, 78.15083
639.7360, 77.24609
640.2181, 76.54072
640.7002, 76.26633
641.1823, 76.32934
641.6644, 76.34787
642.1465, 76.36037
642.6287, 76.26750
643.1108, 75.97242
643.5929, 75.65552
644.0750, 75.42325
644.5571, 75.27560
645.0392, 75.15044
645.5214, 74.99205
646.0035, 74.91348
646.4856, 75.21732
646.9677, 75.90098
647.4498, 76.29683
647.9319, 76.25840
648.4141, 75.96725
648.8962, 75.40829
649.3783, 74.69570
649.8604, 74.28120
650.3425, 74.22908
650.8246, 74.43856
651.3068, 75.22037
651.7889, 76.05946
652.2710, 76.20963
652.7531, 75.65626
653.2352, 75.00600
653.7173, 74.71851
654.1995, 74.73631
654.6816, 74.82549
655.1637, 74.98826
655.6458, 75.21684
656.1279, 75.75038
656.6100, 76.14339
657.0922, 75.99092
657.5743, 75.45290
658.0564, 75.12022
658.5385, 75.45069
659.0206, 75.74919
659.5027, 75.05815
659.9849, 73.80606
660.4670, 73.35181
660.9491, 74.03114
661.4312, 74.80073
661.9133, 74.63688
662.3954, 73.64257
662.8776, 73.29028
663.3597, 74.46854
663.8418, 75.12572
664.3239, 74.54858
664.8060, 73.76758
665.2881, 73.65050
665.7703, 74.16763
666.2524, 74.74623
666.7345, 75.03201
667.2166, 75.16369
667.6987, 75.42716
668.1808, 75.81599
668.6630, 76.09586
669.1451, 76.23125
669.6272, 76.18734
670.1093, 75.80033
670.5914, 75.12719
671.0735, 74.84717
671.5557, 75.28526
672.0378, 75.73079
672.5199, 76.01363
673.0020, 76.15177
673.4841, 76.07001
673.9662, 75.83196
674.4484, 75.71947
674.9305, 75.96640
675.4126, 76.47706
675.8947, 77.00962
676.3768, 77.66122
676.8589, 77.86739
677.3411, 77.10062
677.8232, 76.32164
678.3053, 76.30417
678.7874, 76.90823
679.2695, 77.65982
679.7516, 78.85471
680.2338, 79.66152
680.7159, 79.18800
681.1980, 78.16381
681.6801, 77.66858
682.1622, 77.91045
682.6443, 78.71436
683.1265, 80.06297
683.6086, 81.70015
684.0907, 82.29493
684.5728, 81.15297
685.0549, 80.48552
685.5370, 80.79092
686.0192, 81.47363
686.5013, 82.41872
686.9834, 83.47105
687.4655, 84.22595
687.9476, 84.26524
688.4297, 84.44296
688.9119, 85.65281
689.3940, 87.55176
689.8761, 89.45187
690.3582, 91.22783
690.8403, 92.65457
691.3224, 93.47404
691.8046, 93.88853
692.2867, 94.88592
692.7688, 96.88444
693.2509, 98.81609
693.7330, 100.5926
694.2151, 102.3261
694.6973, 103.8516
695.1794, 105.4165
695.6615, 107.6050
696.1436, 110.7754
696.6257, 114.2723
697.1078, 117.3609
697.5900, 120.1768
698.0721, 123.0667
698.5542, 126.0098
699.0363, 129.7508
699.5184, 134.7643
700.0005, 140.9742
700.4827, 148.0767
700.9648, 156.6213
701.4469, 165.1453
701.9290, 173.3383
702.4111, 181.7800
702.8932, 190.9605
703.3754, 200.6176
703.8575, 210.5976
704.3396, 220.8604
704.8217, 230.2104
705.3038, 237.4621
705.7859, 242.5102
706.2681, 244.9120
706.7502, 244.6287
707.2323, 241.5480
707.7144, 235.2120
708.1965, 226.3286
708.6786, 216.2298
709.1607, 204.3065
709.6428, 193.0171
710.1249, 182.1804
710.6071, 172.2801
711.0892, 163.7662
711.5713, 156.3508
712.0534, 149.6050
712.5355, 143.3393
713.0176, 137.6893
713.4998, 132.6080
713.9819, 128.2050
714.4640, 125.1706
714.9461, 123.7177
715.4282, 122.4074
715.9103, 120.6595
716.3925, 118.7441
716.8746, 116.9048
717.3567, 115.0358
717.8388, 114.0928
718.3209, 114.8479
718.8030, 115.7965
719.2852, 116.2865
719.7673, 116.5096
720.2494, 116.6739
720.7315, 116.8837
721.2136, 117.3311
721.6957, 118.1750
722.1779, 119.4060
722.6600, 121.0875
723.1421, 123.3006
723.6242, 125.3196
724.1063, 126.8397
724.5884, 128.2350
725.0706, 129.7919
725.5527, 131.5397
726.0348, 133.6742
726.5169, 136.3926
726.9990, 139.2840
727.4811, 142.2178
727.9633, 145.2568
728.4454, 148.3432
728.9275, 151.5493
729.4096, 155.1134
729.8917, 159.1915
730.3738, 163.7353
730.8560, 168.7581
731.3381, 174.2630
731.8202, 179.7540
732.3023, 184.9540
732.7844, 190.6267
733.2665, 197.5586
733.7487, 205.4178
734.2308, 212.8982
734.7129, 219.7579
735.1950, 226.6181
735.6771, 233.1703
736.1592, 240.1664
736.6414, 248.7968
737.1235, 258.3603
737.6056, 267.0994
738.0877, 274.2865
738.5698, 280.6750
739.0519, 287.4677
739.5341, 294.5200
740.0162, 300.7274
740.4983, 306.0852
740.9804, 310.2260
741.4625, 312.7849
741.9446, 314.1504
742.4268, 315.1830
742.9089, 316.2476
743.3910, 315.2867
743.8731, 311.2475
744.3552, 306.1029
744.8373, 300.5190
745.3195, 294.5491
745.8016, 288.1488
746.2837, 281.3413
746.7658, 274.1516
747.2479, 266.6012
747.7300, 258.7405
748.2122, 250.6491
748.6943, 242.3076
749.1764, 234.0909
749.6585, 226.0030
750.1406, 218.3619
750.6227, 211.4954
751.1049, 205.4149
751.5870, 199.3400
752.0691, 193.0969
752.5512, 187.1057
753.0333, 181.1390
753.5154, 175.6582
753.9976, 171.1987
754.4797, 167.5861
754.9618, 164.1992
755.4439, 160.7782
755.9260, 157.1854
756.4081, 152.8591
756.8903, 148.1508
757.3724, 144.7548
757.8545, 142.9231
758.3366, 141.4471
758.8187, 139.6587
759.3008, 137.6228
759.7830, 135.4796
760.2651, 133.1030
760.7472, 130.9082
761.2293, 128.7059
761.7114, 126.8908
762.1935, 125.9876
762.6757, 125.4022
763.1578, 124.3614
763.6399, 122.6921
764.1220, 120.7135
764.6041, 118.3097
765.0862, 115.9326
765.5684, 114.3020
766.0505, 113.3373
766.5326, 112.6872
767.0147, 112.2470
767.4968, 111.9005
767.9789, 111.5525
768.4611, 111.1900
768.9432, 110.5846
769.4253, 109.6232
769.9074, 108.6010
770.3895, 107.2739
770.8716, 106.1517
771.3538, 105.6531
771.8359, 105.6647
772.3180, 105.8263
772.8001, 106.2406
773.2822, 106.3335
773.7643, 105.5277
774.2465, 104.2510
774.7286, 103.0409
775.2107, 101.9842
775.6928, 101.0389
776.1749, 100.1667
776.6570, 99.49440
777.1392, 99.34760
777.6213, 99.82857
778.1034, 100.0917
778.5855, 100.0719
779.0676, 99.94106
779.5497, 99.57467
780.0319, 99.25845
780.5140, 99.48110
780.9961, 100.3064
781.4782, 100.7997
781.9603, 100.3589
782.4424, 99.92637
782.9246, 100.0535
783.4067, 100.5331
783.8888, 101.0063
784.3709, 101.4284
784.8530, 102.1020
785.3351, 103.4200
785.8173, 104.9137
786.2994, 105.0992
786.7815, 103.9715
787.2636, 103.7327
787.7457, 104.8380
788.2278, 106.7514
788.7100, 109.4131
789.1921, 112.4820
789.6742, 114.5080
790.1563, 114.6118
790.6384, 115.3544
791.1205, 117.9157
791.6026, 120.0972
792.0847, 120.1228
792.5668, 119.1151
793.0490, 119.2083
793.5311, 121.0037
794.0132, 122.7575
794.4953, 122.9501
794.9774, 122.2023
795.4595, 121.6306
795.9417, 121.1652
796.4238, 120.2406
796.9059, 118.6589
797.3880, 116.6991
797.8701, 114.6206
798.3522, 112.4295
798.8344, 110.4238
799.3165, 108.5960
799.7986, 106.9523
800.2807, 105.5636
800.7628, 104.3050
801.2449, 103.2947
801.7271, 102.3583
802.2092, 100.9721
802.6913, 98.67311
803.1734, 96.78085
803.6555, 96.27234
804.1376, 96.31606
804.6198, 96.28004
805.1019, 95.97377
805.5840, 94.92162
806.0661, 92.94838
806.5482, 91.08309
807.0303, 91.00742
807.5125, 92.44906
807.9946, 92.63613
808.4767, 91.29202
808.9588, 90.26164
809.4409, 90.22442
809.9230, 90.64394
810.4052, 91.02469
810.8873, 91.36028
811.3694, 91.42737
811.8515, 91.10262
812.3336, 90.68181
812.8157, 89.99339
813.2979, 89.41988
813.7800, 89.31984
814.2621, 89.60181
814.7442, 90.02426
815.2263, 90.55915
815.7084, 90.82128
816.1906, 90.11175
816.6727, 88.96500
817.1548, 88.53896
817.6369, 88.83348
818.1190, 89.16424
818.6011, 89.21592
819.0833, 89.30154
819.5654, 89.93225
820.0475, 91.14098
820.5296, 91.97580
821.0117, 92.41341
821.4938, 92.52707
821.9760, 92.04114
822.4581, 91.49043
822.9402, 91.27360
823.4223, 91.36971
823.9044, 91.66743
824.3865, 92.31696
824.8687, 92.90627
825.3508, 93.22078
825.8329, 93.44727
826.3150, 93.79237
826.7971, 94.21145
827.2792, 94.49316
827.7614, 94.54249
828.2435, 94.60543
828.7256, 94.97152
829.2077, 95.60341
829.6898, 96.43042
830.1719, 97.44393
830.6541, 98.34152
831.1362, 99.00777
831.6183, 99.52093
832.1004, 99.98697
832.5825, 100.4019
833.0646, 100.5903
833.5468, 99.87926
834.0289, 100.0089
834.5110, 101.8066
834.9931, 103.8649
835.4752, 105.3477
835.9573, 106.3874
836.4395, 107.4642
836.9216, 108.7408
837.4037, 109.9232
837.8858, 110.2782
838.3679, 110.9139
838.8500, 113.4074
839.3322, 117.1273
839.8143, 120.2971
840.2964, 122.3206
840.7785, 124.0607
841.2606, 126.3780
841.7427, 129.1866
842.2249, 132.1053
842.7070, 135.1043
843.1891, 138.5503
843.6712, 142.5532
844.1533, 146.8859
844.6354, 151.4066
845.1176, 156.0636
845.5997, 160.5560
846.0818, 163.9365
846.5639, 168.6618
847.0460, 175.8220
847.5281, 183.1157
848.0103, 188.9824
848.4924, 194.5337
848.9745, 201.3908
849.4566, 209.8732
849.9387, 219.5270
850.4208, 230.2624
850.9030, 241.9961
851.3851, 254.9961
851.8672, 268.9045
852.3493, 282.4912
852.8314, 295.8395
853.3135, 311.4250
853.7957, 331.0742
854.2778, 353.7451
854.7599, 376.9530
855.2420, 400.7519
855.7241, 426.3714
856.2062, 454.4474
856.6884, 481.4932
857.1705, 505.7843
857.6526, 527.5208
858.1347, 547.6140
858.6168, 567.0504
859.0989, 579.9859
859.5811, 586.9258
860.0632, 586.9332
860.5453, 578.4788
861.0274, 563.9742
861.5095, 544.5443
861.9916, 520.8655
862.4738, 494.7909
862.9559, 465.8732
863.4380, 436.3555
863.9201, 406.4977
864.4022, 377.6946
864.8843, 351.8641
865.3665, 328.7650
865.8486, 307.7927
866.3307, 288.6670
866.8128, 271.1666
867.2949, 255.2159
867.7770, 240.7881
868.2592, 227.5857
868.7413, 215.6330
869.2234, 205.2223
869.7055, 196.5320
870.1876, 188.8551
870.6697, 181.6566
871.1519, 174.9403
871.6340, 168.8040
872.1161, 163.2256
872.5981, 158.2701
873.0803, 154.5976
873.5624, 150.8870
874.0445, 146.2517
874.5266, 141.4134
875.0087, 137.4884
875.4908, 134.6972
875.9730, 131.6942
876.4551, 127.7694
876.9372, 123.7942
877.4193, 119.9589
877.9014, 116.5946
878.3835, 114.4251
878.8657, 113.2290
879.3478, 111.7355
879.8299, 109.1004
880.3120, 106.1868
880.7941, 104.1507
881.2762, 102.8152
881.7584, 101.8173
882.2405, 101.0661
882.7226, 99.78111
883.2047, 97.54275
883.6868, 95.25583
884.1689, 94.27901
884.6511, 94.54754
885.1332, 93.97569
885.6153, 92.27088
886.0974, 90.48968
886.5795, 88.54248
887.0616, 86.95192
887.5438, 86.32838
888.0259, 86.35751
888.5080, 86.08036
888.9901, 85.36929
889.4722, 84.60470
889.9543, 83.85516
890.4365, 83.04420
890.9186, 81.70454
891.4007, 80.50658
891.8828, 80.77811
892.3649, 82.42957
892.8470, 83.27098
893.3292, 81.39021
893.8113, 79.03209
894.2934, 78.55070
894.7755, 79.00977
895.2576, 78.71634
895.7397, 77.63212
896.2219, 76.78968
896.7040, 76.74111
897.1861, 75.99242
897.6682, 76.49873
898.1503, 75.52744
898.6324, 75.17435
899.1146, 75.49921
899.5967, 75.54649
900.0788, 74.94869
900.5609, 74.25794
901.0430, 74.01449
901.5251, 74.14997
902.0073, 74.24931
902.4894, 74.37450
902.9715, 74.33598
903.4536, 74.10598
903.9357, 73.72677
904.4178, 72.86747
904.9000, 72.04776
905.3821, 72.16923
905.8642, 73.36180
906.3463, 74.15195
906.8284, 74.05398
907.3105, 73.63641
907.7927, 72.78652
908.2748, 72.01376
908.7569, 71.91231
909.2390, 72.37894
909.7211, 72.91125
910.2032, 73.30068
910.6854, 73.61112
911.1675, 73.83003
911.6496, 74.04991
912.1317, 74.58181
912.6138, 75.25771
913.0959, 75.41771
913.5781, 74.89307
914.0602, 74.23706
914.5423, 73.96656
915.0244, 73.61369
915.5065, 73.73001
915.9886, 73.30250
916.4708, 73.12588
916.9529, 73.23052
917.4350, 73.80666
917.9171, 75.16602
918.3992, 76.67876
918.8813, 77.14951
919.3635, 76.36806
919.8456, 76.19755
920.3277, 76.94033
920.8098, 77.79948
921.2919, 78.91999
921.7740, 79.82153
922.2562, 79.95540
922.7383, 79.59924
923.2204, 79.58260
923.7025, 80.05642
924.1846, 80.72613
924.6667, 81.60686
925.1489, 82.57041
925.6310, 83.50317
926.1131, 84.48496
926.5952, 85.72579
927.0773, 87.18507
927.5594, 88.43464
928.0416, 89.13106
928.5237, 89.69136
929.0058, 90.27065
929.4879, 91.09066
929.9700, 92.47734
930.4521, 94.45152
930.9343, 97.07354
931.4164, 100.3363
931.8985, 103.5827
932.3806, 105.9943
932.8627, 107.7773
933.3448, 109.4092
933.8270, 110.9456
934.3091, 113.0069
934.7912, 115.7010
935.2733, 119.2361
935.7554, 123.9142
936.2375, 129.1377
936.7197, 133.3775
937.2018, 136.3851
937.6839, 139.9675
938.1660, 144.6032
938.6481, 148.6298
939.1302, 151.4416
939.6124, 153.5489
940.0945, 155.4054
940.5766, 157.0132
941.0587, 158.4196
941.5408, 160.1558
942.0229, 160.8924
942.5051, 160.2559
942.9872, 158.9471
943.4693, 157.6172
943.9514, 155.6591
944.4335, 151.7241
944.9156, 145.7756
945.3978, 140.8010
945.8799, 138.9001
946.3620, 136.8733
946.8441, 132.9604
947.3262, 128.2496
947.8083, 123.5879
948.2905, 119.1881
948.7726, 115.1298
949.2547, 111.4399
949.7368, 108.0565
950.2189, 104.9514
950.7010, 102.0816
951.1832, 99.41180
951.6653, 96.90182
952.1474, 94.29990
952.6295, 91.66462
953.1116, 89.65905
953.5938, 88.75457
954.0759, 88.32304
954.5580, 87.35555
955.0400, 85.92862
955.5222, 84.35411
956.0043, 82.64754
956.4864, 81.22916
956.9685, 80.24427
957.4506, 79.45918
957.9327, 78.67017
958.4149, 77.87186
958.8970, 77.07173
959.3791, 76.27273
959.8612, 75.41917
960.3433, 74.43236
960.8254, 73.59602
961.3076, 73.06367
961.7897, 72.72914
962.2718, 72.43447
962.7539, 72.17583
963.2360, 72.16234
963.7181, 72.71192
964.2003, 73.01347
964.6824, 72.93604
965.1645, 72.66237
965.6466, 72.23434
966.1287, 71.69374
966.6108, 71.00819
967.0930, 70.11834
967.5751, 69.68217
968.0572, 70.52849
968.5393, 70.98195
969.0214, 69.81339
969.5035, 68.42414
969.9857, 68.28823
970.4678, 69.02949
970.9499, 69.31696
971.4320, 68.66380
971.9141, 68.11546
972.3962, 68.46299
972.8784, 69.00349
973.3605, 69.09960
973.8426, 68.97604
974.3247, 69.10890
974.8068, 69.46272
975.2889, 69.50943
975.7711, 68.90295
976.2532, 68.19953
976.7353, 68.04007
977.2174, 68.20098
977.6995, 68.26731
978.1816, 68.27399
978.6638, 68.43697
979.1459, 68.80558
979.6280, 69.31393
980.1101, 70.02205
980.5922, 70.46598
981.0743, 69.12919
981.5565, 66.49740
982.0386, 65.78181
982.5207, 67.16289
983.0028, 68.62105
983.4849, 69.39632
983.9670, 69.74529
984.4492, 69.89017
984.9313, 69.90410
985.4134, 70.24906
985.8955, 71.05118
986.3776, 71.06557
986.8597, 69.85361
987.3419, 69.08308
987.8240, 69.71523
988.3061, 70.92647
988.7882, 71.62206
989.2703, 71.80003
989.7524, 71.47289
990.2346, 70.15842
990.7167, 69.42575
991.1988, 69.75999
991.6809, 70.29588
992.1630, 70.63773
992.6451, 70.82700
993.1273, 70.94368
993.6094, 71.00155
994.0915, 70.88982
994.5736, 70.41251
995.0557, 70.03659
995.5378, 69.82848
996.0200, 69.77019
996.5021, 69.94245
996.9842, 70.22710
997.4663, 70.51626
997.9484, 70.88942
998.4305, 70.54441
998.9127, 68.37957
999.3948, 66.58336
999.8769, 66.17039
1000.359, 66.49687
1000.841, 67.40366
1001.323, 68.44132
1001.805, 68.59563
1002.287, 67.45309
1002.770, 66.37791
1003.252, 65.96793
1003.734, 65.98481
1004.216, 66.51089
1004.698, 67.19859
1005.180, 67.73054
1005.662, 67.99238
1006.144, 67.81027
1006.627, 67.06233
1007.109, 66.20847
1007.591, 65.43655
1008.073, 64.92394
1008.555, 64.94994
1009.037, 65.37241
1009.519, 66.14194
1010.001, 67.05405
1010.483, 67.31918
1010.966, 66.38859
1011.448, 65.32904
1011.930, 65.66185
1012.412, 66.63554
1012.894, 66.64737
1013.376, 65.96913
1013.858, 65.75179
1014.340, 66.20415
1014.823, 66.64507
1015.305, 66.61606
1015.787, 66.21811
1016.269, 65.39431
1016.751, 64.35461
1017.233, 63.92189
1017.715, 64.08761
1018.197, 64.64529
1018.679, 65.51818
1019.162, 66.08891
1019.644, 65.76884
1020.126, 66.50372
1020.608, 66.88369
1021.090, 67.03197
1021.572, 67.82043
1022.054, 67.86153
1022.536, 67.88459
1023.018, 68.12356
1023.501, 68.37462
1023.983, 68.42685
1024.465, 68.40709
1024.947, 68.79236
1025.429, 69.64534
1025.911, 70.10817
1026.393, 70.09775
1026.875, 69.91624
1027.358, 69.53252
1027.840, 69.47829
1028.322, 70.39672
1028.804, 71.96375
1029.286, 72.82226
1029.768, 72.87638
1030.250, 72.55141
1030.732, 71.60059
1031.214, 70.96989
1031.697, 70.96801
1032.179, 71.46748
1032.661, 72.41110
1033.143, 73.73075
1033.625, 75.10979
1034.107, 76.64725
1034.589, 77.99205
1035.071, 79.02752
1035.553, 80.07884
1036.036, 81.25239
1036.518, 82.47672
1037.000, 83.56602
1037.482, 84.61816
1037.964, 86.26456
1038.446, 89.17126
1038.928, 91.33464
1039.410, 92.23805
1039.893, 93.08415
1040.375, 94.08784
1040.857, 95.35697
1041.339, 97.12403
1041.821, 99.28273
1042.303, 101.2312
1042.785, 103.1006
1043.267, 104.4986
1043.750, 105.2142
1044.232, 105.6990
1044.714, 106.2454
1045.196, 106.5236
1045.678, 106.1622
1046.160, 105.2317
1046.642, 104.1349
1047.124, 103.1692
1047.606, 101.4503
1048.089, 98.20662
1048.571, 94.99863
1049.053, 92.25025
1049.535, 89.98115
1050.017, 88.39246
1050.499, 87.28014
1050.981, 85.81554
1051.463, 83.67646
1051.945, 81.72572
1052.428, 80.05578
1052.910, 78.71833
1053.392, 78.12978
1053.874, 77.57687
1054.356, 76.16576
1054.838, 74.15721
1055.320, 72.64908
1055.802, 72.01725
1056.285, 71.34599
1056.767, 70.33501
1057.249, 69.27414
1057.731, 68.05200
1058.213, 67.05139
1058.695, 66.79377
1059.177, 67.06738
1059.659, 67.20926
1060.141, 67.08931
1060.624, 66.72190
1061.106, 65.84878
1061.588, 65.04690
1062.070, 64.57643
1062.552, 64.34312
1063.034, 64.54160
1063.516, 64.83953
1063.998, 64.21754
1064.480, 62.21133
1064.963, 61.05705
1065.445, 62.75322
1065.927, 64.16245
1066.409, 63.10789
1066.891, 61.42887
1067.373, 60.87148
1067.855, 61.23640
1068.337, 61.67047
1068.820, 61.97720
1069.302, 62.20215
1069.784, 62.36176
1070.266, 62.44799
1070.748, 62.44123
1071.230, 62.37372
1071.712, 62.20454
1072.194, 62.02079
1072.677, 62.09035
1073.159, 62.45616
1073.641, 62.46497
1074.123, 61.59021
1074.605, 60.59720
1075.087, 59.51770
1075.569, 58.81527
1076.051, 59.18938
1076.533, 60.11896
1077.016, 60.64153
1077.498, 60.59188
1077.980, 60.45284
1078.462, 60.40229
1078.944, 60.34363
1079.426, 60.18716
1079.908, 60.04544
1080.390, 60.09768
1080.872, 60.18299
1081.354, 59.99507
1081.837, 59.53364
1082.319, 59.15200
1082.801, 58.96295
1083.283, 58.91507
1083.765, 59.19002
1084.247, 59.38486
1084.729, 58.89144
1085.211, 58.32503
1085.694, 58.75412
1086.176, 60.02095
1086.658, 60.77886
1087.140, 60.47457
1087.622, 59.93454
1088.104, 59.19751
1088.586, 58.67828
1089.068, 58.85600
1089.551, 59.24459
1090.033, 59.14747
1090.515, 58.72663
1090.997, 58.82794
1091.479, 59.87761
1091.961, 60.53403
1092.443, 60.16862
1092.925, 59.43494
1093.407, 58.36126
1093.890, 57.33949
1094.372, 56.59974
1094.854, 56.24493
1095.336, 56.51524
1095.818, 57.52888
1096.300, 58.47386
1096.782, 59.35110
1097.264, 59.77298
1097.746, 59.12539
1098.229, 58.40784
1098.711, 58.64569
1099.193, 59.29993
1099.675, 59.16946
1100.157, 58.08826
1100.639, 57.42953
1101.121, 57.91665
1101.603, 58.31978
1102.086, 58.27810
1102.568, 58.08535
1103.050, 57.67531
1103.532, 57.37321
1104.014, 57.87189
1104.496, 59.06750
1104.978, 59.46629
1105.460, 57.90477
1105.943, 57.07594
1106.425, 58.00657
1106.907, 59.01594
1107.389, 59.33100
1107.871, 59.37257
1108.353, 59.78835
1108.835, 59.32639
1109.317, 60.13433
1109.799, 58.41223
1110.281, 57.19641
1110.764, 56.76822
1111.246, 56.67937
1111.728, 57.15096
1112.210, 57.59309
1112.692, 57.34671
1113.174, 56.75475
1113.656, 56.77114
1114.138, 57.61220
1114.621, 58.07673
1115.103, 57.96467
1115.585, 57.79596
1116.067, 57.59092
1116.549, 57.42013
1117.031, 57.19661
1117.513, 57.13988
1117.995, 57.76047
1118.478, 59.07203
1118.960, 59.60389
1119.442, 59.10894
1119.924, 58.35656
1120.406, 57.06780
1120.888, 56.25374
1121.370, 56.50699
1121.852, 57.19989
1122.334, 57.72064
1122.817, 58.02216
1123.299, 57.78871
1123.781, 56.83949
1124.263, 56.03444
1124.745, 55.26039
1125.227, 55.22552
1125.709, 56.39766
1126.191, 57.54782
1126.673, 57.60728
1127.156, 57.01093
1127.638, 56.78093
1128.120, 56.92267
1128.602, 57.36357
1129.084, 58.16606
1129.566, 58.59463
1130.048, 58.49373
1130.530, 57.98690
1131.013, 57.05574
1131.495, 56.26658
1131.977, 56.61597
1132.459, 57.75069
1132.941, 57.76680
1133.423, 56.77362
1133.905, 56.30195
1134.387, 56.50856
1134.870, 56.94498
1135.352, 57.43438
1135.834, 57.68848
1136.316, 57.34199
1136.798, 56.82044
1137.280, 57.29637
1137.762, 56.92855
1138.244, 56.77433
1138.726, 57.00014
1139.208, 56.42923
1139.691, 56.73429
1140.173, 56.78176
1140.655, 55.81084
1141.137, 54.73087
1141.619, 54.75529
1142.101, 55.40920
1142.583, 56.17522
1143.065, 56.77892
1143.548, 56.25100
1144.030, 54.95732
1144.512, 54.74258
1144.994, 56.26316
1145.476, 57.78062
1145.958, 57.75873
1146.440, 57.27850
1146.922, 57.47393
1147.405, 57.82144
1147.887, 57.37862
1148.369, 56.65192
1148.851, 57.02573
1149.333, 58.51499
1149.815, 59.40377
1150.297, 58.70144
1150.779, 57.75521
1151.261, 57.21169
1151.744, 56.87280
1152.226, 56.57208
1152.708, 56.41022
1153.190, 56.63783
1153.672, 57.10761
1154.154, 57.35485
1154.636, 57.25469
1155.118, 57.09274
1155.600, 56.82312
1156.083, 56.68312
1156.565, 56.80030
1157.047, 57.02830
1157.529, 57.51526
1158.011, 57.91725
1158.493, 57.51656
1158.975, 56.30567
1159.457, 55.65525
1159.940, 56.29549
1160.422, 56.42150
1160.904, 55.25815
1161.386, 54.65118
1161.868, 55.86887
1162.350, 57.10257
1162.832, 56.39447
1163.314, 54.56230
1163.796, 54.25347
1164.279, 55.84701
1164.761, 56.85789
1165.243, 57.19112
1165.725, 57.24567
1166.207, 57.06374
1166.689, 56.68567
1167.171, 56.05025
1167.653, 55.48455
1168.135, 55.47943
1168.618, 55.94183
1169.100, 56.44213
1169.582, 56.97308
1170.064, 57.00614
1170.546, 56.50883
1171.028, 56.09366
1171.510, 55.96479
1171.992, 56.20357
1172.474, 56.95196
1172.957, 57.71247
1173.439, 57.45763
1173.921, 56.56694
1174.403, 56.20475
1174.885, 56.20654
1175.367, 55.75621
1175.849, 54.92601
1176.331, 54.86995
1176.814, 56.05386
1177.296, 57.21378
1177.778, 56.92715
1178.260, 56.45212
1178.742, 57.68898
1179.224, 59.31392
1179.706, 59.37183
1180.188, 58.42084
1180.671, 57.85725
1181.153, 57.87872
1181.635, 57.74657
1182.117, 57.02723
1182.599, 56.53526
1183.081, 57.04058
1183.563, 57.51727
1184.045, 57.26329
1184.527, 56.72213
1185.010, 56.14711
1185.492, 55.71809
1185.974, 55.83298
1186.456, 56.58654
1186.938, 57.05192
1187.420, 56.62076
1187.902, 56.59116
1188.384, 57.69076
1188.866, 58.58258
1189.349, 58.58685
1189.831, 58.21050
1190.313, 57.92152
1190.795, 57.69679
1191.277, 57.41876
1191.759, 57.37049
1192.241, 56.94445
1192.723, 57.37279
1193.206, 57.70423
1193.688, 57.84403
1194.170, 57.69386
1194.652, 57.07346
1195.134, 56.62258
1195.616, 57.40250
1196.098, 57.23741
1196.580, 57.56118
1197.063, 58.22075
1197.545, 58.20098
1198.027, 59.12378
1198.509, 59.46531
1198.991, 58.81368
1199.473, 57.79705
1199.955, 56.78679
1200.437, 56.13846
1200.919, 56.63318
1201.401, 57.57521
1201.884, 57.75216
1202.366, 57.44883
1202.848, 57.11476
1203.330, 56.88937
1203.812, 57.02348
1204.294, 57.53076
1204.776, 57.76693
1205.258, 57.01755
1205.741, 56.56615
1206.223, 57.68877
1206.705, 58.93782
1207.187, 59.17464
1207.669, 58.90384
1208.151, 58.78071
1208.633, 58.77958
1209.115, 58.54679
1209.598, 57.96751
1210.080, 57.49202
1210.562, 57.15983
1211.044, 56.97347
1211.526, 56.93597
1212.008, 57.04900
1212.490, 57.39344
1212.972, 57.81618
1213.454, 58.20995
1213.937, 58.50936
1214.419, 58.32104
1214.901, 57.45494
1215.383, 57.10814
1215.865, 57.37572
1216.347, 57.67844
1216.829, 57.93530
1217.311, 57.68011
1217.793, 56.55747
1218.276, 55.44282
1218.758, 55.59227
1219.240, 56.53867
1219.722, 57.11106
1220.204, 57.31182
1220.686, 56.89154
1221.168, 56.10001
1221.650, 55.92841
1222.133, 56.55357
1222.615, 57.45705
1223.097, 58.39795
1223.579, 59.07033
1224.061, 59.04253
1224.543, 58.77750
1225.025, 58.83625
1225.507, 58.82606
1225.990, 58.05430
1226.472, 56.92579
1226.954, 56.25595
1227.436, 56.17577
1227.918, 56.34863
1228.400, 56.84633
1228.882, 57.23143
1229.364, 57.35512
1229.846, 57.41128
1230.328, 57.47414
1230.811, 57.49889
1231.293, 57.49932
1231.775, 57.40194
1232.257, 57.35433
1232.739, 57.12674
1233.221, 57.24622
1233.703, 57.13382
1234.185, 57.26661
1234.668, 57.57249
1235.150, 57.35322
1235.632, 57.11232
1236.114, 57.16407
1236.596, 57.82198
1237.078, 58.55992
1237.560, 58.29877
1238.042, 58.47446
1238.525, 58.32054
1239.007, 57.84486
1239.489, 57.71445
1239.971, 57.08197
1240.453, 56.78883
1240.935, 57.05168
1241.417, 57.36503
1241.899, 57.40651
1242.381, 57.44296
1242.864, 57.87703
1243.346, 58.18808
1243.828, 57.76765
1244.310, 57.12609
1244.792, 56.75407
1245.274, 56.67643
1245.756, 56.91352
1246.238, 57.46001
1246.720, 57.75073
1247.203, 57.58897
1247.685, 57.33825
1248.167, 56.92218
1248.649, 56.57028
1249.131, 56.24372
1249.613, 56.20408
1250.095, 56.77880
1250.577, 57.59471
1251.059, 57.94370
1251.542, 57.84058
1252.024, 57.34449
1252.506, 56.45898
1252.988, 55.91800
1253.470, 55.79121
1253.952, 56.05299
1254.434, 56.67630
1254.916, 57.53141
1255.399, 58.57573
1255.881, 59.34406
1256.363, 59.16340
1256.845, 58.42028
1257.327, 57.24498
1257.809, 56.18074
1258.291, 56.25686
1258.773, 57.05511
1259.255, 57.54212
1259.738, 57.52307
1260.220, 57.35669
1260.702, 57.03353
1261.184, 56.95625
1261.666, 57.42839
1262.148, 57.93724
1262.630, 58.56383
1263.112, 58.85035
1263.594, 58.21113
1264.077, 57.24524
1264.559, 56.83002
1265.041, 56.90468
1265.523, 56.99920
1266.005, 57.15947
1266.487, 56.99030
1266.969, 56.41768
1267.451, 56.17152
1267.934, 56.43250
1268.416, 56.74559
1268.898, 56.86254
1269.380, 56.78669
1269.862, 56.40166
1270.344, 56.03307
1270.826, 56.60490
1271.308, 55.96183
1271.791, 56.88343
1272.273, 55.64923
1272.755, 55.22936
1273.237, 55.78450
1273.719, 56.87261
1274.201, 58.40764
1274.683, 59.40764
1275.165, 59.03117
1275.647, 58.62865
1276.130, 58.91100
1276.612, 59.07358
1277.094, 58.48845
1277.576, 57.67194
1278.058, 57.08119
1278.540, 56.75408
1279.022, 56.87380
1279.504, 57.50734
1279.986, 57.52863
1280.469, 57.81310
1280.951, 58.36877
1281.433, 58.06805
1281.915, 58.92355
1282.397, 58.86109
1282.879, 58.06495
1283.361, 56.55397
1283.843, 55.25868
1284.326, 55.28671
1284.808, 56.63944
##END=



