##NAMES=Sinhalite
##RRUFFID=R100132
##IDEAL CHEMISTRY=MgAlBO_4_
##LOCALITY=Ratnapura district, Sri Lanka
##OWNER=RRUFF
##SOURCE=William W. Pinch
##DESCRIPTION=Tan colored water-worn single crystal
##STATUS=The identification of this mineral has been confirmed by single-crystal X-ray diffraction.
##URL=rruff.info/R100132
140.2111, 56.90654
140.6932, 59.37893
141.1753, 62.71580
141.6575, 64.45325
142.1396, 64.02307
142.6217, 63.59884
143.1038, 63.75958
143.5859, 64.56973
144.0681, 64.56773
144.5502, 63.29659
145.0323, 61.62098
145.5144, 60.42991
145.9965, 59.40150
146.4786, 59.40408
146.9608, 60.96769
147.4429, 64.71078
147.9250, 67.45848
148.4071, 69.01607
148.8892, 69.65647
149.3713, 69.73503
149.8535, 68.34362
150.3356, 67.28839
150.8177, 67.16988
151.2998, 68.70316
151.7819, 69.62697
152.2640, 69.17879
152.7462, 68.19707
153.2283, 68.19117
153.7104, 70.36353
154.1925, 72.61819
154.6746, 74.21301
155.1567, 74.80634
155.6389, 75.19539
156.1210, 75.17667
156.6031, 74.99937
157.0852, 75.27376
157.5673, 76.76392
158.0495, 78.28074
158.5316, 79.19129
159.0137, 78.66056
159.4958, 78.54918
159.9779, 79.91843
160.4600, 82.22585
160.9422, 83.69980
161.4243, 82.75107
161.9064, 81.33968
162.3885, 80.82632
162.8706, 82.51392
163.3527, 83.99990
163.8349, 84.17539
164.3170, 83.24683
164.7991, 82.20139
165.2812, 81.02522
165.7633, 80.14678
166.2454, 79.96726
166.7276, 81.14933
167.2097, 82.57278
167.6918, 83.59386
168.1739, 84.24856
168.6560, 84.91487
169.1381, 85.84927
169.6203, 86.87703
170.1024, 87.24494
170.5845, 87.48475
171.0666, 87.49487
171.5487, 86.65812
172.0309, 85.05875
172.5130, 83.78184
172.9951, 83.88950
173.4772, 84.75564
173.9593, 85.40841
174.4414, 85.34840
174.9236, 84.95970
175.4057, 84.66734
175.8878, 84.47316
176.3699, 84.18863
176.8520, 83.50234
177.3341, 82.59864
177.8163, 81.87926
178.2984, 81.46668
178.7805, 81.35092
179.2626, 81.72205
179.7447, 82.63048
180.2268, 83.38377
180.7090, 83.19102
181.1911, 82.25024
181.6732, 81.15418
182.1553, 79.87488
182.6374, 78.66636
183.1195, 78.17811
183.6017, 78.47647
184.0838, 79.13663
184.5659, 80.04037
185.0480, 81.03625
185.5301, 81.37343
186.0123, 80.07586
186.4944, 77.77641
186.9765, 76.68346
187.4586, 77.06236
187.9407, 77.87985
188.4228, 77.42697
188.9050, 75.85521
189.3871, 74.77159
189.8692, 75.50729
190.3513, 77.60282
190.8334, 78.62343
191.3155, 78.24776
191.7977, 77.31248
192.2798, 77.24474
192.7619, 78.04221
193.2440, 78.66458
193.7261, 78.51151
194.2082, 77.64396
194.6904, 76.64657
195.1725, 75.41664
195.6546, 74.31740
196.1367, 74.32368
196.6188, 75.53528
197.1009, 76.51604
197.5831, 76.23374
198.0652, 74.69405
198.5473, 73.80605
199.0294, 73.77048
199.5115, 74.28977
199.9937, 74.88847
200.4758, 75.60820
200.9579, 76.10537
201.4400, 76.07279
201.9221, 75.45864
202.4042, 75.04086
202.8864, 74.88011
203.3685, 74.91830
203.8506, 75.03535
204.3327, 75.23473
204.8148, 75.49004
205.2969, 75.84530
205.7791, 76.34480
206.2612, 76.58736
206.7433, 76.44530
207.2254, 76.11297
207.7075, 76.12887
208.1896, 76.60521
208.6718, 77.10329
209.1539, 77.38109
209.6360, 77.39553
210.1181, 77.40072
210.6002, 77.40949
211.0823, 77.41926
211.5645, 77.36936
212.0466, 77.14832
212.5287, 77.13628
213.0108, 77.65811
213.4929, 78.96657
213.9750, 79.79942
214.4572, 79.92274
214.9393, 79.59542
215.4214, 79.58120
215.9035, 79.94650
216.3856, 80.49067
216.8678, 81.12686
217.3499, 81.91357
217.8320, 82.61295
218.3141, 83.16328
218.7962, 83.62634
219.2783, 84.24184
219.7605, 85.17890
220.2426, 85.94607
220.7247, 86.19266
221.2068, 85.61611
221.6889, 85.38946
222.1710, 85.64777
222.6532, 86.26839
223.1353, 86.85881
223.6174, 87.38634
224.0995, 87.95200
224.5816, 88.64734
225.0637, 89.64326
225.5459, 90.35001
226.0280, 90.70047
226.5101, 90.76526
226.9922, 90.72768
227.4743, 90.52238
227.9564, 90.31758
228.4386, 90.30582
228.9207, 90.96196
229.4028, 90.59486
229.8849, 88.69015
230.3670, 85.86810
230.8492, 83.82627
231.3313, 82.87946
231.8134, 82.26221
232.2955, 81.66993
232.7776, 81.23421
233.2597, 80.51257
233.7419, 79.30338
234.2240, 77.86144
234.7061, 76.90834
235.1882, 76.68193
235.6703, 76.58398
236.1524, 76.34044
236.6346, 75.78722
237.1167, 75.49110
237.5988, 75.60702
238.0809, 75.92284
238.5630, 75.95060
239.0451, 75.65043
239.5273, 75.11560
240.0094, 74.29709
240.4915, 72.87953
240.9736, 72.03016
241.4557, 72.03090
241.9378, 72.46569
242.4200, 72.40075
242.9021, 71.30691
243.3842, 70.53836
243.8663, 70.72752
244.3484, 72.39072
244.8306, 73.46359
245.3127, 73.81248
245.7948, 73.63646
246.2769, 73.25426
246.7590, 72.54819
247.2411, 71.84264
247.7233, 71.22139
248.2054, 70.64713
248.6875, 70.29134
249.1696, 70.14079
249.6517, 70.21932
250.1338, 70.67482
250.6160, 71.99270
251.0981, 72.80210
251.5802, 72.45924
252.0623, 70.57852
252.5444, 69.57207
253.0265, 69.78600
253.5087, 70.59751
253.9908, 71.15313
254.4729, 71.43204
254.9550, 71.50321
255.4371, 71.31614
255.9192, 70.81657
256.4014, 70.51207
256.8835, 70.42081
257.3656, 70.50703
257.8477, 70.80570
258.3298, 71.57401
258.8120, 71.96258
259.2941, 71.63967
259.7762, 70.54207
260.2583, 69.72422
260.7404, 69.05547
261.2225, 68.81615
261.7047, 69.50192
262.1868, 71.71999
262.6689, 73.25548
263.1510, 73.50211
263.6331, 72.49551
264.1152, 71.56133
264.5974, 70.66018
265.0795, 69.90259
265.5616, 69.41312
266.0437, 69.20080
266.5258, 69.22166
267.0079, 69.56328
267.4901, 70.16972
267.9722, 70.45939
268.4543, 70.29208
268.9364, 70.09859
269.4185, 70.32795
269.9006, 71.16290
270.3828, 71.58523
270.8649, 71.25974
271.3470, 70.42163
271.8291, 70.29378
272.3112, 71.14485
272.7933, 71.99409
273.2755, 71.97733
273.7576, 70.90728
274.2397, 70.30006
274.7218, 70.47116
275.2039, 71.13991
275.6860, 71.45745
276.1682, 71.37662
276.6503, 71.13374
277.1324, 70.80202
277.6145, 70.36362
278.0966, 70.15762
278.5787, 70.28596
279.0609, 70.57527
279.5430, 70.54333
280.0251, 70.10347
280.5072, 69.89480
280.9893, 70.40128
281.4715, 71.61449
281.9536, 72.66534
282.4357, 73.58643
282.9178, 74.20189
283.3999, 73.97826
283.8820, 72.85556
284.3642, 71.95069
284.8463, 71.89528
285.3284, 72.61282
285.8105, 72.99773
286.2926, 72.80917
286.7747, 73.03505
287.2569, 76.04604
287.7390, 81.67168
288.2211, 85.38216
288.7032, 84.30619
289.1853, 79.64701
289.6674, 76.77073
290.1496, 75.79432
290.6317, 75.70450
291.1138, 75.47815
291.5959, 75.16019
292.0780, 75.08122
292.5602, 75.53087
293.0423, 76.22637
293.5244, 76.46702
294.0065, 76.24537
294.4886, 75.70227
294.9707, 74.75279
295.4529, 73.53349
295.9350, 72.56264
296.4171, 72.01032
296.8992, 71.73169
297.3813, 71.48461
297.8634, 71.27597
298.3456, 71.17964
298.8277, 71.43956
299.3098, 71.84641
299.7919, 71.89336
300.2740, 71.35793
300.7561, 70.63187
301.2383, 70.24075
301.7204, 70.12257
302.2025, 70.02280
302.6846, 69.77272
303.1667, 69.44028
303.6488, 69.07089
304.1310, 68.61082
304.6131, 68.31638
305.0952, 68.70315
305.5773, 69.50410
306.0594, 69.99586
306.5415, 69.41177
307.0237, 68.51844
307.5058, 68.17949
307.9879, 68.54016
308.4700, 69.02066
308.9521, 69.40591
309.4343, 69.58549
309.9164, 69.38184
310.3985, 67.81731
310.8806, 66.45094
311.3627, 66.88503
311.8448, 69.21349
312.3270, 71.19218
312.8091, 71.03470
313.2912, 69.91520
313.7733, 69.22062
314.2554, 69.92585
314.7375, 70.76188
315.2197, 71.03020
315.7018, 70.79182
316.1839, 70.58302
316.6660, 70.82646
317.1481, 71.10878
317.6302, 71.08452
318.1124, 70.48016
318.5945, 69.79943
319.0766, 69.04453
319.5587, 68.30746
320.0408, 67.89138
320.5229, 67.98315
321.0051, 68.35692
321.4872, 68.96046
321.9693, 70.13431
322.4514, 70.86512
322.9335, 70.75047
323.4156, 70.07142
323.8978, 69.36945
324.3799, 68.43925
324.8620, 67.76048
325.3441, 67.52722
325.8262, 67.84777
326.3083, 68.32320
326.7905, 69.24912
327.2726, 70.21162
327.7547, 70.69077
328.2368, 69.97147
328.7189, 69.50452
329.2010, 69.84669
329.6832, 71.15772
330.1653, 71.44341
330.6474, 69.65965
331.1295, 67.60311
331.6116, 66.75058
332.0938, 67.91918
332.5759, 69.01102
333.0580, 69.85476
333.5401, 70.44126
334.0222, 70.59812
334.5043, 70.02760
334.9865, 69.43967
335.4686, 69.28154
335.9507, 69.73872
336.4328, 70.13963
336.9149, 70.50379
337.3970, 70.76698
337.8792, 70.66518
338.3613, 70.00345
338.8434, 69.52234
339.3255, 69.62435
339.8076, 70.40566
340.2898, 71.07534
340.7719, 71.68076
341.2540, 72.10715
341.7361, 72.07239
342.2182, 71.51225
342.7003, 71.09642
343.1825, 70.94629
343.6646, 71.11065
344.1467, 72.23438
344.6288, 74.56016
345.1109, 76.66784
345.5930, 76.85804
346.0752, 75.31167
346.5573, 73.85958
347.0394, 72.76765
347.5215, 72.17836
348.0036, 72.61929
348.4857, 74.06822
348.9679, 75.63461
349.4500, 76.58019
349.9321, 77.12978
350.4142, 77.91245
350.8963, 79.01902
351.3784, 80.40647
351.8606, 81.91165
352.3427, 83.59801
352.8248, 85.74861
353.3069, 88.48447
353.7890, 91.77096
354.2711, 95.42684
354.7533, 99.34322
355.2354, 104.3178
355.7175, 111.6772
356.1996, 120.4534
356.6817, 128.9576
357.1638, 136.9258
357.6460, 144.0204
358.1281, 149.7150
358.6102, 154.0927
359.0923, 158.4859
359.5744, 163.9436
360.0565, 169.6006
360.5387, 174.5623
361.0208, 177.6924
361.5029, 181.2146
361.9850, 185.9704
362.4671, 191.8541
362.9492, 198.5013
363.4314, 206.2712
363.9135, 214.4174
364.3956, 222.4648
364.8777, 230.0941
365.3598, 238.3272
365.8419, 246.8897
366.3241, 256.2820
366.8062, 267.2140
367.2883, 279.8261
367.7704, 293.9446
368.2526, 309.7808
368.7347, 327.6413
369.2168, 345.7317
369.6989, 363.7639
370.1810, 382.2379
370.6631, 401.8209
371.1453, 423.5421
371.6274, 445.0639
372.1095, 467.9854
372.5916, 491.2873
373.0737, 508.3875
373.5558, 522.5745
374.0380, 525.9463
374.5201, 513.1769
375.0022, 481.1916
375.4843, 442.7715
375.9664, 395.0621
376.4485, 343.9859
376.9307, 299.3212
377.4128, 261.2827
377.8949, 230.3718
378.3770, 208.0453
378.8591, 194.0859
379.3412, 183.2470
379.8234, 175.8772
380.3055, 170.7174
380.7876, 166.9079
381.2697, 164.3654
381.7518, 162.1859
382.2339, 160.1344
382.7161, 158.2953
383.1982, 156.8443
383.6803, 155.7901
384.1624, 155.0266
384.6445, 154.4156
385.1266, 154.0470
385.6088, 154.1234
386.0909, 154.6521
386.5730, 155.6944
387.0551, 157.4009
387.5372, 159.6787
388.0193, 162.3053
388.5015, 164.8405
388.9836, 167.8154
389.4657, 171.8351
389.9478, 176.9410
390.4299, 182.7424
390.9120, 189.0164
391.3942, 195.8321
391.8763, 203.1931
392.3584, 211.7035
392.8405, 220.1921
393.3226, 228.1098
393.8047, 235.5093
394.2869, 242.6304
394.7690, 249.1297
395.2511, 255.6785
395.7332, 262.9996
396.2154, 272.6461
396.6975, 280.0176
397.1796, 285.5688
397.6617, 288.0699
398.1438, 285.4709
398.6259, 275.7064
399.1081, 262.6073
399.5902, 245.6645
400.0723, 223.7728
400.5544, 205.8025
401.0365, 192.1032
401.5186, 182.0297
402.0008, 175.4029
402.4829, 173.7179
402.9650, 172.5238
403.4471, 171.1151
403.9292, 169.8326
404.4113, 170.2177
404.8935, 172.6664
405.3756, 175.8584
405.8577, 179.6204
406.3398, 184.2703
406.8219, 186.9583
407.3040, 187.6902
407.7862, 186.4013
408.2683, 182.8518
408.7504, 177.0266
409.2325, 169.5996
409.7146, 160.2547
410.1967, 149.6614
410.6789, 138.8935
411.1610, 127.8888
411.6431, 118.2290
412.1252, 111.9826
412.6073, 108.2661
413.0894, 104.5890
413.5716, 100.3894
414.0537, 96.42679
414.5358, 93.82495
415.0179, 92.32972
415.5000, 91.02369
415.9821, 89.31487
416.4643, 87.61106
416.9464, 86.46087
417.4285, 85.94858
417.9106, 85.34875
418.3927, 84.05877
418.8748, 82.45520
419.3570, 81.00915
419.8391, 79.85318
420.3212, 78.89423
420.8033, 78.23161
421.2854, 77.78018
421.7675, 77.12802
422.2497, 75.56493
422.7318, 74.20464
423.2139, 73.79600
423.6960, 75.20676
424.1781, 75.84653
424.6602, 74.76442
425.1424, 72.93230
425.6245, 71.77574
426.1066, 71.64625
426.5887, 71.78249
427.0709, 72.14385
427.5530, 72.72970
428.0351, 73.04411
428.5172, 72.95207
428.9993, 72.77599
429.4814, 72.78105
429.9636, 73.06547
430.4457, 73.12619
430.9278, 72.84824
431.4099, 72.39734
431.8920, 72.12565
432.3741, 72.04152
432.8563, 72.05837
433.3384, 72.29354
433.8205, 72.65311
434.3026, 72.30714
434.7847, 71.15405
435.2668, 70.09277
435.7490, 70.32224
436.2311, 71.46975
436.7132, 72.16316
437.1953, 71.86182
437.6774, 71.19906
438.1595, 70.89246
438.6417, 70.93234
439.1238, 71.27885
439.6059, 72.46268
440.0880, 73.65807
440.5701, 73.79712
441.0522, 72.61040
441.5344, 71.47021
442.0165, 71.34163
442.4986, 71.72330
442.9807, 72.00343
443.4628, 71.72356
443.9449, 71.55533
444.4271, 71.82648
444.9092, 72.46832
445.3913, 73.07800
445.8734, 73.72310
446.3555, 74.17056
446.8376, 74.25642
447.3198, 73.65617
447.8019, 73.31131
448.2840, 73.14926
448.7661, 73.28929
449.2482, 73.99916
449.7303, 76.01010
450.2125, 77.30508
450.6946, 77.18279
451.1767, 75.78103
451.6588, 75.13844
452.1409, 75.33522
452.6230, 76.08936
453.1052, 77.44102
453.5873, 79.49452
454.0694, 80.86225
454.5515, 81.34444
455.0337, 81.29380
455.5158, 81.16080
455.9979, 80.95626
456.4800, 80.85820
456.9621, 80.89639
457.4442, 81.10635
457.9264, 81.55975
458.4085, 82.25347
458.8906, 83.20169
459.3727, 84.66940
459.8548, 86.33369
460.3369, 87.60855
460.8191, 88.26112
461.3012, 88.79482
461.7833, 89.53997
462.2654, 90.47093
462.7475, 91.52931
463.2296, 92.50746
463.7118, 93.76987
464.1939, 95.74055
464.6760, 98.47099
465.1581, 100.8105
465.6402, 102.1447
466.1223, 103.0934
466.6045, 104.0705
467.0866, 104.7780
467.5687, 105.9492
468.0508, 108.1380
468.5329, 110.7701
469.0150, 112.5371
469.4972, 112.6959
469.9793, 113.0856
470.4614, 114.3276
470.9435, 116.4695
471.4256, 118.5089
471.9077, 120.4033
472.3899, 122.2832
472.8720, 124.2040
473.3541, 126.1743
473.8362, 128.4136
474.3183, 130.9993
474.8004, 133.8230
475.2826, 136.8357
475.7647, 140.0032
476.2468, 142.8435
476.7289, 144.6758
477.2110, 146.0990
477.6931, 148.6018
478.1753, 152.1989
478.6574, 155.7977
479.1395, 158.7843
479.6216, 161.1179
480.1037, 162.6806
480.5858, 163.2207
481.0680, 163.4072
481.5501, 164.1869
482.0322, 164.9471
482.5143, 164.3899
482.9964, 161.2933
483.4786, 157.3865
483.9607, 153.3643
484.4428, 149.3151
484.9249, 145.1183
485.4070, 140.6017
485.8892, 136.0681
486.3713, 131.7280
486.8534, 127.5965
487.3355, 123.6789
487.8176, 119.7954
488.2997, 116.1948
488.7819, 113.3795
489.2640, 111.5758
489.7461, 110.0391
490.2282, 108.6119
490.7103, 107.2667
491.1924, 105.6824
491.6746, 103.7638
492.1567, 101.9521
492.6388, 100.9059
493.1209, 100.4659
493.6030, 99.27286
494.0851, 96.96118
494.5673, 94.30823
495.0494, 92.39953
495.5315, 91.10666
496.0136, 90.03699
496.4957, 89.19363
496.9778, 88.35596
497.4600, 87.16345
497.9421, 85.66079
498.4242, 84.24922
498.9063, 83.40135
499.3884, 82.60935
499.8705, 81.30228
500.3527, 78.99334
500.8348, 77.13609
501.3169, 76.39403
501.7990, 76.40019
502.2811, 76.64172
502.7632, 77.71495
503.2454, 78.28117
503.7275, 77.87502
504.2096, 76.59165
504.6917, 75.35641
505.1738, 73.85511
505.6559, 72.84348
506.1381, 72.92444
506.6202, 74.55842
507.1023, 75.37151
507.5844, 75.18990
508.0665, 74.50510
508.5486, 73.86133
509.0308, 73.25249
509.5129, 72.88976
509.9950, 72.87341
510.4771, 73.08206
510.9592, 73.39050
511.4413, 73.76055
511.9235, 73.86131
512.4056, 73.18749
512.8877, 72.22193
513.3698, 71.76051
513.8519, 71.89506
514.3340, 72.00945
514.8162, 71.52684
515.2983, 70.81201
515.7804, 70.28598
516.2625, 69.87477
516.7446, 69.93142
517.2267, 71.21726
517.7089, 73.09923
518.1910, 74.00206
518.6731, 72.26658
519.1552, 70.74340
519.6373, 70.77204
520.1194, 72.60947
520.6016, 73.21667
521.0837, 71.60209
521.5658, 69.85598
522.0479, 69.67817
522.5300, 71.74352
523.0121, 72.82119
523.4943, 72.38308
523.9764, 71.28529
524.4585, 71.06298
524.9406, 71.73450
525.4227, 72.59010
525.9048, 73.62720
526.3870, 74.54863
526.8691, 74.32759
527.3513, 73.04794
527.8334, 71.98724
528.3155, 72.22392
528.7976, 73.18858
529.2797, 74.09044
529.7618, 74.83743
530.2440, 75.50941
530.7261, 76.26067
531.2082, 76.93492
531.6903, 77.31897
532.1724, 76.80734
532.6545, 76.56737
533.1367, 77.12395
533.6188, 78.28008
534.1009, 79.34605
534.5830, 79.82471
535.0651, 80.57621
535.5472, 81.81539
536.0294, 83.54311
536.5115, 85.94958
536.9936, 89.52208
537.4757, 93.09377
537.9578, 95.60344
538.4399, 96.89890
538.9221, 98.19357
539.4042, 99.56911
539.8863, 101.0939
540.3684, 103.1049
540.8505, 105.5336
541.3326, 107.5240
541.8148, 108.2561
542.2969, 108.6132
542.7790, 110.2997
543.2611, 113.1908
543.7432, 116.3232
544.2253, 119.2303
544.7075, 121.9496
545.1896, 124.3778
545.6717, 126.3798
546.1538, 128.7927
546.6359, 132.1883
547.1180, 136.1478
547.6002, 140.1841
548.0823, 144.1682
548.5644, 148.2464
549.0465, 152.4474
549.5286, 156.7840
550.0107, 161.3367
550.4929, 166.6411
550.9750, 171.3675
551.4571, 175.1847
551.9392, 178.1010
552.4213, 180.2041
552.9034, 181.9251
553.3856, 181.5632
553.8677, 177.4268
554.3498, 169.7066
554.8319, 160.3350
555.3140, 149.1679
555.7961, 137.5922
556.2783, 126.9919
556.7604, 117.4811
557.2425, 109.5462
557.7246, 103.5851
558.2067, 99.02819
558.6888, 95.83179
559.1710, 93.71127
559.6531, 91.74670
560.1352, 89.19981
560.6173, 86.92589
561.0994, 85.59930
561.5815, 85.38078
562.0637, 85.05167
562.5458, 84.34706
563.0279, 83.46445
563.5100, 82.51411
563.9921, 81.13726
564.4742, 80.37376
564.9564, 80.56699
565.4385, 81.13001
565.9206, 80.97626
566.4027, 79.92149
566.8848, 79.07964
567.3669, 78.80696
567.8491, 78.95603
568.3312, 79.08288
568.8133, 79.18991
569.2954, 79.36845
569.7775, 79.70383
570.2596, 80.14286
570.7418, 80.62717
571.2239, 81.16240
571.7060, 81.58839
572.1881, 81.70130
572.6702, 81.67686
573.1523, 81.70189
573.6345, 81.79417
574.1166, 81.99357
574.5987, 82.26408
575.0808, 82.65893
575.5629, 83.27556
576.0450, 84.42690
576.5272, 85.45478
577.0093, 86.23186
577.4914, 86.77476
577.9735, 87.17085
578.4556, 87.29550
578.9377, 87.52507
579.4199, 88.05544
579.9020, 88.88438
580.3841, 89.87556
580.8662, 91.05338
581.3483, 92.25108
581.8304, 93.16626
582.3126, 93.93376
582.7947, 95.06197
583.2768, 96.71651
583.7589, 98.53537
584.2410, 100.2007
584.7231, 101.7410
585.2053, 103.2125
585.6874, 104.5006
586.1696, 105.8516
586.6517, 107.2718
587.1338, 108.8260
587.6159, 110.7965
588.0980, 113.3182
588.5801, 116.2117
589.0623, 119.5680
589.5444, 123.5202
590.0265, 126.9385
590.5086, 129.5441
590.9907, 131.9715
591.4728, 134.7241
591.9550, 137.8277
592.4371, 140.8963
592.9192, 143.7773
593.4013, 146.8420
593.8834, 150.8964
594.3655, 155.7481
594.8477, 160.1572
595.3298, 163.5175
595.8119, 166.4411
596.2940, 169.5179
596.7761, 172.7820
597.2582, 176.4412
597.7404, 180.8989
598.2225, 185.5547
598.7046, 190.1255
599.1867, 194.5621
599.6688, 198.6091
600.1509, 201.8507
600.6331, 204.9688
601.1152, 208.3705
601.5973, 212.3074
602.0794, 216.0572
602.5615, 219.7258
603.0436, 223.0741
603.5258, 225.8119
604.0079, 227.9368
604.4900, 229.4517
604.9721, 230.3475
605.4542, 230.6323
605.9363, 230.5000
606.4185, 229.8800
606.9006, 228.0675
607.3827, 224.6218
607.8648, 219.9112
608.3469, 214.3901
608.8290, 208.0583
609.3112, 201.2144
609.7933, 193.7474
610.2754, 185.9677
610.7575, 177.8469
611.2396, 169.4590
611.7217, 161.2965
612.2039, 153.0486
612.6860, 145.4753
613.1681, 139.1216
613.6502, 134.8956
614.1323, 130.3525
614.6144, 125.1678
615.0966, 119.9818
615.5787, 115.7033
616.0608, 112.5218
616.5429, 109.0968
617.0250, 104.8813
617.5071, 100.5141
617.9893, 97.67747
618.4714, 96.22243
618.9535, 95.07119
619.4356, 93.78064
619.9177, 92.37313
620.3998, 90.74007
620.8820, 88.93192
621.3641, 87.38311
621.8462, 86.55802
622.3283, 85.90958
622.8104, 84.97729
623.2925, 83.54332
623.7747, 82.45247
624.2568, 82.30791
624.7389, 82.28034
625.2210, 81.65922
625.7031, 79.97689
626.1852, 78.74370
626.6674, 78.16624
627.1495, 77.93863
627.6316, 77.56233
628.1137, 77.02776
628.5958, 76.58318
629.0779, 76.31198
629.5601, 76.15922
630.0422, 76.02930
630.5243, 75.92583
631.0064, 75.85760
631.4885, 75.89310
631.9706, 75.92454
632.4528, 75.85029
632.9349, 75.67233
633.4170, 75.44362
633.8991, 75.29311
634.3812, 75.01983
634.8633, 74.37991
635.3455, 73.03178
635.8276, 72.42178
636.3097, 73.21211
636.7918, 74.16576
637.2739, 74.09766
637.7560, 72.57837
638.2382, 71.83382
638.7203, 72.22185
639.2024, 73.09533
639.6845, 73.51669
640.1666, 73.52802
640.6487, 73.49002
641.1309, 73.58409
641.6130, 73.57539
642.0951, 72.70966
642.5772, 71.41755
643.0594, 70.95567
643.5415, 73.32608
644.0236, 75.49185
644.5057, 75.20646
644.9879, 72.71838
645.4700, 70.89114
645.9521, 70.55042
646.4342, 70.88852
646.9163, 71.78547
647.3984, 73.50632
647.8806, 73.90158
648.3627, 72.39344
648.8448, 70.65592
649.3269, 70.22832
649.8090, 71.11002
650.2911, 71.19662
650.7733, 70.19368
651.2554, 69.00066
651.7375, 68.66554
652.2196, 68.97057
652.7017, 69.37407
653.1838, 69.69971
653.6660, 70.12983
654.1481, 71.07047
654.6302, 72.16747
655.1123, 72.80663
655.5944, 72.47259
656.0765, 71.96666
656.5587, 71.33535
657.0408, 70.68658
657.5229, 70.49534
658.0050, 71.01758
658.4871, 71.58085
658.9692, 72.05288
659.4514, 72.39938
659.9335, 72.03939
660.4156, 70.85958
660.8977, 69.91389
661.3798, 70.45560
661.8619, 71.77599
662.3441, 71.62661
662.8262, 69.83316
663.3083, 68.38954
663.7904, 69.55209
664.2725, 71.59998
664.7546, 72.55836
665.2368, 71.62304
665.7189, 70.70456
666.2010, 70.35299
666.6831, 70.38704
667.1652, 70.63244
667.6473, 71.42961
668.1295, 71.81274
668.6116, 71.48487
669.0937, 70.88192
669.5758, 70.94966
670.0579, 71.77560
670.5400, 72.41743
671.0222, 72.56287
671.5043, 72.39285
671.9864, 72.11866
672.4685, 71.81045
672.9506, 71.81993
673.4327, 72.86313
673.9149, 73.93077
674.3970, 73.80032
674.8791, 72.67158
675.3612, 72.10558
675.8433, 73.37423
676.3254, 74.81226
676.8076, 75.47080
677.2897, 75.12579
677.7718, 75.12601
678.2539, 75.57270
678.7360, 76.22485
679.2181, 77.07313
679.7003, 78.19094
680.1824, 78.53484
680.6645, 77.92037
681.1466, 77.17848
681.6287, 77.39933
682.1108, 78.22145
682.5930, 78.51449
683.0751, 77.84633
683.5572, 77.34695
684.0393, 78.19392
684.5214, 79.75005
685.0035, 81.10578
685.4857, 81.73397
685.9678, 82.40116
686.4499, 83.15443
686.9320, 84.08991
687.4141, 85.45871
687.8962, 87.66475
688.3784, 89.49416
688.8605, 90.51765
689.3426, 91.04457
689.8247, 92.07649
690.3068, 93.62635
690.7889, 95.60780
691.2711, 98.41183
691.7532, 101.4289
692.2353, 102.9724
692.7174, 103.3140
693.1995, 104.2454
693.6816, 107.3498
694.1638, 111.0945
694.6459, 114.2466
695.1280, 116.6758
695.6101, 119.4275
696.0922, 123.1158
696.5743, 126.9004
697.0565, 130.3344
697.5386, 133.3583
698.0207, 136.4310
698.5028, 139.5984
698.9849, 142.7229
699.4670, 145.4504
699.9492, 147.8823
700.4313, 151.2147
700.9135, 155.6574
701.3956, 160.4107
701.8777, 164.6956
702.3598, 168.6568
702.8419, 172.5627
703.3240, 176.5885
703.8062, 180.3653
704.2883, 183.9250
704.7704, 187.0301
705.2525, 189.2669
705.7346, 190.4182
706.2167, 190.8993
706.6989, 190.9197
707.1810, 190.2221
707.6631, 188.2122
708.1452, 184.9015
708.6273, 180.3939
709.1094, 174.4007
709.5916, 167.5589
710.0737, 161.0802
710.5558, 155.0329
711.0379, 149.4700
711.5200, 144.4315
712.0021, 139.9094
712.4843, 135.7357
712.9664, 131.9427
713.4485, 128.6974
713.9306, 126.1855
714.4127, 124.1543
714.8948, 122.6340
715.3770, 121.5993
715.8591, 120.5277
716.3412, 119.1078
716.8233, 118.2662
717.3054, 118.7676
717.7875, 120.5509
718.2697, 121.8863
718.7518, 122.7636
719.2339, 123.4966
719.7160, 124.1796
720.1981, 124.9608
720.6802, 126.0958
721.1624, 127.6135
721.6445, 129.4015
722.1266, 131.1314
722.6087, 133.2441
723.0908, 136.2375
723.5729, 141.0969
724.0551, 144.8174
724.5372, 146.3918
725.0193, 147.5747
725.5014, 150.0837
725.9835, 154.0493
726.4656, 158.6516
726.9478, 164.0168
727.4299, 169.5790
727.9120, 174.3354
728.3941, 178.6013
728.8762, 183.1406
729.3583, 188.1054
729.8405, 193.5515
730.3226, 199.8712
730.8047, 206.6724
731.2868, 213.1049
731.7689, 218.5122
732.2510, 224.0698
732.7332, 229.9092
733.2153, 236.0754
733.6974, 242.9131
734.1795, 250.7567
734.6616, 258.2884
735.1437, 265.1175
735.6259, 271.3976
736.1080, 277.1895
736.5901, 282.5817
737.0722, 288.3814
737.5543, 295.6952
738.0364, 303.0621
738.5186, 308.8562
739.0007, 313.2157
739.4828, 316.8368
739.9649, 320.1201
740.4470, 322.6220
740.9291, 324.0763
741.4113, 324.4699
741.8934, 324.3304
742.3755, 323.7812
742.8576, 322.4758
743.3397, 320.2474
743.8218, 317.1300
744.3040, 313.4324
744.7861, 309.1946
745.2682, 304.0815
745.7503, 297.4229
746.2324, 289.8810
746.7145, 282.8066
747.1967, 276.1397
747.6788, 269.0854
748.1609, 260.6317
748.6430, 252.0852
749.1251, 244.2443
749.6072, 237.2913
750.0894, 230.4059
750.5715, 223.5706
751.0536, 216.7873
751.5357, 210.1240
752.0178, 203.5186
752.4999, 197.0665
752.9821, 190.6900
753.4642, 184.7479
753.9463, 179.7403
754.4284, 175.4255
754.9105, 171.2885
755.3926, 167.1968
755.8748, 163.5918
756.3569, 161.1989
756.8390, 159.1172
757.3211, 156.4250
757.8032, 152.4269
758.2853, 149.1023
758.7675, 146.7008
759.2496, 144.8542
759.7318, 143.4481
760.2139, 142.6763
760.6960, 140.7572
761.1781, 137.3057
761.6602, 133.6069
762.1423, 131.2313
762.6245, 129.8294
763.1066, 128.5503
763.5887, 127.1799
764.0708, 126.0164
764.5529, 125.7951
765.0350, 125.6944
765.5172, 124.7388
765.9993, 121.3132
766.4814, 118.9455
766.9635, 118.2868
767.4456, 118.3957
767.9277, 118.0862
768.4099, 117.3043
768.8920, 116.3985
769.3741, 115.3718
769.8562, 114.3605
770.3383, 113.6023
770.8204, 113.0110
771.3026, 112.3430
771.7847, 111.4635
772.2668, 110.6024
772.7489, 109.8627
773.2310, 109.2575
773.7131, 108.8161
774.1953, 108.4141
774.6774, 108.3842
775.1595, 109.0441
775.6416, 109.9192
776.1237, 110.0796
776.6058, 109.4341
777.0880, 108.7041
777.5701, 107.9118
778.0522, 107.3994
778.5343, 108.0627
779.0164, 109.5154
779.4985, 110.6391
779.9807, 110.7959
780.4628, 110.6957
780.9449, 110.1858
781.4270, 109.7932
781.9091, 110.6064
782.3912, 114.0397
782.8734, 117.2158
783.3555, 119.8085
783.8376, 121.8788
784.3197, 123.3570
784.8018, 124.1771
785.2839, 125.4617
785.7661, 127.9279
786.2482, 130.5033
786.7303, 131.2536
787.2124, 130.5883
787.6945, 129.6958
788.1766, 128.6354
788.6588, 127.9798
789.1409, 128.1835
789.6230, 129.0107
790.1051, 129.7970
790.5872, 130.3602
791.0693, 131.0509
791.5515, 131.9708
792.0336, 133.0430
792.5157, 134.0573
792.9978, 135.0146
793.4799, 135.8599
793.9620, 136.7367
794.4442, 137.3098
794.9263, 136.9959
795.4084, 135.9687
795.8905, 134.7164
796.3726, 133.2128
796.8547, 131.7883
797.3369, 130.7236
797.8190, 129.8527
798.3011, 128.5314
798.7832, 126.1845
799.2653, 124.6076
799.7474, 124.7427
800.2296, 125.5563
800.7117, 123.3882
801.1938, 118.6086
801.6759, 115.3305
802.1580, 116.2825
802.6401, 118.5112
803.1223, 118.6724
803.6044, 117.3885
804.0865, 116.2859
804.5686, 116.2824
805.0507, 116.2088
805.5328, 115.7014
806.0150, 114.8472
806.4971, 113.8624
806.9792, 112.7897
807.4613, 111.4098
807.9434, 109.5024
808.4255, 107.4249
808.9077, 105.8170
809.3898, 104.6984
809.8719, 104.1821
810.3540, 104.8152
810.8361, 105.5384
811.3182, 105.5129
811.8004, 104.9369
812.2825, 104.2832
812.7646, 103.2731
813.2467, 102.7201
813.7288, 103.0630
814.2109, 103.8365
814.6931, 103.8033
815.1752, 102.8841
815.6573, 101.8560
816.1394, 100.8412
816.6215, 99.98856
817.1037, 99.63801
817.5858, 99.65772
818.0679, 99.69204
818.5500, 99.67200
819.0322, 99.53776
819.5143, 98.91569
819.9964, 98.20629
820.4785, 98.32996
820.9606, 99.92184
821.4427, 101.2059
821.9249, 101.9334
822.4070, 102.1992
822.8891, 101.9583
823.3712, 101.2907
823.8533, 101.1239
824.3354, 101.8647
824.8176, 102.9031
825.2997, 103.7038
825.7818, 104.2827
826.2639, 104.6494
826.7460, 104.3409
827.2281, 104.3974
827.7103, 105.3933
828.1924, 106.7302
828.6745, 107.5842
829.1566, 107.7544
829.6387, 108.2474
830.1208, 109.2694
830.6030, 110.5062
831.0851, 111.3962
831.5672, 112.0826
832.0493, 112.9830
832.5314, 114.2433
833.0135, 115.6188
833.4957, 116.7782
833.9778, 118.0102
834.4599, 119.6785
834.9420, 122.4242
835.4241, 124.7252
835.9063, 126.3465
836.3884, 127.8014
836.8705, 129.5943
837.3526, 131.7275
837.8347, 134.2329
838.3168, 137.1444
838.7990, 140.4550
839.2811, 144.3266
839.7632, 148.5736
840.2453, 152.9192
840.7274, 157.3191
841.2095, 161.9223
841.6917, 166.2713
842.1738, 171.2409
842.6559, 177.5347
843.1380, 185.3957
843.6201, 193.7612
844.1022, 202.6731
844.5844, 211.9412
845.0665, 221.3888
845.5486, 231.0926
846.0307, 240.8207
846.5128, 250.5767
846.9949, 261.4964
847.4771, 274.9315
847.9592, 289.4136
848.4413, 303.7842
848.9234, 317.7683
849.4055, 332.6865
849.8876, 349.0644
850.3698, 365.3434
850.8519, 379.9538
851.3340, 393.2097
851.8161, 408.5201
852.2982, 425.8743
852.7803, 444.3172
853.2625, 463.9392
853.7446, 483.7118
854.2267, 503.0238
854.7088, 521.8638
855.1909, 540.6979
855.6730, 559.9300
856.1552, 578.6693
856.6373, 597.0428
857.1194, 614.7586
857.6015, 630.2170
858.0836, 643.6585
858.5657, 654.0628
859.0479, 661.5290
859.5300, 665.4238
860.0121, 664.5615
860.4942, 659.0564
860.9763, 649.1295
861.4584, 635.6409
861.9406, 617.1942
862.4227, 591.2698
862.9048, 559.5447
863.3869, 529.1721
863.8690, 500.5420
864.3511, 471.5488
864.8333, 440.7168
865.3154, 410.0589
865.7975, 382.1693
866.2796, 357.0561
866.7617, 334.3680
867.2438, 314.0971
867.7260, 295.6258
868.2081, 278.0024
868.6902, 262.7376
869.1723, 247.6782
869.6544, 236.4785
870.1365, 226.1393
870.6187, 216.8072
871.1008, 208.0207
871.5829, 198.9822
872.0650, 189.7808
872.5471, 182.3699
873.0292, 177.2190
873.5114, 172.9880
873.9935, 168.7272
874.4756, 164.3708
874.9577, 159.7527
875.4399, 154.5557
875.9220, 149.8695
876.4041, 146.4295
876.8862, 143.2477
877.3683, 139.5745
877.8505, 135.1851
878.3326, 132.0120
878.8147, 130.2037
879.2968, 128.5806
879.7789, 126.1554
880.2610, 123.2610
880.7432, 120.2817
881.2253, 117.2640
881.7074, 114.4932
882.1895, 112.0426
882.6716, 109.9385
883.1537, 108.3357
883.6359, 107.1936
884.1180, 105.6813
884.6001, 103.6446
885.0822, 101.8648
885.5643, 100.8534
886.0464, 100.2804
886.5286, 99.25274
887.0107, 97.91900
887.4928, 96.88412
887.9749, 96.92171
888.4570, 96.90626
888.9391, 96.33129
889.4213, 95.23850
889.9034, 93.77459
890.3855, 91.60391
890.8676, 89.93587
891.3497, 89.08643
891.8318, 88.75391
892.3140, 88.46722
892.7961, 88.18960
893.2782, 87.73704
893.7603, 86.93773
894.2424, 86.23641
894.7245, 86.09704
895.2067, 86.19664
895.6888, 86.13630
896.1709, 85.67008
896.6530, 85.33217
897.1351, 85.13063
897.6172, 85.04946
898.0994, 85.24541
898.5815, 85.62060
899.0636, 85.22545
899.5457, 83.91956
900.0278, 82.89503
900.5099, 83.55435
900.9921, 84.66386
901.4742, 85.05843
901.9563, 84.50658
902.4384, 83.98610
902.9205, 83.67551
903.4026, 83.32738
903.8848, 82.70914
904.3669, 81.91293
904.8490, 81.83614
905.3311, 82.44913
905.8132, 82.94228
906.2953, 82.57212
906.7775, 82.04147
907.2596, 82.27794
907.7417, 82.99073
908.2238, 83.13889
908.7059, 81.39805
909.1880, 80.39425
909.6702, 80.97636
910.1523, 82.42009
910.6344, 82.93168
911.1165, 82.53381
911.5986, 82.35908
912.0807, 82.87589
912.5629, 83.33423
913.0450, 82.43803
913.5271, 81.06999
914.0092, 80.57381
914.4913, 81.87219
914.9734, 83.09421
915.4556, 84.08190
915.9377, 84.76770
916.4198, 85.07532
916.9019, 84.99892
917.3840, 84.40175
917.8661, 83.16465
918.3483, 82.46574
918.8304, 84.09742
919.3125, 86.46765
919.7946, 87.40225
920.2767, 86.66078
920.7589, 86.37953
921.2410, 87.83108
921.7231, 89.20634
922.2052, 89.66125
922.6873, 89.35892
923.1694, 89.87720
923.6516, 91.23939
924.1337, 92.41299
924.6158, 92.41723
925.0979, 92.35558
925.5800, 94.08921
926.0621, 96.90954
926.5443, 99.07108
927.0264, 99.07177
927.5085, 99.50220
927.9906, 101.1842
928.4727, 103.3732
928.9548, 104.5454
929.4370, 104.6181
929.9191, 106.1039
930.4012, 109.6929
930.8833, 113.6037
931.3654, 115.8803
931.8475, 117.2007
932.3297, 118.3747
932.8118, 119.3203
933.2939, 121.0253
933.7761, 124.3299
934.2582, 127.8577
934.7403, 130.8386
935.2224, 133.2888
935.7045, 135.2730
936.1866, 136.7833
936.6688, 138.4695
937.1509, 141.0663
937.6330, 143.9013
938.1151, 146.1609
938.5972, 147.9464
939.0793, 149.7750
939.5615, 152.3756
940.0436, 154.3428
940.5257, 155.1672
941.0078, 155.2323
941.4899, 155.6718
941.9720, 156.4458
942.4542, 156.4264
942.9363, 155.1789
943.4184, 153.2918
943.9005, 151.2748
944.3826, 149.0822
944.8647, 146.5905
945.3469, 143.7542
945.8290, 140.6515
946.3111, 137.2545
946.7932, 133.6712
947.2753, 129.8033
947.7574, 125.6578
948.2396, 122.5038
948.7217, 120.3746
949.2038, 118.3250
949.6859, 115.5922
950.1680, 112.6288
950.6501, 109.6998
951.1323, 106.8525
951.6144, 104.4404
952.0965, 102.4346
952.5786, 101.0217
953.0607, 100.5160
953.5428, 100.4750
954.0250, 99.50771
954.5071, 97.74233
954.9892, 95.90320
955.4713, 94.14243
955.9534, 92.64609
956.4355, 91.58469
956.9177, 90.87306
957.3998, 90.39856
957.8819, 90.44341
958.3640, 90.12232
958.8461, 89.31406
959.3282, 88.34309
959.8104, 87.44778
960.2925, 86.68581
960.7746, 86.41487
961.2567, 86.65820
961.7388, 86.77693
962.2209, 86.19016
962.7031, 85.47738
963.1852, 85.03842
963.6673, 84.87758
964.1494, 84.71688
964.6315, 84.63372
965.1136, 84.23928
965.5958, 83.16082
966.0779, 81.93035
966.5600, 81.81956
967.0421, 82.46739
967.5242, 82.89275
968.0063, 82.53470
968.4885, 82.13503
968.9706, 81.89001
969.4527, 81.80230
969.9348, 81.92933
970.4169, 82.38496
970.8990, 82.44786
971.3812, 82.03264
971.8633, 81.47902
972.3454, 81.10616
972.8275, 80.82473
973.3096, 80.40948
973.7917, 79.85164
974.2739, 79.62579
974.7560, 80.09268
975.2381, 80.74670
975.7202, 81.57754
976.2023, 82.42899
976.6844, 82.33473
977.1666, 81.30896
977.6487, 80.60044
978.1308, 80.99381
978.6129, 81.49220
979.0950, 80.83559
979.5771, 79.62164
980.0593, 78.82801
980.5414, 78.86868
981.0235, 79.16245
981.5056, 79.87219
981.9877, 80.55052
982.4698, 80.66457
982.9520, 80.31816
983.4341, 80.21775
983.9162, 80.40398
984.3983, 80.49514
984.8804, 79.89552
985.3625, 79.36473
985.8447, 79.51189
986.3268, 80.34924
986.8089, 81.25186
987.2910, 82.44930
987.7731, 83.00488
988.2552, 82.41771
988.7374, 81.28311
989.2195, 80.83039
989.7016, 80.83334
990.1837, 80.68135
990.6658, 79.94588
991.1479, 79.47260
991.6301, 79.82908
992.1122, 80.48120
992.5944, 80.93828
993.0765, 81.19441
993.5586, 81.24991
994.0407, 81.10476
994.5228, 80.75323
995.0049, 79.76509
995.4871, 78.82382
995.9692, 79.17242
996.4513, 80.60119
996.9334, 81.39581
997.4155, 80.09457
997.8976, 79.27215
998.3798, 79.78895
998.8619, 80.98662
999.3440, 81.14583
999.8261, 80.40018
1000.308, 80.12936
1000.790, 80.90991
1001.272, 81.51468
1001.755, 80.42688
1002.237, 78.89024
1002.719, 78.33543
1003.201, 79.41023
1003.683, 79.89291
1004.165, 79.57850
1004.647, 79.20079
1005.129, 79.24342
1005.612, 79.59171
1006.094, 80.06985
1006.576, 80.59242
1007.058, 80.77706
1007.540, 79.78408
1008.022, 79.12397
1008.504, 79.80714
1008.986, 81.07706
1009.468, 81.57140
1009.951, 81.14541
1010.433, 81.21665
1010.915, 82.13544
1011.397, 82.95496
1011.879, 82.20583
1012.361, 80.94486
1012.843, 80.56107
1013.325, 81.37655
1013.807, 82.03370
1014.290, 82.21711
1014.772, 82.33694
1015.254, 82.63353
1015.736, 82.98389
1016.218, 82.62623
1016.700, 81.74918
1017.182, 81.46225
1017.664, 82.73582
1018.147, 84.13603
1018.629, 84.77675
1019.111, 84.95052
1019.593, 85.10588
1020.075, 85.21949
1020.557, 85.50265
1021.039, 86.02737
1021.521, 86.47136
1022.003, 86.30135
1022.486, 85.93434
1022.968, 86.27494
1023.450, 87.28708
1023.932, 87.99011
1024.414, 87.43919
1024.896, 87.17722
1025.378, 87.71729
1025.860, 88.87029
1026.343, 90.26253
1026.825, 91.83754
1027.307, 93.01039
1027.789, 93.40906
1028.271, 94.04374
1028.753, 96.39273
1029.235, 99.16314
1029.717, 100.7263
1030.199, 100.2513
1030.682, 100.9860
1031.164, 103.3445
1031.646, 105.7701
1032.128, 107.0933
1032.610, 107.8725
1033.092, 109.5598
1033.574, 111.9823
1034.056, 114.4499
1034.539, 116.8049
1035.021, 118.9469
1035.503, 120.3352
1035.985, 121.8197
1036.467, 124.9394
1036.949, 129.7372
1037.431, 133.2781
1037.913, 135.1231
1038.396, 136.7033
1038.878, 139.6916
1039.360, 142.7609
1039.842, 144.3160
1040.324, 144.2509
1040.806, 145.5577
1041.288, 149.1282
1041.770, 152.3655
1042.252, 154.5537
1042.734, 155.8555
1043.217, 156.4457
1043.699, 156.4706
1044.181, 156.3472
1044.663, 156.3115
1045.145, 155.8739
1045.627, 154.9820
1046.109, 153.4608
1046.591, 151.0995
1047.074, 147.8656
1047.556, 144.5999
1048.038, 141.2768
1048.520, 137.9886
1049.002, 134.9904
1049.484, 131.9311
1049.966, 127.9874
1050.448, 123.7338
1050.931, 120.9139
1051.413, 120.9229
1051.895, 119.4230
1052.377, 115.5756
1052.859, 111.0011
1053.341, 107.3087
1053.823, 104.4040
1054.305, 102.1221
1054.787, 100.4443
1055.270, 99.05105
1055.752, 98.17941
1056.234, 97.12729
1056.716, 95.45274
1057.198, 93.42027
1057.680, 92.19157
1058.162, 91.71192
1058.644, 91.10184
1059.126, 89.97764
1059.609, 88.88586
1060.091, 88.47706
1060.573, 88.29747
1061.055, 87.83171
1061.537, 86.96421
1062.019, 86.04483
1062.501, 85.01255
1062.983, 84.15529
1063.466, 83.79435
1063.948, 83.67600
1064.430, 83.33823
1064.912, 82.83443
1065.394, 82.32114
1065.876, 81.92959
1066.358, 81.41709
1066.840, 80.54017
1067.323, 79.76210
1067.805, 79.80499
1068.287, 80.52443
1068.769, 80.91431
1069.251, 80.89263
1069.733, 80.63785
1070.215, 79.86147
1070.697, 79.26575
1071.179, 79.61147
1071.661, 80.58546
1072.144, 80.75605
1072.626, 79.96977
1073.108, 79.44979
1073.590, 79.59139
1074.072, 79.87533
1074.554, 79.72116
1075.036, 79.27839
1075.518, 78.61827
1076.001, 77.56535
1076.483, 77.33532
1076.965, 78.52238
1077.447, 79.43547
1077.929, 78.96315
1078.411, 77.72930
1078.893, 77.76994
1079.375, 78.64344
1079.858, 78.88529
1080.340, 76.91997
1080.822, 75.61495
1081.304, 76.64232
1081.786, 78.26781
1082.268, 78.91586
1082.750, 78.55816
1083.232, 78.62204
1083.714, 79.13304
1084.197, 79.33989
1084.679, 78.32530
1085.161, 77.15218
1085.643, 76.47527
1086.125, 76.33083
1086.607, 76.70135
1087.089, 77.82646
1087.571, 78.58280
1088.054, 78.78158
1088.536, 78.67336
1089.018, 78.55610
1089.500, 78.31686
1089.982, 77.60726
1090.464, 76.37964
1090.946, 75.77779
1091.428, 76.44900
1091.911, 77.04251
1092.393, 77.02835
1092.875, 76.79691
1093.357, 77.58665
1093.839, 78.95889
1094.321, 79.44803
1094.803, 78.32796
1095.285, 77.32912
1095.767, 77.41415
1096.250, 77.78368
1096.732, 77.87646
1097.214, 77.71936
1097.696, 78.03358
1098.178, 78.77958
1098.660, 79.11292
1099.142, 78.13738
1099.624, 77.13837
1100.106, 77.32224
1100.589, 78.03452
1101.071, 78.15098
1101.553, 77.18710
1102.035, 77.30378
1102.517, 78.77767
1102.999, 79.99969
1103.481, 79.30824
1103.963, 77.76423
1104.446, 76.52283
1104.928, 75.66261
1105.410, 75.28200
1105.892, 75.55711
1106.374, 76.12165
1106.856, 77.10287
1107.338, 78.02482
1107.820, 78.15905
1108.302, 77.75607
1108.785, 77.35902
1109.267, 77.03490
1109.749, 76.88928
1110.231, 77.08609
1110.713, 77.33976
1111.195, 77.54746
1111.677, 77.73516
1112.159, 78.01448
1112.641, 78.35694
1113.124, 78.60206
1113.606, 78.73779
1114.088, 78.65945
1114.570, 78.11755
1115.052, 77.47424
1115.534, 76.89921
1116.016, 76.41949
1116.498, 76.82007
1116.981, 78.14583
1117.463, 79.04343
1117.945, 78.72978
1118.427, 78.04072
1118.909, 77.43416
1119.391, 77.14174
1119.873, 77.64410
1120.355, 79.59835
1120.838, 80.27307
1121.320, 79.38810
1121.802, 78.42606
1122.284, 78.56599
1122.766, 79.17284
1123.248, 79.27306
1123.730, 79.03395
1124.212, 78.92146
1124.694, 79.47365
1125.177, 79.47703
1125.659, 78.58640
1126.141, 77.65299
1126.623, 77.69907
1127.105, 78.38225
1127.587, 78.90009
1128.069, 79.19158
1128.551, 79.18153
1129.033, 78.42900
1129.516, 77.88933
1129.998, 77.87202
1130.480, 78.14140
1130.962, 78.36744
1131.444, 78.53413
1131.926, 78.55962
1132.408, 78.42961
1132.890, 78.22353
1133.373, 77.94449
1133.855, 77.64643
1134.337, 77.29538
1134.819, 76.96184
1135.301, 76.95560
1135.783, 77.26463
1136.265, 77.56334
1136.747, 77.82298
1137.229, 77.82525
1137.712, 76.93970
1138.194, 76.03807
1138.676, 76.09485
1139.158, 77.10973
1139.640, 77.53175
1140.122, 77.30924
1140.604, 76.97911
1141.086, 76.58926
1141.569, 76.50053
1142.051, 77.49242
1142.533, 78.85528
1143.015, 79.60608
1143.497, 79.39236
1143.979, 79.28442
1144.461, 79.33700
1144.943, 79.27717
1145.426, 78.87102
1145.908, 78.31038
1146.390, 77.75345
1146.872, 77.31223
1147.354, 77.21702
1147.836, 77.84717
1148.318, 78.37582
1148.800, 78.79990
1149.282, 79.08009
1149.765, 79.19488
1150.247, 79.13860
1150.729, 78.76295
1151.211, 78.17510
1151.693, 77.80620
1152.175, 77.88908
1152.657, 78.15879
1153.139, 78.69515
1153.621, 79.19442
1154.104, 79.25269
1154.586, 78.97771
1155.068, 78.65771
1155.550, 78.32968
1156.032, 78.17094
1156.514, 78.41588
1156.996, 78.66975
1157.478, 78.87536
1157.961, 78.95348
1158.443, 78.61366
1158.925, 77.97771
1159.407, 77.80298
1159.889, 78.20711
1160.371, 78.61482
1160.853, 78.62825
1161.335, 78.59738
1161.818, 78.61140
1162.300, 78.74987
1162.782, 79.41097
1163.264, 80.52180
1163.746, 81.22317
1164.228, 81.30981
1164.710, 81.10195
1165.192, 80.56765
1165.674, 80.05541
1166.156, 79.78574
1166.639, 79.75864
1167.121, 80.17052
1167.603, 81.01494
1168.085, 81.43840
1168.567, 81.04404
1169.049, 80.53636
1169.531, 80.55462
1170.013, 80.73635
1170.496, 80.65490
1170.978, 80.28956
1171.460, 80.39232
1171.942, 81.00827
1172.424, 81.26134
1172.906, 80.61539
1173.388, 79.70017
1173.870, 78.68701
1174.353, 78.02216
1174.835, 78.54910
1175.317, 80.65202
1175.799, 81.69373
1176.281, 81.59634
1176.763, 81.11526
1177.245, 80.42097
1177.727, 79.84107
1178.209, 79.85984
1178.692, 79.69289
1179.174, 79.82985
1179.656, 80.26255
1180.138, 80.56982
1180.620, 81.46712
1181.102, 82.26236
1181.584, 82.24480
1182.066, 82.00301
1182.548, 82.46826
1183.031, 83.27437
1183.513, 83.52216
1183.995, 82.74910
1184.477, 82.15659
1184.959, 81.77509
1185.441, 81.63379
1185.923, 81.94458
1186.405, 82.38705
1186.888, 82.48962
1187.370, 82.32771
1187.852, 82.20681
1188.334, 82.23347
1188.816, 82.17345
1189.298, 81.96140
1189.780, 81.80972
1190.262, 82.07314
1190.745, 82.46044
1191.227, 82.49874
1191.709, 82.22530
1192.191, 81.96902
1192.673, 81.66895
1193.155, 81.67287
1193.637, 82.09873
1194.119, 82.64632
1194.601, 83.07343
1195.084, 83.32963
1195.566, 83.25754
1196.048, 82.88273
1196.530, 82.57359
1197.012, 82.38233
1197.494, 82.30476
1197.976, 82.36875
1198.458, 82.47810
1198.941, 82.53132
1199.423, 82.52042
1199.905, 82.41254
1200.387, 82.20689
1200.869, 81.99901
1201.351, 81.74110
1201.833, 81.63966
1202.315, 81.81258
1202.797, 82.02708
1203.280, 81.70088
1203.762, 81.23543
1204.244, 81.48554
1204.726, 82.62429
1205.208, 83.28384
1205.690, 82.94446
1206.172, 82.73784
1206.654, 83.07236
1207.136, 83.58183
1207.619, 83.69311
1208.101, 83.49428
1208.583, 83.01649
1209.065, 82.16998
1209.547, 81.86684
1210.029, 82.44764
1210.511, 83.05276
1210.993, 83.38775
1211.476, 83.56919
1211.958, 83.65057
1212.440, 83.80159
1212.922, 84.51153
1213.404, 86.16238
1213.886, 86.69528
1214.368, 85.41546
1214.850, 84.29053
1215.333, 84.25282
1215.815, 84.66411
1216.297, 84.26022
1216.779, 83.47993
1217.261, 83.15588
1217.743, 83.62253
1218.225, 83.90055
1218.707, 83.81142
1219.189, 83.77831
1219.672, 83.99748
1220.154, 84.39158
1220.636, 85.10258
1221.118, 85.79353
1221.600, 85.72214
1222.082, 84.15393
1222.564, 83.80388
1223.046, 85.23344
1223.528, 86.53149
1224.011, 86.67605
1224.493, 86.14098
1224.975, 85.34151
1225.457, 84.57792
1225.939, 84.43265
1226.421, 85.48493
1226.903, 85.87244
1227.385, 85.42496
1227.868, 84.85603
1228.350, 84.43832
1228.832, 84.26681
1229.314, 84.73137
1229.796, 85.46346
1230.278, 85.77961
1230.760, 85.20761
1231.242, 85.34791
1231.724, 86.40311
1232.207, 87.20429
1232.689, 86.90226
1233.171, 86.13232
1233.653, 85.39098
1234.135, 84.87533
1234.617, 85.02811
1235.099, 86.35220
1235.581, 86.64622
1236.063, 85.75141
1236.546, 84.92410
1237.028, 85.04578
1237.510, 85.52329
1237.992, 85.91292
1238.474, 86.15939
1238.956, 86.09269
1239.438, 85.52019
1239.920, 85.61861
1240.403, 86.45260
1240.885, 87.03029
1241.367, 86.13445
1241.849, 85.30898
1242.331, 86.46159
1242.813, 88.27600
1243.295, 88.67010
1243.777, 87.22544
1244.260, 86.60372
1244.742, 86.79673
1245.224, 87.01074
1245.706, 86.73972
1246.188, 86.33318
1246.670, 85.96743
1247.152, 85.64067
1247.634, 85.33308
1248.116, 85.03394
1248.599, 84.85801
1249.081, 84.80773
1249.563, 84.89627
1250.045, 85.04753
1250.527, 85.43946
1251.009, 86.48687
1251.491, 87.58745
1251.973, 88.07175
1252.455, 87.96873
1252.938, 88.02206
1253.420, 88.22025
1253.902, 88.41648
1254.384, 88.74791
1254.866, 88.76690
1255.348, 87.85966
1255.830, 87.03321
1256.313, 87.38817
1256.795, 88.67693
1257.277, 89.35098
1257.759, 89.48137
1258.241, 89.50545
1258.723, 89.80896
1259.205, 89.70850
1259.687, 88.71377
1260.169, 87.86876
1260.651, 88.25469
1261.134, 89.49285
1261.616, 90.70637
1262.098, 91.70869
1262.580, 91.95097
1263.062, 90.25244
1263.544, 89.30714
1264.026, 89.53500
1264.508, 90.07260
1264.991, 90.28751
1265.473, 90.26832
1265.955, 90.08733
1266.437, 89.82496
1266.919, 89.68772
1267.401, 89.88119
1267.883, 89.89678
1268.365, 89.67406
1268.848, 89.48422
1269.330, 89.57884
1269.812, 89.79384
1270.294, 89.91087
1270.776, 89.98711
1271.258, 90.16352
1271.740, 90.51730
1272.222, 90.70996
1272.704, 90.70773
1273.187, 90.79922
1273.669, 91.41250
1274.151, 91.97892
1274.633, 91.87551
1275.115, 91.44301
1275.597, 91.25689
1276.079, 91.39028
1276.561, 91.32699
1277.043, 91.07190
1277.526, 90.82006
1278.008, 90.54111
1278.490, 90.47854
1278.972, 91.16189
1279.454, 91.84824
1279.936, 91.62636
1280.418, 90.55064
1280.900, 90.27388
1281.383, 90.67937
1281.865, 91.00729
1282.347, 90.76228
1282.829, 90.54280
1283.311, 90.44085
1283.793, 90.55868
1284.275, 91.14890
1284.757, 92.01146
1285.240, 92.26536
1285.722, 92.05370
1286.204, 91.83161
1286.686, 91.77525
1287.168, 91.71357
1287.650, 91.62642
1288.132, 91.53012
1288.614, 91.29749
1289.096, 91.16770
1289.578, 92.03767
1290.061, 93.29613
1290.543, 93.59724
1291.025, 91.66576
1291.507, 91.27555
1291.989, 92.80008
1292.471, 94.09708
1292.953, 93.67722
1293.435, 92.72971
1293.918, 92.81254
1294.400, 93.22585
1294.882, 92.74577
1295.364, 91.13081
1295.846, 90.76646
1296.328, 91.68066
1296.810, 92.31430
1297.292, 91.62889
1297.775, 90.95592
1298.257, 91.42448
1298.739, 92.34090
1299.221, 93.07826
1299.703, 93.63496
1300.185, 94.00272
1300.667, 94.17388
1301.149, 94.07346
1301.631, 93.59568
1302.114, 93.01545
1302.596, 92.51077
##END=



