##NAMES=Sinhalite
##RRUFFID=R070621
##IDEAL CHEMISTRY=MgAlBO_4_
##LOCALITY=Sri Lanka
##OWNER=RRUFF
##SOURCE=Shinichi Kihara
##DESCRIPTION=Pale yellow transparent faceted gemstone
##STATUS=The identification of this mineral is confirmed by single-crystal X-ray diffraction and chemical analysis.
##URL=rruff.info/R070621
##MEASURED CHEMISTRY=(Mg_0.98_Fe_0.02_)_Î£=1_Al_1.00_B_1.00_O_4_ ; B_2_O_3_ estimated by difference
115.3256, 778.7279
115.8077, 746.1345
116.2898, 724.7996
116.7719, 735.7114
117.2541, 772.8851
117.7362, 809.0240
118.2183, 826.9028
118.7004, 835.7705
119.1825, 845.8553
119.6646, 863.1185
120.1467, 881.6812
120.6289, 895.0353
121.1110, 902.6141
121.5931, 912.6589
122.0752, 936.6049
122.5573, 968.6047
123.0394, 995.0372
123.5216, 999.8854
124.0037, 997.0036
124.4858, 1009.313
124.9679, 1042.243
125.4500, 1083.653
125.9321, 1118.169
126.4143, 1146.673
126.8964, 1175.650
127.3785, 1209.275
127.8606, 1247.124
128.3427, 1288.438
128.8248, 1337.617
129.3070, 1387.588
129.7891, 1419.197
130.2712, 1431.214
130.7533, 1434.047
131.2354, 1431.461
131.7175, 1423.821
132.1996, 1431.973
132.6818, 1474.781
133.1639, 1548.047
133.6460, 1586.753
134.1281, 1581.881
134.6102, 1557.779
135.0923, 1554.824
135.5745, 1576.003
136.0566, 1605.139
136.5387, 1638.813
137.0208, 1680.719
137.5029, 1707.141
137.9850, 1712.981
138.4672, 1703.334
138.9493, 1696.871
139.4314, 1692.412
139.9135, 1693.036
140.3956, 1704.044
140.8777, 1736.162
141.3599, 1753.301
141.8420, 1745.559
142.3241, 1711.814
142.8062, 1685.351
143.2883, 1657.150
143.7704, 1632.669
144.2526, 1617.838
144.7347, 1614.690
145.2168, 1618.006
145.6989, 1629.034
146.1810, 1655.246
146.6631, 1668.287
147.1453, 1660.980
147.6274, 1641.952
148.1095, 1628.105
148.5916, 1617.452
149.0737, 1613.329
149.5558, 1617.125
150.0379, 1637.259
150.5201, 1654.184
151.0022, 1672.105
151.4843, 1687.958
151.9664, 1687.730
152.4485, 1645.755
152.9306, 1602.224
153.4128, 1581.112
153.8949, 1620.527
154.3770, 1646.922
154.8591, 1633.567
155.3412, 1579.940
155.8233, 1543.981
156.3055, 1549.170
156.7876, 1574.456
157.2697, 1598.915
157.7518, 1630.282
158.2339, 1648.766
158.7160, 1639.700
159.1982, 1593.968
159.6803, 1557.683
160.1624, 1556.606
160.6445, 1575.422
161.1266, 1588.069
161.6087, 1581.482
162.0909, 1567.253
162.5730, 1551.800
163.0551, 1534.212
163.5372, 1519.990
164.0193, 1514.319
164.5014, 1514.983
164.9836, 1514.884
165.4657, 1503.499
165.9478, 1492.298
166.4299, 1493.620
166.9120, 1526.749
167.3941, 1558.014
167.8763, 1556.282
168.3584, 1524.679
168.8405, 1496.578
169.3226, 1503.219
169.8047, 1526.055
170.2868, 1537.405
170.7690, 1508.375
171.2511, 1472.242
171.7332, 1466.992
172.2153, 1495.339
172.6974, 1527.287
173.1795, 1537.842
173.6617, 1531.668
174.1438, 1519.747
174.6259, 1500.295
175.1080, 1480.372
175.5901, 1472.245
176.0722, 1478.959
176.5544, 1490.110
177.0365, 1495.326
177.5186, 1495.167
178.0007, 1492.214
178.4828, 1487.790
178.9649, 1481.822
179.4471, 1472.639
179.9292, 1457.064
180.4113, 1442.857
180.8934, 1446.459
181.3755, 1466.719
181.8576, 1484.639
182.3397, 1477.187
182.8219, 1452.398
183.3040, 1443.130
183.7861, 1465.954
184.2682, 1504.659
184.7503, 1521.423
185.2324, 1514.943
185.7146, 1499.634
186.1967, 1485.004
186.6788, 1471.865
187.1609, 1466.656
187.6430, 1476.347
188.1251, 1496.377
188.6073, 1507.122
189.0894, 1506.912
189.5715, 1503.135
190.0536, 1507.407
190.5357, 1519.738
191.0178, 1527.414
191.5000, 1522.355
191.9821, 1505.795
192.4642, 1492.510
192.9463, 1483.173
193.4284, 1476.717
193.9105, 1471.970
194.3927, 1469.127
194.8748, 1466.591
195.3569, 1463.414
195.8390, 1459.552
196.3211, 1455.721
196.8032, 1450.909
197.2854, 1447.013
197.7675, 1450.093
198.2496, 1461.339
198.7317, 1474.256
199.2138, 1484.952
199.6959, 1493.594
200.1780, 1499.703
200.6602, 1504.384
201.1423, 1506.447
201.6244, 1496.682
202.1065, 1469.690
202.5886, 1444.819
203.0707, 1443.552
203.5529, 1472.544
204.0350, 1492.656
204.5171, 1492.954
204.9992, 1474.794
205.4813, 1461.249
205.9634, 1452.194
206.4456, 1447.747
206.9277, 1447.416
207.4098, 1450.182
207.8919, 1461.101
208.3740, 1487.229
208.8561, 1531.871
209.3383, 1549.435
209.8204, 1528.133
210.3025, 1493.494
210.7846, 1487.476
211.2667, 1522.573
211.7488, 1555.303
212.2310, 1567.646
212.7131, 1553.233
213.1952, 1547.745
213.6773, 1553.165
214.1594, 1566.261
214.6415, 1581.780
215.1236, 1603.278
215.6058, 1619.788
216.0879, 1624.348
216.5700, 1610.663
217.0521, 1604.086
217.5342, 1607.491
218.0163, 1617.934
218.4985, 1624.972
218.9806, 1623.609
219.4627, 1626.842
219.9448, 1644.043
220.4269, 1682.562
220.9090, 1715.284
221.3912, 1737.450
221.8733, 1751.567
222.3554, 1770.314
222.8375, 1793.507
223.3196, 1821.700
223.8017, 1858.195
224.2839, 1913.261
224.7660, 1954.147
225.2481, 1977.365
225.7302, 1983.073
226.2123, 1971.171
226.6944, 1932.884
227.1766, 1886.887
227.6587, 1849.449
228.1408, 1823.244
228.6229, 1800.395
229.1050, 1779.464
229.5871, 1760.466
230.0693, 1745.451
230.5514, 1735.241
231.0335, 1728.455
231.5156, 1725.109
231.9977, 1732.501
232.4798, 1730.147
232.9619, 1711.023
233.4441, 1672.378
233.9262, 1637.453
234.4083, 1604.561
234.8904, 1576.880
235.3725, 1559.671
235.8546, 1559.320
236.3368, 1558.706
236.8189, 1552.896
237.3010, 1540.567
237.7831, 1528.173
238.2652, 1514.197
238.7473, 1501.009
239.2295, 1493.320
239.7116, 1495.993
240.1937, 1496.363
240.6758, 1488.391
241.1579, 1466.003
241.6400, 1454.584
242.1222, 1458.420
242.6043, 1471.473
243.0864, 1481.597
243.5685, 1489.967
244.0506, 1493.624
244.5327, 1490.453
245.0149, 1476.300
245.4970, 1464.763
245.9791, 1453.459
246.4612, 1445.320
246.9433, 1450.574
247.4254, 1481.521
247.9075, 1507.660
248.3897, 1512.977
248.8718, 1485.598
249.3539, 1465.294
249.8360, 1453.526
250.3181, 1449.720
250.8002, 1453.069
251.2824, 1468.585
251.7645, 1483.679
252.2466, 1490.731
252.7287, 1485.462
253.2108, 1482.649
253.6929, 1484.584
254.1751, 1489.739
254.6572, 1490.531
255.1393, 1482.925
255.6214, 1477.177
256.1035, 1481.520
256.5856, 1503.293
257.0677, 1515.841
257.5499, 1513.485
258.0320, 1499.326
258.5141, 1492.157
258.9962, 1493.780
259.4783, 1499.324
259.9604, 1506.614
260.4426, 1518.066
260.9247, 1523.480
261.4068, 1518.845
261.8889, 1506.174
262.3710, 1501.476
262.8531, 1507.250
263.3353, 1516.502
263.8174, 1524.527
264.2995, 1532.052
264.7816, 1535.258
265.2637, 1531.361
265.7458, 1521.860
266.2280, 1519.521
266.7101, 1526.663
267.1922, 1536.565
267.6743, 1541.607
268.1564, 1538.989
268.6385, 1544.005
269.1207, 1563.367
269.6028, 1594.395
270.0849, 1612.104
270.5670, 1612.341
271.0491, 1608.037
271.5313, 1614.693
272.0134, 1636.440
272.4955, 1646.666
272.9776, 1635.816
273.4597, 1606.794
273.9418, 1583.487
274.4240, 1565.621
274.9061, 1553.524
275.3882, 1546.689
275.8703, 1544.717
276.3524, 1552.199
276.8345, 1575.664
277.3167, 1610.917
277.7988, 1629.073
278.2809, 1627.189
278.7630, 1616.909
279.2451, 1608.547
279.7272, 1601.973
280.2094, 1600.212
280.6915, 1604.571
281.1736, 1614.648
281.6557, 1628.257
282.1378, 1645.929
282.6199, 1665.224
283.1021, 1685.185
283.5842, 1705.701
284.0663, 1721.562
284.5484, 1731.317
285.0305, 1735.099
285.5126, 1728.803
285.9948, 1709.826
286.4769, 1695.940
286.9590, 1711.934
287.4411, 1754.739
287.9232, 1795.342
288.4053, 1822.824
288.8874, 1840.609
289.3695, 1861.649
289.8517, 1886.894
290.3338, 1908.155
290.8159, 1917.985
291.2980, 1916.578
291.7801, 1905.003
292.2622, 1877.891
292.7444, 1842.264
293.2265, 1815.216
293.7086, 1797.620
294.1907, 1780.352
294.6728, 1750.341
295.1549, 1712.230
295.6371, 1682.264
296.1192, 1670.221
296.6013, 1668.601
297.0834, 1663.970
297.5655, 1656.098
298.0476, 1650.017
298.5298, 1652.481
299.0119, 1660.355
299.4940, 1666.105
299.9761, 1665.770
300.4582, 1662.155
300.9403, 1657.569
301.4225, 1652.043
301.9046, 1648.740
302.3867, 1650.068
302.8688, 1655.492
303.3509, 1664.056
303.8330, 1680.393
304.3152, 1696.737
304.7973, 1704.669
305.2794, 1704.258
305.7615, 1701.445
306.2436, 1695.239
306.7257, 1690.370
307.2079, 1693.562
307.6900, 1712.198
308.1721, 1736.305
308.6542, 1758.799
309.1363, 1779.467
309.6184, 1801.969
310.1006, 1828.571
310.5827, 1857.866
311.0648, 1888.120
311.5469, 1912.975
312.0290, 1943.821
312.5111, 1995.976
312.9933, 2067.553
313.4754, 2121.743
313.9575, 2147.884
314.4396, 2147.648
314.9217, 2122.893
315.4038, 2047.822
315.8860, 1973.046
316.3681, 1918.261
316.8502, 1882.478
317.3323, 1848.229
317.8144, 1800.821
318.2965, 1757.526
318.7787, 1731.847
319.2608, 1747.581
319.7429, 1759.684
320.2250, 1752.607
320.7071, 1728.851
321.1892, 1714.197
321.6713, 1714.387
322.1534, 1724.694
322.6356, 1742.152
323.1177, 1762.133
323.5998, 1794.154
324.0819, 1845.962
324.5640, 1914.671
325.0461, 1975.458
325.5283, 2039.560
326.0104, 2086.316
326.4925, 2104.386
326.9746, 2083.035
327.4567, 2046.530
327.9388, 1985.303
328.4210, 1906.355
328.9031, 1846.098
329.3852, 1818.521
329.8673, 1794.984
330.3494, 1758.477
330.8315, 1694.098
331.3137, 1645.951
331.7958, 1618.593
332.2779, 1608.620
332.7600, 1606.272
333.2421, 1614.848
333.7242, 1625.373
334.2064, 1634.984
334.6885, 1646.055
335.1706, 1645.783
335.6527, 1627.225
336.1348, 1601.300
336.6169, 1596.341
337.0991, 1618.190
337.5812, 1642.085
338.0633, 1656.966
338.5454, 1662.826
339.0275, 1659.628
339.5096, 1644.031
339.9918, 1624.495
340.4739, 1617.243
340.9560, 1622.957
341.4381, 1632.521
341.9202, 1642.326
342.4023, 1652.425
342.8845, 1661.545
343.3666, 1668.905
343.8487, 1677.687
344.3308, 1696.559
344.8129, 1723.938
345.2950, 1744.316
345.7772, 1745.892
346.2593, 1735.108
346.7414, 1729.477
347.2235, 1729.445
347.7056, 1733.269
348.1877, 1735.909
348.6699, 1740.163
349.1520, 1754.918
349.6341, 1793.620
350.1162, 1840.872
350.5983, 1871.547
351.0804, 1884.737
351.5626, 1901.424
352.0447, 1937.448
352.5268, 1989.191
353.0089, 2050.433
353.4910, 2118.193
353.9731, 2194.844
354.4552, 2283.471
354.9373, 2383.700
355.4195, 2490.925
355.9016, 2605.765
356.3837, 2724.753
356.8658, 2844.917
357.3479, 2980.059
357.8300, 3100.240
358.3122, 3173.821
358.7943, 3211.872
359.2764, 3272.592
359.7585, 3402.313
360.2406, 3550.905
360.7227, 3682.568
361.2049, 3764.124
361.6870, 3859.262
362.1691, 3990.866
362.6512, 4150.842
363.1333, 4309.906
363.6154, 4441.899
364.0976, 4586.626
364.5797, 4763.390
365.0618, 4981.165
365.5439, 5221.160
366.0260, 5463.601
366.5081, 5729.269
366.9903, 6066.209
367.4724, 6470.791
367.9545, 6950.087
368.4366, 7502.159
368.9187, 8100.178
369.4008, 8852.859
369.8830, 9794.811
370.3651, 10857.66
370.8472, 11976.85
371.3293, 13373.54
371.8114, 14404.63
372.2935, 14894.54
372.7757, 14834.39
373.2578, 14233.71
373.7399, 12939.33
374.2220, 11348.52
374.7041, 9924.828
375.1862, 8645.337
375.6684, 7597.496
376.1505, 6814.051
376.6326, 6283.516
377.1147, 5896.794
377.5968, 5663.973
378.0789, 5541.321
378.5611, 5504.672
379.0432, 5549.935
379.5253, 5637.803
380.0074, 5786.165
380.4895, 5948.941
380.9716, 6040.987
381.4538, 6061.186
381.9359, 5996.322
382.4180, 5811.809
382.9001, 5534.063
383.3822, 5222.437
383.8643, 4870.819
384.3465, 4522.754
384.8286, 4223.042
385.3107, 3975.667
385.7928, 3779.204
386.2749, 3650.098
386.7570, 3567.823
387.2391, 3510.198
387.7213, 3475.513
388.2034, 3461.744
388.6855, 3467.893
389.1676, 3494.006
389.6497, 3539.741
390.1318, 3598.149
390.6140, 3681.269
391.0961, 3798.753
391.5782, 3955.685
392.0603, 4128.890
392.5424, 4296.710
393.0245, 4481.072
393.5067, 4706.311
393.9888, 5019.127
394.4709, 5335.363
394.9530, 5672.537
395.4351, 6041.704
395.9172, 6253.315
396.3994, 6268.280
396.8815, 6132.116
397.3636, 5876.981
397.8457, 5379.144
398.3278, 4931.457
398.8099, 4553.019
399.2921, 4243.968
399.7742, 4018.854
400.2563, 3895.478
400.7384, 3829.095
401.2205, 3794.781
401.7026, 3791.046
402.1848, 3824.737
402.6669, 3897.441
403.1490, 4007.013
403.6311, 4157.201
404.1132, 4359.332
404.5953, 4559.157
405.0775, 4746.539
405.5596, 4919.511
406.0417, 5029.281
406.5238, 5075.391
407.0059, 5056.167
407.4880, 4948.736
407.9702, 4759.473
408.4523, 4561.364
408.9344, 4367.005
409.4165, 4188.937
409.8986, 4061.450
410.3807, 3984.634
410.8629, 3959.542
411.3450, 4004.241
411.8271, 4101.349
412.3092, 4216.641
412.7913, 4365.539
413.2734, 4503.244
413.7556, 4591.598
414.2377, 4631.837
414.7198, 4636.787
415.2019, 4627.972
415.6840, 4580.947
416.1661, 4468.770
416.6483, 4268.193
417.1304, 4030.580
417.6125, 3762.573
418.0946, 3475.779
418.5767, 3208.520
419.0588, 2968.162
419.5410, 2753.876
420.0230, 2568.383
420.5052, 2410.915
420.9873, 2279.266
421.4694, 2182.426
421.9515, 2108.708
422.4336, 2041.802
422.9157, 1973.096
423.3979, 1919.028
423.8800, 1886.751
424.3621, 1878.394
424.8442, 1865.915
425.3263, 1848.441
425.8084, 1828.118
426.2906, 1805.706
426.7727, 1778.053
427.2548, 1757.812
427.7369, 1747.297
428.2190, 1745.434
428.7011, 1749.086
429.1833, 1759.979
429.6654, 1769.252
430.1475, 1769.822
430.6296, 1762.094
431.1117, 1754.646
431.5938, 1746.539
432.0760, 1742.563
432.5581, 1757.597
433.0402, 1788.495
433.5223, 1809.014
434.0044, 1795.213
434.4865, 1764.606
434.9687, 1754.662
435.4508, 1768.759
435.9329, 1780.659
436.4150, 1757.057
436.8971, 1715.994
437.3792, 1689.842
437.8614, 1703.774
438.3435, 1726.761
438.8256, 1735.089
439.3077, 1730.925
439.7898, 1731.353
440.2719, 1750.113
440.7541, 1774.057
441.2362, 1792.260
441.7183, 1797.580
442.2004, 1804.151
442.6825, 1818.401
443.1646, 1836.805
443.6468, 1849.941
444.1289, 1847.691
444.6110, 1847.453
445.0931, 1855.044
445.5752, 1869.905
446.0573, 1894.467
446.5395, 1939.151
447.0216, 1987.053
447.5037, 2014.306
447.9858, 2003.659
448.4679, 2009.781
448.9500, 2052.998
449.4322, 2128.744
449.9143, 2177.904
450.3964, 2194.686
450.8785, 2202.679
451.3606, 2221.336
451.8427, 2250.839
452.3249, 2278.163
452.8070, 2299.130
453.2891, 2320.628
453.7712, 2355.668
454.2533, 2404.222
454.7354, 2462.058
455.2175, 2536.012
455.6996, 2616.041
456.1818, 2680.580
456.6639, 2725.160
457.1460, 2769.359
457.6281, 2824.425
458.1102, 2892.361
458.5923, 2977.968
459.0745, 3083.104
459.5566, 3206.116
460.0387, 3351.612
460.5208, 3517.924
461.0029, 3682.359
461.4850, 3853.746
461.9672, 4008.865
462.4493, 4128.286
462.9314, 4212.655
463.4135, 4254.791
463.8956, 4253.817
464.3777, 4209.618
464.8599, 4121.698
465.3420, 3949.598
465.8241, 3774.547
466.3062, 3620.719
466.7883, 3485.616
467.2704, 3381.565
467.7526, 3311.757
468.2347, 3269.008
468.7168, 3245.453
469.1989, 3243.263
469.6810, 3253.169
470.1631, 3272.785
470.6453, 3302.822
471.1274, 3347.406
471.6095, 3406.815
472.0916, 3477.662
472.5737, 3555.691
473.0558, 3641.500
473.5380, 3743.467
474.0201, 3865.476
474.5022, 3997.558
474.9843, 4118.593
475.4664, 4235.411
475.9485, 4374.084
476.4307, 4569.852
476.9128, 4784.163
477.3949, 4968.953
477.8770, 5120.708
478.3591, 5278.628
478.8412, 5495.895
479.3234, 5722.723
479.8055, 5902.027
480.2876, 6000.168
480.7697, 6063.645
481.2518, 6099.176
481.7339, 6110.678
482.2161, 6115.911
482.6982, 6115.478
483.1803, 6111.820
483.6624, 6105.247
484.1445, 6090.252
484.6266, 6082.118
485.1088, 6068.299
485.5909, 6067.947
486.0730, 6113.515
486.5551, 6219.512
487.0372, 6338.493
487.5193, 6460.622
488.0014, 6586.084
488.4836, 6719.716
488.9657, 6870.242
489.4478, 6993.997
489.9299, 7062.388
490.4120, 7074.520
490.8941, 7020.473
491.3763, 6893.189
491.8584, 6709.000
492.3405, 6481.190
492.8226, 6216.331
493.3047, 5924.235
493.7868, 5597.959
494.2690, 5256.349
494.7511, 4920.214
495.2332, 4586.234
495.7153, 4282.534
496.1974, 4028.691
496.6795, 3813.448
497.1617, 3614.929
497.6438, 3430.694
498.1259, 3260.932
498.6080, 3101.635
499.0901, 2954.888
499.5722, 2828.613
500.0544, 2731.134
500.5365, 2647.740
501.0186, 2571.264
501.5007, 2503.135
501.9828, 2436.243
502.4649, 2367.678
502.9471, 2302.485
503.4292, 2247.469
503.9113, 2204.596
504.3934, 2167.899
504.8755, 2138.941
505.3576, 2115.688
505.8398, 2080.326
506.3219, 2029.499
506.8040, 1986.577
507.2861, 1978.716
507.7682, 1998.041
508.2503, 2002.785
508.7325, 1983.253
509.2146, 1957.528
509.6967, 1952.284
510.1788, 1961.367
510.6609, 1965.311
511.1430, 1949.476
511.6252, 1926.849
512.1072, 1907.516
512.5894, 1892.100
513.0715, 1882.367
513.5536, 1884.386
514.0357, 1889.994
514.5178, 1891.803
514.9999, 1879.064
515.4821, 1872.996
515.9642, 1881.186
516.4463, 1899.698
516.9284, 1916.336
517.4105, 1929.338
517.8926, 1941.967
518.3748, 1955.868
518.8569, 1972.007
519.3390, 1982.924
519.8211, 1984.206
520.3032, 1986.961
520.7853, 2008.202
521.2675, 2052.089
521.7496, 2079.794
522.2317, 2083.923
522.7138, 2067.488
523.1959, 2031.149
523.6780, 1975.924
524.1602, 1923.748
524.6423, 1889.554
525.1244, 1868.114
525.6065, 1851.014
526.0886, 1838.136
526.5707, 1824.774
527.0529, 1803.813
527.5350, 1780.401
528.0171, 1762.162
528.4992, 1752.420
528.9813, 1747.733
529.4634, 1748.010
529.9456, 1752.488
530.4277, 1757.436
530.9098, 1761.008
531.3919, 1765.438
531.8740, 1771.214
532.3561, 1775.992
532.8383, 1788.019
533.3204, 1811.722
533.8025, 1839.806
534.2846, 1861.435
534.7667, 1870.963
535.2488, 1891.010
535.7310, 1930.827
536.2131, 1984.271
536.6952, 2024.405
537.1773, 2049.980
537.6594, 2075.515
538.1415, 2114.397
538.6237, 2162.373
539.1058, 2201.212
539.5879, 2228.603
540.0700, 2250.507
540.5521, 2259.088
541.0342, 2267.965
541.5164, 2305.913
541.9985, 2413.739
542.4806, 2531.199
542.9627, 2611.844
543.4448, 2661.444
543.9269, 2714.268
544.4091, 2780.948
544.8912, 2857.542
545.3733, 2942.426
545.8554, 3034.137
546.3375, 3135.740
546.8196, 3237.160
547.3018, 3353.681
547.7839, 3503.573
548.2660, 3693.429
548.7481, 3906.022
549.2302, 4143.682
549.7123, 4401.889
550.1945, 4674.292
550.6766, 4979.974
551.1587, 5212.939
551.6408, 5310.923
552.1229, 5275.876
552.6050, 5105.096
553.0872, 4783.240
553.5693, 4396.541
554.0514, 4013.076
554.5335, 3640.866
555.0156, 3305.020
555.4977, 3013.414
555.9799, 2763.469
556.4620, 2558.934
556.9441, 2397.052
557.4262, 2264.080
557.9083, 2162.204
558.3904, 2082.692
558.8726, 2022.093
559.3547, 1982.978
559.8368, 1953.968
560.3189, 1944.992
560.8010, 1939.525
561.2831, 1917.451
561.7653, 1860.610
562.2474, 1822.449
562.7295, 1818.345
563.2116, 1839.341
563.6937, 1845.083
564.1758, 1833.788
564.6580, 1815.973
565.1401, 1793.309
565.6222, 1767.932
566.1043, 1751.792
566.5864, 1745.795
567.0685, 1747.006
567.5507, 1757.007
568.0327, 1771.609
568.5148, 1781.748
568.9969, 1780.692
569.4791, 1778.698
569.9612, 1786.703
570.4433, 1800.924
570.9254, 1809.398
571.4075, 1800.517
571.8896, 1789.961
572.3718, 1785.014
572.8539, 1786.521
573.3360, 1792.367
573.8181, 1803.745
574.3002, 1818.383
574.7823, 1835.347
575.2645, 1858.052
575.7466, 1873.851
576.2287, 1878.695
576.7108, 1877.777
577.1929, 1884.487
577.6750, 1899.708
578.1572, 1914.033
578.6393, 1917.785
579.1214, 1917.317
579.6035, 1939.632
580.0856, 1984.949
580.5677, 2029.467
581.0499, 2044.518
581.5320, 2048.750
582.0141, 2073.023
582.4962, 2135.370
582.9783, 2192.446
583.4604, 2206.849
583.9426, 2200.237
584.4247, 2210.341
584.9068, 2256.495
585.3889, 2312.848
585.8710, 2377.744
586.3531, 2450.620
586.8353, 2507.755
587.3174, 2535.763
587.7995, 2563.536
588.2816, 2605.727
588.7637, 2663.127
589.2458, 2733.208
589.7280, 2819.595
590.2101, 2911.116
590.6922, 2990.558
591.1743, 3058.597
591.6564, 3132.447
592.1385, 3222.788
592.6207, 3315.764
593.1028, 3380.669
593.5849, 3424.130
594.0670, 3481.228
594.5491, 3582.118
595.0313, 3699.253
595.5134, 3808.599
595.9955, 3905.334
596.4776, 4007.256
596.9597, 4129.134
597.4418, 4255.637
597.9240, 4371.426
598.4061, 4458.677
598.8882, 4556.863
599.3703, 4667.132
599.8524, 4789.566
600.3345, 4925.925
600.8167, 5079.478
601.2988, 5234.738
601.7809, 5393.914
602.2630, 5551.702
602.7451, 5673.757
603.2272, 5758.917
603.7094, 5818.710
604.1915, 5867.815
604.6736, 5897.734
605.1557, 5888.438
605.6378, 5835.421
606.1199, 5748.804
606.6021, 5641.813
607.0842, 5507.396
607.5663, 5337.160
608.0484, 5091.692
608.5305, 4843.739
609.0126, 4625.399
609.4948, 4429.701
609.9769, 4225.591
610.4590, 3992.184
610.9411, 3765.828
611.4232, 3558.517
611.9053, 3368.014
612.3875, 3199.751
612.8696, 3056.626
613.3517, 2930.462
613.8338, 2818.667
614.3159, 2721.739
614.7980, 2621.031
615.2802, 2507.174
615.7623, 2399.448
616.2444, 2336.396
616.7265, 2306.539
617.2086, 2269.809
617.6907, 2191.741
618.1729, 2109.514
618.6550, 2055.016
619.1371, 2026.775
619.6192, 2005.540
620.1013, 1986.251
620.5834, 1969.016
621.0656, 1955.472
621.5477, 1953.282
622.0298, 1936.047
622.5119, 1889.180
622.9940, 1837.473
623.4761, 1810.392
623.9583, 1815.932
624.4404, 1819.079
624.9225, 1814.941
625.4046, 1804.154
625.8867, 1785.154
626.3688, 1758.500
626.8510, 1735.164
627.3331, 1721.952
627.8152, 1715.471
628.2973, 1707.786
628.7794, 1699.113
629.2615, 1698.953
629.7437, 1731.184
630.2258, 1765.094
630.7079, 1769.390
631.1900, 1723.127
631.6721, 1683.412
632.1542, 1673.897
632.6364, 1677.153
633.1185, 1669.006
633.6006, 1637.740
634.0826, 1612.952
634.5648, 1600.674
635.0469, 1597.614
635.5290, 1591.237
636.0111, 1580.300
636.4932, 1573.499
636.9753, 1578.939
637.4575, 1592.757
637.9396, 1599.632
638.4217, 1599.627
638.9038, 1592.622
639.3859, 1569.358
639.8680, 1542.180
640.3502, 1530.070
640.8323, 1541.628
641.3144, 1554.915
641.7965, 1561.073
642.2786, 1561.470
642.7607, 1558.176
643.2429, 1546.384
643.7250, 1536.948
644.2071, 1533.285
644.6892, 1533.579
645.1713, 1529.125
645.6534, 1516.151
646.1356, 1507.808
646.6177, 1512.926
647.0998, 1529.808
647.5819, 1536.899
648.0640, 1533.712
648.5461, 1526.149
649.0283, 1516.361
649.5104, 1506.648
649.9925, 1502.964
650.4746, 1507.977
650.9567, 1513.196
651.4388, 1511.171
651.9210, 1505.599
652.4031, 1501.880
652.8852, 1502.910
653.3673, 1504.612
653.8494, 1506.792
654.3315, 1508.917
654.8137, 1508.404
655.2958, 1500.520
655.7779, 1497.947
656.2600, 1507.873
656.7421, 1529.669
657.2242, 1542.211
657.7064, 1544.957
658.1885, 1542.436
658.6706, 1535.938
659.1527, 1527.095
659.6348, 1520.656
660.1169, 1517.048
660.5991, 1516.686
661.0812, 1524.692
661.5633, 1534.841
662.0454, 1538.146
662.5275, 1526.594
663.0096, 1513.082
663.4918, 1497.707
663.9739, 1483.133
664.4560, 1478.564
664.9381, 1492.677
665.4202, 1504.725
665.9023, 1509.012
666.3845, 1505.984
666.8666, 1501.460
667.3487, 1495.192
667.8308, 1488.515
668.3129, 1476.982
668.7950, 1465.062
669.2772, 1474.563
669.7593, 1509.024
670.2414, 1546.082
670.7235, 1566.493
671.2056, 1575.370
671.6877, 1579.118
672.1699, 1575.615
672.6520, 1573.503
673.1341, 1582.774
673.6162, 1594.901
674.0983, 1593.108
674.5804, 1549.187
675.0626, 1524.476
675.5447, 1538.158
676.0268, 1581.434
676.5089, 1603.112
676.9910, 1598.997
677.4731, 1592.766
677.9553, 1595.943
678.4374, 1607.575
678.9195, 1626.070
679.4016, 1651.894
679.8837, 1673.250
680.3658, 1674.647
680.8480, 1668.050
681.3301, 1669.756
681.8122, 1685.792
682.2943, 1700.742
682.7764, 1707.209
683.2585, 1708.552
683.7407, 1708.871
684.2228, 1694.521
684.7049, 1698.727
685.1870, 1733.520
685.6691, 1785.271
686.1512, 1818.200
686.6334, 1827.434
687.1155, 1839.584
687.5976, 1862.646
688.0797, 1896.408
688.5618, 1943.848
689.0439, 2003.706
689.5261, 2064.170
690.0082, 2115.404
690.4903, 2163.122
690.9724, 2212.108
691.4545, 2262.446
691.9366, 2319.017
692.4188, 2393.339
692.9009, 2469.115
693.3830, 2532.605
693.8651, 2564.930
694.3472, 2613.424
694.8293, 2681.910
695.3115, 2763.250
695.7936, 2849.424
696.2757, 2941.160
696.7578, 3031.709
697.2399, 3117.998
697.7220, 3204.499
698.2042, 3295.650
698.6863, 3393.358
699.1684, 3506.943
699.6505, 3649.977
700.1326, 3803.101
700.6147, 3947.478
701.0968, 4083.821
701.5789, 4229.269
702.0610, 4393.071
702.5432, 4564.992
703.0253, 4747.352
703.5074, 4947.316
703.9895, 5112.582
704.4716, 5242.972
704.9537, 5339.148
705.4359, 5409.659
705.9180, 5455.349
706.4001, 5433.694
706.8822, 5334.473
707.3643, 5188.209
707.8464, 5018.440
708.3286, 4828.848
708.8107, 4625.583
709.2928, 4401.873
709.7749, 4182.078
710.2570, 3982.234
710.7391, 3798.592
711.2213, 3621.834
711.7034, 3428.919
712.1855, 3264.821
712.6676, 3146.433
713.1497, 3066.993
713.6318, 2979.121
714.1140, 2875.422
714.5961, 2783.243
715.0782, 2715.697
715.5603, 2671.221
716.0424, 2640.562
716.5245, 2624.015
717.0067, 2618.608
717.4888, 2630.011
717.9709, 2647.879
718.4530, 2656.062
718.9351, 2649.530
719.4172, 2648.921
719.8994, 2668.154
720.3815, 2695.743
720.8636, 2720.296
721.3457, 2727.460
721.8278, 2751.590
722.3099, 2799.844
722.7921, 2860.051
723.2742, 2909.196
723.7563, 2944.253
724.2384, 2998.956
724.7205, 3086.233
725.2026, 3191.032
725.6848, 3291.379
726.1669, 3387.234
726.6490, 3472.467
727.1311, 3529.182
727.6132, 3587.666
728.0953, 3669.535
728.5775, 3774.289
729.0596, 3889.124
729.5417, 4016.274
730.0238, 4148.214
730.5059, 4279.907
730.9880, 4411.291
731.4702, 4549.247
731.9523, 4694.245
732.4344, 4843.643
732.9165, 4995.220
733.3986, 5148.451
733.8807, 5297.146
734.3629, 5437.767
734.8450, 5586.972
735.3271, 5781.515
735.8092, 5987.527
736.2913, 6152.115
736.7734, 6236.561
737.2556, 6328.619
737.7377, 6483.098
738.2198, 6658.840
738.7019, 6795.367
739.1840, 6874.189
739.6661, 6943.589
740.1483, 7013.068
740.6304, 7074.726
741.1125, 7113.113
741.5946, 7128.338
742.0767, 7109.233
742.5588, 7042.921
743.0410, 6946.776
743.5231, 6851.375
744.0052, 6754.032
744.4873, 6638.879
744.9694, 6487.209
745.4515, 6322.612
745.9337, 6159.624
746.4158, 5998.496
746.8979, 5831.163
747.3800, 5660.105
747.8621, 5479.955
748.3442, 5285.667
748.8264, 5072.439
749.3085, 4879.045
749.7906, 4710.102
750.2727, 4555.396
750.7548, 4411.363
751.2369, 4276.222
751.7191, 4145.359
752.2012, 4018.637
752.6833, 3899.758
753.1654, 3796.887
753.6475, 3703.948
754.1296, 3615.925
754.6118, 3532.034
755.0939, 3452.410
755.5760, 3378.381
756.0581, 3308.380
756.5402, 3243.043
757.0223, 3184.419
757.5045, 3119.325
757.9866, 3040.752
758.4687, 2959.480
758.9508, 2901.904
759.4329, 2865.056
759.9150, 2831.517
760.3972, 2791.590
760.8793, 2753.412
761.3614, 2725.084
761.8435, 2704.710
762.3256, 2684.736
762.8077, 2672.670
763.2899, 2650.481
763.7720, 2603.241
764.2541, 2533.756
764.7362, 2482.883
765.2183, 2454.025
765.7004, 2436.600
766.1825, 2429.530
766.6646, 2430.766
767.1467, 2424.406
767.6288, 2410.484
768.1110, 2389.316
768.5931, 2351.302
769.0752, 2311.442
769.5573, 2290.812
770.0394, 2295.939
770.5215, 2296.135
771.0037, 2272.959
771.4858, 2244.387
771.9679, 2224.190
772.4500, 2209.465
772.9321, 2213.001
773.4142, 2245.014
773.8964, 2278.115
774.3785, 2272.548
774.8606, 2232.891
775.3427, 2204.599
775.8248, 2197.302
776.3069, 2200.339
776.7891, 2204.970
777.2712, 2210.766
777.7533, 2216.988
778.2354, 2221.586
778.7175, 2228.686
779.1996, 2240.528
779.6818, 2255.794
780.1639, 2271.607
780.6460, 2290.996
781.1281, 2303.560
781.6102, 2302.241
782.0923, 2296.203
782.5745, 2316.596
783.0566, 2361.212
783.5387, 2401.298
784.0208, 2412.576
784.5029, 2417.935
784.9850, 2447.557
785.4672, 2495.849
785.9493, 2539.973
786.4314, 2565.367
786.9135, 2588.086
787.3956, 2613.251
787.8777, 2640.816
788.3599, 2677.164
788.8420, 2723.644
789.3241, 2775.422
789.8062, 2833.391
790.2883, 2895.844
790.7704, 2944.268
791.2526, 2979.129
791.7347, 3007.206
792.2168, 3034.667
792.6989, 3058.439
793.1810, 3075.843
793.6631, 3087.203
794.1453, 3087.205
794.6274, 3071.085
795.1095, 3044.524
795.5916, 3012.499
796.0737, 2976.974
796.5558, 2928.617
797.0380, 2863.250
797.5201, 2794.924
798.0022, 2739.341
798.4843, 2693.565
798.9664, 2644.438
799.4485, 2590.420
799.9307, 2534.273
800.4128, 2471.656
800.8949, 2410.726
801.3770, 2361.294
801.8591, 2324.259
802.3412, 2301.587
802.8234, 2307.313
803.3055, 2320.816
803.7876, 2317.506
804.2697, 2291.310
804.7518, 2268.906
805.2339, 2251.355
805.7161, 2243.969
806.1982, 2259.560
806.6803, 2293.632
807.1624, 2330.580
807.6445, 2366.556
808.1266, 2401.407
808.6088, 2434.192
809.0909, 2465.860
809.5730, 2498.295
810.0551, 2540.051
810.5372, 2573.008
811.0193, 2596.427
811.5015, 2608.066
811.9836, 2599.669
812.4657, 2569.845
812.9478, 2530.005
813.4299, 2481.350
813.9120, 2427.256
814.3942, 2375.281
814.8763, 2324.619
815.3584, 2273.946
815.8405, 2219.573
816.3226, 2167.807
816.8047, 2119.458
817.2869, 2075.505
817.7690, 2042.737
818.2511, 2029.067
818.7332, 2013.929
819.2153, 1986.910
819.6974, 1952.761
820.1796, 1939.202
820.6617, 1946.480
821.1438, 1959.564
821.6259, 1974.804
822.1080, 1987.618
822.5901, 1987.367
823.0723, 1976.272
823.5544, 1974.166
824.0365, 2001.504
824.5186, 2030.090
825.0007, 2043.427
825.4828, 2040.658
825.9650, 2043.987
826.4471, 2056.359
826.9292, 2067.333
827.4113, 2070.006
827.8934, 2065.685
828.3755, 2056.684
828.8577, 2043.456
829.3398, 2042.259
829.8219, 2079.694
830.3040, 2125.604
830.7861, 2148.254
831.2682, 2140.611
831.7503, 2145.704
832.2324, 2183.650
832.7145, 2228.267
833.1967, 2266.842
833.6788, 2298.505
834.1609, 2329.558
834.6430, 2358.949
835.1251, 2393.052
835.6072, 2437.224
836.0894, 2490.303
836.5715, 2551.223
837.0536, 2620.743
837.5357, 2688.187
838.0178, 2748.395
838.4999, 2803.558
838.9821, 2852.777
839.4642, 2883.743
839.9463, 2944.586
840.4284, 3045.119
840.9105, 3160.617
841.3926, 3265.699
841.8748, 3363.062
842.3569, 3481.452
842.8390, 3623.893
843.3211, 3779.642
843.8032, 3940.000
844.2853, 4107.867
844.7675, 4283.660
845.2496, 4466.330
845.7317, 4664.423
846.2138, 4886.185
846.6959, 5120.957
847.1780, 5361.269
847.6602, 5604.893
848.1423, 5853.537
848.6244, 6106.867
849.1065, 6368.755
849.5886, 6642.534
850.0707, 6932.493
850.5529, 7244.872
851.0350, 7583.308
851.5171, 7940.366
851.9992, 8315.770
852.4813, 8703.441
852.9634, 9105.874
853.4456, 9520.312
853.9277, 9958.891
854.4098, 10426.90
854.8919, 10904.63
855.3740, 11374.47
855.8561, 11832.31
856.3383, 12286.89
856.8204, 12746.53
857.3025, 13152.33
857.7846, 13470.62
858.2667, 13692.64
858.7488, 13817.15
859.2310, 13868.78
859.7131, 13765.82
860.1952, 13439.39
860.6773, 12980.73
861.1594, 12452.77
861.6415, 11849.65
862.1237, 11211.81
862.6058, 10527.34
863.0879, 9841.226
863.5700, 9181.902
864.0521, 8562.379
864.5342, 7979.796
865.0164, 7436.073
865.4985, 6939.388
865.9806, 6494.023
866.4627, 6093.151
866.9448, 5731.417
867.4269, 5409.745
867.9091, 5107.837
868.3912, 4819.638
868.8733, 4558.291
869.3554, 4350.841
869.8375, 4190.453
870.3196, 4040.298
870.8018, 3891.967
871.2839, 3755.715
871.7660, 3642.853
872.2481, 3543.536
872.7302, 3447.115
873.2123, 3351.719
873.6945, 3256.399
874.1766, 3161.160
874.6587, 3065.588
875.1408, 2964.687
875.6229, 2858.153
876.1050, 2774.437
876.5872, 2719.154
877.0693, 2672.164
877.5514, 2610.250
878.0335, 2542.807
878.5156, 2484.894
878.9977, 2443.748
879.4799, 2401.437
879.9620, 2351.387
880.4441, 2297.992
880.9262, 2243.172
881.4083, 2181.950
881.8904, 2140.609
882.3726, 2124.840
882.8547, 2112.743
883.3368, 2075.965
883.8189, 2025.236
884.3010, 1987.055
884.7831, 1967.230
885.2653, 1950.875
885.7474, 1928.954
886.2295, 1906.503
886.7116, 1889.255
887.1937, 1882.653
887.6758, 1864.351
888.1580, 1826.212
888.6401, 1792.478
889.1222, 1793.262
889.6043, 1819.766
890.0864, 1827.299
890.5685, 1811.575
891.0507, 1787.906
891.5328, 1762.357
892.0149, 1738.287
892.4970, 1719.224
892.9791, 1707.749
893.4612, 1693.190
893.9434, 1669.116
894.4255, 1649.409
894.9076, 1644.502
895.3897, 1654.070
895.8718, 1662.046
896.3539, 1668.206
896.8361, 1671.698
897.3181, 1673.245
897.8002, 1670.776
898.2823, 1659.019
898.7645, 1636.598
899.2466, 1621.109
899.7287, 1622.988
900.2108, 1627.654
900.6929, 1628.365
901.1750, 1625.018
901.6572, 1625.476
902.1393, 1629.951
902.6214, 1635.386
903.1035, 1642.636
903.5856, 1647.917
904.0677, 1641.735
904.5499, 1625.460
905.0320, 1616.859
905.5141, 1631.355
905.9962, 1647.785
906.4783, 1656.926
906.9604, 1659.177
907.4426, 1660.091
907.9247, 1660.073
908.4068, 1656.400
908.8889, 1643.748
909.3710, 1628.489
909.8531, 1622.383
910.3353, 1624.853
910.8174, 1633.274
911.2995, 1660.914
911.7816, 1679.764
912.2637, 1665.305
912.7458, 1628.181
913.2280, 1622.053
913.7101, 1656.468
914.1922, 1689.292
914.6743, 1707.892
915.1564, 1714.880
915.6385, 1707.549
916.1207, 1692.014
916.6028, 1689.850
917.0849, 1732.242
917.5670, 1768.252
918.0491, 1762.961
918.5313, 1733.405
919.0134, 1724.229
919.4955, 1743.953
919.9776, 1765.737
920.4597, 1785.203
920.9418, 1803.227
921.4240, 1822.196
921.9061, 1841.398
922.3882, 1858.074
922.8703, 1869.716
923.3524, 1881.314
923.8345, 1893.781
924.3167, 1908.974
924.7988, 1929.817
925.2809, 1955.640
925.7630, 1988.928
926.2451, 2030.812
926.7272, 2077.855
927.2094, 2128.923
927.6915, 2181.648
928.1736, 2224.085
928.6557, 2250.784
929.1378, 2282.822
929.6199, 2341.434
930.1021, 2409.675
930.5842, 2470.000
931.0663, 2510.778
931.5484, 2564.900
932.0305, 2637.358
932.5126, 2712.115
932.9948, 2770.102
933.4769, 2816.450
933.9590, 2879.289
934.4411, 2960.455
934.9232, 3040.457
935.4053, 3094.131
935.8875, 3145.944
936.3696, 3217.259
936.8517, 3313.548
937.3338, 3402.786
937.8159, 3483.456
938.2980, 3556.779
938.7802, 3628.445
939.2623, 3694.623
939.7444, 3727.682
940.2265, 3730.711
940.7086, 3730.104
941.1907, 3747.853
941.6729, 3764.000
942.1550, 3765.255
942.6371, 3751.560
943.1192, 3729.548
943.6013, 3712.832
944.0834, 3663.646
944.5656, 3562.813
945.0477, 3428.161
945.5298, 3302.739
946.0119, 3187.094
946.4940, 3080.830
946.9761, 2986.505
947.4583, 2900.097
947.9404, 2825.115
948.4225, 2755.527
948.9046, 2676.517
949.3867, 2569.291
949.8688, 2486.161
950.3510, 2438.939
950.8331, 2410.850
951.3152, 2377.786
951.7973, 2339.488
952.2794, 2293.059
952.7615, 2233.823
953.2437, 2178.326
953.7258, 2136.961
954.2079, 2107.499
954.6900, 2088.439
955.1721, 2089.052
955.6542, 2079.081
956.1364, 2056.037
956.6185, 2027.594
957.1006, 1996.254
957.5827, 1965.123
958.0648, 1948.241
958.5469, 1947.117
959.0291, 1948.058
959.5112, 1943.014
959.9933, 1935.837
960.4754, 1929.637
960.9575, 1924.876
961.4396, 1917.034
961.9218, 1903.979
962.4039, 1894.333
962.8860, 1896.534
963.3680, 1905.071
963.8502, 1901.320
964.3323, 1887.562
964.8144, 1876.620
965.2965, 1876.913
965.7786, 1880.636
966.2607, 1884.371
966.7429, 1888.239
967.2250, 1894.557
967.7071, 1905.958
968.1892, 1909.255
968.6713, 1897.865
969.1534, 1880.927
969.6356, 1872.191
970.1177, 1871.430
970.5998, 1878.562
971.0819, 1901.804
971.5640, 1921.045
972.0461, 1930.008
972.5283, 1930.190
973.0104, 1921.293
973.4925, 1899.163
973.9746, 1889.804
974.4567, 1897.007
974.9388, 1911.157
975.4210, 1923.093
975.9031, 1933.831
976.3852, 1945.753
976.8673, 1960.048
977.3494, 1970.710
977.8315, 1965.301
978.3137, 1965.465
978.7958, 1986.866
979.2779, 2030.441
979.7600, 2057.740
980.2421, 2067.623
980.7242, 2078.238
981.2064, 2099.936
981.6885, 2130.948
982.1706, 2179.480
982.6527, 2239.931
983.1348, 2277.330
983.6169, 2260.350
984.0991, 2243.055
984.5812, 2234.240
985.0633, 2236.670
985.5454, 2267.311
986.0275, 2322.770
986.5096, 2365.335
986.9918, 2373.920
987.4739, 2375.653
987.9560, 2395.211
988.4381, 2424.219
988.9202, 2449.296
989.4023, 2473.818
989.8845, 2483.466
990.3666, 2473.354
990.8487, 2455.626
991.3308, 2444.869
991.8129, 2439.466
992.2950, 2434.609
992.7772, 2430.427
993.2593, 2418.925
993.7414, 2381.706
994.2235, 2344.262
994.7056, 2332.703
995.1877, 2354.354
995.6699, 2347.336
996.1520, 2304.155
996.6341, 2258.861
997.1162, 2236.036
997.5983, 2225.590
998.0804, 2204.118
998.5626, 2173.562
999.0447, 2143.624
999.5268, 2121.049
1000.009, 2097.769
1000.491, 2065.565
1000.973, 2031.380
1001.455, 2015.282
1001.937, 2019.510
1002.419, 2022.423
1002.902, 2020.999
1003.384, 2009.488
1003.866, 1969.455
1004.348, 1917.742
1004.830, 1881.012
1005.312, 1874.616
1005.794, 1870.547
1006.276, 1869.413
1006.759, 1864.246
1007.241, 1842.921
1007.723, 1807.535
1008.205, 1795.997
1008.687, 1811.052
1009.169, 1825.940
1009.651, 1812.955
1010.133, 1795.199
1010.615, 1796.022
1011.098, 1817.865
1011.580, 1824.814
1012.062, 1808.184
1012.544, 1794.385
1013.026, 1794.556
1013.508, 1804.737
1013.990, 1817.456
1014.472, 1831.246
1014.955, 1841.061
1015.437, 1845.418
1015.919, 1844.515
1016.401, 1834.578
1016.883, 1820.829
1017.365, 1811.519
1017.847, 1806.725
1018.329, 1805.876
1018.811, 1808.641
1019.294, 1816.288
1019.776, 1833.978
1020.258, 1855.931
1020.740, 1874.044
1021.222, 1886.896
1021.704, 1895.898
1022.186, 1894.591
1022.668, 1897.538
1023.151, 1915.695
1023.633, 1946.733
1024.115, 1960.972
1024.597, 1959.404
1025.079, 1959.285
1025.561, 1961.527
1026.043, 1978.181
1026.525, 2033.999
1027.007, 2113.707
1027.490, 2159.036
1027.972, 2149.150
1028.454, 2147.542
1028.936, 2165.598
1029.418, 2198.534
1029.900, 2243.116
1030.382, 2295.920
1030.864, 2349.952
1031.346, 2404.676
1031.829, 2457.074
1032.311, 2497.004
1032.793, 2541.708
1033.275, 2608.209
1033.757, 2701.458
1034.239, 2777.755
1034.721, 2836.259
1035.203, 2894.195
1035.686, 2965.375
1036.168, 3043.427
1036.650, 3122.073
1037.132, 3200.861
1037.614, 3281.969
1038.096, 3367.566
1038.578, 3451.145
1039.060, 3527.471
1039.542, 3603.713
1040.025, 3700.225
1040.507, 3810.389
1040.989, 3915.401
1041.471, 4017.986
1041.953, 4091.547
1042.435, 4109.754
1042.917, 4096.444
1043.399, 4079.293
1043.881, 4061.551
1044.364, 4034.014
1044.846, 3998.034
1045.328, 3945.235
1045.810, 3864.770
1046.292, 3765.346
1046.774, 3656.559
1047.256, 3539.785
1047.738, 3421.554
1048.221, 3301.202
1048.703, 3182.671
1049.185, 3064.406
1049.667, 2950.466
1050.149, 2856.877
1050.631, 2780.345
1051.113, 2700.933
1051.595, 2606.169
1052.078, 2514.646
1052.560, 2436.858
1053.042, 2371.239
1053.524, 2317.566
1054.006, 2283.563
1054.488, 2234.356
1054.970, 2164.054
1055.452, 2099.009
1055.934, 2067.165
1056.417, 2053.673
1056.899, 2036.392
1057.381, 2013.602
1057.863, 1983.934
1058.345, 1941.184
1058.827, 1897.691
1059.309, 1856.284
1059.791, 1817.070
1060.273, 1779.181
1060.756, 1743.385
1061.238, 1717.775
1061.720, 1708.253
1062.202, 1703.387
1062.684, 1694.793
1063.166, 1685.685
1063.648, 1681.542
1064.130, 1690.030
1064.612, 1679.041
1065.095, 1642.303
1065.577, 1609.240
1066.059, 1617.558
1066.541, 1642.300
1067.023, 1637.401
1067.505, 1603.797
1067.987, 1575.921
1068.469, 1568.529
1068.952, 1567.344
1069.434, 1571.792
1069.916, 1577.388
1070.398, 1567.989
1070.880, 1546.299
1071.362, 1531.684
1071.844, 1532.898
1072.326, 1536.023
1072.808, 1532.774
1073.291, 1525.056
1073.773, 1514.572
1074.255, 1500.283
1074.737, 1486.760
1075.219, 1472.952
1075.701, 1465.486
1076.183, 1474.166
1076.665, 1489.964
1077.147, 1501.698
1077.630, 1508.641
1078.112, 1508.594
1078.594, 1494.438
1079.076, 1481.125
1079.558, 1470.561
1080.040, 1463.605
1080.522, 1464.115
1081.004, 1470.220
1081.487, 1473.906
1081.969, 1473.398
1082.451, 1469.010
1082.933, 1453.696
1083.415, 1439.886
1083.897, 1440.139
1084.379, 1457.479
1084.861, 1463.859
1085.344, 1458.410
1085.826, 1451.669
1086.308, 1448.771
1086.790, 1449.834
1087.272, 1459.927
1087.754, 1474.862
1088.236, 1478.315
1088.718, 1456.427
1089.200, 1444.681
1089.682, 1452.480
1090.165, 1464.937
1090.647, 1455.018
1091.129, 1431.879
1091.611, 1420.726
1092.093, 1428.335
1092.575, 1434.425
1093.057, 1427.778
1093.539, 1419.034
1094.022, 1413.860
1094.504, 1412.031
1094.986, 1411.934
1095.468, 1413.354
1095.950, 1412.136
1096.432, 1399.564
1096.914, 1390.064
1097.396, 1398.957
1097.879, 1417.793
1098.361, 1430.032
1098.843, 1434.724
1099.325, 1431.568
1099.807, 1418.055
1100.289, 1406.400
1100.771, 1414.817
1101.253, 1431.434
1101.735, 1439.113
1102.218, 1436.231
1102.700, 1426.914
1103.182, 1402.456
1103.664, 1386.441
1104.146, 1388.960
1104.628, 1403.515
1105.110, 1411.216
1105.592, 1414.445
1106.074, 1422.995
1106.557, 1447.030
1107.039, 1464.475
1107.521, 1458.468
1108.003, 1445.595
1108.485, 1444.160
1108.967, 1457.189
1109.449, 1448.350
1109.931, 1416.082
1110.414, 1388.279
1110.896, 1388.872
1111.378, 1399.579
1111.860, 1406.007
1112.342, 1408.829
1112.824, 1414.203
1113.306, 1422.163
1113.788, 1434.650
1114.271, 1454.621
1114.753, 1472.031
1115.235, 1466.714
1115.717, 1450.847
1116.199, 1445.879
1116.681, 1459.168
1117.163, 1467.111
1117.645, 1461.234
1118.127, 1455.043
1118.609, 1454.399
1119.092, 1459.044
1119.574, 1472.521
1120.056, 1491.607
1120.538, 1502.116
1121.020, 1486.554
1121.502, 1473.565
1121.984, 1479.998
1122.466, 1491.451
1122.949, 1489.394
1123.431, 1473.363
1123.913, 1466.313
1124.395, 1470.593
1124.877, 1473.241
1125.359, 1456.422
1125.841, 1439.566
1126.323, 1441.278
1126.806, 1460.219
1127.288, 1470.182
1127.770, 1470.282
1128.252, 1464.496
1128.734, 1451.581
1129.216, 1438.548
1129.698, 1438.139
1130.180, 1442.612
1130.662, 1438.747
1131.145, 1415.850
1131.627, 1408.896
1132.109, 1429.481
1132.591, 1445.400
1133.073, 1425.841
1133.555, 1387.920
1134.037, 1387.400
1134.519, 1414.990
1135.001, 1433.945
1135.484, 1414.431
1135.966, 1402.166
1136.448, 1415.323
1136.930, 1433.362
1137.412, 1420.325
1137.894, 1383.430
1138.376, 1373.433
1138.858, 1397.646
1139.340, 1420.860
1139.823, 1413.831
1140.305, 1403.399
1140.787, 1408.651
1141.269, 1425.381
1141.751, 1428.282
1142.233, 1417.126
1142.715, 1409.775
1143.197, 1412.202
1143.680, 1420.969
1144.162, 1445.043
1144.644, 1467.396
1145.126, 1462.415
1145.608, 1417.216
1146.090, 1392.921
1146.572, 1391.554
1147.054, 1399.764
1147.536, 1414.223
1148.019, 1428.483
1148.501, 1434.237
1148.983, 1432.200
1149.465, 1424.395
1149.947, 1399.995
1150.429, 1391.507
1150.911, 1406.186
1151.393, 1429.979
1151.875, 1450.395
1152.358, 1465.284
1152.840, 1468.292
1153.322, 1458.568
1153.804, 1448.727
1154.286, 1440.794
1154.768, 1436.601
1155.250, 1436.572
1155.732, 1440.875
1156.215, 1456.271
1156.697, 1477.152
1157.179, 1480.913
1157.661, 1451.910
1158.143, 1426.805
1158.625, 1426.388
1159.107, 1432.098
1159.589, 1429.685
1160.072, 1419.770
1160.554, 1421.073
1161.036, 1432.745
1161.518, 1444.723
1162.000, 1454.519
1162.482, 1458.888
1162.964, 1447.023
1163.446, 1432.042
1163.928, 1439.070
1164.411, 1471.869
1164.893, 1490.420
1165.375, 1490.329
1165.857, 1482.117
1166.339, 1468.741
1166.821, 1456.168
1167.303, 1451.564
1167.785, 1453.899
1168.267, 1446.959
1168.750, 1426.269
1169.232, 1420.943
1169.714, 1443.917
1170.196, 1471.327
1170.678, 1468.078
1171.160, 1454.258
1171.642, 1458.238
1172.124, 1493.453
1172.607, 1509.075
1173.089, 1500.190
1173.571, 1484.691
1174.053, 1469.088
1174.535, 1455.494
1175.017, 1446.796
1175.499, 1443.419
1175.981, 1446.588
1176.464, 1464.702
1176.946, 1477.650
1177.428, 1485.493
1177.910, 1485.798
1178.392, 1461.593
1178.874, 1432.632
1179.356, 1460.031
1179.838, 1535.709
1180.320, 1584.282
1180.802, 1555.198
1181.285, 1524.010
1181.767, 1504.881
1182.249, 1495.187
1182.731, 1494.032
1183.213, 1498.484
1183.695, 1498.964
1184.177, 1493.792
1184.659, 1487.141
1185.142, 1476.910
1185.624, 1470.146
1186.106, 1470.247
1186.588, 1475.787
1187.070, 1483.826
1187.552, 1493.125
1188.034, 1498.181
1188.516, 1496.434
1188.999, 1491.781
1189.481, 1480.714
1189.963, 1472.291
1190.445, 1475.292
1190.927, 1489.077
1191.409, 1492.791
1191.891, 1487.547
1192.373, 1483.878
1192.855, 1492.917
1193.338, 1499.410
1193.820, 1486.590
1194.302, 1471.177
1194.784, 1480.683
1195.266, 1516.694
1195.748, 1535.661
1196.230, 1534.902
1196.712, 1523.453
1197.194, 1495.970
1197.677, 1471.413
1198.159, 1464.182
1198.641, 1471.030
1199.123, 1485.413
1199.605, 1508.738
1200.087, 1515.232
1200.569, 1496.883
1201.051, 1477.882
1201.533, 1483.398
1202.016, 1496.475
1202.498, 1500.467
1202.980, 1495.531
1203.462, 1502.099
1203.944, 1522.190
1204.426, 1530.022
1204.908, 1510.677
1205.390, 1486.426
1205.873, 1481.828
1206.355, 1484.989
1206.837, 1478.522
1207.319, 1456.643
1207.801, 1454.696
1208.283, 1475.375
1208.765, 1494.400
1209.247, 1495.018
1209.729, 1487.318
1210.212, 1476.971
1210.694, 1467.043
1211.176, 1464.741
1211.658, 1471.865
1212.140, 1481.980
1212.622, 1495.745
1213.104, 1506.772
1213.586, 1509.265
1214.068, 1506.100
1214.551, 1496.567
1215.033, 1483.471
1215.515, 1480.713
1215.997, 1495.364
1216.479, 1496.989
1216.961, 1477.753
1217.443, 1456.493
1217.925, 1455.974
1218.408, 1465.496
1218.890, 1474.232
1219.372, 1480.819
1219.854, 1481.951
1220.336, 1475.817
1220.818, 1470.184
1221.300, 1466.036
1221.782, 1466.629
1222.265, 1486.885
1222.747, 1509.834
1223.229, 1508.423
1223.711, 1468.175
1224.193, 1446.388
1224.675, 1446.836
1225.157, 1453.662
1225.639, 1462.189
1226.121, 1468.935
1226.604, 1466.205
1227.086, 1458.520
1227.568, 1454.593
1228.050, 1458.928
1228.532, 1460.994
1229.014, 1460.974
1229.496, 1457.972
1229.978, 1444.798
1230.460, 1432.599
1230.943, 1443.813
1231.425, 1469.393
1231.907, 1481.596
1232.389, 1469.402
1232.871, 1459.062
1233.353, 1451.187
1233.835, 1450.144
1234.317, 1468.335
1234.800, 1490.766
1235.282, 1496.548
1235.764, 1487.156
1236.246, 1481.247
1236.728, 1481.338
1237.210, 1483.088
1237.692, 1486.508
1238.174, 1488.701
1238.656, 1484.940
1239.139, 1478.447
1239.621, 1469.874
1240.103, 1459.647
1240.585, 1469.076
1241.067, 1508.858
1241.549, 1530.819
1242.031, 1516.292
1242.513, 1488.219
1242.995, 1468.169
1243.478, 1457.462
1243.960, 1460.779
1244.442, 1483.576
1244.924, 1491.523
1245.406, 1480.725
1245.888, 1473.273
1246.370, 1481.230
1246.852, 1494.377
1247.335, 1501.471
1247.817, 1504.260
1248.299, 1505.039
1248.781, 1503.446
1249.263, 1502.312
1249.745, 1501.558
1250.227, 1501.796
1250.709, 1505.153
1251.192, 1508.221
1251.674, 1507.678
1252.156, 1504.044
1252.638, 1498.151
1253.120, 1489.807
1253.602, 1479.917
1254.084, 1467.846
1254.566, 1460.684
1255.048, 1467.971
1255.531, 1479.341
1256.013, 1486.540
1256.495, 1489.878
1256.977, 1492.053
1257.459, 1493.413
1257.941, 1491.422
1258.423, 1485.536
1258.905, 1478.864
1259.387, 1473.020
1259.870, 1468.472
1260.352, 1464.701
1260.834, 1462.710
1261.316, 1466.946
1261.798, 1477.729
1262.280, 1487.473
1262.762, 1494.835
1263.244, 1500.425
1263.726, 1507.461
1264.209, 1510.342
1264.691, 1500.258
1265.173, 1482.060
1265.655, 1480.044
1266.137, 1493.262
1266.619, 1501.054
1267.101, 1496.544
1267.583, 1489.908
1268.066, 1485.276
1268.548, 1484.322
1269.030, 1490.833
1269.512, 1502.052
##END=



