##NAMES=Sinhalite
##RRUFFID=R100132
##IDEAL CHEMISTRY=MgAlBO_4_
##LOCALITY=Ratnapura district, Sri Lanka
##OWNER=RRUFF
##SOURCE=William W. Pinch
##DESCRIPTION=Tan colored water-worn single crystal
##STATUS=The identification of this mineral has been confirmed by single-crystal X-ray diffraction.
##URL=rruff.info/R100132
90.60547, 445.8943
91.08759, 451.1438
91.56970, 457.5979
92.05182, 457.4701
92.53394, 456.0682
93.01605, 453.3296
93.49817, 450.3382
93.98029, 447.4577
94.46240, 443.1514
94.94452, 436.6243
95.42664, 429.2552
95.90874, 421.6113
96.39086, 413.9361
96.87298, 406.9593
97.35509, 401.3179
97.83721, 396.7715
98.31933, 392.5013
98.80145, 388.5359
99.28356, 384.6854
99.76568, 380.9660
100.2478, 377.3311
100.7299, 373.5887
101.2120, 369.3160
101.6941, 362.0744
102.1763, 357.0245
102.6584, 355.7184
103.1405, 356.4147
103.6226, 356.6937
104.1047, 355.1382
104.5868, 352.0558
105.0690, 349.6510
105.5511, 348.4206
106.0332, 347.1878
106.5153, 345.2083
106.9974, 342.5675
107.4795, 340.0926
107.9617, 338.4383
108.4438, 337.4441
108.9259, 336.4959
109.4080, 335.3749
109.8901, 334.2958
110.3722, 333.6616
110.8544, 333.6953
111.3365, 333.6231
111.8186, 332.9194
112.3007, 331.7562
112.7828, 330.4272
113.2649, 328.9778
113.7471, 327.4292
114.2292, 326.1483
114.7113, 324.8766
115.1934, 324.1822
115.6755, 324.7398
116.1576, 326.2281
116.6397, 327.5978
117.1219, 327.6148
117.6040, 325.6055
118.0861, 324.2841
118.5682, 324.1201
119.0503, 324.1568
119.5324, 323.7900
120.0146, 322.9105
120.4967, 321.8644
120.9788, 321.2497
121.4609, 321.7215
121.9430, 321.6248
122.4251, 320.4455
122.9073, 318.8611
123.3894, 317.7123
123.8715, 317.3538
124.3536, 317.4583
124.8357, 317.1968
125.3178, 316.4949
125.8000, 315.7186
126.2821, 314.8534
126.7642, 313.9781
127.2463, 313.4565
127.7284, 313.7049
128.2105, 314.2371
128.6927, 314.1598
129.1748, 313.2135
129.6569, 312.0388
130.1390, 311.2123
130.6211, 310.7633
131.1032, 310.4983
131.5854, 310.5099
132.0675, 310.5965
132.5496, 310.5551
133.0317, 310.2762
133.5138, 309.8752
133.9959, 309.6386
134.4781, 309.7035
134.9602, 309.7159
135.4423, 309.4897
135.9244, 309.1748
136.4065, 309.0376
136.8886, 309.3159
137.3708, 309.9301
137.8529, 309.7606
138.3350, 308.2179
138.8171, 306.4191
139.2992, 304.1382
139.7813, 301.7504
140.2635, 299.9881
140.7456, 299.5564
141.2277, 300.6606
141.7098, 301.3139
142.1919, 301.2687
142.6740, 301.0822
143.1561, 301.1749
143.6383, 301.5238
144.1204, 301.6603
144.6025, 301.0617
145.0846, 299.5869
145.5667, 298.0948
146.0488, 296.0018
146.5310, 294.1870
147.0131, 293.8430
147.4952, 295.3624
147.9773, 297.4023
148.4594, 298.6447
148.9415, 299.2105
149.4237, 299.0850
149.9058, 297.6641
150.3879, 295.4932
150.8700, 294.2068
151.3521, 294.5400
151.8342, 295.1767
152.3164, 294.8707
152.7985, 293.7420
153.2806, 292.6984
153.7627, 292.5329
154.2448, 293.2643
154.7269, 293.8304
155.2091, 294.1083
155.6912, 294.1465
156.1733, 293.7915
156.6554, 293.0968
157.1375, 292.4498
157.6196, 292.3881
158.1018, 293.1908
158.5839, 293.7664
159.0660, 293.8589
159.5481, 293.8698
160.0302, 294.1827
160.5123, 294.8394
160.9945, 295.4470
161.4766, 295.2628
161.9587, 293.3232
162.4408, 292.0114
162.9229, 291.7536
163.4050, 291.8844
163.8871, 291.8405
164.3693, 291.4078
164.8514, 290.6885
165.3335, 289.9022
165.8156, 288.6076
166.2977, 287.8694
166.7798, 288.2636
167.2620, 289.2025
167.7441, 289.7555
168.2262, 289.4713
168.7083, 288.6766
169.1904, 288.2816
169.6725, 288.3164
170.1547, 288.5608
170.6368, 289.2276
171.1189, 290.1156
171.6010, 290.4646
172.0831, 289.6807
172.5652, 288.3320
173.0474, 287.6027
173.5295, 287.6556
174.0116, 288.0096
174.4937, 288.4708
174.9758, 289.0404
175.4579, 289.3020
175.9401, 288.8402
176.4222, 288.0724
176.9043, 287.4420
177.3864, 287.0444
177.8685, 286.7558
178.3506, 286.3312
178.8328, 285.6283
179.3149, 285.3208
179.7970, 285.8811
180.2791, 286.8083
180.7612, 287.8724
181.2433, 289.0976
181.7255, 290.0284
182.2076, 289.4601
182.6897, 286.0417
183.1718, 283.6201
183.6539, 283.3118
184.1360, 284.0763
184.6181, 285.0225
185.1003, 285.7548
185.5824, 286.1709
186.0645, 285.8632
186.5466, 283.6590
187.0287, 282.1587
187.5108, 282.2095
187.9930, 283.0126
188.4751, 283.5138
188.9572, 283.1019
189.4393, 281.9983
189.9214, 281.4459
190.4035, 281.7901
190.8857, 282.3026
191.3678, 283.0527
191.8499, 283.8692
192.3320, 284.5253
192.8141, 284.9073
193.2962, 284.9942
193.7784, 284.5645
194.2605, 283.2425
194.7426, 281.9391
195.2247, 280.7021
195.7068, 279.6827
196.1889, 279.3848
196.6711, 280.3740
197.1532, 282.2332
197.6353, 282.8716
198.1174, 281.1896
198.5995, 279.4267
199.0816, 278.7997
199.5638, 279.2044
200.0459, 279.9584
200.5280, 280.8526
201.0101, 281.7552
201.4922, 282.3352
201.9743, 282.5278
202.4565, 282.4532
202.9386, 282.0513
203.4207, 281.3064
203.9028, 280.7905
204.3849, 280.9799
204.8670, 281.5508
205.3492, 282.0788
205.8313, 282.5809
206.3134, 282.8953
206.7955, 282.7143
207.2776, 281.9167
207.7597, 281.1885
208.2419, 280.9545
208.7240, 280.9072
209.2061, 280.7034
209.6882, 280.1301
210.1703, 279.5630
210.6524, 279.7941
211.1346, 281.2609
211.6167, 282.3809
212.0988, 282.4535
212.5809, 282.0620
213.0630, 281.7500
213.5451, 281.7440
214.0273, 281.8818
214.5094, 281.7568
214.9915, 281.0761
215.4736, 280.6772
215.9557, 280.8075
216.4378, 281.2079
216.9200, 281.6256
217.4021, 281.9462
217.8842, 282.2363
218.3663, 282.6813
218.8484, 283.3926
219.3305, 284.1142
219.8127, 285.0948
220.2948, 285.9655
220.7769, 286.2183
221.2590, 285.6209
221.7411, 284.5476
222.2232, 284.1049
222.7054, 284.7645
223.1875, 285.5726
223.6696, 286.6043
224.1517, 287.7088
224.6338, 288.7852
225.1159, 289.7963
225.5980, 290.6375
226.0802, 290.9930
226.5623, 290.3767
227.0444, 289.8346
227.5265, 289.7591
228.0086, 289.7077
228.4907, 288.9371
228.9729, 287.0919
229.4550, 284.7606
229.9371, 283.5486
230.4192, 284.3779
230.9013, 284.8107
231.3834, 284.3289
231.8656, 283.2619
232.3477, 281.9650
232.8298, 280.5078
233.3119, 279.1440
233.7940, 278.5272
234.2761, 278.8745
234.7583, 279.2253
235.2404, 279.4943
235.7225, 279.5889
236.2046, 279.1605
236.6867, 277.8892
237.1688, 276.5720
237.6510, 276.8926
238.1331, 279.1013
238.6152, 280.9218
239.0973, 281.6201
239.5794, 281.3927
240.0615, 280.4538
240.5437, 278.5399
241.0258, 276.5928
241.5079, 276.0907
241.9900, 277.0094
242.4721, 277.6848
242.9542, 277.0154
243.4364, 275.5725
243.9185, 274.8743
244.4006, 275.3979
244.8827, 276.4086
245.3648, 277.4389
245.8469, 278.4446
246.3290, 278.8091
246.8112, 277.6997
247.2933, 275.6685
247.7754, 274.4752
248.2575, 274.7291
248.7396, 275.2058
249.2217, 274.8651
249.7039, 273.9173
250.1860, 273.0687
250.6681, 272.9893
251.1502, 273.3634
251.6323, 272.8211
252.1144, 270.4713
252.5966, 268.6078
253.0787, 268.8590
253.5608, 270.5482
254.0429, 272.1949
254.5250, 273.1664
255.0071, 273.4532
255.4893, 272.8603
255.9714, 270.6654
256.4535, 268.7576
256.9356, 267.9153
257.4177, 267.8752
257.8998, 268.2673
258.3820, 269.0595
258.8641, 270.0621
259.3462, 270.6189
259.8283, 270.7007
260.3104, 270.3133
260.7925, 268.7634
261.2747, 267.0143
261.7568, 266.5153
262.2389, 268.2229
262.7210, 271.1759
263.2031, 272.5281
263.6852, 271.4020
264.1674, 270.0615
264.6495, 268.8688
265.1316, 267.8534
265.6137, 267.0341
266.0958, 266.4154
266.5779, 266.0259
267.0601, 265.9527
267.5422, 266.3013
268.0243, 266.8162
268.5064, 267.6041
268.9885, 268.4349
269.4706, 269.1854
269.9528, 269.8000
270.4349, 270.1452
270.9170, 269.8676
271.3991, 268.3786
271.8812, 267.4431
272.3633, 267.3855
272.8455, 267.6947
273.3276, 268.1861
273.8097, 268.7342
274.2918, 269.0341
274.7739, 268.5191
275.2560, 266.5204
275.7382, 265.1320
276.2202, 264.7056
276.7024, 264.4871
277.1845, 263.8149
277.6666, 262.7043
278.1487, 261.8366
278.6308, 262.1367
279.1129, 264.1225
279.5951, 265.4781
280.0772, 266.0085
280.5593, 266.2096
281.0414, 266.2120
281.5235, 266.0994
282.0056, 266.0396
282.4878, 266.2850
282.9699, 267.0161
283.4520, 266.6655
283.9341, 263.6983
284.4162, 261.2856
284.8983, 261.1893
285.3805, 262.8221
285.8626, 264.3371
286.3447, 264.2168
286.8268, 262.5081
287.3089, 262.0690
287.7910, 264.7989
288.2732, 266.6680
288.7553, 265.7959
289.2374, 263.2521
289.7195, 261.1919
290.2016, 260.9594
290.6837, 262.1626
291.1659, 262.6143
291.6480, 261.4825
292.1301, 260.5716
292.6122, 260.1977
293.0943, 260.2118
293.5764, 260.4480
294.0586, 260.8401
294.5407, 261.2924
295.0228, 261.5464
295.5049, 261.3986
295.9870, 261.2913
296.4691, 261.1788
296.9513, 261.1413
297.4334, 261.3912
297.9155, 261.9759
298.3976, 262.5345
298.8797, 262.4359
299.3618, 261.1467
299.8440, 260.1600
300.3261, 259.4339
300.8082, 259.0318
301.2903, 259.2206
301.7724, 259.9628
302.2545, 260.6590
302.7367, 260.5648
303.2188, 259.3875
303.7009, 258.4956
304.1830, 257.8882
304.6651, 257.5259
305.1472, 257.4537
305.6294, 257.6300
306.1115, 257.9183
306.5936, 258.2298
307.0757, 258.5732
307.5578, 258.6984
308.0399, 258.6363
308.5221, 258.3744
309.0042, 257.8104
309.4863, 257.0314
309.9684, 256.1888
310.4505, 255.3254
310.9326, 254.5236
311.4148, 254.4297
311.8969, 255.7827
312.3790, 256.8763
312.8611, 257.2245
313.3432, 257.0632
313.8253, 256.7014
314.3075, 256.2524
314.7896, 255.8652
315.2717, 255.9491
315.7538, 257.2194
316.2359, 257.9263
316.7180, 257.5857
317.2001, 256.7674
317.6823, 256.0414
318.1644, 255.5771
318.6465, 255.2839
319.1286, 255.0205
319.6107, 254.7386
320.0928, 254.6380
320.5750, 254.7711
321.0571, 255.0390
321.5392, 255.5189
322.0213, 256.1417
322.5034, 256.5197
322.9855, 256.1753
323.4677, 254.9179
323.9498, 254.3851
324.4319, 255.1140
324.9140, 255.9457
325.3961, 256.3166
325.8782, 256.2845
326.3604, 256.2137
326.8425, 256.3925
327.3246, 256.7612
327.8067, 256.6086
328.2888, 255.0015
328.7709, 254.0050
329.2531, 254.9436
329.7352, 256.7050
330.2173, 257.3116
330.6994, 255.7734
331.1815, 252.9795
331.6636, 251.3213
332.1458, 251.8249
332.6279, 252.2725
333.1100, 252.7511
333.5921, 253.0698
334.0742, 252.9119
334.5563, 252.2271
335.0385, 251.4266
335.5206, 251.1423
336.0027, 251.7212
336.4848, 251.9197
336.9669, 251.4388
337.4490, 250.8559
337.9312, 250.3925
338.4133, 250.1490
338.8954, 250.3425
339.3775, 251.2890
339.8596, 253.1286
340.3417, 253.9455
340.8239, 252.7968
341.3060, 251.7488
341.7881, 251.7572
342.2702, 252.4166
342.7523, 252.7037
343.2344, 251.9204
343.7166, 250.4369
344.1987, 250.0701
344.6808, 252.5965
345.1629, 254.2480
345.6450, 254.2587
346.1271, 253.3915
346.6093, 252.3923
347.0914, 251.5638
347.5735, 250.8982
348.0556, 250.3656
348.5377, 249.7200
349.0198, 249.7183
349.5020, 250.9337
349.9841, 252.2749
350.4662, 252.9783
350.9483, 252.9804
351.4304, 252.7099
351.9125, 252.5953
352.3947, 252.6393
352.8768, 252.8287
353.3589, 253.2337
353.8410, 253.7111
354.3231, 254.0912
354.8052, 254.5059
355.2874, 255.3096
355.7695, 256.8347
356.2516, 258.8461
356.7337, 260.0139
357.2158, 259.7397
357.6979, 259.3658
358.1800, 258.7068
358.6621, 258.2611
359.1443, 258.7528
359.6264, 260.4550
360.1085, 262.6005
360.5906, 263.7552
361.0727, 263.4749
361.5548, 263.3515
362.0370, 263.4080
362.5191, 263.7597
363.0012, 264.5379
363.4833, 265.7301
363.9654, 267.1555
364.4475, 268.6012
364.9297, 270.0475
365.4118, 271.8323
365.8939, 273.8375
366.3760, 276.3730
366.8581, 279.3985
367.3402, 283.0161
367.8224, 287.4315
368.3045, 292.7814
368.7866, 298.9533
369.2687, 305.5429
369.7508, 312.1739
370.2329, 320.1233
370.7151, 331.2357
371.1972, 343.1082
371.6793, 353.9027
372.1614, 363.1294
372.6435, 370.2556
373.1256, 375.0809
373.6078, 377.7534
374.0899, 375.9749
374.5720, 367.4310
375.0541, 355.4767
375.5362, 341.3553
376.0183, 325.5441
376.5005, 311.2358
376.9826, 300.6033
377.4647, 293.1278
377.9468, 286.8978
378.4289, 281.9311
378.9110, 277.9689
379.3932, 275.2705
379.8753, 273.3731
380.3574, 271.4361
380.8395, 268.9847
381.3216, 266.5723
381.8037, 264.8866
382.2859, 263.9302
382.7680, 263.4020
383.2501, 263.4838
383.7322, 263.7235
384.2143, 263.3200
384.6964, 262.0288
385.1786, 260.9233
385.6607, 260.8445
386.1428, 261.4335
386.6249, 261.7037
387.1070, 261.3669
387.5891, 260.8382
388.0713, 260.4482
388.5534, 260.1913
389.0355, 260.4577
389.5176, 261.5501
389.9997, 263.0640
390.4818, 264.5181
390.9640, 265.9192
391.4461, 267.6991
391.9282, 270.1314
392.4103, 273.2250
392.8924, 276.7994
393.3745, 281.3199
393.8567, 285.7695
394.3388, 289.5288
394.8209, 292.9548
395.3030, 296.9637
395.7851, 302.0595
396.2672, 307.1200
396.7494, 310.2673
397.2315, 311.3530
397.7136, 310.5458
398.1957, 307.4938
398.6778, 302.7752
399.1599, 295.8271
399.6420, 287.1767
400.1241, 279.3394
400.6063, 274.6442
401.0884, 273.1665
401.5705, 271.8011
402.0526, 270.2552
402.5347, 269.1221
403.0168, 268.3598
403.4990, 268.1790
403.9811, 269.1238
404.4632, 271.4722
404.9453, 274.5228
405.4274, 276.5714
405.9095, 277.2005
406.3917, 277.4232
406.8738, 277.2194
407.3559, 276.7157
407.8380, 276.1565
408.3201, 275.4702
408.8022, 274.2065
409.2844, 271.7692
409.7665, 268.0772
410.2486, 264.5921
410.7307, 260.6094
411.2128, 257.6919
411.6949, 257.1306
412.1771, 257.7590
412.6592, 257.6410
413.1413, 255.7213
413.6234, 252.8877
414.1055, 251.1031
414.5876, 250.7168
415.0698, 250.2964
415.5519, 249.2648
416.0340, 248.2495
416.5161, 247.7910
416.9982, 247.9163
417.4803, 248.0546
417.9625, 247.5078
418.4446, 246.4474
418.9267, 246.1795
419.4088, 247.3212
419.8909, 248.2988
420.3730, 247.9945
420.8552, 246.8169
421.3373, 245.4908
421.8194, 243.8891
422.3015, 242.6236
422.7836, 242.7272
423.2657, 244.1796
423.7479, 245.3810
424.2300, 245.6266
424.7121, 245.3327
425.1942, 245.1766
425.6763, 245.1746
426.1584, 245.2207
426.6406, 245.4321
427.1227, 245.6176
427.6048, 245.4057
428.0869, 244.7169
428.5690, 243.8340
429.0511, 242.8321
429.5333, 241.7708
430.0154, 241.5517
430.4975, 243.0867
430.9796, 244.6092
431.4617, 245.0253
431.9438, 244.6259
432.4260, 244.3182
432.9081, 244.5826
433.3902, 244.9624
433.8723, 244.3051
434.3544, 241.0661
434.8365, 239.3889
435.3187, 240.7751
435.8008, 242.8626
436.2829, 243.5919
436.7650, 242.8318
437.2471, 241.8565
437.7292, 241.8808
438.2114, 242.9380
438.6935, 243.6772
439.1756, 244.0773
439.6577, 244.1753
440.1398, 243.6489
440.6219, 242.9286
441.1040, 242.6594
441.5862, 243.1114
442.0683, 243.8393
442.5504, 244.0272
443.0325, 243.5467
443.5146, 242.9220
443.9967, 241.6516
444.4789, 240.7100
444.9610, 240.9385
445.4431, 242.0618
445.9252, 242.9661
446.4073, 242.6196
446.8894, 241.4518
447.3716, 241.2127
447.8537, 242.2729
448.3358, 243.3359
448.8179, 243.8719
449.3000, 244.0938
449.7821, 244.1766
450.2643, 244.1355
450.7464, 244.0493
451.2285, 243.8890
451.7106, 243.7088
452.1927, 243.8415
452.6748, 244.4675
453.1570, 245.1807
453.6391, 245.6647
454.1212, 245.9271
454.6033, 245.8434
455.0854, 244.8848
455.5675, 243.9369
456.0497, 243.9955
456.5318, 244.9040
457.0139, 245.5275
457.4960, 245.1073
457.9781, 244.2609
458.4602, 244.8671
458.9424, 248.0790
459.4245, 250.1092
459.9066, 249.3880
460.3887, 247.6738
460.8708, 246.7309
461.3529, 246.8188
461.8351, 247.1821
462.3172, 247.0589
462.7993, 246.4113
463.2814, 246.5178
463.7635, 248.1616
464.2456, 249.6046
464.7278, 250.6169
465.2099, 251.1053
465.6920, 250.7129
466.1741, 249.3441
466.6562, 247.8576
467.1383, 247.8400
467.6205, 249.9211
468.1026, 251.5135
468.5847, 252.2674
469.0668, 252.7512
469.5489, 253.1956
470.0310, 253.5748
470.5132, 253.7425
470.9953, 253.5696
471.4774, 253.1655
471.9595, 252.7889
472.4416, 252.4319
472.9237, 252.1306
473.4059, 251.6774
473.8880, 251.4395
474.3701, 251.9190
474.8522, 253.1969
475.3343, 254.3937
475.8164, 254.6876
476.2986, 254.4972
476.7807, 254.8420
477.2628, 255.8444
477.7449, 257.3338
478.2270, 259.4742
478.7091, 262.0324
479.1913, 264.0169
479.6734, 265.0911
480.1555, 265.8975
480.6376, 267.0673
481.1197, 268.1732
481.6018, 268.0719
482.0839, 266.3224
482.5660, 264.1371
483.0482, 263.2907
483.5303, 264.4102
484.0124, 264.5827
484.4945, 263.3518
484.9766, 261.6692
485.4587, 259.5946
485.9409, 257.4858
486.4230, 256.0745
486.9051, 255.7974
487.3872, 256.2763
487.8693, 256.4413
488.3514, 256.2433
488.8336, 255.7978
489.3157, 254.8762
489.7978, 253.9398
490.2799, 253.2186
490.7620, 252.7691
491.2441, 252.6559
491.7263, 253.1759
492.2084, 254.0633
492.6905, 253.8796
493.1726, 252.1117
493.6547, 250.5130
494.1368, 249.9633
494.6190, 249.8782
495.1011, 249.7632
495.5832, 249.5548
496.0653, 249.1487
496.5474, 248.3450
497.0295, 247.2778
497.5117, 246.4022
497.9938, 245.8367
498.4759, 245.2262
498.9580, 244.1551
499.4401, 242.7480
499.9222, 241.6884
500.4044, 240.7554
500.8865, 240.4401
501.3686, 241.5678
501.8507, 243.4209
502.3328, 244.5213
502.8149, 244.3555
503.2971, 243.4449
503.7792, 242.4270
504.2613, 241.0632
504.7434, 240.5243
505.2255, 241.6128
505.7076, 242.6432
506.1898, 242.6955
506.6719, 242.0853
507.1540, 241.5998
507.6361, 241.6640
508.1182, 241.9523
508.6003, 241.6361
509.0825, 240.3513
509.5646, 239.4396
510.0467, 239.2922
510.5288, 239.3261
511.0109, 239.2134
511.4930, 238.9928
511.9752, 238.9077
512.4573, 239.1731
512.9394, 239.6352
513.4215, 240.0356
513.9036, 240.4337
514.3857, 240.3222
514.8679, 238.7096
515.3500, 237.1026
515.8321, 237.8718
516.3142, 241.4398
516.7963, 243.8823
517.2784, 242.4629
517.7606, 239.4199
518.2427, 237.9820
518.7248, 238.3788
519.2069, 238.8358
519.6890, 238.0289
520.1711, 236.3781
520.6533, 236.0437
521.1354, 238.4822
521.6175, 240.0831
522.0996, 239.4733
522.5817, 238.1983
523.0638, 237.8255
523.5460, 238.5796
524.0281, 239.7486
524.5102, 240.7568
524.9923, 241.5872
525.4744, 241.5588
525.9565, 239.5639
526.4387, 238.1582
526.9208, 238.1069
527.4029, 238.7318
527.8850, 239.4291
528.3671, 240.0204
528.8492, 240.4448
529.3314, 240.6281
529.8135, 240.5802
530.2956, 240.3261
530.7777, 239.6749
531.2598, 239.2213
531.7419, 239.6576
532.2241, 240.4688
532.7062, 240.8008
533.1883, 240.3490
533.6704, 239.7006
534.1525, 238.9369
534.6346, 238.3034
535.1168, 238.5636
535.5989, 239.9601
536.0810, 241.5028
536.5631, 242.1740
537.0452, 241.9243
537.5273, 241.8152
538.0095, 241.6892
538.4916, 241.8622
538.9737, 242.7336
539.4558, 243.8847
539.9379, 244.5921
540.4200, 244.6551
540.9022, 244.6605
541.3843, 245.5003
541.8664, 247.3974
542.3485, 248.8759
542.8306, 249.6741
543.3127, 250.3028
543.7948, 250.5635
544.2769, 250.8600
544.7590, 251.8615
545.2411, 253.8739
545.7233, 256.2106
546.2054, 257.6330
546.6875, 258.2903
547.1696, 260.4963
547.6517, 265.1696
548.1339, 270.3485
548.6160, 274.0632
549.0981, 276.9111
549.5802, 280.7291
550.0623, 286.7787
550.5444, 292.8762
551.0266, 297.9996
551.5087, 302.0953
551.9908, 305.2455
552.4729, 307.5042
552.9550, 308.2383
553.4371, 306.6207
553.9193, 302.4377
554.4014, 296.8928
554.8835, 288.7050
555.3656, 280.7857
555.8477, 273.9743
556.3298, 268.1257
556.8120, 263.0709
557.2941, 258.7019
557.7762, 254.9171
558.2583, 251.4736
558.7404, 248.3293
559.2225, 246.0239
559.7047, 244.8008
560.1868, 244.2057
560.6689, 244.5286
561.1510, 245.1347
561.6331, 244.8442
562.1152, 243.0427
562.5974, 241.0048
563.0795, 239.9660
563.5616, 239.6797
564.0437, 239.2425
564.5258, 238.4508
565.0079, 237.5874
565.4901, 236.8432
565.9722, 236.2456
566.4543, 235.9415
566.9364, 236.0421
567.4185, 236.3062
567.9006, 236.8174
568.3828, 237.3713
568.8649, 237.7620
569.3470, 237.9073
569.8291, 237.6657
570.3112, 236.7489
570.7933, 235.0733
571.2755, 234.1966
571.7576, 234.8678
572.2397, 235.4191
572.7218, 235.1631
573.2039, 234.7229
573.6860, 234.9823
574.1682, 236.1343
574.6503, 237.1684
575.1324, 236.8643
575.6145, 235.5769
576.0966, 234.8835
576.5787, 234.9244
577.0609, 235.4112
577.5430, 236.5163
578.0251, 237.8383
578.5072, 238.4128
578.9893, 237.9256
579.4714, 237.3569
579.9536, 237.0587
580.4357, 236.8956
580.9178, 236.6568
581.3999, 236.3447
581.8820, 236.1953
582.3641, 236.4333
582.8463, 236.9502
583.3284, 237.0952
583.8105, 236.3074
584.2926, 235.9717
584.7747, 236.4975
585.2568, 237.2575
585.7390, 237.6661
586.2211, 237.7919
586.7032, 238.2464
587.1853, 239.6863
587.6674, 241.6071
588.1495, 242.5569
588.6317, 242.4068
589.1138, 242.0256
589.5959, 241.2445
590.0780, 240.7969
590.5601, 241.7679
591.0422, 244.1286
591.5244, 246.0375
592.0065, 246.6267
592.4886, 246.7625
592.9707, 247.2068
593.4528, 247.8742
593.9349, 248.2840
594.4171, 248.1888
594.8992, 247.9910
595.3813, 248.3851
595.8634, 249.4454
596.3455, 250.9236
596.8276, 253.7449
597.3098, 255.9571
597.7919, 256.2372
598.2740, 255.4806
598.7561, 255.2168
599.2382, 256.0733
599.7203, 257.5131
600.2025, 258.8695
600.6846, 260.1530
601.1667, 261.5696
601.6488, 263.1962
602.1309, 264.8366
602.6130, 266.2145
603.0952, 267.5314
603.5773, 269.2793
604.0594, 272.1035
604.5415, 274.2766
605.0236, 274.5121
605.5057, 273.7041
605.9879, 273.3017
606.4700, 273.4963
606.9521, 273.4387
607.4342, 272.3750
607.9163, 270.4586
608.3984, 268.8511
608.8806, 268.2597
609.3627, 266.9820
609.8448, 264.2216
610.3269, 261.2321
610.8090, 259.0903
611.2911, 257.7379
611.7733, 256.3174
612.2554, 254.1696
612.7375, 251.6121
613.2196, 249.4495
613.7017, 247.7347
614.1838, 245.6341
614.6660, 242.4154
615.1481, 239.2841
615.6302, 237.8273
616.1123, 237.9163
616.5944, 237.9412
617.0765, 237.5950
617.5587, 237.0670
618.0408, 236.4169
618.5229, 235.6906
619.0050, 234.9207
619.4871, 234.1235
619.9692, 233.4376
620.4514, 233.0490
620.9335, 232.9703
621.4156, 233.0860
621.8977, 233.7860
622.3798, 234.2108
622.8619, 234.0809
623.3441, 233.5942
623.8262, 232.8984
624.3083, 232.0433
624.7904, 231.2480
625.2725, 230.6936
625.7546, 230.3457
626.2367, 230.1635
626.7188, 230.1638
627.2009, 230.1174
627.6830, 229.9152
628.1652, 229.5843
628.6473, 229.1158
629.1294, 228.3579
629.6115, 227.9576
630.0936, 228.3343
630.5757, 228.8194
631.0579, 228.9912
631.5400, 228.8521
632.0221, 228.4434
632.5042, 227.7728
632.9863, 227.1427
633.4684, 227.2790
633.9506, 228.4720
634.4327, 228.9568
634.9148, 228.0845
635.3969, 227.1935
635.8790, 226.8938
636.3611, 227.0334
636.8433, 227.4369
637.3254, 228.2137
637.8075, 228.7448
638.2896, 228.4021
638.7717, 227.5499
639.2538, 226.7613
639.7360, 226.1376
640.2181, 226.0086
640.7002, 226.8056
641.1823, 228.1083
641.6644, 228.1941
642.1465, 225.4028
642.6287, 223.6746
643.1108, 223.3595
643.5929, 223.8525
644.0750, 225.4520
644.5571, 227.5136
645.0392, 228.4190
645.5214, 227.0319
646.0035, 224.8401
646.4856, 224.7205
646.9677, 226.6604
647.4498, 227.2762
647.9319, 225.2945
648.4141, 223.3054
648.8962, 223.7927
649.3783, 226.0901
649.8604, 227.6694
650.3425, 228.0665
650.8246, 228.0836
651.3068, 228.0364
651.7889, 227.7749
652.2710, 226.8865
652.7531, 225.4705
653.2352, 224.3119
653.7173, 224.0553
654.1995, 224.4931
654.6816, 224.7744
655.1637, 224.8709
655.6458, 224.8753
656.1279, 224.5612
656.6100, 224.3643
657.0922, 224.6801
657.5743, 225.3532
658.0564, 225.8606
658.5385, 226.1636
659.0206, 225.9997
659.5027, 224.5578
659.9849, 222.4552
660.4670, 221.5900
660.9491, 222.4259
661.4312, 223.7732
661.9133, 224.6657
662.3954, 225.0974
662.8776, 224.9704
663.3597, 223.3187
663.8418, 222.3830
664.3239, 223.1840
664.8060, 224.1754
665.2881, 223.7188
665.7703, 222.1281
666.2524, 221.2934
666.7345, 222.7791
667.2166, 225.1409
667.6987, 225.5483
668.1808, 224.0579
668.6630, 222.7170
669.1451, 221.9227
669.6272, 221.6125
670.1093, 221.9834
670.5914, 222.9353
671.0735, 223.2530
671.5557, 222.2147
672.0378, 221.3983
672.5199, 221.3535
673.0020, 221.7656
673.4841, 222.3618
673.9662, 223.0567
674.4484, 223.7965
674.9305, 224.5385
675.4126, 225.3049
675.8947, 226.3835
676.3768, 228.1076
676.8589, 228.5797
677.3411, 226.3954
677.8232, 223.9916
678.3053, 223.6118
678.7874, 224.6895
679.2695, 225.1401
679.7516, 223.8749
680.2338, 222.6499
680.7159, 222.4544
681.1980, 222.9841
681.6801, 224.0132
682.1622, 225.3735
682.6443, 226.4016
683.1265, 226.4973
683.6086, 225.8774
684.0907, 225.5999
684.5728, 225.7737
685.0549, 226.0484
685.5370, 226.5830
686.0192, 227.0196
686.5013, 226.9836
686.9834, 226.6691
687.4655, 226.7164
687.9476, 227.7169
688.4297, 228.5057
688.9119, 227.4729
689.3940, 225.5357
689.8761, 224.9258
690.3582, 226.0195
690.8403, 227.6943
691.3224, 229.1651
691.8046, 230.4429
692.2867, 231.6028
692.7688, 232.6886
693.2509, 233.5808
693.7330, 234.0827
694.2151, 234.5806
694.6973, 235.3112
695.1794, 236.2307
695.6615, 237.2007
696.1436, 238.1883
696.6257, 239.1159
697.1078, 239.7684
697.5900, 240.2820
698.0721, 241.1687
698.5542, 242.5047
699.0363, 244.0407
699.5184, 245.5979
700.0005, 247.2320
700.4827, 249.1238
700.9648, 251.3699
701.4469, 253.7136
701.9290, 256.0220
702.4111, 258.5480
702.8932, 261.5574
703.3754, 264.8758
703.8575, 268.2683
704.3396, 271.6413
704.8217, 274.7229
705.3038, 277.3641
705.7859, 279.4367
706.2681, 280.2244
706.7502, 279.5755
707.2323, 278.2865
707.7144, 276.7655
708.1965, 274.9024
708.6786, 272.3398
709.1607, 268.7381
709.6428, 265.4702
710.1249, 263.0149
710.6071, 260.5047
711.0892, 257.6351
711.5713, 254.3199
712.0534, 249.9219
712.5355, 244.3424
713.0176, 239.8105
713.4998, 239.7947
713.9819, 243.2300
714.4640, 244.0909
714.9461, 241.9380
715.4282, 239.5816
715.9103, 238.1254
716.3925, 237.1668
716.8746, 235.9496
717.3567, 234.3299
717.8388, 233.6801
718.3209, 234.9476
718.8030, 236.3032
719.2852, 237.3938
719.7673, 237.8143
720.2494, 236.5285
720.7315, 233.6335
721.2136, 231.2180
721.6957, 231.4565
722.1779, 233.5700
722.6600, 234.8264
723.1421, 235.1772
723.6242, 235.0453
724.1063, 234.1362
724.5884, 233.4363
725.0706, 234.2187
725.5527, 236.3648
726.0348, 238.1437
726.5169, 239.4866
726.9990, 240.4341
727.4811, 240.6844
727.9633, 240.7488
728.4454, 241.1382
728.9275, 241.9027
729.4096, 242.8247
729.8917, 243.7513
730.3738, 244.7553
730.8560, 246.0627
731.3381, 247.6834
731.8202, 249.1605
732.3023, 250.3477
732.7844, 251.5694
733.2665, 253.1774
733.7487, 255.0024
734.2308, 256.4083
734.7129, 257.1322
735.1950, 257.9247
735.6771, 258.8895
736.1592, 260.0228
736.6414, 261.2241
737.1235, 262.6070
737.6056, 264.5655
738.0877, 267.3128
738.5698, 270.1242
739.0519, 271.8996
739.5341, 272.7589
740.0162, 273.9310
740.4983, 275.6283
740.9804, 276.8512
741.4625, 276.9032
741.9446, 276.3665
742.4268, 276.3968
742.9089, 277.2065
743.3910, 277.4428
743.8731, 276.5366
744.3552, 275.5305
744.8373, 275.1227
745.3195, 274.8409
745.8016, 273.8766
746.2837, 272.1209
746.7658, 270.3442
747.2479, 269.6105
747.7300, 269.1788
748.2122, 266.5190
748.6943, 261.5793
749.1764, 257.8033
749.6585, 256.4176
750.1406, 255.8173
750.6227, 254.3333
751.1049, 252.0119
751.5870, 250.3029
752.0691, 249.4929
752.5512, 248.8551
753.0333, 248.4717
753.5154, 248.0401
753.9976, 247.2838
754.4797, 246.2470
754.9618, 245.1750
755.4439, 244.2260
755.9260, 243.1511
756.4081, 241.3306
756.8903, 239.0611
757.3724, 237.7617
757.8545, 237.6530
758.3366, 237.5322
758.8187, 236.5463
759.3008, 235.2126
759.7830, 234.9103
760.2651, 236.6384
760.7472, 237.0113
761.2293, 234.6180
761.7114, 232.5422
762.1935, 232.3205
762.6757, 233.0344
763.1578, 233.5355
763.6399, 233.5346
764.1220, 233.0230
764.6041, 231.5280
765.0862, 229.7872
765.5684, 229.0441
766.0505, 229.1230
766.5326, 229.0874
767.0147, 228.6294
767.4968, 228.0932
767.9789, 227.8576
768.4611, 227.9102
768.9432, 228.0168
769.4253, 228.2583
769.9074, 228.4103
770.3895, 228.1840
770.8716, 228.0808
771.3538, 228.7652
771.8359, 229.8769
772.3180, 230.1982
772.8001, 228.9400
773.2822, 227.6353
773.7643, 227.3787
774.2465, 227.7008
774.7286, 228.1548
775.2107, 228.5502
775.6928, 228.2953
776.1749, 226.9986
776.6570, 225.4327
777.1392, 225.2591
777.6213, 226.7604
778.1034, 227.5228
778.5855, 226.9729
779.0676, 226.7784
779.5497, 228.1829
780.0319, 230.0320
780.5140, 230.8200
780.9961, 230.4682
781.4782, 229.8732
781.9603, 228.8822
782.4424, 228.0985
782.9246, 227.9334
783.4067, 228.1662
783.8888, 228.5871
784.3709, 229.0742
784.8530, 229.3410
785.3351, 229.0574
785.8173, 228.5549
786.2994, 228.7748
786.7815, 229.7179
787.2636, 230.3865
787.7457, 230.5612
788.2278, 230.5646
788.7100, 230.6157
789.1921, 230.6935
789.6742, 230.7090
790.1563, 230.6098
790.6384, 230.5517
791.1205, 230.4879
791.6026, 230.5264
792.0847, 230.8607
792.5668, 231.2949
793.0490, 231.4191
793.5311, 231.1246
794.0132, 230.9822
794.4953, 231.7152
794.9774, 232.7860
795.4595, 233.2588
795.9417, 233.1657
796.4238, 232.8069
796.9059, 232.2744
797.3880, 231.5262
797.8701, 230.3752
798.3522, 228.9081
798.8344, 228.7622
799.3165, 231.1268
799.7986, 232.5130
800.2807, 231.5407
800.7628, 230.1644
801.2449, 229.4855
801.7271, 229.3189
802.2092, 229.0620
802.6913, 228.5352
803.1734, 228.0088
803.6555, 227.4191
804.1376, 227.0520
804.6198, 227.4287
805.1019, 228.3070
805.5840, 228.9942
806.0661, 229.1854
806.5482, 229.0181
807.0303, 228.5122
807.5125, 227.7495
807.9946, 227.5967
808.4767, 228.1799
808.9588, 228.6598
809.4409, 228.6997
809.9230, 228.6246
810.4052, 228.8839
810.8873, 229.4710
811.3694, 229.5770
811.8515, 228.7099
812.3336, 228.0361
812.8157, 228.0322
813.2979, 228.0996
813.7800, 227.4393
814.2621, 226.4494
814.7442, 226.4430
815.2263, 228.1787
815.7084, 229.9285
816.1906, 229.8510
816.6727, 228.6178
817.1548, 227.4408
817.6369, 226.4456
818.1190, 225.7309
818.6011, 225.3509
819.0833, 225.1558
819.5654, 224.9122
820.0475, 224.6080
820.5296, 224.5880
821.0117, 224.9192
821.4938, 225.3973
821.9760, 226.0375
822.4581, 226.7474
822.9402, 227.6487
823.4223, 228.6002
823.9044, 228.9313
824.3865, 228.0841
824.8687, 227.2520
825.3508, 226.7634
825.8329, 226.6004
826.3150, 226.9952
826.7971, 227.6877
827.2792, 227.9650
827.7614, 227.5071
828.2435, 226.9311
828.7256, 227.0678
829.2077, 227.7203
829.6898, 228.1783
830.1719, 228.4196
830.6541, 228.4473
831.1362, 228.2554
831.6183, 227.8356
832.1004, 227.0482
832.5825, 225.9109
833.0646, 225.6202
833.5468, 226.6176
834.0289, 227.7981
834.5110, 229.7968
834.9931, 231.2081
835.4752, 230.4812
835.9573, 228.5410
836.4395, 227.8051
836.9216, 229.1651
837.4037, 230.8252
837.8858, 232.0112
838.3679, 232.9016
838.8500, 233.9002
839.3322, 234.7410
839.8143, 234.4177
840.2964, 232.7058
840.7785, 231.1590
841.2606, 231.5485
841.7427, 233.4764
842.2249, 235.5447
842.7070, 237.7604
843.1891, 239.7272
843.6712, 241.4189
844.1533, 242.4960
844.6354, 242.3528
845.1176, 241.3961
845.5997, 241.6393
846.0818, 243.9093
846.5639, 246.0909
847.0460, 247.8955
847.5281, 249.9308
848.0103, 252.9524
848.4924, 256.1942
848.9745, 258.3735
849.4566, 259.2419
849.9387, 260.2006
850.4208, 261.7898
850.9030, 263.9684
851.3851, 266.9338
851.8672, 270.3960
852.3493, 273.5948
852.8314, 276.5244
853.3135, 280.3289
853.7957, 285.9743
854.2778, 292.5976
854.7599, 298.1253
855.2420, 302.5945
855.7241, 307.3152
856.2062, 312.3804
856.6884, 317.8813
857.1705, 324.1004
857.6526, 330.4439
858.1347, 335.9750
858.6168, 340.8504
859.0989, 344.0902
859.5811, 345.0086
860.0632, 345.2250
860.5453, 346.0599
861.0274, 345.6190
861.5095, 341.5865
861.9916, 334.5464
862.4738, 327.6031
862.9559, 321.9674
863.4380, 316.3104
863.9201, 309.9492
864.4022, 302.9945
864.8843, 295.0066
865.3665, 286.5572
865.8486, 279.4649
866.3307, 274.4820
866.8128, 270.6239
867.2949, 266.9413
867.7770, 263.3888
868.2592, 259.5815
868.7413, 255.5156
869.2234, 252.0749
869.7055, 249.5637
870.1876, 247.4356
870.6697, 245.1934
871.1519, 242.9128
871.6340, 241.0342
872.1161, 239.4838
872.5981, 238.4757
873.0803, 239.0174
873.5624, 239.0266
874.0445, 237.2102
874.5266, 234.5262
875.0087, 232.2652
875.4908, 230.6054
875.9730, 229.2585
876.4551, 228.3665
876.9372, 227.5085
877.4193, 226.1735
877.9014, 224.8558
878.3835, 224.4000
878.8657, 224.7100
879.3478, 224.8759
879.8299, 224.3513
880.3120, 223.4682
880.7941, 222.5088
881.2762, 221.5827
881.7584, 221.2408
882.2405, 221.4476
882.7226, 221.0998
883.2047, 219.6259
883.6868, 218.0767
884.1689, 218.0049
884.6511, 219.3428
885.1332, 219.8650
885.6153, 219.2678
886.0974, 218.6742
886.5795, 218.2265
887.0616, 217.9401
887.5438, 218.0565
888.0259, 218.3266
888.5080, 217.9554
888.9901, 216.5500
889.4722, 215.4005
889.9543, 214.4737
890.4365, 214.0723
890.9186, 215.0907
891.4007, 216.3465
891.8828, 215.8761
892.3649, 213.6631
892.8470, 212.1242
893.3292, 213.1911
893.8113, 214.7917
894.2934, 214.9265
894.7755, 214.2166
895.2576, 213.7494
895.7397, 213.5786
896.2219, 213.0304
896.7040, 211.7357
897.1861, 210.4512
897.6682, 210.6311
898.1503, 209.9002
898.6324, 209.4991
899.1146, 210.1857
899.5967, 209.4030
900.0788, 210.5956
900.5609, 211.8548
901.0430, 211.1303
901.5251, 208.8701
902.0073, 207.9088
902.4894, 208.9331
902.9715, 209.8428
903.4536, 210.5014
903.9357, 211.0715
904.4178, 212.0908
904.9000, 212.8338
905.3821, 211.8214
905.8642, 208.8036
906.3463, 207.1317
906.8284, 208.5409
907.3105, 210.3478
907.7927, 211.8525
908.2748, 212.7549
908.7569, 212.4156
909.2390, 211.2209
909.7211, 210.3990
910.2032, 210.5303
910.6854, 210.9530
911.1675, 211.3543
911.6496, 211.4875
912.1317, 210.4395
912.6138, 208.7339
913.0959, 208.4942
913.5781, 210.2407
914.0602, 211.9402
914.5423, 211.6196
915.0244, 209.9472
915.5065, 208.8486
915.9886, 208.3255
916.4708, 208.1477
916.9529, 208.2987
917.4350, 208.7879
917.9171, 209.7738
918.3992, 210.8258
918.8813, 211.1329
919.3635, 210.5613
919.8456, 210.3226
920.3277, 210.8842
920.8098, 211.0121
921.2919, 209.6965
921.7740, 208.5400
922.2562, 208.8997
922.7383, 210.3183
923.2204, 211.4495
923.7025, 212.2695
924.1846, 212.4529
924.6667, 210.8490
925.1489, 209.7110
925.6310, 210.9868
926.1131, 213.2579
926.5952, 214.5908
927.0773, 214.7029
927.5594, 214.4336
928.0416, 214.1144
928.5237, 213.8056
929.0058, 213.2454
929.4879, 212.8957
929.9700, 213.8168
930.4521, 215.6961
930.9343, 217.0303
931.4164, 217.2050
931.8985, 217.2426
932.3806, 218.4749
932.8627, 220.4637
933.3448, 221.7951
933.8270, 222.5076
934.3091, 222.9901
934.7912, 223.3118
935.2733, 223.5220
935.7554, 223.5548
936.2375, 223.7589
936.7197, 225.1580
937.2018, 228.1304
937.6839, 230.1015
938.1660, 230.7633
938.6481, 231.1748
939.1302, 231.3851
939.6124, 231.8672
940.0945, 233.3098
940.5766, 235.5637
941.0587, 237.2518
941.5408, 238.8325
942.0229, 239.1765
942.5051, 237.1104
942.9872, 235.0239
943.4693, 233.9358
943.9514, 233.6057
944.4335, 233.9937
944.9156, 235.0120
945.3978, 235.1790
945.8799, 233.3914
946.3620, 231.3642
946.8441, 230.0681
947.3262, 228.9060
947.8083, 227.1952
948.2905, 225.0798
948.7726, 223.0047
949.2547, 221.1282
949.7368, 219.6179
950.2189, 218.9515
950.7010, 218.4702
951.1832, 217.0035
951.6653, 215.0488
952.1474, 214.0078
952.6295, 213.9834
953.1116, 213.7855
953.5938, 212.6283
954.0759, 211.0160
954.5580, 209.5988
955.0400, 208.4430
955.5222, 208.1988
956.0043, 208.8435
956.4864, 208.6026
956.9685, 206.7963
957.4506, 204.9069
957.9327, 204.4135
958.4149, 204.9945
958.8970, 205.3299
959.3791, 205.3866
959.8612, 205.3650
960.3433, 205.2612
960.8254, 205.1316
961.3076, 205.0233
961.7897, 204.8704
962.2718, 204.5003
962.7539, 203.8998
963.2360, 203.7884
963.7181, 205.0380
964.2003, 205.4197
964.6824, 203.5635
965.1645, 202.0488
965.6466, 202.6910
966.1287, 204.4013
966.6108, 205.3229
967.0930, 205.2441
967.5751, 204.9102
968.0572, 204.3592
968.5393, 203.7287
969.0214, 202.8040
969.5035, 202.0452
969.9857, 202.3175
970.4678, 203.0575
970.9499, 202.5609
971.4320, 200.0801
971.9141, 198.0813
972.3962, 198.2811
972.8784, 199.3153
973.3605, 200.1908
973.8426, 200.9836
974.3247, 202.2297
974.8068, 203.6854
975.2889, 203.9536
975.7711, 202.0180
976.2532, 199.9969
976.7353, 200.7792
977.2174, 202.8349
977.6995, 203.4216
978.1816, 202.6967
978.6638, 201.5024
979.1459, 200.1724
979.6280, 199.3669
980.1101, 199.7492
980.5922, 198.6866
981.0743, 199.9113
981.5565, 198.1664
982.0386, 197.5641
982.5207, 198.2387
983.0028, 199.0141
983.4849, 199.4553
983.9670, 199.6181
984.4492, 199.4821
984.9313, 199.1969
985.4134, 199.6859
985.8955, 201.1900
986.3776, 201.4686
986.8597, 199.9490
987.3419, 198.5063
987.8240, 198.0226
988.3061, 198.1353
988.7882, 198.4396
989.2703, 198.9303
989.7524, 198.8583
990.2346, 197.6737
990.7167, 197.1895
991.1988, 198.2618
991.6809, 199.1657
992.1630, 198.6315
992.6451, 197.4701
993.1273, 197.2472
993.6094, 198.1771
994.0915, 198.4782
994.5736, 197.3998
995.0557, 196.7071
995.5378, 196.8658
996.0200, 197.3812
996.5021, 198.3418
996.9842, 199.2906
997.4663, 199.1387
997.9484, 197.4981
998.4305, 196.6159
998.9127, 197.9029
999.3948, 198.9944
999.8769, 198.3554
1000.359, 197.4880
1000.841, 198.1537
1001.323, 199.7720
1001.805, 200.4891
1002.287, 199.6862
1002.770, 198.6470
1003.252, 197.6893
1003.734, 197.0964
1004.216, 197.1897
1004.698, 197.6992
1005.180, 198.6708
1005.662, 199.7124
1006.144, 199.4928
1006.627, 197.2034
1007.109, 195.3340
1007.591, 196.7350
1008.073, 199.0077
1008.555, 199.2717
1009.037, 198.2547
1009.519, 197.5057
1010.001, 197.2891
1010.483, 197.1018
1010.966, 196.6526
1011.448, 196.1713
1011.930, 195.9513
1012.412, 195.8839
1012.894, 195.7766
1013.376, 195.6273
1013.858, 195.3769
1014.340, 195.0600
1014.823, 195.0417
1015.305, 195.6180
1015.787, 196.4039
1016.269, 196.8055
1016.751, 196.8733
1017.233, 196.6097
1017.715, 196.1159
1018.197, 196.3304
1018.679, 197.4882
1019.162, 198.1860
1019.644, 197.1557
1020.126, 195.3455
1020.608, 195.0395
1021.090, 196.1015
1021.572, 196.6280
1022.054, 196.5314
1022.536, 196.2533
1023.018, 195.8871
1023.501, 195.8103
1023.983, 196.4163
1024.465, 197.4655
1024.947, 198.2671
1025.429, 198.8324
1025.911, 198.8664
1026.393, 198.2157
1026.875, 197.8624
1027.358, 198.2845
1027.840, 198.6396
1028.322, 198.0618
1028.804, 196.7836
1029.286, 195.6762
1029.768, 194.5317
1030.250, 194.5969
1030.732, 196.6121
1031.214, 197.8030
1031.697, 196.8413
1032.179, 195.2742
1032.661, 194.5013
1033.143, 194.4914
1033.625, 195.1187
1034.107, 196.6253
1034.589, 198.2287
1035.071, 200.4013
1035.553, 201.7704
1036.036, 201.3570
1036.518, 200.4958
1037.000, 200.6251
1037.482, 201.5142
1037.964, 201.7870
1038.446, 200.7603
1038.928, 200.4486
1039.410, 200.6893
1039.893, 201.8748
1040.375, 205.7556
1040.857, 209.3589
1041.339, 209.1641
1041.821, 205.9536
1042.303, 203.9722
1042.785, 203.7126
1043.267, 203.8517
1043.750, 204.6493
1044.232, 205.4470
1044.714, 206.2202
1045.196, 206.7258
1045.678, 206.5489
1046.160, 205.8616
1046.642, 205.5226
1047.124, 206.0742
1047.606, 205.9227
1048.089, 204.1335
1048.571, 202.4961
1049.053, 201.5678
1049.535, 201.2484
1050.017, 201.9145
1050.499, 203.1125
1050.981, 203.1264
1051.463, 201.2545
1051.945, 199.3733
1052.428, 197.5402
1052.910, 196.1873
1053.392, 195.7059
1053.874, 195.6441
1054.356, 195.6638
1054.838, 195.6958
1055.320, 195.6072
1055.802, 195.2227
1056.285, 195.2382
1056.767, 196.5120
1057.249, 197.4315
1057.731, 196.9734
1058.213, 195.9633
1058.695, 195.0735
1059.177, 194.4031
1059.659, 194.0072
1060.141, 193.9782
1060.624, 193.8360
1061.106, 192.8521
1061.588, 192.3917
1062.070, 193.9214
1062.552, 195.6925
1063.034, 195.9453
1063.516, 194.9193
1063.998, 193.4492
1064.480, 191.5447
1064.963, 190.7177
1065.445, 192.5915
1065.927, 194.4384
1066.409, 194.8457
1066.891, 194.5344
1067.373, 194.1184
1067.855, 193.6294
1068.337, 192.7862
1068.820, 191.4787
1069.302, 190.7266
1069.784, 191.3057
1070.266, 192.1236
1070.748, 192.8673
1071.230, 193.3636
1071.712, 193.4747
1072.194, 193.2245
1072.677, 192.4818
1073.159, 191.2497
1073.641, 190.6197
1074.123, 191.5844
1074.605, 192.6076
1075.087, 192.8830
1075.569, 192.9011
1076.051, 193.0310
1076.533, 193.2588
1077.016, 193.6720
1077.498, 194.2049
1077.980, 194.0159
1078.462, 192.0357
1078.944, 190.2949
1079.426, 189.6500
1079.908, 189.7521
1080.390, 190.7082
1080.872, 192.0128
1081.354, 193.0601
1081.837, 193.7106
1082.319, 193.9005
1082.801, 193.3614
1083.283, 192.8416
1083.765, 192.7974
1084.247, 192.7878
1084.729, 192.2837
1085.211, 191.7386
1085.694, 191.9743
1086.176, 192.8555
1086.658, 193.2754
1087.140, 192.7098
1087.622, 192.1028
1088.104, 191.6307
1088.586, 191.4849
1089.068, 192.1809
1089.551, 192.9878
1090.033, 192.9495
1090.515, 192.2333
1090.997, 191.7299
1091.479, 191.7327
1091.961, 191.6892
1092.443, 191.2076
1092.925, 190.8509
1093.407, 191.3245
1093.890, 191.7259
1094.372, 190.7133
1094.854, 188.9919
1095.336, 188.5246
1095.818, 189.8525
1096.300, 191.0334
1096.782, 191.6004
1097.264, 191.7156
1097.746, 191.0896
1098.229, 190.3781
1098.711, 190.0050
1099.193, 189.9610
1099.675, 190.2217
1100.157, 190.7809
1100.639, 191.2646
1101.121, 191.7646
1101.603, 191.9091
1102.086, 191.4788
1102.568, 190.7891
1103.050, 189.4760
1103.532, 188.3506
1104.014, 188.8925
1104.496, 190.9607
1104.978, 192.0967
1105.460, 191.4477
1105.943, 190.5914
1106.425, 189.0369
1106.907, 188.2096
1107.389, 189.4723
1107.871, 191.2315
1108.353, 191.7345
1108.835, 191.1904
1109.317, 190.9035
1109.799, 191.2222
1110.281, 191.1715
1110.764, 190.3503
1111.246, 189.5938
1111.728, 189.0982
1112.210, 188.7892
1112.692, 188.6998
1113.174, 188.7350
1113.656, 188.5732
1114.138, 188.0271
1114.621, 188.1514
1115.103, 189.6807
1115.585, 190.6741
1116.067, 190.6577
1116.549, 190.2561
1117.031, 189.7682
1117.513, 189.1489
1117.995, 188.1695
1118.478, 188.0867
1118.960, 188.0100
1119.442, 187.6645
1119.924, 188.3926
1120.406, 188.1766
1120.888, 188.0803
1121.370, 188.7780
1121.852, 189.4308
1122.334, 188.8818
1122.817, 187.4902
1123.299, 187.3949
1123.781, 189.2064
1124.263, 189.5866
1124.745, 187.8779
1125.227, 186.8830
1125.709, 187.5926
1126.191, 188.8515
1126.673, 189.8112
1127.156, 190.4459
1127.638, 190.6271
1128.120, 190.9313
1128.602, 190.8989
1129.084, 190.5843
1129.566, 190.4032
1130.048, 189.5312
1130.530, 188.8689
1131.013, 189.0095
1131.495, 189.2237
1131.977, 188.2808
1132.459, 186.5601
1132.941, 185.9309
1133.423, 186.3414
1133.905, 187.3684
1134.387, 188.9007
1134.870, 189.7058
1135.352, 189.2980
1135.834, 188.5177
1136.316, 188.1463
1136.798, 188.0038
1137.280, 187.6455
1137.762, 187.1970
1138.244, 187.2270
1138.726, 187.6227
1139.208, 187.6242
1139.691, 187.1278
1140.173, 186.9473
1140.655, 187.6412
1141.137, 188.4068
1141.619, 188.0242
1142.101, 187.1598
1142.583, 186.9612
1143.065, 187.2437
1143.548, 187.6656
1144.030, 188.0956
1144.512, 188.3593
1144.994, 188.3901
1145.476, 188.2347
1145.958, 187.8033
1146.440, 187.3695
1146.922, 186.9214
1147.405, 186.8548
1147.887, 188.1703
1148.369, 190.0905
1148.851, 190.9634
1149.333, 190.5696
1149.815, 189.9190
1150.297, 189.3360
1150.779, 188.9919
1151.261, 189.2059
1151.744, 189.4541
1152.226, 189.3326
1152.708, 189.0393
1153.190, 188.7816
1153.672, 188.5943
1154.154, 188.4200
1154.636, 188.1867
1155.118, 188.3825
1155.600, 189.8116
1156.083, 190.7876
1156.565, 190.5234
1157.047, 189.8195
1157.529, 189.2134
1158.011, 188.5620
1158.493, 187.3264
1158.975, 185.5122
1159.457, 184.8145
1159.940, 185.3015
1160.422, 187.0211
1160.904, 192.1924
1161.386, 195.3270
1161.868, 193.4111
1162.350, 190.0435
1162.832, 188.1919
1163.314, 187.5817
1163.796, 187.4722
1164.279, 188.0456
1164.761, 188.0344
1165.243, 187.1894
1165.725, 186.6500
1166.207, 186.6916
1166.689, 186.8338
1167.171, 186.7414
1167.653, 186.8130
1168.135, 187.7458
1168.618, 189.2758
1169.100, 189.9374
1169.582, 189.7336
1170.064, 188.6378
1170.546, 186.6911
1171.028, 186.3555
1171.510, 188.4501
1171.992, 190.2607
1172.474, 189.5191
1172.957, 187.6527
1173.439, 187.1958
1173.921, 187.6027
1174.403, 187.1814
1174.885, 186.1838
1175.367, 185.3946
1175.849, 185.0365
1176.331, 185.5279
1176.814, 187.0086
1177.296, 188.3744
1177.778, 188.6314
1178.260, 188.2930
1178.742, 187.5964
1179.224, 186.9383
1179.706, 187.1957
1180.188, 187.7927
1180.671, 187.2116
1181.153, 185.5126
1181.635, 184.5911
1182.117, 185.4673
1182.599, 186.5037
1183.081, 186.9146
1183.563, 187.1024
1184.045, 187.3349
1184.527, 187.4539
1185.010, 187.2117
1185.492, 186.7464
1185.974, 186.4085
1186.456, 186.2570
1186.938, 186.0076
1187.420, 185.1869
1187.902, 184.9175
1188.384, 185.9567
1188.866, 186.8667
1189.349, 186.9203
1189.831, 186.6549
1190.313, 186.6190
1190.795, 186.7246
1191.277, 186.5808
1191.759, 186.0227
1192.241, 186.0374
1192.723, 186.9569
1193.206, 187.1095
1193.688, 185.8255
1194.170, 185.1560
1194.652, 186.5204
1195.134, 188.2643
1195.616, 187.9220
1196.098, 186.0985
1196.580, 185.3156
1197.063, 185.5072
1197.545, 186.2065
1198.027, 187.2505
1198.509, 187.3808
1198.991, 186.3330
1199.473, 185.5759
1199.955, 186.1658
1200.437, 187.1574
1200.919, 187.5268
1201.401, 187.3167
1201.884, 186.2037
1202.366, 184.7700
1202.848, 184.0150
1203.330, 184.0277
1203.812, 184.8619
1204.294, 186.3955
1204.776, 187.4220
1205.258, 187.0007
1205.741, 186.3482
1206.223, 186.0121
1206.705, 185.9862
1207.187, 186.6034
1207.669, 187.2768
1208.151, 187.2632
1208.633, 186.6758
1209.115, 186.0808
1209.598, 185.5708
1210.080, 185.0594
1210.562, 184.3218
1211.044, 183.8905
1211.526, 184.4156
1212.008, 184.5629
1212.490, 183.1742
1212.972, 181.6939
1213.454, 182.0329
1213.937, 181.7882
1214.419, 182.1368
1214.901, 183.3140
1215.383, 183.4714
1215.865, 185.0937
1216.347, 185.5224
1216.829, 183.9919
1217.311, 182.7698
1217.793, 183.2276
1218.276, 184.2532
1218.758, 184.3792
1219.240, 183.9053
1219.722, 183.5845
1220.204, 183.4135
1220.686, 183.4427
1221.168, 183.6113
1221.650, 183.6705
1222.133, 183.5835
1222.615, 183.5396
1223.097, 183.6490
1223.579, 183.7929
1224.061, 184.0956
1224.543, 184.1336
1225.025, 182.8926
1225.507, 181.6338
1225.990, 182.3035
1226.472, 183.9623
1226.954, 184.5024
1227.436, 183.6587
1227.918, 182.7953
1228.400, 182.1364
1228.882, 181.8477
1229.364, 182.2302
1229.846, 182.6486
1230.328, 183.3306
1230.811, 183.4537
1231.293, 181.8689
1231.775, 179.6841
1232.257, 179.0795
1232.739, 180.0412
1233.221, 180.4306
1233.703, 180.0554
1234.185, 179.9310
1234.668, 180.1103
1235.150, 180.7358
1235.632, 181.8986
1236.114, 183.2410
1236.596, 184.5803
1237.078, 185.4345
1237.560, 184.6485
1238.042, 182.8233
1238.525, 181.7710
1239.007, 181.4237
1239.489, 181.8233
1239.971, 182.6917
1240.453, 183.0753
1240.935, 182.7532
1241.417, 182.4769
1241.899, 182.8110
1242.381, 182.9788
1242.864, 182.0166
1243.346, 181.0096
1243.828, 180.9202
1244.310, 181.2398
1244.792, 181.4033
1245.274, 181.4582
1245.756, 181.6083
1246.238, 181.8855
1246.720, 182.3770
1247.203, 183.6312
1247.685, 184.2134
1248.167, 183.7078
1248.649, 182.9753
1249.131, 181.9882
1249.613, 181.3530
1250.095, 181.6984
1250.577, 182.4602
1251.059, 182.5361
1251.542, 181.9718
1252.024, 181.2262
1252.506, 180.3000
1252.988, 179.5586
1253.470, 179.0576
1253.952, 179.3014
1254.434, 180.3766
1254.916, 181.1399
1255.399, 180.7275
1255.881, 180.1832
1256.363, 180.9634
1256.845, 182.2833
1257.327, 183.3463
1257.809, 183.9352
1258.291, 183.3465
1258.773, 182.1725
1259.255, 181.8307
1259.738, 182.4602
1260.220, 182.8419
1260.702, 182.4941
1261.184, 182.0093
1261.666, 181.4885
1262.148, 180.9864
1262.630, 180.4900
1263.112, 180.0558
1263.594, 179.6189
1264.077, 179.3576
1264.559, 179.6562
1265.041, 180.4013
1265.523, 180.5865
1266.005, 180.0998
1266.487, 179.5901
1266.969, 179.0003
1267.451, 179.3227
1267.934, 180.8253
1268.416, 182.0276
1268.898, 182.0959
1269.380, 181.6332
1269.862, 181.2344
1270.344, 180.9741
1270.826, 181.0239
1271.308, 181.2900
1271.791, 181.8406
1272.273, 182.3572
1272.755, 182.0684
1273.237, 181.0834
1273.719, 180.2102
1274.201, 179.7015
1274.683, 179.6309
1275.165, 180.4014
1275.647, 181.0808
1276.130, 181.4109
1276.612, 181.4483
1277.094, 180.9895
1277.576, 180.4582
1278.058, 180.3259
1278.540, 180.4600
1279.022, 180.5001
1279.504, 180.4431
1279.986, 180.3747
1280.469, 180.2665
1280.951, 180.3491
1281.433, 180.6655
1281.915, 180.9671
1282.397, 181.1676
1282.879, 181.1206
1283.361, 180.6773
1283.843, 180.1965
1284.326, 180.1085
1284.808, 180.4007
##END=



