##NAMES=Sinkankasite
##RRUFFID=R050466
##IDEAL CHEMISTRY=Mn^2+^Al(PO_3_OH)_2_(OH)&#183;6H_2_O
##LOCALITY=Barker mine, Keystone, South Dakota, USA
##OWNER=RRUFF
##SOURCE=University of Arizona Mineral Museum
##DESCRIPTION=Cluster of acicular radiating colorless crystals
##STATUS=The identification of this mineral is confirmed by single-crystal X-ray diffraction and chemical analysis.
##URL=rruff.info/R050466
##MEASURED CHEMISTRY=(Mn^2+^_0.55_Fe^2+^_0.42_Mg_0.03_)_Σ=1_Al_1.00_(P_1.00_O_3_OH)_2_(F_0.65_(OH)_0.35_)_Σ=1_·6H_2_O
148.9893, 45.57290
149.4714, 46.08208
149.9535, 46.42442
150.4356, 46.58607
150.9177, 46.76464
151.3998, 46.90675
151.8820, 47.11210
152.3641, 47.49739
152.8462, 48.02169
153.3283, 48.50840
153.8104, 48.73528
154.2925, 48.56938
154.7747, 48.50613
155.2568, 48.53904
155.7389, 48.65269
156.2210, 48.84584
156.7031, 49.11420
157.1852, 49.44809
157.6673, 49.83966
158.1495, 50.38371
158.6316, 50.81190
159.1137, 51.01691
159.5958, 51.15792
160.0779, 51.43122
160.5600, 51.91133
161.0422, 52.44842
161.5243, 52.70628
162.0064, 52.56636
162.4885, 52.47141
162.9706, 52.54728
163.4527, 52.73246
163.9349, 52.90288
164.4170, 53.00238
164.8991, 53.07957
165.3812, 53.25135
165.8633, 53.57946
166.3454, 53.82394
166.8276, 53.80725
167.3097, 53.55979
167.7918, 53.31489
168.2739, 53.20050
168.7560, 53.10065
169.2381, 52.88175
169.7203, 52.51892
170.2024, 52.07893
170.6845, 51.60033
171.1666, 51.07087
171.6487, 50.58722
172.1308, 50.13316
172.6130, 49.76641
173.0951, 49.57550
173.5772, 49.60427
174.0593, 49.72600
174.5414, 49.72271
175.0235, 49.56413
175.5057, 49.32814
175.9878, 48.98166
176.4699, 48.60432
176.9520, 48.24781
177.4341, 47.93293
177.9162, 47.68304
178.3984, 47.57839
178.8805, 47.84105
179.3626, 47.96569
179.8447, 47.84187
180.3268, 47.56516
180.8089, 47.22768
181.2911, 46.87431
181.7732, 46.53020
182.2553, 46.34224
182.7374, 46.53356
183.2195, 46.63534
183.7016, 46.51085
184.1838, 46.23664
184.6659, 45.93022
185.1480, 45.64136
185.6301, 45.39212
186.1122, 45.41797
186.5943, 46.02910
187.0765, 46.53441
187.5586, 46.55860
188.0407, 46.22120
188.5228, 45.94007
189.0049, 46.00020
189.4870, 46.36329
189.9692, 46.66779
190.4513, 46.92077
190.9334, 47.11413
191.4155, 47.21222
191.8976, 47.22120
192.3797, 47.23742
192.8619, 47.32105
193.3440, 47.46281
193.8261, 47.62855
194.3082, 47.89486
194.7903, 48.13044
195.2724, 48.13866
195.7546, 47.87745
196.2367, 47.66653
196.7188, 47.80207
197.2009, 48.10151
197.6830, 48.33313
198.1651, 48.41429
198.6473, 48.39937
199.1294, 48.36270
199.6115, 48.27561
200.0936, 48.24302
200.5757, 48.36056
201.0578, 48.54400
201.5400, 48.68547
202.0221, 48.71897
202.5042, 48.68790
202.9863, 48.71113
203.4684, 48.76150
203.9505, 48.92530
204.4327, 49.31231
204.9148, 49.79157
205.3969, 50.17446
205.8790, 50.33707
206.3611, 50.33478
206.8432, 50.45574
207.3254, 50.79684
207.8075, 51.16012
208.2896, 51.55735
208.7717, 51.93731
209.2538, 52.22952
209.7359, 52.38204
210.2181, 52.40994
210.7002, 52.44532
211.1823, 52.37693
211.6644, 52.43715
212.1465, 52.83492
212.6286, 53.38325
213.1108, 53.75943
213.5929, 53.73775
214.0750, 53.34777
214.5571, 53.01965
215.0392, 52.70593
215.5213, 52.49239
216.0035, 52.52525
216.4856, 52.68580
216.9677, 52.72414
217.4498, 52.46708
217.9319, 51.93634
218.4140, 51.40155
218.8962, 50.78558
219.3783, 50.24671
219.8604, 49.84734
220.3425, 49.57547
220.8246, 49.41064
221.3067, 49.38552
221.7889, 49.44492
222.2710, 49.24037
222.7531, 48.51534
223.2352, 47.80422
223.7173, 47.43298
224.1994, 47.33845
224.6816, 47.18219
225.1637, 46.71516
225.6458, 46.04149
226.1279, 45.58435
226.6100, 45.52630
227.0921, 45.49968
227.5743, 45.21552
228.0564, 44.70233
228.5385, 44.24851
229.0206, 44.04794
229.5027, 44.00092
229.9848, 43.87850
230.4670, 43.63622
230.9491, 43.35748
231.4312, 43.09251
231.9133, 42.84038
232.3954, 42.64037
232.8775, 42.53679
233.3597, 42.48872
233.8418, 42.45496
234.3239, 42.45325
234.8060, 42.41500
235.2881, 42.22794
235.7702, 41.86937
236.2524, 41.57590
236.7345, 41.47638
237.2166, 41.47084
237.6987, 41.48293
238.1808, 41.49773
238.6629, 41.52752
239.1451, 41.59660
239.6272, 41.71561
240.1093, 41.81789
240.5914, 41.96720
241.0735, 42.04230
241.5556, 41.88800
242.0378, 41.46082
242.5199, 40.99951
243.0020, 40.84948
243.4841, 41.11794
243.9662, 41.30405
244.4483, 41.22172
244.9305, 41.08969
245.4126, 41.06520
245.8947, 41.17786
246.3768, 41.31304
246.8589, 41.28712
247.3410, 41.00929
247.8232, 40.85728
248.3053, 40.97013
248.7874, 41.13483
249.2695, 41.22201
249.7516, 41.21058
250.2337, 41.16809
250.7159, 41.17701
251.1980, 41.23629
251.6801, 41.35699
252.1622, 41.64856
252.6443, 41.91176
253.1264, 41.95582
253.6086, 41.80083
254.0907, 41.68241
254.5728, 41.94630
255.0549, 42.85084
255.5370, 43.33838
256.0191, 43.10689
256.5013, 42.78178
256.9834, 42.68067
257.4655, 42.83496
257.9476, 43.10320
258.4297, 43.33669
258.9118, 43.52755
259.3940, 43.71540
259.8761, 43.93693
260.3582, 44.12487
260.8403, 44.25983
261.3224, 44.33168
261.8045, 44.32168
262.2867, 44.19854
262.7688, 43.93448
263.2509, 43.75069
263.7330, 43.74529
264.2151, 43.71373
264.6972, 43.52808
265.1794, 43.21920
265.6615, 42.91470
266.1436, 42.72335
266.6257, 42.65076
267.1078, 42.55732
267.5899, 42.45440
268.0721, 42.32505
268.5542, 42.09729
269.0363, 41.82592
269.5184, 41.67728
270.0005, 41.79841
270.4826, 42.15694
270.9648, 42.26245
271.4469, 41.93068
271.9290, 41.59889
272.4111, 41.46449
272.8932, 41.45984
273.3753, 41.39222
273.8575, 41.13201
274.3396, 40.73705
274.8217, 40.51490
275.3038, 40.58140
275.7859, 40.64659
276.2680, 40.65813
276.7502, 40.60402
277.2323, 40.45185
277.7144, 40.17687
278.1965, 39.81275
278.6786, 39.44966
279.1607, 39.07918
279.6429, 38.72585
280.1250, 38.39161
280.6071, 38.07820
281.0892, 37.80363
281.5713, 37.58323
282.0534, 37.37236
282.5356, 37.05489
283.0177, 36.57323
283.4998, 36.19310
283.9819, 36.02532
284.4640, 35.98852
284.9461, 35.99166
285.4283, 36.02770
285.9104, 36.01335
286.3925, 35.78615
286.8746, 35.32813
287.3567, 34.91453
287.8388, 34.61229
288.3210, 34.37835
288.8031, 34.15734
289.2852, 33.93622
289.7673, 33.74530
290.2494, 33.65219
290.7315, 33.64821
291.2137, 33.55720
291.6958, 33.24816
292.1779, 32.89453
292.6600, 32.68985
293.1421, 32.65459
293.6242, 32.68870
294.1064, 32.75436
294.5885, 32.82999
295.0706, 32.81118
295.5527, 32.63033
296.0348, 32.39040
296.5169, 32.16810
296.9991, 31.96569
297.4812, 31.76882
297.9633, 31.51827
298.4454, 31.28896
298.9275, 31.27650
299.4096, 31.66090
299.8918, 32.06850
300.3739, 32.25733
300.8560, 32.24067
301.3381, 32.09190
301.8202, 31.76444
302.3023, 31.38568
302.7845, 31.20595
303.2666, 31.29212
303.7487, 31.41442
304.2308, 31.48042
304.7129, 31.48503
305.1950, 31.37949
305.6772, 31.07325
306.1593, 30.76026
306.6414, 30.77091
307.1235, 31.14368
307.6056, 31.42415
308.0877, 31.33345
308.5699, 31.01303
309.0520, 30.78649
309.5341, 30.72742
310.0162, 30.75606
310.4983, 30.81178
310.9804, 30.88963
311.4626, 30.94593
311.9447, 30.94595
312.4268, 30.92288
312.9089, 30.92920
313.3910, 30.97360
313.8731, 31.02993
314.3553, 31.09900
314.8374, 31.16594
315.3195, 31.17652
315.8016, 31.05204
316.2837, 30.90560
316.7658, 30.87663
317.2480, 30.97079
317.7301, 31.05974
318.2122, 31.03316
318.6943, 30.95720
319.1764, 30.99805
319.6585, 31.27696
320.1407, 31.53805
320.6228, 31.53045
321.1049, 31.29526
321.5870, 31.14516
322.0691, 31.26543
322.5512, 31.50134
323.0334, 31.55427
323.5155, 31.36212
323.9976, 31.19057
324.4797, 31.18850
324.9618, 31.31983
325.4439, 31.48650
325.9261, 31.68379
326.4082, 31.86669
326.8903, 31.96161
327.3724, 31.96888
327.8545, 31.99374
328.3366, 32.14524
328.8188, 32.31778
329.3009, 32.27002
329.7830, 31.90978
330.2651, 31.59987
330.7472, 31.80493
331.2293, 32.41756
331.7115, 32.85102
332.1936, 32.88206
332.6757, 32.75431
333.1578, 32.70457
333.6399, 32.74493
334.1220, 32.81573
334.6042, 32.85716
335.0863, 32.90696
335.5684, 33.08050
336.0505, 33.55072
336.5326, 33.97293
337.0147, 34.07489
337.4969, 33.91776
337.9790, 33.77497
338.4611, 33.76237
338.9432, 33.84612
339.4253, 33.96401
339.9074, 34.16471
340.3896, 34.27693
340.8717, 34.14311
341.3538, 33.88387
341.8359, 33.74307
342.3180, 33.79538
342.8001, 33.96029
343.2823, 34.17794
343.7644, 34.47337
344.2465, 34.60851
344.7286, 34.35553
345.2107, 34.01305
345.6928, 33.95750
346.1750, 34.23808
346.6571, 34.55545
347.1392, 34.62577
347.6213, 34.43840
348.1034, 34.36361
348.5855, 34.47025
349.0677, 34.63132
349.5498, 34.82624
350.0319, 35.02314
350.5140, 35.09278
350.9961, 34.93586
351.4782, 34.60169
351.9604, 34.33000
352.4425, 34.04568
352.9246, 33.89584
353.4067, 34.03477
353.8888, 34.32220
354.3709, 34.50055
354.8531, 34.46692
355.3352, 34.31219
355.8173, 34.19868
356.2994, 34.11190
356.7815, 34.10118
357.2636, 34.28676
357.7458, 34.48647
358.2279, 34.47935
358.7100, 34.24306
359.1921, 33.98731
359.6742, 33.95907
360.1563, 34.22194
360.6385, 34.31849
361.1206, 34.10513
361.6027, 33.87381
362.0848, 33.76907
362.5669, 33.78437
363.0490, 33.86177
363.5312, 33.97095
364.0133, 34.10258
364.4954, 34.17664
364.9775, 34.16956
365.4596, 34.13689
365.9417, 34.02260
366.4239, 33.90872
366.9060, 33.92443
367.3881, 34.12160
367.8702, 34.41188
368.3523, 34.61823
368.8344, 34.73566
369.3166, 34.76081
369.7987, 34.57769
370.2808, 34.39044
370.7629, 34.41069
371.2450, 34.62921
371.7271, 34.81505
372.2093, 34.69075
372.6914, 34.17603
373.1735, 33.86832
373.6556, 33.94446
374.1377, 34.03800
374.6198, 34.03175
375.1020, 33.94149
375.5841, 33.81654
376.0662, 33.68160
376.5483, 33.55007
377.0304, 33.49280
377.5125, 33.58015
377.9947, 33.64315
378.4768, 33.68970
378.9589, 33.68479
379.4410, 33.56842
379.9231, 33.32596
380.4052, 33.04650
380.8874, 32.88652
381.3695, 32.91314
381.8516, 32.83802
382.3337, 32.45605
382.8158, 32.11810
383.2979, 32.07075
383.7801, 32.26856
384.2622, 32.44926
384.7443, 32.38612
385.2264, 32.09763
385.7085, 31.79998
386.1906, 31.42867
386.6728, 31.14938
387.1549, 31.04946
387.6370, 31.06509
388.1191, 31.11213
388.6012, 31.17026
389.0833, 31.20986
389.5655, 31.16551
390.0476, 31.01758
390.5297, 30.87542
391.0118, 30.75785
391.4939, 30.67066
391.9760, 30.63493
392.4582, 30.65440
392.9403, 30.66987
393.4224, 30.61486
393.9045, 30.50536
394.3866, 30.44982
394.8687, 30.49735
395.3509, 30.54365
395.8330, 30.47809
396.3151, 30.33680
396.7972, 30.24002
397.2793, 30.26744
397.7614, 30.34941
398.2436, 30.37014
398.7257, 30.32104
399.2078, 30.32077
399.6899, 30.47772
400.1720, 30.71297
400.6541, 30.85485
401.1363, 30.87133
401.6184, 30.84097
402.1005, 30.77934
402.5826, 30.70477
403.0647, 30.67334
403.5468, 30.70915
404.0290, 30.77482
404.5111, 30.83726
404.9932, 30.90736
405.4753, 30.89125
405.9574, 30.67499
406.4395, 30.42458
406.9217, 30.33188
407.4038, 30.39838
407.8859, 30.45143
408.3680, 30.35760
408.8501, 30.12486
409.3322, 29.89073
409.8144, 29.53861
410.2965, 29.30979
410.7786, 29.39202
411.2607, 29.63611
411.7428, 29.77206
412.2249, 29.68578
412.7071, 29.48536
413.1892, 29.38174
413.6713, 29.44019
414.1534, 29.48779
414.6355, 29.58286
415.1176, 29.62543
415.5998, 29.49494
416.0819, 29.21659
416.5640, 28.94761
417.0461, 28.83546
417.5282, 28.88260
418.0103, 28.89724
418.4925, 28.88555
418.9746, 28.83173
419.4567, 28.69856
419.9388, 28.53070
420.4209, 28.39140
420.9030, 28.31077
421.3852, 28.25481
421.8673, 28.12731
422.3494, 27.82176
422.8315, 27.72319
423.3136, 28.12957
423.7957, 28.53753
424.2779, 28.59137
424.7600, 28.31332
425.2421, 28.01352
425.7242, 27.97866
426.2063, 28.17480
426.6884, 28.26359
427.1706, 28.16852
427.6527, 28.09348
428.1348, 28.17761
428.6169, 28.32129
429.0990, 28.37207
429.5811, 28.25546
430.0633, 28.08528
430.5454, 28.00156
431.0275, 28.00567
431.5096, 28.03322
431.9917, 28.08209
432.4738, 28.13251
432.9560, 28.17031
433.4381, 28.19537
433.9202, 28.19571
434.4023, 28.14076
434.8844, 28.06457
435.3665, 28.03176
435.8487, 28.05122
436.3308, 28.08526
436.8129, 28.12341
437.2950, 28.15263
437.7771, 28.12893
438.2592, 27.96668
438.7414, 27.84212
439.2235, 27.90529
439.7056, 28.07894
440.1877, 28.15331
440.6698, 28.03587
441.1519, 27.86568
441.6341, 27.88021
442.1162, 28.16508
442.5983, 28.38749
443.0804, 28.57083
443.5625, 28.65757
444.0446, 28.51531
444.5268, 28.20328
445.0089, 27.99324
445.4910, 28.11701
445.9731, 28.52183
446.4552, 28.69332
446.9373, 28.36232
447.4195, 28.11878
447.9016, 28.07323
448.3837, 28.14595
448.8658, 28.26111
449.3479, 28.38994
449.8300, 28.52452
450.3122, 28.66394
450.7943, 28.83123
451.2764, 28.91578
451.7585, 28.84244
452.2406, 28.75452
452.7227, 28.68470
453.2049, 28.64435
453.6870, 28.64411
454.1691, 28.68963
454.6512, 28.78002
455.1333, 28.93330
455.6154, 29.18914
456.0976, 29.38775
456.5797, 29.45376
457.0618, 29.45564
457.5439, 29.40295
458.0260, 29.29935
458.5081, 29.27037
458.9903, 29.49394
459.4724, 29.88012
459.9545, 30.08747
460.4366, 30.03750
460.9187, 29.92733
461.4008, 29.85236
461.8830, 29.83107
462.3651, 29.93076
462.8472, 30.29128
463.3293, 30.64204
463.8114, 30.75210
464.2935, 30.67526
464.7756, 30.60891
465.2578, 30.63061
465.7399, 30.68049
466.2220, 30.64741
466.7041, 30.50071
467.1862, 30.40312
467.6683, 30.38576
468.1505, 30.41454
468.6326, 30.48583
469.1147, 30.58421
469.5968, 30.66057
470.0789, 30.68073
470.5610, 30.64916
471.0432, 30.59676
471.5253, 30.48533
472.0074, 30.39960
472.4895, 30.40484
472.9716, 30.40985
473.4537, 30.31799
473.9359, 30.11098
474.4180, 29.84234
474.9001, 29.55071
475.3822, 29.21686
475.8643, 29.03457
476.3464, 29.18968
476.8286, 29.30274
477.3107, 29.21159
477.7928, 29.00675
478.2749, 28.84715
478.7570, 28.81101
479.2391, 28.81973
479.7213, 28.72980
480.2034, 28.52385
480.6855, 28.37163
481.1676, 28.38783
481.6497, 28.39166
482.1318, 28.19458
482.6140, 27.82483
483.0961, 27.52122
483.5782, 27.41662
484.0603, 27.43845
484.5424, 27.51798
485.0245, 27.65712
485.5067, 27.68838
485.9888, 27.45506
486.4709, 27.08753
486.9530, 26.94024
487.4351, 27.13030
487.9172, 27.26759
488.3994, 27.20159
488.8815, 27.01359
489.3636, 26.78716
489.8457, 26.54373
490.3278, 26.32179
490.8099, 26.15365
491.2921, 26.03994
491.7742, 25.98594
492.2563, 26.04500
492.7384, 26.09243
493.2205, 26.08378
493.7026, 26.04254
494.1848, 25.98220
494.6669, 25.91235
495.1490, 25.88443
495.6311, 26.02359
496.1132, 26.45818
496.5953, 26.64007
497.0775, 26.26894
497.5596, 25.92595
498.0417, 25.89501
498.5238, 26.07027
499.0059, 26.18551
499.4880, 26.08086
499.9702, 25.87618
500.4523, 25.84082
500.9344, 26.01633
501.4165, 26.09101
501.8986, 25.90371
502.3807, 25.64426
502.8629, 25.47016
503.3450, 25.38635
503.8271, 25.36849
504.3092, 25.41369
504.7913, 25.51456
505.2734, 25.71792
505.7556, 26.02404
506.2377, 26.18227
506.7198, 25.97538
507.2019, 25.55725
507.6840, 25.42052
508.1661, 25.71141
508.6483, 25.96399
509.1304, 26.08283
509.6125, 26.08707
510.0946, 25.93627
510.5767, 25.65253
511.0588, 25.41025
511.5410, 25.37851
512.0231, 25.55574
512.5052, 25.70531
512.9873, 25.92009
513.4694, 25.99547
513.9515, 25.74931
514.4337, 25.40876
514.9158, 25.24509
515.3979, 25.32989
515.8800, 25.50355
516.3621, 25.55126
516.8442, 25.45219
517.3264, 25.46254
517.8085, 25.76062
518.2906, 25.93317
518.7727, 25.71556
519.2548, 25.28226
519.7369, 24.90952
520.2191, 24.66707
520.7012, 24.57140
521.1833, 24.71684
521.6654, 25.06516
522.1475, 25.33202
522.6296, 25.47815
523.1118, 25.47142
523.5939, 25.15257
524.0760, 24.57850
524.5581, 24.20704
525.0402, 24.29191
525.5223, 24.44642
526.0045, 24.37499
526.4866, 24.14154
526.9687, 23.94446
527.4508, 23.86698
527.9329, 23.88774
528.4150, 23.97897
528.8972, 24.21525
529.3793, 24.34245
529.8614, 24.34103
530.3435, 24.25694
530.8256, 24.05111
531.3077, 23.78479
531.7899, 23.58718
532.2720, 23.53733
532.7541, 23.59073
533.2362, 23.64130
533.7183, 23.70062
534.2004, 23.72431
534.6826, 23.65998
535.1647, 23.59254
535.6468, 23.56503
536.1289, 23.57923
536.6110, 23.62560
537.0931, 23.73820
537.5753, 23.86000
538.0574, 23.86842
538.5395, 23.75858
539.0216, 23.64774
539.5037, 23.58771
539.9858, 23.54985
540.4680, 23.47015
540.9501, 23.32825
541.4322, 23.25894
541.9143, 23.34995
542.3964, 23.49805
542.8785, 23.61899
543.3607, 23.70094
543.8428, 23.73703
544.3249, 23.71628
544.8070, 23.29572
545.2891, 23.81577
545.7712, 24.12347
546.2534, 24.23027
546.7355, 23.53432
547.2176, 23.87493
547.6997, 23.80013
548.1818, 23.70831
548.6639, 24.19480
549.1461, 23.61562
549.6282, 24.09295
550.1103, 24.14854
550.5924, 24.39715
551.0745, 24.22778
551.5566, 24.18752
552.0388, 24.56537
552.5209, 24.71170
553.0030, 24.49422
553.4851, 24.75510
553.9672, 24.16131
554.4493, 23.95581
554.9315, 23.79457
555.4136, 23.85715
555.8957, 24.04576
556.3778, 24.36847
556.8599, 24.73505
557.3420, 24.87560
557.8242, 24.70069
558.3063, 24.55910
558.7884, 24.52228
559.2705, 24.54370
559.7526, 24.60163
560.2347, 24.68144
560.7169, 24.75458
561.1990, 24.80127
561.6811, 24.82208
562.1632, 24.81477
562.6453, 24.73367
563.1274, 24.70399
563.6096, 24.77504
564.0917, 24.86704
564.5738, 24.88950
565.0559, 24.86348
565.5380, 24.92382
566.0201, 25.24443
566.5023, 25.68252
566.9844, 25.81148
567.4665, 25.57172
567.9486, 25.41830
568.4307, 25.57086
568.9128, 25.85873
569.3950, 26.03867
569.8771, 26.10193
570.3592, 26.18165
570.8413, 26.34530
571.3234, 26.53184
571.8055, 26.65989
572.2877, 26.74330
572.7698, 26.87318
573.2519, 27.10448
573.7340, 27.39639
574.2161, 27.64062
574.6982, 27.78613
575.1804, 27.97390
575.6625, 28.30759
576.1446, 28.58879
576.6267, 28.57642
577.1088, 28.40589
577.5909, 28.46454
578.0731, 29.02293
578.5552, 29.81129
579.0373, 30.18771
579.5194, 30.05651
580.0015, 30.04760
580.4836, 30.37033
580.9658, 30.76202
581.4479, 31.02059
581.9300, 31.17090
582.4121, 31.32853
582.8942, 31.58967
583.3763, 31.83204
583.8585, 31.88308
584.3406, 31.80167
584.8227, 31.80777
585.3048, 31.97746
585.7869, 32.25832
586.2690, 32.59312
586.7512, 33.00363
587.2333, 33.35658
587.7154, 33.75547
588.1975, 33.99392
588.6796, 33.88960
589.1617, 33.59603
589.6439, 33.33733
590.1260, 33.20073
590.6081, 33.15201
591.0902, 33.18830
591.5723, 33.33464
592.0544, 33.31300
592.5366, 33.04805
593.0187, 32.71495
593.5008, 32.39105
593.9829, 32.06042
594.4650, 31.68577
594.9471, 31.24563
595.4293, 30.81774
595.9114, 30.51224
596.3935, 30.25858
596.8756, 29.84799
597.3577, 29.24188
597.8398, 28.71305
598.3220, 28.52746
598.8041, 28.60331
599.2862, 28.36695
599.7683, 27.43128
600.2504, 26.74717
600.7325, 26.61837
601.2147, 26.70013
601.6968, 26.73575
602.1789, 26.65948
602.6610, 26.44748
603.1431, 26.05198
603.6252, 25.53558
604.1074, 25.20542
604.5895, 25.16038
605.0716, 25.04065
605.5537, 24.64428
606.0358, 24.22421
606.5179, 23.96606
607.0001, 23.86689
607.4822, 23.80451
607.9643, 23.75304
608.4464, 23.68750
608.9285, 23.57864
609.4106, 23.42782
609.8928, 23.23925
610.3749, 23.00617
610.8570, 22.76538
611.3391, 22.57503
611.8212, 22.45774
612.3033, 22.30344
612.7855, 22.02565
613.2676, 21.80410
613.7497, 21.76360
614.2318, 21.81969
614.7139, 21.82483
615.1960, 21.72720
615.6782, 21.60504
616.1603, 21.59303
616.6424, 21.70138
617.1245, 21.67401
617.6066, 21.46143
618.0887, 21.19141
618.5709, 20.80641
619.0530, 20.44561
619.5351, 20.35084
620.0172, 20.63190
620.4993, 20.86949
620.9814, 20.73477
621.4636, 20.44340
621.9457, 20.35672
622.4278, 20.49653
622.9099, 20.63650
623.3920, 20.62870
623.8741, 20.51254
624.3563, 20.42658
624.8384, 20.41252
625.3205, 20.36783
625.8026, 20.26460
626.2847, 20.15550
626.7668, 20.07944
627.2490, 20.02726
627.7311, 19.96579
628.2132, 19.87511
628.6953, 19.76901
629.1774, 19.65836
629.6595, 19.54188
630.1417, 19.48337
630.6238, 19.53690
631.1059, 19.58184
631.5880, 19.45996
632.0701, 19.23525
632.5522, 19.11924
633.0344, 19.22421
633.5165, 19.34764
633.9986, 19.39711
634.4807, 19.39736
634.9628, 19.40245
635.4449, 19.41605
635.9271, 19.35934
636.4092, 19.13900
636.8913, 18.78238
637.3734, 18.59933
637.8555, 18.71676
638.3376, 18.80751
638.8198, 18.85801
639.3019, 18.83906
639.7840, 18.67569
640.2661, 18.40092
640.7482, 18.18477
641.2303, 18.15096
641.7125, 18.22012
642.1946, 18.30806
642.6767, 18.40505
643.1588, 18.36292
643.6409, 18.07177
644.1230, 17.79905
644.6052, 17.93310
645.0873, 18.55207
645.5694, 18.87877
646.0515, 18.71874
646.5336, 18.48839
647.0157, 18.30062
647.4979, 18.16270
647.9800, 18.09338
648.4621, 18.08636
648.9442, 18.07386
649.4263, 17.97644
649.9084, 17.80536
650.3906, 17.67382
650.8727, 17.58850
651.3548, 17.52252
651.8369, 17.43543
652.3190, 17.38648
652.8011, 17.48571
653.2833, 17.73843
653.7654, 17.87282
654.2475, 17.65607
654.7296, 17.37911
655.2117, 17.35361
655.6938, 17.51044
656.1760, 17.58902
656.6581, 17.48474
657.1402, 17.32806
657.6223, 17.31597
658.1044, 17.48191
658.5865, 17.59128
659.0687, 17.62348
659.5508, 17.61831
660.0329, 17.55267
660.5150, 17.47043
660.9971, 17.43449
661.4792, 17.45461
661.9614, 17.45151
662.4435, 17.33687
662.9256, 17.15963
663.4077, 17.01708
663.8898, 16.91254
664.3719, 16.88423
664.8541, 16.96644
665.3362, 17.10841
665.8183, 17.23687
666.3004, 17.37803
666.7825, 17.39901
667.2646, 17.18757
667.7468, 16.96948
668.2289, 16.82285
668.7110, 16.75667
669.1931, 16.80425
669.6752, 16.96692
670.1573, 17.12658
670.6395, 17.10754
671.1216, 16.92926
671.6037, 16.86739
672.0858, 16.96443
672.5679, 17.04745
673.0500, 17.02182
673.5322, 16.94795
674.0143, 16.91870
674.4964, 16.94068
674.9785, 16.96156
675.4606, 16.96386
675.9427, 16.96108
676.4249, 16.96252
676.9070, 16.96802
677.3891, 16.97199
677.8712, 16.97245
678.3533, 16.98339
678.8354, 17.03999
679.3176, 17.15705
679.7997, 17.16502
680.2818, 16.94347
680.7639, 16.79665
681.2460, 16.93669
681.7281, 17.14061
682.2103, 17.14283
682.6924, 16.90342
683.1745, 16.65762
683.6566, 16.50799
684.1387, 16.43644
684.6208, 16.43447
685.1030, 16.49239
685.5851, 16.57948
686.0672, 16.68487
686.5493, 16.79800
687.0314, 16.90919
687.5135, 17.02901
687.9957, 17.08762
688.4778, 17.03298
688.9599, 16.97627
689.4420, 16.93000
689.9241, 16.90384
690.4063, 16.91758
690.8884, 16.97102
691.3705, 17.01984
691.8526, 17.03028
692.3347, 17.01411
692.8168, 16.98619
693.2990, 16.94835
693.7811, 16.92126
694.2632, 16.91062
694.7453, 16.92092
695.2274, 16.96653
695.7095, 17.06097
696.1917, 17.10578
696.6738, 17.09145
697.1559, 17.04416
697.6380, 16.89045
698.1201, 16.75282
698.6022, 16.81900
699.0844, 17.09064
699.5665, 17.32866
700.0486, 17.28073
700.5307, 17.08067
701.0128, 17.13599
701.4949, 17.45979
701.9771, 17.62784
702.4592, 17.46192
702.9413, 17.17778
703.4234, 17.02198
703.9055, 17.00277
704.3876, 16.96918
704.8698, 16.87009
705.3519, 16.81482
705.8340, 16.90504
706.3161, 17.02308
706.7982, 17.01241
707.2803, 16.87005
707.7625, 16.73096
708.2446, 16.70630
708.7267, 16.75759
709.2088, 16.78632
709.6909, 16.79348
710.1730, 16.76242
710.6552, 16.66728
711.1373, 16.56914
711.6194, 16.53143
712.1015, 16.54370
712.5836, 16.54437
713.0657, 16.50921
713.5479, 16.48715
714.0300, 16.51237
714.5121, 16.54759
714.9942, 16.55910
715.4763, 16.54056
715.9584, 16.48955
716.4406, 16.39808
716.9227, 16.29401
717.4048, 16.24873
717.8869, 16.26854
718.3690, 16.28703
718.8511, 16.30120
719.3333, 16.30195
719.8154, 16.28813
720.2975, 16.25501
720.7796, 16.17932
721.2617, 16.00169
721.7438, 15.90235
722.2260, 16.00578
722.7081, 16.16829
723.1902, 16.27626
723.6723, 16.31623
724.1544, 16.29127
724.6365, 16.20002
725.1187, 16.09198
725.6008, 16.07092
726.0829, 16.14832
726.5650, 16.13434
727.0471, 15.95093
727.5292, 15.82288
728.0114, 15.92260
728.4935, 16.12387
728.9756, 16.22726
729.4577, 16.20875
729.9398, 16.17425
730.4219, 16.12564
730.9041, 16.09755
731.3862, 16.13346
731.8683, 16.20849
732.3504, 16.27338
732.8325, 16.30921
733.3146, 16.31714
733.7968, 16.29273
734.2789, 16.23830
734.7610, 16.18983
735.2431, 16.14738
735.7252, 16.11040
736.2073, 16.07374
736.6895, 16.04746
737.1716, 16.04685
737.6537, 16.07070
738.1358, 16.08864
738.6179, 16.07070
739.1000, 16.07112
739.5822, 16.14838
740.0643, 16.24903
740.5464, 16.29934
741.0285, 16.28520
741.5106, 16.23258
741.9927, 16.15417
742.4749, 16.06634
742.9570, 16.03152
743.4391, 16.05975
743.9212, 16.07991
744.4033, 16.08956
744.8854, 16.07072
745.3676, 15.97282
745.8497, 15.83149
746.3318, 15.77112
746.8139, 15.86338
747.2960, 15.93686
747.7781, 15.91897
748.2603, 15.87316
748.7424, 15.86147
749.2245, 15.87811
749.7066, 15.88377
750.1887, 15.85784
750.6708, 15.81426
751.1530, 15.76412
751.6351, 15.70894
752.1172, 15.69524
752.5993, 15.73222
753.0814, 15.79084
753.5635, 15.87336
754.0457, 15.95714
754.5278, 15.99085
755.0099, 15.96090
755.4920, 15.95065
755.9741, 16.00928
756.4562, 16.04938
756.9384, 15.98553
757.4205, 15.88707
757.9026, 15.88565
758.3847, 15.99981
758.8668, 16.08991
759.3489, 15.99795
759.8311, 15.79448
760.3132, 15.68468
760.7953, 15.66994
761.2774, 15.71324
761.7595, 15.82807
762.2416, 15.93643
762.7238, 15.95475
763.2059, 15.88494
763.6880, 15.81649
764.1701, 15.70222
764.6522, 15.65278
765.1343, 15.74321
765.6165, 15.86094
766.0986, 15.92642
766.5807, 15.93583
767.0628, 15.90745
767.5449, 15.84198
768.0270, 15.77534
768.5092, 15.77810
768.9913, 15.81686
769.4734, 15.75605
769.9555, 15.57940
770.4376, 15.41735
770.9197, 15.34615
771.4019, 15.33690
771.8840, 15.32714
772.3661, 15.31971
772.8482, 15.30347
773.3303, 15.21884
773.8124, 15.19431
774.2946, 15.34925
774.7767, 15.54822
775.2588, 15.61926
775.7409, 15.53757
776.2230, 15.42212
776.7051, 15.26407
777.1873, 15.17049
777.6694, 15.37356
778.1515, 15.75273
778.6336, 15.89631
779.1157, 15.69825
779.5978, 15.45490
780.0800, 15.46444
780.5621, 15.67737
781.0442, 15.75847
781.5263, 15.65480
782.0084, 15.54100
782.4905, 15.36671
782.9727, 15.26710
783.4548, 15.40668
783.9369, 15.67375
784.4190, 15.77763
784.9011, 15.58863
785.3832, 15.41336
785.8654, 15.40783
786.3475, 15.47929
786.8296, 15.55262
787.3117, 15.61238
787.7938, 15.65481
788.2759, 15.67783
788.7581, 15.65964
789.2402, 15.54118
789.7223, 15.33047
790.2044, 15.21144
790.6865, 15.18937
791.1686, 15.24526
791.6508, 15.42835
792.1329, 15.62310
792.6150, 15.66541
793.0971, 15.55438
793.5792, 15.48039
794.0613, 15.49431
794.5435, 15.49606
795.0256, 15.40817
795.5077, 15.32559
795.9898, 15.38082
796.4719, 15.54051
796.9540, 15.63095
797.4362, 15.53699
797.9183, 15.38546
798.4004, 15.35225
798.8825, 15.41188
799.3646, 15.47715
799.8467, 15.53851
800.3289, 15.54620
800.8110, 15.45246
801.2931, 15.32933
801.7752, 15.34918
802.2573, 15.60551
802.7394, 15.69026
803.2216, 15.36809
803.7037, 15.14843
804.1858, 15.27088
804.6679, 15.50516
805.1500, 15.58362
805.6321, 15.48844
806.1143, 15.41445
806.5964, 15.50328
807.0785, 15.60318
807.5606, 15.59879
808.0427, 15.50872
808.5248, 15.30802
809.0070, 15.02873
809.4891, 14.88045
809.9712, 15.03420
810.4533, 15.38091
810.9354, 15.65657
811.4175, 15.86973
811.8997, 15.93016
812.3818, 15.76744
812.8639, 15.58213
813.3460, 15.45689
813.8281, 15.39826
814.3102, 15.44099
814.7924, 15.63791
815.2745, 15.71610
815.7566, 15.51517
816.2387, 15.32043
816.7208, 15.30483
817.2029, 15.37243
817.6851, 15.37599
818.1672, 15.29648
818.6493, 15.23922
819.1314, 15.29706
819.6135, 15.40518
820.0956, 15.45955
820.5778, 15.46918
821.0599, 15.48709
821.5420, 15.52538
822.0241, 15.49699
822.5062, 15.30652
822.9883, 15.04842
823.4705, 15.05820
823.9526, 15.53305
824.4347, 15.78598
824.9168, 15.60378
825.3989, 15.44105
825.8810, 15.57997
826.3632, 15.79276
826.8453, 15.73356
827.3274, 15.34916
827.8095, 15.03447
828.2916, 14.93021
828.7737, 14.95286
829.2559, 15.12870
829.7380, 15.35387
830.2201, 15.45651
830.7022, 15.41732
831.1843, 15.34492
831.6664, 15.31097
832.1486, 15.32299
832.6307, 15.43602
833.1128, 15.64069
833.5949, 15.70708
834.0770, 15.57321
834.5591, 15.46640
835.0413, 15.55662
835.5233, 15.73595
836.0054, 15.73282
836.4875, 15.42898
836.9697, 15.28257
837.4518, 15.37546
837.9339, 15.51412
838.4160, 15.71570
838.8981, 15.88122
839.3802, 15.87348
839.8624, 15.70194
840.3445, 15.55419
840.8266, 15.53872
841.3087, 15.56124
841.7908, 15.57226
842.2729, 15.55563
842.7551, 15.46785
843.2372, 15.31640
843.7193, 15.15384
844.2014, 15.00647
844.6835, 14.91086
845.1656, 14.95037
845.6478, 15.12633
846.1299, 15.32115
846.6120, 15.56052
847.0941, 15.69034
847.5762, 15.60293
848.0583, 15.42504
848.5405, 15.32882
849.0226, 15.32004
849.5047, 15.34850
849.9868, 15.53884
850.4689, 15.60025
850.9510, 15.32731
851.4332, 15.01470
851.9153, 14.90141
852.3974, 14.96773
852.8795, 15.09479
853.3616, 15.26979
853.8438, 15.38492
854.3259, 15.32371
854.8080, 15.16912
855.2901, 14.98644
855.7722, 14.81852
856.2543, 14.79530
856.7365, 14.96620
857.2186, 15.18642
857.7007, 15.27379
858.1828, 15.25003
858.6649, 15.28492
859.1470, 15.39527
859.6292, 15.45675
860.1113, 15.42661
860.5934, 15.36635
861.0755, 15.32296
861.5576, 15.29426
862.0397, 15.26858
862.5219, 15.23518
863.0040, 15.22283
863.4861, 15.28549
863.9682, 15.31364
864.4503, 15.20095
864.9324, 15.04029
865.4146, 14.98048
865.8967, 15.05010
866.3788, 15.12350
866.8609, 15.12406
867.3430, 15.09975
867.8251, 15.08791
868.3073, 15.08804
868.7894, 15.11238
869.2715, 15.15317
869.7536, 15.14997
870.2357, 15.05068
870.7178, 14.92464
871.2000, 14.92362
871.6821, 15.04439
872.1642, 15.18819
872.6463, 15.37248
873.1284, 15.42942
873.6105, 15.22383
874.0927, 14.94370
874.5748, 14.88982
875.0569, 15.09458
875.5390, 15.23727
876.0211, 15.35607
876.5032, 15.35841
876.9854, 15.06028
877.4675, 14.78741
877.9496, 14.84075
878.4317, 15.12619
878.9138, 15.33418
879.3959, 15.38551
879.8781, 15.33960
880.3602, 15.10399
880.8423, 14.88578
881.3244, 14.94959
881.8065, 15.17978
882.2886, 15.28093
882.7708, 15.17416
883.2529, 15.05837
883.7350, 15.12129
884.2171, 15.30233
884.6992, 15.49769
885.1813, 15.69516
885.6635, 15.76768
886.1456, 15.68498
886.6277, 15.59669
887.1098, 15.60956
887.5919, 15.68314
888.0740, 15.71377
888.5562, 15.69031
889.0383, 15.65981
889.5204, 15.57307
890.0025, 15.56272
890.4846, 15.74261
890.9667, 15.97578
891.4489, 16.09158
891.9310, 16.10428
892.4131, 16.21625
892.8952, 16.62789
893.3773, 16.91444
893.8594, 16.84503
894.3416, 16.68871
894.8237, 16.65192
895.3058, 16.71747
895.7879, 16.78349
896.2700, 16.81340
896.7521, 16.88402
897.2343, 17.12896
897.7164, 17.40376
898.1985, 17.45162
898.6806, 17.35821
899.1627, 17.39065
899.6448, 17.60853
900.1270, 17.89169
900.6091, 18.14322
901.0912, 18.37964
901.5733, 18.65580
902.0554, 18.97307
902.5375, 19.20205
903.0197, 19.30000
903.5018, 19.45469
903.9839, 19.76338
904.4660, 20.17243
904.9481, 20.60721
905.4302, 21.07501
905.9124, 21.49561
906.3945, 21.79257
906.8766, 22.15332
907.3587, 22.63224
907.8408, 23.15723
908.3229, 23.69382
908.8051, 24.23472
909.2872, 24.76826
909.7693, 25.26022
910.2514, 25.83743
910.7335, 26.59811
911.2156, 27.40543
911.6978, 28.21851
912.1799, 28.98380
912.6620, 29.57039
913.1441, 30.00070
913.6262, 30.53695
914.1083, 31.40145
914.5905, 32.38840
915.0726, 33.29648
915.5547, 34.10126
916.0368, 34.74583
916.5189, 35.22200
917.0010, 35.51408
917.4832, 35.60503
917.9653, 35.65533
918.4474, 35.93293
918.9295, 36.40090
919.4116, 36.63823
919.8937, 36.61334
920.3759, 36.57726
920.8580, 36.60789
921.3401, 36.60793
921.8222, 36.55424
922.3043, 36.37987
922.7864, 35.81773
923.2686, 34.67103
923.7507, 33.57290
924.2328, 32.53441
924.7149, 31.53061
925.1970, 30.54702
925.6791, 29.59877
926.1613, 28.71436
926.6434, 27.88527
927.1255, 27.06210
927.6076, 26.21656
928.0897, 25.39212
928.5718, 24.58670
929.0540, 23.82477
929.5361, 23.14203
930.0182, 22.51770
930.5003, 21.89574
930.9824, 21.26278
931.4645, 20.65018
931.9467, 20.07957
932.4288, 19.55408
932.9109, 19.07752
933.3930, 18.64669
933.8751, 18.24634
934.3572, 17.87691
934.8394, 17.56921
935.3215, 17.34464
935.8036, 17.17705
936.2857, 17.04147
936.7678, 16.92800
937.2499, 16.75925
937.7321, 16.53086
938.2142, 16.31621
938.6963, 16.14520
939.1784, 15.97623
939.6605, 15.76095
940.1426, 15.51419
940.6248, 15.32374
941.1069, 15.17869
941.5890, 15.13608
942.0711, 15.29803
942.5532, 15.39465
943.0353, 15.24427
943.5175, 14.97770
943.9996, 14.79842
944.4817, 14.71052
944.9638, 14.64361
945.4459, 14.64668
945.9280, 14.60025
946.4102, 14.39168
946.8923, 14.20301
947.3744, 14.21445
947.8565, 14.34165
948.3386, 14.36025
948.8207, 14.19098
949.3029, 14.09570
949.7850, 14.29534
950.2671, 14.50632
950.7492, 14.51181
951.2313, 14.40164
951.7134, 14.29607
952.1956, 14.22172
952.6777, 14.16863
953.1598, 14.13291
953.6419, 14.11035
954.1240, 14.08448
954.6061, 14.07428
955.0883, 14.14366
955.5704, 14.26367
956.0525, 14.32215
956.5346, 14.28426
957.0167, 14.18805
957.4988, 14.04993
957.9810, 13.91469
958.4631, 13.90807
958.9452, 14.02152
959.4273, 14.15637
959.9094, 14.30543
960.3915, 14.40145
960.8737, 14.40821
961.3558, 14.35608
961.8379, 14.27027
962.3200, 14.15622
962.8021, 14.19831
963.2842, 14.48240
963.7664, 14.64589
964.2485, 14.59983
964.7306, 14.47476
965.2127, 14.33846
965.6948, 14.18778
966.1769, 13.99989
966.6591, 13.72393
967.1412, 13.61260
967.6233, 13.83519
968.1054, 13.99030
968.5875, 13.95800
969.0696, 13.85462
969.5518, 13.75199
970.0339, 13.65605
970.5160, 13.56187
970.9981, 13.45685
971.4802, 13.39342
971.9623, 13.45445
972.4445, 13.48654
972.9266, 13.33180
973.4087, 13.14072
973.8908, 13.13903
974.3729, 13.30494
974.8550, 13.40132
975.3372, 13.29601
975.8193, 13.17128
976.3014, 13.17467
976.7835, 13.21642
977.2656, 13.19111
977.7477, 13.12211
978.2299, 13.07930
978.7120, 13.07777
979.1941, 13.07418
979.6762, 13.03048
980.1583, 12.97994
980.6404, 12.98462
981.1226, 13.01611
981.6047, 12.98274
982.0868, 12.89861
982.5689, 12.89332
983.0510, 13.01666
983.5331, 13.14354
984.0153, 13.12638
984.4974, 13.01521
984.9795, 12.94762
985.4616, 12.92772
985.9437, 13.05779
986.4258, 13.36230
986.9080, 13.53995
987.3901, 13.41520
987.8722, 13.13903
988.3543, 12.91418
988.8364, 12.74734
989.3185, 12.84818
989.8007, 13.29778
990.2828, 13.64195
990.7649, 13.81090
991.2470, 13.80910
991.7291, 13.57328
992.2112, 13.23808
992.6934, 13.09260
993.1755, 13.15494
993.6576, 13.32226
994.1397, 13.74511
994.6218, 13.99802
995.1039, 13.84192
995.5861, 13.64291
996.0682, 13.70624
996.5503, 13.93405
997.0324, 14.05294
997.5145, 14.00849
997.9966, 14.01235
998.4788, 14.08562
998.9609, 14.19867
999.4430, 14.42864
999.9251, 14.62363
1000.407, 14.58715
1000.889, 14.39748
1001.371, 14.34111
1001.854, 14.50725
1002.336, 14.70350
1002.818, 14.94098
1003.300, 15.11447
1003.782, 15.08934
1004.264, 15.01554
1004.746, 15.10603
1005.228, 15.33320
1005.711, 15.46773
1006.193, 15.38913
1006.675, 15.30873
1007.157, 15.38430
1007.639, 15.48542
1008.121, 15.52215
1008.603, 15.48618
1009.085, 15.32811
1009.567, 15.08135
1010.050, 14.93042
1010.532, 15.00568
1011.014, 15.12975
1011.496, 15.17279
1011.978, 15.13359
1012.460, 14.97561
1012.942, 14.74090
1013.424, 14.50386
1013.906, 14.29896
1014.389, 14.18692
1014.871, 14.23932
1015.353, 14.33508
1015.835, 14.27816
1016.317, 14.13788
1016.799, 14.09996
1017.281, 14.14566
1017.763, 14.11024
1018.246, 13.94945
1018.728, 13.81911
1019.210, 13.87732
1019.692, 14.01696
1020.174, 13.97792
1020.656, 13.81021
1021.138, 13.57964
1021.620, 13.85063
1022.102, 14.02362
1022.585, 14.10397
1023.067, 13.81374
1023.549, 14.00191
1024.031, 13.99835
1024.513, 13.98693
1024.995, 14.24245
1025.477, 14.00610
1025.959, 14.25737
1026.442, 14.31409
1026.924, 14.10236
1027.406, 13.92117
1027.888, 13.92797
1028.370, 14.09116
1028.852, 14.25659
1029.334, 14.43398
1029.816, 14.53908
1030.298, 14.55775
1030.781, 14.51017
1031.263, 14.34767
1031.745, 14.27735
1032.227, 14.61026
1032.709, 15.27109
1033.191, 15.59039
1033.673, 15.43646
1034.155, 15.38495
1034.638, 15.50491
1035.120, 15.67629
1035.602, 15.85668
1036.084, 16.04817
1036.566, 16.25694
1037.048, 16.48101
1037.530, 16.68287
1038.012, 16.82084
1038.495, 17.03457
1038.977, 17.37294
1039.459, 17.72594
1039.941, 18.04926
1040.423, 18.35657
1040.905, 18.66099
1041.387, 18.96164
1041.869, 19.26098
1042.351, 19.54729
1042.833, 19.85180
1043.316, 20.17494
1043.798, 20.51804
1044.280, 20.88125
1044.762, 21.26554
1045.244, 21.67418
1045.726, 22.10456
1046.208, 22.52922
1046.690, 22.85432
1047.173, 23.31411
1047.655, 24.15151
1048.137, 24.86434
1048.619, 25.13865
1049.101, 25.22394
1049.583, 25.38450
1050.065, 25.63468
1050.547, 25.96234
1051.030, 26.46852
1051.512, 26.88589
1051.994, 27.22681
1052.476, 27.41746
1052.958, 27.31713
1053.440, 27.11486
1053.922, 27.07121
1054.404, 27.15970
1054.886, 27.08426
1055.369, 26.66784
1055.851, 26.31124
1056.333, 26.21032
1056.815, 26.07227
1057.297, 25.67189
1057.779, 25.19826
1058.261, 24.90791
1058.743, 24.77633
1059.225, 24.55162
1059.708, 24.11528
1060.190, 23.72210
1060.672, 23.51136
1061.154, 23.29305
1061.636, 22.94535
1062.118, 22.54279
1062.600, 22.17870
1063.082, 21.84873
1063.565, 21.48866
1064.047, 21.04605
1064.529, 20.66970
1065.011, 20.45182
1065.493, 20.26840
1065.975, 20.08980
1066.457, 19.87578
1066.939, 19.51688
1067.422, 19.08628
1067.904, 18.86881
1068.386, 19.02524
1068.868, 19.04028
1069.350, 18.62042
1069.832, 18.09661
1070.314, 17.54412
1070.796, 17.07804
1071.278, 16.86884
1071.760, 16.84014
1072.243, 16.74179
1072.725, 16.49115
1073.207, 16.28010
1073.689, 16.28545
1074.171, 16.24234
1074.653, 15.91111
1075.135, 15.52596
1075.617, 15.35887
1076.100, 15.33724
1076.582, 15.21048
1077.064, 14.90511
1077.546, 14.68436
1078.028, 14.75791
1078.510, 14.83150
1078.992, 14.75220
1079.474, 14.59069
1079.957, 14.36107
1080.439, 14.12369
1080.921, 13.98404
1081.403, 13.96399
1081.885, 13.98042
1082.367, 14.11179
1082.849, 14.12243
1083.331, 13.72818
1083.813, 13.31595
1084.296, 13.26499
1084.778, 13.41858
1085.260, 13.46435
1085.742, 13.35301
1086.224, 13.25770
1086.706, 13.30150
1087.188, 13.29208
1087.670, 13.05878
1088.152, 12.82238
1088.635, 12.74918
1089.117, 12.78642
1089.599, 12.87946
1090.081, 12.99606
1090.563, 13.02947
1091.045, 12.89822
1091.527, 12.77804
1092.009, 12.75046
1092.491, 12.74872
1092.974, 12.74571
1093.456, 12.73174
1093.938, 12.67184
1094.420, 12.59039
1094.902, 12.59749
1095.384, 12.76887
1095.866, 12.87505
1096.348, 12.79034
1096.831, 12.66755
1097.313, 12.53115
1097.795, 12.44208
1098.277, 12.49463
1098.759, 12.63941
1099.241, 12.72668
1099.723, 12.71531
1100.205, 12.71226
1100.688, 12.77492
1101.170, 12.81990
1101.652, 12.82739
1102.134, 12.79031
1102.616, 12.65163
1103.098, 12.48300
1103.580, 12.42906
1104.062, 12.51503
1104.544, 12.60843
1105.026, 12.71784
1105.509, 12.77537
1105.991, 12.74772
1106.473, 12.67779
1106.955, 12.55960
1107.437, 12.43409
1107.919, 12.33737
1108.401, 12.27787
1108.883, 12.32195
1109.366, 12.63899
1109.848, 12.81526
1110.330, 12.69716
1110.812, 12.54185
1111.294, 12.42311
1111.776, 12.35899
1112.258, 12.39623
1112.740, 12.51041
1113.223, 12.55783
1113.705, 12.43058
1114.187, 12.45621
1114.669, 12.85171
1115.151, 13.13700
1115.633, 13.15145
1116.115, 13.02449
1116.597, 12.78576
1117.079, 12.50055
1117.562, 12.33993
1118.044, 12.30743
1118.526, 12.39140
1119.008, 12.75555
1119.490, 12.94797
1119.972, 12.79246
1120.454, 12.58384
1120.936, 12.47583
1121.418, 12.43884
1121.901, 12.41628
1122.383, 12.40661
1122.865, 12.51941
1123.347, 12.90537
1123.829, 12.99912
1124.311, 12.59160
1124.793, 12.23616
1125.275, 12.18398
1125.758, 12.28245
1126.240, 12.37506
1126.722, 12.45715
1127.204, 12.50652
1127.686, 12.52555
1128.168, 12.49039
1128.650, 12.37985
1129.132, 12.29783
1129.615, 12.27439
1130.097, 12.30240
1130.579, 12.39560
1131.061, 12.49586
1131.543, 12.44446
1132.025, 12.23875
1132.507, 12.12413
1132.989, 12.10765
1133.471, 12.04230
1133.953, 11.88981
1134.436, 11.81945
1134.918, 11.94001
1135.400, 12.10480
1135.882, 12.09219
1136.364, 11.95437
1136.846, 11.91104
1137.328, 11.95601
1137.810, 12.06202
1138.293, 12.21609
1138.775, 12.30413
1139.257, 12.28319
1139.739, 12.22219
1140.221, 12.19106
1140.703, 12.13919
1141.185, 11.90464
1141.667, 11.58372
1142.150, 11.46877
1142.632, 11.54380
1143.114, 11.72791
1143.596, 11.97121
1144.078, 12.12129
1144.560, 12.08389
1145.042, 11.97595
1145.524, 11.89180
1146.006, 11.85801
1146.489, 12.00957
1146.971, 12.20199
1147.453, 12.05609
1147.935, 11.66682
1148.417, 11.50966
1148.899, 11.73970
1149.381, 11.99685
1149.863, 12.03432
1150.345, 11.96391
1150.828, 11.81378
1151.310, 11.67159
1151.792, 11.64476
1152.274, 11.70217
1152.756, 11.80400
1153.238, 11.92040
1153.720, 11.95584
1154.202, 11.82575
1154.685, 11.74652
1155.167, 11.93029
1155.649, 12.08482
1156.131, 11.93187
1156.613, 11.72184
1157.095, 11.77697
1157.577, 12.00693
1158.059, 12.09901
1158.542, 11.98177
1159.024, 11.86330
1159.506, 11.73192
1159.988, 11.69202
1160.470, 11.90569
1160.952, 12.07631
1161.434, 11.94827
1161.916, 11.70753
1162.398, 11.64313
1162.880, 11.75106
1163.363, 11.78504
1163.845, 11.67300
1164.327, 11.61992
1164.809, 11.68626
1165.291, 11.70409
1165.773, 11.56149
1166.255, 11.44101
1166.737, 11.49683
1167.220, 11.68525
1167.702, 11.92393
1168.184, 12.24014
1168.666, 12.28549
1169.148, 11.98147
1169.630, 11.79873
1170.112, 11.84793
1170.594, 11.83974
1171.077, 11.60137
1171.559, 11.35249
1172.041, 11.38060
1172.523, 11.60898
1173.005, 11.77703
1173.487, 11.88075
1173.969, 11.81977
1174.451, 11.61041
1174.933, 11.58507
1175.416, 11.82597
1175.898, 12.04750
1176.380, 12.05089
1176.862, 11.93213
1177.344, 11.78332
1177.826, 11.64169
1178.308, 11.59986
1178.790, 11.63591
1179.272, 11.72798
1179.755, 11.83994
1180.237, 11.85810
1180.719, 11.74852
1181.201, 11.63412
1181.683, 11.60800
1182.165, 11.61099
1182.647, 11.58528
1183.129, 11.55738
1183.612, 11.55697
1184.094, 11.57655
1184.576, 11.60107
1185.058, 11.62902
1185.540, 11.66619
1186.022, 11.71417
1186.504, 11.77306
1186.986, 11.86796
1187.469, 11.94124
1187.951, 11.99199
1188.433, 11.98347
1188.915, 11.80295
1189.397, 11.57999
1189.879, 11.59002
1190.361, 11.85022
1190.843, 11.94185
1191.325, 11.64042
1191.807, 11.47568
1192.290, 11.56073
1192.772, 11.65362
1193.254, 11.69741
1193.736, 11.68971
1194.218, 11.60819
1194.700, 11.48773
1195.182, 11.41811
1195.664, 11.40184
1196.147, 11.41030
1196.629, 11.45139
1197.111, 11.47803
1197.593, 11.48683
1198.075, 11.44444
1198.557, 11.32446
1199.039, 11.21757
1199.521, 11.23217
1200.004, 11.31635
1200.486, 11.30738
1200.968, 11.23745
1201.450, 11.32393
1201.932, 11.52409
1202.414, 11.52208
1202.896, 11.28579
1203.378, 11.09531
1203.860, 11.10410
1204.343, 11.19860
1204.825, 11.30916
1205.307, 11.38774
1205.789, 11.33466
1206.271, 11.23059
1206.753, 11.20954
1207.235, 11.23584
1207.717, 11.19011
1208.199, 11.06410
1208.682, 10.98219
1209.164, 11.01326
1209.646, 11.04959
1210.128, 11.04036
1210.610, 11.01721
1211.092, 11.00761
1211.574, 10.98498
1212.056, 10.89556
1212.539, 10.78286
1213.021, 10.74823
1213.503, 10.80621
1213.985, 10.85425
1214.467, 10.89294
1214.949, 10.90784
1215.431, 10.88575
1215.913, 10.86127
1216.396, 10.85079
1216.878, 10.83171
1217.360, 10.76474
1217.842, 10.69709
1218.324, 10.77789
1218.806, 11.01362
1219.288, 11.05446
1219.770, 10.88770
1220.252, 10.71685
1220.734, 10.57108
1221.217, 10.55621
1221.699, 10.72109
1222.181, 10.91438
1222.663, 10.98948
1223.145, 10.99358
1223.627, 11.02459
1224.109, 11.04823
1224.591, 10.95392
1225.074, 10.78944
1225.556, 10.68536
1226.038, 10.65488
1226.520, 10.64543
1227.002, 10.63588
1227.484, 10.63500
1227.966, 10.65100
1228.448, 10.67530
1228.931, 10.70658
1229.413, 10.73886
1229.895, 10.78738
1230.377, 10.82010
1230.859, 10.76776
1231.341, 10.65515
1231.823, 10.60842
1232.305, 10.66644
1232.787, 10.72542
1233.270, 10.82278
1233.752, 10.84150
1234.234, 10.69543
1234.716, 10.56015
1235.198, 10.52811
1235.680, 10.55006
1236.162, 10.57139
1236.644, 10.59043
1237.126, 10.58943
1237.609, 10.55925
1238.091, 10.63325
1238.573, 10.82571
1239.055, 10.87194
1239.537, 10.71360
1240.019, 10.53047
1240.501, 10.41824
1240.983, 10.38621
1241.466, 10.47049
1241.948, 10.60077
1242.430, 10.65540
1242.912, 10.64803
1243.394, 10.60437
1243.876, 10.52278
1244.358, 10.31579
1244.840, 10.04724
1245.323, 10.05915
1245.805, 10.52281
1246.287, 10.91208
1246.769, 10.87195
1247.251, 10.73036
1247.733, 10.61741
1248.215, 10.53198
1248.697, 10.46136
1249.179, 10.42099
1249.661, 10.43932
1250.144, 10.51085
1250.626, 10.59873
1251.108, 10.72722
1251.590, 10.78929
1252.072, 10.77388
1252.554, 10.71028
1253.036, 10.57874
1253.518, 10.47338
1254.001, 10.45823
1254.483, 10.43637
1254.965, 10.27137
1255.447, 10.04370
1255.929, 10.02872
1256.411, 10.19085
1256.893, 10.27394
1257.375, 10.28543
1257.858, 10.33599
1258.340, 10.43124
1258.822, 10.45749
1259.304, 10.36763
1259.786, 10.28645
1260.268, 10.33078
1260.750, 10.40863
1261.232, 10.43699
1261.714, 10.44340
1262.197, 10.49476
1262.679, 10.51792
1263.161, 10.33428
1263.643, 10.03285
1264.125, 9.954821
1264.607, 10.20257
1265.089, 10.34709
1265.571, 10.21012
1266.053, 10.11962
1266.536, 10.16273
1267.018, 10.20057
1267.500, 10.15364
1267.982, 10.12830
1268.464, 10.24725
1268.946, 10.42394
1269.428, 10.42764
1269.910, 10.27025
1270.393, 10.25852
1270.875, 10.38611
1271.357, 10.47400
1271.839, 10.50143
1272.321, 10.49978
1272.803, 10.48025
1273.285, 10.43697
1273.767, 10.36378
1274.250, 10.27655
1274.732, 10.11679
1275.214, 10.02652
1275.696, 10.30215
1276.178, 10.66161
1276.660, 10.69360
1277.142, 10.50623
1277.624, 10.37925
1278.106, 10.36470
1278.589, 10.40801
1279.071, 10.53869
1279.553, 10.62053
1280.035, 10.55746
1280.517, 10.54860
1280.999, 10.71383
1281.481, 10.84602
1281.963, 10.81678
1282.445, 10.69834
1282.928, 10.56706
##END=



