##NAMES=Skorpionite
##RRUFFID=R060938
##IDEAL CHEMISTRY=Ca_3_Zn^2+^_2_(P^5+^O_4_)_2_CO_3_(OH)_2_&#183;H_2_O
##LOCALITY=Skorpion Zinc deposit, west of Rosh Pinah, southern Namibia
##OWNER=RRUFF
##SOURCE=William W. Pinch
##DESCRIPTION=Pale green to colorless acicular crystals
##STATUS=The identification of this mineral has been confirmed only by single crystal X-ray diffraction.
##URL=rruff.info/R060938
126.8254, 1010.349
127.3075, 1039.077
127.7896, 1069.316
128.2718, 1108.763
128.7539, 1155.426
129.2360, 1197.432
129.7181, 1226.194
130.2002, 1244.790
130.6823, 1263.997
131.1645, 1285.524
131.6466, 1307.542
132.1287, 1325.332
132.6108, 1338.473
133.0929, 1352.787
133.5750, 1373.107
134.0572, 1399.482
134.5393, 1427.904
135.0214, 1461.042
135.5035, 1495.911
135.9856, 1515.636
136.4677, 1516.871
136.9499, 1512.115
137.4320, 1518.561
137.9141, 1539.848
138.3962, 1552.301
138.8783, 1546.424
139.3604, 1520.742
139.8426, 1495.366
140.3247, 1470.008
140.8068, 1445.281
141.2889, 1421.421
141.7710, 1397.883
142.2531, 1376.753
142.7353, 1358.632
143.2174, 1343.520
143.6995, 1331.745
144.1816, 1323.714
144.6637, 1319.036
145.1458, 1317.034
145.6280, 1322.525
146.1101, 1325.520
146.5922, 1319.285
147.0743, 1298.057
147.5564, 1276.095
148.0385, 1254.054
148.5207, 1231.884
149.0028, 1212.940
149.4849, 1198.874
149.9670, 1187.356
150.4491, 1176.486
150.9312, 1166.527
151.4134, 1157.026
151.8955, 1148.290
152.3776, 1140.897
152.8597, 1132.621
153.3418, 1119.677
153.8239, 1106.563
154.3060, 1099.999
154.7882, 1108.736
155.2703, 1117.796
155.7524, 1121.193
156.2345, 1113.557
156.7166, 1108.562
157.1987, 1110.556
157.6809, 1117.284
158.1630, 1122.494
158.6451, 1119.327
159.1272, 1117.181
159.6093, 1121.709
160.0914, 1144.031
160.5736, 1162.784
161.0557, 1169.299
161.5378, 1164.945
162.0199, 1160.503
162.5020, 1159.224
162.9841, 1160.222
163.4663, 1162.648
163.9484, 1169.513
164.4305, 1175.148
164.9126, 1174.773
165.3947, 1167.963
165.8768, 1164.239
166.3590, 1173.325
166.8411, 1187.917
167.3232, 1197.685
167.8053, 1191.348
168.2874, 1182.834
168.7695, 1183.864
169.2517, 1197.464
169.7338, 1212.106
170.2159, 1220.172
170.6980, 1222.981
171.1801, 1224.039
171.6622, 1220.801
172.1444, 1218.469
172.6265, 1223.595
173.1086, 1239.697
173.5907, 1258.549
174.0728, 1271.402
174.5549, 1279.873
175.0371, 1290.942
175.5192, 1309.638
176.0013, 1333.841
176.4834, 1360.910
176.9655, 1393.082
177.4476, 1424.405
177.9298, 1445.344
178.4119, 1456.540
178.8940, 1466.743
179.3761, 1483.240
179.8582, 1504.394
180.3403, 1526.570
180.8224, 1548.258
181.3046, 1570.226
181.7867, 1595.771
182.2688, 1625.048
182.7509, 1653.022
183.2330, 1671.766
183.7151, 1683.268
184.1973, 1697.917
184.6794, 1725.630
185.1615, 1760.127
185.6436, 1779.405
186.1257, 1780.285
186.6078, 1777.245
187.0900, 1789.194
187.5721, 1815.375
188.0542, 1847.608
188.5363, 1882.787
189.0184, 1920.688
189.5005, 1962.625
189.9827, 2009.348
190.4648, 2058.135
190.9469, 2104.813
191.4290, 2148.716
191.9111, 2193.014
192.3932, 2240.776
192.8754, 2291.505
193.3575, 2342.282
193.8396, 2394.819
194.3217, 2445.446
194.8038, 2480.732
195.2859, 2499.064
195.7681, 2513.779
196.2502, 2537.400
196.7323, 2570.121
197.2144, 2596.619
197.6965, 2613.495
198.1786, 2622.140
198.6608, 2628.184
199.1429, 2631.576
199.6250, 2632.378
200.1071, 2629.906
200.5892, 2623.759
201.0714, 2617.582
201.5535, 2611.337
202.0356, 2605.326
202.5177, 2603.044
202.9998, 2603.965
203.4819, 2609.496
203.9641, 2621.773
204.4462, 2641.458
204.9283, 2664.476
205.4104, 2690.366
205.8925, 2719.384
206.3746, 2747.039
206.8568, 2772.814
207.3389, 2798.382
207.8210, 2825.851
208.3031, 2855.544
208.7852, 2886.814
209.2673, 2919.016
209.7494, 2951.686
210.2316, 2988.775
210.7137, 3031.212
211.1958, 3077.699
211.6779, 3126.406
212.1600, 3178.821
212.6421, 3230.667
213.1243, 3278.299
213.6064, 3317.389
214.0885, 3366.943
214.5706, 3429.036
215.0527, 3501.416
215.5348, 3577.919
216.0170, 3660.775
216.4991, 3742.238
216.9812, 3815.870
217.4633, 3874.284
217.9454, 3946.193
218.4275, 4043.972
218.9097, 4156.049
219.3918, 4235.178
219.8739, 4268.561
220.3560, 4288.149
220.8381, 4316.018
221.3202, 4360.126
221.8024, 4391.490
222.2845, 4402.903
222.7666, 4397.569
223.2487, 4400.653
223.7308, 4422.958
224.2129, 4439.782
224.6951, 4428.190
225.1772, 4367.565
225.6593, 4324.005
226.1414, 4312.573
226.6235, 4331.727
227.1056, 4337.301
227.5878, 4321.941
228.0699, 4300.904
228.5520, 4286.581
229.0341, 4278.755
229.5162, 4278.330
229.9983, 4286.881
230.4805, 4304.726
230.9626, 4323.887
231.4447, 4349.224
231.9268, 4371.357
232.4089, 4378.375
232.8910, 4359.893
233.3732, 4346.483
233.8553, 4352.594
234.3374, 4385.639
234.8195, 4378.083
235.3016, 4312.623
235.7837, 4220.114
236.2658, 4139.453
236.7480, 4078.696
237.2301, 4016.296
237.7122, 3948.873
238.1943, 3878.497
238.6764, 3791.981
239.1585, 3683.633
239.6407, 3561.334
240.1228, 3436.074
240.6049, 3299.595
241.0870, 3172.387
241.5691, 3062.832
242.0512, 2977.056
242.5334, 2884.261
243.0155, 2775.172
243.4976, 2663.962
243.9797, 2576.675
244.4618, 2528.400
244.9439, 2480.895
245.4261, 2419.822
245.9082, 2337.703
246.3903, 2265.150
246.8724, 2205.054
247.3545, 2153.242
247.8366, 2100.787
248.3188, 2045.169
248.8009, 1994.039
249.2830, 1950.550
249.7651, 1916.780
250.2472, 1886.331
250.7293, 1859.315
251.2115, 1835.715
251.6936, 1816.013
252.1757, 1802.831
252.6578, 1789.453
253.1399, 1772.507
253.6220, 1749.770
254.1042, 1728.652
254.5863, 1707.329
255.0684, 1688.383
255.5505, 1679.586
256.0326, 1685.534
256.5147, 1693.969
256.9969, 1699.539
257.4790, 1701.287
257.9611, 1702.131
258.4432, 1700.237
258.9253, 1697.953
259.4074, 1704.061
259.8896, 1725.754
260.3717, 1742.901
260.8538, 1743.590
261.3359, 1720.007
261.8180, 1703.090
262.3001, 1695.165
262.7823, 1694.316
263.2644, 1694.309
263.7465, 1694.055
264.2286, 1696.848
264.7107, 1706.933
265.1928, 1729.749
265.6750, 1739.556
266.1571, 1729.307
266.6392, 1707.267
267.1213, 1700.120
267.6034, 1713.451
268.0855, 1729.171
268.5677, 1736.879
269.0498, 1735.063
269.5319, 1731.821
270.0140, 1726.538
270.4961, 1720.766
270.9782, 1719.739
271.4604, 1724.644
271.9425, 1731.070
272.4246, 1738.093
272.9067, 1747.094
273.3888, 1747.822
273.8709, 1737.430
274.3531, 1719.361
274.8352, 1702.632
275.3173, 1686.839
275.7994, 1674.038
276.2815, 1667.078
276.7636, 1666.856
277.2457, 1663.801
277.7278, 1657.698
278.2100, 1647.555
278.6921, 1629.360
279.1742, 1601.851
279.6563, 1572.322
280.1384, 1545.016
280.6205, 1520.298
281.1027, 1496.166
281.5848, 1472.499
282.0669, 1449.475
282.5490, 1426.926
283.0311, 1404.586
283.5132, 1384.925
283.9954, 1370.476
284.4775, 1361.018
284.9596, 1352.005
285.4417, 1343.531
285.9238, 1334.375
286.4059, 1319.409
286.8881, 1298.313
287.3702, 1281.064
287.8523, 1278.788
288.3344, 1288.734
288.8165, 1288.820
289.2986, 1273.956
289.7808, 1252.248
290.2629, 1239.203
290.7450, 1234.710
291.2271, 1231.094
291.7092, 1221.952
292.1913, 1209.139
292.6735, 1201.568
293.1556, 1202.527
293.6377, 1204.985
294.1198, 1193.945
294.6019, 1171.114
295.0840, 1153.966
295.5662, 1158.482
296.0483, 1177.245
296.5304, 1188.816
297.0125, 1188.774
297.4946, 1185.855
297.9767, 1192.853
298.4589, 1208.036
298.9410, 1222.630
299.4231, 1229.909
299.9052, 1233.033
300.3873, 1237.365
300.8694, 1243.133
301.3516, 1251.366
301.8337, 1263.688
302.3158, 1279.654
302.7979, 1297.422
303.2800, 1316.297
303.7621, 1336.268
304.2443, 1357.460
304.7264, 1379.221
305.2085, 1403.282
305.6906, 1434.573
306.1727, 1469.732
306.6548, 1501.357
307.1370, 1521.090
307.6191, 1537.352
308.1012, 1558.473
308.5833, 1585.374
309.0654, 1615.513
309.5475, 1648.827
310.0297, 1683.584
310.5118, 1717.079
310.9939, 1751.008
311.4760, 1780.803
311.9581, 1801.125
312.4402, 1809.744
312.9224, 1819.708
313.4045, 1840.436
313.8866, 1867.026
314.3687, 1891.854
314.8508, 1918.375
315.3329, 1937.345
315.8151, 1940.404
316.2972, 1925.351
316.7793, 1911.263
317.2614, 1907.571
317.7435, 1908.818
318.2256, 1908.514
318.7078, 1909.127
319.1899, 1903.889
319.6720, 1888.384
320.1541, 1861.970
320.6362, 1834.519
321.1183, 1805.711
321.6005, 1778.820
322.0826, 1757.104
322.5647, 1749.849
323.0468, 1739.295
323.5289, 1719.192
324.0110, 1689.121
324.4932, 1660.297
324.9753, 1637.888
325.4574, 1615.975
325.9395, 1590.199
326.4216, 1553.445
326.9037, 1520.160
327.3859, 1495.457
327.8680, 1478.878
328.3501, 1454.651
328.8322, 1412.410
329.3143, 1370.221
329.7964, 1339.277
330.2786, 1330.232
330.7607, 1317.187
331.2428, 1294.138
331.7249, 1264.157
332.2070, 1245.579
332.6891, 1246.456
333.1712, 1249.588
333.6534, 1245.546
334.1355, 1232.595
334.6176, 1216.003
335.0997, 1193.949
335.5818, 1168.872
336.0639, 1147.828
336.5461, 1130.688
337.0282, 1117.686
337.5103, 1109.567
337.9924, 1107.833
338.4745, 1104.533
338.9566, 1098.993
339.4388, 1092.064
339.9209, 1085.730
340.4030, 1080.492
340.8851, 1073.930
341.3672, 1064.047
341.8493, 1050.560
342.3315, 1039.805
342.8136, 1031.619
343.2957, 1026.562
343.7778, 1026.675
344.2599, 1032.114
344.7420, 1037.232
345.2242, 1039.649
345.7063, 1039.649
346.1884, 1039.268
346.6705, 1039.024
347.1526, 1035.760
347.6347, 1022.195
348.1169, 1000.640
348.5990, 983.4378
349.0811, 976.4230
349.5632, 976.9093
350.0453, 981.1152
350.5274, 989.1271
351.0096, 996.7021
351.4917, 1000.547
351.9738, 1001.077
352.4559, 999.0776
352.9380, 992.0781
353.4201, 985.0414
353.9023, 984.3512
354.3844, 989.5980
354.8665, 997.0584
355.3486, 1007.613
355.8307, 1017.756
356.3128, 1022.594
356.7950, 1017.429
357.2771, 1011.148
357.7592, 1011.600
358.2413, 1016.844
358.7234, 1019.737
359.2055, 1010.410
359.6877, 1000.663
360.1698, 1000.712
360.6519, 1016.996
361.1340, 1034.127
361.6161, 1045.284
362.0982, 1052.533
362.5804, 1060.342
363.0625, 1072.200
363.5446, 1083.419
364.0267, 1090.950
364.5088, 1092.436
364.9909, 1096.424
365.4731, 1105.933
365.9552, 1118.739
366.4373, 1131.675
366.9194, 1144.261
367.4015, 1156.984
367.8836, 1168.504
368.3658, 1176.889
368.8479, 1193.572
369.3300, 1226.316
369.8121, 1263.319
370.2942, 1292.560
370.7763, 1307.193
371.2585, 1324.020
371.7406, 1346.071
372.2227, 1373.014
372.7048, 1401.021
373.1869, 1431.104
373.6690, 1460.503
374.1512, 1487.285
374.6333, 1510.908
375.1154, 1533.556
375.5975, 1555.662
376.0796, 1577.151
376.5617, 1596.881
377.0439, 1614.127
377.5260, 1631.878
378.0081, 1652.847
378.4902, 1677.609
378.9723, 1698.815
379.4544, 1716.350
379.9366, 1729.910
380.4187, 1740.244
380.9008, 1747.384
381.3829, 1747.644
381.8650, 1736.263
382.3471, 1715.745
382.8293, 1697.308
383.3114, 1681.443
383.7935, 1666.174
384.2756, 1650.469
384.7577, 1633.477
385.2398, 1612.325
385.7219, 1581.611
386.2040, 1547.226
386.6862, 1518.645
387.1683, 1495.545
387.6504, 1473.521
388.1325, 1448.566
388.6146, 1422.152
389.0967, 1397.341
389.5789, 1374.200
390.0610, 1353.638
390.5431, 1336.156
391.0252, 1321.967
391.5073, 1311.994
391.9894, 1312.085
392.4716, 1313.637
392.9537, 1308.777
393.4358, 1291.570
393.9179, 1275.940
394.4000, 1268.432
394.8821, 1266.320
395.3643, 1263.303
395.8464, 1250.014
396.3285, 1241.510
396.8106, 1246.668
397.2927, 1272.375
397.7748, 1292.668
398.2570, 1300.142
398.7391, 1301.803
399.2212, 1306.759
399.7033, 1313.323
400.1854, 1325.443
400.6675, 1345.574
401.1497, 1374.106
401.6318, 1401.029
402.1139, 1426.415
402.5960, 1450.158
403.0781, 1471.206
403.5602, 1486.198
404.0424, 1507.061
404.5245, 1536.563
405.0066, 1572.923
405.4887, 1610.125
405.9708, 1648.652
406.4529, 1686.888
406.9351, 1721.910
407.4172, 1753.162
407.8993, 1794.659
408.3814, 1849.906
408.8635, 1911.850
409.3456, 1966.041
409.8278, 2013.172
410.3099, 2066.521
410.7920, 2134.858
411.2741, 2214.287
411.7562, 2292.789
412.2383, 2370.894
412.7205, 2446.513
413.2026, 2515.166
413.6847, 2581.276
414.1668, 2655.169
414.6489, 2748.109
415.1310, 2845.607
415.6132, 2932.800
416.0953, 3011.054
416.5774, 3085.441
417.0595, 3161.791
417.5416, 3236.396
418.0237, 3306.950
418.5059, 3373.260
418.9880, 3433.448
419.4701, 3490.975
419.9522, 3541.885
420.4343, 3574.625
420.9164, 3581.597
421.3986, 3572.337
421.8807, 3553.510
422.3628, 3530.388
422.8449, 3482.782
423.3270, 3395.922
423.8091, 3286.688
424.2913, 3174.551
424.7734, 3061.889
425.2555, 2948.085
425.7376, 2834.265
426.2197, 2720.440
426.7018, 2603.568
427.1840, 2475.518
427.6661, 2351.297
428.1482, 2242.664
428.6303, 2153.375
429.1124, 2066.182
429.5945, 1977.180
430.0767, 1889.843
430.5588, 1813.175
431.0409, 1748.508
431.5230, 1691.184
432.0051, 1640.249
432.4872, 1595.421
432.9694, 1550.533
433.4515, 1503.299
433.9336, 1460.349
434.4157, 1435.325
434.8978, 1425.491
435.3799, 1410.229
435.8621, 1376.110
436.3442, 1333.112
436.8263, 1302.839
437.3084, 1284.762
437.7905, 1269.303
438.2726, 1245.474
438.7548, 1219.925
439.2369, 1204.027
439.7190, 1205.360
440.2011, 1209.751
440.6832, 1206.886
441.1653, 1198.090
441.6474, 1187.107
442.1295, 1171.419
442.6117, 1157.135
443.0938, 1148.588
443.5759, 1147.288
444.0580, 1148.101
444.5401, 1151.874
445.0222, 1156.037
445.5044, 1157.399
445.9865, 1152.285
446.4686, 1147.522
446.9507, 1144.254
447.4328, 1142.500
447.9149, 1143.075
448.3971, 1147.321
448.8792, 1152.711
449.3613, 1157.499
449.8434, 1159.897
450.3255, 1165.687
450.8076, 1175.770
451.2898, 1189.076
451.7719, 1202.717
452.2540, 1216.153
452.7361, 1231.467
453.2182, 1252.577
453.7003, 1279.048
454.1825, 1292.964
454.6646, 1291.718
455.1467, 1287.164
455.6288, 1292.951
456.1109, 1308.044
456.5930, 1325.896
457.0752, 1344.786
457.5573, 1364.715
458.0394, 1385.465
458.5215, 1407.109
459.0036, 1428.645
459.4857, 1451.274
459.9679, 1472.922
460.4500, 1489.628
460.9321, 1500.105
461.4142, 1508.537
461.8963, 1515.824
462.3784, 1523.435
462.8606, 1534.116
463.3427, 1554.131
463.8248, 1573.367
464.3069, 1586.849
464.7890, 1594.418
465.2711, 1597.988
465.7533, 1599.319
466.2354, 1596.141
466.7175, 1586.664
467.1996, 1561.791
467.6817, 1541.420
468.1638, 1530.233
468.6460, 1524.767
469.1281, 1512.421
469.6102, 1489.800
470.0923, 1465.479
470.5744, 1443.047
471.0565, 1423.623
471.5387, 1400.046
472.0208, 1370.460
472.5029, 1339.799
472.9850, 1313.084
473.4671, 1290.295
473.9492, 1272.574
474.4314, 1262.286
474.9135, 1256.177
475.3956, 1244.467
475.8777, 1227.159
476.3598, 1209.559
476.8419, 1195.661
477.3241, 1184.493
477.8062, 1174.882
478.2883, 1167.726
478.7704, 1158.659
479.2525, 1140.790
479.7346, 1117.797
480.2168, 1097.840
480.6989, 1084.724
481.1810, 1075.478
481.6631, 1068.766
482.1452, 1064.451
482.6273, 1061.170
483.1095, 1057.871
483.5916, 1055.620
484.0737, 1055.370
484.5558, 1062.767
485.0379, 1065.251
485.5201, 1058.161
486.0022, 1044.836
486.4843, 1034.255
486.9664, 1027.112
487.4485, 1022.077
487.9306, 1020.208
488.4128, 1022.936
488.8949, 1017.233
489.3770, 998.6168
489.8591, 978.7766
490.3412, 969.8016
490.8233, 972.4446
491.3055, 979.8356
491.7876, 992.9409
492.2697, 1007.842
492.7518, 1013.503
493.2339, 1010.076
493.7160, 1007.036
494.1982, 1011.817
494.6803, 1021.104
495.1624, 1026.524
495.6445, 1027.178
496.1266, 1027.218
496.6087, 1031.176
497.0908, 1037.095
497.5729, 1041.631
498.0551, 1038.967
498.5372, 1038.645
499.0193, 1051.044
499.5014, 1072.767
499.9835, 1087.905
500.4656, 1083.176
500.9478, 1075.118
501.4299, 1072.888
501.9120, 1078.903
502.3941, 1087.847
502.8762, 1103.639
503.3583, 1120.322
503.8405, 1129.746
504.3226, 1124.399
504.8047, 1123.361
505.2868, 1132.358
505.7689, 1149.562
506.2510, 1159.474
506.7332, 1159.870
507.2153, 1158.051
507.6974, 1158.709
508.1795, 1161.900
508.6616, 1164.865
509.1437, 1167.578
509.6259, 1169.616
510.1080, 1170.041
510.5901, 1169.092
511.0722, 1168.177
511.5543, 1169.151
512.0364, 1169.733
512.5186, 1165.588
513.0007, 1157.154
513.4828, 1148.653
513.9649, 1140.537
514.4470, 1134.975
514.9291, 1135.560
515.4113, 1146.443
515.8934, 1154.378
516.3755, 1151.248
516.8576, 1141.514
517.3397, 1132.248
517.8218, 1125.995
518.3040, 1119.664
518.7861, 1111.577
519.2682, 1101.601
519.7503, 1094.890
520.2324, 1097.058
520.7145, 1096.716
521.1967, 1085.509
521.6788, 1055.805
522.1609, 1038.019
522.6430, 1036.755
523.1251, 1043.665
523.6072, 1044.530
524.0894, 1039.056
524.5715, 1031.204
525.0536, 1020.742
525.5357, 1009.379
526.0178, 1003.672
526.4999, 1003.555
526.9821, 1002.372
527.4642, 992.2136
527.9463, 977.9694
528.4284, 969.7930
528.9105, 971.2753
529.3926, 971.9164
529.8748, 960.3192
530.3569, 942.3329
530.8390, 928.2076
531.3211, 925.6290
531.8032, 924.4352
532.2853, 920.0483
532.7675, 912.5630
533.2496, 905.4777
533.7317, 897.0598
534.2138, 891.0732
534.6959, 890.3291
535.1780, 901.9803
535.6602, 904.1702
536.1423, 891.3471
536.6244, 873.2065
537.1065, 864.6193
537.5886, 868.6682
538.0707, 871.7583
538.5529, 869.8867
539.0350, 864.4543
539.5171, 862.0532
539.9992, 862.9036
540.4813, 863.4340
540.9634, 859.4237
541.4456, 853.0536
541.9277, 851.2103
542.4098, 854.9683
542.8919, 860.7715
543.3740, 867.6344
543.8561, 873.5931
544.3383, 875.0553
544.8204, 862.8049
545.3025, 852.8564
545.7846, 860.8349
546.2667, 881.1939
546.7488, 890.6232
547.2310, 867.0676
547.7131, 842.0484
548.1952, 831.7781
548.6773, 844.3945
549.1594, 852.0727
549.6415, 851.0993
550.1237, 846.9984
550.6058, 845.1352
551.0879, 846.3325
551.5700, 847.6443
552.0521, 848.5396
552.5342, 849.3378
553.0164, 851.3632
553.4985, 854.8229
553.9806, 857.5016
554.4627, 857.3474
554.9448, 855.3608
555.4269, 855.5813
555.9091, 858.1143
556.3912, 861.5119
556.8733, 865.0075
557.3554, 868.3304
557.8375, 871.0182
558.3196, 872.9973
558.8018, 874.2511
559.2839, 871.0770
559.7660, 867.3581
560.2481, 871.1251
560.7302, 895.6953
561.2123, 918.5469
561.6945, 929.5255
562.1766, 927.4277
562.6587, 926.5698
563.1408, 925.5271
563.6229, 928.0239
564.1050, 936.6439
564.5872, 953.9219
565.0693, 971.0838
565.5514, 988.5472
566.0335, 1005.290
566.5156, 1017.328
566.9977, 1023.989
567.4799, 1036.890
567.9620, 1059.139
568.4441, 1090.305
568.9262, 1136.109
569.4083, 1194.693
569.8904, 1241.468
570.3726, 1248.549
570.8547, 1239.241
571.3368, 1245.349
571.8189, 1271.575
572.3010, 1301.439
572.7831, 1329.613
573.2653, 1353.677
573.7474, 1370.477
574.2295, 1380.281
574.7116, 1381.771
575.1937, 1374.348
575.6758, 1358.355
576.1580, 1334.786
576.6401, 1293.722
577.1222, 1257.943
577.6042, 1235.797
578.0864, 1227.791
578.5685, 1216.956
579.0506, 1201.556
579.5327, 1187.796
580.0148, 1180.914
580.4969, 1180.722
580.9791, 1183.656
581.4612, 1190.126
581.9433, 1196.985
582.4254, 1196.661
582.9075, 1192.505
583.3896, 1194.669
583.8718, 1213.468
584.3539, 1235.721
584.8360, 1247.260
585.3181, 1250.791
585.8002, 1260.312
586.2823, 1294.640
586.7645, 1327.628
587.2466, 1343.295
587.7287, 1336.659
588.2108, 1324.228
588.6929, 1306.677
589.1750, 1284.831
589.6572, 1259.010
590.1393, 1227.844
590.6214, 1194.838
591.1035, 1157.381
591.5856, 1120.174
592.0677, 1095.009
592.5499, 1082.457
593.0320, 1076.207
593.5141, 1077.274
593.9962, 1081.987
594.4783, 1076.363
594.9604, 1060.788
595.4426, 1047.735
595.9247, 1046.605
596.4068, 1053.620
596.8889, 1065.221
597.3710, 1082.533
597.8531, 1097.708
598.3353, 1108.023
598.8174, 1113.380
599.2995, 1113.657
599.7816, 1111.300
600.2637, 1101.042
600.7458, 1078.770
601.2280, 1047.012
601.7101, 1014.650
602.1922, 977.2163
602.6743, 946.9089
603.1564, 930.8453
603.6385, 928.8724
604.1207, 920.4947
604.6028, 903.9985
605.0849, 888.2037
605.5670, 883.1915
606.0491, 886.2985
606.5313, 884.5495
607.0134, 874.6905
607.4955, 865.3010
607.9776, 868.0110
608.4597, 877.7959
608.9418, 884.8879
609.4240, 883.6180
609.9061, 880.0039
610.3882, 875.7374
610.8703, 871.4908
611.3524, 869.9553
611.8345, 874.8893
612.3167, 879.9477
612.7988, 881.2804
613.2809, 877.4453
613.7630, 880.1669
614.2451, 892.8118
614.7272, 907.2777
615.2094, 916.1080
615.6915, 918.1713
616.1736, 924.6913
616.6557, 937.5560
617.1378, 953.0390
617.6199, 966.0648
618.1021, 976.8250
618.5842, 986.0779
619.0663, 992.2164
619.5484, 998.8008
620.0305, 1008.934
620.5126, 1022.890
620.9948, 1041.913
621.4769, 1069.710
621.9590, 1100.103
622.4411, 1129.714
622.9232, 1158.542
623.4053, 1186.091
623.8875, 1207.280
624.3696, 1230.782
624.8517, 1263.242
625.3338, 1311.373
625.8159, 1351.922
626.2980, 1381.247
626.7802, 1406.760
627.2623, 1437.443
627.7444, 1473.048
628.2265, 1520.601
628.7086, 1587.483
629.1907, 1661.698
629.6729, 1716.495
630.1550, 1755.170
630.6371, 1792.981
631.1192, 1839.233
631.6013, 1888.053
632.0834, 1932.826
632.5656, 1973.557
633.0477, 2016.341
633.5298, 2067.411
634.0119, 2119.824
634.4940, 2168.692
634.9761, 2215.708
635.4583, 2255.115
635.9404, 2288.219
636.4225, 2312.700
636.9046, 2326.549
637.3867, 2329.830
637.8688, 2321.724
638.3510, 2302.203
638.8331, 2271.245
639.3152, 2229.493
639.7973, 2177.106
640.2794, 2110.530
640.7615, 2019.424
641.2437, 1918.123
641.7258, 1826.750
642.2079, 1745.307
642.6900, 1667.216
643.1721, 1584.592
643.6542, 1506.621
644.1364, 1439.660
644.6185, 1387.305
645.1006, 1339.626
645.5827, 1293.792
646.0648, 1252.667
646.5469, 1219.761
647.0291, 1202.249
647.5112, 1176.869
647.9933, 1137.092
648.4754, 1093.464
648.9575, 1070.125
649.4396, 1068.133
649.9218, 1060.715
650.4039, 1035.336
650.8860, 1002.776
651.3681, 988.5813
651.8502, 989.7410
652.3323, 989.1998
652.8145, 973.9415
653.2966, 954.2379
653.7787, 938.5695
654.2608, 927.6141
654.7429, 919.1406
655.2250, 914.1112
655.7072, 909.9783
656.1893, 904.9198
656.6714, 897.3470
657.1535, 892.2390
657.6356, 892.3513
658.1177, 892.3117
658.5999, 884.1027
659.0820, 865.1627
659.5641, 853.8672
660.0462, 855.6068
660.5283, 862.7738
661.0104, 859.9919
661.4926, 849.1656
661.9747, 840.3151
662.4568, 839.3087
662.9389, 841.7117
663.4210, 843.9129
663.9031, 845.5928
664.3853, 845.2554
664.8674, 840.1874
665.3495, 834.5016
665.8316, 830.3341
666.3137, 827.9727
666.7958, 826.3077
667.2780, 824.1516
667.7601, 823.5981
668.2422, 826.6655
668.7243, 834.8677
669.2064, 840.2226
669.6885, 842.2208
670.1707, 841.8365
670.6528, 838.8024
671.1349, 833.9359
671.6170, 832.3338
672.0991, 836.3299
672.5812, 842.1765
673.0634, 846.7467
673.5455, 849.8618
674.0276, 851.0572
674.5097, 849.2897
674.9918, 846.4142
675.4739, 838.9898
675.9561, 829.2996
676.4382, 832.0162
676.9203, 867.8107
677.4024, 895.9482
677.8845, 898.5031
678.3666, 873.0342
678.8488, 866.1062
679.3309, 882.0189
679.8130, 903.2626
680.2951, 917.6485
680.7772, 925.8029
681.2593, 930.5774
681.7415, 931.4102
682.2236, 934.2250
682.7057, 948.9007
683.1878, 968.4390
683.6699, 981.7747
684.1520, 982.6212
684.6342, 982.9092
685.1163, 988.9694
685.5984, 997.8943
686.0805, 1004.840
686.5626, 1010.571
687.0447, 1012.074
687.5268, 1007.300
688.0089, 998.1667
688.4910, 991.8026
688.9731, 988.8664
689.4553, 985.3264
689.9374, 977.6499
690.4195, 968.2728
690.9016, 968.6026
691.3837, 977.9308
691.8658, 984.9559
692.3480, 974.8454
692.8301, 961.8576
693.3122, 963.1328
693.7943, 981.0195
694.2764, 1002.781
694.7585, 1029.189
695.2407, 1053.370
695.7228, 1070.112
696.2049, 1076.028
696.6870, 1079.009
697.1691, 1074.990
697.6512, 1072.067
698.1334, 1083.184
698.6155, 1111.266
699.0976, 1128.183
699.5797, 1127.228
700.0618, 1117.838
700.5439, 1117.137
701.0261, 1122.102
701.5082, 1121.679
701.9903, 1110.919
702.4724, 1093.063
702.9545, 1068.316
703.4366, 1038.380
703.9188, 1008.917
704.4009, 981.3803
704.8830, 955.1653
705.3651, 927.9456
705.8472, 899.9158
706.3293, 882.5968
706.8115, 880.4555
707.2936, 881.0372
707.7757, 878.2453
708.2578, 872.1431
708.7399, 865.4880
709.2220, 858.5249
709.7042, 849.2729
710.1863, 831.6942
710.6684, 811.7267
711.1505, 801.8602
711.6326, 805.4595
712.1147, 810.3084
712.5969, 809.6069
713.0790, 805.5498
713.5611, 800.3900
714.0432, 794.3720
714.5253, 787.5880
715.0074, 779.7168
715.4896, 771.2547
715.9717, 761.9045
716.4538, 750.2305
716.9359, 743.9842
717.4180, 746.0227
717.9001, 752.9498
718.3823, 757.6555
718.8644, 760.4327
719.3465, 763.1016
719.8286, 766.2437
720.3107, 769.8848
720.7928, 776.6827
721.2750, 784.7000
721.7571, 786.3182
722.2392, 769.5413
722.7213, 753.4249
723.2034, 748.5603
723.6855, 755.9074
724.1677, 758.3218
724.6498, 751.1354
725.1319, 746.5097
725.6140, 753.9205
726.0961, 773.5760
726.5782, 780.8222
727.0604, 774.3945
727.5425, 766.3120
728.0246, 770.1144
728.5067, 779.3933
728.9888, 780.4424
729.4709, 769.3953
729.9531, 760.8400
730.4352, 769.0105
730.9173, 781.9666
731.3994, 787.6692
731.8815, 777.1884
732.3636, 768.4886
732.8458, 761.8364
733.3279, 758.1547
733.8100, 759.6978
734.2921, 767.9744
734.7742, 773.9420
735.2563, 775.7677
735.7385, 774.9368
736.2206, 772.4317
736.7027, 769.1614
737.1848, 769.4590
737.6669, 779.3157
738.1490, 789.1102
738.6312, 788.0774
739.1133, 779.8165
739.5954, 774.3686
740.0775, 779.9219
740.5596, 784.1083
741.0417, 780.1995
741.5239, 770.0520
742.0060, 766.8224
742.4881, 773.8090
742.9702, 779.7270
743.4523, 778.0821
743.9344, 770.5875
744.4166, 769.0110
744.8987, 773.3152
745.3808, 776.9675
745.8629, 771.2290
746.3450, 764.0710
746.8271, 768.1298
747.3093, 784.8087
747.7914, 797.2421
748.2735, 795.6155
748.7556, 788.4382
749.2377, 781.9316
749.7198, 778.2474
750.2020, 770.3228
750.6841, 757.8434
751.1662, 741.8165
751.6483, 717.8042
752.1304, 685.7853
752.6125, 676.8032
753.0947, 696.9235
753.5768, 726.7020
754.0589, 746.3302
754.5410, 758.8759
755.0231, 769.7687
755.5052, 781.1845
755.9874, 789.7739
756.4695, 793.3557
756.9516, 793.1461
757.4337, 790.7550
757.9158, 779.7598
758.3979, 776.6176
758.8801, 787.3372
759.3622, 803.5002
759.8443, 807.7073
760.3264, 798.8740
760.8085, 791.3602
761.2906, 789.0477
761.7728, 790.5137
762.2549, 796.8723
762.7370, 805.5247
763.2191, 808.1177
763.7012, 790.0068
764.1833, 774.4474
764.6655, 779.0174
765.1476, 798.8212
765.6297, 812.9653
766.1118, 814.5035
766.5939, 813.8702
767.0760, 812.8480
767.5582, 811.6523
768.0403, 812.4736
768.5224, 815.6453
769.0045, 818.0658
769.4866, 819.9930
769.9688, 819.4471
770.4509, 806.8884
770.9330, 784.3624
771.4151, 769.5115
771.8972, 782.3397
772.3793, 800.5087
772.8615, 806.9380
773.3436, 799.2302
773.8257, 795.2061
774.3078, 797.0615
774.7899, 803.6674
775.2720, 816.5882
775.7542, 837.0301
776.2363, 849.3699
776.7184, 853.0386
777.2005, 851.5616
777.6826, 844.7520
778.1647, 835.5628
778.6469, 832.7717
779.1290, 837.8232
779.6111, 839.8688
780.0932, 823.2414
780.5753, 804.8571
781.0574, 801.8521
781.5396, 826.1698
782.0217, 841.9637
782.5038, 841.6624
782.9859, 836.4150
783.4680, 836.8535
783.9501, 844.6896
784.4323, 843.4033
784.9144, 829.1316
785.3965, 815.5110
785.8786, 824.2001
786.3607, 845.8657
786.8428, 857.8520
787.3250, 852.2014
787.8071, 844.2738
788.2892, 841.2710
788.7713, 842.7118
789.2534, 847.9672
789.7355, 865.0081
790.2177, 874.4002
790.6998, 871.6431
791.1819, 863.8565
791.6640, 861.0854
792.1461, 863.6301
792.6282, 867.8411
793.1104, 873.9268
793.5925, 879.2145
794.0746, 878.2465
794.5567, 873.6271
795.0388, 871.4053
795.5209, 875.8884
796.0031, 880.5132
796.4852, 881.3957
796.9672, 880.3155
797.4493, 880.8893
797.9315, 886.3364
798.4136, 888.7327
798.8957, 885.6203
799.3778, 879.8068
799.8599, 877.8522
800.3420, 879.7097
800.8242, 882.6584
801.3063, 885.9130
801.7884, 889.5871
802.2705, 894.8115
802.7526, 900.5405
803.2347, 904.2577
803.7169, 905.4637
804.1990, 903.7448
804.6811, 897.2700
805.1632, 887.5130
805.6453, 879.3525
806.1274, 871.5211
806.6096, 868.3091
807.0917, 871.9249
807.5738, 880.1318
808.0559, 887.6146
808.5380, 894.0912
809.0201, 896.5953
809.5023, 888.9711
809.9844, 880.3944
810.4665, 882.2569
810.9486, 891.6520
811.4307, 898.9092
811.9128, 901.7158
812.3950, 900.2958
812.8771, 891.3067
813.3592, 877.6145
813.8413, 873.3102
814.3234, 880.7834
814.8055, 888.6786
815.2877, 892.6271
815.7698, 893.7574
816.2519, 894.9932
816.7340, 896.2722
817.2161, 897.1959
817.6982, 898.0364
818.1804, 898.0259
818.6625, 895.4459
819.1446, 891.0392
819.6267, 889.0638
820.1088, 893.9102
820.5909, 897.2540
821.0731, 895.5125
821.5552, 890.0704
822.0373, 890.0856
822.5194, 896.0070
823.0015, 902.6888
823.4836, 908.9228
823.9658, 913.4588
824.4479, 913.1819
824.9300, 908.7127
825.4121, 903.3704
825.8942, 896.2221
826.3763, 890.9838
826.8585, 891.2255
827.3406, 896.5206
827.8227, 897.2677
828.3048, 891.4092
828.7869, 884.9054
829.2690, 880.1563
829.7512, 876.7499
830.2333, 871.7806
830.7154, 865.5673
831.1975, 863.3102
831.6796, 871.1301
832.1617, 882.4131
832.6439, 891.8273
833.1260, 898.8999
833.6081, 902.0319
834.0902, 898.5957
834.5723, 893.0377
835.0544, 884.7664
835.5366, 874.9278
836.0187, 875.2766
836.5008, 887.9041
836.9829, 901.1281
837.4650, 912.9294
837.9471, 919.7093
838.4293, 907.0923
838.9114, 879.0636
839.3935, 857.4078
839.8756, 858.8271
840.3577, 866.7009
840.8398, 871.4738
841.3220, 873.2596
841.8041, 877.7233
842.2862, 888.5939
842.7683, 896.2377
843.2504, 896.2460
843.7325, 890.5806
844.2147, 888.5784
844.6968, 890.1125
845.1789, 892.1225
845.6610, 893.6930
846.1431, 894.3113
846.6252, 893.0851
847.1074, 890.3146
847.5895, 887.2095
848.0716, 883.5348
848.5537, 880.3904
849.0358, 877.7347
849.5179, 875.8674
850.0001, 876.7197
850.4822, 881.1066
850.9643, 884.2565
851.4464, 883.8147
851.9285, 881.3316
852.4106, 880.3721
852.8928, 880.4758
853.3749, 879.9867
853.8570, 875.4614
854.3391, 872.6237
854.8212, 878.4636
855.3033, 889.3601
855.7855, 889.9035
856.2676, 870.8154
856.7497, 858.2026
857.2318, 860.4711
857.7139, 871.8166
858.1960, 876.3109
858.6782, 874.5032
859.1603, 871.9238
859.6424, 869.5008
860.1245, 868.8679
860.6066, 874.4569
861.0887, 882.9224
861.5709, 886.7249
862.0530, 879.0067
862.5351, 871.8885
863.0172, 866.7530
863.4993, 864.1478
863.9814, 866.1089
864.4636, 873.2761
864.9457, 878.2278
865.4278, 878.1534
865.9099, 876.7637
866.3920, 880.8969
866.8741, 887.8983
867.3563, 892.2006
867.8384, 891.4514
868.3205, 888.0139
868.8026, 878.7988
869.2847, 868.9210
869.7668, 866.9406
870.2490, 877.4095
870.7311, 883.0331
871.2132, 879.9403
871.6953, 874.9592
872.1774, 882.0942
872.6595, 896.5090
873.1417, 900.0494
873.6238, 884.7148
874.1059, 868.5803
874.5880, 866.2188
875.0701, 870.0688
875.5522, 871.5776
876.0344, 866.0322
876.5165, 862.9655
876.9986, 862.7473
877.4807, 864.5283
877.9628, 868.1375
878.4449, 873.3143
878.9271, 877.2051
879.4092, 879.4650
879.8913, 880.7623
880.3734, 880.1293
880.8555, 879.7169
881.3376, 882.8261
881.8198, 891.8473
882.3019, 897.3285
882.7840, 895.1710
883.2661, 891.0966
883.7482, 887.9423
884.2303, 885.4485
884.7125, 887.4274
885.1946, 894.5723
885.6767, 900.5317
886.1588, 898.4229
886.6409, 892.3109
887.1230, 887.3248
887.6052, 883.9343
888.0873, 882.9963
888.5694, 888.2435
889.0515, 893.0170
889.5336, 893.2583
890.0157, 888.9138
890.4979, 887.0057
890.9800, 888.6795
891.4621, 887.4595
891.9442, 875.2358
892.4263, 858.6239
892.9084, 853.5499
893.3906, 858.7115
893.8727, 866.3321
894.3548, 872.1483
894.8369, 879.4779
895.3190, 891.7435
895.8011, 907.7938
896.2833, 919.5428
896.7654, 927.0654
897.2475, 930.2335
897.7296, 928.3247
898.2117, 922.6705
898.6938, 914.6433
899.1760, 905.3160
899.6581, 899.3271
900.1402, 899.3484
900.6223, 902.7007
901.1044, 910.8588
901.5865, 920.7506
902.0687, 925.1418
902.5508, 921.1285
903.0329, 916.1065
903.5150, 910.2572
903.9971, 904.8121
904.4792, 902.3082
904.9614, 902.3383
905.4435, 902.4481
905.9256, 901.5153
906.4077, 902.1897
906.8898, 909.8123
907.3719, 918.9493
907.8540, 922.8154
908.3361, 914.7086
908.8182, 910.7086
909.3004, 911.7878
909.7825, 916.3512
910.2646, 926.1263
910.7467, 939.8960
911.2288, 939.6057
911.7109, 922.5302
912.1931, 908.0229
912.6752, 917.6642
913.1573, 935.1469
913.6394, 943.2681
914.1215, 938.3099
914.6036, 936.0305
915.0858, 938.6597
915.5679, 944.7728
916.0500, 956.1627
916.5321, 971.7687
917.0142, 974.7617
917.4963, 965.2896
917.9785, 958.3173
918.4606, 966.7479
918.9427, 980.6008
919.4248, 989.9141
919.9069, 994.9485
920.3890, 999.4644
920.8712, 1003.309
921.3533, 1008.192
921.8354, 1014.883
922.3175, 1022.741
922.7996, 1030.224
923.2817, 1037.325
923.7639, 1043.271
924.2460, 1048.632
924.7281, 1051.453
925.2102, 1044.356
925.6923, 1034.004
926.1744, 1032.877
926.6566, 1057.591
927.1387, 1075.114
927.6208, 1074.884
928.1029, 1069.946
928.5850, 1080.336
929.0671, 1107.086
929.5493, 1120.755
930.0314, 1115.576
930.5135, 1107.213
930.9956, 1112.649
931.4777, 1125.306
931.9598, 1136.564
932.4420, 1144.265
932.9241, 1153.414
933.4062, 1165.651
933.8883, 1179.355
934.3704, 1194.514
934.8525, 1211.273
935.3347, 1224.521
935.8168, 1234.095
936.2989, 1242.776
936.7810, 1249.001
937.2631, 1257.638
937.7452, 1276.258
938.2274, 1303.918
938.7095, 1330.648
939.1916, 1356.246
939.6737, 1376.921
940.1558, 1391.125
940.6379, 1399.509
941.1201, 1401.214
941.6022, 1396.231
942.0843, 1401.807
942.5664, 1429.713
943.0485, 1463.858
943.5306, 1484.385
944.0128, 1497.279
944.4949, 1514.062
944.9770, 1537.798
945.4591, 1567.009
945.9412, 1606.210
946.4233, 1645.726
946.9055, 1672.370
947.3876, 1686.439
947.8697, 1697.070
948.3518, 1703.697
948.8339, 1718.297
949.3160, 1758.884
949.7982, 1810.532
950.2803, 1855.853
950.7624, 1889.108
951.2445, 1929.618
951.7266, 1981.805
952.2087, 2038.580
952.6909, 2092.574
953.1730, 2145.455
953.6551, 2224.403
954.1372, 2327.987
954.6193, 2436.945
955.1014, 2527.278
955.5836, 2624.860
956.0657, 2755.524
956.5478, 2914.782
957.0299, 3076.559
957.5120, 3224.387
957.9941, 3392.132
958.4763, 3586.568
958.9584, 3803.687
959.4405, 4029.389
959.9226, 4266.395
960.4047, 4533.762
960.8868, 4843.412
961.3690, 5167.056
961.8511, 5468.597
962.3332, 5778.917
962.8153, 6143.761
963.2974, 6599.144
963.7795, 7058.122
964.2617, 7522.909
964.7438, 7995.848
965.2259, 8465.925
965.7080, 8939.225
966.1901, 9428.607
966.6722, 9931.009
967.1544, 10438.82
967.6365, 10975.38
968.1186, 11487.93
968.6007, 11945.09
969.0828, 12347.78
969.5649, 12635.80
970.0471, 12827.11
970.5292, 12853.55
971.0113, 12685.32
971.4934, 12336.74
971.9755, 11794.94
972.4576, 11093.89
972.9398, 10325.24
973.4219, 9455.516
973.9040, 8603.452
974.3861, 7776.879
974.8682, 7004.345
975.3503, 6327.144
975.8325, 5745.581
976.3146, 5225.295
976.7967, 4761.107
977.2788, 4349.262
977.7609, 3984.915
978.2430, 3665.602
978.7252, 3386.547
979.2073, 3149.123
979.6894, 2941.086
980.1715, 2775.875
980.6536, 2629.243
981.1357, 2488.832
981.6179, 2355.230
982.1000, 2242.909
982.5821, 2151.185
983.0642, 2071.325
983.5463, 2003.596
984.0284, 1941.537
984.5106, 1879.432
984.9927, 1817.574
985.4748, 1756.937
985.9569, 1691.505
986.4390, 1636.382
986.9211, 1594.919
987.4033, 1563.392
987.8854, 1535.756
988.3675, 1511.891
988.8496, 1491.791
989.3317, 1476.242
989.8138, 1460.672
990.2960, 1436.910
990.7781, 1413.838
991.2602, 1402.570
991.7423, 1408.819
992.2244, 1407.227
992.7065, 1396.838
993.1887, 1381.016
993.6708, 1355.357
994.1529, 1326.890
994.6350, 1320.149
995.1171, 1331.975
995.5992, 1346.013
996.0814, 1353.419
996.5635, 1361.010
997.0456, 1371.431
997.5277, 1384.529
998.0098, 1400.091
998.4919, 1418.812
998.9741, 1436.734
999.4562, 1452.906
999.9383, 1468.224
1000.420, 1479.656
1000.903, 1492.345
1001.385, 1515.494
1001.867, 1553.307
1002.349, 1594.482
1002.831, 1642.086
1003.313, 1686.018
1003.795, 1716.383
1004.277, 1734.129
1004.759, 1765.985
1005.242, 1812.172
1005.724, 1862.117
1006.206, 1911.952
1006.688, 1961.146
1007.170, 2008.426
1007.652, 2054.879
1008.134, 2106.005
1008.616, 2167.368
1009.099, 2223.510
1009.581, 2270.525
1010.063, 2313.975
1010.545, 2362.514
1011.027, 2416.667
1011.509, 2476.661
1011.991, 2542.484
1012.473, 2614.196
1012.955, 2697.045
1013.438, 2782.943
1013.920, 2872.085
1014.402, 2969.471
1014.884, 3029.396
1015.366, 3053.463
1015.848, 3032.173
1016.330, 2947.766
1016.812, 2820.851
1017.294, 2674.012
1017.777, 2511.119
1018.259, 2346.695
1018.741, 2167.029
1019.223, 2008.838
1019.705, 1881.750
1020.187, 1776.240
1020.669, 1673.868
1021.151, 1576.822
1021.633, 1498.052
1022.116, 1440.510
1022.598, 1398.978
1023.080, 1381.970
1023.562, 1370.501
1024.044, 1344.980
1024.526, 1298.925
1025.008, 1262.494
1025.490, 1236.981
1025.973, 1215.715
1026.455, 1194.898
1026.937, 1175.836
1027.419, 1162.512
1027.901, 1153.762
1028.383, 1145.885
1028.865, 1135.424
1029.347, 1127.707
1029.829, 1128.664
1030.312, 1130.727
1030.794, 1120.685
1031.276, 1097.558
1031.758, 1087.950
1032.240, 1097.125
1032.722, 1105.762
1033.204, 1087.717
1033.686, 1064.818
1034.169, 1062.618
1034.651, 1086.255
1035.133, 1098.497
1035.615, 1092.682
1036.097, 1083.606
1036.579, 1075.139
1037.061, 1068.936
1037.543, 1070.576
1038.026, 1078.757
1038.508, 1089.112
1038.990, 1103.568
1039.472, 1114.619
1039.954, 1116.519
1040.436, 1115.078
1040.918, 1115.659
1041.400, 1117.162
1041.882, 1129.851
1042.365, 1155.259
1042.847, 1183.430
1043.329, 1205.737
1043.811, 1226.041
1044.293, 1249.167
1044.775, 1275.166
1045.257, 1298.385
1045.739, 1310.660
1046.221, 1332.682
1046.704, 1372.181
1047.186, 1421.746
1047.668, 1468.639
1048.150, 1512.617
1048.632, 1550.528
1049.114, 1579.109
1049.596, 1608.443
1050.078, 1644.632
1050.561, 1683.651
1051.043, 1722.234
1051.525, 1760.480
1052.007, 1798.352
1052.489, 1836.356
1052.971, 1867.935
1053.453, 1894.540
1053.935, 1907.913
1054.417, 1891.049
1054.900, 1852.088
1055.382, 1816.405
1055.864, 1796.833
1056.346, 1770.010
1056.828, 1730.152
1057.310, 1686.302
1057.792, 1644.252
1058.274, 1609.118
1058.756, 1599.451
1059.239, 1619.653
1059.721, 1646.206
1060.203, 1658.755
1060.685, 1680.532
1061.167, 1729.540
1061.649, 1803.123
1062.131, 1860.707
1062.613, 1901.240
1063.096, 1966.915
1063.578, 2082.952
1064.060, 2222.113
1064.542, 2354.858
1065.024, 2488.579
1065.506, 2632.216
1065.988, 2777.548
1066.470, 2952.278
1066.953, 3153.604
1067.435, 3393.432
1067.917, 3683.533
1068.399, 4019.541
1068.881, 4388.430
1069.363, 4785.719
1069.845, 5197.028
1070.327, 5599.984
1070.809, 6026.306
1071.292, 6488.854
1071.774, 6979.317
1072.256, 7516.000
1072.738, 8094.217
1073.220, 8625.769
1073.702, 9119.953
1074.184, 9422.154
1074.666, 9411.756
1075.148, 9119.945
1075.630, 8530.279
1076.113, 7583.313
1076.595, 6641.478
1077.077, 5678.653
1077.559, 4806.099
1078.041, 4080.429
1078.523, 3493.227
1079.005, 3047.113
1079.487, 2719.727
1079.970, 2451.691
1080.452, 2238.871
1080.934, 2063.917
1081.416, 1928.499
1081.898, 1818.274
1082.380, 1720.727
1082.862, 1636.666
1083.344, 1574.232
1083.827, 1533.928
1084.309, 1504.260
1084.791, 1484.638
1085.273, 1467.569
1085.755, 1448.336
1086.237, 1428.074
1086.719, 1409.357
1087.201, 1391.260
1087.683, 1383.992
1088.166, 1391.763
1088.648, 1404.644
1089.130, 1411.316
1089.612, 1416.618
1090.094, 1426.026
1090.576, 1440.580
1091.058, 1459.067
1091.540, 1479.808
1092.022, 1507.514
1092.505, 1547.299
1092.987, 1593.458
1093.469, 1627.457
1093.951, 1655.584
1094.433, 1697.052
1094.915, 1778.221
1095.397, 1845.580
1095.879, 1879.421
1096.362, 1901.131
1096.844, 1929.628
1097.326, 1964.018
1097.808, 1997.918
1098.290, 2030.391
1098.772, 2042.726
1099.254, 2008.197
1099.736, 1963.535
1100.219, 1936.071
1100.701, 1916.654
1101.183, 1873.786
1101.665, 1802.020
1102.147, 1738.131
1102.629, 1690.499
1103.111, 1648.407
1103.593, 1598.728
1104.075, 1549.143
1104.557, 1510.659
1105.040, 1486.718
1105.522, 1452.142
1106.004, 1400.129
1106.486, 1349.114
1106.968, 1305.020
1107.450, 1266.318
1107.932, 1226.099
1108.414, 1188.314
1108.897, 1162.514
1109.379, 1160.030
1109.861, 1152.895
1110.343, 1130.311
1110.825, 1105.164
1111.307, 1086.065
1111.789, 1072.565
1112.271, 1056.677
1112.754, 1039.174
1113.236, 1027.077
1113.718, 1028.991
1114.200, 1031.957
1114.682, 1030.430
1115.164, 1024.791
1115.646, 1014.566
1116.128, 998.6289
1116.610, 989.0275
1117.093, 987.1465
1117.575, 988.3635
1118.057, 994.0260
1118.539, 996.5527
1119.021, 984.4559
1119.503, 959.6904
1119.985, 948.0731
1120.467, 954.8394
1120.949, 960.5704
1121.432, 960.4916
1121.914, 957.3093
1122.396, 955.8416
1122.878, 953.5587
1123.360, 944.3519
1123.842, 923.7496
1124.324, 914.3098
1124.806, 925.6324
1125.289, 935.4279
1125.771, 931.3406
1126.253, 919.4030
1126.735, 917.8504
1127.217, 923.7310
1127.699, 928.0179
1128.181, 928.3999
1128.663, 924.4838
1129.146, 909.8915
1129.628, 896.6170
1130.110, 896.7340
1130.592, 909.0201
1131.074, 910.4490
1131.556, 901.8241
1132.038, 895.1910
1132.520, 900.7926
1133.002, 907.4584
1133.484, 909.5833
1133.967, 908.3989
1134.449, 906.0140
1134.931, 902.2917
1135.413, 899.1001
1135.895, 896.6709
1136.377, 894.7214
1136.859, 891.7365
1137.341, 890.0874
1137.824, 893.4323
1138.306, 900.9428
1138.788, 903.4233
1139.270, 898.8613
1139.752, 897.7624
1140.234, 903.8607
1140.716, 910.5845
1141.198, 909.2919
1141.681, 903.2715
1142.163, 895.0604
1142.645, 883.4752
1143.127, 882.9352
1143.609, 900.0947
1144.091, 913.2769
1144.573, 911.4984
1145.055, 902.2092
1145.537, 900.5923
1146.020, 903.5790
1146.502, 904.0601
1146.984, 897.4400
1147.466, 893.9249
1147.948, 895.6071
1148.430, 899.6354
1148.912, 905.1469
1149.394, 911.3445
1149.876, 914.0356
1150.359, 914.0739
1150.841, 915.3342
1151.323, 924.1175
1151.805, 928.5038
1152.287, 922.9573
1152.769, 913.2534
1153.251, 902.7836
1153.733, 892.4186
1154.216, 895.5361
1154.698, 911.6612
1155.180, 922.1829
1155.662, 905.2386
1156.144, 890.0840
1156.626, 899.2648
1157.108, 918.4790
1157.590, 919.7726
1158.073, 903.0480
1158.555, 891.6945
1159.037, 889.4504
1159.519, 888.1647
1160.001, 876.4672
1160.483, 866.9244
1160.965, 873.8505
1161.447, 893.1180
1161.929, 897.9627
1162.411, 886.4488
1162.894, 882.6642
1163.376, 896.2318
1163.858, 908.8156
1164.340, 895.0587
1164.822, 873.7292
1165.304, 866.0870
1165.786, 875.9391
1166.268, 878.6489
1166.751, 871.9993
1167.233, 869.9926
1167.715, 881.0888
1168.197, 895.7261
1168.679, 902.7404
1169.161, 903.7421
1169.643, 900.4522
1170.125, 889.1638
1170.608, 884.6453
1171.090, 888.4131
1171.572, 893.7939
1172.054, 898.0142
1172.536, 899.9453
1173.018, 896.3636
1173.500, 889.0983
1173.982, 882.3796
1174.464, 874.5944
1174.947, 872.9333
1175.429, 879.6804
1175.911, 887.7982
1176.393, 891.1194
1176.875, 891.3176
1177.357, 892.7476
1177.839, 894.5108
1178.321, 892.2153
1178.803, 879.2069
1179.286, 868.9532
1179.768, 862.9210
1180.250, 861.1937
1180.732, 865.4097
1181.214, 873.6704
1181.696, 882.3160
1182.178, 890.7423
1182.660, 896.5338
1183.142, 900.6541
1183.625, 897.9330
1184.107, 882.6723
1184.589, 865.8874
1185.071, 871.4767
1185.553, 891.5002
1186.035, 899.3227
1186.517, 890.1379
1186.999, 883.5837
1187.482, 894.5111
1187.964, 902.2917
1188.446, 897.9727
1188.928, 886.3596
1189.410, 877.3962
1189.892, 871.9678
1190.374, 875.7488
1190.856, 893.0476
1191.339, 904.7215
1191.821, 895.9794
1192.303, 884.8256
1192.785, 880.2763
1193.267, 880.8626
1193.749, 880.1750
1194.231, 878.7279
1194.713, 879.5373
1195.195, 885.9076
1195.677, 888.9129
1196.160, 876.1328
1196.642, 866.1879
1197.124, 875.1536
1197.606, 899.5725
1198.088, 906.9799
1198.570, 899.2861
1199.052, 887.0808
1199.534, 867.5384
1200.017, 856.4509
1200.499, 870.7487
1200.981, 889.5095
1201.463, 892.7530
1201.945, 880.8624
1202.427, 880.4943
1202.909, 890.0818
1203.391, 895.6392
1203.874, 886.5228
1204.356, 874.4049
1204.838, 858.6535
1205.320, 847.3496
1205.802, 852.3410
1206.284, 873.1373
1206.766, 885.4606
1207.248, 888.5497
1207.730, 884.3397
1208.213, 863.0979
1208.695, 846.9366
1209.177, 853.9854
1209.659, 869.4714
1210.141, 871.6971
1210.623, 861.1819
1211.105, 857.0667
1211.587, 860.7883
1212.069, 865.1141
1212.552, 866.3077
1213.034, 865.2386
1213.516, 860.6191
1213.998, 854.8219
1214.480, 852.3143
1214.962, 852.9009
1215.444, 852.5854
1215.926, 850.8270
1216.409, 850.1539
1216.891, 851.8370
1217.373, 855.7814
1217.855, 864.2966
1218.337, 874.1339
1218.819, 876.2688
1219.301, 871.4193
1219.783, 869.1703
1220.266, 871.3843
1220.748, 873.9056
1221.230, 874.6564
1221.712, 873.8684
1222.194, 870.1856
1222.676, 865.6004
1223.158, 869.3142
1223.640, 879.6982
1224.122, 880.3521
1224.604, 865.0120
1225.087, 853.4779
1225.569, 864.1420
1226.051, 877.4227
1226.533, 881.1947
1227.015, 877.4872
1227.497, 875.1501
1227.979, 873.7052
1228.461, 868.7150
1228.944, 856.4514
1229.426, 849.8406
1229.908, 862.1476
1230.390, 876.8853
1230.872, 884.0210
1231.354, 884.8393
1231.836, 884.9711
1232.318, 884.3429
1232.801, 882.4548
1233.283, 878.6524
1233.765, 874.8474
1234.247, 872.3958
1234.729, 869.6997
1235.211, 864.5200
1235.693, 858.3970
1236.175, 862.9315
1236.657, 874.7773
1237.140, 879.3069
1237.622, 866.5326
1238.104, 855.0788
1238.586, 850.1464
1239.068, 850.6556
1239.550, 858.1694
1240.032, 870.5947
1240.514, 878.2731
1240.996, 881.8409
1241.479, 883.2458
1241.961, 882.2257
1242.443, 880.9286
1242.925, 879.7287
1243.407, 878.5920
1243.889, 877.0970
1244.371, 875.6786
1244.853, 876.0446
1245.336, 878.0446
1245.818, 881.3688
1246.300, 892.2957
1246.782, 893.4456
1247.264, 878.0150
1247.746, 862.1866
1248.228, 859.4208
1248.710, 866.0435
1249.193, 874.4213
1249.675, 883.2473
1250.157, 888.3870
1250.639, 888.9709
1251.121, 882.8219
1251.603, 864.6589
1252.085, 852.4749
1252.567, 870.1253
1253.049, 899.8201
1253.531, 907.8228
1254.014, 899.0585
1254.496, 891.0183
1254.978, 887.0042
1255.460, 886.6089
1255.942, 890.6084
1256.424, 895.2507
1256.906, 898.7979
1257.388, 899.8228
1257.871, 893.6832
1258.353, 883.2788
1258.835, 878.3491
1259.317, 883.3032
1259.799, 883.5782
1260.281, 877.3038
1260.763, 871.9725
1261.245, 878.2797
1261.728, 885.5721
1262.210, 876.9813
1262.692, 860.5054
1263.174, 862.3815
1263.656, 889.3380
1264.138, 904.1198
1264.620, 903.3654
1265.102, 896.4017
1265.584, 886.4407
1266.067, 877.5661
1266.549, 871.2037
1267.031, 869.4614
1267.513, 878.3683
1267.995, 899.5522
1268.477, 908.0282
1268.959, 901.5547
1269.441, 894.4205
1269.923, 899.3458
1270.406, 904.7104
1270.888, 901.4308
1271.370, 894.6989
1271.852, 893.3776
1272.334, 897.0111
1272.816, 899.5541
1273.298, 900.4827
1273.780, 899.8026
1274.263, 892.7564
1274.745, 890.6074
1275.227, 902.9925
##END=



