##NAMES=Skutterudite
##RRUFFID=R100195
##IDEAL CHEMISTRY=Co^3+^As_3_
##LOCALITY=Skutterud, Norway
##OWNER=RRUFF
##SOURCE=Royal Ontario Museum
##DESCRIPTION=Massive silver metallic associated with quartz
##STATUS=The identification of this mineral is confirmed by single-crystal X-ray diffraction and chemical analysis.
##URL=rruff.info/R100195
##MEASURED CHEMISTRY=(Co_0.90_Fe_0.08_Ni_0.05_)_Σ=1.03_(As_2.97_S_0.03_)_Σ=3.00_
160.9945, 50.37764
161.4766, 50.34779
161.9587, 50.98201
162.4408, 51.12805
162.9229, 50.39569
163.4050, 49.39669
163.8871, 48.66914
164.3693, 48.41334
164.8514, 48.50536
165.3335, 48.66740
165.8156, 49.09632
166.2977, 49.31926
166.7798, 49.11860
167.2620, 48.71117
167.7441, 48.44478
168.2262, 48.49182
168.7083, 48.71885
169.1904, 48.71914
169.6725, 48.27686
170.1547, 48.02803
170.6368, 48.43053
171.1189, 49.28562
171.6010, 49.92129
172.0831, 50.04983
172.5652, 49.72639
173.0474, 49.13215
173.5295, 48.04296
174.0116, 47.11009
174.4937, 46.96981
174.9758, 47.61924
175.4579, 48.19495
175.9401, 48.08579
176.4222, 47.83718
176.9043, 48.07871
177.3864, 49.03000
177.8685, 50.24327
178.3506, 51.24422
178.8328, 52.08364
179.3149, 52.50561
179.7970, 52.05542
180.2791, 51.33759
180.7612, 50.81195
181.2433, 50.62179
181.7255, 50.77679
182.2076, 51.43499
182.6897, 53.27002
183.1718, 54.31313
183.6539, 53.67213
184.1360, 52.38000
184.6181, 51.50976
185.1003, 51.59479
185.5824, 52.34684
186.0645, 52.76135
186.5466, 52.91778
187.0287, 52.55345
187.5108, 51.04626
187.9930, 49.16975
188.4751, 47.90652
188.9572, 47.82815
189.4393, 48.73646
189.9214, 49.55455
190.4035, 50.37695
190.8857, 51.00384
191.3678, 51.37245
191.8499, 51.51755
192.3320, 51.47161
192.8141, 51.22950
193.2962, 50.83008
193.7784, 50.57710
194.2605, 50.02178
194.7426, 50.02024
195.2247, 51.26491
195.7068, 53.37693
196.1889, 55.30272
196.6711, 56.41365
197.1532, 56.78917
197.6353, 57.06065
198.1174, 57.40234
198.5995, 57.50183
199.0816, 56.93850
199.5638, 55.83473
200.0459, 55.04774
200.5280, 55.26439
201.0101, 56.12389
201.4922, 56.50132
201.9743, 56.19993
202.4565, 55.56916
202.9386, 54.67989
203.4207, 53.51081
203.9028, 52.77580
204.3849, 53.31889
204.8670, 54.39495
205.3492, 54.89906
205.8313, 54.40179
206.3134, 53.56596
206.7955, 53.25215
207.2776, 53.58359
207.7597, 53.86402
208.2419, 53.73828
208.7240, 53.41193
209.2061, 53.03914
209.6882, 52.64144
210.1703, 52.27384
210.6524, 52.14309
211.1346, 52.53023
211.6167, 52.39908
212.0988, 51.10639
212.5809, 49.33870
213.0630, 47.59337
213.5451, 46.01106
214.0273, 44.81725
214.5094, 44.73632
214.9915, 46.92921
215.4736, 48.09023
215.9557, 46.86880
216.4378, 44.79734
216.9200, 43.50208
217.4021, 43.73702
217.8842, 44.79924
218.3663, 44.65445
218.8484, 41.93104
219.3305, 39.95491
219.8127, 39.44130
220.2948, 39.66500
220.7769, 39.92493
221.2590, 39.90247
221.7411, 39.64465
222.2232, 39.28086
222.7054, 38.40142
223.1875, 37.93383
223.6696, 38.26585
224.1517, 38.91645
224.6338, 39.30801
225.1159, 39.18290
225.5980, 38.73768
226.0802, 38.54179
226.5623, 38.91989
227.0444, 39.16760
227.5265, 39.08495
228.0086, 38.88650
228.4907, 38.87679
228.9729, 39.19208
229.4550, 39.68513
229.9371, 39.96061
230.4192, 39.77283
230.9013, 39.76223
231.3834, 40.14960
231.8656, 40.74586
232.3477, 41.34475
232.8298, 41.90430
233.3119, 42.28472
233.7940, 42.03680
234.2761, 40.79718
234.7583, 39.95082
235.2404, 40.01707
235.7225, 40.67535
236.2046, 41.37381
236.6867, 41.93229
237.1688, 42.47762
237.6510, 43.32090
238.1331, 44.53684
238.6152, 45.55562
239.0973, 46.08276
239.5794, 46.28448
240.0615, 46.54105
240.5437, 47.01250
241.0258, 47.44011
241.5079, 47.34994
241.9900, 46.73759
242.4721, 46.36686
242.9542, 46.84556
243.4364, 47.81308
243.9185, 48.26385
244.4006, 47.78338
244.8827, 47.15605
245.3648, 47.18361
245.8469, 47.78826
246.3290, 48.51693
246.8112, 49.45275
247.2933, 50.37086
247.7754, 50.45568
248.2575, 49.12693
248.7396, 47.75239
249.2217, 47.67646
249.7039, 48.51512
250.1860, 48.95050
250.6681, 47.80577
251.1502, 45.61113
251.6323, 44.44363
252.1144, 45.02644
252.5966, 45.62011
253.0787, 44.94382
253.5608, 43.49022
254.0429, 42.37458
254.5250, 42.48288
255.0071, 43.43711
255.4893, 43.70537
255.9714, 42.83155
256.4535, 41.98162
256.9356, 41.73646
257.4177, 41.85391
257.8998, 41.96203
258.3820, 41.91831
258.8641, 41.69198
259.3462, 41.12156
259.8283, 39.90805
260.3104, 38.84267
260.7925, 38.09962
261.2747, 37.64471
261.7568, 37.51581
262.2389, 37.82270
262.7210, 38.29579
263.2031, 38.08364
263.6852, 36.65224
264.1674, 35.43081
264.6495, 34.74757
265.1316, 34.41387
265.6137, 34.23115
266.0958, 34.11101
266.5779, 34.11613
267.0601, 34.47028
267.5422, 35.62696
268.0243, 36.28523
268.5064, 36.05733
268.9885, 35.44574
269.4706, 34.84630
269.9528, 34.40518
270.4349, 34.08343
270.9170, 33.80853
271.3991, 33.57541
271.8812, 33.41126
272.3633, 33.38333
272.8455, 33.37094
273.3276, 33.26050
273.8097, 33.03372
274.2918, 32.78315
274.7739, 32.61850
275.2560, 32.42159
275.7382, 32.60163
276.2202, 33.64626
276.7024, 34.62680
277.1845, 34.88804
277.6666, 34.38641
278.1487, 33.57777
278.6308, 32.96939
279.1129, 32.51958
279.5951, 32.45543
280.0772, 33.21896
280.5593, 33.91935
281.0414, 33.88748
281.5235, 33.25761
282.0056, 32.77040
282.4878, 33.20987
282.9699, 34.79375
283.4520, 35.72943
283.9341, 35.72361
284.4162, 35.46885
284.8983, 35.09809
285.3805, 34.69740
285.8626, 34.36542
286.3447, 34.16578
286.8268, 34.10057
287.3089, 34.28867
287.7910, 35.18491
288.2732, 35.82918
288.7553, 35.89843
289.2374, 35.51319
289.7195, 34.85576
290.2016, 33.99586
290.6837, 33.03810
291.1659, 32.57331
291.6480, 33.14191
292.1301, 33.57063
292.6122, 33.56385
293.0943, 33.32993
293.5764, 33.15707
294.0586, 33.17577
294.5407, 33.34306
295.0228, 33.54383
295.5049, 34.16831
295.9870, 34.32831
296.4691, 33.45067
296.9513, 32.32640
297.4334, 31.84612
297.9155, 32.28994
298.3976, 33.23762
298.8797, 34.01757
299.3618, 34.72939
299.8440, 35.00120
300.3261, 34.54047
300.8082, 33.83307
301.2903, 33.18267
301.7724, 32.68017
302.2545, 32.37358
302.7367, 32.35662
303.2188, 32.76757
303.7009, 32.91522
304.1830, 32.53605
304.6651, 32.13333
305.1472, 31.85334
305.6294, 31.79461
306.1115, 32.27864
306.5936, 33.75618
307.0757, 36.34111
307.5578, 37.43476
308.0399, 35.85814
308.5221, 34.24767
309.0042, 33.93237
309.4863, 34.55095
309.9684, 34.96129
310.4505, 34.38674
310.9326, 33.01988
311.4148, 32.23269
311.8969, 32.62573
312.3790, 32.80700
312.8611, 31.92956
313.3432, 30.71668
313.8253, 30.51641
314.3075, 32.01044
314.7896, 34.41114
315.2717, 35.69507
315.7538, 35.06660
316.2359, 34.46148
316.7180, 33.95036
317.2001, 33.56828
317.6823, 33.36893
318.1644, 33.36469
318.6465, 33.50988
319.1286, 33.77186
319.6107, 34.35230
320.0928, 34.50194
320.5750, 33.65364
321.0571, 32.77653
321.5392, 32.78327
322.0213, 33.68247
322.5034, 34.64348
322.9855, 34.80364
323.4677, 34.00912
323.9498, 33.49553
324.4319, 33.55405
324.9140, 33.57755
325.3961, 33.10579
325.8782, 32.30400
326.3604, 31.71675
326.8425, 31.74398
327.3246, 32.33160
327.8067, 32.87484
328.2888, 33.81160
328.7709, 34.22698
329.2531, 33.34856
329.7352, 31.88634
330.2173, 31.11808
330.6994, 31.68958
331.1815, 32.97489
331.6636, 33.27704
332.1458, 31.04163
332.6279, 29.73078
333.1100, 30.12516
333.5921, 31.15866
334.0742, 31.87633
334.5563, 31.98359
335.0385, 31.64411
335.5206, 31.03243
336.0027, 29.81854
336.4848, 29.23358
336.9669, 29.73007
337.4490, 30.42200
337.9312, 30.78021
338.4133, 30.75987
338.8954, 30.57265
339.3775, 30.41448
339.8596, 30.29708
340.3417, 30.05057
340.8239, 29.56160
341.3060, 29.08054
341.7881, 28.57613
342.2702, 28.15103
342.7523, 28.00599
343.2344, 28.27702
343.7166, 28.89180
344.1987, 29.49807
344.6808, 30.67953
345.1629, 31.13492
345.6450, 30.04894
346.1271, 28.45489
346.6093, 27.56260
347.0914, 27.80453
347.5735, 28.61468
348.0556, 28.89740
348.5377, 28.13360
349.0198, 27.78369
349.5020, 28.22964
349.9841, 28.74864
350.4662, 28.63098
350.9483, 27.93926
351.4304, 27.49946
351.9125, 28.41674
352.3947, 31.11749
352.8768, 32.29633
353.3589, 30.38651
353.8410, 28.52659
354.3231, 27.79093
354.8052, 27.96692
355.2874, 28.44111
355.7695, 28.85370
356.2516, 29.17061
356.7337, 29.18093
357.2158, 28.49036
357.6979, 28.02893
358.1800, 28.10945
358.6621, 28.42666
359.1443, 28.62873
359.6264, 28.58200
360.1085, 28.44607
360.5906, 28.55966
361.0727, 29.13273
361.5548, 29.39695
362.0370, 29.16029
362.5191, 28.70348
363.0012, 28.08494
363.4833, 27.36413
363.9654, 26.72259
364.4475, 26.26328
364.9297, 25.96837
365.4118, 26.20439
365.8939, 27.87876
366.3760, 29.07279
366.8581, 28.64487
367.3402, 27.19602
367.8224, 25.97715
368.3045, 25.74067
368.7866, 26.22166
369.2687, 26.67064
369.7508, 27.08141
370.2329, 27.46997
370.7151, 28.09304
371.1972, 28.58444
371.6793, 28.45153
372.1614, 27.48949
372.6435, 26.36643
373.1256, 25.87628
373.6078, 26.04491
374.0899, 26.50390
374.5720, 27.65067
375.0541, 28.63141
375.5362, 28.72000
376.0183, 27.97564
376.5005, 27.12592
376.9826, 26.56401
377.4647, 26.26690
377.9468, 26.17952
378.4289, 26.37941
378.9110, 26.61227
379.3932, 26.76312
379.8753, 26.82250
380.3574, 26.73965
380.8395, 26.38281
381.3216, 25.98336
381.8037, 25.82614
382.2859, 25.91345
382.7680, 26.09964
383.2501, 26.33982
383.7322, 26.64057
384.2143, 27.07922
384.6964, 27.77530
385.1786, 28.18150
385.6607, 27.69868
386.1428, 26.67709
386.6249, 26.05822
387.1070, 26.09942
387.5891, 26.48100
388.0713, 27.03171
388.5534, 27.72793
389.0355, 28.00381
389.5176, 27.21362
389.9997, 26.28151
390.4818, 26.37355
390.9640, 27.47057
391.4461, 28.28097
391.9282, 27.80627
392.4103, 26.31414
392.8924, 25.37354
393.3745, 25.09955
393.8567, 25.19201
394.3388, 25.85971
394.8209, 26.77750
395.3030, 27.25444
395.7851, 27.00761
396.2672, 26.39720
396.7494, 26.04049
397.2315, 25.99218
397.7136, 26.10009
398.1957, 26.56359
398.6778, 27.04449
399.1599, 27.33730
399.6420, 27.38578
400.1241, 27.06942
400.6063, 26.16165
401.0884, 24.61324
401.5705, 24.11775
402.0526, 25.43747
402.5347, 26.80267
403.0168, 27.83679
403.4990, 28.52796
403.9811, 28.86141
404.4632, 28.82447
404.9453, 28.56183
405.4274, 28.41109
405.9095, 28.34414
406.3917, 28.46021
406.8738, 29.05205
407.3559, 29.59832
407.8380, 29.71591
408.3201, 29.37308
408.8022, 28.78387
409.2844, 28.06753
409.7665, 27.19186
410.2486, 26.78387
410.7307, 27.41550
411.2128, 27.91002
411.6949, 27.73731
412.1771, 27.23652
412.6592, 27.04865
413.1413, 27.56457
413.6234, 28.30671
414.1055, 28.07594
414.5876, 26.36143
415.0698, 25.23387
415.5519, 25.72972
416.0340, 26.62221
416.5161, 27.20103
416.9982, 27.35605
417.4803, 27.18718
417.9625, 26.51451
418.4446, 25.47781
418.9267, 25.12609
419.4088, 25.92480
419.8909, 26.70144
420.3730, 26.51551
420.8552, 25.77312
421.3373, 25.30162
421.8194, 25.52026
422.3015, 25.98005
422.7836, 26.17443
423.2657, 26.10466
423.7479, 25.87932
424.2300, 25.30520
424.7121, 24.82376
425.1942, 25.23052
425.6763, 26.75766
426.1584, 27.95534
426.6406, 28.13100
427.1227, 27.59539
427.6048, 26.63873
428.0869, 25.24583
428.5690, 24.21849
429.0511, 24.50518
429.5333, 26.10018
430.0154, 26.91147
430.4975, 26.41777
430.9796, 25.62331
431.4617, 24.91072
431.9438, 24.34151
432.4260, 24.02811
432.9081, 24.04155
433.3902, 24.27722
433.8723, 24.48686
434.3544, 24.50931
434.8365, 24.78649
435.3187, 25.82767
435.8008, 26.80085
436.2829, 26.88543
436.7650, 26.08183
437.2471, 25.03720
437.7292, 24.30359
438.2114, 23.87471
438.6935, 23.91974
439.1756, 25.24889
439.6577, 26.15282
440.1398, 25.97356
440.6219, 25.22294
441.1040, 24.53728
441.5862, 24.18843
442.0683, 24.13998
442.5504, 24.42648
443.0325, 25.28831
443.5146, 25.74548
443.9967, 25.16879
444.4789, 24.62418
444.9610, 24.77655
445.4431, 25.50476
445.9252, 26.20297
446.4073, 26.43226
446.8894, 26.28589
447.3716, 26.15372
447.8537, 26.14162
448.3358, 25.87516
448.8179, 24.83958
449.3000, 23.61164
449.7821, 22.83051
450.2643, 22.67058
450.7464, 22.75290
451.2285, 22.74709
451.7106, 22.69752
452.1927, 22.84638
452.6748, 23.28325
453.1570, 23.84021
453.6391, 24.41899
454.1212, 25.00044
454.6033, 25.45081
455.0854, 25.83899
455.5675, 26.00740
456.0497, 25.56726
456.5318, 24.66290
457.0139, 24.23192
457.4960, 24.95041
457.9781, 26.20268
458.4602, 26.16627
458.9424, 23.93925
459.4245, 22.52445
459.9066, 23.12325
460.3887, 24.40783
460.8708, 25.02571
461.3529, 24.78760
461.8351, 24.30563
462.3172, 24.16346
462.7993, 24.38112
463.2814, 24.32890
463.7635, 23.89739
464.2456, 23.34347
464.7278, 22.48675
465.2099, 21.62231
465.6920, 21.13587
466.1741, 21.17365
466.6562, 21.59927
467.1383, 22.27124
467.6205, 23.39994
468.1026, 24.13148
468.5847, 24.18351
469.0668, 24.05621
469.5489, 23.79397
470.0310, 23.52334
470.5132, 23.52482
470.9953, 24.07059
471.4774, 24.90711
471.9595, 25.37082
472.4416, 25.38722
472.9237, 25.30785
473.4059, 25.24972
473.8880, 25.14796
474.3701, 24.90326
474.8522, 24.49953
475.3343, 24.13632
475.8164, 24.07543
476.2986, 24.14030
476.7807, 23.76537
477.2628, 22.77816
477.7449, 21.96058
478.2270, 21.99943
478.7091, 22.72360
479.1913, 23.32728
479.6734, 23.94079
480.1555, 24.23712
480.6376, 23.76767
481.1197, 22.88652
481.6018, 22.29380
482.0839, 22.20967
482.5660, 22.57391
483.0482, 23.41269
483.5303, 25.04172
484.0124, 25.90108
484.4945, 25.47294
484.9766, 24.81225
485.4587, 24.33415
485.9409, 24.08895
486.4230, 24.13144
486.9051, 24.52285
487.3872, 25.02641
487.8693, 24.88913
488.3514, 23.45663
488.8336, 22.62220
489.3157, 22.76310
489.7978, 23.25563
490.2799, 23.87508
490.7620, 24.49041
491.2441, 24.84342
491.7263, 24.57517
492.2084, 23.88054
492.6905, 23.78793
493.1726, 24.61117
493.6547, 25.28083
494.1368, 25.17370
494.6190, 24.77781
495.1011, 24.59816
495.5832, 24.75082
496.0653, 24.89004
496.5474, 24.81070
497.0295, 24.51334
497.5117, 23.82036
497.9938, 22.52436
498.4759, 21.61862
498.9580, 22.29175
499.4401, 24.16450
499.9222, 25.14115
500.4044, 24.56321
500.8865, 23.61778
501.3686, 22.56576
501.8507, 21.63174
502.3328, 21.38677
502.8149, 22.04932
503.2971, 22.99011
503.7792, 23.25961
504.2613, 22.48273
504.7434, 22.43017
505.2255, 24.12290
505.7076, 25.45490
506.1898, 25.00720
506.6719, 23.47138
507.1540, 22.39689
507.6361, 22.61503
508.1182, 23.53608
508.6003, 23.72512
509.0825, 22.74582
509.5646, 22.20750
510.0467, 22.61295
510.5288, 23.20001
511.0109, 23.66061
511.4930, 23.95028
511.9752, 24.05865
512.4573, 23.85854
512.9394, 23.54910
513.4215, 23.73387
513.9036, 24.55568
514.3857, 24.93184
514.8679, 24.01661
515.3500, 22.76361
515.8321, 22.48250
516.3142, 23.30921
516.7963, 24.08365
517.2784, 24.31842
517.7606, 24.20482
518.2427, 23.98165
518.7248, 23.67488
519.2069, 23.24296
519.6890, 22.58226
520.1711, 21.79949
520.6533, 21.46498
521.1354, 21.73542
521.6175, 22.16120
522.0996, 22.94262
522.5817, 23.68855
523.0638, 23.88604
523.5460, 23.52480
524.0281, 23.12701
524.5102, 23.24816
524.9923, 23.86118
525.4744, 23.94061
525.9565, 22.68324
526.4387, 21.95258
526.9208, 22.49786
527.4029, 23.52976
527.8850, 24.33790
528.3671, 24.71672
528.8492, 24.64071
529.3314, 23.82585
529.8135, 22.38697
530.2956, 21.43019
530.7777, 21.02235
531.2598, 21.09583
531.7419, 22.18314
532.2241, 23.60153
532.7062, 24.16568
533.1883, 23.33343
533.6704, 22.28089
534.1525, 21.63040
534.6346, 21.37435
535.1168, 21.63242
535.5989, 22.48078
536.0810, 23.30616
536.5631, 23.41509
537.0452, 22.76451
537.5273, 22.55078
538.0095, 23.25513
538.4916, 23.81744
538.9737, 23.79864
539.4558, 23.40833
539.9379, 22.92168
540.4200, 22.44575
540.9022, 22.02150
541.3843, 21.66034
541.8664, 21.28815
542.3485, 21.40078
542.8306, 22.19264
543.3127, 23.29675
543.7948, 25.06647
544.2769, 26.93619
544.7590, 28.05605
545.2411, 28.09370
545.7233, 27.50593
546.2054, 26.51698
546.6875, 25.20002
547.1696, 24.81772
547.6517, 25.94468
548.1339, 27.30451
548.6160, 27.82331
549.0981, 27.71904
549.5802, 27.53661
550.0623, 27.30963
550.5444, 27.10038
551.0266, 26.96959
551.5087, 26.88453
551.9908, 26.78435
552.4729, 26.65302
552.9550, 26.45767
553.4371, 26.15298
553.9193, 25.72240
554.4014, 25.26792
554.8835, 24.54083
555.3656, 24.06561
555.8477, 24.26952
556.3298, 24.76599
556.8120, 24.98500
557.2941, 24.72070
557.7762, 24.19708
558.2583, 23.61869
558.7404, 22.92665
559.2225, 22.72053
559.7047, 23.36945
560.1868, 24.05752
560.6689, 24.53391
561.1510, 24.75964
561.6331, 24.61146
562.1152, 23.92507
562.5974, 23.21710
563.0795, 23.09358
563.5616, 23.36453
564.0437, 23.31682
564.5258, 22.77707
565.0079, 22.02939
565.4901, 21.16538
565.9722, 20.25064
566.4543, 20.01728
566.9364, 21.22101
567.4185, 22.23689
567.9006, 22.19311
568.3828, 21.68214
568.8649, 21.68262
569.3470, 22.39217
569.8291, 23.05634
570.3112, 22.71409
570.7933, 21.27745
571.2755, 20.39832
571.7576, 20.28077
572.2397, 20.50617
572.7218, 21.31441
573.2039, 22.22863
573.6860, 22.65336
574.1682, 22.45392
574.6503, 22.15219
575.1324, 22.34306
575.6145, 22.87162
576.0966, 22.97914
576.5787, 22.50702
577.0609, 22.05530
577.5430, 21.98354
578.0251, 22.19620
578.5072, 22.47522
578.9893, 22.97478
579.4714, 23.18296
579.9536, 22.63108
580.4357, 21.82361
580.9178, 21.37481
581.3999, 21.34916
581.8820, 21.48458
582.3641, 21.59884
582.8463, 21.69123
583.3284, 21.77414
583.8105, 22.22491
584.2926, 22.08440
584.7747, 20.36440
585.2568, 18.74863
585.7390, 18.82117
586.2211, 20.38395
586.7032, 21.85208
587.1853, 21.97650
587.6674, 21.28600
588.1495, 21.33361
588.6317, 22.29934
589.1138, 22.84383
589.5959, 22.18390
590.0780, 21.25052
590.5601, 21.24761
591.0422, 22.15562
591.5244, 22.83908
592.0065, 22.79029
592.4886, 22.49675
592.9707, 22.43005
593.4528, 22.50960
593.9349, 22.30323
594.4171, 21.58008
594.8992, 20.80563
595.3813, 20.86207
595.8634, 22.24737
596.3455, 22.98328
596.8276, 22.72356
597.3098, 22.27631
597.7919, 21.93729
598.2740, 21.65404
598.7561, 21.17300
599.2382, 20.36749
599.7203, 19.77182
600.2025, 20.36075
600.6846, 22.08970
601.1667, 23.17414
601.6488, 23.27484
602.1309, 23.03881
602.6130, 22.89869
603.0952, 22.73343
603.5773, 22.23152
604.0594, 21.06199
604.5415, 20.10247
605.0236, 19.88199
605.5057, 20.12092
605.9879, 20.49749
606.4700, 20.92063
606.9521, 21.17758
607.4342, 21.03361
607.9163, 20.58576
608.3984, 20.58283
608.8806, 21.49916
609.3627, 22.21972
609.8448, 22.59636
610.3269, 22.79040
610.8090, 23.05532
611.2911, 23.30324
611.7733, 23.06369
612.2554, 21.74347
612.7375, 19.95676
613.2196, 19.16045
613.7017, 19.41880
614.1838, 19.98886
614.6660, 20.76940
615.1481, 21.63257
615.6302, 22.72003
616.1123, 23.99451
616.5944, 24.25434
617.0765, 22.20944
617.5587, 20.06567
618.0408, 19.43261
618.5229, 19.82719
619.0050, 20.03298
619.4871, 19.63103
619.9692, 19.22181
620.4514, 19.69840
620.9335, 21.25450
621.4156, 22.23213
621.8977, 22.32304
622.3798, 22.16320
622.8619, 21.79637
623.3441, 21.32644
623.8262, 20.75048
624.3083, 20.08659
624.7904, 19.73019
625.2725, 20.32977
625.7546, 21.46360
626.2367, 21.82560
626.7188, 21.27511
627.2009, 20.88602
627.6830, 21.30312
628.1652, 22.16339
628.6473, 22.63893
629.1294, 22.65815
629.6115, 22.61352
630.0936, 22.55668
630.5757, 22.45991
631.0579, 22.20777
631.5400, 21.90010
632.0221, 21.81970
632.5042, 22.11746
632.9863, 22.56001
633.4684, 22.68499
633.9506, 22.41117
634.4327, 22.23904
634.9148, 22.40679
635.3969, 22.39957
635.8790, 21.57807
636.3611, 20.52459
636.8433, 20.39544
637.3254, 21.80544
637.8075, 23.11108
638.2896, 22.81495
638.7717, 21.66763
639.2538, 21.18875
639.7360, 21.57097
640.2181, 21.96900
640.7002, 21.75033
641.1823, 21.11149
641.6644, 20.85295
642.1465, 21.31477
642.6287, 21.70728
643.1108, 22.25669
643.5929, 22.53426
644.0750, 21.87338
644.5571, 20.68121
645.0392, 20.15508
645.5214, 21.09544
646.0035, 22.57644
646.4856, 22.98127
646.9677, 22.31433
647.4498, 21.60275
647.9319, 20.88192
648.4141, 20.44924
648.8962, 20.78513
649.3783, 21.64747
649.8604, 22.11043
650.3425, 22.01304
650.8246, 21.62864
651.3068, 20.63206
651.7889, 19.63206
652.2710, 19.52806
652.7531, 20.32821
653.2352, 21.25211
653.7173, 21.69132
654.1995, 21.76458
654.6816, 21.99952
655.1637, 22.55733
655.6458, 22.88822
656.1279, 22.98810
656.6100, 22.75124
657.0922, 21.71892
657.5743, 20.23382
658.0564, 19.44665
658.5385, 20.15454
659.0206, 21.22556
659.5027, 21.59423
659.9849, 21.45738
660.4670, 21.38703
660.9491, 21.51645
661.4312, 21.61915
661.9133, 21.45019
662.3954, 21.04581
662.8776, 20.92557
663.3597, 21.60125
663.8418, 21.88687
664.3239, 21.19769
664.8060, 20.42987
665.2881, 20.41406
665.7703, 21.06208
666.2524, 21.64368
666.7345, 21.63351
667.2166, 21.39297
667.6987, 21.73256
668.1808, 22.62593
668.6630, 23.03963
669.1451, 22.62646
669.6272, 21.91579
670.1093, 21.32605
670.5914, 20.86989
671.0735, 20.61277
671.5557, 20.61409
672.0378, 20.74234
672.5199, 21.13017
673.0020, 21.52166
673.4841, 21.54967
673.9662, 21.23992
674.4484, 21.03487
674.9305, 21.35607
675.4126, 21.91104
675.8947, 21.48544
676.3768, 19.63061
676.8589, 18.85562
677.3411, 20.52636
677.8232, 22.45761
678.3053, 22.68319
678.7874, 21.67035
679.2695, 21.12149
679.7516, 21.64399
680.2338, 22.44368
680.7159, 23.47071
681.1980, 24.31309
681.6801, 24.07298
682.1622, 22.73569
682.6443, 21.40990
683.1265, 21.01488
683.6086, 21.36810
684.0907, 21.59753
684.5728, 21.71968
685.0549, 21.68001
685.5370, 21.08815
686.0192, 20.67328
686.5013, 21.15908
686.9834, 22.18363
687.4655, 22.62173
687.9476, 21.69571
688.4297, 20.70492
688.9119, 21.08881
689.3940, 22.23859
689.8761, 22.68769
690.3582, 22.18826
690.8403, 21.43889
691.3224, 20.93398
691.8046, 20.65932
692.2867, 20.55048
692.7688, 20.82600
693.2509, 20.91391
693.7330, 20.50219
694.2151, 20.17558
694.6973, 20.36581
695.1794, 20.92036
695.6615, 21.40394
696.1436, 21.60186
696.6257, 21.76558
697.1078, 22.33941
697.5900, 23.12082
698.0721, 23.27491
698.5542, 22.63789
699.0363, 22.10150
699.5184, 22.36938
700.0005, 23.12321
700.4827, 23.23471
700.9648, 22.13238
701.4469, 21.30924
701.9290, 20.69890
702.4111, 20.45174
702.8932, 20.87712
703.3754, 21.69404
703.8575, 22.39558
704.3396, 22.77563
704.8217, 22.89941
705.3038, 22.77203
705.7859, 22.43770
706.2681, 22.04474
706.7502, 21.56675
707.2323, 21.32822
707.7144, 21.58602
708.1965, 22.13535
708.6786, 22.52873
709.1607, 22.79082
709.6428, 22.83828
710.1249, 22.36045
710.6071, 21.97086
711.0892, 22.19520
711.5713, 22.69528
712.0534, 22.84922
712.5355, 22.45657
713.0176, 21.89184
713.4998, 21.50816
713.9819, 21.30458
714.4640, 21.28024
714.9461, 21.44466
715.4282, 21.75341
715.9103, 22.31039
716.3925, 22.86466
716.8746, 22.95051
717.3567, 22.49715
717.8388, 22.25807
718.3209, 22.52323
718.8030, 22.76718
719.2852, 22.65499
719.7673, 22.40992
720.2494, 22.37487
720.7315, 22.60909
721.2136, 22.87889
721.6957, 22.97223
722.1779, 22.93051
722.6600, 22.92405
723.1421, 22.97230
723.6242, 22.84868
724.1063, 22.34593
724.5884, 21.87414
725.0706, 21.92661
725.5527, 22.46491
726.0348, 22.94820
726.5169, 23.36234
726.9990, 23.70274
727.4811, 24.23989
727.9633, 24.53341
728.4454, 23.83152
728.9275, 22.31075
729.4096, 20.98134
729.8917, 20.49737
730.3738, 20.71788
730.8560, 21.60301
731.3381, 23.18671
731.8202, 24.12373
732.3023, 24.10347
732.7844, 23.62852
733.2665, 22.90161
733.7487, 22.01694
734.2308, 21.31203
734.7129, 20.70451
735.1950, 20.43379
735.6771, 20.63104
736.1592, 21.11260
736.6414, 22.02278
737.1235, 23.06735
737.6056, 23.58724
738.0877, 23.28064
738.5698, 22.59366
739.0519, 21.98805
739.5341, 21.50105
740.0162, 21.60513
740.4983, 22.49594
740.9804, 23.12358
741.4625, 22.76802
741.9446, 22.02702
742.4268, 22.11016
742.9089, 23.24957
743.3910, 23.93269
743.8731, 23.84581
744.3552, 23.48455
744.8373, 22.85398
745.3195, 22.20208
745.8016, 21.80899
746.2837, 21.75447
746.7658, 22.01745
747.2479, 22.83827
747.7300, 23.82947
748.2122, 23.72834
748.6943, 22.51400
749.1764, 21.56797
749.6585, 21.25555
750.1406, 21.41278
750.6227, 22.06482
751.1049, 23.17462
751.5870, 23.61557
752.0691, 22.90320
752.5512, 22.23502
753.0333, 21.60331
753.5154, 21.26729
753.9976, 21.61510
754.4797, 22.46042
754.9618, 23.21878
755.4439, 23.60194
755.9260, 23.74776
756.4081, 23.80029
756.8903, 23.76720
757.3724, 23.72433
757.8545, 23.69276
758.3366, 23.38809
758.8187, 22.51520
759.3008, 21.41158
759.7830, 20.92770
760.2651, 21.32704
760.7472, 21.73927
761.2293, 22.14648
761.7114, 22.58373
762.1935, 23.14165
762.6757, 23.70218
763.1578, 24.18795
763.6399, 24.56396
764.1220, 24.59433
764.6041, 23.66619
765.0862, 22.54558
765.5684, 22.64941
766.0505, 23.70722
766.5326, 24.26311
767.0147, 23.83365
767.4968, 23.11627
767.9789, 22.88038
768.4611, 23.10200
768.9432, 23.27000
769.4253, 23.57780
769.9074, 23.49101
770.3895, 22.40186
770.8716, 21.36968
771.3538, 21.10515
771.8359, 21.50641
772.3180, 22.17190
772.8001, 23.20196
773.2822, 23.99804
773.7643, 23.88551
774.2465, 23.41634
774.7286, 23.58016
775.2107, 24.28785
775.6928, 24.47564
776.1749, 23.50339
776.6570, 22.12146
777.1392, 21.94490
777.6213, 23.24716
778.1034, 23.68643
778.5855, 22.70397
779.0676, 21.90911
779.5497, 22.10008
780.0319, 22.81195
780.5140, 23.63359
780.9961, 24.60629
781.4782, 24.90111
781.9603, 23.65117
782.4424, 22.38206
782.9246, 21.95527
783.4067, 22.07850
783.8888, 22.48907
784.3709, 23.00035
784.8530, 23.08768
785.3351, 22.14262
785.8173, 20.78662
786.2994, 20.80184
786.7815, 22.19182
787.2636, 22.90521
787.7457, 22.33755
788.2278, 21.82241
788.7100, 22.43486
789.1921, 23.88792
789.6742, 25.06257
790.1563, 26.18576
790.6384, 26.63903
791.1205, 25.98949
791.6026, 25.06451
792.0847, 23.99811
792.5668, 23.09079
793.0490, 22.88385
793.5311, 23.52101
794.0132, 24.16479
794.4953, 24.03111
794.9774, 23.49854
795.4595, 23.07395
795.9417, 22.83040
796.4238, 23.29593
796.9059, 24.70268
797.3880, 25.92364
797.8701, 25.60476
798.3522, 23.87433
798.8344, 22.89949
799.3165, 23.10151
799.7986, 23.24128
800.2807, 22.81401
800.7628, 22.55570
801.2449, 23.23929
801.7271, 24.43069
802.2092, 24.88530
802.6913, 24.02442
803.1734, 23.13293
803.6555, 22.83362
804.1376, 22.86329
804.6198, 22.96000
805.1019, 23.12437
805.5840, 23.51710
806.0661, 24.19870
806.5482, 24.86590
807.0303, 25.01370
807.5125, 24.72782
807.9946, 24.91213
808.4767, 25.69522
808.9588, 26.24253
809.4409, 26.30056
809.9230, 25.96065
810.4052, 25.10908
810.8873, 23.75649
811.3694, 23.18948
811.8515, 24.06111
812.3336, 24.81810
812.8157, 25.20074
813.2979, 25.31774
813.7800, 25.04197
814.2621, 24.58982
814.7442, 24.54677
815.2263, 25.25711
815.7084, 25.91582
816.1906, 25.54129
816.6727, 24.61373
817.1548, 24.11239
817.6369, 24.06881
818.1190, 24.12438
818.6011, 24.12207
819.0833, 24.12621
819.5654, 24.21358
820.0475, 24.38108
820.5296, 24.79213
821.0117, 25.78325
821.4938, 26.32861
821.9760, 25.88559
822.4581, 25.13054
822.9402, 24.50374
823.4223, 24.03161
823.9044, 23.80234
824.3865, 23.82091
824.8687, 24.10443
825.3508, 24.97753
825.8329, 25.87867
826.3150, 26.28311
826.7971, 26.21815
827.2792, 25.82461
827.7614, 25.15632
828.2435, 24.61731
828.7256, 24.94563
829.2077, 25.81925
829.6898, 25.84595
830.1719, 24.99397
830.6541, 24.49421
831.1362, 24.91049
831.6183, 25.40235
832.1004, 24.78276
832.5825, 23.08637
833.0646, 22.86403
833.5468, 25.86042
834.0289, 27.60492
834.5110, 26.41063
834.9931, 24.96138
835.4752, 25.09298
835.9573, 26.30179
836.4395, 27.16056
836.9216, 27.34279
837.4037, 27.03397
837.8858, 25.66598
838.3679, 24.36677
838.8500, 24.65186
839.3322, 25.97692
839.8143, 26.83411
840.2964, 26.69951
840.7785, 26.07712
841.2606, 25.40527
841.7427, 24.74103
842.2249, 24.25282
842.7070, 23.93035
843.1891, 24.15959
843.6712, 25.19959
844.1533, 26.27510
844.6354, 26.72125
845.1176, 26.64621
845.5997, 26.57255
846.0818, 26.45455
846.5639, 26.41329
847.0460, 26.53394
847.5281, 26.63671
848.0103, 26.66849
848.4924, 26.61525
848.9745, 26.45902
849.4566, 26.19646
849.9387, 25.86573
850.4208, 25.26438
850.9030, 24.80461
851.3851, 24.96926
851.8672, 25.51658
852.3493, 26.05637
852.8314, 26.46570
853.3135, 26.64736
853.7957, 26.48269
854.2778, 26.17290
854.7599, 26.26030
855.2420, 26.73094
855.7241, 26.77580
856.2062, 26.18338
856.6884, 25.83010
857.1705, 26.33136
857.6526, 27.16690
858.1347, 27.35331
858.6168, 26.71634
859.0989, 26.21066
859.5811, 25.90175
860.0632, 25.63527
860.5453, 25.44089
861.0274, 25.22376
861.5095, 24.76462
861.9916, 24.17707
862.4738, 23.97094
862.9559, 24.48022
863.4380, 25.10415
863.9201, 25.51150
864.4022, 25.78155
864.8843, 26.10317
865.3665, 26.37760
865.8486, 26.19879
866.3307, 25.41005
866.8128, 24.47944
867.2949, 23.90978
867.7770, 23.69166
868.2592, 23.93476
868.7413, 24.64972
869.2234, 25.00467
869.7055, 24.73739
870.1876, 24.14441
870.6697, 23.35639
871.1519, 22.52171
871.6340, 22.56907
872.1161, 24.58025
872.5981, 25.39302
873.0803, 23.59208
873.5624, 21.94499
874.0445, 21.70382
874.5266, 22.26868
875.0087, 22.89913
875.4908, 23.52709
875.9730, 23.70240
876.4551, 22.91626
876.9372, 22.01631
877.4193, 21.40798
877.9014, 21.06835
878.3835, 21.00867
878.8657, 21.17032
879.3478, 21.39317
879.8299, 21.61037
880.3120, 21.73347
880.7941, 21.40362
881.2762, 20.89822
881.7584, 21.45409
882.2405, 23.02220
882.7226, 23.62247
883.2047, 22.25836
883.6868, 20.50645
884.1689, 20.66955
884.6511, 22.65510
885.1332, 23.31256
885.6153, 21.95804
886.0974, 21.19419
886.5795, 21.92894
887.0616, 22.87544
887.5438, 23.08858
888.0259, 22.74399
888.5080, 22.34973
888.9901, 21.79539
889.4722, 21.48585
889.9543, 21.62613
890.4365, 21.86234
890.9186, 22.26166
891.4007, 22.50943
891.8828, 21.96476
892.3649, 20.68881
892.8470, 19.84388
893.3292, 20.34217
893.8113, 21.22402
894.2934, 21.65384
894.7755, 21.78913
895.2576, 21.88936
895.7397, 21.97562
896.2219, 21.94207
896.7040, 21.73212
897.1861, 21.41600
897.6682, 21.05017
898.1503, 20.65651
898.6324, 20.42659
899.1146, 20.37349
899.5967, 20.27441
900.0788, 20.02122
900.5609, 19.85275
901.0430, 20.03412
901.5251, 20.49865
902.0073, 20.84808
902.4894, 21.21324
902.9715, 21.19057
903.4536, 20.43991
903.9357, 19.66789
904.4178, 19.12388
904.9000, 18.77608
905.3821, 18.60264
905.8642, 18.60635
906.3463, 18.69912
906.8284, 18.87199
907.3105, 19.11503
907.7927, 19.48590
908.2748, 19.87804
908.7569, 20.24728
909.2390, 20.53430
909.7211, 20.58733
910.2032, 20.30222
910.6854, 19.98906
911.1675, 19.99381
911.6496, 20.12005
912.1317, 20.04545
912.6138, 19.79779
913.0959, 19.51583
913.5781, 19.24777
914.0602, 19.00890
914.5423, 18.80441
915.0244, 18.65266
915.5065, 18.66261
915.9886, 18.83692
916.4708, 18.74279
916.9529, 18.24605
917.4350, 17.93901
917.9171, 18.19951
918.3992, 18.73574
918.8813, 19.01263
919.3635, 18.96444
919.8456, 19.19163
920.3277, 19.92418
920.8098, 20.55540
921.2919, 21.11758
921.7740, 21.38971
922.2562, 21.05069
922.7383, 20.29646
923.2204, 19.66592
923.7025, 19.07820
924.1846, 18.98717
924.6667, 20.41506
925.1489, 21.41015
925.6310, 20.20793
926.1131, 18.15322
926.5952, 17.04482
927.0773, 17.16098
927.5594, 17.82694
928.0416, 19.01910
928.5237, 20.03770
929.0058, 20.26872
929.4879, 19.90045
929.9700, 18.84750
930.4521, 17.45888
930.9343, 16.98333
931.4164, 17.91200
931.8985, 19.00146
932.3806, 18.64593
932.8627, 17.35258
933.3448, 16.74573
933.8270, 16.78522
934.3091, 17.06552
934.7912, 17.51015
935.2733, 18.09423
935.7554, 18.92022
936.2375, 19.56360
936.7197, 18.71810
937.2018, 15.82814
937.6839, 14.74412
938.1660, 16.11014
938.6481, 17.68016
939.1302, 18.92983
939.6124, 19.85338
940.0945, 20.53144
940.5766, 20.92087
941.0587, 20.59736
941.5408, 18.62188
942.0229, 17.39584
942.5051, 17.57933
942.9872, 17.93133
943.4693, 17.72837
943.9514, 17.38958
944.4335, 17.63840
944.9156, 18.52889
945.3978, 19.14146
945.8799, 19.12108
946.3620, 18.80014
946.8441, 18.04251
947.3262, 17.30108
947.8083, 16.99755
948.2905, 17.12766
948.7726, 17.65330
949.2547, 18.56850
949.7368, 19.28599
950.2189, 18.97605
950.7010, 18.44085
951.1832, 19.01028
951.6653, 20.18518
952.1474, 20.75224
952.6295, 20.49968
953.1116, 19.78550
953.5938, 18.79216
954.0759, 17.77319
954.5580, 17.03148
955.0400, 16.61882
955.5222, 17.00324
956.0043, 18.17499
956.4864, 19.05312
956.9685, 19.26927
957.4506, 19.28530
957.9327, 19.56816
958.4149, 19.99984
958.8970, 20.06268
959.3791, 19.70848
959.8612, 19.21952
960.3433, 18.59736
960.8254, 17.84598
961.3076, 16.71330
961.7897, 15.78494
962.2718, 16.00162
962.7539, 17.39298
963.2360, 18.30158
963.7181, 18.61457
964.2003, 18.60589
964.6824, 17.81737
965.1645, 17.23308
965.6466, 17.60167
966.1287, 18.43006
966.6108, 18.89502
967.0930, 18.91002
967.5751, 18.72124
968.0572, 18.16184
968.5393, 17.68259
969.0214, 17.48730
969.5035, 17.43063
969.9857, 17.35347
970.4678, 17.30000
970.9499, 17.53995
971.4320, 18.25236
971.9141, 18.49878
972.3962, 17.23406
972.8784, 15.74836
973.3605, 15.03479
973.8426, 14.94912
974.3247, 15.38558
974.8068, 16.16185
975.2889, 16.80867
975.7711, 17.06945
976.2532, 17.09388
976.7353, 16.92205
977.2174, 16.69376
977.6995, 16.56964
978.1816, 16.62283
978.6638, 17.16444
979.1459, 18.22220
979.6280, 19.27864
980.1101, 19.96795
980.5922, 20.22537
981.0743, 19.63252
981.5565, 18.40283
982.0386, 17.99344
982.5207, 18.48001
983.0028, 18.61359
983.4849, 17.86236
983.9670, 17.15190
984.4492, 17.64763
984.9313, 18.90152
985.4134, 18.46568
985.8955, 15.92739
986.3776, 15.08276
986.8597, 16.88457
987.3419, 18.08762
987.8240, 16.73279
988.3061, 14.72784
988.7882, 14.95575
989.2703, 17.39805
989.7524, 18.58645
990.2346, 17.69419
990.7167, 17.43238
991.1988, 18.89546
991.6809, 19.95106
992.1630, 18.97177
992.6451, 17.04503
993.1273, 16.04967
993.6094, 16.05284
994.0915, 16.49148
994.5736, 18.32824
995.0557, 19.24960
995.5378, 17.83074
996.0200, 16.32571
996.5021, 16.54865
996.9842, 17.68799
997.4663, 17.83178
997.9484, 16.48604
998.4305, 15.99568
998.9127, 18.07871
999.3948, 19.71426
999.8769, 19.13859
1000.359, 17.90807
1000.841, 17.51927
1001.323, 17.75619
1001.805, 17.59322
1002.287, 16.65410
1002.770, 15.96524
1003.252, 16.21523
1003.734, 16.73018
1004.216, 17.29590
1004.698, 17.65658
1005.180, 17.25394
1005.662, 16.33785
1006.144, 15.92273
1006.627, 16.49584
1007.109, 17.25714
1007.591, 17.59640
1008.073, 17.72408
1008.555, 17.84793
1009.037, 17.96383
1009.519, 18.06014
1010.001, 18.12005
1010.483, 18.10346
1010.966, 17.99236
1011.448, 17.76178
1011.930, 17.20208
1012.412, 16.59136
1012.894, 16.61682
1013.376, 17.07836
1013.858, 17.24470
1014.340, 16.96710
1014.823, 16.53662
1015.305, 16.10983
1015.787, 15.90283
1016.269, 16.53451
1016.751, 17.67723
1017.233, 17.98196
1017.715, 17.50391
1018.197, 16.98260
1018.679, 16.64178
1019.162, 16.83137
1019.644, 17.96049
1020.126, 19.36695
1020.608, 19.37022
1021.090, 18.10187
1021.572, 17.41668
1022.054, 17.40394
1022.536, 17.34582
1023.018, 16.99010
1023.501, 16.74810
1023.983, 17.02003
1024.465, 17.62711
1024.947, 18.00686
1025.429, 18.13864
1025.911, 18.34745
1026.393, 18.74966
1026.875, 18.55665
1027.358, 17.28618
1027.840, 16.00728
1028.322, 15.76865
1028.804, 16.37039
1029.286, 17.08270
1029.768, 18.07386
1030.250, 18.45487
1030.732, 18.06831
1031.214, 17.42560
1031.697, 16.58035
1032.179, 15.74955
1032.661, 15.07026
1033.143, 14.60573
1033.625, 14.71953
1034.107, 15.74784
1034.589, 16.50662
1035.071, 16.88077
1035.553, 17.19233
1036.036, 17.71010
1036.518, 18.02118
1037.000, 17.53071
1037.482, 16.43267
1037.964, 15.86176
1038.446, 16.03891
1038.928, 16.31862
1039.410, 16.71978
1039.893, 17.19864
1040.375, 18.14178
1040.857, 18.83793
1041.339, 18.28349
1041.821, 16.78290
1042.303, 16.00712
1042.785, 16.24950
1043.267, 16.69519
1043.750, 17.93496
1044.232, 18.59715
1044.714, 17.53969
1045.196, 16.19406
1045.678, 16.08975
1046.160, 16.97528
1046.642, 17.44300
1047.124, 17.06426
1047.606, 16.94151
1048.089, 17.47674
1048.571, 17.97407
1049.053, 18.21492
1049.535, 18.24112
1050.017, 17.86809
1050.499, 17.30903
1050.981, 17.44498
1051.463, 18.95758
1051.945, 19.69246
1052.428, 18.56295
1052.910, 17.33001
1053.392, 16.64467
1053.874, 16.34879
1054.356, 16.27415
1054.838, 16.41325
1055.320, 16.88668
1055.802, 17.93606
1056.285, 18.55718
1056.767, 18.17902
1057.249, 17.65361
1057.731, 17.31145
1058.213, 17.08832
1058.695, 16.82329
1059.177, 16.60665
1059.659, 16.76942
1060.141, 17.48994
1060.624, 18.10041
1061.106, 18.37002
1061.588, 18.47425
1062.070, 18.44479
1062.552, 18.34178
1063.034, 18.20011
1063.516, 18.03596
1063.998, 17.83718
1064.480, 17.57243
1064.963, 17.49929
1065.445, 17.96833
1065.927, 18.35059
1066.409, 18.31246
1066.891, 18.03484
1067.373, 17.62007
1067.855, 17.14001
1068.337, 16.62186
1068.820, 16.05273
1069.302, 15.85792
1069.784, 16.45581
1070.266, 17.17830
1070.748, 17.73891
1071.230, 18.20974
1071.712, 18.72029
1072.194, 19.18849
1072.677, 19.39613
1073.159, 19.30236
1073.641, 19.24387
1074.123, 19.82319
1074.605, 19.88906
1075.087, 18.31330
1075.569, 16.46920
1076.051, 15.46240
1076.533, 15.12452
1077.016, 14.97103
1077.498, 14.90761
1077.980, 15.10338
1078.462, 15.93420
1078.944, 16.59807
1079.426, 16.44624
1079.908, 16.22931
1080.390, 16.62558
1080.872, 17.34344
1081.354, 18.01075
1081.837, 18.49028
1082.319, 18.42941
1082.801, 17.24126
1083.283, 16.38236
1083.765, 17.04284
1084.247, 17.75006
1084.729, 17.15937
1085.211, 16.10650
1085.694, 15.74715
1086.176, 16.15449
1086.658, 16.87985
1087.140, 18.17019
1087.622, 18.63931
1088.104, 16.55928
1088.586, 14.75954
1089.068, 15.63705
1089.551, 17.36854
1090.033, 17.67291
1090.515, 16.77194
1090.997, 16.33500
1091.479, 16.97146
1091.961, 17.32654
1092.443, 16.63290
1092.925, 15.84298
1093.407, 15.30288
1093.890, 15.02992
1094.372, 15.07120
1094.854, 15.36413
1095.336, 15.82985
1095.818, 16.48679
1096.300, 16.95807
1096.782, 17.07157
1097.264, 17.04763
1097.746, 16.98131
1098.229, 16.80532
1098.711, 16.26189
1099.193, 15.65028
1099.675, 15.59898
1100.157, 16.19393
1100.639, 16.56861
1101.121, 16.37740
1101.603, 16.12661
1102.086, 15.87010
1102.568, 15.68213
1103.050, 15.59433
1103.532, 15.61160
1104.014, 15.65469
1104.496, 15.75912
1104.978, 16.31815
1105.460, 18.22630
1105.943, 19.19261
1106.425, 18.10962
1106.907, 16.92634
1107.389, 16.53955
1107.871, 16.46081
1108.353, 16.09573
1108.835, 15.53628
1109.317, 15.29945
1109.799, 15.39686
1110.281, 15.88405
1110.764, 17.37954
1111.246, 18.44738
1111.728, 18.60562
1112.210, 18.25665
1112.692, 17.46313
1113.174, 16.45288
1113.656, 15.82058
1114.138, 15.67215
1114.621, 15.42480
1115.103, 14.82423
1115.585, 14.55099
1116.067, 14.93053
1116.549, 15.37083
1117.031, 15.48514
1117.513, 15.48993
1117.995, 15.77335
1118.478, 16.33962
1118.960, 16.66853
1119.442, 16.62271
1119.924, 16.70261
1120.406, 17.22401
1120.888, 17.26573
1121.370, 16.14996
1121.852, 14.79826
1122.334, 14.18460
1122.817, 14.28563
1123.299, 15.12372
1123.781, 17.11617
1124.263, 18.05954
1124.745, 17.66747
1125.227, 17.04150
1125.709, 16.45375
1126.191, 15.87863
1126.673, 15.18650
1127.156, 14.70567
1127.638, 15.47974
1128.120, 17.58948
1128.602, 18.19090
1129.084, 17.10629
1129.566, 16.29968
1130.048, 16.18168
1130.530, 16.19972
1131.013, 16.03220
1131.495, 15.85859
1131.977, 16.00037
1132.459, 16.33625
1132.941, 16.07627
1133.423, 15.31068
1133.905, 15.52617
1134.387, 16.82464
1134.870, 17.69964
1135.352, 17.55724
1135.834, 17.13603
1136.316, 17.13418
1136.798, 17.35097
1137.280, 17.38424
1137.762, 17.26900
1138.244, 16.98367
1138.726, 16.64947
1139.208, 16.99206
1139.691, 18.05353
1140.173, 18.75648
1140.655, 18.41830
1141.137, 17.54185
1141.619, 16.42273
1142.101, 15.42827
1142.583, 15.43948
1143.065, 16.02173
1143.548, 16.07474
1144.030, 15.66937
1144.512, 15.77123
1144.994, 16.72556
1145.476, 17.64213
1145.958, 17.85704
1146.440, 17.64313
1146.922, 16.79555
1147.405, 16.04941
1147.887, 16.80870
1148.369, 18.25182
1148.851, 18.39976
1149.333, 17.09566
1149.815, 16.12961
1150.297, 16.47697
1150.779, 16.94704
1151.261, 17.03469
1151.744, 16.77704
1152.226, 15.71405
1152.708, 14.67394
1153.190, 14.78038
1153.672, 15.77454
1154.154, 16.55063
1154.636, 16.80589
1155.118, 17.27000
1155.600, 18.87487
1156.083, 19.74075
1156.565, 18.49436
1157.047, 17.02987
1157.529, 16.85378
1158.011, 17.25154
1158.493, 16.86570
1158.975, 15.65063
1159.457, 15.05068
1159.940, 15.82073
1160.422, 16.10211
1160.904, 15.25556
1161.386, 14.76958
1161.868, 15.38771
1162.350, 16.29679
1162.832, 16.88127
1163.314, 17.11956
1163.796, 16.84071
1164.279, 15.81244
1164.761, 15.67857
1165.243, 16.83200
1165.725, 17.47770
1166.207, 17.18673
1166.689, 16.60002
1167.171, 16.00204
1167.653, 15.55457
1168.135, 15.51136
1168.618, 15.80632
1169.100, 16.11979
1169.582, 16.44796
1170.064, 16.51469
1170.546, 16.30422
1171.028, 16.26081
1171.510, 16.53235
1171.992, 16.82813
1172.474, 16.90641
1172.957, 16.91234
1173.439, 17.18176
1173.921, 17.55759
1174.403, 17.50373
1174.885, 17.14996
1175.367, 16.98048
1175.849, 17.02552
1176.331, 16.96154
1176.814, 16.65443
1177.296, 16.40390
1177.778, 16.64624
1178.260, 16.85045
1178.742, 15.97735
1179.224, 14.99937
1179.706, 15.46858
1180.188, 16.81288
1180.671, 17.77672
1181.153, 18.11374
1181.635, 18.13227
1182.117, 17.84994
1182.599, 17.67422
1183.081, 18.21760
1183.563, 18.46883
1184.045, 17.10250
1184.527, 15.73147
1185.010, 16.46778
1185.492, 18.34250
1185.974, 18.68454
1186.456, 17.00830
1186.938, 16.21657
1187.420, 18.07776
1187.902, 18.87418
1188.384, 16.62214
1188.866, 14.93053
1189.349, 15.91287
1189.831, 17.65333
1190.313, 18.24786
1190.795, 17.92882
1191.277, 17.61597
1191.759, 17.35857
1192.241, 16.80270
1192.723, 15.66585
1193.206, 15.36455
1193.688, 16.45394
1194.170, 17.32715
1194.652, 16.97377
1195.134, 16.18324
1195.616, 16.04173
1196.098, 16.43982
1196.580, 17.09210
1197.063, 17.91959
1197.545, 17.99368
1198.027, 17.34972
1198.509, 16.99115
1198.991, 17.19598
1199.473, 17.62165
1199.955, 18.07426
1200.437, 18.28504
1200.919, 17.67258
1201.401, 16.74349
1201.884, 16.32629
1202.366, 16.29210
1202.848, 16.49122
1203.330, 16.78622
1203.812, 16.91755
1204.294, 16.81061
1204.776, 16.58339
1205.258, 16.31668
1205.741, 15.92627
1206.223, 14.93185
1206.705, 14.25308
1207.187, 14.66332
1207.669, 15.75236
1208.151, 17.41340
1208.633, 19.21909
1209.115, 20.02771
1209.598, 19.47582
1210.080, 18.93322
1210.562, 18.64792
1211.044, 18.32174
1211.526, 17.49661
1212.008, 17.14154
1212.490, 18.13634
1212.972, 19.36477
1213.454, 19.42988
1213.937, 18.60781
1214.419, 18.25870
1214.901, 18.50755
1215.383, 18.59359
1215.865, 18.49038
1216.347, 18.35753
1216.829, 18.22258
1217.311, 18.13081
1217.793, 18.10644
1218.276, 18.17934
1218.758, 18.49615
1219.240, 18.79865
1219.722, 18.11789
1220.204, 16.81771
1220.686, 16.18748
1221.168, 16.21831
1221.650, 16.56249
1222.133, 17.04078
1222.615, 17.22264
1223.097, 16.82038
1223.579, 16.49374
1224.061, 17.02804
1224.543, 17.72460
1225.025, 17.82444
1225.507, 17.75443
1225.990, 18.24068
1226.472, 18.88641
1226.954, 18.66974
1227.436, 17.55127
1227.918, 16.82724
1228.400, 16.93047
1228.882, 17.33250
1229.364, 18.41645
1229.846, 19.11956
1230.328, 18.88623
1230.811, 18.25076
1231.293, 17.44537
1231.775, 16.63714
1232.257, 16.11736
1232.739, 15.88650
1233.221, 16.05140
1233.703, 16.75274
1234.185, 17.25137
1234.668, 17.50718
1235.150, 17.33598
1235.632, 16.58025
1236.114, 16.29851
1236.596, 17.42076
1237.078, 18.95895
1237.560, 19.00979
1238.042, 18.14315
1238.525, 18.55109
1239.007, 19.62255
1239.489, 19.07092
1239.971, 17.21399
1240.453, 16.19768
1240.935, 16.60382
1241.417, 17.41354
1241.899, 18.18734
1242.381, 18.51013
1242.864, 17.57661
1243.346, 16.58286
1243.828, 16.47734
1244.310, 16.90396
1244.792, 17.74179
1245.274, 18.63280
1245.756, 18.73789
1246.238, 17.95042
1246.720, 17.83120
1247.203, 19.69787
1247.685, 20.46915
1248.167, 19.00723
1248.649, 17.85929
1249.131, 17.96956
1249.613, 18.35798
1250.095, 18.34202
1250.577, 18.01589
1251.059, 17.46884
1251.542, 16.76949
1252.024, 16.91488
1252.506, 17.89620
1252.988, 18.33311
1253.470, 18.10626
1253.952, 17.30276
1254.434, 16.04002
1254.916, 15.59489
1255.399, 16.97643
1255.881, 18.58401
1256.363, 17.97265
1256.845, 16.73300
1257.327, 17.33443
1257.809, 18.76090
1258.291, 19.59195
1258.773, 19.82413
1259.255, 19.84116
1259.738, 19.73191
1260.220, 19.43077
1260.702, 18.83796
1261.184, 18.26694
1261.666, 17.51612
1262.148, 17.20729
1262.630, 17.97975
1263.112, 18.87037
1263.594, 19.29270
1264.077, 19.33169
1264.559, 19.07276
1265.041, 18.53689
1265.523, 17.80187
1266.005, 16.69502
1266.487, 16.59516
1266.969, 17.69355
1267.451, 18.16218
1267.934, 17.54186
1268.416, 17.34170
1268.898, 18.44373
1269.380, 19.69975
1269.862, 19.66878
1270.344, 19.06043
1270.826, 19.14865
1271.308, 19.61838
1271.791, 20.13110
1272.273, 20.42594
1272.755, 19.69567
1273.237, 18.27042
1273.719, 17.92908
1274.201, 19.37255
1274.683, 20.18526
1275.165, 18.31266
1275.647, 17.00792
1276.130, 18.18079
1276.612, 19.45761
1277.094, 19.36004
1277.576, 18.73775
1278.058, 18.51295
1278.540, 18.52718
1279.022, 18.30536
1279.504, 17.80955
1279.986, 17.71975
1280.469, 18.17302
1280.951, 17.82856
1281.433, 16.42675
1281.915, 16.19604
1282.397, 17.95224
1282.879, 19.59445
1283.361, 19.44492
1283.843, 18.48049
1284.326, 17.85680
1284.808, 17.57262
##END=



