##NAMES=Skutterudite
##RRUFFID=R070528
##IDEAL CHEMISTRY=Co^3+^As_3_
##LOCALITY=Cobalt, Coleman Township, Timiskamig County, Ontario, Canada
##OWNER=RRUFF
##SOURCE=James Shigley
##DESCRIPTION=Silver-grey metallic massive and radiating prismatic crystals
##STATUS=The identification of this mineral is confirmed by single-crystal X-ray diffraction and chemical analysis.
##URL=rruff.info/R070528
##MEASURED CHEMISTRY=(Co_0.82_Fe_0.12_Ni_0.09_)_Σ=1.03_(As_2.99_S_0.01_)_Σ=3.00_ ; (Note: dark phase is lollingite, (Fe_0.69_Co_0.23_Ni_0.11_)_Σ=1.03_(As_1.98_S_0.01_)_Σ=2.00_) Bright spots are native bismuth
173.5295, 36.56945
174.0116, 36.05096
174.4937, 35.98370
174.9758, 36.36596
175.4579, 36.87848
175.9401, 37.48512
176.4222, 38.10936
176.9043, 38.69709
177.3864, 39.28230
177.8685, 39.72959
178.3506, 39.81899
178.8328, 39.45311
179.3149, 39.07214
179.7970, 38.76786
180.2791, 38.54259
180.7612, 38.43912
181.2433, 38.49117
181.7255, 38.59823
182.2076, 38.49625
182.6897, 37.90455
183.1718, 37.64273
183.6539, 38.09239
184.1360, 38.80927
184.6181, 39.34037
185.1003, 39.46311
185.5824, 39.28154
186.0645, 39.16079
186.5466, 39.12231
187.0287, 39.12851
187.5108, 39.26635
187.9930, 39.42146
188.4751, 39.41940
188.9572, 39.15144
189.4393, 38.69294
189.9214, 38.47271
190.4035, 38.80211
190.8857, 39.02442
191.3678, 38.91638
191.8499, 38.62611
192.3320, 38.40558
192.8141, 38.40190
193.2962, 38.60005
193.7784, 38.90269
194.2605, 39.34566
194.7426, 39.82477
195.2247, 40.39108
195.7068, 40.98182
196.1889, 41.42022
196.6711, 41.57242
197.1532, 41.48645
197.6353, 41.46009
198.1174, 41.68798
198.5995, 41.79519
199.0816, 41.41965
199.5638, 40.64648
200.0459, 40.06249
200.5280, 40.08167
201.0101, 40.53888
201.4922, 40.87001
201.9743, 41.08848
202.4565, 41.14587
202.9386, 40.90794
203.4207, 40.36391
203.9028, 39.89718
204.3849, 39.74031
204.8670, 39.79000
205.3492, 39.92144
205.8313, 40.16951
206.3134, 40.41850
206.7955, 40.54794
207.2776, 40.56621
207.7597, 40.42274
208.2419, 39.88029
208.7240, 39.24199
209.2061, 38.83113
209.6882, 38.80119
210.1703, 38.93731
210.6524, 38.88422
211.1346, 38.61957
211.6167, 38.21007
212.0988, 37.49125
212.5809, 36.73411
213.0630, 36.21007
213.5451, 36.04255
214.0273, 36.11074
214.5094, 36.17305
214.9915, 36.31691
215.4736, 36.27594
215.9557, 35.88988
216.4378, 35.37760
216.9200, 34.94843
217.4021, 34.69785
217.8842, 34.57430
218.3663, 34.44807
218.8484, 34.39809
219.3305, 34.21756
219.8127, 33.75341
220.2948, 33.20985
220.7769, 32.78759
221.2590, 32.57790
221.7411, 32.54792
222.2232, 32.60268
222.7054, 32.81947
223.1875, 33.03788
223.6696, 33.34783
224.1517, 33.62106
224.6338, 33.62844
225.1159, 33.26426
225.5980, 32.74430
226.0802, 32.70223
226.5623, 33.91033
227.0444, 34.68249
227.5265, 34.64668
228.0086, 34.17805
228.4907, 33.71693
228.9729, 33.44322
229.4550, 33.31914
229.9371, 33.25861
230.4192, 33.21590
230.9013, 33.29806
231.3834, 33.75608
231.8656, 34.29815
232.3477, 34.36829
232.8298, 33.67920
233.3119, 32.72898
233.7940, 32.70408
234.2761, 33.91951
234.7583, 35.03811
235.2404, 35.57655
235.7225, 35.82405
236.2046, 36.38552
236.6867, 37.57503
237.1688, 38.86060
237.6510, 39.20298
238.1331, 38.50978
238.6152, 37.82804
239.0973, 37.53750
239.5794, 37.50202
240.0615, 37.44162
240.5437, 37.28593
241.0258, 37.07435
241.5079, 36.79804
241.9900, 36.44442
242.4721, 36.26149
242.9542, 36.43651
243.4364, 36.86267
243.9185, 37.29174
244.4006, 37.72095
244.8827, 38.05406
245.3648, 38.16386
245.8469, 38.07878
246.3290, 37.97930
246.8112, 38.00305
247.2933, 38.08525
247.7754, 38.01482
248.2575, 37.71644
248.7396, 37.33728
249.2217, 36.95811
249.7039, 36.59040
250.1860, 36.28366
250.6681, 36.07078
251.1502, 35.94162
251.6323, 35.88461
252.1144, 36.00990
252.5966, 36.01626
253.0787, 35.67096
253.5608, 35.08995
254.0429, 34.52375
254.5250, 34.08776
255.0071, 33.77748
255.4893, 33.59657
255.9714, 33.65657
256.4535, 33.66698
256.9356, 33.52668
257.4177, 33.25728
257.8998, 32.86317
258.3820, 32.26017
258.8641, 31.57546
259.3462, 31.31323
259.8283, 31.83553
260.3104, 32.18559
260.7925, 31.94782
261.2747, 31.41095
261.7568, 30.92969
262.2389, 30.65746
262.7210, 30.58601
263.2031, 30.73987
263.6852, 31.40900
264.1674, 31.79055
264.6495, 31.54098
265.1316, 31.02116
265.6137, 30.61243
266.0958, 30.48178
266.5779, 30.51864
267.0601, 30.47114
267.5422, 30.33253
268.0243, 30.10813
268.5064, 29.61422
268.9885, 29.14446
269.4706, 28.99630
269.9528, 29.26791
270.4349, 29.77451
270.9170, 30.18633
271.3991, 30.53103
271.8812, 30.70042
272.3633, 30.61050
272.8455, 30.42603
273.3276, 30.22126
273.8097, 30.03408
274.2918, 29.92901
274.7739, 30.03742
275.2560, 30.55905
275.7382, 30.86259
276.2202, 30.87754
276.7024, 30.77796
277.1845, 30.66521
277.6666, 30.55664
278.1487, 30.40763
278.6308, 30.13095
279.1129, 29.60189
279.5951, 29.39760
280.0772, 29.73106
280.5593, 30.14191
281.0414, 30.43362
281.5235, 30.57773
282.0056, 30.61061
282.4878, 30.54718
282.9699, 30.35501
283.4520, 30.30809
283.9341, 30.58030
284.4162, 30.80837
284.8983, 30.81897
285.3805, 30.65529
285.8626, 30.45926
286.3447, 30.33598
286.8268, 30.28508
287.3089, 30.25695
287.7910, 30.25621
288.2732, 30.27106
288.7553, 30.30690
289.2374, 30.35573
289.7195, 30.38342
290.2016, 30.35832
290.6837, 30.31754
291.1659, 30.48186
291.6480, 31.28980
292.1301, 31.78794
292.6122, 31.61193
293.0943, 31.08385
293.5764, 30.62667
294.0586, 30.42932
294.5407, 30.45281
295.0228, 30.59280
295.5049, 31.17483
295.9870, 31.46879
296.4691, 31.23619
296.9513, 30.79469
297.4334, 30.48656
297.9155, 30.42236
298.3976, 30.46616
298.8797, 30.38157
299.3618, 29.98143
299.8440, 29.82263
300.3261, 30.08342
300.8082, 30.46869
301.2903, 30.79461
301.7724, 31.00569
302.2545, 31.06315
302.7367, 30.87946
303.2188, 30.31318
303.7009, 30.10051
304.1830, 30.57095
304.6651, 31.09150
305.1472, 31.25671
305.6294, 31.07050
306.1115, 30.77650
306.5936, 30.57155
307.0757, 30.45943
307.5578, 30.38131
308.0399, 30.34583
308.5221, 30.32849
309.0042, 30.33116
309.4863, 30.34462
309.9684, 30.34881
310.4505, 30.33045
310.9326, 30.29240
311.4148, 30.25418
311.8969, 30.16786
312.3790, 30.13545
312.8611, 30.19440
313.3432, 30.32111
313.8253, 30.49078
314.3075, 30.69581
314.7896, 30.91117
315.2717, 31.07716
315.7538, 31.35109
316.2359, 31.34355
316.7180, 30.67406
317.2001, 29.86045
317.6823, 29.53630
318.1644, 29.87306
318.6465, 30.47327
319.1286, 30.74688
319.6107, 30.52983
320.0928, 30.33446
320.5750, 30.21414
321.0571, 30.07737
321.5392, 29.76900
322.0213, 29.31523
322.5034, 28.97713
322.9855, 29.04514
323.4677, 29.60045
323.9498, 29.98927
324.4319, 30.16166
324.9140, 30.24396
325.3961, 30.32546
325.8782, 30.37778
326.3604, 30.27267
326.8425, 29.88293
327.3246, 29.25779
327.8067, 28.96059
328.2888, 29.28425
328.7709, 29.55372
329.2531, 29.55184
329.7352, 29.39129
330.2173, 29.26825
330.6994, 29.27729
331.1815, 29.36536
331.6636, 29.38874
332.1458, 29.30252
332.6279, 29.20230
333.1100, 29.03900
333.5921, 28.88895
334.0742, 28.86374
334.5563, 28.98381
335.0385, 29.12068
335.5206, 29.07306
336.0027, 28.70254
336.4848, 28.50770
336.9669, 28.61992
337.4490, 28.78252
337.9312, 28.83616
338.4133, 28.77123
338.8954, 28.65969
339.3775, 28.56226
339.8596, 28.47664
340.3417, 28.43365
340.8239, 28.59228
341.3060, 28.62600
341.7881, 28.28464
342.2702, 27.73364
342.7523, 27.29722
343.2344, 27.17279
343.7166, 27.32996
344.1987, 27.62533
344.6808, 28.38659
345.1629, 28.90789
345.6450, 29.02878
346.1271, 28.91342
346.6093, 28.69717
347.0914, 28.44079
347.5735, 28.20246
348.0556, 28.11951
348.5377, 28.41679
349.0198, 28.44976
349.5020, 28.02615
349.9841, 27.52039
350.4662, 27.16237
350.9483, 26.99058
351.4304, 26.93271
351.9125, 26.92536
352.3947, 26.98005
352.8768, 27.00821
353.3589, 26.94963
353.8410, 26.92417
354.3231, 27.00199
354.8052, 27.14579
355.2874, 27.28113
355.7695, 27.36269
356.2516, 27.38828
356.7337, 27.33794
357.2158, 27.07897
357.6979, 26.92919
358.1800, 27.01383
358.6621, 27.19987
359.1443, 27.32434
359.6264, 27.32586
360.1085, 27.30307
360.5906, 27.46471
361.0727, 27.93784
361.5548, 28.26053
362.0370, 28.40225
362.5191, 28.38058
363.0012, 28.13734
363.4833, 27.70109
363.9654, 27.22919
364.4475, 26.84398
364.9297, 26.54086
365.4118, 26.40811
365.8939, 26.59395
366.3760, 26.79777
366.8581, 26.41782
367.3402, 26.72365
367.8224, 26.30460
368.3045, 26.90560
368.7866, 27.21418
369.2687, 27.24603
369.7508, 26.17237
370.2329, 26.52625
370.7151, 26.30803
371.1972, 26.06636
371.6793, 26.62117
372.1614, 26.02107
372.6435, 26.01381
373.1256, 26.23153
373.6078, 26.70194
374.0899, 26.98518
374.5720, 26.81949
375.0541, 26.58368
375.5362, 26.57252
376.0183, 26.77508
376.5005, 26.98767
376.9826, 27.07997
377.4647, 27.07552
377.9468, 27.07475
378.4289, 27.11674
378.9110, 27.08551
379.3932, 26.80038
379.8753, 26.39549
380.3574, 26.13540
380.8395, 26.15067
381.3216, 26.30200
381.8037, 26.49277
382.2859, 26.72822
382.7680, 26.76464
383.2501, 26.35408
383.7322, 25.77113
384.2143, 25.43400
384.6964, 25.36925
385.1786, 25.49070
385.6607, 25.93144
386.1428, 26.52611
386.6249, 26.80740
387.1070, 26.61912
387.5891, 26.22923
388.0713, 25.86178
388.5534, 25.51752
389.0355, 25.35909
389.5176, 25.59716
389.9997, 25.92571
390.4818, 25.98279
390.9640, 25.76956
391.4461, 25.63617
391.9282, 25.86824
392.4103, 26.37448
392.8924, 26.64525
393.3745, 26.53893
393.8567, 26.37515
394.3388, 26.25411
394.8209, 26.16576
395.3030, 26.08223
395.7851, 25.98784
396.2672, 25.92298
396.7494, 25.97299
397.2315, 26.23108
397.7136, 26.37661
398.1957, 26.32825
398.6778, 26.20849
399.1599, 26.10951
399.6420, 26.04376
400.1241, 25.97437
400.6063, 25.85198
401.0884, 25.66940
401.5705, 25.68219
402.0526, 26.13828
402.5347, 26.48794
403.0168, 26.47729
403.4990, 26.26671
403.9811, 26.14044
404.4632, 26.23709
404.9453, 26.44101
405.4274, 26.46433
405.9095, 26.16111
406.3917, 25.91754
406.8738, 25.72982
407.3559, 25.61063
407.8380, 25.60667
408.3201, 25.69893
408.8022, 25.78278
409.2844, 25.73136
409.7665, 25.52827
410.2486, 25.46141
410.7307, 25.72685
411.2128, 25.91731
411.6949, 25.82481
412.1771, 25.59631
412.6592, 25.49243
413.1413, 25.66276
413.6234, 25.95416
414.1055, 25.98765
414.5876, 25.61230
415.0698, 25.44235
415.5519, 25.96824
416.0340, 26.51838
416.5161, 26.54667
416.9982, 26.01764
417.4803, 25.45607
417.9625, 25.33566
418.4446, 25.59228
418.9267, 25.78776
419.4088, 25.89721
419.8909, 25.93213
420.3730, 25.81219
420.8552, 25.63203
421.3373, 25.60673
421.8194, 25.93396
422.3015, 26.31635
422.7836, 26.37138
423.2657, 26.10238
423.7479, 25.79972
424.2300, 25.56967
424.7121, 25.37292
425.1942, 25.09178
425.6763, 24.66498
426.1584, 24.45904
426.6406, 24.87428
427.1227, 25.54393
427.6048, 25.76740
428.0869, 25.40101
428.5690, 24.98494
429.0511, 25.03632
429.5333, 25.56282
430.0154, 25.93427
430.4975, 26.11329
430.9796, 26.17039
431.4617, 26.07116
431.9438, 25.87774
432.4260, 25.76842
432.9081, 25.84665
433.3902, 25.98120
433.8723, 25.85120
434.3544, 25.20116
434.8365, 24.70487
435.3187, 24.42130
435.8008, 24.27417
436.2829, 24.22692
436.7650, 24.26110
437.2471, 24.35199
437.7292, 24.48726
438.2114, 24.67030
438.6935, 24.77999
439.1756, 24.72620
439.6577, 24.69887
440.1398, 24.75741
440.6219, 24.86278
441.1040, 24.97422
441.5862, 25.07387
442.0683, 25.13658
442.5504, 25.09216
443.0325, 24.87336
443.5146, 24.75502
443.9967, 24.86372
444.4789, 24.99265
444.9610, 24.98331
445.4431, 24.88203
445.9252, 24.89444
446.4073, 25.27233
446.8894, 25.86550
447.3716, 26.07300
447.8537, 25.79139
448.3358, 25.37864
448.8179, 24.82721
449.3000, 24.29711
449.7821, 23.96749
450.2643, 23.88229
450.7464, 23.96390
451.2285, 24.25779
451.7106, 24.69859
452.1927, 24.90784
452.6748, 24.71282
453.1570, 24.47153
453.6391, 24.64379
454.1212, 25.12559
454.6033, 25.42076
455.0854, 25.23093
455.5675, 24.94169
456.0497, 24.96709
456.5318, 25.24971
457.0139, 25.36555
457.4960, 25.03491
457.9781, 24.47832
458.4602, 24.33169
458.9424, 24.83610
459.4245, 25.17267
459.9066, 25.03983
460.3887, 24.75979
460.8708, 24.69415
461.3529, 24.87756
461.8351, 25.06070
462.3172, 24.99262
462.7993, 24.66104
463.2814, 24.47591
463.7635, 24.59277
464.2456, 24.66679
464.7278, 24.54219
465.2099, 24.34572
465.6920, 24.29376
466.1741, 24.46371
466.6562, 24.67902
467.1383, 24.60393
467.6205, 24.08328
468.1026, 23.75433
468.5847, 23.80295
469.0668, 23.90051
469.5489, 23.87432
470.0310, 23.77188
470.5132, 23.76085
470.9953, 23.98808
471.4774, 24.33329
471.9595, 24.48898
472.4416, 24.43171
472.9237, 24.26795
473.4059, 23.80577
473.8880, 23.39701
474.3701, 23.47548
474.8522, 24.10891
475.3343, 24.64033
475.8164, 24.53415
476.2986, 24.01970
476.7807, 23.63110
477.2628, 23.41947
477.7449, 23.38858
478.2270, 23.63912
478.7091, 24.08793
479.1913, 24.37313
479.6734, 24.36524
480.1555, 24.31408
480.6376, 24.34356
481.1197, 24.42299
481.6018, 24.49164
482.0839, 24.53034
482.5660, 24.54730
483.0482, 24.55841
483.5303, 24.57727
484.0124, 24.52678
484.4945, 24.36934
484.9766, 24.18288
485.4587, 23.98090
485.9409, 23.78382
486.4230, 23.62836
486.9051, 23.53537
487.3872, 23.49041
487.8693, 23.44566
488.3514, 23.34464
488.8336, 23.35654
489.3157, 23.61357
489.7978, 23.87466
490.2799, 24.00760
490.7620, 23.99180
491.2441, 23.82904
491.7263, 23.40095
492.2084, 22.83390
492.6905, 22.82233
493.1726, 23.64631
493.6547, 24.35118
494.1368, 24.44983
494.6190, 24.27426
495.1011, 24.11816
495.5832, 24.02814
496.0653, 23.99102
496.5474, 24.03182
497.0295, 24.11948
497.5117, 24.14828
497.9938, 24.08861
498.4759, 24.02989
498.9580, 24.05900
499.4401, 24.15625
499.9222, 24.21179
500.4044, 24.15859
500.8865, 24.12451
501.3686, 24.18569
501.8507, 24.31229
502.3328, 24.47058
502.8149, 24.65276
503.2971, 24.77670
503.7792, 24.70042
504.2613, 24.30660
504.7434, 24.14648
505.2255, 24.52607
505.7076, 24.81232
506.1898, 24.58304
506.6719, 24.04120
507.1540, 23.64589
507.6361, 23.64380
508.1182, 23.85478
508.6003, 23.84427
509.0825, 23.48996
509.5646, 23.24257
510.0467, 23.19360
510.5288, 23.22131
511.0109, 23.26325
511.4930, 23.32369
511.9752, 23.44193
512.4573, 23.66167
512.9394, 23.94371
513.4215, 24.22265
513.9036, 24.51462
514.3857, 24.70661
514.8679, 24.73865
515.3500, 24.65372
515.8321, 24.50724
516.3142, 24.29506
516.7963, 24.06971
517.2784, 23.75590
517.7606, 23.48664
518.2427, 23.55366
518.7248, 23.95451
519.2069, 24.19232
519.6890, 23.85237
520.1711, 23.11138
520.6533, 22.87568
521.1354, 23.71433
521.6175, 24.21756
522.0996, 23.82510
522.5817, 23.17879
523.0638, 22.96456
523.5460, 23.26144
524.0281, 23.66101
524.5102, 23.77530
524.9923, 23.61224
525.4744, 23.43469
525.9565, 23.12130
526.4387, 22.96461
526.9208, 23.16188
527.4029, 23.46350
527.8850, 23.60798
528.3671, 23.53073
528.8492, 23.35746
529.3314, 23.16590
529.8135, 22.96989
530.2956, 22.93369
530.7777, 23.15648
531.2598, 23.35244
531.7419, 23.34056
532.2241, 23.18489
532.7062, 22.94773
533.1883, 22.55269
533.6704, 22.25735
534.1525, 22.33352
534.6346, 22.63072
535.1168, 22.73848
535.5989, 22.54188
536.0810, 22.40794
536.5631, 22.78625
537.0452, 23.70973
537.5273, 24.15369
538.0095, 23.69234
538.4916, 23.27400
538.9737, 23.32916
539.4558, 23.62069
539.9379, 23.76740
540.4200, 23.64963
540.9022, 23.44448
541.3843, 23.40826
541.8664, 23.58525
542.3485, 23.67998
542.8306, 23.57678
543.3127, 23.51535
543.7948, 23.65814
544.2769, 23.86505
544.7590, 23.88203
545.2411, 23.59027
545.7233, 23.27345
546.2054, 23.36721
546.6875, 23.83273
547.1696, 24.06761
547.6517, 23.90268
548.1339, 23.64093
548.6160, 23.56130
549.0981, 23.59174
549.5802, 23.51749
550.0623, 23.08486
550.5444, 22.76538
551.0266, 23.00166
551.5087, 23.56863
551.9908, 23.93101
552.4729, 23.92243
552.9550, 23.78640
553.4371, 23.85334
553.9193, 24.21201
554.4014, 24.21221
554.8835, 23.41178
555.3656, 22.79512
555.8477, 22.86335
556.3298, 23.29267
556.8120, 23.60009
557.2941, 23.60806
557.7762, 23.45823
558.2583, 23.32008
558.7404, 23.18458
559.2225, 23.15908
559.7047, 23.43900
560.1868, 23.56838
560.6689, 23.20788
561.1510, 22.60360
561.6331, 22.16072
562.1152, 22.00245
562.5974, 22.03234
563.0795, 22.25901
563.5616, 22.61344
564.0437, 22.83508
564.5258, 22.86063
565.0079, 22.80742
565.4901, 22.78657
565.9722, 22.78933
566.4543, 22.70155
566.9364, 22.34746
567.4185, 22.10394
567.9006, 22.20175
568.3828, 22.46426
568.8649, 22.66844
569.3470, 22.74542
569.8291, 22.70322
570.3112, 22.51902
570.7933, 22.17414
571.2755, 22.01569
571.7576, 22.15123
572.2397, 22.34935
572.7218, 22.59790
573.2039, 22.85579
573.6860, 23.10705
574.1682, 23.34491
574.6503, 23.48580
575.1324, 23.40446
575.6145, 23.15006
576.0966, 22.95399
576.5787, 22.85359
577.0609, 22.70917
577.5430, 22.31683
578.0251, 21.86624
578.5072, 21.82099
578.9893, 22.39843
579.4714, 22.91120
579.9536, 23.02797
580.4357, 22.97282
580.9178, 23.04636
581.3999, 23.26583
581.8820, 23.41640
582.3641, 23.31208
582.8463, 23.01880
583.3284, 22.92962
583.8105, 23.37861
584.2926, 23.54107
584.7747, 23.06170
585.2568, 22.51105
585.7390, 22.36935
586.2211, 22.61059
586.7032, 22.86149
587.1853, 22.86716
587.6674, 22.68446
588.1495, 22.41058
588.6317, 22.00269
589.1138, 21.77411
589.5959, 21.87665
590.0780, 22.16144
590.5601, 22.48507
591.0422, 22.84694
591.5244, 23.12087
592.0065, 23.27073
592.4886, 23.31360
592.9707, 23.22737
593.4528, 23.04098
593.9349, 22.83273
594.4171, 22.63377
594.8992, 22.45856
595.3813, 22.33330
595.8634, 22.27060
596.3455, 22.22241
596.8276, 22.16496
597.3098, 22.14420
597.7919, 22.21577
598.2740, 22.32782
598.7561, 22.36782
599.2382, 22.28439
599.7203, 22.22376
600.2025, 22.49123
600.6846, 23.07002
601.1667, 23.22912
601.6488, 22.67438
602.1309, 22.14006
602.6130, 22.25773
603.0952, 22.73912
603.5773, 22.99418
604.0594, 22.80474
604.5415, 22.65534
605.0236, 22.98354
605.5057, 23.43624
605.9879, 23.32084
606.4700, 22.59069
606.9521, 21.98895
607.4342, 22.17698
607.9163, 23.02220
608.3984, 23.52189
608.8806, 23.49579
609.3627, 23.34318
609.8448, 22.95868
610.3269, 22.56782
610.8090, 22.34371
611.2911, 22.28931
611.7733, 22.31112
612.2554, 22.37500
612.7375, 22.44391
613.2196, 22.41650
613.7017, 22.28183
614.1838, 22.16234
614.6660, 22.08591
615.1481, 22.05001
615.6302, 22.04982
616.1123, 22.08367
616.5944, 22.16047
617.0765, 22.38769
617.5587, 22.55886
618.0408, 22.48153
618.5229, 22.24765
619.0050, 22.04231
619.4871, 21.93250
619.9692, 21.92930
620.4514, 22.08145
620.9335, 22.43989
621.4156, 22.56306
621.8977, 22.10222
622.3798, 21.81903
622.8619, 22.17258
623.3441, 22.67308
623.8262, 22.62429
624.3083, 21.88336
624.7904, 21.24958
625.2725, 21.60760
625.7546, 22.57210
626.2367, 23.04509
626.7188, 22.93970
627.2009, 22.73741
627.6830, 22.67150
628.1652, 22.67935
628.6473, 22.60439
629.1294, 22.40250
629.6115, 22.27357
630.0936, 22.32880
630.5757, 22.39603
631.0579, 22.31573
631.5400, 22.14054
632.0221, 22.02526
632.5042, 22.04865
632.9863, 22.16912
633.4684, 22.35864
633.9506, 22.68305
634.4327, 22.73269
634.9148, 22.22290
635.3969, 21.77049
635.8790, 21.72469
636.3611, 21.92349
636.8433, 22.09682
637.3254, 22.18415
637.8075, 22.21428
638.2896, 22.17440
638.7717, 22.10065
639.2538, 22.04200
639.7360, 22.00886
640.2181, 22.08307
640.7002, 22.37503
641.1823, 22.77416
641.6644, 22.82691
642.1465, 21.95954
642.6287, 21.54198
643.1108, 21.98074
643.5929, 22.53627
644.0750, 22.73853
644.5571, 22.62030
645.0392, 22.39718
645.5214, 22.14817
646.0035, 21.99148
646.4856, 22.27176
646.9677, 22.98568
647.4498, 23.24172
647.9319, 22.70558
648.4141, 22.05255
648.8962, 21.85369
649.3783, 22.00013
649.8604, 22.08713
650.3425, 21.99474
650.8246, 21.95960
651.3068, 22.16098
651.7889, 22.42530
652.2710, 22.54431
652.7531, 22.49058
653.2352, 22.30523
653.7173, 21.97133
654.1995, 21.61279
654.6816, 21.85087
655.1637, 23.15805
655.6458, 23.92698
656.1279, 23.47592
656.6100, 22.76245
657.0922, 22.17529
657.5743, 21.77117
658.0564, 21.64239
658.5385, 21.98318
659.0206, 22.38706
659.5027, 22.47716
659.9849, 22.31840
660.4670, 22.04384
660.9491, 21.67802
661.4312, 21.38290
661.9133, 21.30645
662.3954, 21.43934
662.8776, 21.64574
663.3597, 22.16718
663.8418, 22.44112
664.3239, 22.13093
664.8060, 21.76583
665.2881, 21.88437
665.7703, 22.39627
666.2524, 22.72954
666.7345, 22.44860
667.2166, 21.89584
667.6987, 21.74032
668.1808, 21.96910
668.6630, 22.07968
669.1451, 21.91012
669.6272, 21.70095
670.1093, 21.71620
670.5914, 21.92900
671.0735, 21.99332
671.5557, 21.72363
672.0378, 21.52538
672.5199, 21.54088
673.0020, 21.68783
673.4841, 21.96984
673.9662, 22.31858
674.4484, 22.47532
674.9305, 22.18550
675.4126, 21.64121
675.8947, 21.53753
676.3768, 22.00896
676.8589, 22.32444
677.3411, 22.28814
677.8232, 22.10625
678.3053, 21.90162
678.7874, 21.69050
679.2695, 21.53057
679.7516, 21.33117
680.2338, 21.31744
680.7159, 21.87231
681.1980, 22.60271
681.6801, 22.81975
682.1622, 22.44913
682.6443, 21.98294
683.1265, 21.81462
683.6086, 21.89484
684.0907, 21.98409
684.5728, 22.06920
685.0549, 22.19137
685.5370, 22.58537
686.0192, 22.81104
686.5013, 22.37572
686.9834, 21.55039
687.4655, 21.14130
687.9476, 21.60631
688.4297, 22.29630
688.9119, 22.75420
689.3940, 22.97952
689.8761, 22.88592
690.3582, 22.46864
690.8403, 22.06068
691.3224, 21.92660
691.8046, 22.00508
692.2867, 21.99547
692.7688, 21.71589
693.2509, 21.64759
693.7330, 21.94748
694.2151, 22.32150
694.6973, 22.69763
695.1794, 22.99729
695.6615, 23.06928
696.1436, 22.81962
696.6257, 22.42543
697.1078, 21.97788
697.5900, 21.54165
698.0721, 21.38215
698.5542, 21.55302
699.0363, 21.75780
699.5184, 21.76540
700.0005, 21.67760
700.4827, 21.86407
700.9648, 22.78703
701.4469, 23.21696
701.9290, 22.74625
702.4111, 22.14758
702.8932, 21.85970
703.3754, 21.80606
703.8575, 21.73377
704.3396, 21.53558
704.8217, 21.34670
705.3038, 21.31731
705.7859, 21.43741
706.2681, 21.74072
706.7502, 22.28468
707.2323, 22.59119
707.7144, 22.29356
708.1965, 21.67356
708.6786, 21.39445
709.1607, 21.59220
709.6428, 21.71065
710.1249, 21.58038
710.6071, 21.49469
711.0892, 21.70371
711.5713, 22.04702
712.0534, 22.22061
712.5355, 22.12904
713.0176, 21.98057
713.4998, 22.00356
713.9819, 22.17339
714.4640, 22.41390
714.9461, 22.76755
715.4282, 22.88646
715.9103, 22.52604
716.3925, 21.96142
716.8746, 21.58188
717.3567, 21.38392
717.8388, 21.35654
718.3209, 21.56500
718.8030, 21.87325
719.2852, 22.40356
719.7673, 22.90947
720.2494, 22.98709
720.7315, 22.59555
721.2136, 22.15156
721.6957, 22.01816
722.1779, 22.14344
722.6600, 22.40727
723.1421, 22.84834
723.6242, 23.09017
724.1063, 22.96674
724.5884, 22.69831
725.0706, 22.50382
725.5527, 22.37583
726.0348, 22.23334
726.5169, 21.99359
726.9990, 21.83464
727.4811, 21.86559
727.9633, 21.97576
728.4454, 22.04511
728.9275, 22.06804
729.4096, 22.11644
729.8917, 22.24534
730.3738, 22.41384
730.8560, 22.60818
731.3381, 22.83766
731.8202, 22.64901
732.3023, 21.74983
732.7844, 20.95981
733.2665, 20.96212
733.7487, 21.56136
734.2308, 21.97792
734.7129, 22.21555
735.1950, 22.26386
735.6771, 21.95702
736.1592, 21.59774
736.6414, 21.35805
737.1235, 21.27388
737.6056, 21.39855
738.0877, 21.76227
738.5698, 22.17888
739.0519, 22.37964
739.5341, 22.38809
740.0162, 22.44427
740.4983, 22.59374
740.9804, 22.61087
741.4625, 22.29160
741.9446, 21.85590
742.4268, 21.73009
742.9089, 21.96780
743.3910, 22.19509
743.8731, 22.47583
744.3552, 22.63824
744.8373, 22.49851
745.3195, 22.23390
745.8016, 22.09289
746.2837, 22.12998
746.7658, 22.22583
747.2479, 22.32559
747.7300, 22.37975
748.2122, 22.13460
748.6943, 21.58082
749.1764, 21.43840
749.6585, 22.04608
750.1406, 22.76941
750.6227, 22.95666
751.1049, 22.61962
751.5870, 22.33103
752.0691, 22.00843
752.5512, 21.84037
753.0333, 21.92868
753.5154, 22.13010
753.9976, 22.42585
754.4797, 22.72759
754.9618, 22.81736
755.4439, 22.54174
755.9260, 22.15938
756.4081, 21.99709
756.8903, 22.01972
757.3724, 22.12991
757.8545, 22.32650
758.3366, 22.40224
758.8187, 22.18505
759.3008, 21.82142
759.7830, 21.68485
760.2651, 21.91705
760.7472, 22.04308
761.2293, 21.95162
761.7114, 21.88554
762.1935, 21.97317
762.6757, 22.13133
763.1578, 22.25969
763.6399, 22.33222
764.1220, 22.33993
764.6041, 22.21978
765.0862, 22.06354
765.5684, 21.98756
766.0505, 21.99829
766.5326, 22.14022
767.0147, 22.43435
767.4968, 22.74996
767.9789, 22.94356
768.4611, 23.01966
768.9432, 23.06205
769.4253, 22.54589
769.9074, 23.20844
770.3895, 23.57857
770.8716, 23.67197
771.3538, 22.65985
771.8359, 23.07529
772.3180, 22.91863
772.8001, 22.73850
773.2822, 23.35486
773.7643, 22.50354
774.2465, 23.10727
774.7286, 23.13017
775.2107, 23.41889
775.6928, 23.13199
776.1749, 23.02288
776.6570, 23.48959
777.1392, 23.63746
777.6213, 23.28429
778.1034, 23.58992
778.5855, 22.71849
779.0676, 22.87994
779.5497, 23.48704
780.0319, 23.16281
780.5140, 23.47896
780.9961, 23.55122
781.4782, 22.51511
781.9603, 22.77788
782.4424, 22.56594
782.9246, 22.56657
783.4067, 22.66847
783.8888, 22.70552
784.3709, 22.64594
784.8530, 22.54592
785.3351, 22.42622
785.8173, 22.33480
786.2994, 22.42342
786.7815, 22.69214
787.2636, 22.94570
787.7457, 23.19087
788.2278, 23.26240
788.7100, 22.93387
789.1921, 22.35281
789.6742, 22.12504
790.1563, 22.56518
790.6384, 22.76233
791.1205, 22.37907
791.6026, 22.03315
792.0847, 22.15241
792.5668, 22.51924
793.0490, 22.76133
793.5311, 22.76738
794.0132, 22.63330
794.4953, 22.28771
794.9774, 21.92591
795.4595, 21.98227
795.9417, 22.38479
796.4238, 22.66257
796.9059, 22.65754
797.3880, 22.55510
797.8701, 22.55490
798.3522, 22.65001
798.8344, 22.73002
799.3165, 22.79774
799.7986, 22.84458
800.2807, 22.92586
800.7628, 22.93213
801.2449, 22.67541
801.7271, 22.29495
802.2092, 22.19249
802.6913, 22.58977
803.1734, 22.94912
803.6555, 22.96508
804.1376, 22.82469
804.6198, 22.65446
805.1019, 22.51447
805.5840, 22.54938
806.0661, 22.81686
806.5482, 23.08437
807.0303, 22.96246
807.5125, 22.51844
807.9946, 22.44020
808.4767, 22.79842
808.9588, 23.13087
809.4409, 23.29731
809.9230, 23.35365
810.4052, 23.33697
810.8873, 23.24722
811.3694, 23.19753
811.8515, 23.20550
812.3336, 23.22864
812.8157, 23.33299
813.2979, 23.38763
813.7800, 23.19543
814.2621, 22.86717
814.7442, 22.72454
815.2263, 22.92678
815.7084, 23.21874
816.1906, 23.43853
816.6727, 23.53845
817.1548, 23.33081
817.6369, 22.85927
818.1190, 22.49218
818.6011, 22.39353
819.0833, 22.46809
819.5654, 22.59823
820.0475, 22.78814
820.5296, 22.91870
821.0117, 22.99817
821.4938, 22.99748
821.9760, 22.71730
822.4581, 22.52445
822.9402, 22.87614
823.4223, 23.61773
823.9044, 24.00980
824.3865, 23.66140
824.8687, 23.32474
825.3508, 23.32456
825.8329, 23.44318
826.3150, 23.50551
826.7971, 23.49324
827.2792, 23.42328
827.7614, 23.30225
828.2435, 23.16600
828.7256, 23.04441
829.2077, 22.94403
829.6898, 22.88021
830.1719, 22.85372
830.6541, 22.93900
831.1362, 23.20735
831.6183, 23.42608
832.1004, 23.27153
832.5825, 22.75308
833.0646, 22.52598
833.5468, 22.81975
834.0289, 23.05320
834.5110, 23.10914
834.9931, 23.13183
835.4752, 23.27399
835.9573, 23.44927
836.4395, 23.40742
836.9216, 23.00434
837.4037, 22.65383
837.8858, 22.48068
838.3679, 22.53931
838.8500, 23.10395
839.3322, 23.92184
839.8143, 24.35043
840.2964, 24.18390
840.7785, 23.80849
841.2606, 23.61795
841.7427, 23.57604
842.2249, 23.56375
842.7070, 23.58443
843.1891, 23.55062
843.6712, 23.43367
844.1533, 23.27872
844.6354, 23.10868
845.1176, 22.93592
845.5997, 22.82212
846.0818, 22.72301
846.5639, 22.75936
847.0460, 23.13894
847.5281, 23.42571
848.0103, 23.29532
848.4924, 22.99442
848.9745, 22.92510
849.4566, 23.16592
849.9387, 23.37830
850.4208, 23.47050
850.9030, 23.38184
851.3851, 22.81265
851.8672, 22.10106
852.3493, 21.99690
852.8314, 22.55647
853.3135, 23.09816
853.7957, 23.09117
854.2778, 22.77140
854.7599, 22.67336
855.2420, 22.79118
855.7241, 22.82180
856.2062, 22.70082
856.6884, 22.67831
857.1705, 22.97111
857.6526, 23.33236
858.1347, 23.26866
858.6168, 22.63356
859.0989, 22.23620
859.5811, 22.15249
860.0632, 22.20046
860.5453, 22.54763
861.0274, 22.85102
861.5095, 22.68887
861.9916, 22.17280
862.4738, 21.88564
862.9559, 22.11335
863.4380, 22.45178
863.9201, 22.81027
864.4022, 23.02281
864.8843, 22.74661
865.3665, 22.13089
865.8486, 21.64667
866.3307, 21.49661
866.8128, 21.60909
867.2949, 22.01759
867.7770, 22.61247
868.2592, 22.89283
868.7413, 22.85439
869.2234, 22.73029
869.7055, 22.57228
870.1876, 22.38676
870.6697, 22.14547
871.1519, 21.89212
871.6340, 21.90424
872.1161, 22.54299
872.5981, 22.75224
873.0803, 21.89538
873.5624, 21.24045
874.0445, 21.58850
874.5266, 22.33475
875.0087, 22.59168
875.4908, 22.22672
875.9730, 21.78149
876.4551, 21.28086
876.9372, 20.93007
877.4193, 20.97075
877.9014, 21.17569
878.3835, 21.26443
878.8657, 21.19715
879.3478, 21.02002
879.8299, 20.71049
880.3120, 20.50468
880.7941, 20.93905
881.2762, 21.72957
881.7584, 21.80982
882.2405, 21.17035
882.7226, 20.78990
883.2047, 21.12066
883.6868, 21.76229
884.1689, 22.21649
884.6511, 22.48037
885.1332, 22.37278
885.6153, 21.72388
886.0974, 21.16567
886.5795, 20.80157
887.0616, 20.58493
887.5438, 20.47794
888.0259, 20.49177
888.5080, 20.68662
888.9901, 21.23635
889.4722, 21.55080
889.9543, 21.33681
890.4365, 21.09679
890.9186, 21.15216
891.4007, 21.31227
891.8828, 21.29934
892.3649, 21.07971
892.8470, 20.81976
893.3292, 20.61117
893.8113, 20.40443
894.2934, 19.99685
894.7755, 19.62500
895.2576, 19.85038
895.7397, 20.59130
896.2219, 21.18715
896.7040, 21.28884
897.1861, 21.12624
897.6682, 20.98922
898.1503, 20.88180
898.6324, 20.86533
899.1146, 20.95253
899.5967, 20.90983
900.0788, 20.62405
900.5609, 20.34064
901.0430, 20.31608
901.5251, 20.50073
902.0073, 20.58343
902.4894, 20.51485
902.9715, 20.44272
903.4536, 20.24047
903.9357, 20.19488
904.4178, 20.64532
904.9000, 21.21711
905.3821, 21.33692
905.8642, 20.93469
906.3463, 20.62916
906.8284, 20.75665
907.3105, 20.78575
907.7927, 20.25014
908.2748, 19.65533
908.7569, 19.62911
909.2390, 20.04868
909.7211, 20.30618
910.2032, 20.10599
910.6854, 19.83896
911.1675, 19.91644
911.6496, 20.13018
912.1317, 20.10427
912.6138, 19.90054
913.0959, 19.80365
913.5781, 19.89530
914.0602, 20.04957
914.5423, 20.18359
915.0244, 20.23388
915.5065, 19.88646
915.9886, 19.13483
916.4708, 18.86501
916.9529, 19.26284
917.4350, 19.73513
917.9171, 20.00660
918.3992, 20.06880
918.8813, 19.84014
919.3635, 19.21692
919.8456, 19.12334
920.3277, 20.13262
920.8098, 20.72919
921.2919, 20.22277
921.7740, 19.53113
922.2562, 19.25771
922.7383, 19.31484
923.2204, 19.41575
923.7025, 19.53607
924.1846, 19.67621
924.6667, 19.93759
925.1489, 20.11083
925.6310, 19.96210
926.1131, 19.70341
926.5952, 19.68201
927.0773, 19.90320
927.5594, 19.99607
928.0416, 19.67543
928.5237, 19.28072
929.0058, 19.12025
929.4879, 19.08718
929.9700, 19.01711
930.4521, 18.90617
930.9343, 18.78610
931.4164, 18.67579
931.8985, 18.69701
932.3806, 19.07758
932.8627, 19.66987
933.3448, 20.00260
933.8270, 20.08685
934.3091, 20.01300
934.7912, 19.79174
935.2733, 19.55866
935.7554, 19.40276
936.2375, 19.31858
936.7197, 19.30817
937.2018, 19.39645
937.6839, 19.41434
938.1660, 19.34611
938.6481, 19.23606
939.1302, 19.01113
939.6124, 18.86170
940.0945, 19.07994
940.5766, 19.59866
941.0587, 19.78206
941.5408, 19.18198
942.0229, 18.94545
942.5051, 19.50081
942.9872, 20.01792
943.4693, 20.07705
943.9514, 19.86115
944.4335, 19.54721
944.9156, 19.17725
945.3978, 19.05337
945.8799, 19.61518
946.3620, 20.03578
946.8441, 19.69119
947.3262, 19.14952
947.8083, 19.01521
948.2905, 19.20321
948.7726, 19.30943
949.2547, 19.18439
949.7368, 19.06416
950.2189, 19.20648
950.7010, 19.14095
951.1832, 19.41238
951.6653, 19.27764
952.1474, 19.28724
952.6295, 19.47366
953.1116, 19.68476
953.5938, 19.83056
954.0759, 19.89946
954.5580, 19.86676
955.0400, 19.73945
955.5222, 19.51179
956.0043, 19.18854
956.4864, 19.00197
956.9685, 19.03891
957.4506, 19.11412
957.9327, 19.03440
958.4149, 19.09451
958.8970, 19.15577
959.3791, 19.11605
959.8612, 19.26420
960.3433, 19.27404
960.8254, 19.21535
961.3076, 19.06225
961.7897, 18.93340
962.2718, 19.05516
962.7539, 19.43899
963.2360, 19.46566
963.7181, 18.80528
964.2003, 18.29641
964.6824, 17.92603
965.1645, 17.81368
965.6466, 18.22676
966.1287, 18.85998
966.6108, 19.18781
967.0930, 19.13988
967.5751, 19.05617
968.0572, 18.94450
968.5393, 18.88974
969.0214, 18.94411
969.5035, 19.05521
969.9857, 19.26758
970.4678, 19.48147
970.9499, 19.44184
971.4320, 19.03928
971.9141, 18.61742
972.3962, 18.24230
972.8784, 18.06420
973.3605, 18.40456
973.8426, 18.94138
974.3247, 19.14044
974.8068, 18.98466
975.2889, 18.83126
975.7711, 18.87704
976.2532, 18.98715
976.7353, 19.07295
977.2174, 19.08765
977.6995, 18.82727
978.1816, 18.41402
978.6638, 18.34450
979.1459, 18.71743
979.6280, 19.09146
980.1101, 19.10478
980.5922, 18.91401
981.0743, 18.83426
981.5565, 18.84397
982.0386, 18.76797
982.5207, 18.60115
983.0028, 18.63690
983.4849, 19.01083
983.9670, 19.39691
984.4492, 19.41534
984.9313, 19.16367
985.4134, 19.11968
985.8955, 19.31857
986.3776, 19.49014
986.8597, 19.65557
987.3419, 19.56710
987.8240, 18.95860
988.3061, 18.31350
988.7882, 18.38296
989.2703, 19.16118
989.7524, 19.58857
990.2346, 19.51773
990.7167, 19.41727
991.1988, 19.30311
991.6809, 19.22978
992.1630, 19.30845
992.6451, 19.40628
993.1273, 19.21387
993.6094, 18.64557
994.0915, 18.42027
994.5736, 18.95112
995.0557, 19.26247
995.5378, 18.95953
996.0200, 18.58748
996.5021, 18.53761
996.9842, 18.67635
997.4663, 18.67781
997.9484, 18.45901
998.4305, 18.40952
998.9127, 18.79427
999.3948, 19.15732
999.8769, 19.31701
1000.359, 19.35436
1000.841, 19.37134
1001.323, 19.33285
1001.805, 19.05716
1002.287, 18.43227
1002.770, 18.04430
1003.252, 18.47353
1003.734, 18.94864
1004.216, 18.80299
1004.698, 18.42517
1005.180, 18.40065
1005.662, 18.68522
1006.144, 18.79720
1006.627, 18.49673
1007.109, 18.23444
1007.591, 18.60225
1008.073, 19.02745
1008.555, 18.61938
1009.037, 17.82900
1009.519, 17.63320
1010.001, 18.10361
1010.483, 18.62474
1010.966, 18.86156
1011.448, 18.88835
1011.930, 18.62653
1012.412, 18.29850
1012.894, 18.44303
1013.376, 18.91204
1013.858, 19.18328
1014.340, 19.13762
1014.823, 18.92597
1015.305, 18.64278
1015.787, 18.31503
1016.269, 17.89281
1016.751, 17.46839
1017.233, 17.46016
1017.715, 17.83310
1018.197, 18.23269
1018.679, 18.55417
1019.162, 18.75181
1019.644, 18.77355
1020.126, 18.69982
1020.608, 18.72896
1021.090, 18.84780
1021.572, 18.89424
1022.054, 18.86311
1022.536, 18.61934
1023.018, 18.07582
1023.501, 17.71258
1023.983, 18.00882
1024.465, 18.71947
1024.947, 19.08325
1025.429, 19.07832
1025.911, 18.91590
1026.393, 18.53572
1026.875, 18.40434
1027.358, 18.77682
1027.840, 19.12688
1028.322, 18.88490
1028.804, 18.24773
1029.286, 18.06135
1029.768, 18.46319
1030.250, 18.74905
1030.732, 18.89967
1031.214, 18.94272
1031.697, 18.87846
1032.179, 18.71823
1032.661, 18.42509
1033.143, 18.05450
1033.625, 17.88767
1034.107, 17.96335
1034.589, 18.16729
1035.071, 18.68034
1035.553, 18.98214
1036.036, 18.75019
1036.518, 18.38527
1037.000, 18.25418
1037.482, 18.34124
1037.964, 18.56631
1038.446, 19.07373
1038.928, 19.43539
1039.410, 19.74418
1039.893, 19.77778
1040.375, 19.20897
1040.857, 18.53100
1041.339, 18.23583
1041.821, 18.26088
1042.303, 18.27313
1042.785, 18.22013
1043.267, 18.24488
1043.750, 18.40535
1044.232, 18.57921
1044.714, 18.87166
1045.196, 19.04296
1045.678, 18.63843
1046.160, 17.86580
1046.642, 17.73655
1047.124, 18.84819
1047.606, 19.46073
1048.089, 18.95246
1048.571, 18.39021
1049.053, 18.09824
1049.535, 18.03353
1050.017, 18.26551
1050.499, 18.68011
1050.981, 18.84931
1051.463, 18.57241
1051.945, 18.40982
1052.428, 18.53503
1052.910, 18.73160
1053.392, 18.99377
1053.874, 19.20893
1054.356, 19.30095
1054.838, 19.25138
1055.320, 18.98243
1055.802, 18.34328
1056.285, 17.95912
1056.767, 18.04020
1057.249, 18.37613
1057.731, 19.19353
1058.213, 19.95758
1058.695, 20.07484
1059.177, 19.68489
1059.659, 19.31513
1060.141, 19.07942
1060.624, 18.90247
1061.106, 18.70932
1061.588, 18.62585
1062.070, 18.86578
1062.552, 19.12578
1063.034, 19.02270
1063.516, 18.69120
1063.998, 18.56466
1064.480, 18.77144
1064.963, 18.98289
1065.445, 19.23284
1065.927, 19.25430
1066.409, 18.58965
1066.891, 17.89337
1067.373, 17.93222
1067.855, 18.44069
1068.337, 18.64395
1068.820, 18.33862
1069.302, 18.10979
1069.784, 18.34028
1070.266, 18.54268
1070.748, 18.43283
1071.230, 18.20376
1071.712, 17.94872
1072.194, 17.74891
1072.677, 17.75105
1073.159, 17.98202
1073.641, 18.20617
1074.123, 18.28862
1074.605, 18.38111
1075.087, 18.69425
1075.569, 18.92914
1076.051, 18.73754
1076.533, 18.30658
1077.016, 17.98945
1077.498, 17.85271
1077.980, 17.77493
1078.462, 17.61570
1078.944, 17.63372
1079.426, 18.18082
1079.908, 18.73440
1080.390, 18.87716
1080.872, 18.73235
1081.354, 18.48836
1081.837, 18.20098
1082.319, 17.94991
1082.801, 17.74758
1083.283, 17.61949
1083.765, 17.54646
1084.247, 17.58528
1084.729, 17.90553
1085.211, 18.28501
1085.694, 18.35852
1086.176, 18.17254
1086.658, 18.19371
1087.140, 18.72941
1087.622, 19.04683
1088.104, 18.63107
1088.586, 18.13239
1089.068, 17.88394
1089.551, 17.84023
1090.033, 18.03884
1090.515, 18.36790
1090.997, 18.48911
1091.479, 18.26534
1091.961, 18.04983
1092.443, 17.94790
1092.925, 17.92144
1093.407, 17.99691
1093.890, 18.10199
1094.372, 18.26271
1094.854, 18.37517
1095.336, 18.12715
1095.818, 17.39008
1096.300, 16.95774
1096.782, 17.31747
1097.264, 17.71575
1097.746, 17.92946
1098.229, 17.99768
1098.711, 17.82342
1099.193, 17.58563
1099.675, 17.68220
1100.157, 18.16652
1100.639, 18.34434
1101.121, 17.61275
1101.603, 17.16975
1102.086, 17.62976
1102.568, 18.16063
1103.050, 18.22598
1103.532, 18.05243
1104.014, 17.92604
1104.496, 17.88604
1104.978, 18.02661
1105.460, 18.67784
1105.943, 18.98026
1106.425, 18.39602
1106.907, 17.92538
1107.389, 18.31956
1107.871, 18.81922
1108.353, 18.38601
1108.835, 17.28611
1109.317, 16.92144
1109.799, 17.82601
1110.281, 17.93654
1110.764, 18.58857
1111.246, 18.94822
1111.728, 19.03113
1112.210, 18.00854
1112.692, 18.41348
1113.174, 18.24634
1113.656, 18.05573
1114.138, 18.66160
1114.621, 17.79977
1115.103, 18.39301
1115.585, 18.40542
1116.067, 18.68366
1116.549, 18.38628
1117.031, 18.26669
1117.513, 18.72291
1117.995, 18.86030
1118.478, 18.49661
1118.960, 18.79176
1119.442, 18.71290
1119.924, 18.06081
1120.406, 18.65742
1120.888, 18.32272
1121.370, 17.99961
1121.852, 17.85198
1122.334, 17.69448
1122.817, 17.53320
1123.299, 17.38199
1123.781, 17.18870
1124.263, 17.26221
1124.745, 17.72267
1125.227, 18.01808
1125.709, 17.92584
1126.191, 17.80391
1126.673, 17.97106
1127.156, 18.27493
1127.638, 18.32818
1128.120, 18.12001
1128.602, 17.98839
1129.084, 17.94118
1129.566, 17.90332
1130.048, 17.86357
1130.530, 17.77991
1131.013, 17.60842
1131.495, 17.49571
1131.977, 17.70836
1132.459, 17.68624
1132.941, 18.22452
1133.423, 17.99241
1133.905, 17.97958
1134.387, 18.22233
1134.870, 18.06840
1135.352, 17.26066
1135.834, 16.62645
1136.316, 17.03064
1136.798, 17.93804
1137.280, 18.29004
1137.762, 18.16473
1138.244, 17.59818
1138.726, 16.78868
1139.208, 16.65386
1139.691, 17.35030
1140.173, 18.28707
1140.655, 19.14749
1141.137, 19.64566
1141.619, 19.13480
1142.101, 18.21222
1142.583, 17.99917
1143.065, 18.20409
1143.548, 18.09230
1144.030, 17.67886
1144.512, 17.48321
1144.994, 17.69480
1145.476, 17.91669
1145.958, 17.78888
1146.440, 17.57897
1146.922, 17.55099
1147.405, 17.60474
1147.887, 17.61653
1148.369, 17.60549
1148.851, 17.64252
1149.333, 17.73306
1149.815, 17.81111
1150.297, 17.83886
1150.779, 17.86724
1151.261, 17.92018
1151.744, 17.99111
1152.226, 18.17119
1152.708, 18.29656
1153.190, 18.09991
1153.672, 17.68213
1154.154, 17.36711
1154.636, 17.20827
1155.118, 17.27604
1155.600, 17.82454
1156.083, 18.28270
1156.565, 18.50010
1157.047, 18.51331
1157.529, 18.25285
1158.011, 17.85973
1158.493, 17.49288
1158.975, 17.16546
1159.457, 17.09253
1159.940, 17.53061
1160.422, 17.82563
1160.904, 17.93521
1161.386, 17.92947
1161.868, 17.75688
1162.350, 17.56387
1162.832, 17.45711
1163.314, 17.44790
1163.796, 17.61413
1164.279, 17.52007
1164.761, 17.39376
1165.243, 17.49668
1165.725, 17.09661
1166.207, 17.03318
1166.689, 17.12145
1167.171, 17.28791
1167.653, 17.44608
1168.135, 17.44525
1168.618, 17.34337
1169.100, 17.54729
1169.582, 17.47879
1170.064, 18.10949
1170.546, 17.68326
1171.028, 17.56912
1171.510, 18.03312
1171.992, 18.51764
1172.474, 18.57732
1172.957, 18.37885
1173.439, 18.09048
1173.921, 17.81650
1174.403, 17.97927
1174.885, 18.41795
1175.367, 18.56292
1175.849, 18.37222
1176.331, 18.14189
1176.814, 18.00488
1177.296, 17.95226
1177.778, 18.03129
1178.260, 18.11612
1178.742, 18.00812
1179.224, 17.85457
1179.706, 17.84575
1180.188, 17.95769
1180.671, 18.15945
1181.153, 18.40251
1181.635, 18.53105
1182.117, 18.47730
1182.599, 18.30049
1183.081, 17.79126
1183.563, 17.45535
1184.045, 17.85852
1184.527, 18.37461
1185.010, 18.28932
1185.492, 17.83866
1185.974, 17.66697
1186.456, 17.87462
1186.938, 18.12419
1187.420, 18.57721
1187.902, 18.73946
1188.384, 18.23299
1188.866, 17.78969
1189.349, 17.79392
1189.831, 17.94276
1190.313, 17.90688
1190.795, 17.75830
1191.277, 17.80278
1191.759, 18.12029
1192.241, 18.26290
1192.723, 18.17328
1193.206, 18.11878
1193.688, 18.17620
1194.170, 18.16309
1194.652, 17.93312
1195.134, 17.73782
1195.616, 17.98127
1196.098, 17.91521
1196.580, 18.61103
1197.063, 18.34255
1197.545, 18.52210
1198.027, 19.12354
1198.509, 19.26726
1198.991, 18.72846
1199.473, 18.00792
1199.955, 17.41382
1200.437, 17.11502
1200.919, 17.53707
1201.401, 18.25680
1201.884, 18.56408
1202.366, 18.59223
1202.848, 18.60525
1203.330, 18.61527
1203.812, 18.49807
1204.294, 18.23617
1204.776, 18.04116
1205.258, 18.04344
1205.741, 18.13181
1206.223, 18.32724
1206.705, 18.48328
1207.187, 18.44828
1207.669, 18.33691
1208.151, 18.24142
1208.633, 18.20628
1209.115, 18.38025
1209.598, 18.88908
1210.080, 19.01488
1210.562, 18.20119
1211.044, 17.66204
1211.526, 17.90472
1212.008, 18.13237
1212.490, 17.86492
1212.972, 17.52539
1213.454, 17.66379
1213.937, 18.14993
1214.419, 18.34140
1214.901, 18.17735
1215.383, 18.01493
1215.865, 17.84894
1216.347, 17.72553
1216.829, 17.65730
1217.311, 17.59018
1217.793, 17.47433
1218.276, 17.50838
1218.758, 18.06276
1219.240, 18.83000
1219.722, 18.85490
1220.204, 18.34900
1220.686, 17.98865
1221.168, 17.83839
1221.650, 17.95334
1222.133, 18.28983
1222.615, 18.54843
1223.097, 18.55662
1223.579, 18.48599
1224.061, 18.54382
1224.543, 18.54170
1225.025, 18.16265
1225.507, 17.72632
1225.990, 17.57199
1226.472, 17.68270
1226.954, 18.02909
1227.436, 18.55679
1227.918, 18.93609
1228.400, 19.11500
1228.882, 19.04345
1229.364, 18.35100
1229.846, 17.87404
1230.328, 18.17818
1230.811, 18.57322
1231.293, 18.45187
1231.775, 18.66238
1232.257, 18.77120
1232.739, 18.65835
1233.221, 18.86555
1233.703, 18.75720
1234.185, 18.61020
1234.668, 18.41056
1235.150, 18.38646
1235.632, 18.62288
1236.114, 19.00052
1236.596, 19.46451
1237.078, 19.81615
1237.560, 19.56591
1238.042, 19.82740
1238.525, 19.07267
1239.007, 19.55853
1239.489, 19.42688
1239.971, 18.74968
1240.453, 18.19398
1240.935, 17.98133
1241.417, 18.06024
1241.899, 18.49180
1242.381, 18.87698
1242.864, 18.79924
1243.346, 18.65468
1243.828, 18.80330
1244.310, 19.04441
1244.792, 19.22236
1245.274, 19.26730
1245.756, 18.96088
1246.238, 18.28181
1246.720, 18.04886
1247.203, 18.89420
1247.685, 19.36245
1248.167, 19.08429
1248.649, 18.81918
1249.131, 18.75090
1249.613, 18.86888
1250.095, 19.30763
1250.577, 19.71504
1251.059, 19.31781
1251.542, 18.21408
1252.024, 17.59004
1252.506, 17.44158
1252.988, 17.47668
1253.470, 17.65656
1253.952, 17.82028
1254.434, 17.92136
1254.916, 18.07964
1255.399, 18.38353
1255.881, 18.72485
1256.363, 19.09025
1256.845, 19.30187
1257.327, 18.83358
1257.809, 18.21318
1258.291, 18.37193
1258.773, 19.02221
1259.255, 19.37236
1259.738, 19.28645
1260.220, 19.13263
1260.702, 19.04129
1261.184, 18.89303
1261.666, 18.35748
1262.148, 18.14849
1262.630, 18.93148
1263.112, 19.73648
1263.594, 19.84464
1264.077, 19.56688
1264.559, 19.31278
1265.041, 19.08663
1265.523, 18.91544
1266.005, 18.77646
1266.487, 18.90740
1266.969, 19.37686
1267.451, 19.43551
1267.934, 18.89315
1268.416, 18.37436
1268.898, 18.22281
1269.380, 18.34692
1269.862, 18.73231
1270.344, 19.15951
1270.826, 19.21305
1271.308, 19.02648
1271.791, 18.73089
1272.273, 18.45580
1272.755, 18.51172
1273.237, 18.82651
1273.719, 18.92980
1274.201, 18.64565
1274.683, 18.43800
1275.165, 18.61219
1275.647, 18.76098
1276.130, 18.61758
1276.612, 18.53900
1277.094, 18.80925
1277.576, 19.18868
1278.058, 19.45863
1278.540, 19.61169
1279.022, 19.60383
1279.504, 19.67678
1279.986, 19.64308
1280.469, 19.52565
1280.951, 19.50716
1281.433, 19.26234
1281.915, 19.14775
1282.397, 19.29254
1282.879, 19.49212
1283.361, 19.60039
1283.843, 19.58286
1284.326, 19.39847
1284.808, 19.04462
##END=



