##NAMES=Skutterudite
##RRUFFID=R070528
##IDEAL CHEMISTRY=Co^3+^As_3_
##LOCALITY=Cobalt, Coleman Township, Timiskamig County, Ontario, Canada
##OWNER=RRUFF
##SOURCE=James Shigley
##DESCRIPTION=Silver-grey metallic massive and radiating prismatic crystals
##STATUS=The identification of this mineral is confirmed by single-crystal X-ray diffraction and chemical analysis.
##URL=rruff.info/R070528
##MEASURED CHEMISTRY=(Co_0.82_Fe_0.12_Ni_0.09_)_Σ=1.03_(As_2.99_S_0.01_)_Σ=3.00_ ; (Note: dark phase is lollingite, (Fe_0.69_Co_0.23_Ni_0.11_)_Σ=1.03_(As_1.98_S_0.01_)_Σ=2.00_) Bright spots are native bismuth
169.1381, 71.02714
169.6203, 70.90071
170.1024, 70.36581
170.5845, 70.30873
171.0666, 70.41557
171.5487, 70.15005
172.0309, 69.54955
172.5130, 69.09544
172.9951, 69.26028
173.4772, 69.76487
173.9593, 70.17603
174.4414, 70.34022
174.9236, 70.32344
175.4057, 70.08945
175.8878, 69.63290
176.3699, 69.28849
176.8520, 69.42257
177.3341, 69.87279
177.8163, 70.29096
178.2984, 70.38436
178.7805, 70.40144
179.2626, 70.74403
179.7447, 71.42548
180.2268, 72.24036
180.7090, 73.19648
181.1911, 74.16420
181.6732, 74.71577
182.1553, 74.24035
182.6374, 73.27041
183.1195, 73.03581
183.6017, 73.64722
184.0838, 74.49062
184.5659, 74.86372
185.0480, 74.84048
185.5301, 74.81013
186.0123, 74.87608
186.4944, 75.06979
186.9765, 75.59446
187.4586, 76.54939
187.9407, 77.50366
188.4228, 77.65376
188.9050, 77.09003
189.3871, 76.79015
189.8692, 77.51791
190.3513, 79.02061
190.8334, 79.96000
191.3155, 80.14389
191.7977, 80.08135
192.2798, 80.60197
192.7619, 81.70345
193.2440, 82.89139
193.7261, 83.84009
194.2082, 84.59099
194.6904, 85.71007
195.1725, 87.28596
195.6546, 89.12193
196.1367, 90.80051
196.6188, 92.31853
197.1009, 93.83949
197.5831, 95.95000
198.0652, 98.66269
198.5473, 99.33414
199.0294, 97.45554
199.5115, 94.00420
199.9937, 90.70066
200.4758, 87.52522
200.9579, 84.83556
201.4400, 82.91519
201.9221, 81.79240
202.4042, 81.03292
202.8864, 80.69946
203.3685, 80.62454
203.8506, 80.38560
204.3327, 79.92373
204.8148, 79.54229
205.2969, 79.42210
205.7791, 79.59082
206.2612, 79.85149
206.7433, 80.29111
207.2254, 80.74315
207.7075, 80.64243
208.1896, 79.72546
208.6718, 79.02190
209.1539, 79.28315
209.6360, 80.82024
210.1181, 81.66920
210.6002, 81.48884
211.0823, 80.69179
211.5645, 80.47784
212.0466, 81.04591
212.5287, 81.72981
213.0108, 82.10748
213.4929, 82.01113
213.9750, 82.32140
214.4572, 83.27874
214.9393, 84.59421
215.4214, 85.41238
215.9035, 85.57793
216.3856, 85.56577
216.8678, 85.68829
217.3499, 86.13412
217.8320, 86.09255
218.3141, 85.45198
218.7962, 84.32221
219.2783, 82.92611
219.7605, 80.92991
220.2426, 79.29015
220.7247, 78.63559
221.2068, 79.39742
221.6889, 79.92238
222.1710, 80.15686
222.6532, 80.10619
223.1353, 79.63020
223.6174, 78.14111
224.0995, 77.20137
224.5816, 71.80662
225.0637, 75.74797
225.5459, 78.11224
226.0280, 78.98406
226.5101, 73.89361
226.9922, 76.50219
227.4743, 76.02535
227.9564, 75.42199
228.4386, 79.11424
228.9207, 74.89099
229.4028, 78.51506
229.8849, 79.00662
230.3670, 80.93186
230.8492, 78.63282
231.3313, 79.21400
231.8134, 79.57799
232.2955, 79.20954
232.7776, 77.50903
233.2597, 76.50793
233.7419, 76.43855
234.2240, 77.01443
234.7061, 77.49173
235.1882, 77.77762
235.6703, 78.10764
236.1524, 78.63023
236.6346, 79.58114
237.1167, 80.17668
237.5988, 80.36002
238.0809, 80.21627
238.5630, 79.89181
239.0451, 79.16070
239.5273, 78.58995
240.0094, 78.41463
240.4915, 78.72800
240.9736, 79.21584
241.4557, 80.01380
241.9378, 80.92667
242.4200, 81.53555
242.9021, 81.70812
243.3842, 81.78869
243.8663, 81.88991
244.3484, 81.99546
244.8306, 82.16625
245.3127, 82.38290
245.7948, 82.67278
246.2769, 83.09609
246.7590, 83.69701
247.2411, 84.35432
247.7233, 85.11232
248.2054, 86.15154
248.6875, 86.57133
249.1696, 86.04087
249.6517, 85.11241
250.1338, 84.65502
250.6160, 84.70492
251.0981, 85.17561
251.5802, 86.19222
252.0623, 87.98504
252.5444, 89.10542
253.0265, 89.15002
253.5087, 88.84647
253.9908, 89.30054
254.4729, 90.99755
254.9550, 92.46736
255.4371, 93.21339
255.9192, 93.10799
256.4014, 93.33437
256.8835, 94.23038
257.3656, 95.12264
257.8477, 95.12595
258.3298, 93.81407
258.8120, 92.55574
259.2941, 91.63390
259.7762, 91.04823
260.2583, 90.75875
260.7404, 90.72839
261.2225, 91.03355
261.7047, 91.81213
262.1868, 93.22791
262.6689, 94.68483
263.1510, 96.02173
263.6331, 97.23692
264.1152, 98.85574
264.5974, 101.1633
265.0795, 103.4166
265.5616, 104.7443
266.0437, 104.8376
266.5258, 105.2226
267.0079, 106.7589
267.4901, 109.0608
267.9722, 108.2290
268.4543, 103.2546
268.9364, 97.15378
269.4185, 92.18227
269.9006, 88.38982
270.3828, 85.56516
270.8649, 83.85709
271.3470, 83.06141
271.8291, 82.13406
272.3112, 80.92922
272.7933, 79.94328
273.2755, 79.62577
273.7576, 80.07516
274.2397, 80.47115
274.7218, 80.69434
275.2039, 80.81277
275.6860, 81.09669
276.1682, 81.63339
276.6503, 82.01749
277.1324, 81.92245
277.6145, 81.30894
278.0966, 80.74423
278.5787, 80.20645
279.0609, 79.82210
279.5430, 80.00884
280.0251, 80.87913
280.5072, 81.63526
280.9893, 81.74029
281.4715, 81.19908
281.9536, 80.85160
282.4357, 80.72075
282.9178, 80.81615
283.3999, 81.29971
283.8820, 82.20276
284.3642, 82.90508
284.8463, 82.96758
285.3284, 82.46188
285.8105, 82.26060
286.2926, 82.40390
286.7747, 82.72514
287.2569, 83.08897
287.7390, 83.48605
288.2211, 83.69334
288.7032, 83.49474
289.1853, 83.01200
289.6674, 82.78435
290.1496, 82.82359
290.6317, 83.02969
291.1138, 83.38717
291.5959, 83.86279
292.0780, 84.21317
292.5602, 84.38028
293.0423, 84.36633
293.5244, 84.04555
294.0065, 83.40176
294.4886, 82.88577
294.9707, 83.10406
295.4529, 83.83614
295.9350, 84.26125
296.4171, 84.05303
296.8992, 83.53390
297.3813, 83.22937
297.8634, 83.13207
298.3456, 83.15408
298.8277, 83.32506
299.3098, 83.56252
299.7919, 83.64383
300.2740, 83.42263
300.7561, 83.20734
301.2383, 83.53581
301.7204, 84.28952
302.2025, 84.90627
302.6846, 84.90794
303.1667, 84.58835
303.6488, 84.39585
304.1310, 84.42590
304.6131, 84.50742
305.0952, 84.47850
305.5773, 84.36617
306.0594, 84.24400
306.5415, 84.14104
307.0237, 84.05173
307.5058, 83.95669
307.9879, 83.84760
308.4700, 83.78183
308.9521, 83.84791
309.4343, 83.98239
309.9164, 84.07494
310.3985, 83.99533
310.8806, 83.91216
311.3627, 83.98109
311.8448, 84.21109
312.3270, 84.42887
312.8091, 84.34851
313.2912, 84.25535
313.7733, 84.48648
314.2554, 85.70130
314.7375, 86.80456
315.2197, 87.20273
315.7018, 86.94677
316.1839, 86.46734
316.6660, 85.58363
317.1481, 84.75179
317.6302, 84.36902
318.1124, 84.90889
318.5945, 85.43031
319.0766, 85.64957
319.5587, 85.60522
320.0408, 85.43853
320.5229, 84.99453
321.0051, 84.57974
321.4872, 84.37716
321.9693, 84.52876
322.4514, 84.68270
322.9335, 84.75379
323.4156, 84.78127
323.8978, 84.84083
324.3799, 84.98904
324.8620, 85.13376
325.3441, 85.27265
325.8262, 85.46297
326.3083, 85.46093
326.7905, 85.17050
327.2726, 84.70180
327.7547, 84.19531
328.2368, 83.22666
328.7189, 82.66517
329.2010, 82.81399
329.6832, 83.75246
330.1653, 84.50706
330.6474, 85.18967
331.1295, 85.60723
331.6116, 85.57034
332.0938, 84.63717
332.5759, 83.94325
333.0580, 83.60030
333.5401, 83.60293
334.0222, 84.01351
334.5043, 85.28977
334.9865, 86.34830
335.4686, 86.42970
335.9507, 84.99171
336.4328, 84.06258
336.9149, 83.86443
337.3970, 84.17821
337.8792, 84.42086
338.3613, 84.54749
338.8434, 84.74017
339.3255, 85.14782
339.8076, 85.83405
340.2898, 86.24454
340.7719, 86.33922
341.2540, 86.23738
341.7361, 86.04423
342.2182, 85.73746
342.7003, 85.59648
343.1825, 85.82405
343.6646, 86.33295
344.1467, 86.48203
344.6288, 86.22342
345.1109, 85.85212
345.5930, 85.64840
346.0752, 85.60220
346.5573, 85.57829
347.0394, 85.51074
347.5215, 85.47208
348.0036, 85.77565
348.4857, 86.40498
348.9679, 86.79350
349.4500, 86.24330
349.9321, 85.10154
350.4142, 84.41666
350.8963, 84.43212
351.3784, 84.72636
351.8606, 84.78573
352.3427, 84.66353
352.8248, 84.55682
353.3069, 84.61037
353.7890, 84.73332
354.2711, 84.78561
354.7533, 84.74632
355.2354, 84.73161
355.7175, 84.86127
356.1996, 85.08167
356.6817, 85.29908
357.1638, 85.60350
357.6460, 85.79551
358.1281, 85.60886
358.6102, 85.08106
359.0923, 84.67823
359.5744, 84.63864
360.0565, 84.86758
360.5387, 85.29750
361.0208, 86.22478
361.5029, 86.95729
361.9850, 87.07431
362.4671, 86.73009
362.9492, 86.39320
363.4314, 86.18555
363.9135, 86.05897
364.3956, 86.00415
364.8777, 86.07050
365.3598, 86.08604
365.8419, 86.02172
366.3241, 85.88452
366.8062, 85.68420
367.2883, 85.08828
367.7704, 84.75072
368.2526, 85.04385
368.7347, 86.19041
369.2168, 86.67834
369.6989, 85.74609
370.1810, 84.60868
370.6631, 84.27348
371.1453, 85.33764
371.6274, 85.78122
372.1095, 86.02821
372.5916, 86.07579
373.0737, 85.93768
373.5558, 84.89289
374.0380, 85.14485
374.5201, 84.95419
375.0022, 84.79810
375.4843, 85.38985
375.9664, 84.75990
376.4485, 85.45064
376.9307, 85.69118
377.4128, 86.21792
377.8949, 86.29890
378.3770, 86.58956
378.8591, 87.43607
379.3412, 87.09981
379.8234, 86.93960
380.3055, 86.57272
380.7876, 85.95286
381.2697, 85.10833
381.7518, 84.67522
382.2339, 84.99504
382.7161, 85.69651
383.1982, 85.86564
383.6803, 85.51781
384.1624, 85.13008
384.6445, 84.95286
385.1266, 85.00992
385.6088, 85.48943
386.0909, 86.58016
386.5730, 87.58706
387.0551, 87.48814
387.5372, 86.59964
388.0193, 85.82298
388.5015, 85.66618
388.9836, 85.84608
389.4657, 86.15716
389.9478, 86.59574
390.4299, 86.89906
390.9120, 86.70437
391.3942, 86.32724
391.8763, 86.16216
392.3584, 86.62032
392.8405, 87.05968
393.3226, 87.08739
393.8047, 86.78974
394.2869, 86.56104
394.7690, 86.59169
395.2511, 86.71422
395.7332, 86.83479
396.2154, 86.95927
396.6975, 87.03865
397.1796, 87.07821
397.6617, 87.06449
398.1438, 86.57194
398.6259, 87.13058
399.1081, 87.43484
399.5902, 87.49841
400.0723, 86.60031
400.5544, 86.94400
401.0365, 86.79004
401.5186, 86.61567
402.0008, 87.13412
402.4829, 86.37590
402.9650, 86.88338
403.4471, 86.88561
403.9292, 87.11908
404.4113, 86.85183
404.8935, 86.73923
405.3756, 87.12752
405.8577, 87.23847
406.3398, 86.91357
406.8219, 87.16175
407.3040, 86.38604
407.7862, 86.50880
408.2683, 87.01921
408.7504, 86.71950
409.2325, 86.97682
409.7146, 87.02200
410.1967, 86.10303
410.6789, 86.86081
411.1610, 86.41200
411.6431, 86.59647
412.1252, 86.63400
412.6073, 86.60522
413.0894, 86.80373
413.5716, 87.40838
414.0537, 87.97726
414.5358, 87.81859
415.0179, 87.12862
415.5000, 86.54403
415.9821, 86.37727
416.4643, 86.51327
416.9464, 87.01224
417.4285, 87.91386
417.9106, 88.51350
418.3927, 87.94060
418.8748, 86.94371
419.3570, 86.42170
419.8391, 87.19437
420.3212, 87.99363
420.8033, 88.28108
421.2854, 88.13671
421.7675, 87.95295
422.2497, 87.77747
422.7318, 87.65015
423.2139, 87.58817
423.6960, 87.57224
424.1781, 87.67189
424.6602, 88.06467
425.1424, 88.53410
425.6245, 88.74946
426.1066, 88.38715
426.5887, 88.18249
427.0709, 88.37871
427.5530, 88.97487
428.0351, 89.25228
428.5172, 88.95016
428.9993, 88.68873
429.4814, 89.02119
429.9636, 90.21867
430.4457, 90.94398
430.9278, 91.01631
431.4099, 90.62894
431.8920, 90.06030
432.3741, 89.24056
432.8563, 88.75488
433.3384, 89.21326
433.8205, 90.36749
434.3026, 90.29671
434.7847, 88.86569
435.2668, 87.29996
435.7490, 86.84418
436.2311, 87.29640
436.7132, 88.02412
437.1953, 89.08450
437.6774, 90.02847
438.1595, 90.02272
438.6417, 89.29137
439.1238, 88.76175
439.6059, 89.26081
440.0880, 90.10973
440.5701, 90.59989
441.0522, 90.63305
441.5344, 90.46472
442.0165, 90.17252
442.4986, 89.80131
442.9807, 89.40689
443.4628, 88.84679
443.9449, 88.42413
444.4271, 88.32187
444.9092, 88.48904
445.3913, 88.63216
445.8734, 88.54373
446.3555, 88.51346
446.8376, 88.70312
447.3198, 89.27965
447.8019, 89.77190
448.2840, 90.26153
448.7661, 90.62051
449.2482, 90.65056
449.7303, 90.18980
450.2125, 89.66081
450.6946, 89.05436
451.1767, 88.40000
451.6588, 88.21440
452.1409, 88.66348
452.6230, 89.19337
453.1052, 89.32746
453.5873, 89.01390
454.0694, 89.09820
454.5515, 89.78927
455.0337, 90.60350
455.5158, 90.58192
455.9979, 89.78669
456.4800, 89.14624
456.9621, 89.14110
457.4442, 89.53626
457.9264, 89.80856
458.4085, 89.96001
458.8906, 90.05722
459.3727, 90.26270
459.8548, 90.42236
460.3369, 90.17574
460.8191, 89.17208
461.3012, 88.39883
461.7833, 89.00233
462.2654, 90.41267
462.7475, 91.44103
463.2296, 91.15871
463.7118, 90.70313
464.1939, 90.79163
464.6760, 91.47633
465.1581, 91.95098
465.6402, 91.78682
466.1223, 91.42303
466.6045, 91.16866
467.0866, 91.27778
467.5687, 91.22961
468.0508, 90.68290
468.5329, 89.98880
469.0150, 89.96550
469.4972, 91.06536
469.9793, 92.15746
470.4614, 92.95650
470.9435, 93.46859
471.4256, 93.51601
471.9077, 92.94663
472.3899, 92.21969
472.8720, 91.69144
473.3541, 91.35439
473.8362, 91.29330
474.3183, 91.59113
474.8004, 92.05401
475.2826, 92.33689
475.7647, 92.44272
476.2468, 92.41574
476.7289, 92.27239
477.2110, 92.01104
477.6931, 91.49899
478.1753, 90.73581
478.6574, 90.20381
479.1395, 90.54991
479.6216, 91.31120
480.1037, 91.78066
480.5858, 91.63565
481.0680, 91.42861
481.5501, 91.54658
482.0322, 91.88146
482.5143, 92.20761
482.9964, 92.60176
483.4786, 92.82690
483.9607, 92.65581
484.4428, 92.03909
484.9249, 91.64827
485.4070, 92.09005
485.8892, 92.50851
486.3713, 92.26144
486.8534, 90.31985
487.3355, 89.24494
487.8176, 89.45019
488.2997, 90.43867
488.7819, 91.19850
489.2640, 91.73454
489.7461, 92.01931
490.2282, 91.96789
490.7103, 91.60644
491.1924, 91.45570
491.6746, 91.57762
492.1567, 91.64764
492.6388, 91.18393
493.1209, 90.29258
493.6030, 90.03502
494.0851, 90.67467
494.5673, 91.63160
495.0494, 92.11425
495.5315, 92.20689
496.0136, 92.19712
496.4957, 92.30967
496.9778, 92.33915
497.4600, 91.81703
497.9421, 90.83775
498.4242, 90.28574
498.9063, 91.11381
499.3884, 92.35655
499.8705, 93.20586
500.3527, 93.45496
500.8348, 93.40844
501.3169, 92.93143
501.7990, 92.28606
502.2811, 91.83879
502.7632, 91.74741
503.2454, 91.76784
503.7275, 91.88926
504.2096, 92.09949
504.6917, 92.28247
505.1738, 92.46315
505.6559, 92.58279
506.1381, 92.59868
506.6202, 92.48474
507.1023, 92.36159
507.5844, 92.19884
508.0665, 92.08338
508.5486, 92.22222
509.0308, 92.62617
509.5129, 92.77457
509.9950, 92.40855
510.4771, 91.82801
510.9592, 91.73231
511.4413, 92.07622
511.9235, 92.42970
512.4056, 92.49815
512.8877, 92.41087
513.3698, 92.16579
513.8519, 92.24276
514.3340, 91.77216
514.8162, 91.95531
515.2983, 91.96769
515.7804, 91.26413
516.2625, 91.51067
516.7446, 91.39211
517.2267, 91.26932
517.7089, 91.68156
518.1910, 91.13968
518.6731, 91.56599
519.1552, 91.62146
519.6373, 91.86295
520.1194, 91.73704
520.6016, 91.73927
521.0837, 92.13136
521.5658, 92.32497
522.0479, 92.20021
522.5300, 92.51994
523.0121, 92.07668
523.4943, 92.32398
523.9764, 92.87553
524.4585, 92.82574
524.9406, 93.20831
525.4227, 93.44167
525.9048, 92.95719
526.3870, 93.75175
526.8691, 93.26221
527.3513, 92.97990
527.8334, 92.73804
528.3155, 92.73440
528.7976, 92.82908
529.2797, 92.79732
529.7618, 92.58958
530.2440, 92.39244
530.7261, 92.39352
531.2082, 92.46614
531.6903, 92.44834
532.1724, 92.06099
532.6545, 91.81358
533.1367, 92.04910
533.6188, 92.58957
534.1009, 92.80679
534.5830, 92.06797
535.0651, 91.51659
535.5472, 91.63103
536.0294, 92.55791
536.5115, 93.09083
536.9936, 93.10320
537.4757, 92.90020
537.9578, 92.70528
538.4399, 92.50984
538.9221, 92.35476
539.4042, 92.21853
539.8863, 92.16599
540.3684, 92.42576
540.8505, 92.95788
541.3326, 93.27996
541.8148, 93.11274
542.2969, 92.66546
542.7790, 92.16631
543.2611, 91.65549
543.7432, 91.42732
544.2253, 91.87182
544.7075, 92.59883
545.1896, 93.24714
545.6717, 93.78278
546.1538, 94.15074
546.6359, 94.23921
547.1180, 94.18274
547.6002, 94.12260
548.0823, 94.10445
548.5644, 94.07018
549.0465, 94.05361
549.5286, 94.01456
550.0107, 93.83709
550.4929, 93.47910
550.9750, 93.03281
551.4571, 92.42622
551.9392, 91.65482
552.4213, 91.44238
552.9034, 91.93347
553.3856, 92.52345
553.8677, 92.68979
554.3498, 92.47176
554.8319, 92.34227
555.3140, 92.35101
555.7961, 92.44524
556.2783, 92.49911
556.7604, 92.57639
557.2425, 92.87846
557.7246, 93.71250
558.2067, 94.56283
558.6888, 94.91073
559.1710, 94.84610
559.6531, 94.66119
560.1352, 94.28039
560.6173, 93.99609
561.0994, 94.14866
561.5815, 94.86986
562.0637, 95.07020
562.5458, 93.75098
563.0279, 92.34924
563.5100, 91.92305
563.9921, 93.23857
564.4742, 94.19535
564.9564, 94.70287
565.4385, 94.86423
565.9206, 94.80087
566.4027, 94.47216
566.8848, 94.10822
567.3669, 93.73643
567.8491, 93.39663
568.3312, 93.28804
568.8133, 93.40097
569.2954, 93.47112
569.7775, 93.20739
570.2596, 92.81993
570.7418, 92.74868
571.2239, 93.02822
571.7060, 93.31445
572.1881, 93.36172
572.6702, 93.26730
573.1523, 93.10417
573.6345, 92.70979
574.1166, 92.58230
574.5987, 93.22150
575.0808, 94.18529
575.5629, 94.74869
576.0450, 94.40382
576.5272, 94.06843
577.0093, 93.91050
577.4914, 93.90714
577.9735, 93.92202
578.4556, 94.00004
578.9377, 94.00266
579.4199, 93.76778
579.9020, 93.28866
580.3841, 93.27612
580.8662, 93.80537
581.3483, 94.40150
581.8304, 94.51281
582.3126, 94.28227
582.7947, 94.23755
583.2768, 94.53507
583.7589, 94.86130
584.2410, 94.90697
584.7231, 94.73296
585.2053, 94.46012
585.6874, 93.68521
586.1696, 93.24344
586.6517, 94.01350
587.1338, 95.63707
587.6159, 96.52625
588.0980, 95.66520
588.5801, 94.51640
589.0623, 93.56874
589.5444, 92.76978
590.0265, 92.61655
590.5086, 93.53246
590.9907, 94.55387
591.4728, 94.85686
591.9550, 94.28877
592.4371, 93.98312
592.9192, 94.04393
593.4013, 94.34606
593.8834, 94.88848
594.3655, 95.59092
594.8477, 95.90562
595.3298, 95.49139
595.8119, 94.81334
596.2940, 94.47184
596.7761, 94.39790
597.2582, 94.34868
597.7404, 94.23650
598.2225, 94.07038
598.7046, 93.81541
599.1867, 93.47286
599.6688, 93.20768
600.1509, 92.99277
600.6331, 92.91998
601.1152, 93.07404
601.5973, 93.58687
602.0794, 94.01505
602.5615, 94.37434
603.0436, 94.62999
603.5258, 94.72243
604.0079, 94.62905
604.4900, 94.48539
604.9721, 94.28244
605.4542, 94.09008
605.9363, 94.06213
606.4185, 94.18772
606.9006, 94.36682
607.3827, 94.70072
607.8648, 94.96928
608.3469, 94.63358
608.8290, 93.82938
609.3112, 93.33857
609.7933, 93.96943
610.2754, 94.84335
610.7575, 95.32521
611.2396, 95.30918
611.7217, 95.09573
612.2039, 94.48336
612.6860, 93.88003
613.1681, 93.59507
613.6502, 93.73744
614.1323, 94.03841
614.6144, 94.64247
615.0966, 95.27068
615.5787, 95.48222
616.0608, 95.20332
616.5429, 94.96865
617.0250, 94.90318
617.5071, 94.95585
617.9893, 95.07439
618.4714, 95.23939
618.9535, 95.29147
619.4356, 95.06279
619.9177, 94.72341
620.3998, 94.45254
620.8820, 94.25797
621.3641, 94.17252
621.8462, 94.30791
622.3283, 94.49391
622.8104, 94.62247
623.2925, 94.69365
623.7747, 94.65104
624.2568, 94.24907
624.7389, 93.87694
625.2210, 93.89443
625.7031, 94.69073
626.1852, 94.96053
626.6674, 94.39458
627.1495, 93.54665
627.6316, 93.43827
628.1137, 94.10773
628.5958, 94.54762
629.0779, 94.35261
629.5601, 93.89526
630.0422, 94.03054
630.5243, 94.61552
631.0064, 94.97646
631.4885, 94.40548
631.9706, 93.66493
632.4528, 93.48156
632.9349, 93.84725
633.4170, 94.35033
633.8991, 95.08293
634.3812, 95.69278
634.8633, 95.93586
635.3455, 95.64306
635.8276, 95.43127
636.3097, 95.34363
636.7918, 95.31773
637.2739, 95.30220
637.7560, 95.29115
638.2382, 95.30322
638.7203, 95.32761
639.2024, 95.39428
639.6845, 95.60526
640.1666, 95.93208
640.6487, 96.13522
641.1309, 96.09196
641.6130, 95.96185
642.0951, 95.98094
642.5772, 96.09693
643.0594, 96.16372
643.5415, 96.07848
644.0236, 95.95028
644.5057, 95.83294
644.9879, 95.72910
645.4700, 95.63790
645.9521, 95.56934
646.4342, 95.50581
646.9163, 95.40365
647.3984, 95.22411
647.8806, 95.31344
648.3627, 95.80054
648.8448, 96.32255
649.3269, 96.61881
649.8090, 96.68882
650.2911, 96.55064
650.7733, 96.16989
651.2554, 95.74321
651.7375, 95.51249
652.2196, 95.41444
652.7017, 95.26327
653.1838, 94.90012
653.6660, 94.67857
654.1481, 95.12083
654.6302, 95.85202
655.1123, 96.21551
655.5944, 95.63366
656.0765, 95.02392
656.5587, 94.38877
657.0408, 93.89301
657.5229, 94.33883
658.0050, 96.57943
658.4871, 98.27617
658.9692, 98.45167
659.4514, 97.26160
659.9335, 96.39758
660.4156, 95.87212
660.8977, 95.58485
661.3798, 95.56578
661.8619, 95.72747
662.3441, 95.88654
662.8262, 96.03714
663.3083, 96.02746
663.7904, 95.46928
664.2725, 94.81589
664.7546, 94.60263
665.2368, 95.08691
665.7189, 95.17371
666.2010, 95.60855
666.6831, 95.85105
667.1652, 95.91156
667.6473, 95.24496
668.1295, 95.51727
668.6116, 95.41330
669.0937, 95.29391
669.5758, 95.69836
670.0579, 95.13751
670.5400, 95.53366
671.0222, 95.54779
671.5043, 95.73676
671.9864, 95.54713
672.4685, 95.47443
672.9506, 95.78046
673.4327, 95.87679
673.9149, 95.97566
674.3970, 96.47204
674.8791, 96.97781
675.3612, 97.12646
675.8433, 96.38253
676.3254, 95.57539
676.8076, 95.15611
677.2897, 95.21498
677.7718, 95.24788
678.2539, 95.17551
678.7360, 95.19107
679.2181, 95.49797
679.7003, 96.14782
680.1824, 96.52788
680.6645, 96.60068
681.1466, 96.48482
681.6287, 96.16902
682.1108, 95.76640
682.5930, 95.61100
683.0751, 95.79385
683.5572, 96.13731
684.0393, 96.73959
684.5214, 97.33337
685.0035, 97.54210
685.4857, 96.89896
685.9678, 96.25485
686.4499, 95.66307
686.9320, 95.24160
687.4141, 95.25469
687.8962, 96.01351
688.3784, 96.62048
688.8605, 96.86082
689.3426, 96.81963
689.8247, 96.75248
690.3068, 96.65722
690.7889, 96.60165
691.2711, 96.62243
691.7532, 96.70389
692.2353, 96.93150
692.7174, 97.24699
693.1995, 97.29567
693.6816, 96.28933
694.1638, 95.35621
694.6459, 95.60824
695.1280, 97.18640
695.6101, 98.25663
696.0922, 97.98090
696.5743, 97.39101
697.0565, 97.00895
697.5386, 96.83310
698.0207, 96.92008
698.5028, 97.40511
698.9849, 97.86938
699.4670, 97.82504
699.9492, 97.33515
700.4313, 97.09374
700.9135, 97.21291
701.3956, 97.39946
701.8777, 97.34399
702.3598, 97.13364
702.8419, 96.88964
703.3240, 96.53565
703.8062, 96.37336
704.2883, 96.72045
704.7704, 97.30938
705.2525, 97.74398
705.7346, 98.02315
706.2167, 98.04738
706.6989, 97.70152
707.1810, 97.14415
707.6631, 96.68856
708.1452, 96.32764
708.6273, 96.16551
709.1094, 96.24494
709.5916, 96.53612
710.0737, 97.09798
710.5558, 97.85720
711.0379, 98.45683
711.5200, 98.67756
712.0021, 98.67050
712.4843, 98.45669
712.9664, 98.09661
713.4485, 97.88985
713.9306, 98.05621
714.4127, 98.30257
714.8948, 98.57948
715.3770, 98.89240
715.8591, 98.82288
716.3412, 98.13584
716.8233, 97.53078
717.3054, 97.46376
717.7875, 97.91056
718.2697, 98.26577
718.7518, 98.53309
719.2339, 98.70962
719.7160, 98.83862
720.1981, 98.86173
720.6802, 98.63011
721.1624, 98.10522
721.6445, 97.59831
722.1266, 97.20100
722.6087, 96.96111
723.0908, 96.95699
723.5729, 96.85537
724.0551, 97.04679
724.5372, 97.03555
725.0193, 97.49995
725.5014, 97.77202
725.9835, 97.86208
726.4656, 97.22504
726.9478, 97.52692
727.4299, 97.45251
727.9120, 97.36268
728.3941, 97.79669
728.8762, 97.26541
729.3583, 97.69112
729.8405, 97.73482
730.3226, 97.95335
730.8047, 97.79328
731.2868, 97.75016
731.7689, 98.08575
732.2510, 98.21164
732.7332, 98.00800
733.2153, 98.23764
733.6974, 97.69314
734.1795, 97.82796
734.6616, 98.25588
735.1437, 98.07127
735.6259, 98.30785
736.1080, 98.38401
736.5901, 97.73119
737.0722, 98.34615
737.5543, 98.41283
738.0364, 97.91655
738.5186, 98.48807
739.0007, 98.06940
739.4828, 98.00417
739.9649, 97.54288
740.4470, 97.05974
740.9291, 96.99466
741.4113, 97.33540
741.8934, 97.67677
742.3755, 98.11412
742.8576, 98.37196
743.3397, 98.24361
743.8218, 97.80907
744.3040, 97.81006
744.7861, 98.25940
745.2682, 98.65053
745.7503, 98.51181
746.2324, 98.14548
746.7145, 98.06275
747.1967, 98.26369
747.6788, 98.46394
748.1609, 98.39577
748.6430, 98.35770
749.1251, 98.61721
749.6072, 99.31119
750.0894, 99.67329
750.5715, 99.48878
751.0536, 99.22474
751.5357, 99.22899
752.0178, 99.54914
752.4999, 99.47340
752.9821, 98.93924
753.4642, 98.41667
753.9463, 98.41508
754.4284, 98.73338
754.9105, 99.01920
755.3926, 99.24474
755.8748, 99.27589
756.3569, 98.83128
756.8390, 98.26854
757.3211, 97.87803
757.8032, 97.64084
758.2853, 97.77796
758.7675, 98.60313
759.2496, 99.48190
759.7318, 99.78282
760.2139, 99.40404
760.6960, 99.19997
761.1781, 99.23705
761.6602, 99.46939
762.1423, 100.0871
762.6245, 100.8379
763.1066, 101.0242
763.5887, 100.3340
764.0708, 99.61844
764.5529, 99.66008
765.0350, 99.93830
765.5172, 99.83482
765.9993, 98.47138
766.4814, 97.73972
766.9635, 97.94189
767.4456, 98.64927
767.9277, 99.43627
768.4099, 100.3999
768.8920, 100.7600
769.3741, 100.2676
769.8562, 99.44132
770.3383, 98.85008
770.8204, 98.53921
771.3026, 98.68511
771.7847, 99.59104
772.2668, 100.4992
772.7489, 100.8679
773.2310, 100.9131
773.7131, 100.9695
774.1953, 101.4274
774.6774, 101.4623
775.1595, 100.7394
775.6416, 99.70677
776.1237, 99.24922
776.6058, 99.45910
777.0880, 99.48444
777.5701, 99.00123
778.0522, 98.46081
778.5343, 98.70570
779.0164, 99.53240
779.4985, 100.3640
779.9807, 101.0435
780.4628, 101.5486
780.9449, 101.8635
781.4270, 101.9892
781.9091, 101.9360
782.3912, 101.6208
782.8734, 101.2011
783.3555, 100.5267
783.8376, 99.84190
784.3197, 99.91943
784.8018, 100.8525
785.2839, 101.4176
785.7661, 101.1146
786.2482, 100.4201
786.7303, 100.0340
787.2124, 99.91338
787.6945, 99.92439
788.1766, 100.0863
788.6588, 100.2841
789.1409, 100.4844
789.6230, 100.6763
790.1051, 100.8433
790.5872, 101.1248
791.0693, 101.1406
791.5515, 100.6817
792.0336, 99.97838
792.5157, 99.76979
792.9978, 100.0590
793.4799, 100.2694
793.9620, 100.0750
794.4442, 99.82084
794.9263, 100.2610
795.4084, 101.0793
795.8905, 101.4018
796.3726, 99.92619
796.8547, 98.82463
797.3369, 99.46920
797.8190, 101.2650
798.3011, 102.0632
798.7832, 101.3015
799.2653, 100.5988
799.7474, 100.3353
800.2296, 100.3918
800.7117, 100.4311
801.1938, 100.4659
801.6759, 100.6529
802.1580, 101.2262
802.6401, 101.8033
803.1223, 101.8788
803.6044, 101.5990
804.0865, 101.3447
804.5686, 101.1760
805.0507, 101.1465
805.5328, 101.3904
806.0150, 101.7804
806.4971, 101.9763
806.9792, 101.9170
807.4613, 101.8671
807.9434, 101.9193
808.4255, 102.0023
808.9077, 101.9622
809.3898, 101.8077
809.8719, 101.5706
810.3540, 101.0443
810.8361, 100.6730
811.3182, 101.0604
811.8004, 101.8595
812.2825, 101.2716
812.7646, 101.7051
813.2467, 101.9464
813.7288, 102.0057
814.2109, 101.3378
814.6931, 101.6089
815.1752, 101.5037
815.6573, 101.3830
816.1394, 101.7862
816.6215, 101.2241
817.1037, 101.6190
817.5858, 101.6319
818.0679, 102.1185
818.5500, 101.9878
819.0322, 101.8742
819.5143, 101.7415
819.9964, 101.6579
820.4785, 101.7967
820.9606, 102.3609
821.4427, 102.7580
821.9249, 102.8669
822.4070, 102.7942
822.8891, 102.7326
823.3712, 102.6827
823.8533, 102.6528
824.3354, 102.6522
824.8176, 102.6596
825.2997, 102.7544
825.7818, 102.8198
826.2639, 102.6533
826.7460, 101.9132
827.2281, 101.2686
827.7103, 100.7301
828.1924, 100.4297
828.6745, 100.6350
829.1566, 101.5247
829.6387, 102.1803
830.1208, 102.4248
830.6030, 102.4806
831.0851, 102.7382
831.5672, 103.0778
832.0493, 103.1124
832.5314, 102.5808
833.0135, 102.1431
833.4957, 102.3390
833.9778, 102.8499
834.4599, 103.3070
834.9420, 103.7565
835.4241, 103.9556
835.9063, 103.8400
836.3884, 103.5544
836.8705, 103.1851
837.3526, 102.7419
837.8347, 102.6111
838.3168, 102.8811
838.7990, 103.2364
839.2811, 103.3303
839.7632, 103.3092
840.2453, 103.3990
840.7274, 103.7076
841.2095, 103.9042
841.6917, 103.7654
842.1738, 103.5460
842.6559, 103.4420
843.1380, 103.4775
843.6201, 103.5340
844.1022, 103.6012
844.5844, 103.7254
845.0665, 104.0302
845.5486, 104.4208
846.0307, 104.6314
846.5128, 104.6389
846.9949, 104.5298
847.4771, 104.2443
847.9592, 103.9513
848.4413, 103.8262
848.9234, 103.9566
849.4055, 103.8107
849.8876, 103.0552
850.3698, 102.5443
850.8519, 102.9727
851.3340, 104.2261
851.8161, 104.7366
852.2982, 104.5080
852.7803, 104.1958
853.2625, 104.3770
853.7446, 104.6571
854.2267, 104.5219
854.7088, 104.0007
855.1909, 103.6836
855.6730, 104.2912
856.1552, 104.5619
856.6373, 103.7549
857.1194, 102.1018
857.6015, 101.5734
858.0836, 102.2972
858.5657, 103.1694
859.0479, 103.7198
859.5300, 104.0552
860.0121, 104.3152
860.4942, 104.5246
860.9763, 104.7675
861.4584, 105.3213
861.9406, 105.6708
862.4227, 105.3671
862.9048, 104.6439
863.3869, 104.3915
863.8690, 104.9630
864.3511, 105.0575
864.8333, 104.1450
865.3154, 102.8732
865.7975, 102.6968
866.2796, 103.3925
866.7617, 103.9679
867.2438, 103.9732
867.7260, 103.9284
868.2081, 104.3748
868.6902, 104.9880
869.1723, 105.2710
869.6544, 104.7849
870.1365, 104.4407
870.6187, 104.3614
871.1008, 104.3563
871.5829, 104.0711
872.0650, 103.5362
872.5471, 103.4560
873.0292, 104.0277
873.5114, 104.5946
873.9935, 104.3873
874.4756, 103.8162
874.9577, 103.3999
875.4399, 103.2743
875.9220, 103.1855
876.4041, 103.0631
876.8862, 102.9669
877.3683, 102.9568
877.8505, 103.0600
878.3326, 103.0212
878.8147, 102.8137
879.2968, 102.6510
879.7789, 102.7352
880.2610, 102.9804
880.7432, 103.2621
881.2253, 103.5704
881.7074, 103.9027
882.1895, 104.6482
882.6716, 105.0586
883.1537, 104.4659
883.6359, 102.9615
884.1180, 102.2260
884.6001, 102.4062
885.0822, 102.7311
885.5643, 102.9289
886.0464, 102.9612
886.5286, 102.4661
887.0107, 101.6469
887.4928, 101.3398
887.9749, 102.7598
888.4570, 104.0264
888.9391, 103.9213
889.4213, 102.8803
889.9034, 102.3833
890.3855, 102.6445
890.8676, 103.0666
891.3497, 103.6465
891.8318, 104.1627
892.3140, 104.1057
892.7961, 103.6122
893.2782, 103.2049
893.7603, 103.0174
894.2424, 103.0190
894.7245, 103.3822
895.2067, 103.8385
895.6888, 104.0612
896.1709, 103.9409
896.6530, 103.6131
897.1351, 102.8802
897.6172, 102.2543
898.0994, 102.4747
898.5815, 103.3791
899.0636, 103.7327
899.5457, 103.3976
900.0278, 102.8766
900.5099, 102.4131
900.9921, 102.0637
901.4742, 101.8315
901.9563, 101.6933
902.4384, 101.9565
902.9205, 103.0374
903.4026, 103.9320
903.8848, 104.0697
904.3669, 103.5649
904.8490, 103.4421
905.3311, 103.6861
905.8132, 103.8837
906.2953, 103.6619
906.7775, 103.3668
907.2596, 103.3386
907.7417, 103.5316
908.2238, 103.7687
908.7059, 104.2323
909.1880, 104.4254
909.6702, 104.1436
910.1523, 103.5983
910.6344, 103.2673
911.1165, 103.1490
911.5986, 103.1781
912.0807, 103.3913
912.5629, 103.6104
913.0450, 103.4537
913.5271, 103.2287
914.0092, 103.4533
914.4913, 104.9108
914.9734, 105.6171
915.4556, 104.7615
915.9377, 103.5487
916.4198, 103.0968
916.9019, 103.4611
917.3840, 103.5641
917.8661, 103.3220
918.3483, 103.0943
918.8304, 103.3243
919.3125, 103.6899
919.7946, 103.7191
920.2767, 103.3612
920.7589, 103.2019
921.2410, 103.6653
921.7231, 104.1132
922.2052, 104.3433
922.6873, 104.3501
923.1694, 103.9547
923.6516, 103.1422
924.1337, 102.5406
924.6158, 102.4836
925.0979, 102.7946
925.5800, 103.5562
926.0621, 104.4901
926.5443, 104.9104
927.0264, 103.8850
927.5085, 103.2015
927.9906, 103.3317
928.4727, 103.9021
928.9548, 104.3883
929.4370, 104.7986
929.9191, 104.8333
930.4012, 104.3772
930.8833, 103.8130
931.3654, 103.4162
931.8475, 103.2464
932.3297, 103.4480
932.8118, 104.1904
933.2939, 104.7693
933.7761, 105.1283
934.2582, 105.1553
934.7403, 104.5896
935.2224, 103.3960
935.7045, 103.0993
936.1866, 103.7251
936.6688, 104.4465
937.1509, 104.7909
937.6330, 104.8436
938.1151, 104.4732
938.5972, 103.8256
939.0793, 103.6102
939.5615, 104.6756
940.0436, 105.4148
940.5257, 105.3022
941.0078, 104.6780
941.4899, 104.4795
941.9720, 104.6881
942.4542, 104.7830
942.9363, 104.5747
943.4184, 104.2984
943.9005, 104.1558
944.3826, 104.1263
944.8647, 104.2031
945.3469, 104.6282
945.8290, 104.6463
946.3111, 103.9392
946.7932, 103.1632
947.2753, 102.8977
947.7574, 103.1187
948.2396, 103.4722
948.7217, 103.9492
949.2038, 104.1613
949.6859, 103.3125
950.1680, 102.4336
950.6501, 102.7045
951.1323, 104.0886
951.6144, 104.7729
952.0965, 104.0865
952.5786, 103.4757
953.0607, 103.3893
953.5428, 103.6701
954.0250, 103.9188
954.5071, 104.1237
954.9892, 104.2126
955.4713, 104.1114
955.9534, 103.9603
956.4355, 103.8070
956.9177, 103.6901
957.3998, 103.6739
957.8819, 103.9119
958.3640, 103.9380
958.8461, 103.6352
959.3282, 103.3384
959.8104, 103.5006
960.2925, 103.9665
960.7746, 104.1425
961.2567, 103.9838
961.7388, 103.9133
962.2209, 104.3156
962.7031, 104.8068
963.1852, 105.1972
963.6673, 105.4601
964.1494, 105.3885
964.6315, 104.8792
965.1136, 104.3846
965.5958, 104.0583
966.0779, 103.8692
966.5600, 103.6885
967.0421, 103.5864
967.5242, 103.7781
968.0063, 104.8252
968.4885, 105.5210
968.9706, 104.9656
969.4527, 104.0622
969.9348, 103.9557
970.4169, 104.8621
970.8990, 105.5909
971.3812, 106.1188
971.8633, 106.2122
972.3454, 105.2166
972.8275, 103.8376
973.3096, 103.1183
973.7917, 103.1567
974.2739, 103.3838
974.7560, 103.9189
975.2381, 104.2265
975.7202, 103.8905
976.2023, 103.1706
976.6844, 103.6020
977.1666, 105.1698
977.6487, 106.3070
978.1308, 106.1845
978.6129, 105.6553
979.0950, 105.6320
979.5771, 105.8133
980.0593, 105.7040
980.5414, 104.6679
981.0235, 104.1190
981.5056, 104.3190
981.9877, 104.7080
982.4698, 104.7085
982.9520, 104.3822
983.4341, 104.1172
983.9162, 103.9374
984.3983, 103.7598
984.8804, 103.1626
985.3625, 102.8467
985.8447, 103.6305
986.3268, 105.4407
986.8089, 106.3655
987.2910, 106.1646
987.7731, 105.7037
988.2552, 105.1516
988.7374, 104.6512
989.2195, 104.5058
989.7016, 104.6546
990.1837, 104.9814
990.6658, 105.6624
991.1479, 106.0878
991.6301, 105.7337
992.1122, 105.1764
992.5944, 104.9888
993.0765, 105.2528
993.5586, 105.4341
994.0407, 105.5122
994.5228, 105.6242
995.0049, 106.1216
995.4871, 106.5741
995.9692, 106.2268
996.4513, 105.1948
996.9334, 104.4533
997.4155, 104.3546
997.8976, 104.5749
998.3798, 105.2115
998.8619, 105.9911
999.3440, 106.1002
999.8261, 105.6429
1000.308, 105.7236
1000.790, 106.8660
1001.272, 107.8135
1001.755, 107.3035
1002.237, 106.1608
1002.719, 105.2235
1003.201, 104.5540
1003.683, 104.2876
1004.165, 104.5265
1004.647, 104.9087
1005.129, 105.1798
1005.612, 105.4177
1006.094, 106.0128
1006.576, 106.8395
1007.058, 107.3292
1007.540, 106.9410
1008.022, 106.4275
1008.504, 106.0052
1008.986, 105.6904
1009.468, 105.4975
1009.951, 105.4229
1010.433, 105.5663
1010.915, 106.0015
1011.397, 106.3788
1011.879, 106.1829
1012.361, 105.7602
1012.843, 105.4970
1013.325, 105.4434
1013.807, 105.6533
1014.290, 106.4719
1014.772, 107.0326
1015.254, 106.8246
1015.736, 106.0947
1016.218, 105.8712
1016.700, 106.0854
1017.182, 106.3500
1017.664, 106.6314
1018.147, 106.7264
1018.629, 106.3006
1019.111, 105.6890
1019.593, 105.4070
1020.075, 105.5710
1020.557, 105.7709
1021.039, 106.0095
1021.521, 106.2059
1022.003, 106.1593
1022.486, 106.0697
1022.968, 106.3962
1023.450, 107.1128
1023.932, 107.6429
1024.414, 107.7383
1024.896, 107.6198
1025.378, 107.3483
1025.860, 106.9365
1026.343, 106.2992
1026.825, 105.4825
1027.307, 104.9954
1027.789, 104.9960
1028.271, 105.3050
1028.753, 106.0603
1029.235, 106.8739
1029.717, 107.2559
1030.199, 106.9532
1030.682, 106.9512
1031.164, 107.3843
1031.646, 107.7427
1032.128, 107.6742
1032.610, 107.3138
1033.092, 106.8112
1033.574, 106.2898
1034.056, 106.2211
1034.539, 107.6056
1035.021, 108.5058
1035.503, 107.9270
1035.985, 106.7944
1036.467, 106.3078
1036.949, 106.4851
1037.431, 106.7728
1037.913, 107.1276
1038.396, 107.4013
1038.878, 107.3450
1039.360, 107.2310
1039.842, 107.4114
1040.324, 107.9036
1040.806, 107.9778
1041.288, 107.3291
1041.770, 106.9309
1042.252, 107.1941
1042.734, 107.7451
1043.217, 107.8575
1043.699, 107.6242
1044.181, 107.2680
1044.663, 106.7554
1045.145, 106.3600
1045.627, 106.2333
1046.109, 106.2271
1046.591, 106.1951
1047.074, 106.1237
1047.556, 106.4848
1048.038, 107.2829
1048.520, 107.9830
1049.002, 108.0676
1049.484, 108.0363
1049.966, 108.4526
1050.448, 109.1024
1050.931, 109.3338
1051.413, 108.8046
1051.895, 108.5542
1052.377, 108.8298
1052.859, 109.0822
1053.341, 108.3229
1053.823, 107.1098
1054.305, 106.7993
1054.787, 107.5502
1055.270, 108.2489
1055.752, 108.4200
1056.234, 108.3900
1056.716, 108.2274
1057.198, 108.0050
1057.680, 108.0462
1058.162, 108.3338
1058.644, 108.6391
1059.126, 108.9823
1059.609, 109.0761
1060.091, 108.3869
1060.573, 107.4603
1061.055, 106.8821
1061.537, 106.6613
1062.019, 107.0797
1062.501, 108.3568
1062.983, 109.4719
1063.466, 109.6430
1063.948, 109.2559
1064.430, 108.9136
1064.912, 108.6237
1065.394, 108.4068
1065.876, 108.3380
1066.358, 108.2456
1066.840, 107.9814
1067.323, 107.8145
1067.805, 108.2271
1068.287, 109.0977
1068.769, 109.4409
1069.251, 109.1818
1069.733, 109.0053
1070.215, 109.6798
1070.697, 110.3307
1071.179, 110.2919
1071.661, 109.7071
1072.144, 109.1435
1072.626, 108.5569
1073.108, 108.3766
1073.590, 108.8185
1074.072, 109.3944
1074.554, 109.5021
1075.036, 109.3613
1075.518, 109.2882
1076.001, 109.4068
1076.483, 109.2258
1076.965, 108.5037
1077.447, 107.9303
1077.929, 107.9199
1078.411, 108.2838
1078.893, 108.4757
1079.375, 108.5641
1079.858, 108.7738
1080.340, 109.2921
1080.822, 109.8104
1081.304, 110.5416
1081.786, 110.9717
1082.268, 110.4085
1082.750, 108.8263
1083.232, 107.9101
1083.714, 107.6892
1084.197, 107.8035
1084.679, 108.0284
1085.161, 108.4571
1085.643, 109.4692
1086.125, 110.7307
1086.607, 111.2104
1087.089, 110.6734
1087.571, 110.0723
1088.054, 109.4800
1088.536, 109.1120
1089.018, 109.5371
1089.500, 110.1910
1089.982, 110.1038
1090.464, 109.1585
1090.946, 108.6266
1091.428, 109.0186
1091.911, 109.4214
1092.393, 109.5571
1092.875, 109.5232
1093.357, 109.5414
1093.839, 109.5882
1094.321, 109.5798
1094.803, 109.4622
1095.285, 109.3890
1095.767, 109.3770
1096.250, 109.4933
1096.732, 109.7708
1097.214, 110.2080
1097.696, 111.0379
1098.178, 112.2154
1098.660, 112.7530
1099.142, 111.6679
1099.624, 110.3260
1100.106, 109.6655
1100.589, 109.4708
1101.071, 109.3850
1101.553, 109.3375
1102.035, 109.6113
1102.517, 110.2929
1102.999, 110.8359
1103.481, 110.5847
1103.963, 110.0485
1104.446, 109.8749
1104.928, 110.0239
1105.410, 110.2404
1105.892, 110.5923
1106.374, 110.7833
1106.856, 110.7491
1107.338, 110.5850
1107.820, 110.2766
1108.302, 109.9716
1108.785, 110.1114
1109.267, 110.7436
1109.749, 111.2580
1110.231, 111.5233
1110.713, 111.4393
1111.195, 110.8607
1111.677, 110.0031
1112.159, 109.3724
1112.641, 108.9848
1113.124, 109.0116
1113.606, 109.6034
1114.088, 110.1500
1114.570, 110.1706
1115.052, 110.0371
1115.534, 110.0651
1116.016, 109.9861
1116.498, 110.2011
1116.981, 109.9169
1117.463, 109.7351
1117.945, 109.8149
1118.427, 110.0437
1118.909, 110.3399
1119.391, 110.6996
1119.873, 111.1742
1120.355, 112.0275
1120.838, 112.0861
1121.320, 111.1663
1121.802, 110.2383
1122.284, 110.0532
1122.766, 110.2303
1123.248, 110.2282
1123.730, 110.0990
1124.212, 109.9917
1124.694, 109.9801
1125.177, 109.9313
1125.659, 109.7692
1126.141, 109.7032
1126.623, 110.0710
1127.105, 110.6836
1127.587, 111.0082
1128.069, 111.0571
1128.551, 111.1379
1129.033, 111.7642
1129.516, 111.9084
1129.998, 111.0726
1130.480, 109.8679
1130.962, 109.2080
1131.444, 109.0805
1131.926, 109.5916
1132.408, 110.7954
1132.890, 111.6903
1133.373, 111.4012
1133.855, 110.8608
1134.337, 110.6130
1134.819, 110.5509
1135.301, 110.1458
1135.783, 109.4292
1136.265, 109.2880
1136.747, 110.0975
1137.229, 110.9416
1137.712, 110.8983
1138.194, 110.6369
1138.676, 110.8813
1139.158, 111.6452
1139.640, 111.7623
1140.122, 111.1598
1140.604, 110.6074
1141.086, 110.3920
1141.569, 110.4041
1142.051, 110.6954
1142.533, 111.0466
1143.015, 111.1447
1143.497, 110.8543
1143.979, 110.5816
1144.461, 110.2818
1144.943, 110.1941
1145.426, 110.7001
1145.908, 111.3100
1146.390, 111.0421
1146.872, 110.2961
1147.354, 109.9074
1147.836, 110.4755
1148.318, 110.8679
1148.800, 111.0239
1149.282, 111.0794
1149.765, 111.1374
1150.247, 111.1848
1150.729, 111.2864
1151.211, 111.3710
1151.693, 111.1528
1152.175, 109.9234
1152.657, 109.2726
1153.139, 109.6534
1153.621, 110.3595
1154.104, 110.5143
1154.586, 110.3011
1155.068, 110.3876
1155.550, 110.7824
1156.032, 111.0598
1156.514, 111.0066
1156.996, 110.7924
1157.478, 110.4359
1157.961, 110.0092
1158.443, 109.5396
1158.925, 109.0895
1159.407, 109.0586
1159.889, 109.5098
1160.371, 110.0930
1160.853, 110.8244
1161.335, 111.3792
1161.818, 111.5201
1162.300, 111.3990
1162.782, 111.4796
1163.264, 111.7345
1163.746, 111.8163
1164.228, 111.6216
1164.710, 111.4192
1165.192, 111.4197
1165.674, 111.4748
1166.156, 111.4760
1166.639, 111.4328
1167.121, 111.4477
1167.603, 111.5201
1168.085, 111.4073
1168.567, 110.9167
1169.049, 110.5654
1169.531, 111.0562
1170.013, 111.7306
1170.496, 111.8823
1170.978, 111.4917
1171.460, 111.2419
1171.942, 111.1480
1172.424, 110.8408
1172.906, 109.8797
1173.388, 109.1263
1173.870, 109.6935
1174.353, 110.8732
1174.835, 111.7934
1175.317, 112.4486
1175.799, 112.5075
1176.281, 111.8856
1176.763, 111.3624
1177.245, 111.5502
1177.727, 111.8723
1178.209, 111.6638
1178.692, 111.1349
1179.174, 110.6311
1179.656, 110.2113
1180.138, 109.6949
1180.620, 108.9789
1181.102, 108.6731
1181.584, 109.6426
1182.066, 110.9458
1182.548, 111.3249
1183.031, 111.0978
1183.513, 111.0590
1183.995, 111.6990
1184.477, 111.5520
1184.959, 110.3260
1185.441, 109.2132
1185.923, 109.3982
1186.405, 110.2446
1186.888, 111.1477
1187.370, 111.9598
1187.852, 112.1972
1188.334, 111.2666
1188.816, 110.9040
1189.298, 111.3865
1189.780, 112.0439
1190.262, 112.2049
1190.745, 112.0834
1191.227, 111.9125
1191.709, 111.7422
1192.191, 111.7567
1192.673, 112.2209
1193.155, 112.3670
1193.637, 111.9768
1194.119, 111.5617
1194.601, 111.9324
1195.084, 112.5831
1195.566, 112.5451
1196.048, 111.8464
1196.530, 111.6150
1197.012, 112.4729
1197.494, 112.9473
1197.976, 112.6546
1198.458, 112.1335
1198.941, 112.1744
1199.423, 112.4975
1199.905, 112.5451
1200.387, 112.4456
1200.869, 111.6971
1201.351, 111.9177
1201.833, 111.9563
1202.315, 111.2678
1202.797, 111.5182
1203.280, 111.3923
1203.762, 111.2510
1204.244, 111.6336
1204.726, 111.0509
1205.208, 111.4251
1205.690, 111.4174
1206.172, 111.5845
1206.654, 111.3729
1207.136, 111.2784
1207.619, 111.5625
1208.101, 111.6369
1208.583, 111.3818
1209.065, 111.5600
1209.547, 110.9640
1210.029, 113.1243
1210.511, 113.9611
1210.993, 113.6277
1211.476, 112.7970
1211.958, 112.7062
1212.440, 113.0171
1212.922, 113.1177
1213.404, 112.8395
1213.886, 112.6141
1214.368, 112.5334
1214.850, 112.3931
1215.333, 112.0161
1215.815, 111.6713
1216.297, 111.9899
1216.779, 112.6550
1217.261, 113.1028
1217.743, 113.1895
1218.225, 113.1316
1218.707, 112.9282
1219.189, 112.6555
1219.672, 112.2703
1220.154, 111.9344
1220.636, 111.9635
1221.118, 112.2506
1221.600, 112.6585
1222.082, 113.3092
1222.564, 113.4848
1223.046, 112.9766
1223.528, 112.5318
1224.011, 112.5305
1224.493, 112.8302
1224.975, 113.4618
1225.457, 114.1283
1225.939, 114.3155
1226.421, 113.7816
1226.903, 112.8962
1227.385, 111.3917
1227.868, 110.5383
1228.350, 111.4264
1228.832, 112.9442
1229.314, 113.6057
1229.796, 113.6038
1230.278, 113.1561
1230.760, 111.8415
1231.242, 111.5670
1231.724, 112.5544
1232.207, 113.5175
1232.689, 113.6878
1233.171, 113.4215
1233.653, 112.6271
1234.135, 111.9221
1234.617, 112.5910
1235.099, 115.7927
1235.581, 116.6279
1236.063, 114.7580
1236.546, 112.8403
1237.028, 112.5703
1237.510, 113.0395
1237.992, 113.6236
1238.474, 114.1593
1238.956, 114.3498
1239.438, 114.1593
1239.920, 113.7586
1240.403, 113.1362
1240.885, 112.5378
1241.367, 111.9395
1241.849, 111.6264
1242.331, 111.9806
1242.813, 112.7322
1243.295, 113.4779
1243.777, 114.2185
1244.260, 115.0148
1244.742, 115.8766
1245.224, 116.1807
1245.706, 115.0941
1246.188, 113.8089
1246.670, 112.9032
1247.152, 112.4331
1247.634, 112.4270
1248.116, 112.9092
1248.599, 113.6741
1249.081, 114.6762
1249.563, 115.3152
1250.045, 114.8015
1250.527, 114.3197
1251.009, 114.7549
1251.491, 115.3453
1251.973, 115.1983
1252.455, 114.3637
1252.938, 114.1339
1253.420, 114.4556
1253.902, 114.7982
1254.384, 114.9740
1254.866, 114.9827
1255.348, 114.7205
1255.830, 114.4002
1256.313, 114.1459
1256.795, 113.9884
1257.277, 114.2034
1257.759, 114.7227
1258.241, 115.1875
1258.723, 115.4677
1259.205, 115.6151
1259.687, 115.5928
1260.169, 115.5361
1260.651, 115.5558
1261.134, 115.6357
1261.616, 115.9785
1262.098, 116.3595
1262.580, 116.0229
1263.062, 113.1470
1263.544, 112.1062
1264.026, 113.8826
1264.508, 116.0188
1264.991, 116.4405
1265.473, 115.8138
1265.955, 115.0568
1266.437, 114.3611
1266.919, 114.2026
1267.401, 115.3215
1267.883, 115.7911
1268.365, 115.4453
1268.848, 115.0000
1269.330, 114.9880
1269.812, 115.2084
1270.294, 115.5207
1270.776, 115.8401
1271.258, 115.9636
1271.740, 115.8178
1272.222, 115.6524
1272.704, 115.4508
1273.187, 115.4084
1273.669, 115.9760
1274.151, 116.4480
1274.633, 115.9136
1275.115, 115.0052
1275.597, 114.7551
1276.079, 115.2932
1276.561, 115.7367
1277.043, 116.0797
1277.526, 116.3160
1278.008, 116.5147
1278.490, 116.5210
1278.972, 115.9362
1279.454, 115.3454
1279.936, 115.4885
1280.418, 116.3186
1280.900, 116.2121
1281.383, 115.3615
1281.865, 115.0112
1282.347, 116.3720
1282.829, 117.4884
1283.311, 117.7342
1283.793, 117.4772
1284.275, 116.7208
1284.757, 115.6998
1285.240, 115.5584
1285.722, 116.0314
1286.204, 116.2581
1286.686, 115.7034
1287.168, 115.2215
1287.650, 114.7830
1288.132, 114.7272
1288.614, 115.6211
1289.096, 116.8193
1289.578, 116.8565
1290.061, 116.2036
1290.543, 115.8389
1291.025, 115.4662
1291.507, 115.9450
1291.989, 116.2314
1292.471, 116.3358
1292.953, 115.7131
1293.435, 116.0294
1293.918, 115.9694
1294.400, 115.8939
1294.882, 116.3423
1295.364, 115.8254
1295.846, 116.2654
1296.328, 116.3235
1296.810, 116.5564
1297.292, 116.4107
1297.775, 116.3820
1298.257, 117.0677
1298.739, 117.3768
1299.221, 117.2178
1299.703, 116.6890
1300.185, 117.0506
1300.667, 118.1037
1301.149, 118.6125
1301.631, 117.9045
1302.114, 117.0887
1302.596, 116.6231
##END=



