##NAMES=Smithite
##RRUFFID=R070642
##IDEAL CHEMISTRY=Ag^1+^As^3+^S^2-^_2_
##LOCALITY=Jas Roux, Pelvoux Mt., Valgaudemar, Hautes-Alpes, Provence-Alpes-Côte d'Azur, France
##OWNER=RRUFF
##SOURCE=Michael Scott
##DESCRIPTION=Deep-red with good cleavage, associated with realgar and chabournéite, R070371.
##STATUS=The identification of this mineral is confirmed by single-crystal X-ray diffraction and chemical analysis.
##URL=rruff.info/R070642
##MEASURED CHEMISTRY=Ag_1.00_(As_0.80_Sb_0.20_)_Σ=1_S_2.00_
152.4291, 3623.317
152.9112, 3629.504
153.3933, 3635.086
153.8755, 3648.153
154.3576, 3684.466
154.8397, 3713.489
155.3218, 3726.379
155.8039, 3720.472
156.2860, 3715.275
156.7682, 3707.719
157.2503, 3704.312
157.7324, 3713.317
158.2145, 3753.699
158.6966, 3793.523
159.1787, 3819.012
159.6609, 3823.969
160.1430, 3824.946
160.6251, 3822.564
161.1072, 3819.575
161.5893, 3822.411
162.0714, 3839.375
162.5536, 3859.743
163.0357, 3876.136
163.5178, 3882.807
163.9999, 3889.858
164.4820, 3902.236
164.9641, 3919.352
165.4463, 3937.115
165.9284, 3951.945
166.4105, 3966.821
166.8926, 3984.939
167.3747, 4016.576
167.8568, 4045.360
168.3390, 4056.569
168.8211, 4048.372
169.3032, 4041.785
169.7853, 4056.181
170.2674, 4081.126
170.7495, 4098.437
171.2317, 4092.043
171.7138, 4077.521
172.1959, 4069.820
172.6780, 4070.822
173.1601, 4077.800
173.6422, 4097.007
174.1244, 4122.845
174.6065, 4136.650
175.0886, 4115.828
175.5707, 4079.148
176.0528, 4054.751
176.5349, 4052.628
177.0171, 4058.851
177.4992, 4059.430
177.9813, 4054.464
178.4634, 4045.216
178.9455, 4030.945
179.4276, 4012.972
179.9098, 3993.875
180.3919, 3971.889
180.8740, 3950.498
181.3561, 3937.048
181.8382, 3932.061
182.3203, 3926.211
182.8025, 3908.991
183.2846, 3882.690
183.7667, 3855.666
184.2488, 3830.476
184.7309, 3807.306
185.2130, 3789.496
185.6951, 3778.368
186.1773, 3767.115
186.6594, 3740.608
187.1415, 3701.108
187.6236, 3671.337
188.1057, 3669.384
188.5878, 3689.423
189.0700, 3704.793
189.5521, 3714.469
190.0342, 3715.586
190.5163, 3695.608
190.9984, 3653.698
191.4805, 3616.623
191.9627, 3608.537
192.4448, 3626.811
192.9269, 3640.182
193.4090, 3642.803
193.8911, 3637.413
194.3732, 3630.402
194.8554, 3620.941
195.3375, 3614.347
195.8196, 3618.079
196.3017, 3632.511
196.7838, 3643.406
197.2659, 3646.659
197.7481, 3643.360
198.2302, 3635.471
198.7123, 3617.959
199.1944, 3578.674
199.6765, 3616.337
200.1586, 3636.854
200.6408, 3641.146
201.1229, 3580.618
201.6050, 3603.792
202.0871, 3593.422
202.5692, 3581.676
203.0513, 3616.630
203.5335, 3565.530
204.0156, 3599.744
204.4977, 3617.805
204.9798, 3622.570
205.4619, 3606.572
205.9440, 3594.819
206.4262, 3587.121
206.9083, 3584.613
207.3904, 3594.896
207.8725, 3625.891
208.3546, 3647.732
208.8367, 3637.897
209.3189, 3586.046
209.8010, 3545.560
210.2831, 3522.135
210.7652, 3513.002
211.2473, 3505.949
211.7294, 3500.124
212.2116, 3498.219
212.6937, 3503.361
213.1758, 3518.159
213.6579, 3531.884
214.1400, 3542.174
214.6221, 3549.638
215.1043, 3563.189
215.5864, 3589.650
216.0685, 3612.913
216.5506, 3612.151
217.0327, 3572.029
217.5148, 3547.942
217.9970, 3558.922
218.4791, 3608.139
218.9612, 3634.722
219.4433, 3630.323
219.9254, 3611.274
220.4075, 3597.604
220.8897, 3589.314
221.3718, 3586.363
221.8539, 3589.765
222.3360, 3601.064
222.8181, 3611.146
223.3002, 3620.571
223.7824, 3628.271
224.2645, 3632.164
224.7466, 3631.871
225.2287, 3628.521
225.7108, 3621.033
226.1929, 3604.658
226.6750, 3597.754
227.1572, 3602.407
227.6393, 3616.015
228.1214, 3633.870
228.6035, 3663.273
229.0856, 3685.870
229.5677, 3690.105
230.0499, 3662.829
230.5320, 3648.242
231.0141, 3656.134
231.4962, 3678.477
231.9783, 3680.155
232.4604, 3645.854
232.9426, 3610.556
233.4247, 3595.292
233.9068, 3608.396
234.3889, 3625.868
234.8710, 3651.264
235.3531, 3682.055
235.8353, 3691.811
236.3174, 3670.932
236.7995, 3640.063
237.2816, 3613.449
237.7637, 3588.983
238.2458, 3573.327
238.7280, 3570.927
239.2101, 3581.486
239.6922, 3583.789
240.1743, 3572.853
240.6564, 3558.583
241.1385, 3550.982
241.6207, 3556.757
242.1028, 3556.749
242.5849, 3544.937
243.0670, 3519.818
243.5491, 3501.830
244.0313, 3493.164
244.5134, 3489.782
244.9955, 3486.947
245.4776, 3483.272
245.9597, 3482.739
246.4418, 3487.929
246.9240, 3500.988
247.4061, 3506.725
247.8882, 3500.167
248.3703, 3489.875
248.8524, 3489.096
249.3345, 3504.470
249.8167, 3517.893
250.2988, 3523.322
250.7809, 3518.142
251.2630, 3514.917
251.7451, 3512.624
252.2272, 3512.824
252.7094, 3518.662
253.1915, 3531.898
253.6736, 3547.817
254.1557, 3565.878
254.6378, 3589.068
255.1199, 3604.497
255.6021, 3607.112
256.0842, 3604.283
256.5663, 3612.600
257.0484, 3636.572
257.5305, 3664.047
258.0126, 3690.614
258.4948, 3717.958
258.9769, 3739.979
259.4590, 3754.360
259.9411, 3764.380
260.4232, 3779.663
260.9053, 3802.485
261.3875, 3826.599
261.8696, 3849.031
262.3517, 3868.364
262.8338, 3890.307
263.3159, 3919.047
263.7980, 3949.575
264.2802, 3960.498
264.7623, 3940.874
265.2444, 3923.539
265.7265, 3930.126
266.2086, 3967.663
266.6907, 4002.777
267.1729, 4032.560
267.6550, 4057.444
268.1371, 4078.994
268.6192, 4095.287
269.1013, 4111.902
269.5834, 4132.931
270.0656, 4159.046
270.5477, 4185.075
271.0298, 4210.406
271.5119, 4234.948
271.9940, 4261.123
272.4761, 4292.509
272.9583, 4316.072
273.4404, 4317.833
273.9225, 4292.383
274.4046, 4275.429
274.8867, 4272.561
275.3688, 4282.112
275.8510, 4297.412
276.3331, 4318.901
276.8152, 4344.711
277.2973, 4378.602
277.7794, 4423.252
278.2615, 4449.264
278.7437, 4445.111
279.2258, 4418.822
279.7079, 4407.284
280.1900, 4412.726
280.6721, 4424.321
281.1542, 4430.776
281.6364, 4431.610
282.1185, 4441.428
282.6006, 4467.517
283.0827, 4504.320
283.5648, 4527.174
284.0469, 4533.816
284.5291, 4538.488
285.0112, 4554.222
285.4933, 4580.803
285.9754, 4612.198
286.4575, 4648.434
286.9396, 4687.657
287.4217, 4723.920
287.9038, 4757.317
288.3860, 4786.324
288.8681, 4802.830
289.3502, 4809.216
289.8323, 4829.949
290.3144, 4876.296
290.7965, 4940.058
291.2787, 5003.388
291.7608, 5067.504
292.2429, 5119.401
292.7250, 5138.314
293.2071, 5131.113
293.6892, 5132.460
294.1714, 5160.675
294.6535, 5201.605
295.1356, 5226.033
295.6177, 5233.952
296.0998, 5229.542
296.5819, 5209.432
297.0641, 5178.721
297.5462, 5155.115
298.0283, 5153.516
298.5104, 5157.909
298.9925, 5137.253
299.4746, 5091.212
299.9568, 5043.071
300.4389, 5018.144
300.9210, 5006.583
301.4031, 4984.671
301.8852, 4936.093
302.3673, 4877.401
302.8495, 4830.024
303.3316, 4794.061
303.8137, 4758.772
304.2958, 4717.274
304.7779, 4670.366
305.2600, 4620.238
305.7422, 4561.767
306.2243, 4504.148
306.7064, 4454.704
307.1885, 4413.135
307.6706, 4382.078
308.1527, 4366.509
308.6349, 4361.745
309.1170, 4361.572
309.5991, 4368.753
310.0812, 4376.146
310.5633, 4377.765
311.0454, 4373.980
311.5276, 4370.187
312.0097, 4365.008
312.4918, 4363.155
312.9739, 4369.902
313.4560, 4389.968
313.9381, 4416.915
314.4203, 4448.083
314.9024, 4483.624
315.3845, 4521.281
315.8666, 4555.985
316.3487, 4594.009
316.8308, 4641.273
317.3130, 4723.189
317.7951, 4792.890
318.2772, 4818.939
318.7593, 4806.239
319.2414, 4809.083
319.7235, 4855.306
320.2057, 4919.263
320.6878, 4980.648
321.1699, 5052.138
321.6520, 5103.241
322.1341, 5111.523
322.6162, 5082.683
323.0984, 5073.162
323.5805, 5118.412
324.0626, 5172.200
324.5447, 5203.355
325.0268, 5191.144
325.5089, 5174.556
325.9911, 5155.313
326.4732, 5134.352
326.9553, 5119.099
327.4374, 5119.598
327.9195, 5119.338
328.4016, 5108.785
328.8838, 5083.470
329.3659, 5052.819
329.8480, 5009.833
330.3301, 4958.724
330.8122, 4926.286
331.2943, 4930.403
331.7765, 4935.071
332.2586, 4920.015
332.7407, 4876.257
333.2228, 4828.196
333.7049, 4772.323
334.1870, 4712.835
334.6692, 4667.917
335.1513, 4647.088
335.6334, 4625.107
336.1155, 4586.560
336.5976, 4523.879
337.0797, 4467.760
337.5619, 4420.243
338.0440, 4380.407
338.5261, 4348.586
339.0082, 4327.375
339.4903, 4306.431
339.9724, 4281.646
340.4546, 4253.136
340.9367, 4215.787
341.4188, 4164.765
341.9009, 4109.766
342.3830, 4070.184
342.8651, 4046.714
343.3473, 4033.250
343.8294, 4027.993
344.3115, 4030.790
344.7936, 4040.152
345.2757, 4057.374
345.7578, 4078.357
346.2400, 4099.929
346.7221, 4121.445
347.2042, 4136.271
347.6863, 4131.170
348.1684, 4115.800
348.6505, 4123.819
349.1327, 4159.105
349.6148, 4206.325
350.0969, 4249.808
350.5790, 4290.065
351.0611, 4329.427
351.5432, 4362.099
352.0254, 4396.375
352.5075, 4450.229
352.9896, 4525.776
353.4717, 4602.547
353.9538, 4648.300
354.4359, 4681.775
354.9181, 4738.644
355.4002, 4842.213
355.8823, 4971.268
356.3644, 5116.937
356.8465, 5279.045
357.3286, 5426.377
357.8108, 5526.762
358.2929, 5604.564
358.7750, 5693.778
359.2571, 5835.094
359.7392, 5967.509
360.2213, 6062.605
360.7035, 6120.167
361.1856, 6143.405
361.6677, 6125.525
362.1498, 6077.728
362.6319, 6009.652
363.1140, 5926.009
363.5962, 5820.051
364.0783, 5679.625
364.5604, 5509.641
365.0425, 5344.554
365.5246, 5198.058
366.0067, 5054.844
366.4889, 4905.743
366.9710, 4723.283
367.4531, 4564.201
367.9352, 4441.805
368.4173, 4349.319
368.8994, 4256.458
369.3815, 4156.749
369.8636, 4062.173
370.3458, 3979.179
370.8279, 3912.351
371.3100, 3848.105
371.7921, 3786.181
372.2742, 3726.518
372.7563, 3668.571
373.2385, 3611.893
373.7206, 3558.405
374.2027, 3509.962
374.6848, 3468.180
375.1669, 3425.228
375.6490, 3380.013
376.1312, 3334.741
376.6133, 3292.698
377.0954, 3254.549
377.5775, 3216.437
378.0596, 3175.444
378.5417, 3132.448
379.0239, 3093.651
379.5060, 3060.287
379.9881, 3028.476
380.4702, 2993.940
380.9523, 2956.490
381.4344, 2919.002
381.9166, 2878.719
382.3987, 2839.739
382.8808, 2814.664
383.3629, 2804.371
383.8450, 2796.915
384.3271, 2781.605
384.8093, 2760.010
385.2914, 2737.197
385.7735, 2714.023
386.2556, 2691.202
386.7377, 2670.819
387.2198, 2652.653
387.7020, 2634.223
388.1841, 2611.576
388.6662, 2588.613
389.1483, 2570.718
389.6304, 2561.580
390.1125, 2554.358
390.5947, 2544.506
391.0768, 2532.415
391.5589, 2519.463
392.0410, 2500.809
392.5231, 2485.086
393.0052, 2480.507
393.4874, 2494.816
393.9695, 2504.564
394.4516, 2496.437
394.9337, 2477.986
395.4158, 2463.049
395.8979, 2459.930
396.3801, 2457.131
396.8622, 2449.036
397.3443, 2432.523
397.8264, 2420.129
398.3085, 2412.313
398.7906, 2409.867
399.2728, 2414.135
399.7549, 2441.715
400.2370, 2457.244
400.7191, 2449.938
401.2012, 2417.772
401.6833, 2393.424
402.1655, 2378.094
402.6476, 2369.726
403.1297, 2367.148
403.6118, 2371.780
404.0939, 2379.797
404.5760, 2394.914
405.0582, 2413.354
405.5403, 2410.116
406.0224, 2377.744
406.5045, 2345.444
406.9866, 2335.960
407.4688, 2350.739
407.9509, 2362.304
408.4330, 2368.076
408.9151, 2368.899
409.3972, 2364.010
409.8793, 2353.412
410.3615, 2345.849
410.8436, 2351.624
411.3257, 2365.004
411.8078, 2363.490
412.2899, 2342.843
412.7720, 2320.149
413.2542, 2320.805
413.7363, 2337.158
414.2184, 2346.434
414.7005, 2328.802
415.1826, 2303.073
415.6647, 2291.822
416.1469, 2295.892
416.6290, 2304.082
417.1111, 2312.691
417.5932, 2319.382
418.0753, 2320.896
418.5574, 2307.910
419.0396, 2296.838
419.5217, 2300.647
420.0038, 2316.327
420.4859, 2324.092
420.9680, 2309.432
421.4501, 2288.221
421.9323, 2271.439
422.4144, 2259.210
422.8965, 2253.646
423.3786, 2261.507
423.8607, 2277.049
424.3428, 2283.754
424.8250, 2269.039
425.3071, 2255.544
425.7892, 2252.284
426.2713, 2265.848
426.7534, 2271.351
427.2355, 2262.149
427.7177, 2248.968
428.1998, 2249.789
428.6819, 2274.741
429.1640, 2290.217
429.6461, 2282.074
430.1282, 2251.124
430.6104, 2238.978
431.0925, 2250.669
431.5746, 2268.010
432.0567, 2271.339
432.5388, 2260.138
433.0209, 2253.179
433.5031, 2256.600
433.9852, 2264.910
434.4673, 2262.652
434.9494, 2250.148
435.4315, 2238.881
435.9136, 2239.091
436.3958, 2246.996
436.8779, 2252.818
437.3600, 2254.780
437.8421, 2255.547
438.3242, 2259.047
438.8063, 2263.913
439.2885, 2266.256
439.7706, 2261.465
440.2527, 2254.774
440.7348, 2250.167
441.2169, 2247.794
441.6990, 2248.958
442.1812, 2259.633
442.6633, 2272.418
443.1454, 2278.658
443.6275, 2269.649
444.1096, 2259.363
444.5917, 2251.440
445.0739, 2246.023
445.5560, 2243.902
446.0381, 2252.902
446.5202, 2260.063
447.0023, 2257.660
447.4844, 2219.793
447.9666, 2205.860
448.4487, 2233.845
448.9308, 2284.748
449.4129, 2305.056
449.8950, 2276.036
450.3771, 2246.838
450.8593, 2238.832
451.3413, 2257.649
451.8235, 2263.957
452.3056, 2253.447
452.7877, 2237.282
453.2698, 2230.768
453.7519, 2234.748
454.2340, 2239.359
454.7162, 2243.126
455.1983, 2245.002
455.6804, 2239.798
456.1625, 2227.096
456.6446, 2213.929
457.1267, 2204.416
457.6089, 2199.012
458.0910, 2199.063
458.5731, 2206.363
459.0552, 2216.483
459.5373, 2224.542
460.0194, 2231.008
460.5016, 2237.583
460.9837, 2250.378
461.4658, 2260.650
461.9479, 2257.579
462.4300, 2236.929
462.9121, 2220.150
463.3943, 2225.640
463.8764, 2239.418
464.3585, 2243.334
464.8406, 2219.247
465.3227, 2196.957
465.8048, 2185.892
466.2870, 2186.316
466.7691, 2190.799
467.2512, 2205.520
467.7333, 2219.225
468.2154, 2224.766
468.6975, 2214.444
469.1797, 2208.461
469.6618, 2208.750
470.1439, 2213.599
470.6260, 2218.638
471.1081, 2223.558
471.5902, 2229.459
472.0724, 2240.014
472.5545, 2256.474
473.0366, 2252.986
473.5187, 2223.424
474.0008, 2191.205
474.4829, 2191.215
474.9651, 2220.229
475.4472, 2238.305
475.9293, 2226.308
476.4114, 2200.744
476.8935, 2198.859
477.3756, 2218.794
477.8578, 2236.666
478.3399, 2232.621
478.8220, 2216.161
479.3041, 2199.915
479.7862, 2184.059
480.2683, 2174.549
480.7505, 2178.442
481.2326, 2191.989
481.7147, 2207.181
482.1968, 2231.598
482.6789, 2247.935
483.1610, 2242.757
483.6432, 2212.117
484.1253, 2187.067
484.6074, 2173.471
485.0895, 2169.780
485.5716, 2174.538
486.0537, 2201.107
486.5359, 2219.912
487.0180, 2225.997
487.5001, 2221.952
487.9822, 2220.298
488.4643, 2224.509
488.9464, 2225.491
489.4286, 2217.801
489.9107, 2199.631
490.3928, 2181.856
490.8749, 2162.341
491.3570, 2147.239
491.8391, 2149.181
492.3213, 2168.084
492.8034, 2183.062
493.2855, 2183.714
493.7676, 2176.502
494.2497, 2178.273
494.7318, 2188.885
495.2140, 2201.367
495.6961, 2215.198
496.1782, 2225.991
496.6603, 2223.796
497.1424, 2200.830
497.6245, 2177.196
498.1067, 2168.435
498.5888, 2170.935
499.0709, 2176.133
499.5530, 2181.252
500.0351, 2187.176
500.5172, 2197.123
500.9994, 2212.795
501.4815, 2218.657
501.9636, 2200.446
502.4457, 2176.220
502.9278, 2162.331
503.4099, 2152.517
503.8921, 2178.546
504.3742, 2193.145
504.8563, 2196.927
505.3384, 2157.496
505.8205, 2173.865
506.3026, 2167.872
506.7848, 2160.962
507.2669, 2185.186
507.7490, 2152.040
508.2311, 2175.770
508.7132, 2176.795
509.1953, 2188.212
509.6775, 2177.128
510.1596, 2172.994
510.6417, 2191.368
511.1238, 2197.279
511.6059, 2183.605
512.0880, 2195.683
512.5701, 2161.751
513.0522, 2168.192
513.5344, 2192.054
514.0165, 2179.511
514.4986, 2192.000
514.9807, 2194.955
515.4628, 2154.586
515.9449, 2189.563
516.4271, 2191.955
516.9092, 2160.889
517.3913, 2193.284
517.8734, 2166.831
518.3555, 2161.384
518.8376, 2171.743
519.3198, 2165.624
519.8019, 2185.486
520.2840, 2180.319
520.7661, 2172.915
521.2482, 2175.271
521.7303, 2149.972
522.2125, 2175.977
522.6946, 2166.938
523.1767, 2175.318
523.6588, 2187.647
524.1409, 2170.741
524.6230, 2169.378
525.1052, 2170.326
525.5873, 2174.130
526.0694, 2175.918
526.5515, 2166.881
527.0336, 2151.689
527.5157, 2144.402
527.9979, 2150.677
528.4800, 2162.239
528.9621, 2174.202
529.4442, 2184.840
529.9263, 2189.408
530.4084, 2175.699
530.8906, 2161.910
531.3727, 2163.438
531.8548, 2183.805
532.3369, 2199.809
532.8190, 2200.891
533.3011, 2195.472
533.7833, 2191.203
534.2654, 2185.869
534.7475, 2185.740
535.2296, 2195.613
535.7117, 2211.304
536.1938, 2217.716
536.6760, 2211.085
537.1581, 2202.550
537.6402, 2197.156
538.1223, 2195.450
538.6044, 2188.997
539.0865, 2175.768
539.5687, 2163.650
540.0508, 2162.473
540.5329, 2171.184
541.0150, 2183.313
541.4971, 2200.818
541.9792, 2216.327
542.4614, 2213.959
542.9435, 2197.306
543.4256, 2183.056
543.9077, 2186.359
544.3898, 2193.915
544.8719, 2190.250
545.3541, 2171.605
545.8362, 2158.555
546.3183, 2167.750
546.8004, 2184.887
547.2825, 2194.441
547.7646, 2181.909
548.2468, 2173.500
548.7289, 2178.437
549.2110, 2192.583
549.6931, 2175.209
550.1752, 2201.987
550.6573, 2217.333
551.1395, 2221.864
551.6216, 2183.181
552.1037, 2200.300
552.5858, 2195.055
553.0679, 2188.894
553.5500, 2213.866
554.0322, 2181.469
554.5143, 2205.947
554.9964, 2207.722
555.4785, 2219.887
555.9606, 2209.552
556.4427, 2206.167
556.9249, 2225.289
557.4070, 2212.554
557.8891, 2211.842
558.3712, 2210.020
558.8533, 2207.750
559.3354, 2201.120
559.8176, 2179.954
560.2997, 2156.700
560.7818, 2144.096
561.2639, 2151.915
561.7460, 2163.438
562.2281, 2181.040
562.7103, 2200.815
563.1924, 2208.090
563.6745, 2193.655
564.1566, 2178.769
564.6387, 2169.960
565.1208, 2167.110
565.6030, 2172.714
566.0851, 2190.131
566.5672, 2208.216
567.0493, 2215.029
567.5314, 2210.962
568.0135, 2205.892
568.4957, 2201.162
568.9778, 2197.220
569.4599, 2193.675
569.9420, 2191.208
570.4241, 2192.825
570.9063, 2209.046
571.3884, 2224.680
571.8705, 2220.474
572.3526, 2195.830
572.8347, 2174.842
573.3168, 2173.440
573.7990, 2179.531
574.2811, 2182.744
574.7632, 2174.209
575.2453, 2172.370
575.7274, 2190.490
576.2095, 2215.509
576.6917, 2219.900
577.1738, 2186.695
577.6559, 2161.010
578.1380, 2158.172
578.6201, 2176.307
579.1022, 2183.429
579.5844, 2176.679
580.0665, 2169.463
580.5486, 2173.041
581.0307, 2185.943
581.5128, 2198.284
581.9949, 2209.542
582.4771, 2217.941
582.9592, 2223.984
583.4413, 2225.592
583.9234, 2217.608
584.4055, 2183.741
584.8876, 2150.744
585.3698, 2140.099
585.8519, 2149.001
586.3340, 2161.739
586.8161, 2182.751
587.2982, 2197.423
587.7803, 2194.275
588.2625, 2159.025
588.7446, 2140.816
589.2267, 2151.543
589.7088, 2173.355
590.1909, 2188.009
590.6730, 2194.773
591.1552, 2194.916
591.6373, 2184.609
592.1194, 2170.195
592.6015, 2173.378
593.0836, 2195.309
593.5657, 2216.149
594.0479, 2228.284
594.5300, 2231.054
595.0121, 2216.708
595.4942, 2184.391
595.9763, 2158.136
596.4584, 2166.267
596.9406, 2189.654
597.4227, 2202.764
597.9048, 2193.338
598.3869, 2182.776
598.8690, 2179.742
599.3511, 2182.634
599.8333, 2188.245
600.3154, 2205.513
600.7975, 2215.260
601.2796, 2208.804
601.7617, 2186.754
602.2438, 2174.896
602.7260, 2178.992
603.2081, 2183.469
603.6902, 2175.451
604.1723, 2152.985
604.6544, 2144.576
605.1365, 2153.645
605.6187, 2170.719
606.1008, 2187.740
606.5829, 2203.037
607.0650, 2208.896
607.5471, 2198.219
608.0292, 2182.245
608.5114, 2173.901
608.9935, 2171.495
609.4756, 2168.918
609.9577, 2158.189
610.4398, 2150.042
610.9219, 2153.514
611.4041, 2171.543
611.8862, 2184.643
612.3683, 2184.307
612.8504, 2180.641
613.3325, 2181.791
613.8146, 2193.258
614.2968, 2197.908
614.7789, 2191.158
615.2610, 2180.432
615.7431, 2184.037
616.2252, 2204.366
616.7073, 2214.258
617.1895, 2197.867
617.6716, 2166.597
618.1537, 2153.995
618.6358, 2158.531
619.1179, 2163.566
619.6000, 2154.508
620.0822, 2140.470
620.5643, 2132.555
621.0464, 2132.563
621.5285, 2135.999
622.0106, 2144.559
622.4927, 2153.481
622.9749, 2157.621
623.4570, 2151.617
623.9391, 2145.854
624.4212, 2142.575
624.9033, 2140.458
625.3854, 2134.862
625.8676, 2120.872
626.3497, 2114.803
626.8318, 2126.824
627.3139, 2153.762
627.7960, 2161.781
628.2781, 2148.744
628.7603, 2134.308
629.2424, 2138.703
629.7245, 2153.929
630.2066, 2157.704
630.6887, 2145.239
631.1708, 2130.390
631.6530, 2124.986
632.1351, 2125.362
632.6172, 2125.978
633.0993, 2123.188
633.5814, 2122.055
634.0635, 2126.370
634.5457, 2134.271
635.0278, 2138.554
635.5099, 2135.758
635.9920, 2132.288
636.4741, 2129.758
636.9562, 2128.145
637.4384, 2127.231
637.9205, 2125.991
638.4026, 2128.108
638.8847, 2141.565
639.3668, 2164.002
639.8489, 2170.214
640.3311, 2154.378
640.8132, 2133.313
641.2953, 2127.516
641.7774, 2131.483
642.2595, 2132.908
642.7416, 2122.136
643.2238, 2112.390
643.7059, 2113.419
644.1880, 2122.678
644.6701, 2131.566
645.1522, 2133.745
645.6343, 2138.280
646.1165, 2151.982
646.5986, 2177.094
647.0807, 2189.455
647.5628, 2186.162
648.0449, 2174.565
648.5270, 2157.098
649.0092, 2132.685
649.4913, 2117.253
649.9734, 2112.814
650.4555, 2114.600
650.9376, 2118.624
651.4197, 2123.797
651.9019, 2125.854
652.3840, 2120.958
652.8661, 2115.229
653.3482, 2114.332
653.8303, 2117.371
654.3124, 2121.645
654.7946, 2126.981
655.2767, 2132.400
655.7588, 2138.385
656.2409, 2145.283
656.7230, 2147.428
657.2051, 2139.542
657.6872, 2132.419
658.1693, 2133.501
658.6514, 2145.642
659.1335, 2153.929
659.6157, 2158.860
660.0978, 2158.233
660.5799, 2143.948
661.0620, 2119.464
661.5441, 2105.364
662.0262, 2110.718
662.5084, 2122.973
662.9905, 2128.515
663.4726, 2128.777
663.9547, 2127.607
664.4368, 2126.548
664.9189, 2124.758
665.4011, 2120.419
665.8832, 2113.683
666.3653, 2110.462
666.8474, 2118.066
667.3295, 2123.542
667.8116, 2120.092
668.2938, 2104.632
668.7759, 2093.823
669.2580, 2088.631
669.7401, 2085.794
670.2222, 2080.961
670.7043, 2074.716
671.1865, 2073.406
671.6686, 2079.566
672.1507, 2087.792
672.6328, 2090.432
673.1149, 2089.924
673.5970, 2091.938
674.0792, 2106.913
674.5613, 2117.922
675.0434, 2110.180
675.5255, 2087.959
676.0076, 2074.261
676.4897, 2083.678
676.9719, 2093.129
677.4540, 2093.213
677.9361, 2082.411
678.4182, 2075.912
678.9003, 2073.502
679.3824, 2075.568
679.8646, 2084.964
680.3467, 2100.660
680.8288, 2110.333
681.3109, 2111.887
681.7930, 2111.450
682.2751, 2119.537
682.7573, 2130.513
683.2394, 2132.706
683.7215, 2116.354
684.2036, 2098.246
684.6857, 2088.588
685.1678, 2084.293
685.6500, 2077.914
686.1321, 2061.631
686.6142, 2049.886
687.0963, 2048.732
687.5784, 2056.696
688.0605, 2058.197
688.5427, 2049.673
689.0248, 2043.832
689.5069, 2049.515
689.9890, 2065.456
690.4711, 2079.193
690.9532, 2090.908
691.4354, 2096.580
691.9175, 2089.714
692.3996, 2075.134
692.8817, 2058.924
693.3638, 2039.180
693.8459, 2027.104
694.3281, 2034.581
694.8102, 2051.712
695.2923, 2065.243
695.7744, 2075.994
696.2565, 2078.402
696.7386, 2067.564
697.2208, 2049.106
697.7029, 2037.896
698.1850, 2035.505
698.6671, 2034.780
699.1492, 2033.049
699.6313, 2031.123
700.1135, 2032.193
700.5956, 2036.135
701.0777, 2041.035
701.5598, 2049.991
702.0419, 2056.885
702.5240, 2050.880
703.0062, 2030.492
703.4883, 2014.439
703.9704, 2016.272
704.4525, 2023.320
704.9346, 2025.430
705.4167, 2013.273
705.8989, 2011.014
706.3810, 2025.814
706.8631, 2044.493
707.3452, 2050.099
707.8273, 2040.550
708.3094, 2031.639
708.7916, 2025.622
709.2737, 2022.429
709.7558, 2023.760
710.2379, 2028.323
710.7200, 2030.949
711.2021, 2026.727
711.6843, 2021.485
712.1664, 2020.234
712.6485, 2022.355
713.1306, 2025.297
713.6127, 2028.355
714.0948, 2031.719
714.5770, 2036.454
715.0591, 2042.914
715.5412, 2044.469
716.0233, 2039.193
716.5054, 2032.398
716.9875, 2026.278
717.4697, 2020.904
717.9518, 2021.581
718.4339, 2029.089
718.9160, 2039.179
719.3981, 2052.350
719.8802, 2063.987
720.3624, 2062.048
720.8445, 2035.186
721.3266, 2015.235
721.8087, 2032.550
722.2908, 2066.168
722.7729, 2085.428
723.2551, 2070.986
723.7372, 2057.345
724.2193, 2049.652
724.7014, 2046.026
725.1835, 2040.444
725.6656, 2030.914
726.1478, 2027.981
726.6299, 2039.390
727.1120, 2058.307
727.5941, 2063.833
728.0762, 2056.840
728.5583, 2045.535
729.0405, 2028.858
729.5226, 2014.667
730.0047, 2013.330
730.4868, 2025.556
730.9689, 2034.472
731.4510, 2028.575
731.9332, 2021.043
732.4153, 2021.555
732.8974, 2035.699
733.3795, 2041.516
733.8616, 2036.000
734.3438, 2026.856
734.8259, 2020.148
735.3080, 2015.943
735.7901, 2020.203
736.2722, 2037.168
736.7543, 2051.052
737.2365, 2033.449
737.7186, 1998.766
738.2007, 1976.863
738.6828, 1986.428
739.1649, 2000.515
739.6470, 2006.928
740.1292, 2007.581
740.6113, 2006.786
741.0934, 1995.837
741.5755, 1996.256
742.0576, 2020.458
742.5397, 2059.074
743.0219, 2066.373
743.5040, 2037.471
743.9861, 2007.263
744.4682, 1991.293
744.9503, 1987.403
745.4324, 1993.785
745.9146, 2009.144
746.3967, 2020.078
746.8788, 2014.393
747.3609, 2002.330
747.8430, 1991.118
748.3251, 1981.141
748.8073, 1975.043
749.2894, 1976.077
749.7715, 1979.025
750.2536, 1980.237
750.7357, 1977.699
751.2178, 1979.795
751.7000, 1986.812
752.1821, 1997.828
752.6642, 2016.987
753.1463, 2040.766
753.6284, 2049.417
754.1105, 2036.306
754.5927, 2017.470
755.0748, 2006.600
755.5569, 2001.166
756.0390, 1996.928
756.5211, 1988.206
757.0032, 1985.460
757.4854, 1997.702
757.9675, 2017.274
758.4496, 2026.668
758.9317, 2023.347
759.4138, 2015.183
759.8959, 2002.243
760.3781, 1986.796
760.8602, 1975.054
761.3423, 1967.079
761.8244, 1963.240
762.3065, 1968.726
762.7886, 1975.613
763.2708, 1970.149
763.7529, 1954.854
764.2350, 1946.469
764.7171, 1963.137
765.1992, 1979.829
765.6813, 1980.015
766.1635, 1959.765
766.6456, 1952.621
767.1277, 1964.367
767.6098, 1979.771
768.0919, 1990.568
768.5740, 1996.812
769.0562, 1997.862
769.5383, 1993.439
770.0204, 1986.317
770.5025, 1974.034
770.9846, 1962.414
771.4667, 1962.774
771.9489, 1979.611
772.4310, 1995.687
772.9131, 2003.416
773.3952, 2005.444
773.8773, 2004.336
774.3594, 2000.382
774.8416, 1992.677
775.3237, 1977.211
775.8058, 1962.250
776.2879, 1960.365
776.7700, 1971.657
777.2521, 1983.038
777.7343, 1992.946
778.2164, 1999.278
778.6985, 1995.924
779.1806, 1986.844
779.6627, 1980.940
780.1448, 1985.413
780.6270, 1990.327
781.1091, 1991.415
781.5912, 1989.535
782.0733, 1987.163
782.5554, 1983.984
783.0375, 1981.039
783.5197, 1978.497
784.0018, 1976.333
784.4839, 1973.049
784.9660, 1968.441
785.4481, 1969.125
785.9302, 1987.416
786.4124, 2008.741
786.8945, 2002.284
787.3766, 1973.896
787.8587, 1953.279
788.3408, 1962.990
788.8229, 1979.294
789.3051, 1990.276
789.7872, 1994.951
790.2693, 1996.527
790.7514, 1993.864
791.2335, 1990.201
791.7156, 1987.174
792.1978, 1984.755
792.6799, 1981.351
793.1620, 1976.766
793.6441, 1974.119
794.1262, 1978.221
794.6083, 1985.055
795.0905, 1988.396
795.5726, 1987.248
796.0547, 1985.651
796.5368, 1982.969
797.0189, 1982.273
797.5010, 1987.065
797.9832, 2002.605
798.4653, 2010.539
798.9474, 2010.283
799.4295, 2003.343
799.9116, 1986.143
800.3937, 1960.284
800.8759, 1950.603
801.3580, 1963.140
801.8401, 1978.404
802.3222, 1971.376
802.8043, 1954.869
803.2864, 1948.735
803.7686, 1964.420
804.2507, 1979.766
804.7328, 1992.348
805.2149, 1998.364
805.6970, 1991.020
806.1791, 1957.674
806.6613, 1944.911
807.1434, 1965.545
807.6255, 1997.785
808.1076, 1998.729
808.5897, 1974.310
809.0718, 1961.119
809.5540, 1977.009
810.0361, 1997.907
810.5182, 2001.069
811.0003, 1992.171
811.4824, 1982.306
811.9645, 1973.976
812.4467, 1966.331
812.9288, 1955.704
813.4109, 1946.229
813.8930, 1951.238
814.3751, 1976.238
814.8572, 1993.288
815.3394, 1993.027
815.8215, 1981.062
816.3036, 1964.799
816.7857, 1946.422
817.2678, 1936.604
817.7499, 1947.947
818.2321, 1962.960
818.7142, 1969.826
819.1963, 1969.912
819.6784, 1970.212
820.1605, 1972.839
820.6426, 1975.015
821.1248, 1976.401
821.6068, 1976.746
822.0889, 1973.044
822.5710, 1964.680
823.0532, 1959.503
823.5353, 1962.538
824.0174, 1971.209
824.4995, 1985.875
824.9816, 2003.967
825.4637, 2011.573
825.9459, 1988.318
826.4280, 1963.707
826.9101, 1954.674
827.3922, 1963.001
827.8743, 1971.134
828.3564, 1981.216
828.8386, 1986.831
829.3207, 1982.826
829.8028, 1971.065
830.2849, 1966.134
830.7670, 1967.989
831.2491, 1971.217
831.7313, 1974.438
832.2134, 1975.415
832.6955, 1968.143
833.1776, 1952.540
833.6597, 1945.660
834.1418, 1963.971
834.6240, 1982.959
835.1061, 1989.959
835.5882, 1983.953
836.0703, 1975.413
836.5524, 1962.757
837.0345, 1953.944
837.5167, 1959.305
837.9988, 1972.797
838.4809, 1974.349
838.9630, 1963.131
839.4451, 1953.568
839.9272, 1954.460
840.4094, 1961.864
840.8915, 1976.018
841.3736, 2001.432
841.8557, 2010.145
842.3378, 1990.094
842.8199, 1967.366
843.3021, 1958.271
843.7842, 1963.092
844.2663, 1974.245
844.7484, 1992.708
845.2305, 2005.459
845.7126, 1993.890
846.1948, 1972.646
846.6769, 1962.413
847.1590, 1966.795
847.6411, 1973.888
848.1232, 1981.439
848.6053, 1988.141
849.0875, 1993.516
849.5696, 1998.376
850.0517, 1998.278
850.5338, 1991.820
851.0159, 1984.434
851.4980, 1981.103
851.9802, 1980.961
852.4623, 1980.341
852.9444, 1978.677
853.4265, 1980.018
853.9086, 1995.091
854.3907, 2009.810
854.8729, 2009.133
855.3550, 1981.861
855.8371, 1966.801
856.3192, 1969.161
856.8013, 1979.951
857.2834, 1997.013
857.7656, 2020.850
858.2477, 2023.585
858.7298, 2001.796
859.2119, 1976.864
859.6940, 1967.303
860.1761, 1967.776
860.6583, 1972.759
861.1404, 1982.547
861.6225, 1990.109
862.1046, 1988.287
862.5867, 1986.674
863.0688, 1994.011
863.5510, 2016.721
864.0331, 2021.096
864.5152, 2001.840
864.9973, 1981.914
865.4794, 1989.858
865.9615, 2013.340
866.4437, 2015.874
866.9258, 1992.149
867.4079, 1966.949
867.8900, 1950.372
868.3721, 1943.265
868.8542, 1948.872
869.3364, 1976.838
869.8185, 1988.753
870.3006, 1976.413
870.7827, 1961.157
871.2648, 1961.076
871.7469, 1974.603
872.2291, 1985.177
872.7112, 1991.965
873.1933, 1995.968
873.6754, 1994.930
874.1575, 1993.339
874.6396, 1996.788
875.1218, 2007.238
875.6039, 2015.745
876.0860, 2020.932
876.5681, 2022.742
877.0502, 2020.423
877.5323, 2013.441
878.0145, 2006.791
878.4966, 2000.477
878.9787, 1994.251
879.4608, 1963.026
879.9429, 1989.842
880.4250, 2005.227
880.9072, 2009.796
881.3893, 1971.152
881.8714, 1988.308
882.3535, 1983.102
882.8356, 1976.979
883.3177, 2001.990
883.7999, 1969.631
884.2820, 1994.147
884.7641, 1995.960
885.2462, 2008.164
885.7283, 1997.867
886.2104, 1994.520
886.6926, 2013.680
887.1747, 2020.378
887.6568, 2007.491
888.1389, 2020.355
888.6210, 1987.210
889.1031, 1994.439
889.5853, 2019.087
890.0674, 2007.332
890.5495, 2020.607
891.0316, 2001.052
891.5137, 2000.908
891.9958, 1996.510
892.4780, 1988.170
892.9601, 1981.211
893.4422, 1978.117
893.9243, 1978.712
894.4064, 1984.491
894.8885, 1994.792
895.3707, 2003.438
895.8528, 2007.809
896.3349, 2011.909
896.8170, 2018.160
897.2991, 2025.154
897.7813, 2022.141
898.2634, 2009.101
898.7455, 2001.112
899.2276, 2016.284
899.7097, 2034.606
900.1918, 2025.892
900.6740, 1997.611
901.1561, 1977.677
901.6382, 1985.495
902.1203, 1969.630
902.6024, 1995.911
903.0845, 2010.760
903.5667, 2014.793
904.0488, 1975.613
904.5309, 1992.234
905.0130, 1986.492
905.4951, 1979.834
905.9772, 2004.308
906.4594, 1971.413
906.9415, 1995.394
907.4236, 1996.671
907.9057, 2008.339
908.3878, 1997.506
908.8699, 1993.624
909.3521, 2012.249
909.8342, 2018.411
910.3163, 2004.988
910.7984, 2017.316
911.2805, 1983.635
911.7626, 1990.328
912.2448, 2014.441
912.7269, 2002.150
913.2090, 2014.890
913.6911, 2018.096
914.1732, 1977.978
914.6553, 2013.206
915.1375, 2015.849
915.6196, 1985.035
916.1017, 2017.681
916.5838, 2004.788
917.0659, 2010.162
917.5480, 2014.209
918.0302, 2015.816
918.5123, 2009.576
918.9944, 1991.527
919.4765, 1978.328
919.9586, 1984.322
920.4407, 1998.159
920.9229, 2008.901
921.4050, 2013.805
921.8871, 2021.172
922.3692, 2033.208
922.8513, 2043.035
923.3334, 2045.224
923.8156, 2039.914
924.2977, 2022.146
924.7798, 1991.040
925.2619, 1970.394
925.7440, 1990.854
926.2261, 2019.056
926.7083, 2025.706
927.1904, 2002.296
927.6725, 1996.798
928.1546, 2018.383
928.6367, 2040.282
929.1188, 2046.206
929.6010, 2039.228
930.0831, 2034.103
930.5652, 2030.771
931.0473, 2027.501
931.5294, 2023.492
932.0115, 2018.949
932.4937, 2011.652
932.9758, 2002.588
933.4579, 2002.440
933.9400, 2016.932
934.4221, 2030.466
934.9042, 2039.135
935.3864, 2042.947
935.8685, 2040.296
936.3506, 2032.236
936.8327, 2025.142
937.3148, 2022.277
937.7969, 2021.382
938.2791, 2021.782
938.7612, 2022.859
939.2433, 2023.345
939.7254, 2026.041
940.2075, 2021.906
940.6896, 2004.840
941.1718, 1986.368
941.6539, 1992.606
942.1360, 2018.212
942.6181, 2033.368
943.1002, 2027.092
943.5823, 2017.377
944.0645, 2021.055
944.5466, 2028.417
945.0287, 2026.974
945.5108, 1998.639
945.9929, 1990.786
946.4750, 2012.693
946.9572, 2039.619
947.4393, 2042.730
947.9214, 2027.140
948.4035, 2021.459
948.8856, 2029.110
949.3677, 2036.516
949.8499, 2028.834
950.3320, 2019.639
950.8141, 2021.869
951.2962, 2040.255
951.7783, 2052.551
952.2604, 2057.822
952.7426, 2058.294
953.2247, 2054.484
953.7068, 2046.906
954.1889, 2035.752
954.6710, 2021.806
955.1531, 2012.089
955.6353, 2010.505
956.1174, 2015.044
956.5995, 2030.142
957.0816, 2052.313
957.5637, 2058.845
958.0458, 2040.784
958.5280, 2027.240
959.0101, 2028.169
959.4922, 2037.264
959.9743, 2038.993
960.4564, 2035.465
960.9385, 2034.573
961.4207, 2044.360
961.9028, 2051.151
962.3849, 2041.666
962.8670, 2026.044
963.3491, 2023.292
963.8312, 2042.756
964.3134, 2050.159
964.7955, 2038.087
965.2776, 2023.235
965.7597, 2034.431
966.2418, 2059.690
966.7239, 2065.908
967.2061, 2042.837
967.6882, 2022.164
968.1703, 2023.966
968.6524, 2033.216
969.1345, 2038.562
969.6166, 2039.756
970.0988, 2034.934
970.5809, 2021.507
971.0630, 2012.830
971.5451, 2024.036
972.0272, 2045.026
972.5093, 2058.706
972.9915, 2064.227
973.4736, 2061.385
973.9557, 2037.721
974.4378, 2018.495
974.9199, 2018.400
975.4020, 2032.501
975.8842, 2037.201
976.3663, 2031.501
976.8484, 2026.217
977.3305, 2025.628
977.8126, 2027.556
978.2947, 2028.082
978.7769, 2028.725
979.2590, 2032.807
979.7411, 2047.879
980.2232, 2058.120
980.7053, 2059.103
981.1874, 2055.211
981.6696, 2052.389
982.1517, 2050.678
982.6338, 2045.681
983.1159, 2036.030
983.5980, 2027.349
984.0801, 2026.144
984.5623, 2028.629
985.0444, 2030.002
985.5265, 2028.098
986.0085, 2031.161
986.4907, 2045.419
986.9728, 2056.937
987.4549, 2056.012
987.9370, 2043.951
988.4191, 2031.723
988.9012, 2019.839
989.3834, 2014.786
989.8655, 2027.508
990.3476, 2043.054
990.8297, 2053.065
991.3118, 2056.562
991.7939, 2049.293
992.2761, 2020.324
992.7582, 2006.221
993.2403, 2022.258
993.7224, 2051.577
994.2045, 2054.071
994.6866, 2037.949
995.1688, 2030.393
995.6509, 2046.741
996.1330, 2062.866
996.6151, 2066.435
997.0972, 2062.412
997.5793, 2056.756
998.0615, 2047.348
998.5436, 2044.449
999.0257, 2049.329
999.5078, 2057.025
999.9899, 2062.925
1000.472, 2067.862
1000.954, 2073.033
1001.436, 2078.438
1001.918, 2084.795
1002.401, 2100.969
1002.883, 2108.569
1003.365, 2094.791
1003.847, 2063.208
1004.329, 2051.008
1004.811, 2058.516
1005.293, 2067.828
1005.775, 2070.965
1006.257, 2070.623
1006.740, 2066.704
1007.222, 2061.868
1007.704, 2062.462
1008.186, 2083.353
1008.668, 2090.255
1009.150, 2072.843
1009.632, 2048.283
1010.114, 2046.102
1010.596, 2061.517
1011.079, 2067.140
1011.561, 2055.927
1012.043, 2045.803
1012.525, 2051.208
1013.007, 2063.483
1013.489, 2077.303
1013.971, 2095.486
1014.453, 2095.663
1014.936, 2072.126
1015.418, 2048.972
1015.900, 2042.947
1016.382, 2048.583
1016.864, 2054.704
1017.346, 2061.201
1017.828, 2068.091
1018.310, 2079.878
1018.792, 2086.830
1019.275, 2080.628
1019.757, 2068.622
1020.239, 2072.257
1020.721, 2092.849
1021.203, 2098.369
1021.685, 2075.100
1022.167, 2051.517
1022.649, 2072.244
1023.132, 2108.253
1023.614, 2117.741
1024.096, 2076.641
1024.578, 2042.402
1025.060, 2014.428
1025.542, 2001.079
1026.024, 2016.223
1026.506, 2054.033
1026.989, 2078.257
1027.471, 2088.185
1027.953, 2087.742
1028.435, 2063.020
1028.917, 2043.580
1029.399, 2058.656
1029.881, 2099.074
1030.363, 2107.764
1030.845, 2072.859
1031.328, 2052.677
1031.810, 2068.982
1032.292, 2097.206
1032.774, 2095.948
1033.256, 2077.192
1033.738, 2064.899
1034.220, 2068.189
1034.702, 2075.310
1035.184, 2088.851
1035.667, 2100.098
1036.149, 2099.633
1036.631, 2087.374
1037.113, 2084.473
1037.595, 2091.795
1038.077, 2098.643
1038.559, 2097.241
1039.041, 2091.321
1039.524, 2080.009
1040.006, 2064.876
1040.488, 2063.209
1040.970, 2084.960
1041.452, 2096.324
1041.934, 2081.776
1042.416, 2057.659
1042.898, 2059.965
1043.380, 2079.808
1043.863, 2092.587
1044.345, 2085.575
1044.827, 2078.637
1045.309, 2082.988
1045.791, 2088.374
1046.273, 2083.414
1046.755, 2066.191
1047.237, 2059.635
1047.719, 2065.071
1048.202, 2073.337
1048.684, 2077.080
1049.166, 2079.698
1049.648, 2086.375
1050.130, 2096.664
1050.612, 2100.233
1051.094, 2095.391
1051.576, 2084.386
1052.059, 2061.971
1052.541, 2040.099
1053.023, 2057.068
1053.505, 2098.983
1053.987, 2119.838
1054.469, 2092.237
1054.951, 2066.049
1055.433, 2066.975
1055.916, 2079.164
1056.398, 2087.497
1056.880, 2091.823
1057.362, 2092.403
1057.844, 2088.942
1058.326, 2084.997
1058.808, 2080.643
1059.290, 2079.236
1059.772, 2089.229
1060.255, 2108.483
1060.737, 2114.393
1061.219, 2093.439
1061.701, 2078.346
1062.183, 2079.006
1062.665, 2087.483
1063.147, 2085.674
1063.629, 2046.775
1064.111, 2073.240
1064.594, 2088.275
1065.076, 2092.492
1065.558, 2053.497
1066.040, 2070.302
1066.522, 2064.745
1067.004, 2058.271
1067.486, 2082.930
1067.968, 2050.219
1068.450, 2074.385
1068.933, 2075.847
1069.415, 2087.699
1069.897, 2090.526
1070.379, 2090.748
1070.861, 2089.729
1071.343, 2087.240
1071.825, 2086.387
1072.307, 2087.787
1072.790, 2090.989
1073.272, 2095.915
1073.754, 2101.935
1074.236, 2107.749
1074.718, 2113.829
1075.200, 2116.474
1075.682, 2110.464
1076.164, 2103.346
1076.646, 2100.381
1077.129, 2101.490
1077.611, 2099.741
1078.093, 2095.091
1078.575, 2091.920
1079.057, 2093.972
1079.539, 2097.743
1080.021, 2101.591
1080.503, 2104.697
1080.985, 2104.746
1081.468, 2100.898
1081.950, 2095.839
1082.432, 2089.328
1082.914, 2083.254
1083.396, 2080.302
1083.878, 2079.446
1084.360, 2077.692
1084.842, 2074.287
1085.325, 2075.647
1085.807, 2094.156
1086.289, 2106.893
1086.771, 2101.895
1087.253, 2083.446
1087.735, 2070.032
1088.217, 2062.075
1088.699, 2063.845
1089.182, 2085.372
1089.664, 2105.480
1090.146, 2108.581
1090.628, 2101.724
1091.110, 2094.696
1091.592, 2087.255
1092.074, 2081.050
1092.556, 2075.338
1093.038, 2075.341
1093.521, 2094.100
1094.003, 2116.375
1094.485, 2119.095
1094.967, 2103.261
1095.449, 2093.023
1095.931, 2097.544
1096.413, 2102.150
1096.895, 2103.884
1097.377, 2103.046
1097.860, 2096.938
1098.342, 2088.682
1098.824, 2089.166
1099.306, 2103.588
1099.788, 2119.450
1100.270, 2136.599
1100.752, 2147.694
1101.234, 2145.019
1101.717, 2128.033
1102.199, 2125.924
1102.681, 2138.408
1103.163, 2146.502
1103.645, 2133.052
1104.127, 2114.802
1104.609, 2101.404
1105.091, 2094.495
1105.573, 2099.086
1106.056, 2122.532
1106.538, 2133.042
1107.020, 2123.815
1107.502, 2111.271
1107.984, 2120.122
1108.466, 2136.347
1108.948, 2133.763
1109.430, 2107.929
1109.912, 2096.555
1110.395, 2120.518
1110.877, 2142.493
1111.359, 2149.659
1111.841, 2145.240
1112.323, 2133.923
1112.805, 2118.927
1113.287, 2112.347
1113.769, 2123.533
1114.252, 2134.824
1114.734, 2140.840
1115.216, 2141.538
1115.698, 2135.398
1116.180, 2121.528
1116.662, 2113.624
1117.144, 2111.868
1117.626, 2115.215
1118.109, 2126.610
1118.591, 2139.582
1119.073, 2152.419
1119.555, 2162.305
1120.037, 2159.864
1120.519, 2140.040
1121.001, 2125.976
1121.483, 2121.369
1121.965, 2124.382
1122.448, 2140.935
1122.930, 2159.862
1123.412, 2163.073
1123.894, 2145.755
1124.376, 2131.045
1124.858, 2120.311
1125.340, 2115.662
1125.822, 2120.569
1126.304, 2130.342
1126.787, 2128.754
1127.269, 2120.712
1127.751, 2121.270
1128.233, 2144.786
1128.715, 2164.201
1129.197, 2170.035
1129.679, 2169.872
1130.161, 2169.235
1130.644, 2168.110
1131.126, 2166.497
1131.608, 2164.333
1132.090, 2160.286
1132.572, 2147.143
1133.054, 2138.043
1133.536, 2146.402
1134.018, 2164.338
1134.500, 2168.281
1134.983, 2155.504
1135.465, 2156.347
1135.947, 2179.029
1136.429, 2202.196
1136.911, 2203.043
1137.393, 2193.021
1137.875, 2181.418
1138.357, 2168.701
1138.839, 2167.744
1139.322, 2184.597
1139.804, 2191.735
1140.286, 2171.682
1140.768, 2142.673
1141.250, 2137.011
1141.732, 2145.434
1142.214, 2150.151
1142.696, 2143.867
1143.179, 2136.951
1143.661, 2128.745
1144.143, 2122.831
1144.625, 2123.102
1145.107, 2127.812
1145.589, 2130.188
1146.071, 2131.073
1146.553, 2136.195
1147.036, 2155.915
1147.518, 2170.418
1148.000, 2172.631
1148.482, 2168.255
1148.964, 2165.529
1149.446, 2164.459
1149.928, 2164.811
1150.410, 2166.405
1150.892, 2171.830
1151.375, 2190.282
1151.857, 2206.132
1152.339, 2208.575
1152.821, 2199.753
1153.303, 2186.968
1153.785, 2170.383
1154.267, 2163.588
1154.749, 2175.315
1155.231, 2188.435
1155.714, 2185.490
1156.196, 2176.648
1156.678, 2173.746
1157.160, 2177.832
1157.642, 2185.718
1158.124, 2198.567
1158.606, 2206.212
1159.088, 2192.527
1159.571, 2177.743
1160.053, 2193.531
1160.535, 2225.661
1161.017, 2238.042
1161.499, 2215.705
1161.981, 2196.801
1162.463, 2184.260
1162.945, 2174.301
1163.427, 2164.497
1163.910, 2154.159
1164.392, 2139.464
1164.874, 2121.449
1165.356, 2112.845
1165.838, 2118.881
1166.320, 2132.291
1166.802, 2155.597
1167.284, 2179.150
1167.766, 2183.338
1168.249, 2175.486
1168.731, 2174.219
1169.213, 2185.647
1169.695, 2188.215
1170.177, 2162.225
1170.659, 2140.927
1171.141, 2138.989
1171.623, 2152.538
1172.106, 2174.491
1172.588, 2200.967
1173.070, 2217.622
1173.552, 2215.946
1174.034, 2208.378
1174.516, 2195.080
1174.998, 2181.687
1175.480, 2169.743
1175.963, 2159.878
1176.445, 2172.287
1176.927, 2204.004
1177.409, 2224.251
1177.891, 2199.318
1178.373, 2174.235
1178.855, 2173.947
1179.337, 2186.723
1179.819, 2197.122
1180.302, 2205.190
1180.784, 2205.736
1181.266, 2197.899
1181.748, 2189.446
1182.230, 2184.464
1182.712, 2182.840
1183.194, 2187.332
1183.676, 2195.384
1184.158, 2196.793
1184.641, 2191.065
1185.123, 2182.711
1185.605, 2170.105
1186.087, 2166.276
1186.569, 2197.662
1187.051, 2234.898
1187.533, 2244.907
1188.015, 2224.046
1188.498, 2212.803
1188.980, 2211.951
1189.462, 2215.614
1189.944, 2223.372
1190.426, 2231.103
1190.908, 2234.655
1191.390, 2234.692
1191.872, 2232.172
1192.354, 2227.894
1192.837, 2217.207
1193.319, 2197.527
1193.801, 2184.070
1194.283, 2193.694
1194.765, 2211.089
1195.247, 2216.331
1195.729, 2212.634
1196.211, 2208.282
1196.693, 2204.319
1197.176, 2200.151
1197.658, 2195.000
1198.140, 2192.122
1198.622, 2195.767
1199.104, 2203.147
1199.586, 2212.388
1200.068, 2222.290
1200.550, 2225.868
1201.033, 2217.658
1201.515, 2212.466
1201.997, 2213.501
1202.479, 2216.979
1202.961, 2218.010
1203.443, 2217.560
1203.925, 2216.433
1204.407, 2214.582
1204.890, 2216.369
1205.372, 2223.954
1205.854, 2232.519
1206.336, 2242.311
1206.818, 2249.675
1207.300, 2243.137
1207.782, 2229.586
1208.264, 2223.263
1208.746, 2229.474
1209.229, 2235.598
1209.711, 2238.622
1210.193, 2243.552
1210.675, 2256.430
1211.157, 2270.769
1211.639, 2266.013
1212.121, 2249.693
1212.603, 2241.929
1213.085, 2263.655
1213.568, 2268.908
1214.050, 2242.988
1214.532, 2217.509
1215.014, 2221.289
1215.496, 2244.191
1215.978, 2260.484
1216.460, 2268.854
1216.942, 2265.850
1217.425, 2230.446
1217.907, 2212.511
1218.389, 2226.446
1218.871, 2248.426
1219.353, 2248.089
1219.835, 2234.316
1220.317, 2234.206
1220.799, 2247.696
1221.281, 2256.470
1221.764, 2247.433
1222.246, 2240.317
1222.728, 2240.783
1223.210, 2243.683
1223.692, 2241.083
1224.174, 2234.055
1224.656, 2221.798
1225.138, 2203.693
1225.620, 2198.604
1226.103, 2231.913
1226.585, 2256.036
1227.067, 2253.715
1227.549, 2237.436
1228.031, 2234.792
1228.513, 2241.146
1228.995, 2243.733
1229.477, 2238.716
1229.960, 2234.803
1230.442, 2234.369
1230.924, 2236.099
1231.406, 2240.241
1231.888, 2245.655
1232.370, 2249.665
1232.852, 2252.132
1233.334, 2252.455
1233.816, 2248.918
1234.299, 2246.563
1234.781, 2244.060
1235.263, 2246.584
1235.745, 2262.812
1236.227, 2284.794
1236.709, 2284.166
1237.191, 2267.118
1237.673, 2253.559
1238.156, 2247.629
1238.638, 2252.518
1239.120, 2273.335
1239.602, 2294.963
1240.084, 2302.980
1240.566, 2301.284
1241.048, 2298.563
1241.530, 2295.387
1242.012, 2292.946
1242.495, 2291.285
1242.977, 2291.516
1243.459, 2294.815
1243.941, 2297.955
1244.423, 2299.208
1244.905, 2296.874
1245.387, 2282.433
1245.869, 2258.218
1246.351, 2244.422
1246.834, 2257.564
1247.316, 2266.655
1247.798, 2265.156
1248.280, 2261.233
1248.762, 2267.498
1249.244, 2278.862
1249.726, 2285.009
1250.208, 2285.056
1250.691, 2288.766
1251.173, 2301.216
1251.655, 2310.275
1252.137, 2312.434
1252.619, 2311.044
1253.101, 2309.505
1253.583, 2308.852
1254.065, 2311.105
1254.547, 2316.871
1255.030, 2322.912
1255.512, 2329.982
1255.994, 2334.610
1256.476, 2336.053
1256.958, 2333.559
1257.440, 2320.536
1257.922, 2305.255
1258.404, 2301.645
1258.886, 2316.945
1259.369, 2320.361
1259.851, 2308.289
1260.333, 2297.557
1260.815, 2296.041
1261.297, 2299.482
1261.779, 2304.421
1262.261, 2309.558
1262.743, 2312.971
1263.226, 2314.474
1263.708, 2313.176
1264.190, 2308.248
##END=



