##NAMES=Smithsonite
##RRUFFID=R040051
##IDEAL CHEMISTRY=Zn^2+^CO_3_
##LOCALITY=Berg Aukas mine, Grootfontein, Namibia
##OWNER=RRUFF
##SOURCE=University of Arizona Mineral Museum
##DESCRIPTION=Yellowish brown botryoidal groups
##STATUS=The identification of this mineral has been confirmed by X-ray diffraction and chemical analysis
##URL=rruff.info/R040051
##MEASURED CHEMISTRY=(Zn_0.94_Ca_0.02_Mg_0.02_)C_1.01_O_3_
113.3322, 76.27535
113.8143, 84.57298
114.2964, 95.12563
114.7785, 103.0767
115.2606, 108.0592
115.7427, 111.7111
116.2249, 114.9610
116.7070, 117.2309
117.1891, 117.7023
117.6712, 115.8999
118.1533, 112.3112
118.6354, 107.7238
119.1175, 100.8577
119.5997, 95.44054
120.0818, 92.73751
120.5639, 91.94420
121.0460, 91.73588
121.5281, 90.81231
122.0102, 90.01068
122.4924, 94.14442
122.9745, 107.5560
123.4566, 121.0875
123.9387, 132.3812
124.4208, 141.9149
124.9029, 150.6048
125.3851, 158.6918
125.8672, 166.2159
126.3493, 176.3271
126.8314, 191.2172
127.3135, 206.8870
127.7956, 220.4574
128.2778, 233.6160
128.7599, 250.9895
129.2420, 277.3293
129.7241, 314.1482
130.2062, 348.5604
130.6884, 386.6129
131.1705, 417.5858
131.6526, 437.4091
132.1347, 445.6656
132.6168, 443.5194
133.0989, 431.5484
133.5811, 407.4326
134.0632, 380.2047
134.5453, 344.1679
135.0274, 309.8812
135.5095, 283.1399
135.9916, 264.8273
136.4738, 252.5842
136.9559, 243.9581
137.4380, 240.5799
137.9201, 237.3356
138.4022, 233.5700
138.8843, 230.3064
139.3665, 228.0826
139.8486, 227.0893
140.3307, 227.5301
140.8128, 229.4501
141.2949, 231.3075
141.7770, 239.0392
142.2592, 256.7103
142.7413, 278.5084
143.2234, 298.5783
143.7055, 315.1418
144.1876, 330.4604
144.6697, 348.5741
145.1519, 370.6884
145.6340, 392.4500
146.1161, 413.8484
146.5982, 434.4287
147.0803, 454.8637
147.5624, 476.2028
148.0446, 494.4903
148.5267, 500.7018
149.0088, 493.3834
149.4909, 482.3006
149.9730, 468.2003
150.4551, 452.0583
150.9372, 434.7982
151.4194, 415.4900
151.9015, 397.5928
152.3836, 388.8816
152.8657, 392.0715
153.3478, 394.4524
153.8299, 389.7065
154.3121, 380.2887
154.7942, 372.4909
155.2763, 368.5913
155.7584, 367.6854
156.2405, 368.3966
156.7226, 372.1121
157.2048, 373.8560
157.6869, 368.0227
158.1690, 357.0867
158.6511, 351.6180
159.1332, 357.7017
159.6153, 369.8860
160.0975, 377.8027
160.5796, 380.0246
161.0617, 381.6598
161.5438, 386.7413
162.0259, 394.6270
162.5080, 400.6748
162.9902, 402.0987
163.4723, 401.3170
163.9544, 402.3702
164.4365, 406.0224
164.9186, 409.9893
165.4007, 411.1448
165.8829, 409.8081
166.3650, 412.4036
166.8471, 424.9161
167.3292, 440.5726
167.8113, 450.2965
168.2934, 451.5911
168.7756, 451.0716
169.2577, 455.0650
169.7398, 463.6696
170.2219, 471.0839
170.7040, 473.6519
171.1861, 474.7183
171.6683, 478.1556
172.1504, 485.0242
172.6325, 492.9177
173.1146, 499.8584
173.5967, 505.8921
174.0788, 510.4989
174.5610, 511.8069
175.0431, 512.4471
175.5252, 514.5989
176.0073, 518.2991
176.4894, 524.6143
176.9715, 536.1134
177.4537, 553.6667
177.9358, 569.6469
178.4179, 577.6156
178.9000, 584.4553
179.3821, 596.3458
179.8642, 615.0431
180.3464, 637.6262
180.8285, 661.2359
181.3106, 686.0205
181.7927, 710.8345
182.2748, 732.1891
182.7569, 755.1268
183.2391, 782.9515
183.7212, 815.6972
184.2033, 856.0562
184.6854, 909.3861
185.1675, 977.7895
185.6496, 1047.546
186.1318, 1111.815
186.6139, 1176.621
187.0960, 1246.188
187.5781, 1321.223
188.0602, 1403.090
188.5423, 1496.824
189.0245, 1604.287
189.5066, 1711.882
189.9887, 1804.588
190.4708, 1901.192
190.9529, 2020.674
191.4350, 2168.883
191.9172, 2326.596
192.3993, 2474.780
192.8814, 2614.861
193.3635, 2736.364
193.8456, 2843.417
194.3277, 2926.505
194.8099, 2977.244
195.2920, 2993.765
195.7741, 2977.378
196.2562, 2930.908
196.7383, 2855.421
197.2204, 2742.965
197.7026, 2562.583
198.1847, 2359.574
198.6668, 2155.149
199.1489, 1952.259
199.6310, 1760.990
200.1131, 1591.337
200.5953, 1445.184
201.0774, 1313.231
201.5595, 1196.962
202.0416, 1093.837
202.5237, 1006.965
203.0058, 936.3015
203.4880, 875.4447
203.9701, 817.8947
204.4522, 763.3278
204.9343, 713.3292
205.4164, 668.1443
205.8985, 628.4379
206.3807, 596.0572
206.8628, 570.9279
207.3449, 549.6280
207.8270, 528.6643
208.3091, 507.8441
208.7912, 489.5806
209.2734, 475.8783
209.7555, 463.7770
210.2376, 451.8726
210.7197, 439.9852
211.2018, 428.4617
211.6839, 417.1492
212.1661, 405.9707
212.6482, 397.2936
213.1303, 393.3155
213.6124, 390.4894
214.0945, 387.3554
214.5766, 383.6766
215.0588, 378.8688
215.5409, 371.7467
216.0230, 362.4406
216.5051, 354.4977
216.9872, 348.5417
217.4693, 343.8932
217.9515, 340.6617
218.4336, 338.5144
218.9157, 335.9978
219.3978, 331.2946
219.8799, 324.8249
220.3620, 320.5054
220.8442, 319.7086
221.3263, 319.7306
221.8084, 318.8336
222.2905, 317.2913
222.7726, 316.1065
223.2547, 315.9258
223.7369, 316.6285
224.2190, 317.8764
224.7011, 320.7671
225.1832, 322.3489
225.6653, 320.5739
226.1474, 316.3640
226.6296, 311.8445
227.1117, 307.7199
227.5938, 304.1421
228.0759, 301.6858
228.5580, 300.8315
229.0401, 300.1365
229.5223, 298.3672
230.0044, 296.1979
230.4865, 294.9771
230.9686, 296.2552
231.4507, 298.3528
231.9328, 297.3478
232.4150, 291.8349
232.8971, 287.5524
233.3792, 289.3062
233.8613, 293.8916
234.3434, 297.0475
234.8255, 297.0103
235.3077, 295.3903
235.7898, 294.8171
236.2719, 295.7346
236.7540, 294.8625
237.2361, 287.9563
237.7182, 279.1626
238.2004, 273.9626
238.6825, 274.2034
239.1646, 277.0285
239.6467, 279.9794
240.1288, 283.0685
240.6109, 286.3742
241.0931, 290.7130
241.5752, 294.7916
242.0573, 296.8425
242.5394, 296.3830
243.0215, 294.8161
243.5036, 292.5444
243.9858, 289.7744
244.4679, 288.0029
244.9500, 287.9312
245.4321, 288.9909
245.9142, 290.3396
246.3963, 292.1300
246.8785, 293.5719
247.3606, 294.5863
247.8427, 294.9590
248.3248, 293.6964
248.8069, 289.7859
249.2890, 285.4410
249.7712, 284.0012
250.2533, 285.6150
250.7354, 286.9627
251.2175, 285.9743
251.6996, 284.1339
252.1817, 284.6213
252.6639, 288.6017
253.1460, 292.7090
253.6281, 292.3192
254.1102, 287.4255
254.5923, 283.6441
255.0744, 281.3191
255.5566, 280.9298
256.0387, 283.8398
256.5208, 290.2308
257.0029, 297.2348
257.4850, 302.7664
257.9671, 306.6243
258.4492, 307.8776
258.9314, 304.2818
259.4135, 299.6912
259.8956, 296.1658
260.3777, 294.0337
260.8598, 294.1597
261.3419, 297.8066
261.8241, 304.6556
262.3062, 309.1311
262.7883, 310.4730
263.2704, 310.4814
263.7525, 308.6666
264.2346, 306.0183
264.7168, 305.2021
265.1989, 307.9636
265.6810, 313.5235
266.1631, 317.8490
266.6452, 321.7056
267.1273, 323.7124
267.6095, 321.3478
268.0916, 317.4158
268.5737, 316.2697
269.0558, 319.8272
269.5379, 326.6213
270.0201, 332.9980
270.5022, 341.6457
270.9843, 346.3061
271.4664, 342.2931
271.9485, 336.5963
272.4306, 336.8308
272.9128, 344.8242
273.3949, 355.6279
273.8770, 361.3190
274.3591, 357.8387
274.8412, 358.2269
275.3233, 365.1107
275.8055, 373.2589
276.2876, 379.5381
276.7697, 383.6005
277.2518, 386.6410
277.7339, 389.6294
278.2160, 392.1996
278.6982, 396.9691
279.1803, 406.4392
279.6624, 415.6873
280.1445, 422.3764
280.6266, 427.2646
281.1087, 432.6989
281.5909, 440.6204
282.0730, 450.7258
282.5551, 459.4512
283.0372, 463.9798
283.5193, 470.9041
284.0014, 482.4476
284.4836, 497.1909
284.9657, 512.9136
285.4478, 528.2125
285.9299, 544.3107
286.4120, 564.6199
286.8941, 591.7540
287.3763, 616.8906
287.8584, 633.4669
288.3405, 649.1274
288.8226, 671.0610
289.3047, 701.5084
289.7868, 736.5554
290.2690, 771.3411
290.7511, 805.5189
291.2332, 842.3547
291.7153, 883.1166
292.1974, 926.5433
292.6795, 969.9727
293.1617, 1013.262
293.6438, 1062.719
294.1259, 1125.774
294.6080, 1199.669
295.0901, 1271.339
295.5722, 1337.101
296.0544, 1403.432
296.5365, 1476.849
297.0186, 1556.311
297.5007, 1637.402
297.9828, 1722.817
298.4649, 1807.625
298.9471, 1881.940
299.4292, 1944.275
299.9113, 2006.461
300.3934, 2079.320
300.8755, 2159.533
301.3576, 2233.629
301.8398, 2307.812
302.3219, 2368.989
302.8040, 2405.059
303.2861, 2418.097
303.7682, 2419.835
304.2503, 2415.714
304.7325, 2404.651
305.2146, 2384.013
305.6967, 2358.785
306.1788, 2319.286
306.6609, 2261.587
307.1430, 2187.587
307.6252, 2097.308
308.1073, 1990.308
308.5894, 1874.255
309.0715, 1762.944
309.5536, 1652.123
310.0357, 1553.994
310.5179, 1478.280
311.0000, 1409.068
311.4821, 1330.799
311.9642, 1242.290
312.4463, 1155.410
312.9284, 1083.543
313.4106, 1029.176
313.8927, 976.2761
314.3748, 923.1117
314.8569, 872.4372
315.3390, 825.6943
315.8211, 782.4743
316.3033, 741.7513
316.7854, 702.4501
317.2675, 665.0692
317.7496, 632.4998
318.2317, 608.2414
318.7138, 584.7783
319.1960, 559.5037
319.6781, 534.7781
320.1602, 513.4845
320.6423, 496.8003
321.1244, 483.3914
321.6065, 471.3775
322.0887, 461.3152
322.5708, 450.8757
323.0529, 437.3126
323.5350, 424.8515
324.0171, 417.9429
324.4992, 416.5467
324.9814, 414.0948
325.4635, 401.8133
325.9456, 381.0811
326.4277, 369.8161
326.9098, 375.2857
327.3919, 382.2744
327.8741, 380.2379
328.3562, 371.2041
328.8383, 361.2967
329.3204, 351.7313
329.8025, 343.4033
330.2846, 338.2614
330.7668, 336.6507
331.2489, 335.7713
331.7310, 335.1783
332.2131, 333.8348
332.6952, 329.2231
333.1773, 317.8023
333.6595, 307.4880
334.1416, 304.7011
334.6237, 307.3716
335.1058, 308.7687
335.5879, 306.1236
336.0700, 301.5159
336.5522, 299.2968
337.0343, 300.9166
337.5164, 300.6245
337.9985, 295.2810
338.4806, 288.6666
338.9627, 284.8783
339.4449, 284.6025
339.9270, 285.7274
340.4091, 286.0097
340.8912, 285.1366
341.3733, 285.3842
341.8554, 288.0237
342.3376, 290.3649
342.8197, 290.9846
343.3018, 290.2957
343.7839, 289.3647
344.2660, 288.7951
344.7481, 288.6464
345.2303, 289.3719
345.7124, 293.5832
346.1945, 294.8667
346.6766, 289.5333
347.1587, 282.5009
347.6408, 278.8959
348.1230, 280.2325
348.6051, 283.7078
349.0872, 285.7247
349.5693, 286.2897
350.0514, 285.3427
350.5335, 280.4422
351.0157, 276.0919
351.4978, 275.5735
351.9799, 278.1834
352.4620, 280.1444
352.9441, 277.7568
353.4262, 272.6135
353.9084, 270.9500
354.3905, 274.5015
354.8726, 276.9958
355.3547, 272.2464
355.8368, 264.1836
356.3189, 259.2119
356.8011, 259.9564
357.2832, 262.5966
357.7653, 264.7012
358.2474, 266.0932
358.7295, 265.3353
359.2116, 260.9831
359.6938, 255.3577
360.1759, 253.1967
360.6580, 255.5491
361.1401, 256.9805
361.6222, 255.2064
362.1043, 252.1712
362.5865, 249.7398
363.0686, 248.3280
363.5507, 248.6428
364.0328, 252.0466
364.5149, 259.3896
364.9970, 261.9765
365.4792, 256.2127
365.9613, 250.0370
366.4434, 246.2062
366.9255, 244.6777
367.4076, 244.9675
367.8897, 246.8870
368.3719, 250.0184
368.8540, 253.1070
369.3361, 257.0932
369.8182, 259.3578
370.3003, 259.1443
370.7824, 257.6256
371.2646, 255.2182
371.7467, 252.2251
372.2288, 249.6889
372.7109, 249.2726
373.1930, 251.1493
373.6751, 251.4995
374.1573, 248.8779
374.6394, 246.2355
375.1215, 245.0733
375.6036, 245.0965
376.0857, 245.5402
376.5678, 246.2853
377.0500, 247.0917
377.5321, 247.4153
378.0142, 247.1900
378.4963, 247.2338
378.9784, 247.5729
379.4605, 248.6797
379.9427, 251.6198
380.4248, 257.8293
380.9069, 262.2602
381.3890, 262.2014
381.8711, 258.8051
382.3532, 252.9322
382.8354, 244.3731
383.3175, 237.7887
383.7996, 239.5460
384.2817, 252.3876
384.7638, 258.9778
385.2459, 254.9288
385.7281, 248.7277
386.2102, 244.1746
386.6923, 241.5489
387.1744, 240.6101
387.6565, 241.3779
388.1386, 243.2913
388.6208, 243.9890
389.1029, 242.4423
389.5850, 241.0543
390.0671, 238.5370
390.5492, 237.1464
391.0313, 240.4831
391.5135, 248.6159
391.9956, 255.9909
392.4777, 254.7172
392.9598, 243.8111
393.4419, 237.4804
393.9240, 239.1740
394.4062, 241.8497
394.8883, 241.9056
395.3704, 240.1856
395.8525, 238.6712
396.3346, 237.8802
396.8167, 238.0694
397.2989, 240.3397
397.7810, 244.7947
398.2631, 248.0277
398.7452, 248.4870
399.2273, 247.0296
399.7094, 245.1936
400.1916, 242.8782
400.6737, 240.5740
401.1558, 237.9227
401.6379, 235.5901
402.1200, 234.7830
402.6021, 235.6749
403.0843, 237.0476
403.5664, 237.6326
404.0485, 237.3185
404.5306, 238.2952
405.0127, 242.3524
405.4948, 245.6301
405.9770, 247.4340
406.4591, 247.2617
406.9412, 243.4244
407.4233, 235.0648
407.9054, 225.3567
408.3875, 221.7753
408.8697, 227.3225
409.3518, 232.4722
409.8339, 237.3588
410.3160, 241.1448
410.7981, 242.9483
411.2802, 242.9696
411.7624, 242.2961
412.2445, 241.3154
412.7266, 240.2920
413.2087, 240.6607
413.6908, 243.2195
414.1729, 245.1133
414.6551, 243.8978
415.1372, 241.4387
415.6193, 240.2180
416.1014, 241.1130
416.5835, 242.2804
417.0656, 242.4414
417.5478, 241.8263
418.0299, 241.0469
418.5120, 240.2109
418.9941, 239.4115
419.4762, 238.7029
419.9583, 238.0534
420.4405, 237.8426
420.9226, 238.1592
421.4047, 238.8537
421.8868, 240.2283
422.3689, 241.9348
422.8510, 243.0020
423.3332, 242.8019
423.8153, 241.8056
424.2974, 241.7169
424.7795, 244.4928
425.2616, 244.9447
425.7437, 240.0334
426.2259, 234.7738
426.7080, 233.7192
427.1901, 236.9489
427.6722, 240.2941
428.1543, 239.4145
428.6364, 234.8568
429.1186, 232.1631
429.6007, 232.1312
430.0828, 232.4670
430.5649, 231.7081
431.0470, 230.6600
431.5291, 230.5275
432.0113, 231.7246
432.4934, 233.6329
432.9755, 236.3546
433.4576, 239.4740
433.9397, 241.3277
434.4218, 241.2832
434.9040, 240.4595
435.3861, 240.1638
435.8682, 240.4575
436.3503, 240.9199
436.8324, 242.6620
437.3145, 243.5879
437.7967, 240.9172
438.2788, 236.1472
438.7609, 233.7831
439.2430, 236.5660
439.7251, 242.6215
440.2072, 246.1398
440.6894, 245.8310
441.1715, 245.0362
441.6536, 243.5402
442.1357, 242.0269
442.6178, 241.1041
443.0999, 240.7302
443.5821, 240.2957
444.0642, 239.2720
444.5463, 237.7504
445.0284, 235.5934
445.5105, 231.3517
445.9926, 230.2401
446.4748, 239.5349
446.9569, 251.9598
447.4390, 257.1413
447.9211, 251.2657
448.4032, 244.1426
448.8853, 241.5092
449.3675, 242.2469
449.8496, 244.8506
450.3317, 249.2944
450.8138, 252.1674
451.2959, 249.0508
451.7780, 239.0438
452.2602, 233.6145
452.7423, 236.3662
453.2244, 239.6354
453.7065, 240.6940
454.1886, 239.8971
454.6707, 237.9486
455.1529, 235.1512
455.6350, 232.0365
456.1171, 229.4946
456.5992, 227.4143
457.0813, 226.2450
457.5634, 226.4334
458.0455, 227.2059
458.5276, 228.7305
459.0098, 230.6036
459.4919, 231.7719
459.9740, 231.4048
460.4561, 230.2004
460.9382, 228.9402
461.4203, 227.5446
461.9025, 228.0333
462.3846, 232.7034
462.8667, 238.2422
463.3488, 238.7921
463.8309, 233.2898
464.3130, 228.8812
464.7952, 228.4475
465.2773, 229.5185
465.7594, 229.5444
466.2415, 228.4376
466.7236, 227.4084
467.2057, 227.2009
467.6879, 227.8908
468.1700, 230.0178
468.6521, 237.0435
469.1342, 240.9533
469.6163, 238.3194
470.0984, 234.0797
470.5806, 232.9927
471.0627, 235.5906
471.5448, 238.3697
472.0269, 237.5678
472.5090, 233.6365
472.9911, 230.7662
473.4733, 228.8864
473.9554, 228.1747
474.4375, 229.6441
474.9196, 232.0778
475.4017, 233.9142
475.8839, 234.9809
476.3660, 235.2744
476.8481, 234.2526
477.3302, 232.5520
477.8123, 231.8336
478.2944, 232.4933
478.7766, 232.7053
479.2587, 230.4120
479.7408, 225.4050
480.2229, 221.9119
480.7050, 217.8095
481.1871, 217.3353
481.6693, 225.7753
482.1514, 237.2749
482.6335, 243.5321
483.1156, 241.7545
483.5977, 236.3195
484.0798, 232.9426
484.5620, 231.7858
485.0441, 231.4978
485.5262, 232.6686
486.0083, 233.9206
486.4904, 235.3218
486.9725, 236.2009
487.4547, 234.9068
487.9368, 229.5452
488.4189, 224.0145
488.9010, 222.5188
489.3831, 224.2222
489.8652, 225.7830
490.3474, 226.2900
490.8295, 226.3536
491.3116, 226.9457
491.7937, 228.4399
492.2758, 227.8826
492.7579, 222.6443
493.2401, 218.0218
493.7222, 216.6205
494.2043, 217.7215
494.6864, 220.1645
495.1685, 223.4667
495.6506, 226.4270
496.1328, 226.2130
496.6149, 221.2665
497.0970, 219.5023
497.5791, 225.7013
498.0612, 230.8205
498.5433, 228.8768
499.0255, 222.1723
499.5076, 217.0463
499.9897, 216.7645
500.4718, 218.3941
500.9539, 218.4533
501.4360, 217.3097
501.9182, 217.3844
502.4003, 219.8123
502.8824, 222.7243
503.3645, 223.3884
503.8466, 221.0625
504.3287, 220.0849
504.8109, 221.8859
505.2930, 223.7876
505.7751, 224.3738
506.2572, 223.9209
506.7393, 223.0815
507.2214, 222.1529
507.7036, 221.3355
508.1857, 221.2496
508.6678, 222.3698
509.1499, 222.2774
509.6320, 219.0217
510.1141, 216.2922
510.5963, 216.6840
511.0784, 219.1799
511.5605, 220.8856
512.0426, 220.5506
512.5247, 219.0756
513.0068, 217.0240
513.4890, 214.5714
513.9711, 212.4741
514.4532, 210.8699
514.9353, 210.0334
515.4174, 210.3250
515.8995, 211.8600
516.3817, 214.3589
516.8638, 220.5697
517.3459, 224.9410
517.8280, 223.2962
518.3101, 218.1852
518.7922, 214.0428
519.2744, 212.7410
519.7565, 213.5175
520.2386, 215.9227
520.7207, 220.5654
521.2028, 222.2940
521.6849, 218.4712
522.1671, 214.5198
522.6492, 213.7057
523.1313, 215.0709
523.6134, 216.5089
524.0955, 218.3049
524.5776, 218.6907
525.0598, 214.2522
525.5419, 207.2686
526.0240, 204.6078
526.5061, 208.2458
526.9882, 213.7368
527.4703, 216.2430
527.9525, 215.4840
528.4346, 214.5565
528.9167, 212.1907
529.3988, 211.1405
529.8809, 214.1846
530.3630, 218.1992
530.8452, 218.4223
531.3273, 213.5993
531.8094, 208.2701
532.2915, 209.2837
532.7736, 215.9634
533.2557, 215.7984
533.7379, 204.5042
534.2200, 195.0652
534.7021, 197.2127
535.1842, 206.1109
535.6663, 212.3992
536.1484, 213.8720
536.6306, 215.3450
537.1127, 220.1727
537.5948, 225.8200
538.0769, 228.8540
538.5590, 228.7398
539.0411, 226.5675
539.5233, 223.0885
540.0054, 218.4216
540.4875, 213.2261
540.9696, 204.6384
541.4517, 200.0400
541.9338, 203.4884
542.4160, 208.9687
542.8981, 211.4358
543.3802, 210.4312
543.8623, 209.1266
544.3444, 210.2151
544.8265, 212.4921
545.3087, 213.2217
545.7908, 212.3445
546.2729, 211.0638
546.7550, 209.4856
547.2371, 208.2856
547.7192, 209.0514
548.2014, 212.4621
548.6835, 215.4548
549.1656, 219.1918
549.6477, 221.1076
550.1298, 217.4168
550.6119, 210.3624
551.0941, 206.2604
551.5762, 208.8533
552.0583, 214.3139
552.5404, 213.6582
553.0225, 205.0238
553.5046, 200.1056
553.9868, 202.5282
554.4689, 206.5904
554.9510, 209.1153
555.4331, 210.1814
555.9152, 210.0014
556.3973, 207.3947
556.8795, 205.0032
557.3616, 205.0260
557.8437, 206.7571
558.3258, 208.7489
558.8079, 210.6234
559.2900, 212.3087
559.7722, 213.8513
560.2543, 215.3201
560.7364, 215.4901
561.2185, 213.0942
561.7006, 210.8172
562.1827, 209.4884
562.6649, 208.3732
563.1470, 206.2265
563.6291, 202.8999
564.1112, 200.4442
564.5933, 202.0592
565.0754, 205.8116
565.5576, 205.0662
566.0397, 199.0820
566.5218, 194.4373
567.0039, 195.1978
567.4860, 199.0415
567.9681, 200.0105
568.4503, 196.2893
568.9324, 194.5990
569.4145, 198.7344
569.8966, 202.8046
570.3787, 201.0984
570.8608, 195.4336
571.3430, 191.8909
571.8251, 194.1601
572.3072, 199.6070
572.7893, 202.8372
573.2714, 203.5856
573.7535, 203.7256
574.2357, 202.6271
574.7178, 202.1365
575.1999, 204.6644
575.6820, 209.0055
576.1641, 211.2893
576.6462, 209.5349
577.1284, 206.7570
577.6105, 204.0171
578.0926, 201.6910
578.5747, 200.5693
579.0568, 200.7788
579.5389, 201.6745
580.0211, 202.7654
580.5032, 204.0086
580.9853, 204.2140
581.4674, 202.6492
581.9495, 201.1540
582.4316, 200.6806
582.9138, 200.0805
583.3959, 197.4185
583.8780, 192.7984
584.3601, 190.1796
584.8422, 193.6691
585.3243, 199.6835
585.8065, 203.3979
586.2886, 204.7406
586.7707, 203.7725
587.2528, 200.0187
587.7349, 195.6070
588.2170, 194.4240
588.6992, 197.9625
589.1813, 200.2881
589.6634, 200.2213
590.1455, 200.3112
590.6276, 202.6880
591.1097, 205.6187
591.5919, 205.8543
592.0740, 202.0821
592.5561, 197.7581
593.0382, 196.9437
593.5203, 198.9509
594.0024, 200.7489
594.4846, 202.1559
594.9667, 202.8664
595.4488, 202.6534
595.9309, 201.6102
596.4130, 199.9789
596.8951, 197.0027
597.3773, 194.8084
597.8594, 193.6806
598.3415, 193.4779
598.8236, 194.8148
599.3057, 197.0432
599.7878, 198.3381
600.2700, 197.5137
600.7521, 195.4281
601.2342, 193.2590
601.7163, 190.8531
602.1984, 191.1119
602.6805, 196.2827
603.1627, 201.3591
603.6448, 200.9404
604.1269, 196.5247
604.6090, 194.3678
605.0911, 197.5303
605.5732, 200.2258
606.0554, 199.7920
606.5375, 197.7048
607.0196, 195.0268
607.5017, 192.3963
607.9838, 191.4961
608.4659, 194.1373
608.9481, 199.4713
609.4302, 203.6730
609.9123, 207.2428
610.3944, 208.0069
610.8765, 203.1975
611.3586, 197.2446
611.8408, 193.7756
612.3229, 192.7477
612.8050, 193.3644
613.2871, 197.0224
613.7692, 200.7014
614.2513, 202.1582
614.7335, 202.0739
615.2156, 201.9667
615.6977, 202.2626
616.1798, 202.0709
616.6619, 199.9168
617.1440, 195.8404
617.6262, 195.1658
618.1083, 200.4833
618.5904, 204.5694
619.0725, 204.9885
619.5546, 203.2859
620.0367, 199.8517
620.5189, 194.7777
621.0010, 191.6216
621.4831, 193.2928
621.9652, 196.5913
622.4473, 199.2684
622.9294, 200.8020
623.4116, 199.5999
623.8937, 194.9789
624.3758, 189.1311
624.8579, 184.8670
625.3400, 181.9605
625.8221, 182.6619
626.3043, 190.9575
626.7864, 197.4138
627.2685, 197.8816
627.7506, 195.5755
628.2327, 193.9557
628.7148, 193.5969
629.1970, 194.2001
629.6791, 196.5894
630.1612, 199.2630
630.6433, 200.3535
631.1254, 199.8752
631.6075, 198.3617
632.0897, 195.9970
632.5718, 193.1682
633.0539, 190.7442
633.5360, 189.2664
634.0181, 185.9735
634.5002, 176.2301
634.9824, 170.2332
635.4645, 174.6272
635.9466, 183.5336
636.4287, 188.5045
636.9108, 187.2862
637.3929, 185.7022
637.8751, 188.8119
638.3572, 193.0865
638.8393, 192.4660
639.3214, 187.4515
639.8035, 183.4042
640.2856, 183.1778
640.7678, 184.9994
641.2499, 185.0907
641.7320, 182.2310
642.2141, 181.4439
642.6962, 185.9019
643.1783, 188.9323
643.6605, 186.4571
644.1426, 181.5973
644.6247, 179.4158
645.1068, 181.5013
645.5889, 183.5857
646.0710, 182.4135
646.5532, 179.8443
647.0353, 178.6165
647.5174, 178.7514
647.9995, 178.9701
648.4816, 178.6155
648.9637, 177.8265
649.4459, 176.8057
649.9280, 175.3087
650.4101, 174.3373
650.8922, 174.1926
651.3743, 174.2452
651.8564, 173.9141
652.3386, 173.7226
652.8207, 174.9077
653.3028, 178.2378
653.7849, 180.3008
654.2670, 177.0025
654.7491, 172.4932
655.2313, 173.2429
655.7134, 178.4850
656.1955, 182.2203
656.6776, 181.2615
657.1597, 177.7965
657.6418, 176.0585
658.1240, 176.4893
658.6061, 176.9001
659.0882, 177.1175
659.5703, 177.5553
660.0524, 179.0856
660.5345, 180.6750
661.0167, 180.3896
661.4988, 177.3812
661.9809, 175.3804
662.4630, 177.3422
662.9451, 180.3022
663.4272, 180.5946
663.9094, 178.8923
664.3915, 178.4835
664.8736, 180.9205
665.3557, 184.3485
665.8378, 185.6668
666.3199, 184.6723
666.8021, 183.0199
667.2842, 179.9758
667.7663, 177.6331
668.2484, 178.0886
668.7305, 179.3297
669.2126, 178.2568
669.6948, 174.0831
670.1769, 170.9309
670.6590, 170.7159
671.1411, 171.4795
671.6232, 172.0892
672.1053, 172.3472
672.5875, 172.0578
673.0696, 171.1546
673.5517, 169.9156
674.0338, 167.9512
674.5159, 165.4411
674.9980, 167.2303
675.4802, 175.2332
675.9623, 180.7533
676.4444, 179.0457
676.9265, 173.7144
677.4086, 170.1280
677.8907, 168.3115
678.3729, 167.4266
678.8550, 167.9575
679.3371, 168.7727
679.8192, 168.6246
680.3013, 168.6321
680.7834, 171.2798
681.2656, 176.8559
681.7477, 181.7563
682.2298, 181.5958
682.7119, 178.1352
683.1940, 177.6010
683.6761, 180.1663
684.1583, 181.1440
684.6404, 178.4594
685.1225, 174.5821
685.6046, 172.5629
686.0867, 172.6573
686.5688, 172.5703
687.0510, 171.5671
687.5331, 171.3117
688.0152, 172.9123
688.4973, 175.0244
688.9794, 176.1968
689.4615, 176.3564
689.9437, 176.5792
690.4258, 178.0017
690.9079, 179.4549
691.3900, 178.8585
691.8721, 176.7414
692.3542, 175.4696
692.8364, 175.6624
693.3185, 175.8909
693.8006, 174.4558
694.2827, 171.7712
694.7648, 172.3225
695.2469, 179.1273
695.7291, 183.9140
696.2112, 184.3625
696.6933, 183.6181
697.1754, 183.8700
697.6575, 184.7039
698.1396, 184.2116
698.6218, 180.7073
699.1039, 177.4434
699.5860, 176.8125
700.0681, 177.7869
700.5502, 178.9880
701.0323, 180.1676
701.5145, 181.6641
701.9966, 183.8664
702.4787, 185.8822
702.9608, 184.7810
703.4429, 179.6152
703.9250, 177.4430
704.4072, 179.9644
704.8893, 183.7533
705.3714, 187.9469
705.8535, 191.6410
706.3356, 192.4462
706.8177, 188.3153
707.2999, 186.2623
707.7820, 188.8829
708.2641, 193.3236
708.7462, 198.8531
709.2283, 204.2336
709.7104, 207.0463
710.1926, 206.3562
710.6747, 204.8332
711.1568, 206.0049
711.6389, 209.0042
712.1210, 209.4172
712.6031, 206.8506
713.0853, 207.6219
713.5674, 215.5695
714.0495, 225.8430
714.5316, 230.1822
715.0137, 226.3961
715.4958, 227.5232
715.9780, 237.6347
716.4601, 247.4978
716.9422, 254.8297
717.4243, 260.6214
717.9064, 264.5707
718.3885, 267.3223
718.8707, 273.8164
719.3528, 287.8795
719.8349, 305.9860
720.3170, 326.4686
720.7991, 347.8539
721.2813, 364.3265
721.7634, 375.3198
722.2455, 390.8128
722.7276, 419.8071
723.2097, 460.8241
723.6918, 507.5681
724.1740, 561.4031
724.6561, 615.9122
725.1382, 668.0207
725.6203, 722.7775
726.1024, 781.4448
726.5845, 845.4265
727.0667, 919.6209
727.5488, 1008.865
728.0309, 1101.393
728.5130, 1206.559
728.9951, 1303.682
729.4772, 1385.726
729.9594, 1443.456
730.4415, 1461.903
730.9236, 1433.651
731.4057, 1363.494
731.8878, 1241.548
732.3699, 1082.104
732.8521, 933.9415
733.3342, 799.6563
733.8163, 684.7331
734.2984, 591.8427
734.7805, 517.8781
735.2626, 458.2148
735.7448, 414.4291
736.2269, 377.9445
736.7090, 350.7847
737.1911, 328.7698
737.6732, 312.4830
738.1553, 299.5640
738.6375, 288.0818
739.1196, 277.7062
739.6017, 268.1415
740.0838, 259.9094
740.5659, 251.8020
741.0480, 241.3217
741.5302, 230.9641
742.0123, 226.2118
742.4944, 227.3198
742.9765, 228.3386
743.4586, 224.2391
743.9407, 217.0526
744.4229, 212.8808
744.9050, 211.9632
745.3871, 208.8410
745.8692, 202.0536
746.3513, 194.2720
746.8334, 186.2598
747.3156, 179.0637
747.7977, 177.1800
748.2798, 185.9810
748.7619, 191.0736
749.2440, 190.8730
749.7261, 188.0655
750.2083, 181.9655
750.6904, 174.9688
751.1725, 171.3165
751.6546, 172.4035
752.1367, 173.6751
752.6188, 171.6833
753.1010, 168.2438
753.5831, 165.0828
754.0652, 162.6211
754.5473, 162.4270
755.0294, 164.9479
755.5115, 167.0606
755.9937, 164.2700
756.4758, 157.5604
756.9579, 156.7528
757.4400, 163.7096
757.9221, 169.0350
758.4042, 170.4242
758.8864, 169.2136
759.3685, 165.4591
759.8506, 159.6195
760.3327, 156.6543
760.8148, 159.5220
761.2969, 161.2564
761.7791, 159.1277
762.2612, 156.6395
762.7433, 156.9459
763.2254, 159.1452
763.7075, 160.1620
764.1896, 158.5254
764.6718, 156.5411
765.1539, 156.3836
765.6360, 157.2433
766.1181, 157.8655
766.6002, 158.1181
767.0823, 158.0228
767.5645, 157.5961
768.0466, 156.7139
768.5287, 154.9128
769.0108, 152.1792
769.4929, 151.2474
769.9750, 153.0497
770.4572, 153.6720
770.9393, 150.6076
771.4214, 147.2125
771.9035, 147.7025
772.3856, 151.9455
772.8677, 155.2123
773.3499, 156.9603
773.8320, 158.1803
774.3141, 159.4497
774.7962, 160.0286
775.2783, 158.9622
775.7604, 156.6160
776.2426, 154.1145
776.7247, 151.7030
777.2068, 150.0831
777.6889, 149.9866
778.1710, 151.0657
778.6531, 153.1980
779.1353, 156.0254
779.6174, 158.1231
780.0995, 158.7995
780.5816, 158.4112
781.0637, 157.2024
781.5458, 155.1740
782.0280, 154.0576
782.5101, 153.8560
782.9922, 154.7267
783.4743, 157.5087
783.9564, 160.3351
784.4385, 160.5996
784.9207, 158.1762
785.4028, 157.4159
785.8849, 160.4248
786.3670, 162.2253
786.8491, 161.3371
787.3312, 159.3313
787.8134, 156.8331
788.2955, 154.3297
788.7776, 152.7906
789.2597, 152.8292
789.7418, 153.1827
790.2239, 152.3989
790.7061, 151.7028
791.1882, 153.3055
791.6703, 156.6314
792.1524, 159.2380
792.6345, 160.0682
793.1166, 160.0399
793.5988, 160.4165
794.0809, 161.0551
794.5630, 160.8472
795.0451, 159.7267
795.5272, 158.4256
796.0093, 157.1330
796.4915, 155.8634
796.9736, 154.7123
797.4557, 153.6489
797.9378, 151.9758
798.4199, 148.0313
798.9020, 146.1035
799.3842, 148.6187
799.8663, 151.2274
800.3484, 150.9192
800.8305, 148.7284
801.3126, 147.1898
801.7947, 146.6254
802.2769, 147.4203
802.7590, 150.6023
803.2411, 154.4673
803.7232, 159.1123
804.2053, 162.8698
804.6874, 161.4673
805.1696, 154.1698
805.6517, 147.9465
806.1338, 150.3521
806.6159, 157.6983
807.0980, 163.0487
807.5801, 166.3927
808.0623, 167.2591
808.5444, 165.5282
809.0265, 162.2780
809.5086, 158.0210
809.9907, 153.5335
810.4728, 152.0989
810.9550, 154.7746
811.4371, 156.3696
811.9192, 156.3372
812.4013, 155.3994
812.8834, 153.3711
813.3655, 150.9501
813.8477, 149.4256
814.3298, 148.6886
814.8119, 149.2233
815.2940, 151.9853
815.7761, 154.9578
816.2582, 158.6100
816.7404, 161.2495
817.2225, 160.2590
817.7046, 156.0045
818.1867, 152.4677
818.6688, 152.0331
819.1509, 152.4473
819.6331, 151.7752
820.1152, 150.8125
820.5973, 150.9602
821.0794, 152.1252
821.5615, 152.9452
822.0436, 152.6317
822.5258, 152.6739
823.0079, 156.9232
823.4900, 163.8349
823.9721, 163.4455
824.4542, 155.2837
824.9363, 149.8331
825.4185, 151.3942
825.9006, 155.8505
826.3827, 158.5848
826.8648, 159.6044
827.3469, 158.7952
827.8290, 154.1862
828.3111, 152.3369
828.7932, 157.8487
829.2753, 162.4321
829.7574, 157.2694
830.2396, 146.9454
830.7217, 144.0055
831.2038, 152.9306
831.6859, 160.3462
832.1680, 163.9138
832.6501, 165.3616
833.1323, 164.5642
833.6144, 162.8406
834.0965, 162.1600
834.5786, 162.8015
835.0607, 162.7794
835.5428, 159.2775
836.0250, 156.0952
836.5071, 158.1793
836.9892, 162.6765
837.4713, 163.8145
837.9534, 161.4290
838.4355, 160.3512
838.9177, 163.9322
839.3998, 168.4893
839.8819, 166.7990
840.3640, 160.3055
840.8461, 157.0593
841.3282, 157.5884
841.8104, 161.0638
842.2925, 167.9937
842.7746, 173.7249
843.2567, 171.2818
843.7388, 160.8225
844.2209, 153.8476
844.7031, 150.6960
845.1852, 150.3722
845.6673, 154.5006
846.1494, 159.0303
846.6315, 161.0831
847.1136, 160.9574
847.5958, 159.9118
848.0779, 156.3698
848.5600, 155.0379
849.0421, 158.5096
849.5242, 161.9038
850.0063, 163.0311
850.4885, 162.5043
850.9706, 160.8880
851.4527, 158.3972
851.9348, 156.5699
852.4169, 156.3240
852.8990, 156.7452
853.3812, 158.4375
853.8633, 159.7018
854.3454, 157.1586
854.8275, 151.7131
855.3096, 148.1494
855.7917, 149.1491
856.2739, 151.7395
856.7560, 152.2859
857.2381, 151.7104
857.7202, 152.3075
858.2023, 153.9824
858.6844, 155.2795
859.1666, 155.6809
859.6487, 156.3014
860.1308, 158.5917
860.6129, 162.0257
861.0950, 164.0152
861.5771, 164.5197
862.0593, 163.8788
862.5414, 161.6522
863.0235, 160.2984
863.5056, 162.0524
863.9877, 165.2282
864.4698, 165.1542
864.9520, 159.8439
865.4341, 158.0173
865.9162, 163.3802
866.3983, 166.7699
866.8804, 163.3330
867.3625, 157.7934
867.8447, 154.3242
868.3268, 152.9225
868.8089, 152.5568
869.2910, 154.3636
869.7731, 155.4694
870.2552, 154.9795
870.7374, 153.7702
871.2195, 151.8588
871.7016, 149.8854
872.1837, 149.2778
872.6658, 150.5754
873.1479, 151.0239
873.6301, 147.2956
874.1122, 143.7867
874.5943, 145.1099
875.0764, 148.9565
875.5585, 151.5959
876.0406, 152.3783
876.5228, 152.4412
877.0049, 152.5606
877.4870, 152.1474
877.9691, 149.5753
878.4512, 146.0886
878.9333, 144.5956
879.4155, 145.2923
879.8976, 148.2839
880.3797, 153.5942
880.8618, 158.1018
881.3439, 157.3202
881.8260, 152.6247
882.3082, 150.7304
882.7903, 151.6738
883.2724, 154.5884
883.7545, 159.9904
884.2366, 162.9170
884.7188, 159.1293
885.2009, 151.3871
885.6830, 146.8782
886.1651, 145.9285
886.6472, 147.3561
887.1293, 153.4763
887.6115, 156.8355
888.0936, 152.4549
888.5757, 146.6371
889.0578, 147.0172
889.5399, 153.3367
890.0220, 157.4672
890.5042, 157.8774
890.9863, 158.4685
891.4684, 160.2576
891.9505, 161.5948
892.4326, 161.6651
892.9147, 160.6146
893.3969, 158.5906
893.8790, 155.5202
894.3611, 152.4442
894.8432, 148.3837
895.3253, 145.9078
895.8074, 147.5256
896.2896, 150.5606
896.7717, 152.0543
897.2538, 152.1350
897.7359, 152.8943
898.2180, 155.6607
898.7001, 157.5730
899.1823, 156.2015
899.6644, 153.2204
900.1465, 148.9920
900.6286, 145.0390
901.1107, 145.1950
901.5928, 149.8056
902.0750, 153.5582
902.5571, 151.2529
903.0392, 147.4278
903.5213, 150.4392
904.0034, 156.9930
904.4855, 157.8120
904.9677, 152.8086
905.4498, 148.4582
905.9319, 147.9378
906.4140, 149.3240
906.8961, 150.6447
907.3782, 151.5856
907.8604, 149.4567
908.3425, 144.5786
908.8246, 144.2990
909.3067, 150.6280
909.7888, 157.1207
910.2709, 159.0294
910.7531, 157.3766
911.2352, 154.3777
911.7173, 149.7299
912.1994, 146.3163
912.6815, 144.0246
913.1636, 143.9597
913.6458, 147.3571
914.1279, 151.5057
914.6100, 153.6330
915.0921, 153.7600
915.5742, 151.6497
916.0563, 144.0508
916.5385, 141.9751
917.0206, 150.3504
917.5027, 158.6347
917.9848, 162.0247
918.4669, 161.5769
918.9490, 158.1567
919.4312, 150.9287
919.9133, 146.4219
920.3954, 145.9919
920.8775, 146.5691
921.3596, 148.0468
921.8417, 149.8646
922.3239, 152.9795
922.8060, 155.9192
923.2881, 154.4731
923.7702, 146.1829
924.2523, 140.1979
924.7344, 140.2224
925.2166, 141.4637
925.6987, 141.5240
926.1808, 141.4789
926.6629, 143.0386
927.1450, 145.9321
927.6271, 148.1896
928.1093, 149.4010
928.5914, 149.1617
929.0735, 145.2554
929.5556, 141.6017
930.0377, 142.0822
930.5198, 145.2704
931.0020, 148.6581
931.4841, 151.4996
931.9662, 153.4438
932.4483, 153.9998
932.9304, 153.9736
933.4125, 154.1546
933.8947, 154.2008
934.3768, 153.8169
934.8589, 152.8241
935.3410, 150.3851
935.8231, 146.2706
936.3052, 143.0469
936.7874, 144.6048
937.2695, 147.6454
937.7516, 146.0593
938.2337, 141.8235
938.7158, 139.6152
939.1979, 140.1479
939.6801, 142.9231
940.1622, 147.9009
940.6443, 151.8417
941.1264, 148.3997
941.6085, 140.6449
942.0906, 138.7755
942.5728, 141.9644
943.0549, 144.8325
943.5370, 145.9288
944.0191, 144.6678
944.5012, 140.1094
944.9833, 134.7422
945.4655, 134.5772
945.9476, 138.9707
946.4297, 141.7889
946.9118, 142.7261
947.3939, 144.5227
947.8760, 148.2785
948.3582, 151.6449
948.8403, 152.0526
949.3224, 150.4228
949.8045, 150.6937
950.2866, 153.0849
950.7687, 153.9891
951.2509, 152.9972
951.7330, 150.7245
952.2151, 146.9058
952.6972, 143.6711
953.1793, 143.9500
953.6614, 147.5287
954.1436, 151.8411
954.6257, 157.6174
955.1078, 161.0299
955.5899, 161.3789
956.0720, 159.5524
956.5541, 155.0373
957.0363, 150.0778
957.5184, 148.8091
958.0005, 151.6102
958.4826, 153.1181
958.9647, 152.8647
959.4468, 152.4741
959.9290, 152.5867
960.4111, 152.0124
960.8932, 149.3167
961.3753, 145.6936
961.8574, 143.8826
962.3395, 143.8292
962.8217, 146.0115
963.3038, 154.0516
963.7859, 158.3173
964.2680, 153.4002
964.7501, 147.2762
965.2322, 145.9996
965.7144, 148.6132
966.1965, 152.1022
966.6786, 158.2963
967.1607, 160.9889
967.6428, 158.1967
968.1249, 154.4988
968.6071, 148.8092
969.0892, 144.7059
969.5713, 147.1978
970.0534, 154.5060
970.5355, 157.5733
971.0176, 151.9998
971.4998, 149.6670
971.9819, 155.0179
972.4640, 159.7495
972.9461, 160.3151
973.4282, 158.6512
973.9103, 156.5329
974.3925, 154.1741
974.8746, 151.9318
975.3567, 148.4471
975.8388, 147.4271
976.3209, 152.3289
976.8030, 156.7127
977.2852, 156.9123
977.7673, 154.7932
978.2494, 152.9308
978.7315, 151.4686
979.2136, 148.9820
979.6957, 142.5671
980.1779, 138.7506
980.6600, 140.5290
981.1421, 144.0556
981.6242, 148.1674
982.1063, 151.7653
982.5884, 152.9443
983.0706, 151.6588
983.5527, 151.5419
984.0348, 155.8586
984.5169, 158.5194
984.9990, 155.3547
985.4811, 151.7800
985.9633, 152.2356
986.4454, 154.9388
986.9275, 156.7477
987.4096, 157.0729
987.8917, 156.1153
988.3738, 152.7742
988.8560, 149.6946
989.3381, 147.8094
989.8202, 146.7915
990.3023, 147.1790
990.7844, 147.9234
991.2665, 146.6941
991.7487, 143.0081
992.2308, 140.6148
992.7129, 140.5009
993.1950, 142.6682
993.6771, 150.2269
994.1592, 157.3830
994.6414, 157.8625
995.1235, 154.0260
995.6056, 151.3873
996.0877, 151.2159
996.5698, 152.7282
997.0519, 159.0926
997.5341, 162.7530
998.0162, 156.5107
998.4983, 148.2997
998.9804, 145.2696
999.4625, 146.7070
999.9446, 149.6559
1000.427, 153.5006
1000.909, 156.2535
1001.391, 156.2403
1001.873, 155.8623
1002.355, 156.1506
1002.837, 156.9881
1003.319, 158.5737
1003.802, 160.5049
1004.284, 161.9688
1004.766, 162.7496
1005.248, 163.0518
1005.730, 163.0362
1006.212, 162.4853
1006.694, 159.4186
1007.176, 157.2591
1007.659, 161.2415
1008.141, 168.6731
1008.623, 172.4249
1009.105, 170.4320
1009.587, 167.1470
1010.069, 162.2714
1010.551, 159.3272
1011.033, 162.2882
1011.515, 166.4794
1011.998, 166.3294
1012.480, 163.6591
1012.962, 164.2791
1013.444, 170.0197
1013.926, 174.8574
1014.408, 177.2777
1014.890, 177.0515
1015.372, 169.3900
1015.854, 162.9168
1016.337, 168.9833
1016.819, 182.3466
1017.301, 188.9431
1017.783, 185.0968
1018.265, 180.4359
1018.747, 176.9258
1019.229, 175.2885
1019.711, 176.6604
1020.194, 179.3445
1020.676, 183.2569
1021.158, 186.8896
1021.640, 186.5537
1022.122, 180.9863
1022.604, 177.7166
1023.086, 179.9911
1023.568, 183.8051
1024.051, 189.6115
1024.533, 194.4532
1025.015, 195.0890
1025.497, 193.2219
1025.979, 192.2430
1026.461, 192.5824
1026.943, 194.9318
1027.425, 202.1262
1027.907, 207.7623
1028.390, 207.9980
1028.872, 207.6711
1029.354, 211.0417
1029.836, 216.1497
1030.318, 218.3946
1030.800, 216.8700
1031.282, 217.8928
1031.764, 225.1827
1032.246, 231.3089
1032.729, 233.9587
1033.211, 235.4522
1033.693, 237.4235
1034.175, 239.1564
1034.657, 238.2633
1035.139, 234.1600
1035.621, 235.0038
1036.103, 245.5811
1036.586, 254.9644
1037.068, 262.6127
1037.550, 267.7704
1038.032, 267.5895
1038.514, 265.9779
1038.996, 269.3983
1039.478, 278.0705
1039.960, 284.3684
1040.443, 287.2105
1040.925, 289.4456
1041.407, 289.9807
1041.889, 291.7707
1042.371, 297.4351
1042.853, 303.8907
1043.335, 306.7240
1043.817, 306.2831
1044.299, 308.6567
1044.781, 315.9488
1045.264, 320.9994
1045.746, 322.5014
1046.228, 323.3717
1046.710, 323.7465
1047.192, 325.6917
1047.674, 332.5400
1048.156, 342.8863
1048.638, 348.1477
1049.121, 347.1020
1049.603, 344.9064
1050.085, 340.0795
1050.567, 340.0966
1051.049, 349.0643
1051.531, 359.7230
1052.013, 364.9178
1052.495, 366.4934
1052.978, 370.9581
1053.460, 378.8062
1053.942, 384.9701
1054.424, 389.1306
1054.906, 393.7642
1055.388, 399.9766
1055.870, 403.3761
1056.352, 399.3234
1056.834, 393.2273
1057.317, 398.9270
1057.799, 415.4560
1058.281, 425.6830
1058.763, 429.5946
1059.245, 429.8575
1059.727, 427.1219
1060.209, 431.5733
1060.691, 450.9692
1061.173, 472.3228
1061.656, 469.4030
1062.138, 451.3706
1062.620, 458.2439
1063.102, 484.7538
1063.584, 505.1213
1064.066, 515.4852
1064.548, 523.3189
1065.030, 532.2893
1065.513, 545.2921
1065.995, 568.5728
1066.477, 595.8231
1066.959, 614.3235
1067.441, 627.1195
1067.923, 640.1451
1068.405, 654.4730
1068.887, 670.4004
1069.370, 687.9619
1069.852, 706.5178
1070.334, 724.6565
1070.816, 744.6531
1071.298, 769.3170
1071.780, 797.3295
1072.262, 825.4265
1072.744, 855.8555
1073.226, 895.1573
1073.708, 943.8957
1074.191, 993.0905
1074.673, 1033.716
1075.155, 1082.119
1075.637, 1155.014
1076.119, 1235.623
1076.601, 1304.024
1077.083, 1372.132
1077.565, 1459.682
1078.047, 1566.691
1078.530, 1677.546
1079.012, 1782.529
1079.494, 1904.058
1079.976, 2052.982
1080.458, 2217.466
1080.940, 2381.221
1081.422, 2565.137
1081.904, 2793.804
1082.387, 3061.323
1082.869, 3343.985
1083.351, 3631.263
1083.833, 3960.131
1084.315, 4329.429
1084.797, 4749.289
1085.279, 5226.897
1085.761, 5751.990
1086.244, 6317.042
1086.726, 6927.819
1087.208, 7595.748
1087.690, 8323.458
1088.172, 9072.387
1088.654, 9852.840
1089.136, 10650.04
1089.618, 11490.44
1090.100, 12296.54
1090.583, 13064.41
1091.065, 13726.06
1091.547, 14203.51
1092.029, 14487.38
1092.511, 14512.49
1092.993, 14276.54
1093.475, 13777.98
1093.957, 12997.95
1094.439, 12075.57
1094.922, 11040.10
1095.404, 9976.273
1095.886, 8936.947
1096.368, 7943.181
1096.850, 7016.935
1097.332, 6165.500
1097.814, 5432.625
1098.296, 4810.715
1098.779, 4260.385
1099.261, 3771.999
1099.743, 3350.421
1100.225, 2999.924
1100.707, 2701.060
1101.189, 2442.135
1101.671, 2212.790
1102.153, 1988.618
1102.635, 1780.901
1103.118, 1619.757
1103.600, 1499.140
1104.082, 1389.403
1104.564, 1279.780
1105.046, 1179.955
1105.528, 1097.627
1106.010, 1026.653
1106.492, 966.0530
1106.974, 910.2276
1107.457, 852.8379
1107.939, 796.0742
1108.421, 742.9047
1108.903, 694.6929
1109.385, 655.5221
1109.867, 630.6769
1110.349, 605.3445
1110.831, 572.8007
1111.314, 539.9304
1111.796, 509.0220
1112.278, 480.7705
1112.760, 455.8599
1113.242, 434.2946
1113.724, 415.6577
1114.206, 400.0013
1114.688, 387.1012
1115.171, 379.7775
1115.653, 370.5015
1116.135, 357.3965
1116.617, 343.0144
1117.099, 327.4352
1117.581, 312.9097
1118.063, 303.5937
1118.545, 298.8775
1119.027, 289.0262
1119.510, 272.2688
1119.992, 261.2832
1120.474, 257.8246
1120.956, 255.6546
1121.438, 252.7006
1121.920, 248.6128
1122.402, 243.0294
1122.884, 236.2345
1123.366, 228.0549
1123.849, 219.1640
1124.331, 212.8177
1124.813, 208.9667
1125.295, 207.1631
1125.777, 207.0795
1126.259, 208.1629
1126.741, 210.2501
1127.223, 209.9721
1127.706, 201.3719
1128.188, 190.3423
1128.670, 184.3693
1129.152, 181.7969
1129.634, 180.3531
1130.116, 179.8404
1130.598, 181.0715
1131.080, 184.0265
1131.563, 186.5164
1132.045, 188.6824
1132.527, 187.9356
1133.009, 180.1269
1133.491, 172.0356
1133.973, 168.7873
1134.455, 167.6771
1134.937, 164.7646
1135.419, 160.6429
1135.901, 159.1920
1136.384, 161.9853
1136.866, 164.0930
1137.348, 165.0270
1137.830, 165.4606
1138.312, 166.0182
1138.794, 165.2571
1139.276, 161.4124
1139.758, 156.7857
1140.241, 155.2639
1140.723, 156.5903
1141.205, 156.5812
1141.687, 155.0223
1142.169, 153.6809
1142.651, 152.6393
1143.133, 152.9878
1143.615, 155.2835
1144.098, 156.5424
1144.580, 154.0049
1145.062, 149.4982
1145.544, 146.3040
1146.026, 144.2001
1146.508, 142.3437
1146.990, 140.9726
1147.472, 141.0912
1147.954, 142.6378
1148.437, 145.0736
1148.919, 148.1251
1149.401, 149.2956
1149.883, 144.5898
1150.365, 139.2969
1150.847, 138.6130
1151.329, 139.4481
1151.811, 137.9200
1152.293, 135.6878
1152.776, 137.2314
1153.258, 142.1613
1153.740, 143.3919
1154.222, 136.2100
1154.704, 131.7111
1155.186, 134.0727
1155.668, 137.4977
1156.150, 141.0323
1156.633, 143.5768
1157.115, 144.0229
1157.597, 143.0752
1158.079, 142.0536
1158.561, 140.9325
1159.043, 140.5628
1159.525, 141.7042
1160.007, 139.4907
1160.490, 132.1241
1160.972, 129.1202
1161.454, 135.0188
1161.936, 141.3052
1162.418, 139.3672
1162.900, 133.1189
1163.382, 131.3718
1163.864, 132.9157
1164.346, 133.7119
1164.828, 133.5888
1165.311, 132.4070
1165.793, 130.2704
1166.275, 126.9609
1166.757, 122.3987
1167.239, 120.6324
1167.721, 128.5552
1168.203, 136.7270
1168.685, 134.2501
1169.168, 129.9540
1169.650, 134.9158
1170.132, 143.6801
1170.614, 145.9919
1171.096, 141.3144
1171.578, 135.7900
1172.060, 128.9402
1172.542, 126.1107
1173.025, 132.4292
1173.507, 137.0600
1173.989, 135.8457
1174.471, 133.3713
1174.953, 131.7107
1175.435, 131.5695
1175.917, 134.9578
1176.399, 141.3621
1176.881, 141.7750
1177.364, 135.2628
1177.846, 132.9582
1178.328, 135.9858
1178.810, 136.7053
1179.292, 132.6332
1179.774, 129.5364
1180.256, 132.1069
1180.738, 136.4937
1181.220, 136.1174
1181.703, 133.8418
1182.185, 136.5725
1182.667, 141.3366
1183.149, 140.9506
1183.631, 136.6580
1184.113, 135.1226
1184.595, 138.0232
1185.077, 139.7989
1185.560, 136.2217
1186.042, 133.2706
1186.524, 134.0474
1187.006, 136.0114
1187.488, 137.6813
1187.970, 139.6583
1188.452, 144.1605
1188.934, 149.3972
1189.417, 149.1441
1189.899, 142.2469
1190.381, 137.5563
1190.863, 135.6933
1191.345, 134.2713
1191.827, 133.0132
1192.309, 132.0744
1192.791, 131.4417
1193.273, 131.7372
1193.755, 133.8747
1194.238, 136.5698
1194.720, 136.1108
1195.202, 133.7364
1195.684, 134.9746
1196.166, 138.3894
1196.648, 138.0092
1197.130, 133.9037
1197.612, 130.8726
1198.095, 130.8161
1198.577, 131.9752
1199.059, 134.8648
1199.541, 135.9582
1200.023, 129.9838
1200.505, 124.1807
1200.987, 125.7860
1201.469, 130.2761
1201.952, 132.2302
1202.434, 131.3410
1202.916, 128.2212
1203.398, 121.3442
1203.880, 118.4579
1204.362, 121.9797
1204.844, 123.8687
1205.326, 121.9029
1205.808, 121.3757
1206.291, 125.1325
1206.773, 130.0365
1207.255, 132.8835
1207.737, 133.9995
1208.219, 134.1276
1208.701, 133.3233
1209.183, 130.9882
1209.665, 127.9758
1210.147, 128.1431
1210.630, 131.3472
1211.112, 134.0572
1211.594, 134.8034
1212.076, 133.9076
1212.558, 130.8573
1213.040, 127.3913
1213.522, 122.8077
1214.004, 120.3753
1214.487, 125.4276
1214.969, 132.2496
1215.451, 132.6731
1215.933, 128.4078
1216.415, 127.9940
1216.897, 133.3530
1217.379, 135.6881
1217.861, 133.7785
1218.344, 132.0291
1218.826, 131.1261
1219.308, 129.6034
1219.790, 126.4875
1220.272, 124.7250
1220.754, 127.6592
1221.236, 131.9711
1221.718, 129.3037
1222.200, 122.5606
1222.682, 121.3810
1223.165, 124.0745
1223.647, 125.9266
1224.129, 126.3525
1224.611, 126.2676
1225.093, 125.9741
1225.575, 125.2120
1226.057, 123.2311
1226.539, 121.9901
1227.022, 122.6185
1227.504, 124.1448
1227.986, 126.6768
1228.468, 129.2464
1228.950, 132.1094
1229.432, 133.7703
1229.914, 130.2250
1230.396, 121.3924
1230.879, 118.2722
1231.361, 122.2261
1231.843, 124.4425
1232.325, 124.0842
1232.807, 124.5714
1233.289, 126.9753
1233.771, 127.8653
1234.253, 124.6943
1234.735, 120.9195
1235.218, 121.6542
1235.700, 124.3359
1236.182, 125.3473
1236.664, 125.0792
1237.146, 123.4414
1237.628, 121.3227
1238.110, 120.2927
1238.592, 120.5246
1239.074, 121.0461
1239.557, 121.1738
1240.039, 122.9394
1240.521, 129.8964
1241.003, 133.8273
1241.485, 131.9062
1241.967, 128.1059
1242.449, 123.1170
1242.931, 119.7334
1243.414, 121.8015
1243.896, 127.3053
1244.378, 129.6667
1244.860, 129.2083
1245.342, 128.5744
1245.824, 127.9286
1246.306, 127.7309
1246.788, 128.0295
1247.271, 128.5374
1247.753, 129.1800
1248.235, 130.7211
1248.717, 135.2648
1249.199, 137.5417
1249.681, 130.5161
1250.163, 123.8593
1250.645, 125.6940
1251.127, 130.2152
1251.609, 131.9450
1252.092, 131.1327
1252.574, 128.4657
1253.056, 124.0067
1253.538, 124.4671
1254.020, 131.8776
1254.502, 133.9757
1254.984, 129.3595
1255.466, 126.8444
1255.949, 128.8481
1256.431, 131.6463
1256.913, 133.0359
1257.395, 132.7968
1257.877, 129.3314
1258.359, 125.7441
1258.841, 127.6474
1259.323, 131.2340
1259.806, 131.2699
1260.288, 129.3920
1260.770, 129.4149
1261.252, 130.9146
1261.734, 129.4651
1262.216, 122.6692
1262.698, 121.8199
1263.180, 134.4021
1263.662, 141.5296
1264.145, 139.7690
##END=



