##NAMES=Smithsonite
##RRUFFID=R040035
##IDEAL CHEMISTRY=Zn^2+^CO_3_
##LOCALITY=Mazapil, Zacatecas, Mexico
##OWNER=RRUFF
##SOURCE=University of Arizona Mineral Museum
##DESCRIPTION=Pale green-blue fine-grained massive
##STATUS=The identification of this mineral has been confirmed by X-ray diffraction and chemical analysis
##URL=rruff.info/R040035
##MEASURED CHEMISTRY=(Zn_0.97_Ca_0.02_Pb_0.01_)_Î£=1_C_1.00_O_3_; CO_2_ estimated by difference
159.5958, 66.80178
160.0779, 66.89511
160.5600, 67.17940
161.0422, 67.59286
161.5243, 68.02337
162.0064, 68.47311
162.4885, 68.93097
162.9706, 69.36771
163.4527, 69.81200
163.9349, 70.28885
164.4170, 70.75659
164.8991, 71.35527
165.3812, 72.37197
165.8633, 73.93591
166.3454, 75.48927
166.8276, 76.61546
167.3097, 77.38379
167.7918, 78.38100
168.2739, 80.00134
168.7560, 81.84459
169.2381, 83.37238
169.7203, 84.43430
170.2024, 85.49251
170.6845, 87.04507
171.1666, 89.14694
171.6487, 91.38744
172.1308, 93.76150
172.6130, 96.14450
173.0951, 98.40524
173.5772, 100.4843
174.0593, 102.5276
174.5414, 104.8256
175.0235, 107.4949
175.5057, 110.1739
175.9878, 112.8749
176.4699, 115.5027
176.9520, 117.9156
177.4341, 120.0216
177.9162, 122.0158
178.3984, 124.5619
178.8805, 128.2907
179.3626, 131.7958
179.8447, 134.8381
180.3268, 137.5967
180.8089, 140.2791
181.2911, 142.9729
181.7732, 145.7256
182.2553, 148.8633
182.7374, 152.0899
183.2195, 156.0347
183.7016, 161.4147
184.1838, 167.5821
184.6659, 173.3202
185.1480, 177.8238
185.6301, 181.2839
186.1122, 185.6061
186.5943, 190.8429
187.0765, 196.6142
187.5586, 202.5984
188.0407, 208.9283
188.5228, 216.2092
189.0049, 225.0548
189.4870, 235.1938
189.9692, 244.7626
190.4513, 253.1022
190.9334, 261.4384
191.4155, 271.0521
191.8976, 281.7852
192.3797, 291.8311
192.8619, 300.3082
193.3440, 306.9418
193.8261, 311.4362
194.3082, 314.4240
194.7903, 314.7699
195.2724, 310.8586
195.7546, 302.4005
196.2367, 291.7374
196.7188, 279.7220
197.2009, 266.4651
197.6830, 251.6527
198.1651, 234.2242
198.6473, 215.8748
199.1294, 199.4272
199.6115, 185.3116
200.0936, 172.2127
200.5757, 158.9022
201.0578, 146.2052
201.5400, 135.2308
202.0221, 126.6642
202.5042, 120.1176
202.9863, 114.4507
203.4684, 110.1163
203.9505, 106.0565
204.4327, 101.7373
204.9148, 97.45442
205.3969, 93.63560
205.8790, 90.56131
206.3611, 88.09201
206.8432, 85.40842
207.3254, 81.70026
207.8075, 78.80690
208.2896, 77.50609
208.7717, 77.17825
209.2538, 76.94408
209.7359, 76.26582
210.2181, 75.18306
210.7002, 74.08439
211.1823, 72.97817
211.6644, 71.84459
212.1465, 70.63414
212.6286, 69.39659
213.1108, 68.18081
213.5929, 66.99861
214.0750, 65.87057
214.5571, 65.15157
215.0392, 65.13245
215.5213, 65.16249
216.0035, 65.03671
216.4856, 64.82130
216.9677, 64.73430
217.4498, 64.96903
217.9319, 65.46651
218.4140, 65.39354
218.8961, 64.24165
219.3783, 63.17469
219.8604, 62.68000
220.3425, 62.65184
220.8246, 62.71332
221.3067, 62.62844
221.7888, 62.42869
222.2710, 62.34033
222.7531, 62.67689
223.2352, 62.82126
223.7173, 62.17872
224.1994, 60.94590
224.6815, 60.09385
225.1637, 60.31950
225.6458, 61.38248
226.1279, 62.13230
226.6100, 62.34708
227.0921, 62.47570
227.5742, 62.97215
228.0564, 63.77060
228.5385, 64.16175
229.0206, 63.47874
229.5027, 62.23228
229.9848, 61.55762
230.4669, 61.63007
230.9491, 62.13359
231.4312, 62.99876
231.9133, 64.23158
232.3954, 65.20696
232.8775, 65.43185
233.3596, 65.30918
233.8418, 65.38719
234.3239, 65.81828
234.8060, 66.29482
235.2881, 66.37840
235.7702, 65.99671
236.2523, 65.91249
236.7345, 66.86842
237.2166, 68.03290
237.6987, 68.58723
238.1808, 68.27281
238.6629, 67.75084
239.1451, 67.87634
239.6272, 68.78235
240.1093, 69.62225
240.5914, 70.10890
241.0735, 70.45073
241.5556, 70.75613
242.0378, 71.05144
242.5199, 71.34351
243.0020, 71.61916
243.4841, 71.83733
243.9662, 72.19108
244.4483, 72.87076
244.9305, 73.59441
245.4126, 74.14819
245.8947, 74.49310
246.3768, 74.81224
246.8589, 75.41828
247.3410, 76.49815
247.8232, 77.26802
248.3053, 77.02390
248.7874, 76.91737
249.2695, 77.86427
249.7516, 79.92894
250.2337, 82.27836
250.7159, 83.72618
251.1980, 83.78008
251.6801, 84.26876
252.1622, 85.74077
252.6443, 87.20903
253.1264, 87.90193
253.6086, 87.84560
254.0907, 87.80620
254.5728, 88.80116
255.0549, 91.30689
255.5370, 93.42873
256.0191, 95.12384
256.5013, 96.55268
256.9834, 97.72859
257.4655, 98.68582
257.9476, 99.46965
258.4297, 100.0469
258.9118, 100.1688
259.3940, 101.1730
259.8761, 103.6924
260.3582, 106.3452
260.8403, 108.2707
261.3224, 109.5647
261.8045, 110.9877
262.2867, 113.3002
262.7688, 116.6499
263.2509, 119.8935
263.7330, 123.0326
264.2151, 126.0680
264.6972, 128.7921
265.1794, 131.3520
265.6615, 134.3036
266.1436, 138.1726
266.6257, 143.0415
267.1078, 147.1402
267.5899, 150.1988
268.0721, 152.9855
268.5542, 155.3638
269.0363, 157.6703
269.5184, 160.7677
270.0005, 165.3014
270.4826, 171.1983
270.9648, 177.0797
271.4469, 182.8435
271.9290, 188.6947
272.4111, 194.5104
272.8932, 200.4436
273.3753, 206.8742
273.8575, 213.9821
274.3396, 221.7500
274.8217, 230.1739
275.3038, 239.3333
275.7859, 248.8690
276.2680, 258.5155
276.7502, 268.4419
277.2323, 279.1147
277.7144, 290.7667
278.1965, 303.2426
278.6786, 316.1639
279.1607, 328.8670
279.6429, 342.8212
280.1250, 359.3150
280.6071, 377.2846
281.0892, 394.3699
281.5713, 409.5197
282.0534, 424.3447
282.5356, 442.6413
283.0177, 465.4420
283.4998, 487.2859
283.9819, 505.4057
284.4640, 522.0534
284.9461, 540.8776
285.4283, 563.0277
285.9104, 586.5902
286.3925, 608.7657
286.8746, 629.2701
287.3567, 651.3113
287.8388, 676.1878
288.3210, 702.8290
288.8031, 729.7394
289.2852, 756.8492
289.7673, 784.2738
290.2494, 811.3562
290.7315, 838.3460
291.2137, 868.4183
291.6958, 903.2823
292.1779, 940.9904
292.6600, 979.1855
293.1421, 1017.544
293.6242, 1057.689
294.1064, 1101.353
294.5885, 1148.156
295.0706, 1194.475
295.5527, 1237.856
296.0348, 1282.100
296.5169, 1331.661
296.9991, 1386.278
297.4812, 1440.609
297.9633, 1491.627
298.4454, 1539.314
298.9275, 1584.883
299.4096, 1629.222
299.8918, 1670.461
300.3739, 1708.346
300.8560, 1742.570
301.3381, 1771.209
301.8202, 1796.227
302.3023, 1811.835
302.7845, 1810.223
303.2666, 1788.940
303.7487, 1757.219
304.2308, 1719.563
304.7129, 1675.722
305.1950, 1624.062
305.6772, 1563.165
306.1593, 1494.881
306.6414, 1420.918
307.1235, 1340.519
307.6056, 1260.754
308.0877, 1183.112
308.5699, 1108.127
309.0520, 1036.647
309.5341, 968.8531
310.0162, 904.5415
310.4983, 843.9297
310.9804, 786.3049
311.4626, 732.8543
311.9447, 684.5512
312.4268, 640.4742
312.9089, 598.8975
313.3910, 559.3394
313.8731, 522.7256
314.3553, 490.4066
314.8374, 461.6849
315.3195, 434.4077
315.8016, 407.9839
316.2837, 382.8957
316.7658, 359.6686
317.2480, 338.3087
317.7301, 319.0277
318.2122, 302.5888
318.6943, 288.2207
319.1764, 273.8910
319.6585, 258.9089
320.1407, 244.6280
320.6228, 232.0843
321.1049, 221.2097
321.5870, 211.4350
322.0691, 203.0435
322.5512, 195.2890
323.0334, 186.5318
323.5155, 176.2478
323.9976, 166.7853
324.4797, 159.8385
324.9618, 154.7789
325.4439, 149.7377
325.9261, 144.1059
326.4082, 138.4837
326.8903, 133.6559
327.3724, 129.6256
327.8545, 125.6391
328.3366, 121.3120
328.8188, 116.9162
329.3009, 112.8273
329.7830, 109.0717
330.2651, 105.7442
330.7472, 103.0466
331.2293, 100.9028
331.7115, 98.98250
332.1936, 97.48795
332.6757, 96.03696
333.1578, 94.22032
333.6399, 92.01456
334.1220, 89.62473
334.6042, 87.05386
335.0863, 84.40651
335.5684, 82.06981
336.0505, 80.11292
336.5326, 78.41038
337.0147, 76.86128
337.4969, 75.48336
337.9790, 74.41621
338.4611, 73.86491
338.9432, 73.51353
339.4253, 72.60540
339.9074, 70.90975
340.3896, 69.34035
340.8717, 68.34708
341.3538, 67.71869
341.8359, 67.09642
342.3180, 66.42463
342.8001, 65.55074
343.2822, 63.99933
343.7643, 61.63017
344.2465, 60.00309
344.7286, 59.94392
345.2107, 60.49938
345.6928, 60.70707
346.1749, 60.42867
346.6570, 59.78415
347.1392, 58.77408
347.6213, 57.38881
348.1034, 56.30453
348.5855, 55.70804
349.0676, 55.25074
349.5497, 54.62785
350.0319, 53.90260
350.5140, 53.44653
350.9961, 53.55569
351.4782, 54.06663
351.9603, 54.19841
352.4424, 53.86080
352.9246, 53.33631
353.4067, 52.58567
353.8888, 51.72281
354.3709, 50.96250
354.8530, 50.39101
355.3351, 49.92701
355.8173, 49.42460
356.2994, 48.88369
356.7815, 48.29726
357.2636, 47.44130
357.7457, 46.66304
358.2278, 46.38599
358.7100, 46.65246
359.1921, 47.06770
359.6742, 47.20116
360.1563, 46.98948
360.6384, 46.85450
361.1205, 47.02125
361.6027, 47.05590
362.0848, 46.65460
362.5669, 45.90045
363.0490, 45.06294
363.5311, 44.30597
364.0132, 43.64159
364.4954, 43.19694
364.9775, 42.87902
365.4596, 42.87106
365.9417, 43.62600
366.4238, 44.59086
366.9059, 44.96229
367.3881, 44.41715
367.8702, 43.35139
368.3523, 42.56330
368.8344, 42.10405
369.3165, 41.88761
369.7986, 42.32649
370.2808, 42.70245
370.7629, 42.34357
371.2450, 41.24909
371.7271, 40.02523
372.2092, 39.34422
372.6913, 39.29859
373.1735, 39.17653
373.6556, 38.77321
374.1377, 38.50250
374.6198, 38.69229
375.1019, 39.12635
375.5840, 39.33685
376.0662, 39.00144
376.5483, 38.24968
377.0304, 37.70749
377.5125, 37.52708
377.9946, 37.35184
378.4767, 37.20555
378.9589, 37.00034
379.4410, 36.55161
379.9231, 35.81794
380.4052, 35.11853
380.8873, 35.04541
381.3694, 35.90175
381.8516, 36.38494
382.3337, 36.31935
382.8158, 35.92287
383.2979, 35.05525
383.7800, 33.87054
384.2621, 32.88181
384.7443, 32.60917
385.2264, 32.98545
385.7085, 33.15209
386.1906, 33.02145
386.6727, 32.78978
387.1548, 32.50447
387.6370, 32.19197
388.1191, 31.87979
388.6012, 31.55778
389.0833, 31.28360
389.5654, 31.21529
390.0475, 31.42586
390.5297, 31.50720
391.0118, 31.22118
391.4939, 30.81158
391.9760, 30.39536
392.4581, 29.98489
392.9402, 29.76923
393.4224, 30.10790
393.9045, 30.86451
394.3866, 31.16027
394.8687, 30.71417
395.3508, 30.04183
395.8329, 29.47931
396.3151, 29.02562
396.7972, 28.70117
397.2793, 28.52131
397.7614, 28.47205
398.2435, 28.61153
398.7256, 28.96169
399.2078, 29.17178
399.6899, 28.91652
400.1720, 28.43553
400.6541, 28.27658
401.1362, 28.65500
401.6183, 28.99247
402.1005, 28.86881
402.5826, 28.43127
403.0647, 28.09449
403.5468, 27.99680
404.0289, 28.00652
404.5110, 27.95315
404.9932, 27.83982
405.4753, 27.67710
405.9574, 27.31900
406.4395, 27.00360
406.9216, 27.05473
407.4037, 27.46112
407.8859, 27.81282
408.3680, 27.75776
408.8501, 27.34099
409.3322, 27.16903
409.8143, 27.53479
410.2964, 27.78134
410.7786, 27.49268
411.2607, 26.96090
411.7428, 26.74022
412.2249, 27.06818
412.7070, 27.66732
413.1891, 27.99691
413.6713, 27.90723
414.1534, 27.78473
414.6355, 27.64318
415.1176, 27.46072
415.5997, 27.15711
416.0818, 26.77065
416.5640, 26.48136
417.0461, 26.47998
417.5282, 26.77280
418.0103, 26.87003
418.4924, 26.66265
418.9745, 26.36740
419.4567, 25.87198
419.9388, 25.36336
420.4209, 25.12839
420.9030, 25.30318
421.3851, 25.66649
421.8672, 25.73026
422.3494, 25.29586
422.8315, 25.07433
423.3136, 25.36867
423.7957, 25.69958
424.2778, 25.72122
424.7599, 25.45929
425.2421, 25.22976
425.7242, 25.33192
426.2063, 25.72787
426.6884, 26.06306
427.1705, 26.39464
427.6526, 26.55665
428.1348, 26.34970
428.6169, 25.98640
429.0990, 25.80369
429.5811, 25.98625
430.0632, 26.21277
430.5453, 25.95456
431.0275, 25.19542
431.5096, 24.78242
431.9917, 25.25303
432.4738, 25.86433
432.9559, 25.72033
433.4380, 24.83243
433.9202, 24.12590
434.4023, 24.11873
434.8844, 24.55675
435.3665, 25.07642
435.8486, 25.67065
436.3307, 26.12208
436.8129, 26.27730
437.2950, 26.13852
437.7771, 25.81502
438.2592, 24.95774
438.7413, 24.29488
439.2234, 24.44020
439.7056, 25.08122
440.1877, 25.42902
440.6698, 25.16890
441.1519, 24.63512
441.6340, 24.37776
442.1161, 24.54059
442.5983, 24.56005
443.0804, 24.30981
443.5625, 23.98310
444.0446, 23.57801
444.5267, 23.19068
445.0089, 23.17990
445.4910, 23.91092
445.9731, 25.24133
446.4552, 25.78889
446.9373, 24.70539
447.4194, 23.84765
447.9016, 23.50801
448.3837, 23.51595
448.8658, 23.76756
449.3479, 24.19651
449.8300, 24.61322
450.3121, 24.72194
450.7943, 24.43151
451.2764, 24.17410
451.7585, 23.96250
452.2406, 23.77294
452.7227, 23.62412
453.2048, 23.49090
453.6870, 23.31981
454.1691, 23.07142
454.6512, 22.77629
455.1333, 22.47350
455.6154, 22.09806
456.0975, 21.91431
456.5797, 22.26496
457.0618, 22.68742
457.5439, 22.79180
458.0260, 22.52482
458.5081, 22.21468
458.9902, 22.14902
459.4724, 22.24770
459.9545, 22.19801
460.4366, 21.91803
460.9187, 21.62650
461.4008, 21.50332
461.8829, 21.49618
462.3651, 21.48249
462.8472, 21.36950
463.3293, 21.31965
463.8114, 21.58166
464.2935, 22.03724
464.7756, 22.21502
465.2578, 21.88777
465.7399, 21.34780
466.2220, 21.09359
466.7041, 21.18503
467.1862, 21.28401
467.6683, 21.37513
468.1505, 21.44481
468.6326, 21.46007
469.1147, 21.43462
469.5968, 21.43753
470.0789, 21.52556
470.5610, 21.67817
471.0432, 21.75623
471.5253, 21.53085
472.0074, 21.51727
472.4895, 22.18317
472.9716, 22.86597
473.4537, 22.76159
473.9359, 21.76041
474.4180, 20.54476
474.9001, 19.93426
475.3822, 19.99447
475.8643, 20.13772
476.3464, 20.46521
476.8286, 20.76937
477.3107, 20.97535
477.7928, 21.11566
478.2749, 21.25406
478.7570, 21.42569
479.2391, 21.58154
479.7213, 21.66607
480.2034, 21.69029
480.6855, 21.52927
481.1676, 20.91394
481.6497, 20.33704
482.1318, 20.25055
482.6140, 20.60242
483.0961, 20.94622
483.5782, 21.02206
484.0603, 20.98015
484.5424, 21.12853
485.0245, 21.48759
485.5067, 21.64289
485.9888, 21.27253
486.4709, 20.59410
486.9530, 20.20678
487.4351, 20.27132
487.9172, 20.25332
488.3994, 19.78318
488.8815, 19.20183
489.3636, 19.00761
489.8457, 19.28419
490.3278, 19.74314
490.8099, 20.16018
491.2921, 20.54557
491.7742, 20.58136
492.2563, 19.85127
492.7384, 19.30763
493.2205, 19.41779
493.7026, 19.83320
494.1848, 20.04676
494.6669, 19.87132
495.1490, 19.50952
495.6311, 19.25292
496.1132, 19.08221
496.5953, 19.08518
497.0775, 19.72242
497.5596, 20.09339
498.0417, 19.53940
498.5238, 18.44999
499.0059, 17.69823
499.4880, 17.79522
499.9702, 18.38234
500.4523, 18.78147
500.9344, 18.97978
501.4165, 19.07289
501.8986, 19.00784
502.3807, 18.91223
502.8629, 18.94558
503.3450, 19.09993
503.8271, 19.14661
504.3092, 18.79305
504.7913, 18.34326
505.2734, 18.41344
505.7556, 19.03001
506.2377, 19.36349
506.7198, 18.75023
507.2019, 17.61638
507.6840, 17.33397
508.1661, 18.39637
508.6482, 19.24907
509.1303, 19.39146
509.6125, 19.16274
510.0946, 18.90478
510.5767, 18.68968
511.0588, 18.46218
511.5409, 18.14678
512.0231, 17.74548
512.5052, 17.59568
512.9873, 18.07629
513.4694, 18.35898
513.9515, 18.15355
514.4337, 17.72915
514.9158, 17.34687
515.3979, 17.09788
515.8800, 16.99645
516.3621, 17.16667
516.8442, 17.66977
517.3264, 17.74789
517.8085, 16.92165
518.2906, 16.28729
518.7727, 16.45565
519.2548, 17.09304
519.7369, 17.66362
520.2191, 18.02159
520.7012, 18.17122
521.1833, 18.06548
521.6654, 17.72944
522.1475, 17.30651
522.6296, 16.71796
523.1118, 16.27530
523.5939, 16.49906
524.0760, 17.28052
524.5581, 17.80582
525.0402, 17.85008
525.5223, 17.67629
526.0045, 17.36604
526.4866, 16.98646
526.9687, 16.70481
527.4508, 16.59876
527.9329, 16.60094
528.4150, 16.59805
528.8972, 16.64400
529.3793, 16.54500
529.8614, 16.07781
530.3435, 15.68070
530.8256, 15.59176
531.3077, 15.77904
531.7899, 16.14369
532.2720, 16.65257
532.7541, 17.19390
533.2362, 17.47217
533.7183, 17.43657
534.2004, 17.28368
534.6826, 16.92828
535.1647, 16.55249
535.6468, 16.22536
536.1289, 15.96542
536.6110, 15.81917
537.0931, 15.87617
537.5753, 16.03400
538.0574, 16.08773
538.5395, 16.03131
539.0216, 16.00250
539.5037, 16.03488
539.9858, 16.15097
540.4680, 16.46438
540.9501, 17.06621
541.4322, 17.35048
541.9143, 16.80725
542.3964, 16.09291
542.8785, 15.89762
543.3607, 16.20260
543.8428, 16.62119
544.3249, 16.95258
544.8070, 17.13024
545.2891, 16.89671
545.7712, 15.52550
546.2534, 14.75242
546.7355, 15.02633
547.2176, 15.59968
547.6997, 16.02663
548.1818, 16.21921
548.6639, 16.20399
549.1461, 15.94358
549.6282, 15.52959
550.1103, 15.39965
550.5924, 15.73286
551.0745, 15.88349
551.5566, 15.20536
552.0388, 14.55321
552.5209, 14.83896
553.0030, 16.08986
553.4851, 17.03948
553.9672, 16.62253
554.4493, 15.55063
554.9315, 15.17929
555.4136, 15.58027
555.8957, 15.91940
556.3778, 15.69949
556.8599, 15.14770
557.3420, 14.88224
557.8242, 14.96706
558.3063, 15.12045
558.7884, 15.46646
559.2705, 15.73715
559.7526, 15.51321
560.2347, 14.90650
560.7169, 14.56926
561.1990, 15.03395
561.6811, 16.03560
562.1632, 16.30014
562.6453, 15.04454
563.1274, 14.40104
563.6096, 15.19030
564.0917, 16.13631
564.5738, 16.29991
565.0559, 15.68484
565.5380, 14.89771
566.0201, 14.25450
566.5023, 13.80150
566.9844, 13.73070
567.4665, 14.10482
567.9486, 14.44968
568.4307, 14.54089
568.9128, 14.55211
569.3950, 14.73651
569.8771, 15.11169
570.3592, 15.45464
570.8413, 15.77825
571.3234, 15.97818
571.8055, 15.92807
572.2877, 15.64375
572.7698, 15.19286
573.2519, 14.58188
573.7340, 13.92490
574.2161, 13.51140
574.6982, 13.29629
575.1804, 13.44082
575.6625, 14.29109
576.1446, 15.17357
576.6267, 15.70190
577.1088, 15.90716
577.5909, 15.99469
578.0731, 16.08833
578.5552, 16.12115
579.0373, 15.93591
579.5194, 15.51196
580.0015, 14.95834
580.4836, 13.95870
580.9658, 13.20626
581.4479, 13.44043
581.9300, 14.41549
582.4121, 15.05023
582.8942, 14.62111
583.3763, 13.95674
583.8585, 13.96927
584.3406, 14.46193
584.8227, 14.67098
585.3048, 14.31136
585.7869, 13.68994
586.2690, 13.17395
586.7512, 12.72337
587.2333, 12.65249
587.7154, 13.42933
588.1975, 14.05684
588.6796, 14.01534
589.1617, 13.57350
589.6438, 13.14981
590.1259, 12.90830
590.6080, 12.80403
591.0901, 12.77323
591.5723, 12.80977
592.0544, 12.99282
592.5365, 13.42679
593.0186, 13.85536
593.5007, 14.35630
593.9828, 14.71424
594.4650, 14.47532
594.9471, 13.33961
595.4292, 12.34955
595.9113, 12.53375
596.3934, 13.42171
596.8755, 13.85841
597.3577, 13.65546
597.8398, 13.42538
598.3219, 13.67771
598.8040, 14.31036
599.2861, 14.61852
599.7682, 14.42831
600.2504, 14.19947
600.7325, 13.81884
601.2146, 13.55071
601.6967, 13.83707
602.1788, 14.56646
602.6609, 15.04483
603.1431, 14.64952
603.6252, 13.62373
604.1073, 13.06597
604.5894, 13.16573
605.0715, 13.23510
605.5536, 12.95183
606.0358, 12.69501
606.5179, 12.86134
607.0000, 13.38975
607.4821, 13.70719
607.9642, 13.34905
608.4464, 12.75905
608.9285, 12.43823
609.4106, 12.37164
609.8927, 12.44859
610.3748, 12.63095
610.8569, 12.93236
611.3391, 13.43967
611.8212, 14.32015
612.3033, 14.68010
612.7854, 14.14049
613.2675, 13.50738
613.7496, 13.15201
614.2318, 12.94085
614.7139, 12.52881
615.1960, 11.80941
615.6781, 11.19398
616.1602, 11.45188
616.6423, 12.65338
617.1245, 13.01032
617.6066, 11.91635
618.0887, 10.99650
618.5708, 11.39370
619.0529, 12.32452
619.5350, 12.67106
620.0172, 12.12984
620.4993, 11.56508
620.9814, 11.53002
621.4635, 11.75664
621.9456, 11.75828
622.4277, 11.51828
622.9099, 11.49323
623.3920, 12.04565
623.8741, 12.94309
624.3562, 13.35833
624.8383, 12.87288
625.3204, 12.49487
625.8026, 12.22488
626.2847, 12.06316
626.7668, 12.04007
627.2489, 12.12581
627.7310, 12.28271
628.2131, 12.52993
628.6953, 12.71134
629.1774, 12.42939
629.6595, 11.65721
630.1416, 11.22070
630.6237, 11.39420
631.1058, 11.73419
631.5880, 11.95601
632.0701, 12.04926
632.5522, 11.92695
633.0343, 11.29701
633.5164, 10.78138
633.9985, 10.76052
634.4807, 11.02565
634.9628, 11.28913
635.4449, 11.48042
635.9270, 11.60850
636.4091, 11.65841
636.8912, 11.65321
637.3734, 11.86117
637.8555, 12.63329
638.3376, 13.04149
638.8197, 12.69395
639.3018, 12.16525
639.7839, 11.88743
640.2661, 11.87386
640.7482, 11.88534
641.2303, 11.72458
641.7124, 11.54628
642.1945, 11.66294
642.6766, 12.04166
643.1588, 12.29772
643.6409, 12.29137
644.1230, 12.16389
644.6051, 12.07617
645.0872, 12.03419
645.5693, 11.99223
646.0515, 12.16714
646.5336, 12.09849
647.0157, 11.17966
647.4978, 10.09473
647.9799, 9.848319
648.4620, 10.63308
648.9442, 11.73608
649.4263, 12.51834
649.9084, 12.97461
650.3905, 12.92147
650.8726, 12.06444
651.3547, 11.48968
651.8369, 11.87940
652.3190, 12.53481
652.8011, 12.70029
653.2832, 12.34190
653.7653, 12.03721
654.2474, 12.18757
654.7296, 12.34129
655.2117, 11.94881
655.6938, 11.17717
656.1759, 10.56266
656.6580, 10.31106
657.1401, 10.37181
657.6223, 10.71892
658.1044, 11.43660
658.5865, 11.93410
659.0686, 11.97357
659.5507, 12.05565
660.0328, 12.39753
660.5150, 12.79442
660.9971, 13.02991
661.4792, 13.05258
661.9613, 12.89991
662.4434, 12.35050
662.9255, 11.70918
663.4077, 11.86297
663.8898, 12.83397
664.3719, 13.53560
664.8540, 13.43655
665.3361, 12.87521
665.8182, 12.41522
666.3004, 12.07582
666.7825, 11.78012
667.2646, 11.42363
667.7467, 11.21550
668.2288, 11.39390
668.7109, 11.74691
669.1931, 11.91304
669.6752, 11.78139
670.1573, 11.58142
670.6394, 11.63858
671.1215, 11.92111
671.6036, 11.95650
672.0858, 11.63442
672.5679, 11.40910
673.0500, 11.57738
673.5321, 11.90401
674.0142, 11.99741
674.4963, 11.80529
674.9785, 11.75224
675.4606, 12.16363
675.9427, 12.58924
676.4248, 12.59559
676.9069, 12.31400
677.3890, 12.16226
677.8712, 12.30356
678.3533, 12.44077
678.8354, 12.01859
679.3175, 10.89737
679.7996, 10.63189
680.2817, 11.94412
680.7639, 13.02066
681.2460, 13.06232
681.7281, 12.66147
682.2102, 12.45501
682.6923, 12.53479
683.1744, 12.60334
683.6566, 12.40999
684.1387, 12.17436
684.6208, 12.22952
685.1029, 12.51627
685.5850, 12.69913
686.0671, 12.62664
686.5493, 12.47242
687.0314, 12.51504
687.5135, 12.81786
687.9956, 12.97485
688.4777, 13.03262
688.9598, 12.88225
689.4420, 12.18986
689.9241, 11.43785
690.4062, 11.22062
690.8883, 11.62483
691.3704, 12.15143
691.8525, 12.52567
692.3347, 12.73341
692.8168, 12.69511
693.2989, 12.42632
693.7810, 12.14024
694.2631, 11.87772
694.7452, 11.75315
695.2274, 11.97725
695.7095, 12.65068
696.1916, 13.05536
696.6737, 12.94891
697.1558, 12.88780
697.6379, 13.11364
698.1201, 13.44005
698.6022, 13.64272
699.0843, 13.68690
699.5664, 13.69463
700.0485, 13.77241
700.5306, 13.88548
701.0128, 13.95104
701.4949, 13.96968
701.9770, 13.90411
702.4591, 13.69354
702.9412, 13.48788
703.4233, 13.43834
703.9055, 13.55303
704.3876, 13.86345
704.8697, 14.50135
705.3518, 15.17876
705.8339, 15.83582
706.3160, 16.45375
706.7982, 17.10297
707.2803, 17.72945
707.7624, 18.01872
708.2445, 17.55905
708.7266, 16.77171
709.2087, 16.95393
709.6909, 18.20504
710.1730, 19.33090
710.6551, 20.00319
711.1372, 20.57218
711.6193, 21.38133
712.1014, 22.38450
712.5836, 23.30304
713.0657, 23.83851
713.5478, 24.64155
714.0299, 26.15428
714.5120, 27.90133
714.9941, 29.33938
715.4763, 30.48269
715.9584, 31.75237
716.4405, 33.49102
716.9226, 35.36869
717.4047, 36.47551
717.8868, 36.69935
718.3690, 37.25139
718.8511, 38.33349
719.3332, 39.70507
719.8153, 41.17701
720.2974, 42.80976
720.7795, 44.78191
721.2617, 47.15755
721.7438, 49.75270
722.2259, 52.64791
722.7080, 55.61510
723.1901, 58.17019
723.6722, 60.57930
724.1544, 63.71695
724.6365, 68.03867
725.1186, 73.25926
725.6007, 79.06975
726.0828, 85.48146
726.5649, 91.70366
727.0471, 97.10748
727.5292, 103.5997
728.0113, 113.6095
728.4934, 124.7255
728.9755, 133.5377
729.4576, 139.9509
729.9398, 143.7238
730.4219, 145.8180
730.9040, 144.3777
731.3861, 136.9298
731.8682, 124.9927
732.3503, 111.1181
732.8325, 96.44037
733.3146, 82.27483
733.7967, 70.22825
734.2788, 60.27119
734.7609, 51.98112
735.2430, 45.43790
735.7252, 40.38024
736.2073, 37.27964
736.6894, 35.23151
737.1715, 33.21163
737.6536, 31.22477
738.1357, 29.41777
738.6179, 27.76708
739.1000, 26.36172
739.5821, 25.21258
740.0642, 24.35019
740.5463, 23.90705
741.0284, 23.84358
741.5106, 23.82647
741.9927, 23.60250
742.4748, 23.18101
742.9569, 22.51400
743.4390, 21.51395
743.9211, 20.83593
744.4033, 20.80358
744.8854, 20.81832
745.3675, 20.37105
745.8496, 19.56990
746.3317, 18.74755
746.8138, 17.77546
747.2960, 17.04202
747.7781, 16.96013
748.2602, 16.95440
748.7423, 16.39396
749.2244, 15.39832
749.7065, 14.47380
750.1887, 13.87041
750.6708, 13.56870
751.1529, 13.74301
751.6350, 14.36096
752.1171, 14.17397
752.5992, 12.82032
753.0814, 11.64557
753.5635, 11.38033
754.0456, 11.71460
754.5277, 12.13260
755.0098, 12.74127
755.4919, 12.95027
755.9741, 12.26087
756.4562, 11.59943
756.9383, 11.52829
757.4204, 11.79251
757.9025, 11.98123
758.3846, 11.98930
758.8668, 11.96595
759.3489, 12.06239
759.8310, 12.22837
760.3131, 12.32254
760.7952, 12.34444
761.2773, 12.28915
761.7595, 12.12726
762.2416, 11.96207
762.7237, 11.92908
763.2058, 12.02010
763.6879, 11.94552
764.1700, 11.37460
764.6522, 11.10024
765.1343, 11.49082
765.6164, 12.04289
766.0985, 12.41827
766.5806, 12.58172
767.0627, 12.60290
767.5449, 12.52204
768.0270, 12.28892
768.5091, 11.61262
768.9912, 10.72862
769.4733, 10.62639
769.9554, 11.42829
770.4376, 12.00772
770.9197, 11.63893
771.4018, 10.77036
771.8839, 10.41918
772.3660, 10.77992
772.8481, 11.10314
773.3303, 11.40761
773.8124, 11.65876
774.2945, 11.93970
774.7766, 12.11093
775.2587, 11.88298
775.7408, 11.24501
776.2230, 10.80059
776.7051, 11.11700
777.1872, 11.67428
777.6693, 11.76629
778.1514, 11.56312
778.6335, 11.75284
779.1157, 12.50231
779.5978, 13.01081
780.0799, 12.39977
780.5620, 10.91369
781.0441, 10.19209
781.5262, 10.51301
782.0084, 10.95531
782.4905, 11.58010
782.9726, 12.09788
783.4547, 12.29014
783.9368, 12.25009
784.4189, 12.22229
784.9011, 12.31139
785.3832, 12.27595
785.8653, 11.86297
786.3474, 11.36795
786.8295, 11.04385
787.3116, 10.92513
787.7938, 11.08783
788.2759, 11.55923
788.7580, 12.02138
789.2401, 11.91183
789.7222, 11.27241
790.2043, 11.12377
790.6865, 11.61992
791.1686, 11.95704
791.6507, 11.72940
792.1328, 11.32773
792.6149, 11.22250
793.0970, 11.41310
793.5792, 11.73455
794.0613, 12.64284
794.5434, 13.09857
795.0255, 12.34823
795.5076, 11.29376
795.9897, 10.80361
796.4719, 10.89279
796.9540, 11.13785
797.4361, 11.35371
797.9182, 11.44644
798.4003, 11.10116
798.8824, 10.50154
799.3646, 10.50270
799.8467, 11.22174
800.3288, 11.81508
800.8109, 11.75658
801.2930, 11.36436
801.7751, 11.34344
802.2573, 11.86614
802.7394, 12.18076
803.2215, 12.04246
803.7036, 11.98145
804.1857, 12.32790
804.6678, 12.71305
805.1500, 12.63032
805.6321, 12.07610
806.1142, 11.69091
806.5963, 12.05085
807.0784, 12.43986
807.5605, 12.14677
808.0427, 11.47672
808.5248, 10.89537
809.0069, 10.54841
809.4890, 10.68180
809.9711, 11.56814
810.4532, 12.77749
810.9354, 13.06288
811.4175, 12.27800
811.8996, 11.71219
812.3817, 11.46922
812.8638, 11.50054
813.3459, 11.97011
813.8281, 12.61470
814.3102, 12.82937
814.7923, 12.45962
815.2744, 12.31698
815.7565, 12.72173
816.2386, 13.15222
816.7208, 13.41796
817.2029, 13.50473
817.6850, 13.33123
818.1671, 12.93775
818.6492, 12.62869
819.1313, 12.68023
819.6135, 12.88813
820.0956, 12.88291
820.5777, 12.72615
821.0598, 12.76127
821.5419, 13.06597
822.0240, 13.22429
822.5062, 12.87536
822.9883, 12.23136
823.4704, 11.99119
823.9525, 12.30121
824.4346, 12.66701
824.9167, 13.27732
825.3989, 13.69899
825.8810, 13.72385
826.3631, 13.48624
826.8452, 13.08245
827.3273, 12.51176
827.8094, 12.13846
828.2916, 12.16778
828.7737, 12.37279
829.2558, 12.70700
829.7379, 13.05534
830.2200, 13.20877
830.7021, 13.16013
831.1843, 13.12147
831.6664, 13.26585
832.1485, 13.49560
832.6306, 13.55359
833.1127, 13.45458
833.5948, 13.60472
834.0770, 14.15296
834.5591, 14.42825
835.0412, 13.87561
835.5233, 12.91916
836.0054, 12.59836
836.4875, 13.20189
836.9697, 13.61588
837.4518, 13.69737
837.9339, 13.77576
838.4160, 14.02580
838.8981, 14.28255
839.3802, 14.32366
839.8624, 14.15541
840.3445, 14.03346
840.8266, 14.20005
841.3087, 14.32502
841.7908, 14.00860
842.2729, 13.51341
842.7551, 13.27013
843.2372, 13.32832
843.7193, 13.56893
844.2014, 13.93923
844.6835, 14.29937
845.1656, 14.36617
845.6478, 14.13764
846.1299, 13.89874
846.6120, 13.65382
847.0941, 13.40879
847.5762, 13.10589
848.0583, 12.88307
848.5405, 13.00875
849.0226, 13.55120
849.5047, 13.76878
849.9868, 13.22132
850.4689, 12.94038
850.9510, 13.43405
851.4332, 14.05497
851.9153, 14.33036
852.3974, 14.24863
852.8795, 13.88830
853.3616, 13.13403
853.8438, 12.59523
854.3259, 12.93462
854.8080, 13.67691
855.2901, 14.25122
855.7722, 14.58595
856.2543, 14.61079
856.7365, 14.30517
857.2186, 13.96696
857.7007, 14.00864
858.1828, 14.34971
858.6649, 14.30245
859.1470, 13.74666
859.6292, 13.61261
860.1113, 14.32727
860.5934, 15.08572
861.0755, 15.13125
861.5576, 14.62581
862.0397, 14.40558
862.5219, 14.57145
863.0040, 14.84536
863.4861, 15.57429
863.9682, 16.03057
864.4503, 15.54429
864.9324, 14.67951
865.4146, 14.32193
865.8967, 14.64533
866.3788, 14.98908
866.8609, 14.98626
867.3430, 14.82162
867.8251, 14.57503
868.3073, 14.32834
868.7894, 14.21680
869.2715, 14.27248
869.7536, 14.54457
870.2357, 15.11751
870.7178, 15.71181
871.2000, 15.74568
871.6821, 15.22726
872.1642, 14.36701
872.6463, 13.04341
873.1284, 12.13849
873.6105, 12.16849
874.0927, 12.67590
874.5748, 13.01882
875.0569, 13.21749
875.5390, 13.09037
876.0211, 12.14615
876.5032, 11.52874
876.9854, 11.56252
877.4675, 11.84514
877.9496, 12.14885
878.4317, 12.44385
878.9138, 12.75007
879.3959, 13.17739
879.8781, 13.31052
880.3602, 12.54843
880.8423, 11.70752
881.3244, 11.73012
881.8065, 12.28433
882.2886, 12.44264
882.7708, 11.97195
883.2529, 11.62257
883.7350, 12.26847
884.2171, 13.36595
884.6992, 13.56146
885.1813, 12.96943
885.6635, 12.45367
886.1456, 12.17054
886.6277, 12.11734
887.1098, 12.33269
887.5919, 12.69148
888.0740, 12.87702
888.5562, 12.87507
889.0383, 12.73317
889.5204, 12.29139
890.0025, 11.98073
890.4846, 12.10421
890.9667, 12.32902
891.4489, 12.20917
891.9310, 11.78996
892.4131, 11.70748
892.8952, 12.52996
893.3773, 13.06822
893.8594, 12.75111
894.3416, 12.19253
894.8237, 11.81610
895.3058, 11.63844
895.7879, 11.57150
896.2700, 11.58584
896.7521, 11.66006
897.2343, 11.82301
897.7164, 12.00513
898.1985, 12.11182
898.6806, 12.15345
899.1627, 12.15930
899.6448, 12.14112
900.1270, 12.13442
900.6091, 12.18124
901.0912, 12.22456
901.5733, 12.07375
902.0554, 11.72381
902.5375, 11.54245
903.0197, 11.62516
903.5018, 11.57011
903.9839, 11.13490
904.4660, 10.52141
904.9481, 10.01013
905.4302, 9.578570
905.9124, 9.473049
906.3945, 9.899062
906.8766, 10.35785
907.3587, 10.89426
907.8408, 11.32461
908.3229, 11.53263
908.8051, 11.53364
909.2872, 11.35129
909.7693, 10.90205
910.2514, 10.55855
910.7335, 10.47191
911.2156, 10.52744
911.6978, 10.74905
912.1799, 11.00910
912.6620, 11.11176
913.1441, 11.03295
913.6262, 10.90409
914.1083, 10.77737
914.5905, 10.70677
915.0726, 10.84476
915.5547, 11.07458
916.0368, 11.04007
916.5189, 10.75934
917.0010, 10.65586
917.4832, 10.95080
917.9652, 11.31626
918.4473, 11.23747
918.9294, 10.76759
919.4116, 10.48777
919.8937, 10.42664
920.3758, 10.36137
920.8579, 10.23063
921.3400, 10.09199
921.8221, 9.940615
922.3043, 9.842096
922.7864, 10.08033
923.2685, 11.08986
923.7506, 11.47960
924.2327, 10.70406
924.7148, 9.946436
925.1970, 9.468434
925.6791, 9.276865
926.1612, 9.553224
926.6433, 10.22530
927.1254, 10.51661
927.6075, 9.702040
928.0897, 9.190401
928.5718, 9.935101
929.0539, 10.82831
929.5360, 10.78251
930.0181, 10.12539
930.5002, 9.784871
930.9824, 10.04954
931.4645, 10.29976
931.9466, 9.813591
932.4287, 9.238824
932.9108, 9.530604
933.3929, 10.34647
933.8751, 10.93974
934.3572, 11.16152
934.8393, 11.10003
935.3214, 10.78733
935.8035, 10.40333
936.2856, 10.26462
936.7678, 10.34187
937.2499, 10.48588
937.7320, 10.69729
938.2141, 10.64296
938.6962, 10.15467
939.1783, 9.662938
939.6605, 9.671155
940.1426, 10.05695
940.6247, 10.00343
941.1068, 9.192542
941.5889, 8.965178
942.0710, 9.872805
942.5532, 10.60539
943.0353, 10.29434
943.5174, 9.555100
943.9995, 9.440466
944.4816, 10.02247
944.9637, 10.29968
945.4459, 9.902300
945.9280, 9.652454
946.4101, 9.749118
946.8922, 10.03992
947.3743, 10.67713
947.8564, 11.35818
948.3386, 11.33856
948.8207, 10.29999
949.3028, 9.540630
949.7849, 9.945798
950.2670, 10.53714
950.7491, 10.64873
951.2313, 10.46150
951.7134, 10.20920
952.1955, 9.972017
952.6776, 9.835968
953.1597, 9.878796
953.6418, 9.911152
954.1240, 9.556303
954.6061, 9.132668
955.0882, 9.307528
955.5703, 9.967750
956.0524, 10.57511
956.5345, 10.95474
957.0167, 11.28222
957.4988, 11.78529
957.9809, 12.22565
958.4630, 11.76780
958.9451, 10.52083
959.4272, 10.01595
959.9094, 10.46008
960.3915, 10.96578
960.8736, 11.13033
961.3557, 11.03487
961.8378, 10.74269
962.3199, 10.26955
962.8021, 10.12466
963.2842, 10.45678
963.7663, 10.61540
964.2484, 10.34697
964.7305, 10.16924
965.2126, 10.56432
965.6948, 11.19077
966.1769, 11.23826
966.6590, 10.50418
967.1411, 9.986259
967.6232, 9.573413
968.1053, 9.519829
968.5875, 10.34964
969.0696, 11.15424
969.5517, 11.06117
970.0338, 10.36483
970.5159, 9.994041
970.9980, 10.13876
971.4802, 10.50483
971.9623, 11.27542
972.4444, 11.94594
972.9265, 12.22704
973.4086, 12.24079
973.8907, 12.14083
974.3729, 11.94632
974.8550, 11.55478
975.3371, 10.74026
975.8192, 10.19955
976.3013, 10.73879
976.7834, 11.57956
977.2656, 11.91156
977.7477, 11.80717
978.2298, 11.40413
978.7119, 10.84704
979.1940, 10.70993
979.6761, 11.61102
980.1583, 12.77144
980.6404, 12.96976
981.1225, 12.57458
981.6046, 12.54155
982.0867, 12.85111
982.5688, 12.83027
983.0510, 12.21578
983.5331, 11.50309
984.0152, 11.21003
984.4973, 11.27178
984.9794, 11.65208
985.4615, 12.29407
985.9437, 12.28575
986.4258, 11.46515
986.9079, 10.87130
987.3900, 11.09680
987.8721, 11.66574
988.3542, 11.83227
988.8364, 11.61658
989.3185, 11.50780
989.8006, 11.48750
990.2827, 11.71844
990.7648, 12.39808
991.2469, 12.87101
991.7291, 12.59959
992.2112, 11.95181
992.6933, 11.74810
993.1754, 12.10141
993.6575, 12.26287
994.1396, 12.05753
994.6218, 11.98008
995.1039, 12.35318
995.5860, 12.65702
996.0681, 12.33881
996.5502, 11.67073
997.0323, 11.39977
997.5145, 11.63344
997.9966, 11.96253
998.4787, 12.63256
998.9608, 13.04931
999.4429, 12.72925
999.9250, 12.31442
1000.407, 12.48716
1000.889, 13.06900
1001.371, 13.31355
1001.854, 12.91476
1002.336, 12.67264
1002.818, 12.93793
1003.300, 13.30909
1003.782, 13.67073
1004.264, 13.93300
1004.746, 13.91921
1005.228, 13.70009
1005.710, 13.59242
1006.193, 13.68344
1006.675, 14.00191
1007.157, 15.00002
1007.639, 15.83040
1008.121, 15.39067
1008.603, 14.37884
1009.085, 14.04125
1009.567, 14.51479
1010.049, 15.07173
1010.532, 15.30964
1011.014, 15.48144
1011.496, 15.92604
1011.978, 16.38847
1012.460, 16.36117
1012.942, 16.06413
1013.424, 16.21884
1013.906, 16.91349
1014.389, 17.33470
1014.871, 16.74295
1015.353, 15.96300
1015.835, 16.30244
1016.317, 17.32576
1016.799, 18.07426
1017.281, 18.49343
1017.763, 18.68249
1018.245, 18.69560
1018.728, 18.75534
1019.210, 19.10570
1019.692, 19.52451
1020.174, 19.44579
1020.656, 18.99492
1021.138, 18.71833
1021.620, 18.68043
1022.102, 19.12529
1022.585, 20.15394
1023.067, 21.25663
1023.549, 21.88950
1024.031, 22.20675
1024.513, 22.74248
1024.995, 23.48832
1025.477, 24.12356
1025.959, 24.62490
1026.442, 24.93353
1026.924, 24.99495
1027.406, 25.01027
1027.888, 25.21388
1028.370, 25.56926
1028.852, 25.87457
1029.334, 26.12004
1029.816, 26.39022
1030.298, 26.69291
1030.781, 26.98969
1031.263, 27.19027
1031.745, 27.58087
1032.227, 28.64103
1032.709, 30.21615
1033.191, 30.91351
1033.673, 30.35920
1034.155, 30.19239
1034.637, 30.61057
1035.120, 31.30377
1035.602, 32.35806
1036.084, 33.29173
1036.566, 33.31511
1037.048, 32.53278
1037.530, 32.66912
1038.012, 34.34779
1038.494, 35.53989
1038.977, 35.77763
1039.459, 36.07013
1039.941, 37.08370
1040.423, 38.17957
1040.905, 38.38066
1041.387, 37.74647
1041.869, 37.74851
1042.351, 38.73389
1042.833, 39.77641
1043.316, 41.01289
1043.798, 42.08946
1044.280, 43.03577
1044.762, 43.63451
1045.244, 43.27362
1045.726, 42.06331
1046.208, 41.84272
1046.690, 43.36516
1047.172, 44.83086
1047.655, 46.47981
1048.137, 47.60768
1048.619, 47.46928
1049.101, 46.91925
1049.583, 46.90567
1050.065, 47.45094
1050.547, 48.22861
1051.029, 49.41962
1051.512, 50.48355
1051.994, 51.38247
1052.476, 52.10445
1052.958, 52.51539
1053.440, 52.82915
1053.922, 53.18827
1054.404, 53.65554
1054.886, 54.51457
1055.369, 56.14420
1055.851, 57.55244
1056.333, 58.39016
1056.815, 59.09089
1057.297, 59.69336
1057.779, 60.40298
1058.261, 61.36928
1058.743, 62.64051
1059.225, 64.41763
1059.708, 67.18230
1060.190, 69.41997
1060.672, 70.06392
1061.154, 70.75674
1061.636, 72.24928
1062.118, 74.41024
1062.600, 77.28416
1063.082, 80.65195
1063.564, 83.69235
1064.047, 86.05053
1064.529, 88.56682
1065.011, 91.43651
1065.493, 94.69863
1065.975, 98.45393
1066.457, 102.5606
1066.939, 106.9546
1067.421, 111.5339
1067.904, 115.8920
1068.386, 119.6051
1068.868, 124.4211
1069.350, 131.8860
1069.832, 139.6639
1070.314, 146.0965
1070.796, 152.3550
1071.278, 159.3783
1071.760, 167.4489
1072.243, 176.8705
1072.725, 187.7072
1073.207, 199.7593
1073.689, 213.0646
1074.171, 227.4101
1074.653, 242.1654
1075.135, 258.4055
1075.617, 277.0930
1076.099, 298.2882
1076.582, 321.4184
1077.064, 346.3304
1077.546, 373.5709
1078.028, 403.6848
1078.510, 436.0103
1078.992, 470.9339
1079.474, 507.2895
1079.956, 543.0758
1080.439, 579.7204
1080.921, 620.5319
1081.403, 666.2489
1081.885, 713.3928
1082.367, 759.2284
1082.849, 808.0190
1083.331, 861.7835
1083.813, 918.9686
1084.295, 977.7405
1084.778, 1039.219
1085.260, 1106.576
1085.742, 1179.941
1086.224, 1256.998
1086.706, 1337.455
1087.188, 1420.270
1087.670, 1504.761
1088.152, 1592.155
1088.635, 1684.369
1089.117, 1779.707
1089.599, 1878.173
1090.081, 1978.220
1090.563, 2072.166
1091.045, 2164.386
1091.527, 2233.697
1092.009, 2276.132
1092.491, 2287.380
1092.974, 2261.868
1093.456, 2205.293
1093.938, 2120.038
1094.420, 2010.223
1094.902, 1885.243
1095.384, 1744.465
1095.866, 1598.920
1096.348, 1444.595
1096.830, 1296.294
1097.313, 1159.086
1097.795, 1033.288
1098.277, 918.4665
1098.759, 814.7698
1099.241, 723.3017
1099.723, 644.5051
1100.205, 574.1394
1100.687, 511.9590
1101.170, 457.0435
1101.652, 410.0771
1102.134, 369.3242
1102.616, 334.4193
1103.098, 304.3577
1103.580, 277.3887
1104.062, 253.4472
1104.544, 231.6731
1105.026, 212.4183
1105.509, 194.8042
1105.991, 178.6585
1106.473, 164.0278
1106.955, 151.1522
1107.437, 139.7173
1107.919, 129.2394
1108.401, 119.6901
1108.883, 111.3210
1109.365, 104.4622
1109.848, 98.26906
1110.330, 92.89591
1110.812, 87.80648
1111.294, 82.86278
1111.776, 78.00076
1112.258, 72.94066
1112.740, 67.86049
1113.222, 63.63756
1113.705, 60.50866
1114.187, 57.82487
1114.669, 55.85208
1115.151, 53.94643
1115.633, 52.23669
1116.115, 50.22229
1116.597, 47.12547
1117.079, 43.50026
1117.562, 40.87463
1118.044, 39.46943
1118.526, 38.13086
1119.008, 36.97291
1119.490, 35.67848
1119.972, 33.99007
1120.454, 32.44473
1120.936, 31.43273
1121.418, 30.68130
1121.901, 29.68395
1122.383, 28.42477
1122.865, 27.64395
1123.347, 27.54190
1123.829, 27.40530
1124.311, 27.24336
1124.793, 26.85714
1125.275, 26.11757
1125.757, 25.17445
1126.240, 24.12916
1126.722, 23.05695
1127.204, 22.42353
1127.686, 22.39983
1128.168, 21.92624
1128.650, 20.81010
1129.132, 19.90328
1129.614, 19.47334
1130.097, 19.30412
1130.579, 19.25649
1131.061, 19.26629
1131.543, 19.16864
1132.025, 18.96148
1132.507, 18.85405
1132.989, 18.86536
1133.471, 18.62560
1133.953, 18.04083
1134.436, 17.45964
1134.918, 17.08369
1135.400, 16.79177
1135.882, 16.38262
1136.364, 15.93165
1136.846, 15.75260
1137.328, 15.83638
1137.810, 16.28869
1138.292, 17.04698
1138.775, 17.12767
1139.257, 16.16900
1139.739, 15.10156
1140.221, 14.76122
1140.703, 14.88206
1141.185, 15.13147
1141.667, 15.36209
1142.149, 14.92505
1142.632, 14.03806
1143.114, 13.75773
1143.596, 14.22281
1144.078, 14.55028
1144.560, 14.20692
1145.042, 13.66149
1145.524, 13.34491
1146.006, 13.26936
1146.489, 13.70697
1146.971, 14.28770
1147.453, 14.07600
1147.935, 13.28174
1148.417, 13.06709
1148.899, 13.79524
1149.381, 14.33758
1149.863, 13.57547
1150.345, 12.69345
1150.828, 12.88236
1151.310, 13.44049
1151.792, 13.66180
1152.274, 13.58910
1152.756, 13.28591
1153.238, 12.87865
1153.720, 12.89895
1154.202, 13.81949
1154.684, 14.42635
1155.167, 13.73978
1155.649, 12.94616
1156.131, 12.96829
1156.613, 13.15832
1157.095, 12.62320
1157.577, 11.64903
1158.059, 11.13874
1158.541, 11.26491
1159.024, 11.75535
1159.506, 13.09819
1159.988, 14.01402
1160.470, 13.92136
1160.952, 13.53462
1161.434, 13.25919
1161.916, 12.97777
1162.398, 12.29078
1162.880, 11.26022
1163.363, 11.09930
1163.845, 12.77478
1164.327, 13.50422
1164.809, 12.50386
1165.291, 11.90519
1165.773, 12.69037
1166.255, 13.60845
1166.737, 13.51173
1167.219, 12.88804
1167.702, 13.03261
1168.184, 14.06291
1168.666, 14.60356
1169.148, 14.60940
1169.630, 14.28204
1170.112, 13.55837
1170.594, 12.95985
1171.076, 12.74136
1171.559, 12.84974
1172.041, 13.31917
1172.523, 13.92691
1173.005, 13.64153
1173.487, 12.57405
1173.969, 12.14610
1174.451, 12.41948
1174.933, 13.02148
1175.416, 13.82061
1175.898, 14.39150
1176.380, 14.40720
1176.862, 14.30864
1177.344, 15.03410
1177.826, 15.97587
1178.308, 15.38577
1178.790, 13.94548
1179.272, 13.50237
1179.755, 14.05760
1180.237, 14.53563
1180.719, 14.54220
1181.201, 14.42095
1181.683, 14.37870
1182.165, 14.40759
1182.647, 14.52594
1183.129, 14.68825
1183.611, 14.90432
1184.094, 15.09445
1184.576, 15.14289
1185.058, 15.03770
1185.540, 14.75528
1186.022, 14.18665
1186.504, 13.97324
1186.986, 14.81479
1187.468, 15.54229
1187.951, 15.48147
1188.433, 15.17391
1188.915, 14.91946
1189.397, 14.81456
1189.879, 15.07613
1190.361, 15.71031
1190.843, 15.99310
1191.325, 15.50005
1191.807, 15.24725
1192.290, 15.58370
1192.772, 15.70236
1193.254, 15.13097
1193.736, 14.51907
1194.218, 14.40554
1194.700, 14.69355
1195.182, 15.19703
1195.664, 15.96705
1196.146, 16.25501
1196.629, 15.94694
1197.111, 15.84755
1197.593, 16.16683
1198.075, 15.99557
1198.557, 14.78339
1199.039, 13.72670
1199.521, 14.26513
1200.003, 15.69177
1200.486, 15.97384
1200.968, 15.38192
1201.450, 15.34076
1201.932, 15.80076
1202.414, 16.19032
1202.896, 16.34813
1203.378, 16.07870
1203.860, 15.25794
1204.343, 14.65852
1204.825, 15.50728
1205.307, 16.65302
1205.789, 16.38826
1206.271, 15.52219
1206.753, 15.12407
1207.235, 15.20575
1207.717, 15.69318
1208.199, 16.42557
1208.682, 16.65361
1209.164, 15.77001
1209.646, 15.20981
1210.128, 16.14584
1210.610, 17.06067
1211.092, 16.85870
1211.574, 16.40003
1212.056, 16.67208
1212.538, 17.29123
1213.021, 17.24713
1213.503, 16.39557
1213.985, 15.78455
1214.467, 15.37011
1214.949, 15.41889
1215.431, 16.28816
1215.913, 17.03938
1216.395, 17.29162
1216.878, 17.38552
1217.360, 17.66805
1217.842, 17.96457
1218.324, 17.75183
1218.806, 17.01139
1219.288, 16.71055
1219.770, 16.87845
1220.252, 17.03753
1220.734, 17.11770
1221.217, 16.99387
1221.699, 16.60231
1222.181, 16.43267
1222.663, 17.04985
1223.145, 17.92942
1223.627, 17.97218
1224.109, 17.57795
1224.591, 17.84907
1225.073, 18.45997
1225.556, 18.31488
1226.038, 17.45533
1226.520, 16.83158
1227.002, 16.81941
1227.484, 16.92430
1227.966, 16.76007
1228.448, 16.63754
1228.930, 16.86883
1229.413, 17.14637
1229.895, 17.18972
1230.377, 17.10786
1230.859, 17.09031
1231.341, 17.12170
1231.823, 17.02314
1232.305, 16.69040
1232.787, 16.50519
1233.270, 16.63458
1233.752, 16.73026
1234.234, 16.46592
1234.716, 16.57107
1235.198, 17.88131
1235.680, 19.12265
1236.162, 18.46906
1236.644, 16.45996
1237.126, 15.75074
1237.609, 16.48599
1238.091, 17.06484
1238.573, 17.44870
1239.055, 17.80321
1239.537, 18.16374
1240.019, 18.36258
1240.501, 18.31236
1240.983, 17.90401
1241.465, 16.76225
1241.948, 15.59265
1242.430, 16.04398
1242.912, 17.32649
1243.394, 17.86477
1243.876, 17.78709
1244.358, 17.72486
1244.840, 17.74476
1245.322, 17.43545
1245.805, 16.58141
1246.287, 15.93582
1246.769, 16.08169
1247.251, 16.37431
1247.733, 16.41707
1248.215, 16.49858
1248.697, 16.99660
1249.179, 17.58457
1249.661, 17.70252
1250.144, 17.42670
1250.626, 17.47065
1251.108, 18.04991
1251.590, 18.36943
1252.072, 18.30137
1252.554, 18.25401
1253.036, 18.27738
1253.518, 18.44419
1254.000, 18.90759
1254.483, 19.14064
1254.965, 18.39437
1255.447, 17.12992
1255.929, 16.89124
1256.411, 17.50187
1256.893, 17.69127
1257.375, 17.50012
1257.857, 17.40210
1258.340, 17.48297
1258.822, 17.65691
1259.304, 17.87928
1259.786, 18.02538
1260.268, 17.87319
1260.750, 17.80518
1261.232, 18.43848
1261.714, 19.12779
1262.197, 19.06605
1262.679, 18.69917
1263.161, 18.70782
1263.643, 19.05208
1264.125, 19.39185
1264.607, 19.70917
1265.089, 19.58232
1265.571, 18.29803
1266.053, 17.56174
1266.536, 17.98088
1267.018, 18.45003
1267.500, 18.44201
1267.982, 18.52894
1268.464, 19.39983
1268.946, 20.52315
##END=



