##NAMES=Sodalite
##RRUFFID=R060355
##IDEAL CHEMISTRY=Na_4_Si_3_Al_3_O_12_Cl
##LOCALITY=Mont Saint-Hilaire, Quebec, Canada
##OWNER=RRUFF
##SOURCE=Herb Obodda
##DESCRIPTION=Clear colorless fragment
##STATUS=The identification of this mineral has been confirmed by X-ray diffraction and chemical analysis
##URL=rruff.info/R060355
##MEASURED CHEMISTRY=(Na_0.98_[box]_0.02_)_8_Al_6.00_(Si_0.99_Al_0.01_)_6_O_24_Cl_1.82_
91.53320, 225.9604
92.01532, 224.5104
92.49744, 223.2862
92.97955, 225.2160
93.46167, 228.0650
93.94379, 230.5351
94.42590, 234.8174
94.90802, 239.0725
95.39014, 241.0487
95.87225, 240.9525
96.35437, 238.5283
96.83649, 233.2294
97.31860, 226.4402
97.80072, 219.2973
98.28284, 211.8736
98.76495, 204.2034
99.24707, 197.6916
99.72919, 192.8795
100.2113, 188.6597
100.6934, 184.6815
101.1755, 180.9752
101.6577, 177.7345
102.1398, 175.0675
102.6219, 172.9376
103.1040, 171.5736
103.5861, 171.0432
104.0682, 170.9304
104.5504, 170.9314
105.0325, 171.0206
105.5146, 171.4396
105.9967, 172.4543
106.4788, 173.8917
106.9609, 176.5491
107.4431, 180.9137
107.9252, 186.4075
108.4073, 192.5549
108.8894, 199.5349
109.3715, 206.3164
109.8536, 211.2615
110.3358, 214.6287
110.8179, 216.3726
111.3000, 216.3411
111.7821, 214.5871
112.2642, 211.5558
112.7463, 207.0572
113.2285, 201.4100
113.7106, 194.8193
114.1927, 187.1759
114.6748, 179.0272
115.1569, 170.9652
115.6390, 162.4981
116.1212, 155.3092
116.6033, 149.9041
117.0854, 145.7412
117.5675, 142.3949
118.0496, 139.6750
118.5317, 137.5459
119.0139, 135.8687
119.4960, 134.7813
119.9781, 134.0859
120.4602, 134.1367
120.9423, 134.5392
121.4244, 134.5886
121.9066, 133.6626
122.3887, 131.6276
122.8708, 130.5376
123.3529, 131.2147
123.8350, 131.8698
124.3171, 131.3638
124.7993, 129.8036
125.2814, 128.3926
125.7635, 128.4153
126.2456, 130.2755
126.7277, 131.7868
127.2098, 132.5159
127.6920, 133.0601
128.1741, 133.8882
128.6562, 135.0076
129.1383, 136.7912
129.6204, 140.2757
130.1025, 145.2664
130.5847, 149.7668
131.0668, 153.8551
131.5489, 157.0195
132.0310, 157.2374
132.5131, 152.6715
132.9952, 146.3074
133.4774, 140.5296
133.9595, 135.4163
134.4416, 131.1120
134.9237, 127.7123
135.4058, 125.1904
135.8879, 123.6946
136.3701, 124.2691
136.8522, 125.2636
137.3343, 125.7664
137.8164, 125.5530
138.2985, 125.0114
138.7806, 124.8240
139.2628, 125.3008
139.7449, 125.5731
140.2270, 125.4332
140.7091, 125.1457
141.1912, 124.8223
141.6733, 124.5167
142.1555, 124.3939
142.6376, 125.0388
143.1197, 127.8595
143.6018, 129.9124
144.0839, 130.3743
144.5660, 129.9177
145.0482, 129.6353
145.5303, 130.1875
146.0124, 131.4340
146.4945, 132.3246
146.9766, 133.1360
147.4587, 133.4290
147.9409, 132.5882
148.4230, 130.8792
148.9051, 129.5065
149.3872, 129.4289
149.8693, 130.4624
150.3514, 131.0652
150.8336, 130.9198
151.3157, 130.5170
151.7978, 130.1743
152.2799, 129.8631
152.7620, 129.8674
153.2441, 130.6402
153.7263, 131.8739
154.2084, 133.1129
154.6905, 133.9177
155.1726, 134.6582
155.6547, 136.2295
156.1368, 138.9402
156.6190, 141.9717
157.1011, 144.7338
157.5832, 147.4309
158.0653, 150.5074
158.5474, 154.2236
159.0295, 158.5632
159.5117, 163.2784
159.9938, 167.9364
160.4759, 173.5718
160.9580, 180.9292
161.4401, 189.6180
161.9222, 198.6265
162.4044, 207.0615
162.8865, 214.8910
163.3686, 222.5859
163.8507, 231.7137
164.3328, 239.4763
164.8149, 244.6816
165.2971, 247.2557
165.7792, 247.6447
166.2613, 246.3711
166.7434, 243.3251
167.2255, 238.4224
167.7076, 230.5506
168.1898, 221.8583
168.6719, 213.6668
169.1540, 206.2700
169.6361, 199.4979
170.1182, 193.1226
170.6003, 187.2188
171.0825, 181.6348
171.5646, 176.1557
172.0467, 171.0932
172.5288, 166.8314
173.0109, 163.4966
173.4930, 160.8718
173.9752, 158.7438
174.4573, 157.0844
174.9394, 155.6816
175.4215, 154.6984
175.9036, 153.9189
176.3857, 152.8569
176.8679, 151.3097
177.3500, 149.4940
177.8321, 147.7424
178.3142, 146.0669
178.7963, 144.2927
179.2784, 142.1716
179.7606, 139.7583
180.2427, 137.6662
180.7248, 136.2921
181.2069, 135.1091
181.6890, 133.5695
182.1711, 131.6092
182.6533, 129.7568
183.1354, 128.5977
183.6175, 128.2231
184.0996, 127.8203
184.5817, 127.5369
185.0638, 126.9529
185.5460, 125.5854
186.0281, 123.3620
186.5102, 120.9632
186.9923, 119.3913
187.4744, 118.9834
187.9565, 118.5335
188.4387, 117.9448
188.9208, 117.2307
189.4029, 116.2763
189.8850, 115.0708
190.3671, 113.8987
190.8492, 113.3324
191.3314, 113.9409
191.8135, 114.2594
192.2956, 114.0572
192.7777, 113.6342
193.2598, 113.2210
193.7419, 112.9131
194.2241, 112.7007
194.7062, 112.5607
195.1883, 112.7168
195.6704, 112.6766
196.1525, 112.4082
196.6346, 111.9452
197.1168, 111.2388
197.5989, 110.2514
198.0810, 109.1703
198.5631, 108.5632
199.0452, 108.8221
199.5273, 108.9990
200.0095, 108.7963
200.4916, 108.4363
200.9737, 108.3264
201.4558, 108.6950
201.9379, 109.3287
202.4200, 109.5938
202.9022, 109.3084
203.3843, 109.0596
203.8664, 109.1205
204.3485, 109.3868
204.8306, 109.5680
205.3127, 109.5273
205.7949, 109.3365
206.2770, 109.1595
206.7591, 108.9750
207.2412, 108.8418
207.7233, 108.8518
208.2054, 108.9726
208.6876, 108.9951
209.1697, 108.7740
209.6518, 108.4520
210.1339, 108.2691
210.6160, 108.2901
211.0981, 108.2899
211.5803, 107.9091
212.0624, 107.1454
212.5445, 106.8535
213.0266, 107.8232
213.5087, 109.1196
213.9908, 109.8977
214.4730, 110.0095
214.9551, 109.7299
215.4372, 109.2193
215.9193, 108.3999
216.4014, 107.8237
216.8836, 107.9219
217.3657, 108.1739
217.8478, 108.1637
218.3299, 107.7842
218.8120, 107.4239
219.2941, 107.6765
219.7763, 108.7459
220.2584, 109.7603
220.7405, 110.6132
221.2226, 111.3343
221.7047, 111.8660
222.1868, 112.2059
222.6690, 112.5326
223.1511, 113.1965
223.6332, 114.5195
224.1153, 115.4330
224.5974, 115.5820
225.0795, 115.5160
225.5617, 115.5153
226.0438, 115.6935
226.5259, 116.1473
227.0080, 117.1018
227.4901, 118.9720
227.9722, 120.5926
228.4544, 121.6206
228.9365, 122.6008
229.4186, 124.0247
229.9007, 125.9982
230.3828, 128.1780
230.8649, 129.9592
231.3471, 131.2325
231.8292, 132.2204
232.3113, 132.7975
232.7934, 133.1891
233.2755, 133.6395
233.7576, 134.1962
234.2398, 134.6454
234.7219, 134.6062
235.2040, 133.6062
235.6861, 132.9432
236.1682, 132.6827
236.6503, 132.7102
237.1325, 133.0818
237.6146, 133.7813
238.0967, 134.4372
238.5788, 134.4273
239.0609, 133.1953
239.5430, 132.6159
240.0252, 132.9591
240.5073, 133.8809
240.9894, 135.1840
241.4715, 136.8232
241.9536, 138.4964
242.4357, 139.7204
242.9179, 140.2784
243.4000, 141.3789
243.8821, 143.4492
244.3642, 145.9698
244.8463, 148.4292
245.3284, 150.7411
245.8106, 152.9390
246.2927, 155.0213
246.7748, 156.9824
247.2569, 159.0170
247.7390, 160.8125
248.2211, 162.8517
248.7033, 165.9917
249.1854, 170.4975
249.6675, 175.0582
250.1496, 178.0154
250.6317, 179.6802
251.1138, 182.0831
251.5960, 186.0010
252.0781, 190.7357
252.5602, 195.4070
253.0423, 199.8612
253.5244, 204.5306
254.0065, 209.7688
254.4887, 215.4704
254.9708, 221.4969
255.4529, 227.8042
255.9350, 234.4114
256.4171, 241.3753
256.8992, 248.7624
257.3813, 256.1956
257.8635, 263.2900
258.3456, 270.2658
258.8277, 277.6382
259.3098, 285.9903
259.7919, 294.4901
260.2740, 301.9609
260.7562, 308.3389
261.2383, 313.9396
261.7204, 319.3492
262.2025, 323.9803
262.6846, 326.9012
263.1667, 327.6478
263.6489, 326.8047
264.1310, 325.0841
264.6131, 322.4347
265.0952, 319.1202
265.5773, 315.5802
266.0594, 311.2983
266.5416, 305.4644
267.0237, 297.6041
267.5058, 288.8138
267.9879, 280.2826
268.4700, 271.9508
268.9521, 264.2735
269.4343, 258.2237
269.9164, 252.4690
270.3985, 245.8912
270.8806, 238.1559
271.3627, 230.2164
271.8448, 223.2922
272.3270, 217.5123
272.8091, 211.9187
273.2912, 206.0041
273.7733, 200.4005
274.2554, 195.6137
274.7375, 191.6827
275.2197, 188.1317
275.7018, 184.2671
276.1839, 179.9525
276.6660, 176.3049
277.1481, 174.0287
277.6302, 172.1152
278.1124, 170.2646
278.5945, 168.3818
279.0766, 166.3645
279.5587, 163.8530
280.0408, 160.6789
280.5229, 158.4841
281.0051, 158.3271
281.4872, 158.3888
281.9693, 157.8690
282.4514, 156.8688
282.9335, 155.9517
283.4156, 155.6320
283.8978, 155.9225
284.3799, 156.1833
284.8620, 155.9456
285.3441, 156.1905
285.8262, 157.3716
286.3083, 159.2962
286.7905, 161.4855
287.2726, 163.4964
287.7547, 165.4364
288.2368, 168.3613
288.7189, 173.0659
289.2010, 177.8996
289.6832, 182.2359
290.1653, 186.4105
290.6474, 191.0213
291.1295, 196.4262
291.6116, 202.4313
292.0938, 208.2981
292.5759, 214.6058
293.0580, 219.7881
293.5401, 224.0069
294.0222, 226.9138
294.5043, 227.9883
294.9865, 226.9807
295.4686, 224.3301
295.9507, 221.1563
296.4328, 218.0422
296.9149, 213.1721
297.3970, 205.8013
297.8792, 197.1935
298.3613, 188.2342
298.8434, 179.2300
299.3255, 170.3590
299.8076, 161.7995
300.2897, 153.1140
300.7719, 145.8394
301.2540, 140.5381
301.7361, 136.0422
302.2182, 131.6125
302.7003, 127.1342
303.1824, 122.8582
303.6646, 118.9781
304.1467, 115.3602
304.6288, 112.7334
305.1109, 111.7836
305.5930, 111.1420
306.0751, 110.3928
306.5573, 109.4120
307.0394, 108.1060
307.5215, 106.2806
308.0036, 103.8476
308.4857, 102.0576
308.9678, 101.4316
309.4500, 100.9637
309.9321, 100.4769
310.4142, 99.92548
310.8963, 99.24393
311.3784, 98.32973
311.8605, 97.27059
312.3427, 96.78789
312.8248, 97.76118
313.3069, 98.28983
313.7890, 97.65187
314.2711, 96.49047
314.7532, 95.71508
315.2354, 95.79980
315.7175, 96.34929
316.1996, 96.18346
316.6817, 94.60796
317.1638, 93.40047
317.6459, 92.91770
318.1281, 92.75709
318.6102, 92.58706
319.0923, 92.29594
319.5744, 91.95476
320.0565, 91.68762
320.5386, 91.54936
321.0208, 91.35790
321.5029, 90.98331
321.9850, 90.65255
322.4671, 90.63400
322.9492, 90.88231
323.4313, 91.00968
323.9135, 90.47109
324.3956, 89.01647
324.8777, 88.18169
325.3598, 88.54296
325.8419, 88.98857
326.3240, 89.11465
326.8062, 88.95879
327.2883, 88.75509
327.7704, 88.68542
328.2525, 88.73997
328.7346, 88.74038
329.2167, 88.73267
329.6989, 88.60527
330.1810, 88.22334
330.6631, 87.73168
331.1452, 87.36639
331.6273, 87.27213
332.1094, 87.32594
332.5916, 87.11501
333.0737, 86.36872
333.5558, 85.82588
334.0379, 85.64867
334.5200, 85.67862
335.0021, 85.82001
335.4843, 86.03415
335.9664, 86.23727
336.4485, 86.32109
336.9306, 86.32897
337.4127, 86.07595
337.8948, 85.13175
338.3770, 84.24464
338.8591, 83.96335
339.3412, 84.27090
339.8233, 84.66113
340.3055, 84.54462
340.7876, 83.83958
341.2697, 83.46440
341.7518, 83.76041
342.2339, 84.07359
342.7160, 84.19840
343.1982, 84.13884
343.6803, 83.94936
344.1624, 83.64877
344.6445, 83.25113
345.1266, 82.78918
345.6087, 82.05463
346.0909, 81.62122
346.5730, 81.87672
347.0551, 82.42091
347.5372, 82.73073
348.0193, 82.56738
348.5014, 82.17821
348.9836, 81.99057
349.4657, 82.02139
349.9478, 82.20345
350.4299, 82.76172
350.9120, 83.31706
351.3941, 83.58894
351.8763, 83.52538
352.3584, 83.26170
352.8405, 82.85252
353.3226, 82.28770
353.8047, 81.89404
354.2868, 81.83674
354.7690, 81.84160
355.2511, 81.66813
355.7332, 81.37568
356.2153, 81.23154
356.6974, 81.59652
357.1795, 82.28036
357.6617, 82.44949
358.1438, 81.78928
358.6259, 81.25350
359.1080, 81.64196
359.5901, 82.45683
360.0722, 82.87205
360.5544, 82.41279
361.0365, 81.63742
361.5186, 81.30333
362.0007, 81.44275
362.4828, 81.80474
362.9649, 82.48952
363.4471, 83.23698
363.9292, 83.77761
364.4113, 84.08554
364.8934, 84.17820
365.3755, 83.86408
365.8576, 83.26443
366.3398, 83.08767
366.8219, 83.63950
367.3040, 84.45898
367.7861, 85.17573
368.2682, 85.78576
368.7503, 86.07409
369.2325, 85.71113
369.7146, 85.04403
370.1967, 84.65923
370.6788, 84.62225
371.1609, 84.77537
371.6430, 85.09731
372.1252, 85.52380
372.6073, 85.83147
373.0894, 86.09818
373.5715, 86.15004
374.0536, 85.73573
374.5357, 84.92754
375.0179, 84.14140
375.5000, 83.58504
375.9821, 83.17913
376.4642, 82.73133
376.9463, 82.24928
377.4284, 81.72234
377.9106, 80.84875
378.3927, 79.99303
378.8748, 79.95122
379.3569, 81.00788
379.8390, 82.32813
380.3211, 82.78715
380.8033, 82.18443
381.2854, 81.87241
381.7675, 82.31782
382.2496, 82.82073
382.7317, 82.74019
383.2138, 82.10104
383.6960, 81.45036
384.1781, 81.20872
384.6602, 81.34175
385.1423, 81.31047
385.6244, 80.91116
386.1065, 80.60497
386.5887, 80.61055
387.0708, 80.79903
387.5529, 80.90483
388.0350, 80.80275
388.5171, 80.67368
388.9992, 80.93462
389.4814, 82.25256
389.9635, 82.91054
390.4456, 82.32077
390.9277, 81.47183
391.4098, 81.15758
391.8919, 81.48200
392.3741, 82.06363
392.8562, 82.52686
393.3383, 82.86946
393.8204, 83.11915
394.3025, 83.32031
394.7846, 83.39243
395.2668, 83.13539
395.7489, 82.74679
396.2310, 82.60948
396.7131, 82.96962
397.1952, 83.65414
397.6773, 84.05217
398.1595, 83.96026
398.6416, 83.90742
399.1237, 83.83310
399.6058, 83.89648
400.0879, 84.32851
400.5700, 85.14442
401.0522, 86.00887
401.5343, 86.46080
402.0164, 86.39365
402.4985, 86.53461
402.9806, 86.97008
403.4627, 87.57885
403.9449, 88.30913
404.4270, 89.16930
404.9091, 90.18225
405.3912, 91.33437
405.8733, 92.66579
406.3554, 94.30848
406.8376, 96.34509
407.3197, 98.52439
407.8018, 100.7577
408.2839, 103.0712
408.7660, 105.6373
409.2481, 108.6378
409.7303, 111.2563
410.2124, 112.8089
410.6945, 113.2952
411.1766, 112.7231
411.6587, 110.7895
412.1408, 108.1222
412.6230, 105.0918
413.1051, 101.7873
413.5872, 98.91354
414.0693, 96.72836
414.5514, 95.16587
415.0335, 94.30551
415.5157, 94.20881
415.9978, 94.16656
416.4799, 93.62771
416.9620, 92.81930
417.4441, 92.45768
417.9262, 92.98673
418.4084, 93.40861
418.8905, 92.84616
419.3726, 91.72649
419.8547, 91.22507
420.3368, 91.81689
420.8189, 92.93394
421.3011, 93.71067
421.7832, 94.11890
422.2653, 94.33508
422.7474, 94.02706
423.2295, 93.77012
423.7116, 94.19832
424.1938, 95.26933
424.6759, 96.32624
425.1580, 96.82793
425.6401, 96.81882
426.1222, 97.15154
426.6043, 98.19102
427.0865, 99.09161
427.5686, 99.26051
428.0507, 99.28627
428.5328, 100.1666
429.0149, 102.2619
429.4970, 104.7861
429.9792, 106.3221
430.4613, 106.2279
430.9434, 106.5413
431.4255, 107.4493
431.9076, 108.5225
432.3897, 109.6749
432.8719, 110.7976
433.3540, 111.6666
433.8361, 112.0434
434.3182, 112.0230
434.8003, 112.2968
435.2824, 112.9234
435.7646, 113.7868
436.2467, 114.9464
436.7288, 116.2493
437.2109, 117.4933
437.6930, 118.6135
438.1751, 119.8052
438.6573, 121.2566
439.1394, 122.9564
439.6215, 125.1131
440.1036, 127.9282
440.5857, 131.0549
441.0678, 134.2647
441.5500, 137.5757
442.0321, 141.0557
442.5142, 144.6637
442.9963, 148.5022
443.4784, 152.7831
443.9605, 157.5114
444.4427, 162.6499
444.9248, 168.1530
445.4069, 174.0993
445.8890, 180.4958
446.3711, 187.4086
446.8532, 194.6490
447.3354, 202.1649
447.8175, 209.9080
448.2996, 217.6696
448.7817, 225.3297
449.2638, 233.3867
449.7459, 242.3117
450.2281, 252.1772
450.7102, 262.6731
451.1923, 273.2539
451.6744, 284.9395
452.1565, 298.2342
452.6386, 313.1532
453.1208, 329.3382
453.6029, 346.5612
454.0850, 365.2905
454.5671, 386.8250
455.0492, 410.8341
455.5313, 438.5983
456.0135, 470.7505
456.4956, 506.2373
456.9777, 544.0467
457.4598, 584.2748
457.9419, 628.6932
458.4240, 679.3965
458.9062, 736.3455
459.3883, 796.3787
459.8704, 862.0279
460.3525, 928.5609
460.8346, 998.2339
461.3167, 1067.000
461.7989, 1131.593
462.2810, 1191.178
462.7631, 1241.504
463.2452, 1277.230
463.7273, 1298.777
464.2094, 1303.051
464.6916, 1286.434
465.1737, 1253.649
465.6558, 1204.324
466.1379, 1141.072
466.6200, 1071.380
467.1021, 995.9789
467.5843, 918.1793
468.0664, 844.4726
468.5485, 774.4667
469.0306, 709.3073
469.5127, 649.6174
469.9948, 595.3740
470.4770, 546.6821
470.9591, 503.8100
471.4412, 465.5259
471.9233, 431.8983
472.4054, 402.2246
472.8875, 375.8081
473.3697, 352.5698
473.8518, 331.7468
474.3339, 312.7455
474.8160, 295.7663
475.2981, 280.5952
475.7802, 268.0381
476.2624, 256.4373
476.7445, 245.0061
477.2266, 233.9389
477.7087, 223.6868
478.1908, 214.3414
478.6729, 205.9637
479.1551, 198.7340
479.6372, 193.0409
480.1193, 187.6158
480.6014, 182.4456
481.0835, 177.4900
481.5656, 172.7182
482.0478, 168.1553
482.5299, 163.8201
483.0120, 159.6947
483.4941, 155.8772
483.9762, 152.9283
484.4583, 151.2175
484.9405, 149.6488
485.4226, 148.1030
485.9047, 146.5340
486.3868, 144.8776
486.8689, 143.1396
487.3510, 141.4721
487.8332, 140.1808
488.3153, 139.1230
488.7974, 137.4590
489.2795, 134.9209
489.7616, 132.3697
490.2437, 130.4161
490.7259, 128.7663
491.2080, 126.9067
491.6901, 124.5500
492.1722, 122.3929
492.6543, 120.9630
493.1364, 120.1413
493.6186, 119.6285
494.1007, 119.3750
494.5828, 119.2731
495.0649, 119.1630
495.5470, 119.0298
496.0291, 119.2367
496.5113, 120.3671
496.9934, 121.3107
497.4755, 121.5355
497.9576, 121.0507
498.4397, 119.9214
498.9218, 118.1736
499.4040, 115.9385
499.8861, 113.5146
500.3682, 110.8640
500.8503, 108.1029
501.3324, 104.8195
501.8145, 101.7748
502.2967, 99.38254
502.7788, 97.63961
503.2609, 96.37972
503.7430, 95.55100
504.2251, 95.02891
504.7072, 94.33464
505.1894, 93.39565
505.6715, 92.44149
506.1536, 91.40097
506.6357, 90.45166
507.1178, 89.74472
507.5999, 89.29755
508.0821, 89.02555
508.5642, 89.05196
509.0463, 89.20273
509.5284, 88.86594
510.0105, 87.88744
510.4926, 86.95549
510.9748, 86.50435
511.4569, 86.40965
511.9390, 86.36904
512.4211, 86.45863
512.9032, 86.43460
513.3853, 86.00966
513.8674, 85.43568
514.3495, 85.20872
514.8317, 85.43626
515.3138, 85.76653
515.7959, 85.89564
516.2780, 85.83278
516.7601, 85.31008
517.2422, 83.61567
517.7244, 82.33118
518.2065, 82.25996
518.6886, 82.83968
519.1707, 83.24256
519.6528, 83.17529
520.1349, 82.93607
520.6171, 83.08484
521.0992, 83.90086
521.5813, 83.96256
522.0634, 82.34825
522.5455, 80.87154
523.0276, 80.29454
523.5098, 80.31233
523.9919, 80.27562
524.4740, 79.84868
524.9561, 79.38585
525.4382, 79.53279
525.9203, 80.30447
526.4025, 80.75639
526.8846, 80.60009
527.3667, 80.13969
527.8488, 79.52124
528.3309, 78.80025
528.8130, 78.37167
529.2952, 78.68261
529.7773, 79.08122
530.2594, 78.86202
530.7415, 78.15425
531.2236, 77.62954
531.7057, 77.62424
532.1879, 77.84364
532.6700, 77.72552
533.1521, 77.14271
533.6342, 76.47375
534.1163, 75.35097
534.5984, 74.46461
535.0806, 74.49155
535.5627, 75.17116
536.0448, 75.66234
536.5269, 75.41318
537.0090, 74.75133
537.4911, 74.77708
537.9733, 76.15269
538.4554, 76.74010
538.9375, 75.60158
539.4196, 74.20853
539.9017, 73.40618
540.3839, 73.19360
540.8660, 73.15871
541.3481, 73.11848
541.8302, 73.03242
542.3123, 72.72801
542.7944, 72.15630
543.2766, 71.82506
543.7587, 72.11379
544.2408, 72.59983
544.7229, 72.63802
545.2050, 72.17757
545.6871, 71.76165
546.1693, 71.54658
546.6514, 71.48703
547.1335, 71.70019
547.6156, 72.09708
548.0977, 72.10884
548.5798, 71.29024
549.0620, 69.99348
549.5441, 69.41328
550.0262, 70.46763
550.5083, 71.03056
550.9904, 70.71150
551.4725, 70.18716
551.9547, 69.97399
552.4368, 70.05982
552.9189, 70.12084
553.4010, 69.90057
553.8831, 69.48748
554.3652, 69.24624
554.8474, 69.23450
555.3295, 69.25298
555.8116, 69.58716
556.2937, 69.69564
556.7758, 68.88424
557.2579, 67.23319
557.7401, 65.96429
558.2222, 66.12862
558.7043, 67.00384
559.1864, 67.32153
559.6685, 67.04417
560.1506, 66.71323
560.6328, 66.57527
561.1149, 66.55868
561.5970, 66.50292
562.0791, 66.37801
562.5612, 66.31334
563.0433, 66.44929
563.5255, 66.56731
564.0076, 66.51977
564.4897, 66.28365
564.9718, 65.79237
565.4539, 64.95336
565.9360, 63.99178
566.4182, 63.73018
566.9003, 64.79420
567.3824, 65.37355
567.8645, 65.03192
568.3466, 64.49434
568.8287, 64.12220
569.3109, 63.96014
569.7930, 63.99423
570.2751, 64.32545
570.7572, 64.73136
571.2393, 64.70187
571.7214, 64.20620
572.2036, 63.62445
572.6857, 62.87794
573.1678, 62.32369
573.6499, 62.55009
574.1320, 63.53128
574.6141, 64.16326
575.0963, 63.98356
575.5784, 63.45978
576.0605, 62.72005
576.5426, 61.95306
577.0247, 61.79828
577.5068, 62.60601
577.9890, 63.79488
578.4711, 64.25239
578.9532, 63.59486
579.4353, 63.16538
579.9174, 63.09676
580.3995, 63.09258
580.8817, 62.97942
581.3638, 62.83022
581.8459, 62.82273
582.3280, 63.05106
582.8101, 63.37236
583.2922, 63.55674
583.7744, 63.59525
584.2565, 63.63514
584.7386, 63.79090
585.2207, 63.80972
585.7029, 63.27589
586.1850, 62.47108
586.6671, 62.16534
587.1492, 62.91552
587.6313, 63.71053
588.1135, 63.75824
588.5956, 63.29715
589.0777, 62.86187
589.5598, 62.58656
590.0419, 62.36132
590.5240, 62.01050
591.0062, 61.50494
591.4883, 61.59579
591.9704, 63.03764
592.4525, 64.08977
592.9346, 64.10287
593.4167, 63.61240
593.8989, 63.21956
594.3810, 63.06974
594.8631, 62.93825
595.3452, 62.53489
595.8273, 61.90382
596.3094, 61.54820
596.7916, 61.50597
597.2737, 61.65041
597.7558, 62.15235
598.2379, 62.70435
598.7200, 62.93849
599.2021, 62.78400
599.6843, 62.62746
600.1664, 62.70690
600.6485, 62.88076
601.1306, 62.99435
601.6127, 63.02187
602.0948, 62.83972
602.5770, 62.30406
603.0591, 61.63588
603.5412, 61.44971
604.0233, 62.07032
604.5054, 62.67193
604.9875, 63.39759
605.4697, 63.98200
605.9518, 64.17952
606.4339, 64.09152
606.9160, 64.01402
607.3981, 64.12817
607.8802, 64.26955
608.3624, 64.02145
608.8445, 63.29752
609.3266, 62.91063
609.8087, 63.26709
610.2908, 63.62541
610.7729, 63.35336
611.2551, 62.64186
611.7372, 62.04959
612.2193, 61.70512
612.7014, 61.53646
613.1835, 61.63261
613.6656, 61.84615
614.1478, 61.85582
614.6299, 61.58239
615.1120, 61.10064
615.5941, 60.39923
616.0762, 59.47412
616.5583, 59.18504
617.0405, 60.40168
617.5226, 61.16112
618.0047, 60.72896
618.4868, 59.94907
618.9689, 59.71004
619.4510, 60.09687
619.9332, 60.49587
620.4153, 60.35055
620.8974, 59.81515
621.3795, 59.42298
621.8616, 59.17670
622.3438, 59.07927
622.8259, 59.26297
623.3080, 59.48280
623.7901, 59.34899
624.2722, 58.83474
624.7543, 58.50550
625.2365, 58.65501
625.7186, 58.92672
626.2007, 59.07250
626.6828, 59.09331
627.1649, 59.02478
627.6470, 58.87997
628.1292, 58.69780
628.6113, 58.54114
629.0934, 58.41984
629.5755, 58.27904
630.0576, 58.05389
630.5397, 57.87888
631.0219, 57.82893
631.5040, 57.83919
631.9861, 57.79007
632.4682, 57.64233
632.9503, 57.57037
633.4324, 57.92490
633.9146, 58.48381
634.3967, 58.39544
634.8788, 57.51284
635.3609, 56.78710
635.8430, 56.89930
636.3251, 57.48858
636.8073, 57.44208
637.2894, 56.31560
637.7715, 55.70432
638.2536, 56.25335
638.7357, 57.06968
639.2178, 57.52191
639.7000, 57.62754
640.1821, 57.64730
640.6642, 57.71938
641.1463, 57.82230
641.6284, 57.96329
642.1105, 58.20295
642.5927, 58.13560
643.0748, 57.52298
643.5569, 56.85223
644.0390, 56.27410
644.5211, 55.85356
645.0032, 55.77981
645.4854, 56.27457
645.9675, 56.68700
646.4496, 56.41570
646.9317, 55.81273
647.4138, 55.56982
647.8959, 55.76995
648.3781, 56.00886
648.8602, 55.97768
649.3423, 55.74788
649.8244, 55.65730
650.3065, 55.81804
650.7886, 55.95520
651.2708, 56.12610
651.7529, 56.21478
652.2350, 56.06775
652.7171, 55.76829
653.1992, 55.56030
653.6813, 55.59029
654.1635, 55.72588
654.6456, 55.83922
655.1277, 55.91286
655.6098, 55.62575
656.0919, 54.72933
656.5740, 54.01817
657.0562, 54.40619
657.5383, 55.67318
658.0204, 56.16717
658.5025, 55.09721
658.9846, 54.23974
659.4667, 54.31422
659.9489, 54.72750
660.4310, 54.86739
660.9131, 54.67619
661.3952, 54.41656
661.8773, 54.25789
662.3594, 54.22213
662.8416, 54.42761
663.3237, 54.98434
663.8058, 55.38270
664.2879, 55.52330
664.7700, 55.48170
665.2521, 55.22545
665.7343, 54.83289
666.2164, 54.56277
666.6985, 54.46639
667.1806, 54.53930
667.6627, 54.91612
668.1448, 55.42437
668.6270, 55.77383
669.1091, 55.89514
669.5912, 55.74829
670.0733, 55.24640
670.5554, 54.46563
671.0375, 53.94740
671.5197, 53.81751
672.0018, 53.75783
672.4839, 53.75541
672.9660, 53.78830
673.4481, 53.84448
673.9302, 53.92245
674.4124, 54.00360
674.8945, 53.99261
675.3766, 54.12072
675.8587, 54.98402
676.3408, 56.31920
676.8229, 56.81340
677.3051, 56.10657
677.7872, 55.00468
678.2693, 54.08732
678.7514, 53.38398
679.2335, 53.26159
679.7156, 54.33138
680.1978, 55.09939
680.6799, 55.23698
681.1620, 55.08313
681.6441, 54.82718
682.1262, 54.54552
682.6083, 54.35111
683.0905, 54.35041
683.5726, 54.38871
684.0547, 54.09415
684.5368, 53.46862
685.0189, 53.03676
685.5010, 52.87229
685.9832, 52.99182
686.4653, 53.60649
686.9474, 54.55958
687.4295, 55.04478
687.9116, 54.70548
688.3937, 54.35975
688.8759, 54.31622
689.3580, 54.33120
689.8401, 54.09837
690.3222, 53.65823
690.8043, 53.29767
691.2864, 53.19410
691.7686, 53.32112
692.2507, 53.73919
692.7328, 54.57318
693.2149, 54.84768
693.6970, 54.02777
694.1791, 53.20905
694.6613, 53.28118
695.1434, 53.89885
695.6255, 54.31739
696.1076, 54.42377
696.5897, 54.32514
697.0718, 53.79791
697.5540, 53.25117
698.0361, 53.20273
698.5182, 53.65245
699.0003, 54.38362
699.4824, 55.31109
699.9645, 56.16526
700.4467, 56.17371
700.9288, 55.01704
701.4109, 54.21462
701.8930, 54.11055
702.3751, 54.05752
702.8572, 53.53302
703.3394, 52.90551
703.8215, 52.89540
704.3036, 53.81926
704.7857, 54.65675
705.2678, 54.58613
705.7499, 54.20407
706.2321, 54.49187
706.7142, 55.34420
707.1963, 55.76809
707.6784, 55.20910
708.1605, 54.17038
708.6426, 53.63607
709.1248, 53.68837
709.6069, 53.96045
710.0890, 54.79795
710.5711, 55.44634
711.0532, 55.51623
711.5353, 55.31478
712.0175, 55.30392
712.4996, 55.58909
712.9817, 55.66982
713.4638, 54.86434
713.9459, 53.88598
714.4280, 53.92065
714.9102, 54.79583
715.3923, 55.42616
715.8744, 55.34072
716.3565, 54.92037
716.8386, 54.69041
717.3207, 54.64466
717.8029, 54.84554
718.2850, 55.86722
718.7671, 56.40541
719.2492, 55.64258
719.7313, 54.59907
720.2134, 54.33740
720.6956, 54.94168
721.1777, 55.65591
721.6598, 56.15826
722.1419, 56.44477
722.6240, 56.35717
723.1061, 56.01856
723.5883, 55.93852
724.0704, 56.27583
724.5525, 56.78572
725.0346, 57.24882
725.5167, 57.65991
725.9988, 57.84615
726.4810, 57.44350
726.9631, 57.34656
727.4452, 57.87386
727.9273, 58.55947
728.4094, 59.02208
728.8915, 59.31136
729.3737, 59.75795
729.8558, 60.68196
730.3379, 61.54264
730.8200, 61.41227
731.3021, 60.78408
731.7842, 61.20500
732.2664, 62.92480
732.7485, 64.72962
733.2306, 65.70279
733.7127, 66.03507
734.1948, 66.49385
734.6769, 67.38470
735.1591, 67.83450
735.6412, 67.75908
736.1233, 67.33766
736.6054, 66.46420
737.0875, 65.35725
737.5696, 64.42339
738.0518, 63.82293
738.5339, 63.19762
739.0160, 62.15432
739.4981, 60.92817
739.9802, 59.89466
740.4623, 59.09127
740.9445, 58.57031
741.4266, 58.38358
741.9087, 58.38625
742.3908, 58.32535
742.8729, 58.18982
743.3550, 58.03603
743.8372, 57.85962
744.3193, 57.66876
744.8014, 57.53522
745.2835, 57.34851
745.7656, 56.96518
746.2477, 56.37343
746.7299, 55.73753
747.2120, 54.94836
747.6941, 54.30712
748.1762, 54.40131
748.6583, 54.95172
749.1404, 55.00051
749.6226, 54.28342
750.1047, 53.47173
750.5868, 53.30147
751.0689, 53.67923
751.5510, 53.51089
752.0331, 52.24364
752.5153, 51.49923
752.9974, 52.12518
753.4795, 52.83447
753.9616, 52.64704
754.4437, 51.85234
754.9258, 51.48608
755.4080, 52.07271
755.8901, 52.74495
756.3722, 52.89310
756.8543, 52.76386
757.3364, 52.72501
757.8185, 52.79927
758.3007, 52.81258
758.7828, 52.65610
759.2649, 52.39896
759.7470, 52.17459
760.2291, 51.96856
760.7112, 51.86324
761.1934, 51.90388
761.6755, 51.97827
762.1576, 52.15045
762.6397, 52.27134
763.1218, 52.06823
763.6039, 51.46449
764.0861, 51.05038
764.5682, 51.19125
765.0503, 51.44806
765.5324, 51.47041
766.0145, 51.35151
766.4966, 51.33500
766.9788, 51.47572
767.4609, 51.56856
767.9430, 51.33531
768.4251, 50.90452
768.9072, 51.03292
769.3893, 51.88467
769.8715, 52.42458
770.3536, 52.29332
770.8357, 51.92416
771.3178, 51.62320
771.7999, 51.40960
772.2820, 51.39190
772.7642, 51.88574
773.2463, 52.15666
773.7284, 51.78791
774.2105, 51.28326
774.6926, 51.16072
775.1747, 51.31379
775.6569, 51.25533
776.1390, 50.71836
776.6211, 50.11167
777.1032, 50.06836
777.5853, 50.47741
778.0674, 50.65627
778.5496, 50.51974
779.0317, 50.51768
779.5138, 50.94152
779.9959, 51.51986
780.4780, 51.78383
780.9601, 51.68227
781.4423, 51.44683
781.9244, 50.92135
782.4065, 50.45842
782.8886, 50.10099
783.3707, 49.90593
783.8528, 49.99154
784.3350, 50.32651
784.8171, 50.66389
785.2992, 50.90489
785.7813, 51.01406
786.2634, 50.83200
786.7455, 50.47681
787.2277, 50.34581
787.7098, 50.51694
788.1919, 50.84354
788.6740, 51.25426
789.1561, 51.66152
789.6382, 51.70121
790.1204, 51.11699
790.6025, 50.78646
791.0846, 50.94699
791.5667, 51.15779
792.0488, 51.26375
792.5309, 51.28178
793.0131, 51.24803
793.4952, 51.17095
793.9773, 51.02156
794.4594, 50.57626
794.9415, 50.22900
795.4236, 50.53113
795.9058, 51.20465
796.3879, 51.56547
796.8700, 51.41376
797.3521, 51.06700
797.8342, 50.81907
798.3163, 50.67294
798.7985, 50.69844
799.2806, 50.96154
799.7627, 50.98124
800.2448, 50.49290
800.7269, 49.99027
801.2090, 49.93560
801.6912, 50.24771
802.1733, 50.44305
802.6554, 50.40583
803.1375, 50.43357
803.6196, 50.56692
804.1017, 50.79511
804.5839, 51.21442
805.0660, 51.70044
805.5481, 52.03948
806.0302, 52.15498
806.5123, 52.02877
806.9944, 51.45810
807.4766, 50.68510
807.9587, 50.33856
808.4408, 50.40491
808.9229, 50.46621
809.4050, 50.36536
809.8871, 50.25432
810.3693, 50.35638
810.8514, 50.66573
811.3335, 50.58706
811.8156, 49.56092
812.2977, 49.08681
812.7798, 49.96027
813.2620, 50.91302
813.7441, 51.02827
814.2262, 50.53782
814.7083, 50.22047
815.1904, 50.37394
815.6725, 50.49468
816.1547, 50.28609
816.6368, 49.90468
817.1189, 49.33763
817.6010, 48.76072
818.0831, 48.75924
818.5652, 49.56482
819.0474, 50.45232
819.5295, 50.35991
820.0116, 49.42463
820.4937, 48.93135
820.9758, 48.94034
821.4579, 49.03201
821.9401, 49.07333
822.4222, 49.15676
822.9043, 49.44893
823.3864, 49.92887
823.8685, 50.12028
824.3506, 49.76259
824.8328, 49.49551
825.3149, 49.41877
825.7970, 49.46055
826.2791, 49.64212
826.7612, 49.88668
827.2433, 50.04585
827.7255, 50.06538
828.2076, 50.00468
828.6897, 49.84726
829.1718, 49.67670
829.6539, 49.58934
830.1360, 49.61219
830.6182, 49.91680
831.1003, 50.57148
831.5824, 51.14721
832.0645, 51.08712
832.5466, 50.45313
833.0287, 50.03057
833.5109, 49.91118
833.9930, 49.71956
834.4751, 49.25695
834.9572, 48.84825
835.4393, 48.70298
835.9214, 48.82100
836.4036, 49.28133
836.8857, 50.44342
837.3678, 51.22742
837.8499, 51.15350
838.3320, 50.81098
838.8141, 50.52891
839.2963, 50.32554
839.7784, 50.15960
840.2605, 50.01762
840.7426, 49.90034
841.2247, 49.85593
841.7068, 49.81430
842.1890, 49.59592
842.6711, 49.23776
843.1532, 48.91219
843.6353, 48.65750
844.1174, 48.65503
844.5995, 49.15295
845.0817, 49.93929
845.5638, 49.93615
846.0459, 48.58977
846.5280, 48.03468
847.0101, 49.09606
847.4922, 50.09426
847.9744, 50.01406
848.4565, 49.39914
848.9386, 49.00880
849.4207, 48.88866
849.9028, 49.08874
850.3849, 50.13350
850.8671, 50.95479
851.3492, 50.71099
851.8313, 49.96651
852.3134, 49.43065
852.7955, 49.25472
853.2776, 49.30484
853.7598, 49.55633
854.2419, 49.84460
854.7240, 49.90989
855.2061, 49.79385
855.6882, 49.62857
856.1703, 49.43444
856.6525, 49.32231
857.1346, 49.36259
857.6167, 49.49215
858.0988, 49.60033
858.5809, 49.69225
859.0630, 49.71895
859.5452, 49.61053
860.0273, 49.56213
860.5094, 49.71333
860.9915, 49.88538
861.4736, 49.91356
861.9557, 49.81573
862.4379, 49.71270
862.9200, 49.57605
863.4021, 49.50855
863.8842, 49.55114
864.3663, 49.67376
864.8484, 49.89875
865.3306, 50.17397
865.8127, 50.43081
866.2948, 50.64058
866.7769, 50.69472
867.2590, 50.37372
867.7411, 49.86405
868.2233, 49.50385
868.7054, 49.31030
869.1875, 49.37898
869.6696, 49.73999
870.1517, 50.17033
870.6339, 50.50261
871.1160, 50.67820
871.5981, 50.33153
872.0802, 49.17205
872.5623, 48.57410
873.0444, 48.98485
873.5266, 49.44885
874.0087, 49.39109
874.4908, 49.06641
874.9729, 48.92450
875.4550, 48.97410
875.9371, 49.16228
876.4193, 49.82532
876.9014, 50.21702
877.3835, 49.81248
877.8656, 49.11822
878.3477, 48.58844
878.8298, 48.31023
879.3120, 48.26594
879.7941, 48.49982
880.2762, 48.82684
880.7583, 49.17406
881.2404, 49.44284
881.7225, 49.36730
882.2047, 49.01617
882.6868, 48.81525
883.1689, 48.94735
883.6510, 49.09944
884.1331, 48.85551
884.6152, 48.26848
885.0974, 47.72071
885.5795, 47.20359
886.0616, 46.81721
886.5437, 46.62145
887.0258, 46.45960
887.5079, 46.12604
887.9901, 45.74359
888.4722, 45.82730
888.9543, 46.94345
889.4364, 47.44173
889.9185, 46.74644
890.4006, 46.11409
890.8828, 46.09330
891.3649, 46.37645
891.8470, 46.65091
892.3291, 46.85466
892.8112, 46.85435
893.2933, 46.50193
893.7755, 46.03701
894.2576, 45.48418
894.7397, 44.98266
895.2218, 44.73151
895.7039, 44.70435
896.1860, 44.73142
896.6682, 44.72990
897.1503, 44.77666
897.6324, 45.10834
898.1145, 45.53687
898.5966, 45.40743
899.0787, 44.76852
899.5609, 44.16913
900.0430, 43.75927
900.5251, 43.78265
901.0072, 44.58292
901.4893, 45.90784
901.9714, 46.46512
902.4536, 46.00377
902.9357, 45.68932
903.4178, 45.64888
903.8999, 45.72147
904.3820, 45.93803
904.8641, 46.15261
905.3463, 46.05433
905.8284, 45.58281
906.3105, 45.31889
906.7926, 45.47930
907.2747, 45.62821
907.7568, 45.59269
908.2390, 45.52348
908.7211, 45.50977
909.2032, 45.58643
909.6853, 45.85323
910.1674, 46.43342
910.6495, 46.84271
911.1317, 46.58628
911.6138, 46.12538
912.0959, 45.86612
912.5780, 45.86363
913.0601, 46.29046
913.5422, 47.11605
914.0244, 47.78990
914.5065, 47.80937
914.9886, 47.41802
915.4707, 46.99429
915.9528, 46.59341
916.4349, 46.62540
916.9171, 47.14967
917.3992, 47.80290
917.8813, 48.42600
918.3634, 48.92134
918.8455, 49.10064
919.3276, 48.94147
919.8098, 48.86268
920.2919, 48.87545
920.7740, 48.93274
921.2561, 48.95282
921.7382, 49.10832
922.2203, 49.65439
922.7025, 50.46000
923.1846, 51.02452
923.6667, 51.36662
924.1488, 51.43535
924.6309, 50.95349
925.1130, 50.50804
925.5952, 50.44676
926.0773, 50.52196
926.5594, 50.40856
927.0415, 50.09175
927.5236, 49.81971
928.0057, 49.88524
928.4879, 49.74419
928.9700, 48.66673
929.4521, 47.45095
929.9342, 47.16936
930.4163, 47.58876
930.8984, 47.81797
931.3806, 47.52408
931.8627, 47.09325
932.3448, 46.82894
932.8269, 46.74433
933.3090, 46.96643
933.7911, 47.40692
934.2733, 47.61703
934.7554, 47.52986
935.2375, 47.67962
935.7196, 48.50180
936.2017, 49.41077
936.6838, 48.92764
937.1660, 46.93761
937.6481, 45.97050
938.1302, 46.23163
938.6123, 46.68637
939.0944, 47.10363
939.5765, 47.35233
940.0587, 47.19526
940.5408, 46.73809
941.0229, 46.77358
941.5050, 47.78471
941.9871, 48.40310
942.4692, 48.42716
942.9514, 48.23135
943.4335, 47.76440
943.9156, 47.26924
944.3977, 47.05272
944.8798, 47.13079
945.3619, 47.30781
945.8441, 47.62639
946.3262, 47.92822
946.8083, 48.16300
947.2904, 48.35232
947.7725, 48.43895
948.2546, 48.51593
948.7368, 48.84086
949.2189, 49.50158
949.7010, 50.00343
950.1831, 49.79008
950.6652, 49.47848
951.1473, 49.71291
951.6295, 50.29596
952.1116, 50.90946
952.5937, 51.47437
953.0758, 51.96910
953.5579, 52.38231
954.0400, 52.73892
954.5222, 53.10247
955.0043, 53.43177
955.4864, 53.39832
955.9685, 53.12286
956.4506, 53.61959
956.9327, 55.18888
957.4149, 57.00059
957.8970, 58.35919
958.3791, 59.33339
958.8612, 60.08489
959.3433, 60.58035
959.8254, 61.28254
960.3076, 62.22023
960.7897, 63.34585
961.2718, 64.56533
961.7539, 66.12219
962.2360, 68.40463
962.7181, 71.37817
963.2003, 74.05051
963.6824, 76.35473
964.1645, 78.49414
964.6466, 80.45123
965.1287, 82.29192
965.6108, 84.09927
966.0930, 85.78185
966.5751, 87.24773
967.0572, 88.51400
967.5393, 89.32575
968.0214, 89.50326
968.5035, 89.42079
968.9857, 88.83269
969.4678, 88.33717
969.9499, 88.32129
970.4320, 88.77107
970.9141, 89.74321
971.3962, 91.36177
971.8784, 92.44129
972.3605, 91.82833
972.8426, 91.14022
973.3247, 91.67669
973.8068, 92.68328
974.2889, 93.19140
974.7711, 93.15844
975.2532, 92.96198
975.7353, 92.70415
976.2174, 92.82841
976.6995, 93.87014
977.1816, 95.44343
977.6638, 96.68324
978.1459, 98.06267
978.6280, 100.8633
979.1101, 105.2901
979.5922, 110.4170
980.0743, 115.4981
980.5565, 121.2859
981.0386, 129.0333
981.5207, 138.4780
982.0028, 148.7967
982.4849, 159.8664
982.9670, 171.3979
983.4492, 183.2604
983.9313, 195.9975
984.4134, 210.3944
984.8955, 225.7168
985.3776, 240.0993
985.8597, 253.5935
986.3419, 264.7157
986.8240, 273.6920
987.3061, 278.2941
987.7882, 277.4875
988.2703, 272.0487
988.7524, 262.6423
989.2346, 249.3954
989.7167, 234.0823
990.1988, 215.6637
990.6809, 198.1613
991.1630, 181.9848
991.6451, 166.5579
992.1273, 151.1230
992.6094, 136.6752
993.0915, 124.7336
993.5736, 115.4037
994.0557, 107.1491
994.5378, 100.3564
995.0200, 94.16405
995.5021, 88.22701
995.9842, 83.15873
996.4663, 79.45712
996.9484, 76.74820
997.4305, 74.52798
997.9127, 72.80812
998.3948, 71.01637
998.8769, 68.81590
999.3590, 66.84405
999.8411, 65.37349
1000.323, 64.11996
1000.805, 63.03768
1001.287, 61.94976
1001.770, 60.46716
1002.252, 58.47152
1002.734, 56.78644
1003.216, 55.96946
1003.698, 55.31896
1004.180, 54.24940
1004.662, 53.26753
1005.144, 53.09957
1005.627, 53.51109
1006.109, 53.75885
1006.591, 53.58691
1007.073, 53.19241
1007.555, 52.32407
1008.037, 51.66972
1008.519, 52.13964
1009.001, 53.15794
1009.483, 53.93864
1009.966, 54.31907
1010.448, 54.19592
1010.930, 53.48994
1011.412, 52.90546
1011.894, 53.46959
1012.376, 54.38765
1012.858, 54.43072
1013.340, 53.79997
1013.823, 53.00745
1014.305, 52.17614
1014.787, 51.25507
1015.269, 50.20573
1015.751, 49.26473
1016.233, 48.88502
1016.715, 48.83688
1017.197, 48.50273
1017.679, 47.89966
1018.162, 46.99530
1018.644, 45.84111
1019.126, 45.13530
1019.608, 45.39174
1020.090, 45.99072
1020.572, 45.81457
1021.054, 44.98201
1021.536, 44.30185
1022.018, 43.78056
1022.501, 43.43418
1022.983, 43.27453
1023.465, 43.07369
1023.947, 42.65648
1024.429, 42.12026
1024.911, 41.59291
1025.393, 41.06496
1025.875, 41.12084
1026.358, 41.86525
1026.840, 42.31179
1027.322, 42.17582
1027.804, 41.78747
1028.286, 41.32064
1028.768, 40.93128
1029.250, 41.12815
1029.732, 42.08499
1030.214, 42.17723
1030.697, 41.06172
1031.179, 40.27983
1031.661, 40.30873
1032.143, 40.61018
1032.625, 40.82333
1033.107, 40.94007
1033.589, 40.93567
1034.071, 40.80416
1034.553, 40.53441
1035.036, 39.83131
1035.518, 39.66475
1036.000, 40.62488
1036.482, 41.69111
1036.964, 42.04927
1037.446, 41.90400
1037.928, 41.83945
1038.410, 41.86509
1038.893, 41.94628
1039.375, 42.26129
1039.857, 42.33893
1040.339, 41.69404
1040.821, 41.16710
1041.303, 41.59142
1041.785, 42.59835
1042.267, 43.09760
1042.750, 42.86355
1043.232, 42.87606
1043.714, 43.25757
1044.196, 43.73249
1044.678, 44.35446
1045.160, 44.93993
1045.642, 45.33776
1046.124, 45.59689
1046.606, 45.83344
1047.089, 46.03999
1047.571, 46.28194
1048.053, 46.59867
1048.535, 46.90491
1049.017, 47.01351
1049.499, 47.25753
1049.981, 47.85219
1050.463, 48.78248
1050.945, 50.07055
1051.428, 51.80848
1051.910, 53.31115
1052.392, 54.09954
1052.874, 55.09666
1053.356, 57.06036
1053.838, 58.91593
1054.320, 59.56773
1054.802, 59.56495
1055.285, 60.08515
1055.767, 61.32829
1056.249, 62.73497
1056.731, 64.34099
1057.213, 65.84312
1057.695, 67.42529
1058.177, 68.57389
1058.659, 68.62765
1059.141, 68.06078
1059.624, 67.69984
1060.106, 67.68839
1060.588, 67.97140
1061.070, 69.10399
1061.552, 69.76414
1062.034, 69.09359
1062.516, 68.07392
1062.998, 67.23962
1063.480, 66.71038
1063.963, 66.65913
1064.445, 67.08287
1064.927, 67.48667
1065.409, 67.89896
1065.891, 67.97366
1066.373, 67.34709
1066.855, 66.54540
1067.337, 66.09060
1067.820, 65.68060
1068.302, 64.75562
1068.784, 63.27994
1069.266, 61.74722
1069.748, 60.29937
1070.230, 58.91711
1070.712, 57.56309
1071.194, 56.29374
1071.677, 55.18738
1072.159, 54.16182
1072.641, 53.02784
1073.123, 51.81932
1073.605, 50.92049
1074.087, 50.69347
1074.569, 50.25740
1075.051, 48.86733
1075.533, 47.47588
1076.016, 46.79834
1076.498, 46.51085
1076.980, 46.29499
1077.462, 46.01465
1077.944, 45.36720
1078.426, 44.05480
1078.908, 43.07689
1079.390, 43.24464
1079.873, 43.50731
1080.355, 43.14201
1080.837, 42.51092
1081.319, 41.89878
1081.801, 41.45729
1082.283, 41.55716
1082.765, 42.44573
1083.247, 42.96142
1083.729, 42.31606
1084.212, 41.46093
1084.694, 40.75256
1085.176, 40.26792
1085.658, 40.25812
1086.140, 40.47129
1086.622, 40.27961
1087.104, 39.51377
1087.586, 38.84306
1088.068, 38.61745
1088.551, 38.46690
1089.033, 38.12817
1089.515, 37.85759
1089.997, 38.01958
1090.479, 38.36732
1090.961, 38.39931
1091.443, 38.03891
1091.925, 37.67039
1092.408, 37.27782
1092.890, 37.12268
1093.372, 37.57067
1093.854, 38.02568
1094.336, 37.91369
1094.818, 37.60482
1095.300, 37.83027
1095.782, 38.54669
1096.265, 38.74999
1096.747, 37.76205
1097.229, 36.98518
1097.711, 37.00210
1098.193, 37.23150
1098.675, 37.43787
1099.157, 37.59481
1099.639, 37.75135
1100.121, 37.85921
1100.604, 37.68828
1101.086, 37.02568
1101.568, 36.59904
1102.050, 36.83599
1102.532, 37.04892
1103.014, 36.81981
1103.496, 36.53556
1103.978, 36.59685
1104.460, 36.88976
1104.943, 37.07698
1105.425, 37.11203
1105.907, 37.03996
1106.389, 36.66441
1106.871, 36.46380
1107.353, 36.79864
1107.835, 37.13017
1108.317, 36.91349
1108.800, 36.51601
1109.282, 36.73280
1109.764, 37.65695
1110.246, 37.99077
1110.728, 37.17579
1111.210, 36.42561
1111.692, 35.60394
1112.174, 35.22477
1112.656, 35.98767
1113.139, 37.02634
1113.621, 37.20656
1114.103, 36.60532
1114.585, 36.20697
1115.067, 36.17787
1115.549, 36.06554
1116.031, 35.74722
1116.513, 35.52414
1116.995, 35.58844
1117.478, 35.67458
1117.960, 35.43768
1118.442, 35.06618
1118.924, 35.21200
1119.406, 36.10943
1119.888, 36.58079
1120.370, 36.39223
1120.852, 36.27922
1121.335, 36.51765
1121.817, 36.63114
1122.299, 36.18789
1122.781, 35.56271
1123.263, 35.46194
1123.745, 35.89806
1124.227, 36.29060
1124.709, 36.76925
1125.192, 36.66611
1125.674, 35.65821
1126.156, 34.78267
1126.638, 34.47872
1127.120, 34.64487
1127.602, 35.27411
1128.084, 36.19092
1128.566, 36.45398
1129.048, 35.96080
1129.531, 35.77459
1130.013, 35.99455
1130.495, 36.13427
1130.977, 36.03703
1131.459, 35.83627
1131.941, 35.61468
1132.423, 35.44709
1132.905, 35.57491
1133.387, 35.96130
1133.870, 35.97094
1134.352, 35.61998
1134.834, 35.31908
1135.316, 35.15064
1135.798, 35.18642
1136.280, 35.47180
1136.762, 35.89631
1137.244, 36.41360
1137.727, 36.86885
1138.209, 36.63894
1138.691, 35.92478
1139.173, 35.65178
1139.655, 35.82560
1140.137, 35.81818
1140.619, 35.43221
1141.101, 35.11462
1141.583, 35.27160
1142.066, 35.55571
1142.548, 35.38410
1143.030, 34.97633
1143.512, 34.74061
1143.994, 34.66968
1144.476, 34.64354
1144.958, 34.66974
1145.440, 34.93305
1145.922, 35.54196
1146.405, 36.18698
1146.887, 36.68425
1147.369, 36.96483
1147.851, 36.93951
1148.333, 36.65265
1148.815, 35.91256
1149.297, 35.02839
1149.779, 34.82355
1150.262, 35.46326
1150.744, 36.05119
1151.226, 36.11683
1151.708, 35.91868
1152.190, 35.28749
1152.672, 34.79639
1153.154, 35.17354
1153.636, 35.86294
1154.119, 35.94701
1154.601, 35.48932
1155.083, 35.34528
1155.565, 35.89127
1156.047, 36.25450
1156.529, 36.03851
1157.011, 35.72286
1157.493, 35.56250
1157.975, 35.34735
1158.458, 34.68671
1158.940, 33.90844
1159.422, 33.75585
1159.904, 34.34004
1160.386, 34.79676
1160.868, 34.91893
1161.350, 35.11989
1161.832, 35.63646
1162.314, 35.98375
1162.797, 35.83784
1163.279, 35.55348
1163.761, 35.56360
1164.243, 35.75679
1164.725, 35.56690
1165.207, 35.51949
1165.689, 35.46848
1166.171, 34.95898
1166.654, 35.05574
1167.136, 34.27595
1167.618, 33.59337
1168.100, 33.66163
1168.582, 34.19196
1169.064, 34.75721
1169.546, 35.32280
1170.028, 35.52924
1170.510, 35.36943
1170.993, 35.05037
1171.475, 34.58608
1171.957, 34.57512
1172.439, 35.26039
1172.921, 35.91990
1173.403, 35.89833
1173.885, 35.44117
1174.367, 34.82007
1174.849, 34.21752
1175.332, 34.46391
1175.814, 35.31271
1176.296, 35.78748
1176.778, 35.72044
1177.260, 35.28326
1177.742, 34.56384
1178.224, 33.96854
1178.706, 33.91233
1179.189, 34.16142
1179.671, 34.66513
1180.153, 35.10434
1180.635, 34.82156
1181.117, 34.13218
1181.599, 33.84915
1182.081, 34.06896
1182.563, 34.17776
1183.046, 33.78806
1183.528, 33.58086
1184.010, 34.18393
1184.492, 34.84504
1184.974, 34.99598
1185.456, 34.98839
1185.938, 35.35580
1186.420, 35.84905
1186.902, 35.70869
1187.385, 34.77144
1187.867, 34.16063
1188.349, 34.23148
1188.831, 34.43714
1189.313, 34.73540
1189.795, 35.07628
1190.277, 35.57042
1190.759, 35.98356
1191.241, 36.08804
1191.724, 35.90901
1192.206, 35.50093
1192.688, 34.69956
1193.170, 34.39660
1193.652, 34.77167
1194.134, 35.09566
1194.616, 35.21401
1195.098, 35.30794
1195.581, 35.49331
1196.063, 35.67350
1196.545, 35.74176
1197.027, 35.66600
1197.509, 35.13551
1197.991, 35.26292
1198.473, 34.17655
1198.955, 35.00096
1199.438, 35.39020
1199.920, 35.00689
1200.402, 34.38673
1200.884, 33.85557
1201.366, 33.60216
1201.848, 34.02481
1202.330, 34.79918
1202.812, 35.52974
1203.294, 36.03059
1203.776, 35.71238
1204.259, 34.84407
1204.741, 34.26298
1205.223, 34.20769
1205.705, 34.42810
1206.187, 34.88787
1206.669, 35.30394
1207.151, 35.46481
1207.633, 35.52205
1208.116, 35.66121
1208.598, 35.71295
1209.080, 35.39939
1209.562, 34.84172
1210.044, 34.34441
1210.526, 33.94693
1211.008, 33.81314
1211.490, 34.15815
1211.973, 34.48751
1212.455, 34.73231
1212.937, 34.91361
1213.419, 34.96978
1213.901, 35.04732
1214.383, 35.36645
1214.865, 35.79715
1215.347, 35.91139
1215.829, 35.71309
1216.312, 35.03533
1216.794, 33.62240
1217.276, 33.16496
1217.758, 34.11109
1218.240, 35.01471
1218.722, 35.16682
1219.204, 35.58561
1219.686, 35.20118
1220.168, 35.43708
1220.651, 35.09468
1221.133, 34.38886
1221.615, 34.21008
1222.097, 34.49992
1222.579, 34.97501
1223.061, 35.48373
1223.543, 35.58601
1224.025, 35.07697
1224.508, 34.58289
1224.990, 34.70656
1225.472, 35.04065
1225.954, 35.32336
1226.436, 35.46507
1226.918, 35.23339
1227.400, 34.85527
1227.882, 34.76039
1228.365, 34.91840
1228.847, 34.84910
1229.329, 34.28247
1229.811, 34.07253
1230.293, 34.96855
1230.775, 35.54174
1231.257, 35.12394
1231.739, 34.45913
1232.221, 33.69839
1232.703, 33.20926
1233.186, 33.66697
1233.668, 34.85695
1234.150, 35.30595
1234.632, 34.77571
1235.114, 34.42941
1235.596, 34.29102
1236.078, 34.29995
1236.560, 34.47965
1237.043, 34.51577
1237.525, 34.19638
1238.007, 33.85456
1238.489, 33.94649
1238.971, 33.91340
1239.453, 34.44135
1239.935, 34.46961
1240.417, 35.01861
1240.900, 35.83955
1241.382, 35.77488
1241.864, 34.80921
1242.346, 34.20373
1242.828, 34.57882
1243.310, 35.18976
1243.792, 35.56379
1244.274, 35.79026
1244.756, 35.95161
1245.239, 35.99385
1245.721, 35.76943
1246.203, 35.44600
1246.685, 35.30975
1247.167, 35.33621
1247.649, 35.19983
1248.131, 34.67818
1248.613, 34.55025
1249.095, 35.52094
1249.578, 35.93818
1250.060, 35.15202
1250.542, 34.34408
1251.024, 34.09288
1251.506, 34.13584
1251.988, 34.18937
1252.470, 34.24965
1252.952, 34.33574
1253.435, 34.45382
1253.917, 34.26081
1254.399, 33.76836
1254.881, 33.45021
1255.363, 33.39964
1255.845, 33.66614
1256.327, 34.25988
1256.809, 34.71335
1257.292, 34.49661
1257.774, 34.10873
1258.256, 34.21110
1258.738, 34.59529
1259.220, 35.15788
1259.702, 35.67094
1260.184, 35.65137
1260.666, 35.26975
1261.148, 35.25040
1261.630, 35.79365
1262.113, 36.12497
1262.595, 35.84496
1263.077, 35.48792
1263.559, 34.97436
1264.041, 34.70186
1264.523, 35.23772
1265.005, 35.73617
1265.487, 35.33470
1265.970, 34.43446
1266.452, 33.93163
1266.934, 33.82729
1267.416, 34.05148
1267.898, 34.71156
1268.380, 34.76972
1268.862, 34.08250
1269.344, 33.66894
1269.827, 33.86101
1270.309, 34.15114
1270.791, 34.16290
1271.273, 34.14783
1271.755, 34.63023
1272.237, 34.42212
1272.719, 34.97377
1273.201, 34.37705
1273.683, 34.14567
1274.166, 34.25776
1274.648, 34.57898
1275.130, 34.99448
1275.612, 35.20074
1276.094, 35.08906
1276.576, 34.74062
1277.058, 33.77680
1277.540, 33.15202
1278.022, 33.45600
1278.505, 33.97586
1278.987, 34.33436
1279.469, 34.58596
1279.951, 34.85130
1280.433, 35.05790
1280.915, 34.84719
1281.397, 34.12206
1281.879, 33.81847
1282.362, 33.97614
1282.844, 34.09623
1283.326, 34.09729
1283.808, 34.16835
1284.290, 34.38545
1284.772, 34.58725
1285.254, 34.62635
1285.736, 34.50282
##END=



