##NAMES=Sodalite
##RRUFFID=R060354
##IDEAL CHEMISTRY=Na_4_Si_3_Al_3_O_12_Cl
##LOCALITY=Koksha Valley, Badakshan Province, Afghanistan
##OWNER=RRUFF
##SOURCE=Herb Obodda
##DESCRIPTION=Pale purple transparent fragment
##STATUS=The identification of this mineral has been confirmed by X-ray diffraction and chemical analysis
##URL=rruff.info/R060354
##MEASURED CHEMISTRY=(Na_0.99_K_0.01_)_8_Al_6.00_Si_6.00_O_24_Cl_2.00_
122.3119, 23.42116
122.7940, 25.45561
123.2761, 25.54762
123.7582, 24.36800
124.2404, 23.41076
124.7225, 23.60463
125.2046, 24.41996
125.6867, 25.24334
126.1688, 26.02585
126.6509, 26.71207
127.1331, 27.09662
127.6152, 27.26042
128.0973, 27.60547
128.5794, 28.35110
129.0615, 29.48072
129.5436, 30.98475
130.0258, 32.95790
130.5079, 35.20052
130.9900, 37.32817
131.4721, 39.32287
131.9542, 41.55992
132.4363, 44.29921
132.9185, 47.53778
133.4006, 51.24987
133.8827, 55.43951
134.3648, 60.06765
134.8469, 65.19236
135.3290, 70.74906
135.8112, 77.11710
136.2933, 84.63065
136.7754, 93.32968
137.2575, 102.9762
137.7396, 113.4083
138.2217, 124.4701
138.7039, 137.3978
139.1860, 152.5099
139.6681, 169.0306
140.1502, 186.3093
140.6323, 204.3706
141.1144, 222.5412
141.5966, 240.7136
142.0787, 258.9099
142.5608, 276.6246
143.0429, 293.9601
143.5250, 310.7229
144.0071, 326.2715
144.4893, 340.0396
144.9714, 353.2931
145.4535, 366.3922
145.9356, 379.4735
146.4177, 392.3041
146.8998, 404.1528
147.3820, 415.6783
147.8641, 430.2621
148.3462, 449.3322
148.8283, 469.9277
149.3104, 490.6735
149.7925, 509.9618
150.2747, 531.3759
150.7568, 555.2685
151.2389, 581.4814
151.7210, 608.3095
152.2031, 636.7721
152.6852, 664.9548
153.1674, 691.9856
153.6495, 718.6631
154.1316, 743.0480
154.6137, 764.5691
155.0958, 783.1959
155.5779, 800.4994
156.0601, 816.8436
156.5422, 831.9036
157.0243, 845.2006
157.5064, 855.2241
157.9885, 864.8124
158.4706, 874.7382
158.9528, 885.0970
159.4349, 895.3343
159.9170, 903.9431
160.3991, 912.7567
160.8812, 923.8952
161.3633, 939.3018
161.8455, 956.0940
162.3276, 972.8719
162.8097, 988.9481
163.2918, 1006.682
163.7739, 1027.619
164.2560, 1049.465
164.7382, 1063.762
165.2203, 1077.163
165.7024, 1089.240
166.1845, 1098.075
166.6666, 1102.964
167.1487, 1106.542
167.6309, 1110.699
168.1130, 1114.718
168.5951, 1116.991
169.0772, 1115.990
169.5593, 1113.432
170.0414, 1110.617
170.5236, 1107.526
171.0057, 1104.748
171.4878, 1103.332
171.9699, 1102.691
172.4520, 1101.075
172.9341, 1096.776
173.4163, 1091.212
173.8984, 1086.027
174.3805, 1081.591
174.8626, 1077.526
175.3447, 1073.259
175.8268, 1068.874
176.3090, 1064.803
176.7911, 1061.820
177.2732, 1059.276
177.7553, 1056.049
178.2374, 1051.344
178.7195, 1046.374
179.2017, 1042.861
179.6838, 1040.641
180.1659, 1038.558
180.6480, 1035.319
181.1301, 1031.513
181.6122, 1028.415
182.0944, 1026.256
182.5765, 1025.085
183.0586, 1025.492
183.5407, 1027.450
184.0228, 1029.239
184.5049, 1028.855
184.9871, 1026.884
185.4692, 1025.448
185.9513, 1025.325
186.4334, 1026.109
186.9155, 1026.976
187.3976, 1027.936
187.8798, 1028.822
188.3619, 1029.774
188.8440, 1030.672
189.3261, 1030.588
189.8082, 1028.530
190.2903, 1025.263
190.7725, 1023.814
191.2546, 1024.432
191.7367, 1025.446
192.2188, 1024.768
192.7009, 1022.481
193.1830, 1020.302
193.6652, 1019.095
194.1473, 1018.610
194.6294, 1017.221
195.1115, 1014.737
195.5936, 1011.985
196.0757, 1009.862
196.5579, 1008.359
197.0400, 1007.666
197.5221, 1008.175
198.0042, 1009.784
198.4863, 1011.002
198.9684, 1011.833
199.4506, 1012.266
199.9327, 1011.986
200.4148, 1010.854
200.8969, 1010.253
201.3790, 1010.909
201.8611, 1012.862
202.3433, 1014.764
202.8254, 1016.720
203.3075, 1018.435
203.7896, 1019.202
204.2717, 1018.802
204.7538, 1018.503
205.2360, 1019.161
205.7181, 1021.018
206.2002, 1021.287
206.6823, 1019.364
207.1644, 1016.575
207.6465, 1015.520
208.1287, 1016.640
208.6108, 1017.987
209.0929, 1018.802
209.5750, 1019.077
210.0571, 1018.843
210.5392, 1017.777
211.0214, 1016.540
211.5035, 1016.694
211.9856, 1018.770
212.4677, 1020.818
212.9498, 1021.945
213.4319, 1021.960
213.9140, 1021.880
214.3962, 1021.769
214.8783, 1021.523
215.3604, 1020.655
215.8425, 1018.463
216.3246, 1017.160
216.8067, 1018.186
217.2889, 1022.692
217.7710, 1025.295
218.2531, 1025.099
218.7352, 1023.343
219.2173, 1023.099
219.6994, 1024.978
220.1816, 1027.169
220.6637, 1028.867
221.1458, 1029.842
221.6279, 1031.023
222.1100, 1032.551
222.5921, 1034.268
223.0743, 1035.868
223.5564, 1037.573
224.0385, 1038.808
224.5206, 1039.106
225.0027, 1037.778
225.4848, 1037.496
225.9670, 1038.700
226.4491, 1040.859
226.9312, 1042.461
227.4133, 1042.736
227.8954, 1043.691
228.3775, 1046.404
228.8597, 1051.929
229.3418, 1056.691
229.8239, 1060.603
230.3060, 1063.713
230.7881, 1065.926
231.2702, 1066.540
231.7524, 1067.291
232.2345, 1069.029
232.7166, 1072.425
233.1987, 1075.256
233.6808, 1077.429
234.1629, 1079.046
234.6451, 1080.524
235.1272, 1082.523
235.6093, 1083.434
236.0914, 1082.346
236.5735, 1078.030
237.0556, 1074.555
237.5378, 1071.736
238.0199, 1069.852
238.5020, 1069.694
238.9841, 1071.977
239.4662, 1074.969
239.9483, 1078.115
240.4305, 1081.887
240.9126, 1084.544
241.3947, 1085.484
241.8768, 1085.473
242.3589, 1086.342
242.8410, 1088.052
243.3232, 1090.639
243.8053, 1094.283
244.2874, 1099.789
244.7695, 1104.298
245.2516, 1107.179
245.7337, 1109.334
246.2159, 1112.856
246.6980, 1118.467
247.1801, 1124.344
247.6622, 1129.921
248.1443, 1135.346
248.6264, 1140.008
249.1086, 1143.252
249.5907, 1146.098
250.0728, 1150.701
250.5549, 1157.705
251.0370, 1165.391
251.5191, 1173.374
252.0013, 1182.014
252.4834, 1189.350
252.9655, 1194.595
253.4476, 1198.912
253.9297, 1204.348
254.4118, 1210.823
254.8940, 1218.426
255.3761, 1227.511
255.8582, 1238.776
256.3403, 1248.822
256.8224, 1257.280
257.3046, 1264.828
257.7867, 1272.385
258.2688, 1280.079
258.7509, 1287.704
259.2330, 1295.255
259.7151, 1302.923
260.1973, 1309.848
260.6794, 1316.031
261.1615, 1321.375
261.6436, 1325.439
262.1257, 1327.863
262.6078, 1330.019
263.0900, 1332.686
263.5721, 1336.185
264.0542, 1336.993
264.5363, 1334.426
265.0184, 1329.964
265.5005, 1325.475
265.9827, 1321.387
266.4648, 1316.089
266.9469, 1309.133
267.4290, 1300.535
267.9111, 1290.594
268.3932, 1278.776
268.8754, 1266.536
269.3575, 1255.621
269.8396, 1246.228
270.3217, 1237.078
270.8038, 1227.883
271.2859, 1218.592
271.7681, 1209.411
272.2502, 1199.952
272.7323, 1191.421
273.2144, 1185.780
273.6965, 1183.654
274.1786, 1180.843
274.6608, 1176.176
275.1429, 1169.985
275.6250, 1164.469
276.1071, 1159.665
276.5892, 1155.451
277.0714, 1151.836
277.5535, 1148.807
278.0356, 1146.347
278.5177, 1144.472
278.9998, 1143.167
279.4819, 1142.481
279.9641, 1142.529
280.4462, 1142.736
280.9283, 1142.474
281.4104, 1141.718
281.8925, 1141.664
282.3746, 1142.668
282.8568, 1144.363
283.3389, 1145.412
283.8210, 1145.623
284.3031, 1146.601
284.7852, 1149.881
285.2673, 1155.284
285.7495, 1160.210
286.2316, 1164.004
286.7137, 1167.604
287.1958, 1173.445
287.6779, 1181.591
288.1600, 1189.461
288.6422, 1194.787
289.1243, 1198.103
289.6064, 1202.885
290.0885, 1209.531
290.5706, 1217.563
291.0527, 1227.737
291.5349, 1239.746
292.0170, 1248.939
292.4991, 1251.193
292.9812, 1248.315
293.4633, 1247.185
293.9454, 1248.695
294.4276, 1249.742
294.9097, 1246.071
295.3918, 1238.204
295.8739, 1228.823
296.3560, 1219.183
296.8381, 1208.966
297.3203, 1197.383
297.8024, 1184.348
298.2845, 1171.000
298.7666, 1158.361
299.2487, 1146.453
299.7308, 1134.964
300.2130, 1123.282
300.6951, 1112.136
301.1772, 1102.571
301.6593, 1094.624
302.1414, 1088.065
302.6235, 1083.312
303.1057, 1079.848
303.5878, 1076.756
304.0699, 1073.811
304.5520, 1070.992
305.0341, 1068.313
305.5162, 1065.772
305.9984, 1063.192
306.4805, 1059.958
306.9626, 1056.747
307.4447, 1054.664
307.9268, 1054.584
308.4089, 1054.873
308.8911, 1053.936
309.3732, 1052.049
309.8553, 1050.380
310.3374, 1049.638
310.8195, 1049.426
311.3016, 1049.486
311.7838, 1050.087
312.2659, 1050.271
312.7480, 1048.944
313.2301, 1046.691
313.7122, 1044.917
314.1943, 1044.724
314.6765, 1044.969
315.1586, 1044.687
315.6407, 1043.438
316.1228, 1042.772
316.6049, 1044.377
317.0870, 1046.933
317.5692, 1048.249
318.0513, 1046.379
318.5334, 1044.024
319.0155, 1042.395
319.4976, 1041.608
319.9797, 1041.227
320.4619, 1041.454
320.9440, 1041.864
321.4261, 1041.980
321.9082, 1041.749
322.3903, 1041.134
322.8724, 1039.870
323.3546, 1037.941
323.8367, 1036.488
324.3188, 1035.474
324.8009, 1035.176
325.2830, 1035.820
325.7651, 1039.581
326.2473, 1041.944
326.7294, 1041.257
327.2115, 1038.058
327.6936, 1036.531
328.1757, 1039.140
328.6578, 1041.881
329.1400, 1042.753
329.6221, 1039.492
330.1042, 1037.429
330.5863, 1037.541
331.0684, 1038.881
331.5505, 1038.550
332.0327, 1034.316
332.5148, 1030.998
332.9969, 1030.710
333.4790, 1034.837
333.9611, 1038.207
334.4432, 1041.061
334.9254, 1043.008
335.4075, 1043.117
335.8896, 1040.303
336.3717, 1037.854
336.8538, 1036.880
337.3359, 1037.512
337.8180, 1038.296
338.3001, 1039.513
338.7823, 1040.475
339.2644, 1040.120
339.7465, 1038.018
340.2286, 1036.498
340.7107, 1036.187
341.1928, 1036.943
341.6750, 1038.056
342.1571, 1039.799
342.6392, 1040.924
343.1213, 1039.828
343.6034, 1036.461
344.0855, 1034.278
344.5677, 1034.121
345.0498, 1035.188
345.5319, 1035.501
346.0140, 1035.031
346.4961, 1034.647
346.9782, 1035.268
347.4604, 1036.586
347.9425, 1036.776
348.4246, 1035.351
348.9067, 1033.794
349.3888, 1034.817
349.8709, 1037.927
350.3531, 1040.341
350.8352, 1040.277
351.3173, 1038.667
351.7994, 1036.999
352.2815, 1035.280
352.7636, 1034.155
353.2458, 1034.795
353.7279, 1036.486
354.2100, 1037.676
354.6921, 1037.021
355.1742, 1036.074
355.6563, 1036.803
356.1385, 1039.032
356.6206, 1041.001
357.1027, 1040.995
357.5848, 1040.231
358.0669, 1040.212
358.5490, 1041.843
359.0312, 1043.530
359.5133, 1044.134
359.9954, 1043.942
360.4775, 1043.871
360.9596, 1044.305
361.4417, 1045.039
361.9239, 1046.083
362.4060, 1047.739
362.8881, 1048.806
363.3702, 1048.372
363.8523, 1047.152
364.3344, 1046.245
364.8166, 1045.541
365.2987, 1045.581
365.7808, 1046.977
366.2629, 1050.004
366.7450, 1052.245
367.2271, 1052.812
367.7093, 1052.702
368.1914, 1052.789
368.6735, 1053.599
369.1556, 1054.140
369.6377, 1054.292
370.1198, 1054.075
370.6020, 1053.539
371.0841, 1052.391
371.5662, 1051.196
372.0483, 1050.276
372.5304, 1049.804
373.0125, 1049.248
373.4947, 1048.523
373.9768, 1047.733
374.4589, 1047.181
374.9410, 1047.110
375.4231, 1046.770
375.9052, 1045.802
376.3874, 1044.109
376.8695, 1042.346
377.3516, 1040.095
377.8337, 1038.461
378.3158, 1039.298
378.7979, 1043.048
379.2801, 1046.004
379.7622, 1047.137
380.2443, 1046.700
380.7264, 1045.417
381.2085, 1043.087
381.6906, 1041.357
382.1728, 1042.376
382.6549, 1045.589
383.1370, 1047.298
383.6191, 1046.585
384.1012, 1044.645
384.5833, 1042.933
385.0655, 1041.552
385.5476, 1041.199
386.0297, 1043.077
386.5118, 1046.053
386.9939, 1047.910
387.4760, 1048.309
387.9582, 1048.674
388.4403, 1051.231
388.9224, 1054.740
389.4045, 1056.621
389.8866, 1054.212
390.3687, 1050.854
390.8509, 1049.301
391.3330, 1049.482
391.8151, 1050.300
392.2972, 1051.989
392.7793, 1053.593
393.2614, 1054.142
393.7436, 1052.734
394.2257, 1051.155
394.7078, 1049.911
395.1899, 1049.051
395.6720, 1048.708
396.1541, 1049.342
396.6363, 1050.184
397.1184, 1050.944
397.6005, 1051.690
398.0826, 1052.076
398.5647, 1051.600
399.0468, 1050.899
399.5290, 1050.743
400.0111, 1051.962
400.4932, 1052.878
400.9753, 1052.602
401.4574, 1051.150
401.9395, 1052.000
402.4217, 1057.100
402.9038, 1062.438
403.3859, 1065.112
403.8680, 1063.481
404.3501, 1063.165
404.8322, 1065.082
405.3144, 1068.280
405.7965, 1070.107
406.2786, 1070.228
406.7607, 1070.119
407.2428, 1070.049
407.7249, 1069.975
408.2071, 1072.027
408.6892, 1076.762
409.1713, 1081.999
409.6534, 1085.166
410.1355, 1086.291
410.6176, 1086.282
411.0998, 1085.027
411.5819, 1083.068
412.0640, 1081.715
412.5461, 1080.961
413.0282, 1080.290
413.5103, 1079.346
413.9925, 1078.209
414.4746, 1076.987
414.9567, 1075.633
415.4388, 1074.387
415.9209, 1073.532
416.4030, 1072.976
416.8852, 1072.470
417.3673, 1071.714
417.8494, 1071.080
418.3315, 1070.974
418.8136, 1071.426
419.2957, 1071.841
419.7779, 1071.764
420.2600, 1071.536
420.7421, 1071.497
421.2242, 1071.807
421.7063, 1072.274
422.1884, 1072.873
422.6706, 1073.596
423.1527, 1074.418
423.6348, 1075.434
424.1169, 1076.476
424.5990, 1077.487
425.0811, 1078.469
425.5633, 1079.415
426.0454, 1080.105
426.5275, 1080.856
427.0096, 1082.058
427.4917, 1083.538
427.9738, 1085.795
428.4560, 1089.456
428.9381, 1094.411
429.4202, 1097.266
429.9023, 1097.060
430.3844, 1096.452
430.8665, 1097.400
431.3487, 1100.144
431.8308, 1102.965
432.3129, 1105.750
432.7950, 1108.465
433.2771, 1110.922
433.7592, 1113.080
434.2414, 1115.312
434.7235, 1118.100
435.2056, 1121.129
435.6877, 1122.725
436.1698, 1122.736
436.6519, 1123.023
437.1341, 1125.859
437.6162, 1130.430
438.0983, 1134.596
438.5804, 1137.341
439.0625, 1140.079
439.5446, 1144.683
440.0268, 1150.760
440.5089, 1156.857
440.9910, 1161.218
441.4731, 1165.765
441.9552, 1172.604
442.4373, 1182.292
442.9195, 1192.151
443.4016, 1199.965
443.8837, 1207.453
444.3658, 1216.702
444.8479, 1228.504
445.3300, 1241.989
445.8122, 1257.412
446.2943, 1274.500
446.7764, 1292.118
447.2585, 1309.094
447.7406, 1327.310
448.2227, 1347.986
448.7049, 1372.450
449.1870, 1396.377
449.6691, 1418.797
450.1512, 1441.067
450.6333, 1464.739
451.1154, 1489.812
451.5976, 1516.683
452.0797, 1545.236
452.5618, 1575.556
453.0439, 1607.377
453.5260, 1639.863
454.0081, 1674.504
454.4903, 1711.807
454.9724, 1751.487
455.4545, 1796.609
455.9366, 1847.775
456.4187, 1903.174
456.9008, 1957.770
457.3830, 2012.833
457.8651, 2071.781
458.3472, 2137.927
458.8293, 2209.364
459.3114, 2286.341
459.7935, 2368.106
460.2757, 2448.614
460.7578, 2523.823
461.2399, 2593.601
461.7220, 2658.308
462.2041, 2722.397
462.6862, 2775.251
463.1684, 2813.118
463.6505, 2834.960
464.1326, 2837.354
464.6147, 2817.460
465.0968, 2778.948
465.5789, 2721.886
466.0611, 2645.252
466.5432, 2559.793
467.0253, 2462.749
467.5074, 2360.909
467.9895, 2260.336
468.4716, 2154.631
468.9538, 2056.811
469.4359, 1969.020
469.9180, 1890.362
470.4001, 1817.771
470.8822, 1752.110
471.3643, 1691.954
471.8465, 1636.804
472.3286, 1586.669
472.8107, 1541.656
473.2928, 1502.699
473.7749, 1467.888
474.2570, 1436.259
474.7392, 1407.807
475.2213, 1381.445
475.7034, 1356.719
476.1855, 1334.204
476.6676, 1315.763
477.1497, 1301.041
477.6319, 1287.523
478.1140, 1273.292
478.5961, 1259.228
479.0782, 1247.131
479.5603, 1237.223
480.0424, 1227.626
480.5246, 1215.899
481.0067, 1203.756
481.4888, 1193.615
481.9709, 1187.049
482.4530, 1181.623
482.9352, 1176.254
483.4173, 1171.040
483.8994, 1166.292
484.3815, 1162.590
484.8636, 1158.973
485.3457, 1154.789
485.8279, 1149.543
486.3100, 1145.348
486.7921, 1142.893
487.2742, 1141.299
487.7563, 1139.928
488.2384, 1139.890
488.7206, 1138.049
489.2027, 1133.364
489.6848, 1126.752
490.1669, 1121.454
490.6490, 1117.658
491.1311, 1114.766
491.6133, 1112.748
492.0954, 1111.584
492.5775, 1110.407
493.0596, 1109.256
493.5417, 1107.980
494.0238, 1106.268
494.5060, 1104.239
494.9881, 1102.468
495.4702, 1101.160
495.9523, 1100.103
496.4344, 1098.979
496.9165, 1097.850
497.3987, 1096.964
497.8808, 1097.097
498.3629, 1097.138
498.8450, 1095.936
499.3271, 1093.355
499.8092, 1090.339
500.2914, 1086.743
500.7735, 1083.239
501.2556, 1080.375
501.7377, 1078.907
502.2198, 1077.372
502.7019, 1075.228
503.1841, 1072.761
503.6662, 1070.742
504.1483, 1069.367
504.6304, 1068.295
505.1125, 1067.699
505.5946, 1067.711
506.0768, 1066.475
506.5589, 1063.072
507.0410, 1059.831
507.5231, 1059.028
508.0052, 1061.191
508.4873, 1062.357
508.9695, 1061.987
509.4516, 1060.598
509.9337, 1058.868
510.4158, 1056.827
510.8979, 1055.083
511.3800, 1053.941
511.8622, 1053.240
512.3443, 1052.684
512.8264, 1052.263
513.3085, 1051.834
513.7906, 1051.130
514.2728, 1050.406
514.7549, 1050.098
515.2370, 1050.491
515.7191, 1050.680
516.2012, 1049.997
516.6833, 1048.771
517.1655, 1047.495
517.6476, 1045.664
518.1297, 1044.485
518.6118, 1045.017
519.0939, 1047.024
519.5760, 1047.779
520.0582, 1045.506
520.5403, 1043.161
521.0224, 1042.112
521.5045, 1043.047
521.9866, 1043.134
522.4688, 1041.794
522.9509, 1040.225
523.4330, 1040.189
523.9151, 1042.135
524.3972, 1043.001
524.8793, 1041.730
525.3615, 1039.302
525.8436, 1038.482
526.3257, 1039.241
526.8078, 1039.872
527.2899, 1039.037
527.7720, 1037.418
528.2542, 1036.808
528.7363, 1037.330
529.2184, 1037.589
529.7005, 1035.805
530.1826, 1033.236
530.6647, 1031.637
531.1469, 1031.952
531.6290, 1032.602
532.1111, 1033.055
532.5932, 1033.193
533.0753, 1032.776
533.5574, 1031.003
534.0396, 1029.352
534.5217, 1028.262
535.0038, 1027.772
535.4859, 1027.708
535.9680, 1028.495
536.4501, 1029.260
536.9323, 1029.518
537.4144, 1029.213
537.8965, 1028.504
538.3786, 1027.266
538.8607, 1025.807
539.3428, 1024.386
539.8250, 1022.931
540.3071, 1022.508
540.7892, 1023.756
541.2713, 1025.979
541.7534, 1027.884
542.2355, 1029.398
542.7177, 1029.657
543.1998, 1026.977
543.6819, 1023.107
544.1640, 1020.995
544.6461, 1020.932
545.1282, 1020.886
545.6104, 1019.187
546.0925, 1016.821
546.5746, 1014.862
547.0567, 1013.345
547.5388, 1012.619
548.0209, 1012.867
548.5031, 1013.992
548.9852, 1015.782
549.4673, 1020.850
549.9494, 1023.725
550.4315, 1022.108
550.9136, 1016.028
551.3958, 1012.325
551.8779, 1011.859
552.3600, 1012.330
552.8421, 1012.431
553.3242, 1012.159
553.8063, 1011.503
554.2885, 1010.399
554.7706, 1009.090
555.2527, 1007.617
555.7348, 1006.105
556.2169, 1005.461
556.6990, 1006.538
557.1812, 1007.872
557.6633, 1006.749
558.1454, 1003.886
558.6275, 1001.976
559.1096, 1003.914
559.5917, 1006.529
560.0739, 1006.770
560.5560, 1004.389
561.0381, 1002.884
561.5202, 1004.922
562.0023, 1007.638
562.4844, 1008.871
562.9666, 1006.879
563.4487, 1005.560
563.9308, 1005.617
564.4129, 1006.237
564.8950, 1006.094
565.3771, 1004.612
565.8593, 1003.693
566.3414, 1004.009
566.8235, 1005.172
567.3056, 1005.392
567.7877, 1004.564
568.2698, 1003.485
568.7520, 1002.588
569.2341, 1001.824
569.7162, 1000.886
570.1983, 999.7498
570.6804, 998.8293
571.1625, 998.7145
571.6447, 999.0421
572.1268, 999.3090
572.6089, 999.6395
573.0910, 999.3834
573.5731, 997.7006
574.0552, 995.2279
574.5374, 993.0354
575.0195, 991.3477
575.5016, 990.1592
575.9837, 989.6913
576.4658, 989.8807
576.9479, 989.8497
577.4301, 989.3641
577.9122, 988.9193
578.3943, 988.6298
578.8764, 988.3969
579.3585, 989.1002
579.8406, 991.1572
580.3228, 993.2156
580.8049, 993.5806
581.2870, 992.3626
581.7691, 991.6674
582.2512, 991.8954
582.7333, 992.6559
583.2155, 993.6428
583.6975, 994.7001
584.1796, 995.4093
584.6617, 995.1618
585.1439, 994.7432
585.6260, 994.7708
586.1081, 995.2224
586.5902, 996.0028
587.0723, 998.3525
587.5544, 1000.008
588.0366, 999.2493
588.5187, 995.0830
589.0008, 992.1396
589.4829, 992.0672
589.9650, 992.6995
590.4471, 992.3665
590.9293, 990.2791
591.4114, 989.1572
591.8935, 989.4984
592.3756, 990.5364
592.8577, 990.8572
593.3398, 990.4189
593.8220, 990.0127
594.3041, 989.9927
594.7862, 990.0909
595.2683, 989.6844
595.7504, 988.8087
596.2325, 987.6964
596.7147, 985.9304
597.1968, 984.3177
597.6789, 984.0429
598.1610, 985.2162
598.6431, 986.2230
599.1252, 985.8264
599.6074, 985.0822
600.0895, 984.9246
600.5716, 986.2750
601.0537, 986.9108
601.5358, 985.6620
602.0179, 983.8539
602.5001, 983.2949
602.9822, 984.9560
603.4643, 985.8542
603.9464, 985.1215
604.4285, 983.4181
604.9106, 983.0314
605.3928, 984.0846
605.8749, 985.2469
606.3570, 985.6741
606.8391, 985.7069
607.3212, 986.8997
607.8033, 989.1713
608.2855, 990.7565
608.7676, 989.6747
609.2497, 987.3494
609.7318, 985.5365
610.2139, 984.5015
610.6960, 983.9171
611.1782, 984.1465
611.6603, 984.4936
612.1424, 984.2188
612.6245, 982.6207
613.1066, 981.0408
613.5887, 978.9859
614.0709, 977.1870
614.5530, 977.4039
615.0351, 981.0946
615.5172, 983.6568
615.9993, 983.6269
616.4814, 981.4770
616.9636, 979.5725
617.4457, 977.9036
617.9278, 976.7074
618.4099, 976.6155
618.8920, 977.0952
619.3741, 976.3663
619.8563, 974.3397
620.3384, 972.6275
620.8205, 972.8021
621.3026, 973.9309
621.7847, 975.0219
622.2668, 976.1326
622.7490, 976.4629
623.2311, 974.6329
623.7132, 972.1849
624.1953, 971.0922
624.6774, 973.9548
625.1595, 975.3419
625.6417, 973.5724
626.1238, 970.0742
626.6059, 969.1397
627.0880, 971.7281
627.5701, 973.9990
628.0522, 974.6094
628.5344, 973.8024
629.0165, 972.4085
629.4986, 970.4037
629.9807, 968.9439
630.4628, 969.6193
630.9449, 971.1885
631.4271, 970.9753
631.9092, 968.7018
632.3913, 966.6965
632.8734, 967.1823
633.3555, 968.5289
633.8376, 968.9659
634.3198, 967.3690
634.8019, 966.2707
635.2840, 966.7156
635.7661, 967.8964
636.2482, 968.7190
636.7303, 969.3929
637.2125, 969.2752
637.6946, 968.0038
638.1767, 966.0017
638.6588, 964.3607
639.1409, 963.0611
639.6230, 962.2664
640.1052, 962.3665
640.5873, 962.9167
641.0694, 962.2371
641.5515, 960.4742
642.0336, 959.2103
642.5157, 960.4225
642.9979, 962.2655
643.4800, 962.4118
643.9621, 960.6072
644.4442, 958.7604
644.9263, 956.9730
645.4084, 956.0316
645.8906, 956.7596
646.3727, 961.0983
646.8548, 963.6797
647.3369, 963.3819
647.8190, 961.7798
648.3011, 960.5589
648.7833, 959.5167
649.2654, 959.5661
649.7475, 961.2700
650.2296, 963.5823
650.7117, 964.3636
651.1938, 963.6974
651.6760, 962.5201
652.1581, 960.7400
652.6402, 959.0496
653.1223, 958.5800
653.6044, 959.1678
654.0865, 960.0734
654.5687, 961.3551
655.0508, 962.4622
655.5329, 962.9908
656.0150, 962.9002
656.4971, 962.7256
656.9792, 962.6420
657.4614, 962.4536
657.9435, 961.9735
658.4256, 960.9465
658.9077, 960.6541
659.3898, 961.6089
659.8719, 962.3750
660.3541, 960.7599
660.8362, 956.8925
661.3183, 955.4007
661.8004, 957.4989
662.2825, 960.4670
662.7646, 960.5505
663.2468, 958.6996
663.7289, 957.2321
664.2110, 957.0934
664.6931, 957.4904
665.1752, 958.2889
665.6573, 959.2097
666.1395, 959.5961
666.6216, 958.8056
667.1037, 957.9268
667.5858, 957.3486
668.0679, 957.0136
668.5500, 956.4326
669.0322, 955.2750
669.5143, 954.5186
669.9964, 954.7782
670.4785, 955.9555
670.9606, 956.4387
671.4427, 956.1523
671.9249, 955.8318
672.4070, 955.9671
672.8891, 956.5110
673.3712, 957.6706
673.8533, 959.5756
674.3354, 960.7833
674.8176, 959.4503
675.2997, 957.2770
675.7818, 956.1503
676.2639, 957.3318
676.7460, 957.9730
677.2281, 956.4489
677.7103, 954.4966
678.1924, 954.3925
678.6745, 957.5433
679.1566, 959.4571
679.6387, 959.3506
680.1208, 957.8835
680.6030, 956.0710
681.0851, 953.9438
681.5672, 952.7339
682.0493, 953.1936
682.5314, 954.5446
683.0135, 955.6461
683.4957, 956.5034
683.9778, 957.1161
684.4599, 957.6055
684.9420, 957.7512
685.4241, 957.2551
685.9063, 956.1693
686.3884, 955.1843
686.8705, 954.2842
687.3526, 953.7455
687.8347, 953.8168
688.3168, 954.6693
688.7990, 954.9308
689.2811, 954.2995
689.7632, 953.7985
690.2453, 954.5742
690.7274, 956.4684
691.2095, 957.3508
691.6917, 957.0787
692.1738, 955.8361
692.6559, 952.3959
693.1380, 948.4841
693.6201, 947.4486
694.1022, 951.1096
694.5844, 954.7106
695.0665, 955.2101
695.5486, 954.1261
696.0307, 953.4050
696.5128, 953.6852
696.9949, 954.0587
697.4771, 954.5013
697.9592, 954.9553
698.4413, 955.3325
698.9234, 955.6841
699.4055, 955.8173
699.8876, 955.8092
700.3698, 955.4411
700.8519, 953.5182
701.3340, 950.3914
701.8161, 948.4352
702.2982, 949.6378
702.7803, 952.1603
703.2625, 954.6575
703.7446, 956.9185
704.2267, 957.9033
704.7088, 956.1839
705.1909, 953.9488
705.6730, 952.1771
706.1552, 950.9421
706.6373, 950.1369
707.1194, 949.7174
707.6015, 949.7757
708.0836, 950.4529
708.5657, 951.7653
709.0479, 953.0102
709.5300, 954.1618
710.0121, 955.2753
710.4942, 956.8378
710.9763, 958.3159
711.4584, 958.2109
711.9406, 956.1204
712.4227, 954.0438
712.9048, 953.2580
713.3869, 953.3311
713.8690, 953.8847
714.3511, 955.2856
714.8333, 956.3675
715.3154, 957.0120
715.7975, 957.2079
716.2796, 956.9222
716.7617, 956.1761
717.2438, 954.8958
717.7260, 952.8502
718.2081, 950.6843
718.6902, 949.5755
719.1723, 949.4399
719.6544, 949.6232
720.1365, 949.7738
720.6187, 950.3670
721.1008, 952.5516
721.5829, 955.5994
722.0650, 957.8718
722.5471, 958.1667
723.0292, 957.9761
723.5114, 957.6974
723.9935, 957.3868
724.4756, 957.2549
724.9577, 957.2680
725.4398, 957.4973
725.9219, 958.0038
726.4041, 958.7461
726.8862, 959.3434
727.3683, 959.7517
727.8504, 960.7117
728.3325, 963.0983
728.8146, 966.2176
729.2968, 968.7895
729.7789, 970.7785
730.2610, 971.9162
730.7431, 971.1674
731.2252, 970.1569
731.7073, 969.8774
732.1895, 970.4005
732.6716, 971.9771
733.1537, 976.2920
733.6358, 980.1547
734.1179, 981.9858
734.6000, 981.5089
735.0822, 980.2562
735.5643, 978.0346
736.0464, 975.6431
736.5285, 973.8634
737.0106, 972.5294
737.4927, 971.0868
737.9749, 969.5106
738.4570, 967.5973
738.9391, 964.6784
739.4212, 961.6032
739.9033, 959.5330
740.3854, 959.4645
740.8676, 958.5843
741.3497, 954.7849
741.8318, 950.5687
742.3139, 948.5215
742.7960, 949.6609
743.2781, 950.5025
743.7603, 950.8856
744.2424, 950.7779
744.7245, 949.8190
745.2066, 948.1469
745.6887, 947.0225
746.1708, 946.8440
746.6530, 946.9688
747.1351, 946.5701
747.6172, 945.9479
748.0993, 945.6524
748.5814, 946.6868
749.0635, 947.1448
749.5457, 946.2300
750.0278, 944.3035
750.5099, 942.0594
750.9920, 938.4157
751.4741, 936.7029
751.9562, 938.1890
752.4384, 941.4957
752.9205, 943.2242
753.4026, 943.4153
753.8847, 942.7598
754.3668, 941.1517
754.8489, 939.2682
755.3311, 938.0247
755.8132, 937.3124
756.2953, 936.8491
756.7774, 936.2650
757.2595, 936.1152
757.7416, 937.1046
758.2238, 938.9068
758.7059, 939.7639
759.1880, 939.0745
759.6701, 938.2750
760.1522, 937.7715
760.6343, 937.4996
761.1165, 936.9898
761.5986, 936.2161
762.0807, 935.7594
762.5628, 936.1932
763.0449, 937.0321
763.5270, 937.4948
764.0092, 937.6030
764.4913, 937.5053
764.9734, 937.3271
765.4555, 936.9265
765.9376, 935.8990
766.4197, 934.2390
766.9019, 933.7474
767.3840, 935.5457
767.8661, 937.0269
768.3482, 937.0048
768.8303, 935.5390
769.3124, 933.8021
769.7946, 931.7379
770.2767, 930.3056
770.7588, 930.8129
771.2409, 932.1879
771.7230, 932.2901
772.2051, 931.1072
772.6873, 930.2480
773.1694, 930.8912
773.6515, 931.9980
774.1336, 933.0673
774.6157, 934.1584
775.0978, 934.2640
775.5800, 932.5422
776.0621, 930.9484
776.5442, 930.8822
777.0263, 932.4542
777.5084, 932.6975
777.9905, 931.4639
778.4727, 930.3340
778.9548, 930.9958
779.4369, 932.5729
779.9190, 933.6575
780.4011, 934.1034
780.8832, 934.0095
781.3654, 933.3956
781.8475, 932.3073
782.3296, 930.5758
782.8117, 927.6589
783.2938, 925.9774
783.7759, 925.9638
784.2581, 926.6106
784.7402, 927.3019
785.2223, 928.0414
785.7044, 928.5526
786.1865, 928.8337
786.6686, 928.7497
787.1508, 927.3439
787.6329, 925.7769
788.1150, 926.2347
788.5971, 929.4200
789.0792, 931.9965
789.5613, 931.8828
790.0435, 930.8102
790.5256, 930.1640
791.0077, 930.2358
791.4898, 930.1775
791.9719, 929.9932
792.4540, 929.6551
792.9362, 928.9841
793.4183, 928.0396
793.9004, 927.7327
794.3825, 928.2027
794.8646, 928.7462
795.3467, 928.6950
795.8289, 928.3194
796.3110, 928.0437
796.7931, 928.0494
797.2752, 927.7222
797.7573, 926.6232
798.2394, 925.2492
798.7216, 923.9203
799.2037, 922.1989
799.6858, 921.8450
800.1679, 923.3007
800.6500, 925.1110
801.1321, 925.9991
801.6143, 926.0081
802.0964, 925.2914
802.5785, 923.8133
803.0606, 922.0853
803.5427, 919.7781
804.0248, 917.8791
804.5070, 917.6448
804.9891, 919.9251
805.4712, 921.9417
805.9533, 923.4786
806.4354, 924.2666
806.9175, 923.9227
807.3997, 922.0684
807.8818, 920.7219
808.3639, 919.9386
808.8460, 919.7164
809.3281, 920.4503
809.8102, 921.7156
810.2924, 922.4414
810.7745, 922.4806
811.2566, 922.0465
811.7387, 920.6993
812.2208, 919.3085
812.7029, 918.7364
813.1851, 919.5585
813.6672, 919.9362
814.1493, 919.4696
814.6314, 918.8994
815.1135, 918.7930
815.5956, 919.1562
816.0778, 919.6826
816.5599, 920.3488
817.0420, 921.2433
817.5241, 923.1367
818.0062, 925.0467
818.4883, 925.1909
818.9705, 923.1166
819.4526, 921.1628
819.9347, 920.6500
820.4168, 920.5172
820.8989, 919.8445
821.3810, 918.1950
821.8632, 917.8807
822.3453, 919.4245
822.8274, 921.1671
823.3095, 921.8496
823.7916, 921.5693
824.2737, 920.5861
824.7559, 918.9017
825.2380, 917.2702
825.7201, 916.4136
826.2022, 915.8592
826.6843, 915.1273
827.1664, 914.1275
827.6486, 913.3148
828.1307, 912.7065
828.6128, 912.4031
829.0949, 912.4908
829.5770, 912.9887
830.0591, 913.6617
830.5413, 914.5596
831.0234, 915.3032
831.5055, 915.4451
831.9876, 915.2832
832.4697, 915.4870
832.9518, 916.0409
833.4340, 916.4274
833.9161, 916.3668
834.3982, 916.0038
834.8803, 915.2238
835.3624, 913.9771
835.8445, 913.4414
836.3267, 913.9274
836.8088, 914.5468
837.2909, 915.1091
837.7730, 915.4787
838.2551, 914.5025
838.7372, 912.2781
839.2194, 910.2390
839.7015, 909.1254
840.1836, 908.7921
840.6657, 909.5822
841.1478, 911.2360
841.6299, 912.1939
842.1121, 911.4238
842.5942, 910.4269
843.0763, 909.4637
843.5584, 908.6517
844.0405, 908.8991
844.5226, 910.3730
845.0048, 911.6005
845.4869, 911.9506
845.9690, 911.6115
846.4511, 910.8849
846.9332, 909.7792
847.4153, 908.3466
847.8975, 905.0204
848.3796, 902.9880
848.8617, 904.7916
849.3438, 909.2283
849.8259, 912.1337
850.3080, 913.0694
850.7902, 913.2421
851.2723, 912.6722
851.7544, 911.7911
852.2365, 911.7714
852.7186, 912.4189
853.2007, 912.4785
853.6829, 911.1243
854.1650, 909.6516
854.6471, 908.9733
855.1292, 909.0027
855.6113, 909.5959
856.0934, 911.8961
856.5756, 913.1208
857.0577, 912.4130
857.5398, 910.9487
858.0219, 910.5490
858.5040, 911.2938
858.9861, 911.3454
859.4683, 910.1860
859.9504, 909.0070
860.4325, 909.8785
860.9146, 911.5893
861.3967, 911.9113
861.8788, 909.6292
862.3610, 907.7519
862.8431, 907.5342
863.3252, 908.1862
863.8073, 909.0214
864.2894, 910.3396
864.7715, 910.9426
865.2537, 910.7757
865.7358, 910.0518
866.2179, 908.7366
866.7000, 907.0623
867.1821, 905.5795
867.6642, 904.3362
868.1464, 903.4470
868.6285, 902.7291
869.1106, 902.5836
869.5927, 903.6475
870.0748, 906.4783
870.5569, 907.6983
871.0391, 906.6335
871.5212, 905.1522
872.0033, 903.9467
872.4854, 903.1552
872.9675, 904.5905
873.4496, 908.0649
873.9318, 910.5897
874.4139, 908.7529
874.8960, 906.0971
875.3781, 906.0768
875.8602, 908.4147
876.3423, 910.0218
876.8245, 909.7855
877.3066, 909.1216
877.7887, 908.3372
878.2708, 907.4299
878.7529, 906.2930
879.2350, 904.9411
879.7172, 903.7138
880.1993, 902.6473
880.6814, 901.9671
881.1635, 902.4791
881.6456, 903.5988
882.1277, 903.9508
882.6099, 902.3367
883.0920, 900.7081
883.5741, 899.1936
884.0562, 898.1604
884.5383, 898.4849
885.0204, 900.5219
885.5026, 901.6098
885.9847, 901.1653
886.4668, 899.9375
886.9489, 898.6069
887.4310, 897.3161
887.9131, 896.2839
888.3953, 895.3475
888.8774, 895.2924
889.3595, 897.5983
889.8416, 900.2454
890.3237, 901.2341
890.8058, 899.7966
891.2880, 898.7443
891.7701, 897.9906
892.2522, 897.9069
892.7343, 899.6787
893.2164, 902.2789
893.6985, 902.4912
894.1807, 900.0954
894.6628, 897.9885
895.1449, 898.5784
895.6270, 899.6608
896.1091, 899.7043
896.5912, 898.5159
897.0734, 897.5901
897.5555, 896.9133
898.0376, 896.5551
898.5197, 896.7120
899.0018, 897.1663
899.4839, 896.9835
899.9661, 896.3033
900.4482, 895.9343
900.9303, 896.9228
901.4124, 897.8164
901.8945, 897.5255
902.3766, 896.3589
902.8588, 895.3289
903.3409, 894.4225
903.8230, 893.9351
904.3051, 894.0076
904.7872, 894.4286
905.2693, 895.0234
905.7515, 895.6682
906.2336, 895.5399
906.7157, 894.1585
907.1978, 892.6268
907.6799, 891.7158
908.1620, 891.2764
908.6442, 891.1397
909.1263, 891.5039
909.6084, 891.8090
910.0905, 892.2302
910.5726, 892.3307
911.0547, 891.4110
911.5369, 889.6281
912.0190, 888.6876
912.5011, 888.7026
912.9832, 889.4217
913.4653, 891.6315
913.9474, 893.7791
914.4296, 893.9524
914.9117, 891.8760
915.3938, 890.9848
915.8759, 893.2150
916.3580, 894.6047
916.8401, 892.8525
917.3223, 888.8817
917.8044, 888.7346
918.2865, 892.1614
918.7686, 895.1465
919.2507, 895.4170
919.7328, 894.3676
920.2150, 892.5099
920.6971, 890.4442
921.1792, 889.6119
921.6613, 891.9928
922.1434, 893.5460
922.6255, 893.4509
923.1077, 892.5172
923.5898, 892.1390
924.0719, 892.2844
924.5540, 892.2458
925.0361, 891.8391
925.5182, 891.3878
926.0004, 891.1607
926.4825, 891.0859
926.9646, 891.0842
927.4467, 891.1591
927.9288, 891.2220
928.4109, 891.4014
928.8931, 891.3822
929.3752, 890.8389
929.8573, 889.7900
930.3394, 889.1196
930.8215, 888.8387
931.3036, 888.5611
931.7858, 887.9409
932.2679, 887.2608
932.7500, 886.5817
933.2321, 886.0256
933.7142, 886.2224
934.1964, 888.2142
934.6785, 889.8255
935.1606, 890.5637
935.6427, 890.5258
936.1248, 889.7109
936.6069, 888.1863
937.0891, 887.0175
937.5712, 886.6960
938.0533, 886.5342
938.5354, 885.8751
939.0175, 884.9211
939.4996, 883.9813
939.9818, 882.6912
940.4639, 882.0934
940.9460, 882.4747
941.4281, 883.1826
941.9102, 883.5379
942.3923, 883.5939
942.8745, 883.9657
943.3566, 884.7213
943.8387, 885.1937
944.3208, 884.2031
944.8029, 883.1633
945.2850, 883.3183
945.7672, 884.8146
946.2493, 886.7214
946.7314, 889.6687
947.2135, 891.6135
947.6956, 891.1700
948.1777, 889.4002
948.6599, 890.5782
949.1420, 894.2033
949.6241, 897.4200
950.1062, 898.6411
950.5883, 899.3074
951.0704, 900.0119
951.5526, 900.9519
952.0347, 902.5671
952.5168, 905.5657
952.9989, 907.8099
953.4810, 909.0324
953.9631, 909.6774
954.4453, 909.9836
954.9274, 910.1635
955.4095, 910.8221
955.8916, 911.9980
956.3737, 914.1869
956.8558, 919.0689
957.3380, 924.0342
957.8201, 926.7266
958.3022, 926.8366
958.7843, 928.6666
959.2664, 932.6799
959.7485, 936.9634
960.2307, 940.4335
960.7128, 943.6139
961.1949, 947.7634
961.6770, 952.7164
962.1591, 957.7885
962.6412, 963.5327
963.1234, 968.4316
963.6055, 971.0928
964.0876, 972.8608
964.5697, 976.2072
965.0518, 981.6405
965.5339, 986.2849
966.0161, 989.8558
966.4982, 992.4110
966.9803, 993.5477
967.4624, 993.9150
967.9445, 994.7351
968.4266, 996.3357
968.9088, 997.1514
969.3909, 994.8090
969.8730, 993.2809
970.3551, 994.9581
970.8372, 999.5785
971.3193, 1003.087
971.8015, 1005.415
972.2836, 1007.447
972.7657, 1010.008
973.2478, 1012.182
973.7299, 1012.039
974.2120, 1010.687
974.6942, 1010.872
975.1763, 1014.843
975.6584, 1018.448
976.1405, 1020.559
976.6226, 1022.741
977.1047, 1027.254
977.5869, 1034.017
978.0690, 1041.735
978.5511, 1050.164
979.0332, 1059.544
979.5153, 1069.660
979.9974, 1081.213
980.4796, 1094.865
980.9617, 1110.816
981.4438, 1128.611
981.9259, 1148.720
982.4080, 1169.999
982.8901, 1192.165
983.3723, 1215.244
983.8544, 1239.904
984.3365, 1265.693
984.8186, 1290.746
985.3007, 1316.800
985.7828, 1338.939
986.2650, 1356.682
986.7471, 1368.117
987.2292, 1371.245
987.7113, 1365.615
988.1934, 1353.070
988.6755, 1333.518
989.1577, 1307.878
989.6398, 1274.767
990.1219, 1237.515
990.6040, 1201.505
991.0861, 1167.364
991.5682, 1134.836
992.0504, 1101.441
992.5325, 1072.472
993.0146, 1050.818
993.4967, 1035.611
993.9788, 1019.948
994.4609, 1003.848
994.9431, 989.2367
995.4252, 976.8143
995.9073, 966.3709
996.3894, 957.9580
996.8715, 951.1484
997.3536, 945.0618
997.8358, 940.4753
998.3179, 935.1180
998.8000, 928.1215
999.2821, 921.5961
999.7642, 917.6490
1000.246, 915.9258
1000.728, 915.1016
1001.211, 915.0119
1001.693, 914.3505
1002.175, 911.6315
1002.657, 908.5724
1003.139, 906.3663
1003.621, 904.8906
1004.103, 902.9210
1004.585, 900.0648
1005.068, 898.3179
1005.550, 898.5540
1006.032, 899.5077
1006.514, 899.4275
1006.996, 898.4743
1007.478, 896.7820
1007.960, 893.7520
1008.442, 891.6648
1008.924, 892.3695
1009.407, 893.2457
1009.889, 892.3401
1010.371, 889.5565
1010.853, 888.0031
1011.335, 887.6721
1011.817, 887.8134
1012.299, 888.6506
1012.781, 889.1091
1013.263, 887.8250
1013.746, 885.2806
1014.228, 883.2058
1014.710, 882.0274
1015.192, 881.0366
1015.674, 880.2250
1016.156, 879.4216
1016.638, 878.2584
1017.120, 876.8760
1017.603, 875.7225
1018.085, 874.8757
1018.567, 874.1346
1019.049, 873.2773
1019.531, 872.5696
1020.013, 872.3846
1020.495, 872.6687
1020.977, 871.9333
1021.459, 870.0670
1021.942, 868.1136
1022.424, 866.3693
1022.906, 865.0317
1023.388, 865.0350
1023.870, 865.5121
1024.352, 864.7616
1024.834, 859.5248
1025.316, 857.1686
1025.799, 859.4456
1026.281, 863.1198
1026.763, 864.8489
1027.245, 864.9388
1027.727, 865.6475
1028.209, 867.0704
1028.691, 868.2795
1029.173, 868.6566
1029.656, 868.5818
1030.138, 867.9891
1030.620, 867.0880
1031.102, 866.8463
1031.584, 867.3182
1032.066, 868.2650
1032.548, 869.7814
1033.030, 871.3499
1033.512, 871.8125
1033.995, 871.8975
1034.477, 873.0093
1034.959, 875.8575
1035.441, 878.1699
1035.923, 879.2968
1036.405, 879.8642
1036.887, 880.2654
1037.369, 879.8357
1037.851, 879.6047
1038.334, 877.8723
1038.816, 875.9084
1039.298, 874.0642
1039.780, 872.1693
1040.262, 869.8527
1040.744, 867.4680
1041.226, 865.7359
1041.708, 864.9592
1042.191, 863.7933
1042.673, 861.8923
1043.155, 860.4921
1043.637, 861.7549
1044.119, 864.0038
1044.601, 863.7533
1045.083, 860.9198
1045.565, 859.5155
1046.047, 862.9490
1046.530, 865.6213
1047.012, 865.3822
1047.494, 863.4232
1047.976, 862.8641
1048.458, 863.6332
1048.940, 865.3558
1049.422, 868.3044
1049.904, 870.9531
1050.386, 871.7184
1050.869, 871.8918
1051.351, 872.8741
1051.833, 874.9345
1052.315, 876.4238
1052.797, 877.1528
1053.279, 878.1826
1053.761, 880.5109
1054.243, 883.3033
1054.726, 885.0674
1055.208, 886.1144
1055.690, 887.2762
1056.172, 889.6549
1056.654, 890.9811
1057.136, 890.7319
1057.618, 889.7130
1058.100, 888.5903
1058.583, 887.4699
1059.065, 887.2170
1059.547, 887.8787
1060.029, 888.4237
1060.511, 888.5430
1060.993, 887.9488
1061.475, 885.8163
1061.957, 882.7380
1062.439, 881.1174
1062.922, 881.0715
1063.404, 882.1058
1063.886, 884.6669
1064.368, 886.5147
1064.850, 883.5137
1065.332, 878.7160
1065.814, 876.5450
1066.296, 878.6653
1066.778, 879.6356
1067.261, 878.7161
1067.743, 876.9892
1068.225, 874.6404
1068.707, 872.0666
1069.189, 870.8741
1069.671, 870.7206
1070.153, 870.4064
1070.635, 869.6561
1071.118, 868.3054
1071.600, 865.9530
1072.082, 863.2039
1072.564, 860.4128
1073.046, 857.4819
1073.528, 856.3418
1074.010, 857.1122
1074.492, 857.8010
1074.974, 856.6201
1075.457, 854.8860
1075.939, 853.7072
1076.421, 852.9907
1076.903, 852.1671
1077.385, 851.2282
1077.867, 850.0526
1078.349, 848.5060
1078.831, 847.0491
1079.313, 846.0235
1079.796, 845.6195
1080.278, 846.7751
1080.760, 849.7712
1081.242, 851.0548
1081.724, 847.6306
1082.206, 844.3421
1082.688, 842.9725
1083.170, 842.9363
1083.652, 842.3918
1084.135, 841.4791
1084.617, 840.9688
1085.099, 841.2601
1085.581, 841.6393
1086.063, 841.9952
1086.545, 842.0045
1087.027, 841.2519
1087.509, 839.6130
1087.992, 838.8461
1088.474, 839.0144
1088.956, 839.2305
1089.438, 838.7216
1089.920, 838.1900
1090.402, 838.9345
1090.884, 840.1015
1091.366, 839.7424
1091.849, 835.5610
1092.331, 834.0566
1092.813, 836.2431
1093.295, 839.1479
1093.777, 839.9709
1094.259, 839.2872
1094.741, 837.9066
1095.223, 836.0380
1095.705, 834.6850
1096.188, 834.8687
1096.670, 834.8546
1097.152, 833.9498
1097.634, 832.9003
1098.116, 833.4538
1098.598, 835.2145
1099.080, 835.8333
1099.562, 834.8808
1100.044, 833.5262
1100.527, 831.8862
1101.009, 830.7145
1101.491, 830.7203
1101.973, 831.6637
1102.455, 832.2420
1102.937, 832.4444
1103.419, 832.4460
1103.901, 832.2278
1104.384, 831.9899
1104.866, 831.9053
1105.348, 831.9299
1105.830, 832.0193
1106.312, 832.1669
1106.794, 832.3679
1107.276, 832.6744
1107.758, 832.8351
1108.240, 832.9205
1108.723, 832.5939
1109.205, 830.3935
1109.687, 827.4066
1110.169, 826.1087
1110.651, 829.2033
1111.133, 831.2312
1111.615, 831.5914
1112.097, 831.1884
1112.579, 830.6938
1113.062, 830.1422
1113.544, 829.5597
1114.026, 828.9922
1114.508, 828.7200
1114.990, 829.2206
1115.472, 829.6415
1115.954, 829.5002
1116.436, 829.2316
1116.919, 829.6357
1117.401, 830.6418
1117.883, 831.0511
1118.365, 830.7100
1118.847, 830.2262
1119.329, 830.2066
1119.811, 830.0568
1120.293, 828.9974
1120.776, 827.4098
1121.258, 827.1774
1121.740, 828.5689
1122.222, 828.5255
1122.704, 825.9846
1123.186, 823.2341
1123.668, 822.6705
1124.150, 823.1706
1124.632, 823.6174
1125.115, 823.8787
1125.597, 823.9590
1126.079, 823.8316
1126.561, 823.6761
1127.043, 823.6324
1127.525, 823.5002
1128.007, 822.7155
1128.489, 821.6825
1128.971, 821.1569
1129.454, 821.6261
1129.936, 821.6964
1130.418, 820.9216
1130.900, 820.3408
1131.382, 820.6769
1131.864, 821.6086
1132.346, 822.3138
1132.828, 822.8068
1133.311, 823.1441
1133.793, 823.4692
1134.275, 823.4202
1134.757, 822.5323
1135.239, 821.6872
1135.721, 821.8502
1136.203, 822.8354
1136.685, 823.0411
1137.167, 822.5227
1137.650, 822.0206
1138.132, 822.0370
1138.614, 822.0922
1139.096, 821.8805
1139.578, 821.6288
1140.060, 821.7429
1140.542, 822.2335
1141.024, 822.3920
1141.506, 822.1660
1141.989, 821.4958
1142.471, 819.9689
1142.953, 818.3246
1143.435, 816.8336
1143.917, 815.6818
1144.399, 815.3068
1144.881, 815.7507
1145.363, 816.9543
1145.846, 819.0947
1146.328, 820.7327
1146.810, 819.6467
1147.292, 817.8821
1147.774, 817.4887
1148.256, 818.6229
1148.738, 819.6124
1149.220, 820.6588
1149.703, 820.4666
1150.185, 818.2686
1150.667, 815.8466
1151.149, 815.7610
1151.631, 816.8005
1152.113, 817.3912
1152.595, 817.2599
1153.077, 816.5789
1153.559, 814.9584
1154.042, 813.9280
1154.524, 814.3498
1155.006, 815.3300
1155.488, 815.2549
1155.970, 814.4942
1156.452, 813.6824
1156.934, 812.7123
1157.416, 812.5950
1157.898, 813.9191
1158.381, 815.0858
1158.863, 815.0336
1159.345, 814.2990
1159.827, 814.6347
1160.309, 815.5839
1160.791, 815.8547
1161.273, 814.5439
1161.755, 813.3371
1162.238, 812.5999
1162.720, 812.0709
1163.202, 811.5010
1163.684, 810.9827
1164.166, 811.4112
1164.648, 812.4211
1165.130, 812.3616
1165.612, 808.8220
1166.094, 806.1442
1166.577, 806.0523
1167.059, 807.0067
1167.541, 807.5284
1168.023, 807.7184
1168.505, 808.9186
1168.987, 810.9809
1169.469, 812.3798
1169.951, 811.7040
1170.433, 810.7413
1170.916, 810.2665
1171.398, 809.9756
1171.880, 809.4634
1172.362, 808.7499
1172.844, 808.0270
1173.326, 807.3340
1173.808, 807.0403
1174.290, 808.2541
1174.773, 809.1005
1175.255, 807.8769
1175.737, 805.7575
1176.219, 805.2029
1176.701, 806.2269
1177.183, 806.1664
1177.665, 804.6349
1178.147, 802.8621
1178.630, 801.1741
1179.112, 800.1869
1179.594, 801.0369
1180.076, 800.0457
1180.558, 802.8318
1181.040, 800.6633
1181.522, 800.0651
1182.004, 801.9858
1182.486, 803.7558
1182.969, 802.1127
1183.451, 800.0259
1183.933, 800.1829
1184.415, 802.2990
1184.897, 803.8594
1185.379, 804.8741
1185.861, 805.1471
1186.343, 804.4368
1186.825, 803.7818
1187.308, 804.6705
1187.790, 805.7830
1188.272, 805.7946
1188.754, 804.6682
1189.236, 803.2278
1189.718, 801.3868
1190.200, 800.3561
1190.682, 800.7222
1191.165, 801.5016
1191.647, 801.8284
1192.129, 801.8925
1192.611, 801.7674
1193.093, 801.4243
1193.575, 801.8381
1194.057, 803.1751
1194.539, 803.9681
1195.021, 803.5259
1195.504, 802.5145
1195.986, 801.0156
1196.468, 799.7365
1196.950, 799.8898
1197.432, 801.9338
1197.914, 802.6282
1198.396, 801.8062
1198.878, 800.6542
1199.360, 799.4134
1199.843, 798.6378
1200.325, 799.4070
1200.807, 800.8850
1201.289, 801.8632
1201.771, 802.0589
1202.253, 802.6324
1202.735, 803.7463
1203.217, 804.2279
1203.700, 802.9197
1204.182, 801.2662
1204.664, 801.4833
1205.146, 802.2797
1205.628, 801.2568
1206.110, 796.9099
1206.592, 795.3893
1207.074, 797.0533
1207.557, 799.1173
1208.039, 799.7056
1208.521, 799.8372
1209.003, 801.4069
1209.485, 803.1078
1209.967, 802.1293
1210.449, 796.0799
1210.931, 794.4302
1211.413, 797.8796
1211.896, 801.2343
1212.378, 800.2642
1212.860, 797.8956
1213.342, 797.1658
1213.824, 797.3987
1214.306, 797.1548
1214.788, 796.0703
1215.270, 795.4050
1215.752, 795.2016
1216.235, 795.3226
1216.717, 796.2810
1217.199, 796.9778
1217.681, 795.7916
1218.163, 793.6158
1218.645, 792.5627
1219.127, 793.0377
1219.609, 793.3554
1220.092, 793.4451
1220.574, 793.4122
1221.056, 792.9675
1221.538, 792.7750
1222.020, 794.1189
1222.502, 793.3936
1222.984, 796.0411
1223.466, 793.4833
1223.948, 792.4192
1224.431, 793.1766
1224.913, 794.2438
1225.395, 794.9910
1225.877, 794.9889
1226.359, 792.8461
1226.841, 789.9528
1227.323, 789.8976
1227.805, 793.3955
1228.287, 794.4714
1228.770, 792.5818
1229.252, 790.7666
1229.734, 791.8939
1230.216, 793.5769
1230.698, 794.4301
1231.180, 794.3661
1231.662, 793.1054
1232.144, 790.4439
1232.627, 789.5401
1233.109, 790.6971
1233.591, 791.9030
1234.073, 791.8456
1234.555, 791.1367
1235.037, 789.7498
1235.519, 788.1682
1236.001, 787.1238
1236.484, 786.6296
1236.966, 787.3619
1237.448, 789.3748
1237.930, 791.0336
1238.412, 791.0721
1238.894, 790.6132
1239.376, 790.3049
1239.858, 789.8895
1240.340, 788.6131
1240.823, 786.6365
1241.305, 785.8250
1241.787, 786.3180
1242.269, 786.7312
1242.751, 785.7377
1243.233, 785.0527
1243.715, 785.7040
1244.197, 786.8341
1244.679, 787.0805
1245.162, 786.6082
1245.644, 786.1019
1246.126, 785.6593
1246.608, 785.7484
1247.090, 787.5679
1247.572, 788.6459
1248.054, 787.7629
1248.536, 786.4105
1249.019, 787.3181
1249.501, 789.5944
1249.983, 790.0783
1250.465, 788.6818
1250.947, 787.9474
1251.429, 790.4883
1251.911, 791.4774
1252.393, 789.3029
1252.875, 786.3426
1253.358, 785.5045
1253.840, 786.4276
1254.322, 789.2834
1254.804, 793.6127
1255.286, 795.4964
1255.768, 792.2823
1256.250, 789.1886
1256.732, 786.9412
1257.214, 785.2208
1257.697, 783.6819
1258.179, 782.3874
1258.661, 781.5148
1259.143, 781.0262
1259.625, 780.5052
1260.107, 779.0795
1260.589, 780.2390
1261.071, 785.2274
1261.554, 789.7390
1262.036, 787.8154
1262.518, 783.8193
1263.000, 783.2151
1263.482, 785.3132
1263.964, 785.1469
1264.446, 781.6993
1264.928, 779.7170
1265.411, 779.9250
1265.893, 780.6010
1266.375, 779.9366
1266.857, 779.2836
1267.339, 779.8796
1267.821, 781.4744
1268.303, 783.3205
1268.785, 785.5625
1269.267, 785.9512
1269.750, 784.1887
1270.232, 782.3810
1270.714, 782.2344
1271.196, 782.4078
1271.678, 782.0881
1272.160, 781.5109
1272.642, 781.2353
1273.124, 781.1839
1273.606, 779.7578
1274.089, 776.9690
1274.571, 775.1049
1275.053, 776.5001
1275.535, 777.9389
1276.017, 778.4161
1276.499, 778.1335
1276.981, 776.6073
1277.463, 774.5662
1277.946, 775.5447
1278.428, 779.2174
1278.910, 781.7728
1279.392, 780.7686
1279.874, 779.3476
1280.356, 777.7919
1280.838, 776.5840
1281.320, 776.4982
1281.802, 776.9994
1282.285, 777.1462
1282.767, 776.8607
1283.249, 775.9735
1283.731, 772.9620
1284.213, 772.7322
1284.695, 776.4757
1285.177, 779.9377
1285.659, 778.1839
1286.141, 774.6840
1286.624, 774.1707
1287.106, 772.6567
1287.588, 771.3951
1288.070, 771.9778
1288.552, 770.8445
1289.034, 772.1838
1289.516, 774.0335
1289.998, 775.5756
1290.481, 776.3375
1290.963, 775.4489
1291.445, 773.7039
1291.927, 772.3680
1292.409, 771.4171
1292.891, 771.3057
1293.373, 772.0039
1293.855, 772.8670
1294.338, 773.2482
1294.820, 774.0147
1295.302, 776.5267
1295.784, 778.7785
1296.266, 778.5198
1296.748, 776.2761
1297.230, 775.5563
1297.712, 776.2042
1298.194, 777.2588
1298.677, 778.9901
1299.159, 779.5068
1299.641, 778.0742
1300.123, 776.4002
1300.605, 775.7473
1301.087, 775.7493
1301.569, 775.4617
1302.051, 774.9548
1302.533, 774.4319
1303.016, 773.3503
##END=



