##NAMES=Sodalite
##RRUFFID=R060405
##IDEAL CHEMISTRY=Na_4_Si_3_Al_3_O_12_Cl
##LOCALITY=Cerro Sapo, Cochabamba Department, Bolivia
##OWNER=RRUFF
##SOURCE=Marcus Origlieri
##DESCRIPTION=Blue massive associated with brown burbankite R050646
##STATUS=The identification of this mineral has been confirmed by X-ray diffraction and chemical analysis
##URL=rruff.info/R060405
##MEASURED CHEMISTRY=Na_8.00_Al_6.00_Si_6.00_O_24_Cl_2_
137.3708, 47.32581
137.8529, 47.61905
138.3350, 47.91942
138.8171, 48.13115
139.2992, 48.11610
139.7813, 47.97982
140.2635, 47.94531
140.7456, 48.20748
141.2277, 48.80370
141.7098, 49.41988
142.1919, 49.88131
142.6740, 50.49339
143.1561, 51.50489
143.6383, 52.89625
144.1204, 54.37920
144.6025, 55.67147
145.0846, 56.73683
145.5667, 57.76278
146.0488, 58.88724
146.5310, 59.91249
147.0131, 60.59637
147.4952, 60.87161
147.9773, 60.93790
148.4594, 61.02748
148.9415, 61.13073
149.4237, 61.07138
149.9058, 60.52198
150.3879, 59.73822
150.8700, 59.46405
151.3521, 59.97112
151.8342, 60.85222
152.3164, 61.73235
152.7985, 62.61604
153.2806, 63.57406
153.7627, 64.62914
154.2448, 65.78158
154.7269, 67.09621
155.2091, 68.55663
155.6912, 70.22391
156.1733, 72.14162
156.6554, 74.31728
157.1375, 76.70109
157.6196, 79.22889
158.1018, 81.86752
158.5839, 84.77309
159.0660, 87.62167
159.5481, 90.91224
160.0302, 95.04115
160.5123, 100.0757
160.9945, 105.7188
161.4766, 111.4048
161.9587, 117.0966
162.4408, 123.0004
162.9229, 129.8730
163.4050, 136.5776
163.8871, 142.2680
164.3693, 146.6337
164.8514, 149.5019
165.3335, 150.3203
165.8156, 148.5064
166.2977, 145.4590
166.7798, 140.8780
167.2620, 135.2026
167.7441, 128.9727
168.2262, 122.3235
168.7083, 115.4855
169.1904, 109.1559
169.6725, 103.1912
170.1547, 97.78967
170.6368, 93.16381
171.1189, 89.21429
171.6010, 85.58567
172.0831, 82.05030
172.5652, 78.87557
173.0474, 76.38989
173.5295, 74.81948
174.0116, 73.50887
174.4937, 71.89382
174.9758, 69.97209
175.4579, 68.37718
175.9401, 67.78212
176.4222, 67.46671
176.9043, 66.61501
177.3864, 64.95357
177.8685, 63.02033
178.3506, 61.48586
178.8328, 60.43631
179.3149, 59.47917
179.7970, 58.67186
180.2791, 57.80365
180.7612, 56.66393
181.2433, 55.15170
181.7255, 53.40273
182.2076, 51.65152
182.6897, 49.71771
183.1718, 48.15417
183.6539, 47.13251
184.1360, 46.43491
184.6181, 45.88409
185.1003, 45.40160
185.5824, 44.95820
186.0645, 44.46472
186.5466, 44.06345
187.0287, 43.40372
187.5108, 42.07777
187.9930, 40.57232
188.4751, 39.51160
188.9572, 39.26072
189.4393, 39.68975
189.9214, 40.09777
190.4035, 40.78606
190.8857, 41.12018
191.3678, 40.70997
191.8499, 39.88128
192.3320, 39.17279
192.8141, 38.90268
193.2962, 39.03180
193.7784, 39.28322
194.2605, 39.90430
194.7426, 40.36092
195.2247, 40.47721
195.7068, 40.28267
196.1889, 39.82152
196.6711, 39.00725
197.1532, 37.99630
197.6353, 37.52143
198.1174, 38.04276
198.5995, 38.61723
199.0816, 38.70464
199.5638, 38.36003
200.0459, 37.94658
200.5280, 37.59742
201.0101, 37.36892
201.4922, 37.36158
201.9743, 37.72766
202.4565, 38.16657
202.9386, 38.39830
203.4207, 38.41676
203.9028, 38.46880
204.3849, 38.70062
204.8670, 39.04805
205.3492, 39.45464
205.8313, 40.03162
206.3134, 40.50682
206.7955, 40.43159
207.2776, 39.66628
207.7597, 39.00143
208.2419, 38.85543
208.7240, 38.97351
209.2061, 39.15861
209.6882, 39.36669
210.1703, 39.57634
210.6524, 39.71964
211.1346, 39.71551
211.6167, 39.86051
212.0988, 40.44697
212.5809, 41.12599
213.0630, 41.52745
213.5451, 41.47381
214.0273, 41.18403
214.5094, 41.18532
214.9915, 41.75887
215.4736, 42.10825
215.9557, 41.80726
216.4378, 41.36097
216.9200, 41.30659
217.4021, 41.89148
217.8842, 42.88443
218.3663, 43.63625
218.8484, 43.98747
219.3305, 44.30100
219.8127, 44.65033
220.2948, 44.97845
220.7769, 45.15424
221.2590, 45.11738
221.7411, 45.03150
222.2232, 45.38971
222.7054, 46.87954
223.1875, 48.00426
223.6696, 48.40665
224.1517, 48.49799
224.6338, 48.73195
225.1159, 49.31113
225.5980, 50.15371
226.0802, 51.02949
226.5623, 51.95977
227.0444, 52.89652
227.5265, 53.84829
228.0086, 54.80153
228.4907, 55.64844
228.9729, 56.32496
229.4550, 57.03313
229.9371, 58.34332
230.4192, 60.90182
230.9013, 63.02216
231.3834, 64.16327
231.8656, 64.76844
232.3477, 65.55138
232.8298, 66.82609
233.3119, 68.22652
233.7940, 68.89253
234.2761, 68.66344
234.7583, 68.31277
235.2404, 67.71166
235.7225, 67.15947
236.2046, 67.28757
236.6867, 68.43839
237.1688, 70.00972
237.6510, 70.92454
238.1331, 71.11770
238.6152, 71.30950
239.0973, 71.67297
239.5794, 72.20822
240.0615, 72.91094
240.5437, 73.78354
241.0258, 74.83414
241.5079, 76.15320
241.9900, 77.74269
242.4721, 79.23703
242.9542, 80.24088
243.4364, 81.02563
243.9185, 82.32841
244.4006, 84.41064
244.8827, 86.83498
245.3648, 89.19559
245.8469, 91.49746
246.3290, 93.75608
246.8112, 95.99467
247.2933, 98.18862
247.7754, 100.2724
248.2575, 102.1014
248.7396, 104.0505
249.2217, 106.3072
249.7039, 108.8677
250.1860, 111.7633
250.6681, 115.3779
251.1502, 119.3988
251.6323, 122.6091
252.1144, 124.3990
252.5966, 126.2576
253.0787, 128.9576
253.5608, 132.3537
254.0429, 136.1972
254.5250, 140.5378
255.0071, 145.2079
255.4893, 149.5801
255.9714, 153.4612
256.4535, 157.3181
256.9356, 161.3699
257.4177, 165.5358
257.8998, 169.7298
258.3820, 173.9306
258.8641, 178.0921
259.3462, 182.0854
259.8283, 186.0671
260.3104, 189.5601
260.7925, 192.6528
261.2747, 195.2294
261.7568, 197.1662
262.2389, 198.4465
262.7210, 198.9976
263.2031, 198.5912
263.6852, 196.9976
264.1674, 194.7101
264.6495, 191.9057
265.1316, 188.5922
265.6137, 184.7474
266.0958, 180.3576
266.5779, 175.5335
267.0601, 170.5077
267.5422, 165.1384
268.0243, 159.8483
268.5064, 154.4861
268.9885, 149.3192
269.4706, 144.7205
269.9528, 140.7999
270.4349, 137.1932
270.9170, 133.1264
271.3991, 128.0631
271.8812, 123.6793
272.3633, 120.2717
272.8455, 117.3456
273.3276, 114.5445
273.8097, 111.7728
274.2918, 109.1879
274.7739, 107.0758
275.2560, 105.7413
275.7382, 104.2405
276.2202, 102.3738
276.7024, 100.5203
277.1845, 98.92449
277.6666, 97.60760
278.1487, 96.41445
278.6308, 95.12710
279.1129, 93.61732
279.5951, 92.49001
280.0772, 91.98313
280.5593, 91.57532
281.0414, 90.81716
281.5235, 89.82488
282.0056, 89.17843
282.4878, 89.52425
282.9699, 91.09164
283.4520, 91.99013
283.9341, 91.46806
284.4162, 91.10863
284.8983, 91.50917
285.3805, 92.61961
285.8626, 94.14256
286.3447, 95.87541
286.8268, 97.81010
287.3089, 99.87370
287.7910, 101.9969
288.2732, 104.3023
288.7553, 106.5675
289.2374, 109.0506
289.7195, 112.3402
290.2016, 116.8824
290.6837, 122.3186
291.1659, 126.7434
291.6480, 129.6646
292.1301, 132.1282
292.6122, 134.7579
293.0943, 136.9088
293.5764, 137.5984
294.0586, 136.3609
294.5407, 133.6289
295.0228, 130.5581
295.5049, 127.5407
295.9870, 123.6336
296.4691, 118.5016
296.9513, 112.5921
297.4334, 106.1621
297.9155, 99.35568
298.3976, 92.51591
298.8797, 86.22298
299.3618, 80.56363
299.8440, 75.42917
300.3261, 70.86061
300.8082, 66.81046
301.2903, 63.24147
301.7724, 60.15150
302.2545, 57.46392
302.7367, 55.10422
303.2188, 53.17562
303.7009, 51.25499
304.1830, 49.05420
304.6651, 47.07864
305.1472, 45.67140
305.6294, 44.81642
306.1115, 44.29605
306.5936, 43.98107
307.0757, 43.89272
307.5578, 43.49769
308.0399, 42.57268
308.5221, 41.62173
309.0042, 40.97149
309.4863, 40.48866
309.9684, 39.73127
310.4505, 38.33954
310.9326, 36.49424
311.4148, 35.54094
311.8969, 36.25365
312.3790, 36.81084
312.8611, 36.75864
313.3432, 36.27316
313.8253, 35.59840
314.3075, 34.82815
314.7896, 34.05305
315.2717, 33.51298
315.7538, 33.50310
316.2359, 33.29952
316.7180, 32.61686
317.2001, 31.81320
317.6823, 31.31654
318.1644, 31.24292
318.6465, 31.34490
319.1286, 31.24667
319.6107, 30.80646
320.0928, 30.50370
320.5750, 30.34951
321.0571, 30.31777
321.5392, 30.45845
322.0213, 30.74197
322.5034, 31.00679
322.9855, 31.09994
323.4677, 31.01074
323.9498, 30.75909
324.4319, 30.01705
324.9140, 29.43744
325.3961, 29.52881
325.8782, 30.10125
326.3604, 30.51804
326.8425, 30.29970
327.3246, 29.52413
327.8067, 29.07667
328.2888, 29.27260
328.7709, 29.38952
329.2531, 29.21347
329.7352, 28.84360
330.2173, 28.40014
330.6994, 27.92764
331.1815, 27.51709
331.6636, 27.41753
332.1458, 28.04618
332.6279, 28.48028
333.1100, 28.61889
333.5921, 28.58594
334.0742, 28.43534
334.5563, 28.20218
335.0385, 28.01967
335.5206, 28.11095
336.0027, 28.70455
336.4848, 28.96768
336.9669, 28.68418
337.4490, 28.28081
337.9312, 28.00099
338.4133, 27.87274
338.8954, 27.81574
339.3775, 27.74668
339.8596, 27.65117
340.3417, 27.72993
340.8239, 28.27478
341.3060, 28.66938
341.7881, 28.57663
342.2702, 28.17017
342.7523, 27.83023
343.2344, 27.80028
343.7166, 28.00191
344.1987, 28.05397
344.6808, 27.73525
345.1629, 27.51296
345.6450, 27.48595
346.1271, 27.55413
346.6093, 27.65192
347.0914, 27.74556
347.5735, 27.75505
348.0556, 27.48112
348.5377, 26.48310
349.0198, 26.02514
349.5020, 26.49794
349.9841, 27.14058
350.4662, 27.46222
350.9483, 27.39948
351.4304, 27.16045
351.9125, 26.94263
352.3947, 26.73086
352.8768, 26.64669
353.3589, 26.80131
353.8410, 26.97149
354.3231, 27.06313
354.8052, 27.10948
355.2874, 27.23664
355.7695, 27.57544
356.2516, 28.01787
356.7337, 27.91245
357.2158, 26.56331
357.6979, 25.61079
358.1800, 25.48278
358.6621, 25.81614
359.1443, 26.22371
359.6264, 26.55772
360.1085, 26.90412
360.5906, 27.51338
361.0727, 28.70052
361.5548, 29.30395
362.0370, 28.63939
362.5191, 27.82627
363.0012, 27.59904
363.4833, 27.98838
363.9654, 28.49208
364.4475, 28.53394
364.9297, 28.06641
365.4118, 27.94754
365.8939, 28.48300
366.3760, 29.05275
366.8581, 29.44203
367.3402, 29.67594
367.8224, 29.81931
368.3045, 29.87220
368.7866, 29.88970
369.2687, 30.06621
369.7508, 30.51646
370.2329, 30.86785
370.7151, 31.02807
371.1972, 31.02310
371.6793, 30.84015
372.1614, 30.46297
372.6435, 30.00607
373.1256, 29.58349
373.6078, 29.19254
374.0899, 28.89244
374.5720, 28.81731
375.0541, 28.72713
375.5362, 28.36265
376.0183, 27.75947
376.5005, 27.28620
376.9826, 27.29254
377.4647, 27.63760
377.9468, 27.79467
378.4289, 27.68968
378.9110, 27.48881
379.3932, 27.21965
379.8753, 26.94190
380.3574, 26.78747
380.8395, 26.86597
381.3216, 27.02230
381.8037, 27.05511
382.2859, 26.96161
382.7680, 26.88664
383.2501, 26.88804
383.7322, 26.95165
384.2143, 27.07380
384.6964, 27.29861
385.1786, 27.42333
385.6607, 27.27076
386.1428, 26.92749
386.6249, 26.56249
387.1070, 26.14582
387.5891, 25.91552
388.0713, 26.30827
388.5534, 27.25822
389.0355, 28.05944
389.5176, 28.57846
389.9997, 28.87907
390.4818, 28.94205
390.9640, 28.78868
391.4461, 28.65486
391.9282, 28.69115
392.4103, 28.88624
392.8924, 29.13426
393.3745, 29.44473
393.8567, 29.79214
394.3388, 30.24053
394.8209, 30.71039
395.3030, 31.03049
395.7851, 31.13305
396.2672, 31.10011
396.7494, 31.05735
397.2315, 30.92679
397.7136, 30.99055
398.1957, 31.39134
398.6778, 31.90421
399.1599, 32.42456
399.6420, 32.89968
400.1241, 33.17348
400.6063, 33.04052
401.0884, 32.47281
401.5705, 32.47836
402.0526, 33.48651
402.5347, 34.50446
403.0168, 35.23394
403.4990, 35.77345
403.9811, 36.27969
404.4632, 36.82355
404.9453, 37.43328
405.4274, 38.18059
405.9095, 39.12012
406.3917, 40.11085
406.8738, 41.25866
407.3559, 42.36720
407.8380, 43.27663
408.3201, 43.98470
408.8022, 44.64444
409.2844, 45.49853
409.7665, 46.59166
410.2486, 47.07364
410.7307, 46.70864
411.2128, 45.92110
411.6949, 44.42893
412.1771, 42.68391
412.6592, 41.40414
413.1413, 40.98957
413.6234, 41.07251
414.1055, 40.83349
414.5876, 40.10549
415.0698, 39.56291
415.5519, 39.45434
416.0340, 39.53060
416.5161, 39.66509
416.9982, 39.83474
417.4803, 40.02415
417.9625, 40.27735
418.4446, 40.56425
418.9267, 40.64008
419.4088, 40.33100
419.8909, 40.09692
420.3730, 40.32710
420.8552, 40.83495
421.3373, 41.22353
421.8194, 41.15200
422.3015, 41.11819
422.7836, 41.85514
423.2657, 43.35073
423.7479, 44.74553
424.2300, 45.70934
424.7121, 46.36973
425.1942, 46.94355
425.6763, 47.41113
426.1584, 47.88922
426.6406, 48.28223
427.1227, 48.76062
427.6048, 49.70594
428.0869, 51.21811
428.5690, 52.77909
429.0511, 53.82176
429.5333, 54.36769
430.0154, 55.42345
430.4975, 57.50261
430.9796, 59.61467
431.4617, 61.27482
431.9438, 62.51882
432.4260, 63.41882
432.9081, 63.95143
433.3902, 64.35691
433.8723, 65.20649
434.3544, 66.70505
434.8365, 68.33807
435.3187, 69.96558
435.8008, 71.80391
436.2829, 74.19254
436.7650, 77.06174
437.2471, 79.84821
437.7292, 81.93830
438.2114, 83.30274
438.6935, 85.46953
439.1756, 88.71310
439.6577, 92.48660
440.1398, 96.61854
440.6219, 101.2253
441.1040, 106.4785
441.5862, 112.4282
442.0683, 118.9554
442.5504, 125.7281
443.0325, 132.5914
443.5146, 140.2575
443.9967, 149.1386
444.4789, 158.5359
444.9610, 168.1634
445.4431, 177.9455
445.9252, 187.9963
446.4073, 198.4611
446.8894, 209.1598
447.3716, 219.4160
447.8537, 229.2210
448.3358, 238.5753
448.8179, 246.7930
449.3000, 254.9041
449.7821, 264.0819
450.2643, 274.6288
450.7464, 285.9693
451.2285, 297.4546
451.7106, 309.2601
452.1927, 321.8831
452.6748, 335.2322
453.1570, 349.6813
453.6391, 365.3469
454.1212, 382.2343
454.6033, 401.4769
455.0854, 423.2950
455.5675, 447.4980
456.0497, 474.1885
456.5318, 503.1966
457.0139, 534.1388
457.4960, 566.7362
457.9781, 601.2963
458.4602, 639.3385
458.9424, 682.5930
459.4245, 725.0496
459.9066, 767.0816
460.3887, 806.8795
460.8708, 843.6031
461.3529, 876.6569
461.8351, 904.3303
462.3172, 925.7704
462.7993, 941.0291
463.2814, 943.5316
463.7635, 931.0823
464.2456, 909.4678
464.7278, 877.3747
465.2099, 837.6337
465.6920, 793.0289
466.1741, 744.5688
466.6562, 694.0050
467.1383, 643.9100
467.6205, 593.2701
468.1026, 544.9677
468.5847, 497.8105
469.0668, 454.2003
469.5489, 415.7287
470.0310, 381.9352
470.5132, 351.8781
470.9953, 325.1744
471.4774, 301.5595
471.9595, 280.6443
472.4416, 262.8536
472.9237, 246.2706
473.4059, 230.3911
473.8880, 215.4876
474.3701, 201.6820
474.8522, 189.0482
475.3343, 178.0160
475.8164, 169.6072
476.2986, 163.0234
476.7807, 156.1151
477.2628, 148.5649
477.7449, 141.3049
478.2270, 135.1285
478.7091, 129.8587
479.1913, 124.6655
479.6734, 118.9372
480.1555, 113.9210
480.6376, 110.6784
481.1197, 108.5758
481.6018, 106.2392
482.0839, 103.2090
482.5660, 100.0022
483.0482, 97.28245
483.5303, 95.09925
484.0124, 93.40489
484.4945, 92.68148
484.9766, 91.96664
485.4587, 90.72401
485.9409, 89.06023
486.4230, 87.34427
486.9051, 85.78084
487.3872, 84.27283
487.8693, 82.51841
488.3514, 80.15573
488.8336, 78.21580
489.3157, 77.16674
489.7978, 76.18880
490.2799, 74.63525
490.7620, 72.57229
491.2441, 70.59877
491.7263, 69.24781
492.2084, 68.38624
492.6905, 67.30034
493.1726, 65.74924
493.6547, 64.56244
494.1368, 64.51119
494.6190, 64.79605
495.1011, 64.55324
495.5832, 63.57412
496.0653, 62.54802
496.5474, 62.20866
497.0295, 62.24749
497.5117, 61.65696
497.9938, 60.18856
498.4759, 58.50843
498.9580, 57.14207
499.4401, 56.01872
499.9222, 54.75406
500.4044, 53.08984
500.8865, 51.51855
501.3686, 50.33826
501.8507, 49.42124
502.3328, 48.45048
502.8149, 47.31579
503.2971, 46.23286
503.7792, 45.54488
504.2613, 45.43729
504.7434, 45.03270
505.2255, 43.94961
505.7076, 42.97918
506.1898, 42.67235
506.6719, 42.74903
507.1540, 42.50457
507.6361, 41.53962
508.1182, 40.36377
508.6003, 40.33024
509.0825, 42.18578
509.5646, 43.17559
510.0467, 42.34008
510.5288, 41.16682
511.0109, 40.34193
511.4930, 39.88482
511.9752, 39.57845
512.4573, 39.35289
512.9394, 39.14626
513.4215, 38.75566
513.9036, 38.12325
514.3857, 37.67499
514.8679, 37.70450
515.3500, 37.90703
515.8321, 37.89210
516.3142, 37.63624
516.7963, 37.30960
517.2784, 36.88372
517.7606, 36.47587
518.2427, 36.35122
518.7248, 36.50631
519.2069, 36.47209
519.6890, 35.85889
520.1711, 34.83002
520.6533, 34.22966
521.1354, 34.30696
521.6175, 34.40124
522.0996, 34.37825
522.5817, 34.33782
523.0638, 34.41190
523.5460, 34.60152
524.0281, 34.77971
524.5102, 34.83481
524.9923, 34.76716
525.4744, 34.54671
525.9565, 33.95036
526.4387, 33.49795
526.9208, 33.29974
527.4029, 33.28407
527.8850, 33.51366
528.3671, 33.96991
528.8492, 34.20785
529.3314, 33.49559
529.8135, 31.98344
530.2956, 31.24429
530.7777, 31.71763
531.2598, 32.23748
531.7419, 31.83123
532.2241, 31.04425
532.7062, 30.83246
533.1883, 31.70492
533.6704, 32.49013
534.1525, 32.20164
534.6346, 31.24761
535.1168, 30.58682
535.5989, 30.44381
536.0810, 30.52207
536.5631, 30.55337
537.0452, 30.53511
537.5273, 30.49154
538.0095, 30.45086
538.4916, 30.35608
538.9737, 30.21324
539.4558, 29.99370
539.9379, 29.56939
540.4200, 28.92579
540.9022, 28.35217
541.3843, 28.33452
541.8664, 29.05147
542.3485, 29.30857
542.8306, 28.58551
543.3127, 27.95130
543.7948, 27.73350
544.2769, 27.82183
544.7590, 28.11358
545.2411, 28.61675
545.7233, 28.99292
546.2054, 28.64641
546.6875, 27.64462
547.1696, 27.05852
547.6517, 27.22257
548.1339, 27.50029
548.6160, 27.26493
549.0981, 26.70469
549.5802, 26.35346
550.0623, 26.52053
550.5444, 26.69938
551.0266, 26.52312
551.5087, 26.11579
551.9908, 25.75675
552.4729, 25.53028
552.9550, 25.36225
553.4371, 25.14823
553.9193, 24.85346
554.4014, 24.73472
554.8835, 24.99858
555.3656, 25.18421
555.8477, 25.06604
556.3298, 24.78315
556.8120, 24.53406
557.2941, 24.39355
557.7762, 24.33830
558.2583, 24.34498
558.7404, 24.41911
559.2225, 24.52390
559.7047, 24.81594
560.1868, 24.91798
560.6689, 24.44002
561.1510, 23.72869
561.6331, 23.42279
562.1152, 23.84657
562.5974, 24.34366
563.0795, 24.18918
563.5616, 23.58575
564.0437, 23.33791
564.5258, 23.67627
565.0079, 24.03953
565.4901, 23.84368
565.9722, 23.12768
566.4543, 22.77279
566.9364, 23.12609
567.4185, 23.44061
567.9006, 23.50751
568.3828, 23.33457
568.8649, 22.76292
569.3470, 21.82745
569.8291, 21.09072
570.3112, 21.31467
570.7933, 22.58859
571.2755, 23.21368
571.7576, 22.62161
572.2397, 22.07189
572.7218, 21.83694
573.2039, 21.81455
573.6860, 21.91985
574.1682, 22.12606
574.6503, 22.32981
575.1324, 22.41345
575.6145, 22.40760
576.0966, 22.46037
576.5787, 22.59994
577.0609, 22.72650
577.5430, 22.82586
578.0251, 22.84860
578.5072, 22.66467
578.9893, 22.10477
579.4714, 21.71462
579.9536, 21.79273
580.4357, 22.10740
580.9178, 22.46367
581.3999, 22.79366
581.8820, 22.93097
582.3641, 22.71380
582.8463, 22.22492
583.3284, 21.94769
583.8105, 22.05422
584.2926, 22.13114
584.7747, 22.08686
585.2568, 22.04857
585.7390, 22.13343
586.2211, 22.32887
586.7032, 22.53345
587.1853, 22.71166
587.6674, 22.82099
588.1495, 22.71585
588.6317, 22.36488
589.1138, 21.96867
589.5959, 21.42465
590.0780, 21.02985
590.5601, 21.19551
591.0422, 21.91029
591.5244, 22.55871
592.0065, 22.99752
592.4886, 23.25519
592.9707, 23.24331
593.4528, 23.05242
593.9349, 23.00179
594.4171, 23.24699
594.8992, 23.58349
595.3813, 23.64687
595.8634, 23.33483
596.3455, 23.04333
596.8276, 22.60097
597.3098, 22.35320
597.7919, 22.56875
598.2740, 23.04605
598.7561, 23.46445
599.2382, 23.69625
599.7203, 23.78974
600.2025, 23.78054
600.6846, 23.67170
601.1667, 23.58720
601.6488, 23.57738
602.1309, 23.51563
602.6130, 23.12346
603.0952, 22.64328
603.5773, 22.63496
604.0594, 23.42969
604.5415, 24.20831
605.0236, 24.56033
605.5057, 24.63023
605.9879, 24.64959
606.4700, 24.64983
606.9521, 24.47577
607.4342, 23.95506
607.9163, 23.16271
608.3984, 22.66269
608.8806, 22.56384
609.3627, 22.63555
609.8448, 23.10999
610.3269, 23.55424
610.8090, 23.53641
611.2911, 23.12072
611.7733, 22.77451
612.2554, 22.87170
612.7375, 23.21140
613.2196, 23.30530
613.7017, 23.12768
614.1838, 22.98689
614.6660, 23.01241
615.1481, 23.06643
615.6302, 22.91786
616.1123, 22.58649
616.5944, 22.47050
617.0765, 22.92726
617.5587, 23.36308
618.0408, 23.23446
618.5229, 22.79575
619.0050, 22.70349
619.4871, 23.17771
619.9692, 23.72943
620.4514, 23.66707
620.9335, 22.88620
621.4156, 22.27880
621.8977, 21.71164
622.3798, 21.50207
622.8619, 22.11378
623.3441, 22.93206
623.8262, 23.22922
624.3083, 22.83839
624.7904, 22.20804
625.2725, 21.59192
625.7546, 21.04142
626.2367, 20.68599
626.7188, 20.52824
627.2009, 20.64474
627.6830, 21.21179
628.1652, 21.97080
628.6473, 22.30867
629.1294, 22.13842
629.6115, 21.92549
630.0936, 21.75509
630.5757, 21.54927
631.0579, 21.16116
631.5400, 20.68997
632.0221, 20.41585
632.5042, 20.48765
632.9863, 20.70564
633.4684, 20.65973
633.9506, 20.25751
634.4327, 20.06007
634.9148, 20.27165
635.3969, 20.46974
635.8790, 20.34138
636.3611, 20.08612
636.8433, 20.10000
637.3254, 20.59104
637.8075, 21.00598
638.2896, 20.75587
638.7717, 20.20152
639.2538, 20.10128
639.7360, 20.54678
640.2181, 21.05798
640.7002, 21.33836
641.1823, 21.38302
641.6644, 21.16698
642.1465, 20.18426
642.6287, 19.64966
643.1108, 19.96150
643.5929, 20.39363
644.0750, 20.45962
644.5571, 20.21585
645.0392, 19.94609
645.5214, 19.78477
646.0035, 19.75478
646.4856, 19.97587
646.9677, 20.44635
647.4498, 20.73814
647.9319, 20.76129
648.4141, 20.61875
648.8962, 20.25629
649.3783, 19.77916
649.8604, 19.60984
650.3425, 20.09613
650.8246, 20.46515
651.3068, 20.26322
651.7889, 19.85510
652.2710, 19.71024
652.7531, 19.86835
653.2352, 20.04416
653.7173, 19.99906
654.1995, 19.81961
654.6816, 19.91730
655.1637, 20.52836
655.6458, 20.84914
656.1279, 20.47844
656.6100, 20.00687
657.0922, 19.76262
657.5743, 19.70567
658.0564, 19.63998
658.5385, 19.47259
659.0206, 19.29091
659.5027, 19.16621
659.9849, 19.09461
660.4670, 19.06672
660.9491, 19.08101
661.4312, 19.11796
661.9133, 19.13445
662.3954, 19.14777
662.8776, 19.39939
663.3597, 20.30539
663.8418, 20.90179
664.3239, 20.98484
664.8060, 20.81000
665.2881, 20.45308
665.7703, 20.01908
666.2524, 19.76259
666.7345, 19.89805
667.2166, 20.22008
667.6987, 20.32836
668.1808, 20.23046
668.6630, 20.24252
669.1451, 20.51203
669.6272, 20.72918
670.1093, 20.50946
670.5914, 19.90360
671.0735, 19.58111
671.5557, 19.74054
672.0378, 19.95329
672.5199, 20.15797
673.0020, 20.30137
673.4841, 20.29374
673.9662, 20.15047
674.4484, 20.00449
674.9305, 19.96793
675.4126, 19.98966
675.8947, 19.85588
676.3768, 19.48694
676.8589, 19.32563
677.3411, 19.58648
677.8232, 19.94293
678.3053, 20.17146
678.7874, 20.28068
679.2695, 20.29242
679.7516, 20.17686
680.2338, 20.00920
680.7159, 19.78368
681.1980, 19.55391
681.6801, 19.35852
682.1622, 19.22648
682.6443, 19.30603
683.1265, 19.77448
683.6086, 20.48588
684.0907, 20.70527
684.5728, 20.18321
685.0549, 19.71392
685.5370, 19.22584
686.0192, 18.97977
686.5013, 19.32502
686.9834, 20.04855
687.4655, 20.53790
687.9476, 20.49515
688.4297, 20.27201
688.9119, 20.13387
689.3940, 20.06005
689.8761, 20.02662
690.3582, 20.02610
690.8403, 19.95927
691.3224, 19.70477
691.8046, 19.35734
692.2867, 19.37915
692.7688, 20.17324
693.2509, 20.69020
693.7330, 20.76370
694.2151, 20.68149
694.6973, 20.54297
695.1794, 20.39577
695.6615, 20.33651
696.1436, 20.45550
696.6257, 20.50477
697.1078, 20.01769
697.5900, 19.22110
698.0721, 18.98090
698.5542, 19.44962
699.0363, 20.02402
699.5184, 20.31727
700.0005, 20.39321
700.4827, 20.46952
700.9648, 20.55094
701.4469, 20.62392
701.9290, 20.68391
702.4111, 20.73947
702.8932, 20.74363
703.3754, 20.75713
703.8575, 20.94706
704.3396, 21.39768
704.8217, 21.81299
705.3038, 21.80392
705.7859, 21.43959
706.2681, 20.95646
706.7502, 20.31523
707.2323, 20.00369
707.7144, 20.40194
708.1965, 21.21263
708.6786, 21.76525
709.1607, 22.01767
709.6428, 22.15458
710.1249, 22.11966
710.6071, 22.04122
711.0892, 21.95613
711.5713, 21.88941
712.0534, 21.83443
712.5355, 21.79751
713.0176, 21.89953
713.4998, 22.42460
713.9819, 23.24248
714.4640, 23.59880
714.9461, 23.41447
715.4282, 23.21382
715.9103, 23.20941
716.3925, 23.31003
716.8746, 23.40908
717.3567, 23.52350
717.8388, 23.50154
718.3209, 23.07331
718.8030, 22.78683
719.2852, 23.12574
719.7673, 23.66158
720.2494, 23.68619
720.7315, 23.11342
721.2136, 22.61021
721.6957, 22.83100
722.1779, 23.58609
722.6600, 24.23798
723.1421, 24.79730
723.6242, 25.19212
724.1063, 25.38775
724.5884, 25.42869
725.0706, 25.26376
725.5527, 24.92370
726.0348, 24.84051
726.5169, 25.10121
726.9990, 25.54265
727.4811, 26.24915
727.9633, 27.02208
728.4454, 27.64395
728.9275, 28.10339
729.4096, 28.51794
729.8917, 28.96819
730.3738, 29.42118
730.8560, 29.77682
731.3381, 30.02869
731.8202, 30.41625
732.3023, 31.03592
732.7844, 31.66456
733.2665, 32.23986
733.7487, 32.67884
734.2308, 32.70992
734.7129, 32.12856
735.1950, 31.53250
735.6771, 31.09547
736.1592, 30.64026
736.6414, 29.96968
737.1235, 29.16455
737.6056, 28.40524
738.0877, 27.76311
738.5698, 27.31997
739.0519, 27.32764
739.5341, 27.70652
740.0162, 27.68774
740.4983, 27.16211
740.9804, 26.55910
741.4625, 25.98904
741.9446, 25.55183
742.4268, 25.53560
742.9089, 26.09010
743.3910, 26.26106
743.8731, 25.63184
744.3552, 24.97026
744.8373, 24.66794
745.3195, 24.55419
745.8016, 24.34543
746.2837, 23.98928
746.7658, 23.67722
747.2479, 23.64208
747.7300, 23.33050
748.2122, 23.54722
748.6943, 23.03741
749.1764, 22.71623
749.6585, 22.76367
750.1406, 22.94279
750.6227, 23.04336
751.1049, 23.06324
751.5870, 22.99300
752.0691, 22.77729
752.5512, 22.55452
753.0333, 22.38429
753.5154, 22.18783
753.9976, 21.79776
754.4797, 21.31586
754.9618, 21.06842
755.4439, 21.25770
755.9260, 21.62006
756.4081, 21.88208
756.8903, 22.02784
757.3724, 21.93249
757.8545, 21.56600
758.3366, 21.22650
758.8187, 21.10027
759.3008, 21.12078
759.7830, 21.12827
760.2651, 21.15056
760.7472, 21.09056
761.2293, 20.78959
761.7114, 20.58902
762.1935, 20.71842
762.6757, 20.98892
763.1578, 21.17166
763.6399, 21.20926
764.1220, 21.11287
764.6041, 20.74397
765.0862, 20.33018
765.5684, 20.21882
766.0505, 20.38321
766.5326, 20.71314
767.0147, 21.18500
767.4968, 21.62176
767.9789, 21.82529
768.4611, 21.80298
768.9432, 21.68420
769.4253, 21.23275
769.9074, 21.09441
770.3895, 21.81688
770.8716, 22.47647
771.3538, 22.32210
771.8359, 21.56849
772.3180, 20.98279
772.8001, 20.82681
773.2822, 20.85548
773.7643, 20.89197
774.2465, 21.01679
774.7286, 21.54918
775.2107, 22.35761
775.6928, 22.66888
776.1749, 22.01826
776.6570, 20.95191
777.1392, 20.54862
777.6213, 20.90570
778.1034, 21.22587
778.5855, 21.53165
779.0676, 21.74149
779.5497, 21.73045
780.0319, 21.65510
780.5140, 21.75579
780.9961, 22.05756
781.4782, 22.21786
781.9603, 22.07153
782.4424, 21.84967
782.9246, 21.60630
783.4067, 21.40767
783.8888, 21.32381
784.3709, 21.37725
784.8530, 21.60571
785.3351, 22.10673
785.8173, 22.69621
786.2994, 22.85635
786.7815, 22.58563
787.2636, 22.36954
787.7457, 22.26403
788.2278, 22.35326
788.7100, 22.85577
789.1921, 23.57140
789.6742, 23.67264
790.1563, 22.71065
790.6384, 21.99059
791.1205, 21.75732
791.6026, 21.60521
792.0847, 21.13021
792.5668, 20.63933
793.0490, 20.78274
793.5311, 21.73543
794.0132, 22.64481
794.4953, 22.74591
794.9774, 22.37516
795.4595, 22.02210
795.9417, 21.72462
796.4238, 21.65933
796.9059, 21.89647
797.3880, 22.17235
797.8701, 22.18167
798.3522, 21.94741
798.8344, 21.86539
799.3165, 22.10466
799.7986, 22.16914
800.2807, 21.76377
800.7628, 21.35559
801.2449, 21.19295
801.7271, 21.25109
802.2092, 21.45574
802.6913, 21.84967
803.1734, 22.23528
803.6555, 22.59068
804.1376, 22.82698
804.6198, 22.75541
805.1019, 22.47959
805.5840, 22.30289
806.0661, 22.35693
806.5482, 22.51605
807.0303, 22.62539
807.5125, 22.68970
807.9946, 22.79391
808.4767, 22.98865
808.9588, 22.89376
809.4409, 22.20013
809.9230, 21.46851
810.4052, 21.42236
810.8873, 22.06176
811.3694, 22.33077
811.8515, 21.84759
812.3336, 21.51770
812.8157, 21.58623
813.2979, 21.81809
813.7800, 22.09943
814.2621, 22.37333
814.7442, 22.55058
815.2263, 22.57849
815.7084, 22.57902
816.1906, 22.79905
816.6727, 23.03206
817.1548, 22.69094
817.6369, 21.84803
818.1190, 21.28449
818.6011, 21.35367
819.0833, 21.80050
819.5654, 22.33278
820.0475, 22.96975
820.5296, 23.08789
821.0117, 22.35105
821.4938, 21.78506
821.9760, 21.73525
822.4581, 21.88937
822.9402, 22.06117
823.4223, 22.22510
823.9044, 22.27333
824.3865, 22.04144
824.8687, 21.90894
825.3508, 22.05962
825.8329, 22.34872
826.3150, 22.71766
826.7971, 23.09247
827.2792, 23.33534
827.7614, 23.38587
828.2435, 23.31675
828.7256, 23.16068
829.2077, 22.95925
829.6898, 22.91673
830.1719, 23.03739
830.6541, 23.01997
831.1362, 22.71237
831.6183, 22.38092
832.1004, 22.36552
832.5825, 22.65981
833.0646, 22.79049
833.5468, 22.50416
834.0289, 22.45157
834.5110, 22.93880
834.9931, 23.45311
835.4752, 23.71672
835.9573, 23.74644
836.4395, 23.61045
836.9216, 23.26824
837.4037, 22.95767
837.8858, 22.87269
838.3679, 22.82767
838.8500, 22.51162
839.3322, 22.08248
839.8143, 21.98709
840.2964, 22.36563
840.7785, 22.93517
841.2606, 23.45803
841.7427, 23.88713
842.2249, 23.98932
842.7070, 23.75227
843.1891, 23.46437
843.6712, 23.17489
844.1533, 22.91545
844.6354, 22.70304
845.1176, 22.54606
845.5997, 22.48914
846.0818, 22.56533
846.5639, 22.69343
847.0460, 22.86614
847.5281, 23.09676
848.0103, 23.59777
848.4924, 24.07210
848.9745, 23.95379
849.4566, 23.13374
849.9387, 22.54213
850.4208, 22.82606
850.9030, 23.39755
851.3851, 23.96954
851.8672, 24.35041
852.3493, 23.97881
852.8314, 22.90982
853.3135, 22.11348
853.7957, 22.37608
854.2778, 23.24271
854.7599, 23.71555
855.2420, 23.80262
855.7241, 23.84585
856.2062, 23.88752
856.6884, 23.82281
857.1705, 23.50947
857.6526, 23.17447
858.1347, 23.30670
858.6168, 24.12587
859.0989, 24.40964
859.5811, 23.49063
860.0632, 22.91272
860.5453, 23.24990
861.0274, 23.90325
861.5095, 24.40689
861.9916, 24.72720
862.4738, 24.97149
862.9559, 25.24063
863.4380, 25.32544
863.9201, 25.03676
864.4022, 24.52522
864.8843, 23.81290
865.3665, 23.04822
865.8486, 22.59518
866.3307, 22.60672
866.8128, 22.97122
867.2949, 23.80071
867.7770, 24.86218
868.2592, 24.96074
868.7413, 24.07901
869.2234, 23.43028
869.7055, 23.36553
870.1876, 23.56343
870.6697, 23.77347
871.1519, 23.97589
871.6340, 24.04681
872.1161, 23.85004
872.5981, 23.78315
873.0803, 24.18524
873.5624, 24.36802
874.0445, 23.65914
874.5266, 22.73175
875.0087, 22.69769
875.4908, 23.75711
875.9730, 24.49790
876.4551, 24.21815
876.9372, 23.71343
877.4193, 23.24051
877.9014, 22.96935
878.3835, 23.32089
878.8657, 24.13511
879.3478, 24.56772
879.8299, 24.03719
880.3120, 23.22059
880.7941, 23.03765
881.2762, 23.34179
881.7584, 23.85624
882.2405, 24.49549
882.7226, 24.43862
883.2047, 23.23923
883.6868, 21.83569
884.1689, 21.56717
884.6511, 22.38804
885.1332, 22.84265
885.6153, 22.82727
886.0974, 22.72580
886.5795, 22.58044
887.0616, 22.41157
887.5438, 22.23245
888.0259, 22.04024
888.5080, 21.81478
888.9901, 21.49508
889.4722, 21.28788
889.9543, 21.20611
890.4365, 21.26008
890.9186, 21.65998
891.4007, 22.09135
891.8828, 22.02893
892.3649, 21.47183
892.8470, 21.08431
893.3292, 21.42843
893.8113, 21.86396
894.2934, 21.69772
894.7755, 21.22917
895.2576, 21.01954
895.7397, 21.07023
896.2219, 20.94012
896.7040, 20.38868
897.1861, 19.84476
897.6682, 20.14481
898.1503, 21.11670
898.6324, 21.24829
899.1146, 20.46664
899.5967, 19.89117
900.0788, 19.87897
900.5609, 20.12278
901.0430, 20.36336
901.5251, 20.58896
902.0073, 20.72352
902.4894, 20.73336
902.9715, 20.71992
903.4536, 20.59925
903.9357, 20.56106
904.4178, 20.66512
904.9000, 20.90998
905.3821, 21.47468
905.8642, 22.41532
906.3463, 22.66406
906.8284, 21.19871
907.3105, 19.90911
907.7927, 19.80743
908.2748, 20.21835
908.7569, 20.52927
909.2390, 20.65974
909.7211, 20.73164
910.2032, 20.81276
910.6854, 20.75761
911.1675, 20.21834
911.6496, 19.57522
912.1317, 19.53772
912.6138, 19.97212
913.0959, 20.31816
913.5781, 20.40458
914.0602, 20.40650
914.5423, 20.49747
915.0244, 20.61142
915.5065, 20.46233
915.9886, 20.04571
916.4708, 20.02226
916.9529, 20.54321
917.4350, 21.08966
917.9171, 21.40841
918.3992, 21.53332
918.8813, 21.49309
919.3635, 21.24392
919.8456, 21.18036
920.3277, 21.56200
920.8098, 21.70254
921.2919, 21.22277
921.7740, 20.66453
922.2562, 20.37586
922.7383, 20.31461
923.2204, 20.35404
923.7025, 20.55035
924.1846, 20.66256
924.6667, 20.39520
925.1489, 20.27653
925.6310, 20.90041
926.1131, 21.72353
926.5952, 21.89071
927.0773, 21.36898
927.5594, 20.96320
928.0416, 21.18011
928.5237, 21.58146
929.0058, 21.84548
929.4879, 21.99234
929.9700, 22.07456
930.4521, 22.07556
930.9343, 21.84298
931.4164, 21.32686
931.8985, 20.90031
932.3806, 21.11069
932.8627, 21.71656
933.3448, 21.91797
933.8270, 21.74529
934.3091, 21.48870
934.7912, 21.19954
935.2733, 21.03960
935.7554, 21.13684
936.2375, 21.40847
936.7197, 21.65239
937.2018, 21.85010
937.6839, 22.13991
938.1660, 22.57114
938.6481, 22.97181
939.1302, 23.28044
939.6124, 23.55456
940.0945, 23.97752
940.5766, 24.47873
941.0587, 24.38095
941.5408, 22.76142
942.0229, 21.97599
942.5051, 22.80474
942.9872, 23.75213
943.4693, 24.07978
943.9514, 24.09014
944.4335, 24.22181
944.9156, 24.52821
945.3978, 24.82146
945.8799, 25.11148
946.3620, 25.28412
946.8441, 25.00256
947.3262, 24.78535
947.8083, 25.44445
948.2905, 26.60155
948.7726, 27.07414
949.2547, 26.41858
949.7368, 25.80320
950.2189, 26.38870
950.7010, 27.43920
951.1832, 27.98231
951.6653, 28.17746
952.1474, 28.40413
952.6295, 28.76041
953.1116, 29.27955
953.5938, 29.99649
954.0759, 30.81032
954.5580, 31.53414
955.0400, 32.20241
955.5222, 33.04401
956.0043, 34.06399
956.4864, 34.93438
956.9685, 35.53062
957.4506, 36.14575
957.9327, 37.06092
958.4149, 38.22937
958.8970, 39.43058
959.3791, 40.67358
959.8612, 41.91018
960.3433, 43.07439
960.8254, 44.39555
961.3076, 46.00019
961.7897, 47.77818
962.2718, 49.64104
962.7539, 51.59294
963.2360, 53.26007
963.7181, 54.35638
964.2003, 55.60178
964.6824, 57.36118
965.1645, 58.96198
965.6466, 60.00777
966.1287, 60.68161
966.6108, 61.25266
967.0930, 61.72808
967.5751, 62.30281
968.0572, 62.80272
968.5393, 63.68216
969.0214, 65.36478
969.5035, 67.30428
969.9857, 69.04668
970.4678, 70.59719
970.9499, 72.11060
971.4320, 73.63165
971.9141, 75.11431
972.3962, 76.78882
972.8784, 78.16569
973.3605, 78.28022
973.8426, 78.05656
974.3247, 79.16305
974.8068, 81.54309
975.2889, 83.70260
975.7711, 84.75628
976.2532, 85.63494
976.7353, 87.18092
977.2174, 89.36658
977.6995, 92.14275
978.1816, 95.53357
978.6638, 99.50892
979.1459, 104.1020
979.6280, 109.4899
980.1101, 115.7992
980.5922, 123.0106
981.0743, 130.8588
981.5565, 139.4224
982.0386, 149.5325
982.5207, 161.1751
983.0028, 173.2856
983.4849, 185.4941
983.9670, 197.3996
984.4492, 208.8804
984.9313, 219.3649
985.4134, 226.4855
985.8955, 230.3571
986.3776, 229.5751
986.8597, 223.5877
987.3419, 214.3465
987.8240, 202.3168
988.3061, 188.3125
988.7882, 173.1145
989.2703, 156.7882
989.7524, 141.8091
990.2346, 128.3311
990.7167, 115.8198
991.1988, 103.8708
991.6809, 93.27937
992.1630, 84.65746
992.6451, 77.58227
993.1273, 71.34228
993.6094, 65.90458
994.0915, 61.59678
994.5736, 59.32727
995.0557, 56.89353
995.5378, 53.52523
996.0200, 50.23077
996.5021, 47.49628
996.9842, 45.38501
997.4663, 44.13649
997.9484, 43.93630
998.4305, 43.46491
998.9127, 42.17836
999.3948, 40.83128
999.8769, 39.69165
1000.359, 38.68997
1000.841, 37.83229
1001.323, 37.04116
1001.805, 36.09019
1002.287, 34.86095
1002.770, 33.91133
1003.252, 33.72423
1003.734, 33.71042
1004.216, 33.37250
1004.698, 32.98460
1005.180, 33.03954
1005.662, 33.42866
1006.144, 33.57926
1006.627, 33.22813
1007.109, 32.71983
1007.591, 32.25715
1008.073, 31.85977
1008.555, 31.50718
1009.037, 31.25494
1009.519, 31.26885
1010.001, 31.51803
1010.483, 31.76668
1010.966, 31.89582
1011.448, 31.85591
1011.930, 31.58696
1012.412, 31.10640
1012.894, 30.33590
1013.376, 29.38877
1013.858, 28.65981
1014.340, 28.20904
1014.823, 27.69985
1015.305, 26.86065
1015.787, 26.03178
1016.269, 25.92795
1016.751, 26.30542
1017.233, 26.23744
1017.715, 25.72806
1018.197, 25.02200
1018.679, 24.20068
1019.162, 23.61656
1019.644, 23.59312
1020.126, 23.86772
1020.608, 23.84110
1021.090, 23.53682
1021.572, 23.26246
1022.054, 23.02958
1022.536, 22.82703
1023.018, 22.63837
1023.501, 22.61778
1023.983, 22.95670
1024.465, 23.46765
1024.947, 23.48013
1025.429, 22.92233
1025.911, 22.77056
1026.393, 23.14513
1026.875, 23.43509
1027.358, 23.38315
1027.840, 23.34428
1028.322, 23.69631
1028.804, 24.31683
1029.286, 24.68342
1029.768, 24.73659
1030.250, 24.79418
1030.732, 24.89948
1031.214, 24.86236
1031.697, 24.39224
1032.179, 24.17320
1032.661, 25.07360
1033.143, 26.78515
1033.625, 27.72083
1034.107, 27.53444
1034.589, 27.42830
1035.071, 27.32675
1035.553, 27.47315
1036.036, 28.13098
1036.518, 28.87210
1037.000, 29.29844
1037.482, 29.43106
1037.964, 29.39419
1038.446, 29.22344
1038.928, 28.80343
1039.410, 27.73594
1039.893, 26.96340
1040.375, 27.10953
1040.857, 27.44334
1041.339, 27.11364
1041.821, 26.30139
1042.303, 26.01147
1042.785, 26.58296
1043.267, 27.04647
1043.750, 27.13995
1044.232, 27.39716
1044.714, 28.25364
1045.196, 29.16528
1045.678, 29.46689
1046.160, 29.32053
1046.642, 29.56371
1047.124, 30.44357
1047.606, 31.32735
1048.089, 32.16767
1048.571, 32.95341
1049.053, 33.65860
1049.535, 34.32639
1050.017, 34.95982
1050.499, 35.59437
1050.981, 36.36310
1051.463, 37.29220
1051.945, 38.33261
1052.428, 39.52042
1052.910, 40.76419
1053.392, 42.13441
1053.874, 43.45533
1054.356, 44.55322
1054.838, 45.45076
1055.320, 46.23986
1055.802, 46.89721
1056.285, 47.59544
1056.767, 48.46891
1057.249, 49.29097
1057.731, 50.01360
1058.213, 50.57743
1058.695, 50.85833
1059.177, 50.94310
1059.659, 51.14106
1060.141, 51.62215
1060.624, 51.74067
1061.106, 50.53642
1061.588, 49.80584
1062.070, 51.08482
1062.552, 52.78262
1063.034, 53.25296
1063.516, 52.75392
1063.998, 52.37506
1064.480, 52.39499
1064.963, 52.39289
1065.445, 52.36683
1065.927, 52.07533
1066.409, 51.35222
1066.891, 50.33646
1067.373, 49.09646
1067.855, 47.69988
1068.337, 46.19440
1068.820, 44.57904
1069.302, 43.12478
1069.784, 42.01209
1070.266, 41.00793
1070.748, 40.12041
1071.230, 39.16799
1071.712, 37.90347
1072.194, 36.45862
1072.677, 35.05558
1073.159, 33.75356
1073.641, 32.73771
1074.123, 32.36264
1074.605, 31.94366
1075.087, 31.03398
1075.569, 30.02033
1076.051, 29.18157
1076.533, 28.51464
1077.016, 28.00785
1077.498, 27.63469
1077.980, 27.18121
1078.462, 26.39453
1078.944, 25.74091
1079.426, 25.57919
1079.908, 25.50717
1080.390, 25.05675
1080.872, 24.54028
1081.354, 24.71386
1081.837, 25.50643
1082.319, 25.58369
1082.801, 23.87355
1083.283, 22.47791
1083.765, 22.73996
1084.247, 23.29746
1084.729, 23.11026
1085.211, 22.62306
1085.694, 22.63819
1086.176, 23.08233
1086.658, 23.05889
1087.140, 22.01416
1087.622, 21.21269
1088.104, 21.33767
1088.586, 21.69897
1089.068, 22.05952
1089.551, 22.26800
1090.033, 22.10172
1090.515, 21.64911
1090.997, 21.25845
1091.479, 21.05129
1091.961, 20.76982
1092.443, 20.09818
1092.925, 19.59375
1093.407, 19.65375
1093.890, 19.93657
1094.372, 20.21907
1094.854, 20.41279
1095.336, 20.34800
1095.818, 19.95093
1096.300, 19.69287
1096.782, 19.88742
1097.264, 20.03110
1097.746, 19.74072
1098.229, 19.49775
1098.711, 19.85242
1099.193, 20.46906
1099.675, 20.71545
1100.157, 20.50137
1100.639, 20.11375
1101.121, 19.45080
1101.603, 18.87033
1102.086, 18.31490
1102.568, 18.03216
1103.050, 18.45190
1103.532, 19.07959
1104.014, 19.15217
1104.496, 18.68377
1104.978, 18.44996
1105.460, 18.79524
1105.943, 19.01756
1106.425, 18.82821
1106.907, 18.71108
1107.389, 19.04900
1107.871, 19.44138
1108.353, 19.42955
1108.835, 19.07985
1109.317, 18.76081
1109.799, 18.43539
1110.281, 18.30029
1110.764, 18.48289
1111.246, 18.70791
1111.728, 19.01267
1112.210, 19.22559
1112.692, 19.15345
1113.174, 18.89706
1113.656, 18.70207
1114.138, 18.55949
1114.621, 18.52167
1115.103, 18.58890
1115.585, 18.77314
1116.067, 19.34075
1116.549, 19.66016
1117.031, 19.09076
1117.513, 18.26639
1117.995, 18.29358
1118.478, 19.18542
1118.960, 19.68450
1119.442, 19.69615
1119.924, 19.50296
1120.406, 18.93271
1120.888, 18.58511
1121.370, 18.86176
1121.852, 19.24112
1122.334, 19.06909
1122.817, 18.48820
1123.299, 18.30609
1123.781, 18.64920
1124.263, 18.84845
1124.745, 18.82712
1125.227, 18.91137
1125.709, 19.26597
1126.191, 19.52980
1126.673, 19.36506
1127.156, 18.96665
1127.638, 18.81287
1128.120, 18.91254
1128.602, 19.00344
1129.084, 19.08403
1129.566, 19.17922
1130.048, 19.30228
1130.530, 19.34535
1131.013, 19.23091
1131.495, 19.09159
1131.977, 19.16053
1132.459, 19.35516
1132.941, 19.16922
1133.423, 19.22020
1133.905, 19.29536
1134.387, 19.03415
1134.870, 19.30386
1135.352, 19.12397
1135.834, 18.82982
1136.316, 18.73756
1136.798, 18.75895
1137.280, 18.73357
1137.762, 18.65829
1138.244, 18.46735
1138.726, 18.20714
1139.208, 18.13176
1139.691, 18.27660
1140.173, 18.38852
1140.655, 18.29902
1141.137, 18.20621
1141.619, 18.41483
1142.101, 18.75483
1142.583, 19.05319
1143.065, 19.19349
1143.548, 18.68551
1144.030, 17.75664
1144.512, 17.48172
1144.994, 18.24181
1145.476, 19.00728
1145.958, 18.78046
1146.440, 19.39980
1146.922, 18.90808
1147.405, 19.61963
1147.887, 19.66664
1148.369, 19.22306
1148.851, 18.71441
1149.333, 18.27247
1149.815, 17.97260
1150.297, 17.84774
1150.779, 17.87813
1151.261, 18.14092
1151.744, 18.45630
1152.226, 18.79595
1152.708, 19.03741
1153.190, 18.91952
1153.672, 18.59536
1154.154, 18.58731
1154.636, 19.07454
1155.118, 19.42667
1155.600, 19.40029
1156.083, 19.28945
1156.565, 19.14258
1157.047, 19.00038
1157.529, 18.86223
1158.011, 18.75896
1158.493, 18.77015
1158.975, 18.89466
1159.457, 18.91932
1159.940, 18.71195
1160.422, 18.60164
1160.904, 18.70229
1161.386, 18.74690
1161.868, 18.58334
1162.350, 18.40389
1162.832, 18.41372
1163.314, 18.52859
1163.796, 18.45121
1164.279, 18.57568
1164.761, 18.71999
1165.243, 18.69028
1165.725, 19.07067
1166.207, 19.01431
1166.689, 19.13668
1167.171, 19.91441
1167.653, 20.67310
1168.135, 20.36139
1168.618, 19.22868
1169.100, 18.71460
1169.582, 18.81128
1170.064, 18.79588
1170.546, 18.61193
1171.028, 18.51294
1171.510, 18.58331
1171.992, 18.70979
1172.474, 18.80503
1172.957, 18.88297
1173.439, 19.04929
1173.921, 19.19249
1174.403, 18.79292
1174.885, 18.09714
1175.367, 18.02598
1175.849, 18.59938
1176.331, 19.13164
1176.814, 19.32174
1177.296, 19.33793
1177.778, 19.21908
1178.260, 19.15137
1178.742, 19.58252
1179.224, 20.02617
1179.706, 19.54279
1180.188, 18.64643
1180.671, 18.61215
1181.153, 19.47456
1181.635, 20.01009
1182.117, 19.61809
1182.599, 19.09314
1183.081, 18.68824
1183.563, 18.48933
1184.045, 18.79764
1184.527, 19.12609
1185.010, 18.78202
1185.492, 18.13572
1185.974, 18.16846
1186.456, 19.05702
1186.938, 19.76880
1187.420, 20.32319
1187.902, 20.40608
1188.384, 19.26741
1188.866, 18.51774
1189.349, 19.25856
1189.831, 20.31625
1190.313, 20.42086
1190.795, 19.83489
1191.277, 19.60738
1191.759, 19.82635
1192.241, 20.06917
1192.723, 20.47198
1193.206, 20.29825
1193.688, 19.16897
1194.170, 18.41445
1194.652, 18.92667
1195.134, 19.77647
1195.616, 19.59462
1196.098, 18.69028
1196.580, 18.39608
1197.063, 18.65446
1197.545, 18.93521
1198.027, 19.17008
1198.509, 19.10721
1198.991, 18.70321
1199.473, 18.34536
1199.955, 18.30256
1200.437, 18.41852
1200.919, 18.43787
1201.401, 18.51484
1201.884, 19.05349
1202.366, 19.78839
1202.848, 20.31211
1203.330, 20.51713
1203.812, 20.10886
1204.294, 19.10990
1204.776, 18.60102
1205.258, 19.57752
1205.741, 20.48905
1206.223, 20.22528
1206.705, 19.64108
1207.187, 19.16249
1207.669, 18.92084
1208.151, 19.24106
1208.633, 19.87259
1209.115, 19.92501
1209.598, 19.05679
1210.080, 18.74768
1210.562, 19.87935
1211.044, 20.60880
1211.526, 20.30500
1212.008, 19.84822
1212.490, 19.51148
1212.972, 19.36539
1213.454, 19.55465
1213.937, 19.99508
1214.419, 20.28836
1214.901, 20.43377
1215.383, 20.37620
1215.865, 20.03506
1216.347, 20.03741
1216.829, 20.56738
1217.311, 21.10559
1217.793, 21.37420
1218.276, 21.28041
1218.758, 20.53189
1219.240, 19.55097
1219.722, 19.71134
1220.204, 20.65297
1220.686, 21.12633
1221.168, 21.11672
1221.650, 20.97353
1222.133, 20.80422
1222.615, 20.57005
1223.097, 20.21807
1223.579, 20.08622
1224.061, 20.72639
1224.543, 21.47220
1225.025, 21.61458
1225.507, 21.53212
1225.990, 21.70187
1226.472, 22.00932
1226.954, 22.13586
1227.436, 22.04083
1227.918, 21.93106
1228.400, 21.86196
1228.882, 21.79136
1229.364, 21.80692
1229.846, 21.69171
1230.328, 21.16342
1230.811, 20.67154
1231.293, 20.49800
1231.775, 20.62639
1232.257, 21.10452
1232.739, 21.92780
1233.221, 22.41989
1233.703, 22.55062
1234.185, 22.40844
1234.668, 21.89357
1235.150, 21.80044
1235.632, 22.44878
1236.114, 23.08349
1236.596, 23.12168
1237.078, 22.76680
1237.560, 22.20404
1238.042, 21.60463
1238.525, 21.64040
1239.007, 22.10309
1239.489, 22.36338
1239.971, 22.37704
1240.453, 22.24462
1240.935, 22.04216
1241.417, 22.05327
1241.899, 22.53956
1242.381, 22.98652
1242.864, 22.95366
1243.346, 22.74802
1243.828, 22.45663
1244.310, 22.27298
1244.792, 22.43056
1245.274, 22.84842
1245.756, 23.42936
1246.238, 24.14913
1246.720, 24.43488
1247.203, 23.74109
1247.685, 23.35812
1248.167, 23.54033
1248.649, 23.81026
1249.131, 24.15813
1249.613, 24.30174
1250.095, 23.87664
1250.577, 23.32429
1251.059, 23.54852
1251.542, 24.47936
1252.024, 25.40874
1252.506, 26.33469
1252.988, 26.31669
1253.470, 25.34577
1253.952, 24.97077
1254.434, 25.62419
1254.916, 26.09150
1255.399, 25.47574
1255.881, 26.05603
1256.363, 25.23565
1256.845, 26.17099
1257.327, 26.22281
1257.809, 25.95532
1258.291, 26.41164
1258.773, 27.24827
1259.255, 27.48049
1259.738, 26.98394
1260.220, 26.43412
1260.702, 25.98644
1261.184, 25.73983
1261.666, 25.67970
1262.148, 25.88708
1262.630, 26.83684
1263.112, 27.59225
1263.594, 27.17352
1264.077, 26.40481
1264.559, 26.58292
1265.041, 27.55157
1265.523, 27.94172
1266.005, 27.62785
1266.487, 27.47481
1266.969, 27.52615
1267.451, 27.53158
1267.934, 27.42839
1268.416, 27.41750
1268.898, 27.61821
1269.380, 27.84341
1269.862, 27.86792
1270.344, 27.78161
1270.826, 27.69708
1271.308, 27.65278
1271.791, 27.81375
1272.273, 28.03510
1272.755, 27.95318
1273.237, 27.60475
1273.719, 27.37070
1274.201, 27.38657
1274.683, 27.39611
1275.165, 27.14386
1275.647, 27.06494
1276.130, 27.51033
1276.612, 27.95565
1277.094, 28.11547
1277.576, 28.10196
1278.058, 28.05204
1278.540, 27.93073
1279.022, 27.59312
1279.504, 26.99971
1279.986, 26.78770
1280.469, 27.00447
1280.951, 27.30837
1281.433, 27.67122
1281.915, 27.90737
1282.397, 27.95034
1282.879, 28.01116
1283.361, 28.28466
1283.843, 28.47481
1284.326, 28.23058
1284.808, 27.54741
##END=



