##NAMES=Sodalite
##RRUFFID=R040141
##IDEAL CHEMISTRY=Na_4_Si_3_Al_3_O_12_Cl
##LOCALITY=Princess Sodalite mine, Bancroft, Ontario, Canada
##OWNER=RRUFF
##SOURCE=University of Arizona Mineral Museum
##DESCRIPTION=Blue grains in a coarsely crystalline rock
##STATUS=The identification of this mineral has been confirmed by X-ray diffraction and chemical analysis
##URL=rruff.info/R040141
##MEASURED CHEMISTRY=Na_7.86_Al_6.00_Si_6.03_O_24_Cl_2.02_
148.0179, 1795.112
148.5001, 1866.055
148.9822, 1934.918
149.4643, 1997.657
149.9464, 2054.624
150.4285, 2109.880
150.9106, 2168.179
151.3928, 2228.360
151.8749, 2282.317
152.3570, 2330.732
152.8391, 2371.962
153.3212, 2401.717
153.8033, 2419.252
154.2855, 2436.354
154.7676, 2465.662
155.2497, 2503.252
155.7318, 2531.758
156.2139, 2542.987
156.6960, 2546.510
157.1782, 2551.894
157.6603, 2559.339
158.1424, 2570.012
158.6245, 2583.463
159.1066, 2600.734
159.5887, 2626.053
160.0709, 2663.451
160.5530, 2708.361
161.0351, 2751.593
161.5172, 2789.728
161.9993, 2837.665
162.4814, 2912.320
162.9636, 3003.873
163.4457, 3098.210
163.9278, 3199.263
164.4099, 3297.247
164.8920, 3371.930
165.3741, 3418.782
165.8563, 3454.106
166.3384, 3490.220
166.8205, 3522.366
167.3026, 3540.601
167.7847, 3537.564
168.2668, 3519.181
168.7490, 3498.395
169.2311, 3476.382
169.7132, 3448.592
170.1953, 3408.557
170.6774, 3362.244
171.1595, 3318.194
171.6417, 3276.617
172.1238, 3241.320
172.6059, 3224.741
173.0880, 3237.043
173.5701, 3247.960
174.0522, 3240.822
174.5344, 3224.475
175.0165, 3211.812
175.4986, 3210.422
175.9807, 3215.887
176.4628, 3216.162
176.9449, 3210.160
177.4271, 3200.396
177.9092, 3185.411
178.3913, 3168.479
178.8734, 3154.006
179.3555, 3143.991
179.8376, 3137.771
180.3197, 3133.427
180.8019, 3131.616
181.2840, 3130.690
181.7661, 3135.201
182.2482, 3138.757
182.7303, 3131.322
183.2124, 3105.172
183.6946, 3069.553
184.1767, 3051.944
184.6588, 3062.498
185.1409, 3074.513
185.6230, 3081.078
186.1051, 3084.720
186.5873, 3088.123
187.0694, 3092.373
187.5515, 3097.531
188.0336, 3104.732
188.5157, 3118.718
188.9978, 3125.845
189.4800, 3115.942
189.9621, 3101.810
190.4442, 3096.952
190.9263, 3107.668
191.4084, 3128.971
191.8905, 3149.597
192.3727, 3171.845
192.8548, 3188.906
193.3369, 3198.711
193.8190, 3204.297
194.3011, 3207.539
194.7832, 3209.102
195.2654, 3210.858
195.7475, 3217.273
196.2296, 3232.033
196.7117, 3244.709
197.1938, 3256.156
197.6759, 3264.243
198.1581, 3264.885
198.6402, 3257.041
199.1223, 3247.026
199.6044, 3247.402
200.0865, 3265.212
200.5686, 3279.664
201.0508, 3285.221
201.5329, 3289.602
202.0150, 3300.524
202.4971, 3319.583
202.9792, 3339.584
203.4613, 3347.702
203.9435, 3335.626
204.4256, 3330.320
204.9077, 3337.670
205.3898, 3347.864
205.8719, 3353.376
206.3540, 3353.147
206.8362, 3352.468
207.3183, 3359.707
207.8004, 3380.240
208.2825, 3394.729
208.7646, 3401.873
209.2467, 3404.791
209.7289, 3402.376
210.2110, 3396.053
210.6931, 3391.197
211.1752, 3394.974
211.6573, 3410.622
212.1395, 3422.965
212.6216, 3433.375
213.1037, 3439.615
213.5858, 3436.112
214.0679, 3425.676
214.5500, 3418.446
215.0322, 3425.783
215.5143, 3450.657
215.9964, 3470.285
216.4785, 3480.248
216.9606, 3489.240
217.4427, 3500.591
217.9249, 3513.896
218.4070, 3526.872
218.8891, 3537.219
219.3712, 3544.784
219.8533, 3555.424
220.3354, 3572.114
220.8176, 3589.187
221.2997, 3605.529
221.7818, 3621.086
222.2639, 3636.039
222.7460, 3650.276
223.2281, 3664.031
223.7103, 3678.638
224.1924, 3697.884
224.6745, 3713.702
225.1566, 3718.430
225.6387, 3719.864
226.1208, 3731.484
226.6030, 3762.593
227.0851, 3806.043
227.5672, 3831.251
228.0493, 3823.809
228.5314, 3816.244
229.0135, 3809.316
229.4957, 3806.972
229.9778, 3813.758
230.4599, 3831.818
230.9420, 3858.676
231.4241, 3890.194
231.9062, 3936.872
232.3884, 3968.787
232.8705, 3976.613
233.3526, 3973.503
233.8347, 3969.034
234.3168, 3966.666
234.7989, 3967.197
235.2811, 3973.334
235.7632, 3990.338
236.2453, 4000.218
236.7274, 3995.375
237.2095, 3988.139
237.6916, 3987.268
238.1738, 3994.143
238.6559, 4003.336
239.1380, 4005.296
239.6201, 3993.751
240.1022, 3998.833
240.5843, 4040.586
241.0665, 4083.610
241.5486, 4108.850
242.0307, 4117.358
242.5128, 4124.084
242.9949, 4144.678
243.4770, 4180.786
243.9592, 4211.322
244.4413, 4230.383
244.9234, 4249.403
245.4055, 4272.250
245.8876, 4298.589
246.3697, 4326.701
246.8519, 4356.667
247.3340, 4387.940
247.8161, 4413.323
248.2982, 4426.007
248.7803, 4442.057
249.2624, 4467.101
249.7446, 4498.903
250.2267, 4534.154
250.7088, 4572.540
251.1909, 4611.947
251.6730, 4644.271
252.1551, 4660.750
252.6373, 4688.876
253.1194, 4744.901
253.6015, 4812.506
254.0836, 4875.245
254.5657, 4927.459
255.0478, 4971.652
255.5300, 5008.475
256.0121, 5033.058
256.4942, 5068.632
256.9763, 5128.936
257.4584, 5198.904
257.9406, 5272.060
258.4227, 5347.323
258.9048, 5417.485
259.3869, 5475.523
259.8690, 5521.318
260.3511, 5558.852
260.8333, 5581.791
261.3154, 5602.956
261.7975, 5633.924
262.2796, 5674.209
262.7617, 5711.601
263.2438, 5741.222
263.7260, 5761.990
264.2081, 5766.166
264.6902, 5747.545
265.1723, 5719.639
265.6544, 5691.896
266.1365, 5663.752
266.6187, 5633.502
267.1008, 5601.103
267.5829, 5565.899
268.0650, 5527.737
268.5471, 5488.270
269.0292, 5440.655
269.5114, 5366.488
269.9935, 5282.133
270.4756, 5216.945
270.9577, 5189.472
271.4398, 5175.277
271.9219, 5145.489
272.4041, 5099.489
272.8862, 5057.412
273.3683, 5030.840
273.8504, 5014.108
274.3325, 4994.765
274.8146, 4968.670
275.2968, 4946.454
275.7789, 4939.365
276.2610, 4943.409
276.7431, 4940.383
277.2252, 4919.669
277.7073, 4894.896
278.1895, 4890.579
278.6716, 4910.297
279.1537, 4928.371
279.6358, 4935.467
280.1179, 4934.944
280.6000, 4929.122
281.0822, 4916.825
281.5643, 4909.648
282.0464, 4924.682
282.5285, 4963.877
283.0106, 4999.157
283.4927, 5025.956
283.9749, 5048.438
284.4570, 5067.230
284.9391, 5083.432
285.4212, 5105.657
285.9033, 5142.899
286.3854, 5194.705
286.8676, 5237.029
287.3497, 5258.551
287.8318, 5282.495
288.3139, 5317.729
288.7960, 5364.390
289.2781, 5423.256
289.7603, 5496.792
290.2424, 5579.523
290.7245, 5646.677
291.2066, 5691.708
291.6887, 5730.681
292.1708, 5769.443
292.6530, 5802.149
293.1351, 5823.562
293.6172, 5831.638
294.0993, 5823.229
294.5814, 5792.412
295.0635, 5730.810
295.5457, 5659.467
296.0278, 5573.307
296.5099, 5482.350
296.9920, 5389.909
297.4741, 5298.463
297.9562, 5215.344
298.4384, 5149.434
298.9205, 5104.285
299.4026, 5050.811
299.8847, 4969.333
300.3668, 4899.381
300.8489, 4857.984
301.3311, 4838.736
301.8131, 4827.262
302.2953, 4815.038
302.7774, 4801.867
303.2595, 4786.639
303.7416, 4768.078
304.2237, 4749.197
304.7058, 4726.907
305.1880, 4706.229
305.6701, 4692.562
306.1522, 4687.942
306.6343, 4690.115
307.1164, 4697.381
307.5985, 4712.533
308.0807, 4722.215
308.5628, 4716.696
309.0449, 4710.053
309.5270, 4710.685
310.0091, 4719.279
310.4912, 4730.916
310.9734, 4745.190
311.4555, 4761.004
311.9376, 4763.935
312.4197, 4743.067
312.9018, 4723.485
313.3839, 4725.653
313.8661, 4741.587
314.3482, 4750.242
314.8303, 4736.532
315.3124, 4712.221
315.7945, 4698.540
316.2766, 4697.068
316.7588, 4696.928
317.2409, 4690.208
317.7230, 4682.053
318.2051, 4681.756
318.6872, 4694.678
319.1693, 4708.079
319.6515, 4711.499
320.1336, 4706.894
320.6157, 4702.724
321.0978, 4701.162
321.5799, 4702.347
322.0620, 4707.667
322.5442, 4717.942
323.0263, 4726.259
323.5084, 4728.773
323.9905, 4729.072
324.4726, 4731.333
324.9547, 4736.278
325.4369, 4743.939
325.9190, 4755.654
326.4011, 4772.014
326.8832, 4781.654
327.3653, 4782.944
327.8474, 4779.402
328.3296, 4763.843
328.8117, 4743.827
329.2938, 4741.715
329.7759, 4772.489
330.2580, 4827.933
330.7401, 4869.833
331.2223, 4899.887
331.7044, 4914.226
332.1865, 4901.855
332.6686, 4878.397
333.1507, 4858.122
333.6328, 4846.070
334.1150, 4842.144
334.5971, 4847.064
335.0792, 4864.421
335.5613, 4881.108
336.0434, 4907.493
336.5255, 4924.329
337.0077, 4912.978
337.4898, 4881.209
337.9719, 4854.141
338.4540, 4852.514
338.9361, 4873.598
339.4182, 4893.521
339.9004, 4915.090
340.3825, 4930.605
340.8646, 4935.008
341.3467, 4933.954
341.8288, 4934.969
342.3109, 4941.338
342.7931, 4948.540
343.2752, 4947.406
343.7573, 4935.677
344.2394, 4932.066
344.7215, 4947.279
345.2036, 4967.548
345.6858, 4984.124
346.1679, 4996.307
346.6500, 5001.877
347.1321, 4994.323
347.6142, 4979.160
348.0963, 4970.550
348.5785, 4969.010
349.0606, 4976.958
349.5427, 5005.953
350.0248, 5047.294
350.5069, 5074.034
350.9890, 5068.423
351.4712, 5056.937
351.9533, 5061.484
352.4354, 5079.750
352.9175, 5100.407
353.3996, 5120.574
353.8817, 5137.038
354.3639, 5138.280
354.8460, 5112.555
355.3281, 5099.222
355.8102, 5118.936
356.2923, 5150.258
356.7744, 5165.202
357.2566, 5158.643
357.7387, 5148.857
358.2208, 5157.780
358.7029, 5191.490
359.1850, 5209.571
359.6671, 5201.429
360.1493, 5190.661
360.6314, 5185.351
361.1135, 5185.802
361.5956, 5191.409
362.0777, 5202.436
362.5598, 5216.309
363.0420, 5223.423
363.5241, 5219.065
364.0062, 5215.187
364.4883, 5209.816
364.9704, 5207.504
365.4525, 5212.935
365.9347, 5226.702
366.4168, 5244.434
366.8989, 5259.836
367.3810, 5272.416
367.8631, 5294.576
368.3452, 5343.424
368.8274, 5381.395
369.3095, 5383.485
369.7916, 5361.093
370.2737, 5341.471
370.7558, 5336.126
371.2379, 5341.816
371.7201, 5357.926
372.2022, 5386.473
372.6843, 5405.361
373.1664, 5399.681
373.6485, 5381.889
374.1306, 5371.067
374.6128, 5368.613
375.0949, 5370.091
375.5770, 5375.885
376.0591, 5383.567
376.5412, 5386.209
377.0233, 5381.405
377.5055, 5379.740
377.9876, 5395.304
378.4697, 5430.500
378.9518, 5450.870
379.4339, 5440.329
379.9160, 5428.912
380.3982, 5437.993
380.8803, 5461.425
381.3624, 5479.622
381.8445, 5481.644
382.3266, 5472.453
382.8087, 5467.029
383.2909, 5468.046
383.7730, 5469.739
384.2551, 5470.307
384.7372, 5472.550
385.2193, 5480.910
385.7014, 5494.800
386.1836, 5507.377
386.6657, 5510.156
387.1478, 5502.293
387.6299, 5500.900
388.1120, 5512.660
388.5941, 5523.395
389.0763, 5528.025
389.5584, 5528.747
390.0405, 5528.278
390.5226, 5526.765
391.0047, 5527.611
391.4868, 5536.957
391.9690, 5555.438
392.4511, 5576.570
392.9332, 5603.750
393.4153, 5628.036
393.8974, 5638.995
394.3795, 5636.791
394.8617, 5636.129
395.3438, 5645.703
395.8259, 5660.877
396.3080, 5674.236
396.7901, 5685.071
397.2722, 5695.511
397.7544, 5708.679
398.2365, 5722.496
398.7186, 5727.889
399.2007, 5710.301
399.6828, 5700.633
400.1649, 5719.476
400.6471, 5752.097
401.1292, 5771.662
401.6113, 5769.357
402.0934, 5760.989
402.5755, 5771.052
403.0576, 5809.596
403.5398, 5835.839
404.0219, 5843.263
404.5040, 5846.518
404.9861, 5853.478
405.4682, 5862.711
405.9503, 5867.813
406.4325, 5863.768
406.9146, 5854.814
407.3967, 5856.062
407.8788, 5869.856
408.3609, 5889.500
408.8430, 5919.419
409.3252, 5950.506
409.8073, 5977.149
410.2894, 5998.054
410.7715, 6012.064
411.2536, 6015.311
411.7357, 6009.925
412.2179, 6008.033
412.7000, 6013.721
413.1821, 6014.907
413.6642, 5995.206
414.1463, 5965.493
414.6284, 5948.359
415.1106, 5952.309
415.5927, 5964.516
416.0748, 5977.118
416.5569, 5990.483
417.0390, 6008.996
417.5211, 6036.922
418.0033, 6059.562
418.4854, 6050.228
418.9675, 5991.520
419.4496, 5961.607
419.9317, 5982.208
420.4138, 6016.960
420.8960, 6047.851
421.3781, 6071.608
421.8602, 6085.362
422.3423, 6085.743
422.8244, 6078.244
423.3065, 6087.557
423.7887, 6132.850
424.2708, 6165.030
424.7529, 6174.518
425.2350, 6173.280
425.7171, 6165.792
426.1992, 6155.349
426.6814, 6151.655
427.1635, 6167.043
427.6456, 6199.836
428.1277, 6228.695
428.6098, 6253.142
429.0919, 6274.401
429.5741, 6292.703
430.0562, 6308.585
430.5383, 6322.130
431.0204, 6332.220
431.5025, 6342.464
431.9846, 6358.567
432.4668, 6377.779
432.9489, 6388.267
433.4310, 6384.733
433.9131, 6379.466
434.3952, 6386.845
434.8773, 6407.955
435.3595, 6432.609
435.8416, 6470.780
436.3237, 6502.861
436.8058, 6509.750
437.2879, 6500.563
437.7701, 6500.208
438.2522, 6521.938
438.7343, 6556.847
439.2164, 6581.509
439.6985, 6583.498
440.1806, 6597.586
440.6628, 6630.512
441.1449, 6669.285
441.6270, 6707.310
442.1091, 6743.464
442.5912, 6777.987
443.0733, 6807.747
443.5555, 6837.103
444.0376, 6884.780
444.5197, 6956.477
445.0018, 7030.609
445.4839, 7095.777
445.9660, 7161.856
446.4482, 7239.085
446.9303, 7328.911
447.4124, 7425.834
447.8945, 7531.508
448.3766, 7641.038
448.8587, 7738.816
449.3409, 7821.754
449.8230, 7913.227
450.3051, 8032.772
450.7872, 8179.208
451.2693, 8329.646
451.7514, 8481.716
452.2336, 8639.960
452.7157, 8799.663
453.1978, 8968.306
453.6799, 9151.297
454.1620, 9351.391
454.6441, 9576.695
455.1263, 9841.387
455.6084, 10152.86
456.0905, 10459.79
456.5726, 10726.00
457.0547, 11023.25
457.5368, 11379.39
458.0190, 11779.98
458.5011, 12201.50
458.9832, 12635.48
459.4653, 13083.30
459.9474, 13560.31
460.4295, 14065.47
460.9117, 14555.71
461.3938, 15046.54
461.8759, 15485.43
462.3580, 15839.82
462.8401, 16112.16
463.3222, 16298.45
463.8044, 16425.89
464.2865, 16445.80
464.7686, 16304.14
465.2507, 16013.90
465.7328, 15617.43
466.2149, 15125.35
466.6971, 14564.38
467.1792, 13991.18
467.6613, 13386.62
468.1434, 12808.74
468.6255, 12244.00
469.1076, 11715.92
469.5898, 11249.44
470.0719, 10835.96
470.5540, 10453.84
471.0361, 10085.81
471.5182, 9742.795
472.0003, 9451.434
472.4825, 9223.793
472.9646, 9020.339
473.4467, 8836.503
473.9288, 8674.075
474.4109, 8540.275
474.8930, 8433.474
475.3752, 8336.677
475.8573, 8244.049
476.3394, 8153.883
476.8215, 8058.600
477.3036, 7958.137
477.7857, 7871.452
478.2679, 7810.320
478.7500, 7767.270
479.2321, 7724.643
479.7142, 7683.105
480.1963, 7641.059
480.6784, 7596.703
481.1606, 7552.733
481.6427, 7507.824
482.1248, 7464.414
482.6069, 7433.210
483.0890, 7424.121
483.5711, 7431.520
484.0533, 7422.784
484.5354, 7382.396
485.0175, 7351.294
485.4996, 7342.197
485.9817, 7338.637
486.4638, 7326.027
486.9460, 7303.750
487.4281, 7283.976
487.9102, 7277.550
488.3923, 7280.851
488.8744, 7283.402
489.3565, 7285.152
489.8387, 7286.094
490.3208, 7287.295
490.8029, 7286.943
491.2850, 7280.462
491.7671, 7263.426
492.2492, 7253.003
492.7314, 7258.270
493.2135, 7271.399
493.6956, 7287.063
494.1777, 7302.888
494.6598, 7311.085
495.1419, 7303.444
495.6241, 7284.583
496.1062, 7284.952
496.5883, 7325.201
497.0704, 7356.103
497.5525, 7374.437
498.0346, 7381.047
498.5168, 7375.209
498.9989, 7357.748
499.4810, 7332.016
499.9631, 7291.575
500.4452, 7245.348
500.9273, 7234.486
501.4095, 7269.542
501.8916, 7294.628
502.3737, 7275.950
502.8558, 7238.680
503.3379, 7223.043
503.8200, 7233.596
504.3022, 7249.692
504.7843, 7271.453
505.2664, 7290.233
505.7485, 7291.283
506.2306, 7276.402
506.7127, 7264.301
507.1949, 7267.830
507.6770, 7283.558
508.1591, 7296.504
508.6412, 7305.909
509.1233, 7313.467
509.6054, 7322.829
510.0876, 7327.805
510.5697, 7317.475
511.0518, 7296.305
511.5339, 7284.009
512.0161, 7296.551
512.4982, 7326.934
512.9803, 7361.816
513.4624, 7404.932
513.9445, 7426.263
514.4266, 7398.113
514.9088, 7357.768
515.3909, 7357.855
515.8730, 7401.983
516.3551, 7437.755
516.8372, 7442.965
517.3193, 7437.687
517.8015, 7438.395
518.2836, 7445.617
518.7657, 7456.995
519.2478, 7472.041
519.7299, 7486.857
520.2120, 7491.623
520.6942, 7479.262
521.1763, 7470.199
521.6584, 7463.723
522.1405, 7460.766
522.6226, 7460.416
523.1047, 7464.028
523.5869, 7476.237
524.0690, 7502.844
524.5511, 7531.828
525.0332, 7541.721
525.5153, 7532.646
525.9974, 7523.394
526.4796, 7517.413
526.9617, 7514.188
527.4438, 7514.500
527.9259, 7517.842
528.4080, 7519.756
528.8901, 7517.644
529.3723, 7515.898
529.8544, 7513.021
530.3365, 7513.155
530.8186, 7527.847
531.3007, 7560.515
531.7828, 7595.068
532.2650, 7607.574
532.7471, 7592.938
533.2292, 7588.268
533.7113, 7599.732
534.1934, 7614.654
534.6755, 7635.476
535.1577, 7654.978
535.6398, 7661.062
536.1219, 7648.853
536.6040, 7636.850
537.0861, 7643.732
537.5682, 7664.702
538.0504, 7685.027
538.5325, 7703.047
539.0146, 7719.438
539.4967, 7734.597
539.9788, 7748.349
540.4609, 7759.715
540.9431, 7769.734
541.4252, 7776.421
541.9073, 7785.874
542.3894, 7787.667
542.8715, 7762.587
543.3536, 7715.630
543.8358, 7677.564
544.3179, 7673.919
544.8000, 7697.835
545.2821, 7719.989
545.7642, 7739.858
546.2463, 7759.407
546.7285, 7783.316
547.2106, 7803.623
547.6927, 7812.010
548.1748, 7809.305
548.6569, 7807.446
549.1390, 7811.983
549.6211, 7819.667
550.1032, 7828.552
550.5853, 7837.807
551.0674, 7843.308
551.5496, 7842.855
552.0317, 7841.247
552.5138, 7847.237
552.9959, 7866.309
553.4780, 7874.152
553.9601, 7861.137
554.4423, 7848.904
554.9244, 7836.359
555.4065, 7833.341
555.8886, 7860.646
556.3707, 7927.008
556.8528, 7996.054
557.3350, 8019.014
557.8171, 8001.907
558.2992, 7994.850
558.7813, 8005.261
559.2634, 8016.266
559.7455, 8012.488
560.2277, 8001.619
560.7098, 8009.026
561.1919, 8055.166
561.6740, 8084.104
562.1561, 8059.681
562.6382, 8020.798
563.1204, 8011.274
563.6025, 8032.229
564.0846, 8056.548
564.5667, 8065.068
565.0488, 8060.692
565.5309, 8053.099
566.0131, 8036.212
566.4952, 8031.505
566.9773, 8054.027
567.4594, 8081.011
567.9415, 8099.852
568.4236, 8110.663
568.9058, 8117.729
569.3879, 8121.391
569.8700, 8123.443
570.3521, 8124.107
570.8342, 8124.527
571.3163, 8129.613
571.7985, 8141.258
572.2806, 8153.855
572.7627, 8160.095
573.2448, 8158.887
573.7269, 8161.909
574.2090, 8175.260
574.6912, 8185.388
575.1733, 8185.210
575.6554, 8181.991
576.1375, 8181.344
576.6196, 8185.483
577.1017, 8199.202
577.5839, 8237.753
578.0660, 8289.264
578.5481, 8309.355
579.0302, 8293.952
579.5123, 8276.854
579.9944, 8269.843
580.4766, 8273.199
580.9587, 8290.993
581.4408, 8327.929
581.9229, 8357.069
582.4050, 8361.228
582.8871, 8368.496
583.3693, 8407.986
583.8514, 8464.084
584.3335, 8500.753
584.8156, 8501.138
585.2977, 8482.583
585.7798, 8471.285
586.2620, 8467.921
586.7441, 8464.089
587.2262, 8458.238
587.7083, 8453.746
588.1904, 8452.285
588.6725, 8453.489
589.1547, 8455.998
589.6368, 8456.688
590.1189, 8466.563
590.6010, 8504.894
591.0831, 8547.854
591.5652, 8561.661
592.0474, 8546.839
592.5295, 8526.351
593.0116, 8514.361
593.4937, 8510.484
593.9758, 8514.931
594.4579, 8534.673
594.9401, 8546.092
595.4222, 8535.229
595.9043, 8526.545
596.3864, 8533.290
596.8685, 8551.997
597.3506, 8572.620
597.8328, 8591.413
598.3149, 8610.938
598.7970, 8637.139
599.2791, 8665.645
599.7612, 8684.280
600.2433, 8690.743
600.7255, 8692.421
601.2076, 8694.657
601.6897, 8697.762
602.1718, 8704.253
602.6539, 8714.164
603.1360, 8727.747
603.6182, 8747.966
604.1003, 8769.464
604.5824, 8789.931
605.0645, 8808.194
605.5466, 8821.976
606.0287, 8829.462
606.5109, 8832.597
606.9930, 8833.623
607.4751, 8832.724
607.9572, 8830.009
608.4393, 8824.006
608.9214, 8822.655
609.4036, 8837.614
609.8857, 8868.940
610.3678, 8880.942
610.8499, 8852.549
611.3320, 8833.398
611.8141, 8839.884
612.2963, 8857.962
612.7784, 8874.411
613.2605, 8887.186
613.7426, 8901.023
614.2247, 8921.835
614.7068, 8944.313
615.1890, 8952.807
615.6711, 8946.524
616.1532, 8945.535
616.6353, 8959.826
617.1174, 8973.593
617.5995, 8963.190
618.0817, 8928.005
618.5638, 8915.689
619.0459, 8948.581
619.5280, 8980.890
620.0101, 8991.157
620.4922, 8992.809
620.9744, 9008.087
621.4565, 9038.128
621.9386, 9057.884
622.4207, 9035.021
622.9028, 8988.024
623.3849, 9000.293
623.8671, 9086.011
624.3492, 9146.406
624.8313, 9139.677
625.3134, 9108.862
625.7955, 9103.421
626.2776, 9121.693
626.7598, 9142.777
627.2419, 9165.602
627.7240, 9188.642
628.2061, 9215.156
628.6882, 9239.597
629.1703, 9253.034
629.6525, 9253.971
630.1346, 9248.343
630.6167, 9239.812
631.0988, 9230.028
631.5809, 9229.459
632.0630, 9240.925
632.5452, 9250.772
633.0273, 9256.070
633.5094, 9256.809
633.9915, 9246.619
634.4736, 9226.706
634.9557, 9227.151
635.4379, 9271.746
635.9200, 9319.425
636.4021, 9353.929
636.8842, 9373.894
637.3663, 9372.792
637.8484, 9352.022
638.3306, 9330.931
638.8127, 9330.376
639.2948, 9346.019
639.7769, 9349.777
640.2590, 9337.026
640.7411, 9328.456
641.2233, 9326.842
641.7054, 9335.098
642.1875, 9360.533
642.6696, 9401.381
643.1517, 9434.707
643.6339, 9456.336
644.1160, 9468.730
644.5981, 9464.879
645.0802, 9455.979
645.5623, 9461.215
646.0444, 9483.097
646.5266, 9505.657
647.0087, 9512.830
647.4908, 9508.917
647.9729, 9515.235
648.4550, 9534.619
648.9371, 9552.902
649.4193, 9567.281
649.9014, 9578.408
650.3835, 9586.153
650.8656, 9590.982
651.3477, 9596.293
651.8298, 9600.735
652.3120, 9607.980
652.7941, 9622.182
653.2762, 9639.073
653.7583, 9655.679
654.2404, 9669.782
654.7225, 9674.667
655.2047, 9662.647
655.6868, 9640.336
656.1689, 9629.489
656.6510, 9631.022
657.1331, 9639.243
657.6152, 9656.819
658.0974, 9675.174
658.5795, 9684.334
659.0616, 9686.982
659.5437, 9695.194
660.0258, 9719.074
660.5079, 9737.485
660.9901, 9733.032
661.4722, 9726.080
661.9543, 9743.176
662.4364, 9781.386
662.9185, 9814.979
663.4006, 9826.037
663.8828, 9824.438
664.3649, 9833.674
664.8470, 9854.412
665.3291, 9861.885
665.8112, 9846.396
666.2933, 9831.090
666.7755, 9832.464
667.2576, 9848.420
667.7397, 9868.255
668.2218, 9898.656
668.7039, 9921.983
669.1860, 9936.390
669.6682, 9941.206
670.1503, 9923.801
670.6324, 9896.737
671.1145, 9895.088
671.5966, 9938.952
672.0787, 9994.563
672.5609, 10008.03
673.0430, 9987.117
673.5251, 9990.301
674.0072, 10026.82
674.4893, 10066.46
674.9714, 10093.87
675.4536, 10110.31
675.9357, 10117.60
676.4178, 10107.68
676.8999, 10106.44
677.3820, 10119.16
677.8641, 10136.01
678.3463, 10160.60
678.8284, 10182.81
679.3105, 10180.10
679.7926, 10145.42
680.2747, 10118.56
680.7568, 10149.24
681.2390, 10212.55
681.7211, 10250.15
682.2032, 10260.14
682.6853, 10256.13
683.1674, 10240.92
683.6495, 10224.31
684.1317, 10222.16
684.6138, 10237.58
685.0959, 10251.03
685.5780, 10264.76
686.0601, 10273.86
686.5422, 10269.57
687.0244, 10264.66
687.5065, 10276.09
687.9886, 10304.13
688.4707, 10327.15
688.9528, 10329.65
689.4349, 10323.43
689.9171, 10315.88
690.3992, 10310.87
690.8813, 10322.96
691.3634, 10355.64
691.8455, 10390.37
692.3276, 10408.18
692.8098, 10411.02
693.2919, 10414.93
693.7740, 10417.46
694.2561, 10426.73
694.7382, 10452.04
695.2203, 10477.65
695.7025, 10488.37
696.1846, 10489.60
696.6667, 10502.95
697.1488, 10548.52
697.6309, 10585.08
698.1130, 10583.28
698.5952, 10564.19
699.0773, 10550.29
699.5594, 10545.56
700.0415, 10549.72
700.5236, 10563.56
701.0057, 10581.04
701.4879, 10585.13
701.9700, 10574.19
702.4521, 10587.14
702.9342, 10636.95
703.4163, 10686.86
703.8984, 10720.33
704.3806, 10736.86
704.8627, 10732.22
705.3448, 10692.10
705.8269, 10673.17
706.3090, 10699.11
706.7911, 10732.32
707.2733, 10749.96
707.7554, 10759.44
708.2375, 10777.78
708.7196, 10809.62
709.2017, 10838.99
709.6838, 10849.38
710.1660, 10846.19
710.6481, 10841.61
711.1302, 10835.95
711.6123, 10830.71
712.0944, 10825.78
712.5765, 10824.23
713.0587, 10830.47
713.5408, 10844.91
714.0229, 10858.17
714.5050, 10863.14
714.9871, 10876.85
715.4692, 10915.88
715.9514, 10953.60
716.4335, 10960.10
716.9156, 10942.75
717.3977, 10942.03
717.8798, 10985.36
718.3619, 11034.68
718.8441, 11064.97
719.3262, 11078.65
719.8083, 11072.28
720.2904, 11050.22
720.7725, 11036.51
721.2546, 11048.21
721.7368, 11074.95
722.2189, 11091.89
722.7010, 11097.72
723.1831, 11102.50
723.6652, 11105.90
724.1473, 11110.22
724.6295, 11113.98
725.1116, 11120.71
725.5937, 11137.52
726.0758, 11166.51
726.5579, 11198.08
727.0400, 11234.08
727.5222, 11268.64
728.0043, 11304.17
728.4864, 11333.87
728.9685, 11340.40
729.4506, 11322.28
729.9327, 11311.39
730.4149, 11350.97
730.8970, 11412.37
731.3791, 11421.53
731.8612, 11384.93
732.3433, 11365.25
732.8254, 11381.72
733.3076, 11413.39
733.7897, 11440.60
734.2718, 11463.31
734.7539, 11482.75
735.2360, 11505.17
735.7181, 11513.63
736.2003, 11486.83
736.6824, 11464.02
737.1645, 11477.14
737.6466, 11513.58
738.1287, 11536.08
738.6108, 11529.86
739.0930, 11520.58
739.5751, 11528.57
740.0572, 11537.32
740.5393, 11521.96
741.0214, 11488.85
741.5035, 11464.04
741.9857, 11459.94
742.4678, 11465.31
742.9499, 11459.37
743.4320, 11444.65
743.9141, 11463.25
744.3962, 11524.47
744.8784, 11569.01
745.3605, 11567.99
745.8426, 11549.10
746.3247, 11551.49
746.8068, 11579.19
747.2889, 11589.80
747.7711, 11557.50
748.2532, 11542.57
748.7353, 11564.98
749.2174, 11606.35
749.6995, 11664.45
750.1816, 11727.71
750.6638, 11759.62
751.1459, 11728.25
751.6280, 11687.39
752.1101, 11691.04
752.5922, 11718.95
753.0743, 11732.39
753.5565, 11728.45
754.0386, 11724.42
754.5207, 11730.14
755.0028, 11743.23
755.4849, 11764.06
755.9670, 11796.04
756.4492, 11795.80
756.9313, 11738.60
757.4134, 11712.15
757.8955, 11780.69
758.3776, 11881.26
758.8597, 11909.08
759.3419, 11855.64
759.8240, 11831.57
760.3061, 11874.35
760.7882, 11913.57
761.2703, 11923.94
761.7524, 11916.71
762.2346, 11891.72
762.7167, 11859.17
763.1988, 11855.30
763.6809, 11913.02
764.1630, 11986.15
764.6451, 12023.93
765.1273, 12035.26
765.6094, 12038.41
766.0915, 12037.37
766.5736, 12039.70
767.0557, 12050.44
767.5378, 12065.66
768.0200, 12077.77
768.5021, 12087.27
768.9842, 12089.43
769.4663, 12080.29
769.9484, 12071.56
770.4305, 12060.32
770.9127, 12057.86
771.3948, 12089.51
771.8769, 12160.04
772.3590, 12199.63
772.8411, 12176.48
773.3232, 12149.34
773.8054, 12137.71
774.2875, 12135.50
774.7696, 12133.81
775.2517, 12133.47
775.7338, 12142.97
776.2159, 12166.84
776.6981, 12202.70
777.1802, 12269.08
777.6623, 12340.28
778.1444, 12342.00
778.6265, 12275.29
779.1086, 12218.91
779.5908, 12217.21
780.0729, 12249.71
780.5550, 12282.69
781.0371, 12317.10
781.5192, 12339.81
782.0013, 12345.08
782.4835, 12354.14
782.9656, 12376.21
783.4477, 12404.57
783.9298, 12421.33
784.4119, 12422.47
784.8940, 12468.12
785.3762, 12498.51
785.8583, 12514.46
786.3404, 12472.71
786.8225, 12505.47
787.3046, 12508.37
787.7867, 12510.04
788.2689, 12553.28
788.7510, 12519.92
789.2331, 12562.51
789.7152, 12574.78
790.1973, 12562.13
790.6794, 12568.32
791.1616, 12562.57
791.6437, 12565.95
792.1258, 12587.59
792.6079, 12616.12
793.0900, 12637.90
793.5721, 12652.89
794.0543, 12656.16
794.5364, 12643.39
795.0185, 12649.91
795.5006, 12696.39
795.9827, 12742.21
796.4648, 12741.63
796.9470, 12700.95
797.4291, 12687.79
797.9112, 12735.43
798.3933, 12763.01
798.8754, 12749.61
799.3575, 12732.56
799.8397, 12730.74
800.3218, 12741.46
800.8039, 12759.65
801.2860, 12786.08
801.7681, 12806.00
802.2502, 12801.31
802.7324, 12796.33
803.2145, 12822.51
803.6966, 12862.18
804.1787, 12876.49
804.6608, 12858.68
805.1429, 12838.18
805.6251, 12837.50
806.1072, 12853.65
806.5893, 12888.08
807.0714, 12936.80
807.5535, 12964.95
808.0356, 12965.41
808.5178, 12968.15
808.9999, 12996.00
809.4820, 13033.55
809.9641, 13037.73
810.4462, 12991.44
810.9283, 12974.82
811.4105, 12998.07
811.8926, 13034.63
812.3747, 13089.59
812.8568, 13142.67
813.3389, 13168.89
813.8210, 13168.08
814.3032, 13162.56
814.7853, 13144.88
815.2674, 13136.51
815.7495, 13145.03
816.2316, 13165.75
816.7137, 13200.64
817.1959, 13243.58
817.6780, 13282.15
818.1601, 13313.29
818.6422, 13328.59
819.1243, 13309.98
819.6064, 13277.28
820.0886, 13254.77
820.5707, 13246.41
821.0528, 13264.02
821.5349, 13310.47
822.0170, 13356.19
822.4991, 13365.49
822.9813, 13348.86
823.4634, 13354.19
823.9455, 13382.97
824.4276, 13404.47
824.9097, 13413.67
825.3918, 13407.18
825.8740, 13374.46
826.3561, 13329.99
826.8382, 13324.00
827.3203, 13372.60
827.8024, 13423.00
828.2845, 13497.00
828.7667, 13545.45
829.2488, 13528.79
829.7309, 13490.66
830.2130, 13483.96
830.6951, 13511.82
831.1772, 13538.55
831.6594, 13559.04
832.1415, 13572.66
832.6236, 13570.35
833.1057, 13567.54
833.5878, 13582.79
834.0699, 13612.33
834.5521, 13639.22
835.0342, 13656.12
835.5163, 13667.34
835.9984, 13667.58
836.4805, 13669.81
836.9626, 13709.22
837.4448, 13771.72
837.9269, 13796.47
838.4090, 13764.92
838.8911, 13725.63
839.3732, 13732.06
839.8553, 13769.68
840.3375, 13778.92
840.8196, 13758.75
841.3017, 13770.00
841.7838, 13831.37
842.2659, 13883.91
842.7480, 13882.86
843.2302, 13851.96
843.7123, 13852.36
844.1944, 13895.59
844.6765, 13932.55
845.1586, 13972.57
845.6407, 13992.36
846.1229, 13955.59
846.6050, 13914.78
847.0871, 13928.61
847.5692, 13992.82
848.0513, 14044.33
848.5334, 14079.80
849.0156, 14094.80
849.4977, 14069.24
849.9798, 14039.63
850.4619, 14036.73
850.9440, 14051.75
851.4261, 14057.54
851.9083, 14044.38
852.3904, 14044.33
852.8725, 14098.52
853.3546, 14159.49
853.8367, 14170.55
854.3188, 14151.46
854.8010, 14144.42
855.2831, 14157.79
855.7652, 14176.61
856.2473, 14190.54
856.7294, 14201.90
857.2115, 14214.74
857.6937, 14228.60
858.1758, 14241.75
858.6579, 14253.99
859.1400, 14264.87
859.6221, 14274.37
860.1042, 14281.01
860.5864, 14280.81
861.0685, 14274.45
861.5506, 14279.75
862.0327, 14294.32
862.5148, 14333.66
862.9969, 14416.96
863.4791, 14496.50
863.9612, 14536.41
864.4433, 14542.71
864.9254, 14535.21
865.4075, 14498.47
865.8896, 14480.25
866.3718, 14501.20
866.8539, 14515.10
867.3360, 14483.92
867.8181, 14451.23
868.3002, 14477.69
868.7823, 14561.29
869.2645, 14622.15
869.7466, 14627.93
870.2287, 14622.85
870.7108, 14610.77
871.1929, 14605.67
871.6750, 14624.87
872.1572, 14660.32
872.6393, 14693.16
873.1214, 14717.29
873.6035, 14735.54
874.0856, 14751.67
874.5677, 14761.74
875.0499, 14753.99
875.5320, 14739.00
876.0141, 14740.24
876.4962, 14760.28
876.9783, 14782.51
877.4604, 14794.87
877.9426, 14806.93
878.4247, 14843.13
878.9068, 14892.05
879.3889, 14903.17
879.8710, 14876.97
880.3531, 14862.84
880.8353, 14881.39
881.3174, 14907.56
881.7995, 14909.46
882.2816, 14893.35
882.7637, 14903.83
883.2458, 14946.86
883.7280, 14968.19
884.2101, 14951.18
884.6922, 14936.39
885.1743, 14947.15
885.6564, 14980.75
886.1385, 15037.37
886.6207, 15132.45
887.1028, 15178.13
887.5849, 15141.78
888.0670, 15108.24
888.5491, 15095.52
889.0313, 15097.91
889.5134, 15117.70
889.9955, 15149.52
890.4776, 15168.45
890.9597, 15163.90
891.4418, 15162.55
891.9240, 15169.49
892.4061, 15178.88
892.8882, 15185.06
893.3703, 15193.24
893.8524, 15214.16
894.3345, 15247.59
894.8167, 15273.64
895.2988, 15284.03
895.7809, 15285.29
896.2630, 15272.26
896.7451, 15258.49
897.2272, 15252.24
897.7094, 15258.63
898.1915, 15290.13
898.6736, 15351.37
899.1557, 15412.46
899.6378, 15454.88
900.1199, 15479.41
900.6021, 15479.89
901.0842, 15465.39
901.5663, 15447.06
902.0484, 15432.03
902.5305, 15442.63
903.0126, 15496.45
903.4948, 15559.27
903.9769, 15578.88
904.4590, 15566.79
904.9411, 15549.03
905.4232, 15531.07
905.9053, 15547.93
906.3875, 15610.44
906.8696, 15665.72
907.3517, 15658.66
907.8338, 15612.27
908.3159, 15599.08
908.7980, 15619.16
909.2802, 15663.50
909.7623, 15737.51
910.2444, 15783.53
910.7265, 15766.58
911.2086, 15729.04
911.6907, 15733.53
912.1729, 15779.41
912.6550, 15813.06
913.1371, 15835.77
913.6192, 15839.49
914.1013, 15807.27
914.5834, 15785.19
915.0656, 15805.36
915.5477, 15855.76
916.0298, 15914.13
916.5119, 15994.55
916.9940, 16029.20
917.4761, 15971.46
917.9583, 15933.94
918.4404, 15960.26
918.9225, 16001.12
919.4046, 16019.84
919.8867, 16020.68
920.3688, 16020.83
920.8510, 16017.93
921.3331, 16022.57
921.8152, 16047.36
922.2973, 16067.21
922.7794, 16054.58
923.2615, 16041.17
923.7437, 16076.65
924.2258, 16154.42
924.7079, 16201.32
925.1900, 16172.62
925.6721, 16147.67
926.1542, 16165.03
926.6364, 16192.86
927.1185, 16209.65
927.6006, 16216.82
928.0827, 16215.87
928.5648, 16209.16
929.0469, 16214.77
929.5291, 16251.88
930.0112, 16294.44
930.4933, 16333.55
930.9754, 16359.89
931.4575, 16347.50
931.9396, 16313.19
932.4218, 16305.94
932.9039, 16343.16
933.3860, 16392.35
933.8681, 16428.87
934.3502, 16458.83
934.8323, 16494.06
935.3145, 16527.26
935.7966, 16538.69
936.2787, 16530.09
936.7608, 16522.85
937.2429, 16528.43
937.7250, 16537.08
938.2072, 16528.44
938.6893, 16517.44
939.1714, 16546.29
939.6535, 16604.85
940.1356, 16650.62
940.6177, 16674.85
941.0999, 16695.07
941.5820, 16723.87
942.0641, 16754.84
942.5462, 16773.76
943.0283, 16784.09
943.5104, 16812.09
943.9926, 16855.38
944.4747, 16859.17
944.9568, 16805.21
945.4389, 16765.64
945.9210, 16811.98
946.4031, 16904.96
946.8853, 16923.20
947.3674, 16867.33
947.8495, 16867.41
948.3316, 16936.97
948.8137, 17003.21
949.2958, 17040.15
949.7780, 17050.97
950.2601, 17032.95
950.7422, 16995.80
951.2243, 16993.89
951.7064, 17032.52
952.1885, 17073.19
952.6707, 17114.06
953.1528, 17148.40
953.6349, 17169.65
954.1170, 17190.46
954.5991, 17231.34
955.0812, 17290.30
955.5634, 17326.47
956.0455, 17330.62
956.5276, 17338.85
957.0097, 17350.74
957.4918, 17378.77
957.9739, 17439.29
958.4561, 17509.35
958.9382, 17548.62
959.4203, 17553.91
959.9024, 17575.76
960.3845, 17615.07
960.8666, 17670.33
961.3488, 17756.77
961.8309, 17838.08
962.3130, 17893.66
962.7951, 17927.96
963.2772, 17943.46
963.7593, 17929.36
964.2415, 17954.86
964.7236, 18064.30
965.2057, 18148.86
965.6878, 18179.45
966.1699, 18190.59
966.6520, 18196.16
967.1342, 18200.46
967.6163, 18216.87
968.0984, 18255.23
968.5805, 18267.05
969.0626, 18216.62
969.5447, 18184.19
970.0269, 18198.19
970.5090, 18229.80
970.9911, 18268.57
971.4732, 18305.72
971.9553, 18316.06
972.4374, 18282.89
972.9196, 18274.78
973.4017, 18319.94
973.8838, 18367.55
974.3659, 18397.30
974.8480, 18423.99
975.3301, 18469.76
975.8123, 18523.55
976.2944, 18543.74
976.7765, 18505.03
977.2586, 18495.74
977.7407, 18525.14
978.2228, 18600.57
978.7050, 18768.72
979.1871, 18950.64
979.6692, 19059.44
980.1513, 19111.81
980.6334, 19186.53
981.1155, 19300.83
981.5977, 19436.05
982.0798, 19603.19
982.5619, 19770.37
983.0440, 19897.38
983.5261, 20035.12
984.0082, 20282.16
984.4904, 20595.45
984.9725, 20793.66
985.4546, 20802.48
985.9367, 20773.90
986.4188, 20767.47
986.9009, 20733.79
987.3831, 20656.93
987.8652, 20527.86
988.3473, 20304.07
988.8294, 20016.31
989.3115, 19791.40
989.7936, 19693.78
990.2758, 19584.05
990.7579, 19373.94
991.2400, 19168.38
991.7221, 19028.97
992.2042, 18937.31
992.6863, 18879.70
993.1685, 18843.60
993.6506, 18790.64
994.1327, 18690.84
994.6148, 18624.83
995.0969, 18677.82
995.5790, 18723.74
996.0612, 18632.84
996.5433, 18512.30
997.0254, 18523.20
997.5075, 18647.69
997.9896, 18722.09
998.4717, 18673.95
998.9539, 18620.56
999.4360, 18615.55
999.9181, 18624.54
1000.400, 18632.60
1000.882, 18634.67
1001.364, 18615.96
1001.847, 18585.40
1002.329, 18583.41
1002.811, 18634.09
1003.293, 18682.47
1003.775, 18696.29
1004.257, 18706.18
1004.739, 18725.47
1005.221, 18758.13
1005.703, 18823.89
1006.186, 18907.62
1006.668, 18949.52
1007.150, 18916.75
1007.632, 18883.34
1008.114, 18888.19
1008.596, 18897.77
1009.078, 18876.17
1009.560, 18856.38
1010.043, 18887.51
1010.525, 18960.21
1011.007, 19022.82
1011.489, 19059.92
1011.971, 19085.54
1012.453, 19104.47
1012.935, 19115.46
1013.417, 19121.05
1013.899, 19115.81
1014.382, 19076.65
1014.864, 19021.32
1015.346, 19011.50
1015.828, 19076.27
1016.310, 19133.79
1016.792, 19158.61
1017.274, 19160.99
1017.756, 19113.56
1018.239, 19072.42
1018.721, 19113.86
1019.203, 19210.23
1019.685, 19265.08
1020.167, 19248.27
1020.649, 19230.37
1021.131, 19233.57
1021.613, 19241.68
1022.095, 19251.72
1022.578, 19259.41
1023.060, 19252.36
1023.542, 19241.61
1024.024, 19255.15
1024.506, 19300.30
1024.988, 19354.83
1025.470, 19452.17
1025.952, 19506.37
1026.435, 19432.87
1026.917, 19351.45
1027.399, 19368.94
1027.881, 19449.73
1028.363, 19510.24
1028.845, 19539.15
1029.327, 19552.28
1029.809, 19534.67
1030.292, 19526.31
1030.774, 19559.67
1031.256, 19583.84
1031.738, 19541.86
1032.220, 19475.86
1032.702, 19462.99
1033.184, 19511.64
1033.666, 19572.10
1034.148, 19659.75
1034.630, 19728.80
1035.113, 19768.92
1035.595, 19791.82
1036.077, 19793.30
1036.559, 19786.97
1037.041, 19789.17
1037.523, 19799.96
1038.005, 19829.47
1038.487, 19916.66
1038.970, 19958.67
1039.452, 19904.35
1039.934, 19863.50
1040.416, 19900.98
1040.898, 19961.75
1041.380, 19974.25
1041.862, 19944.88
1042.344, 19947.13
1042.826, 20004.83
1043.309, 20040.76
1043.791, 20039.91
1044.273, 20040.35
1044.755, 20055.80
1045.237, 20078.54
1045.719, 20100.23
1046.201, 20122.74
1046.683, 20156.90
1047.166, 20212.00
1047.648, 20248.26
1048.130, 20264.92
1048.612, 20259.44
1049.094, 20216.87
1049.576, 20188.79
1050.058, 20222.28
1050.540, 20297.91
1051.022, 20365.90
1051.505, 20426.71
1051.987, 20470.85
1052.469, 20493.63
1052.951, 20532.04
1053.433, 20600.19
1053.915, 20651.78
1054.397, 20650.97
1054.879, 20632.27
1055.361, 20665.85
1055.844, 20744.47
1056.326, 20774.77
1056.808, 20757.22
1057.290, 20764.33
1057.772, 20808.65
1058.254, 20860.48
1058.736, 20905.04
1059.218, 20940.03
1059.701, 20961.71
1060.183, 20971.50
1060.665, 20966.85
1061.147, 20953.27
1061.629, 20970.76
1062.111, 21017.22
1062.593, 21034.94
1063.075, 21002.83
1063.557, 20966.21
1064.040, 20969.34
1064.522, 20994.13
1065.004, 21013.57
1065.486, 21026.50
1065.968, 21024.74
1066.450, 21013.71
1066.932, 21010.03
1067.414, 21019.23
1067.896, 21045.74
1068.379, 21098.17
1068.861, 21147.54
1069.343, 21153.38
1069.825, 21141.68
1070.307, 21152.39
1070.789, 21172.67
1071.271, 21166.90
1071.753, 21138.36
1072.236, 21127.42
1072.718, 21154.40
1073.200, 21185.86
1073.682, 21201.74
1074.164, 21207.54
1074.646, 21188.74
1075.128, 21176.54
1075.610, 21228.06
1076.093, 21316.03
1076.575, 21354.02
1077.057, 21317.44
1077.539, 21295.53
1078.021, 21343.35
1078.503, 21392.63
1078.985, 21410.10
1079.467, 21419.50
1079.949, 21434.65
1080.432, 21457.22
1080.914, 21489.93
1081.396, 21532.23
1081.878, 21571.11
1082.360, 21617.93
1082.842, 21640.42
1083.324, 21604.64
1083.806, 21578.31
1084.288, 21596.81
1084.771, 21636.38
1085.253, 21678.07
1085.735, 21718.69
1086.217, 21742.79
1086.699, 21741.18
1087.181, 21747.76
1087.663, 21768.97
1088.145, 21784.35
1088.628, 21782.19
1089.110, 21785.97
1089.592, 21818.94
1090.074, 21862.24
1090.556, 21872.90
1091.038, 21849.42
1091.520, 21835.26
1092.002, 21830.20
1092.484, 21839.53
1092.967, 21867.12
1093.449, 21886.82
1093.931, 21883.14
1094.413, 21879.88
1094.895, 21912.35
1095.377, 21964.12
1095.859, 21964.14
1096.341, 21922.36
1096.823, 21918.82
1097.306, 21956.88
1097.788, 22001.11
1098.270, 22039.50
1098.752, 22077.29
1099.234, 22120.36
1099.716, 22156.84
1100.198, 22160.51
1100.680, 22148.62
1101.163, 22159.15
1101.645, 22183.67
1102.127, 22192.48
1102.609, 22186.79
1103.091, 22200.68
1103.573, 22251.55
1104.055, 22294.99
1104.537, 22272.82
1105.020, 22249.34
1105.502, 22296.57
1105.984, 22367.10
1106.466, 22401.65
1106.948, 22410.46
1107.430, 22426.75
1107.912, 22458.34
1108.394, 22498.68
1108.876, 22568.50
1109.359, 22611.16
1109.841, 22590.81
1110.323, 22553.38
1110.805, 22515.15
1111.287, 22483.82
1111.769, 22462.06
1112.251, 22453.11
1112.733, 22472.20
1113.215, 22532.64
1113.698, 22591.63
1114.180, 22645.75
1114.662, 22701.94
1115.144, 22774.41
1115.626, 22831.32
1116.108, 22844.33
1116.590, 22835.24
1117.072, 22846.27
1117.555, 22877.58
1118.037, 22887.73
1118.519, 22867.90
1119.001, 22880.95
1119.483, 22939.76
1119.965, 22994.09
1120.447, 23022.04
1120.929, 23043.67
1121.411, 23079.80
1121.894, 23123.99
1122.376, 23167.23
1122.858, 23203.63
1123.340, 23185.08
1123.822, 23126.31
1124.304, 23119.86
1124.786, 23181.28
1125.268, 23257.26
1125.750, 23319.18
1126.233, 23354.14
1126.715, 23323.92
1127.197, 23277.59
1127.679, 23290.47
1128.161, 23329.92
1128.643, 23339.30
1129.125, 23327.80
1129.607, 23337.48
1130.090, 23377.56
1130.572, 23418.69
1131.054, 23450.41
1131.536, 23472.30
1132.018, 23469.92
1132.500, 23473.57
1132.982, 23516.50
1133.464, 23568.30
1133.947, 23588.47
1134.429, 23583.02
1134.911, 23587.01
1135.393, 23603.70
1135.875, 23632.73
1136.357, 23685.97
1136.839, 23734.74
1137.321, 23788.28
1137.803, 23813.53
1138.286, 23772.91
1138.768, 23715.92
1139.250, 23718.25
1139.732, 23772.95
1140.214, 23812.82
1140.696, 23834.59
1141.178, 23871.95
1141.660, 23929.68
1142.142, 23973.61
1142.625, 23992.28
1143.107, 24002.62
1143.589, 24018.27
1144.071, 24030.53
1144.553, 24016.52
1145.035, 23989.40
1145.517, 23987.59
1145.999, 24007.89
1146.482, 24049.20
1146.964, 24101.67
1147.446, 24122.43
1147.928, 24099.56
1148.410, 24105.90
1148.892, 24229.23
1149.374, 24345.31
1149.856, 24320.38
1150.339, 24256.03
1150.821, 24238.35
1151.303, 24259.32
1151.785, 24309.19
1152.267, 24375.25
1152.749, 24421.29
1153.231, 24433.29
1153.713, 24445.62
1154.195, 24483.81
1154.677, 24498.95
1155.160, 24434.10
1155.642, 24389.28
1156.124, 24443.84
1156.606, 24539.49
1157.088, 24591.09
1157.570, 24603.02
1158.052, 24629.53
1158.534, 24678.41
1159.017, 24701.85
1159.499, 24690.90
1159.981, 24694.71
1160.463, 24729.33
1160.945, 24771.27
1161.427, 24804.95
1161.909, 24829.75
1162.391, 24842.33
1162.874, 24846.44
1163.356, 24849.66
1163.838, 24856.29
1164.320, 24887.11
1164.802, 24935.84
1165.284, 24967.42
1165.766, 24973.03
1166.248, 24983.38
1166.730, 25023.97
1167.213, 25062.86
1167.695, 25070.05
1168.177, 25067.65
1168.659, 25064.09
1169.141, 25070.94
1169.623, 25107.17
1170.105, 25164.16
1170.587, 25215.46
1171.069, 25256.29
1171.552, 25293.21
1172.034, 25337.57
1172.516, 25361.74
1172.998, 25329.26
1173.480, 25323.76
1173.962, 25396.31
1174.444, 25489.74
1174.926, 25545.06
1175.409, 25572.66
1175.891, 25614.25
1176.373, 25674.81
1176.855, 25657.56
1177.337, 25559.13
1177.819, 25549.84
1178.301, 25658.91
1178.783, 25752.79
1179.266, 25766.38
1179.748, 25765.61
1180.230, 25821.92
1180.712, 25901.38
1181.194, 25966.34
1181.676, 26004.30
1182.158, 25952.84
1182.640, 25873.03
1183.122, 25913.54
1183.604, 26061.58
1184.087, 26159.45
1184.569, 26141.84
1185.051, 26132.04
1185.533, 26217.00
1186.015, 26279.78
1186.497, 26236.42
1186.979, 26191.02
1187.461, 26230.94
1187.944, 26303.48
1188.426, 26321.19
1188.908, 26298.31
1189.390, 26329.63
1189.872, 26445.62
1190.354, 26500.93
1190.836, 26475.14
1191.318, 26481.90
1191.801, 26549.03
1192.283, 26632.55
1192.765, 26709.80
1193.247, 26772.39
1193.729, 26808.90
1194.211, 26824.87
1194.693, 26818.80
1195.175, 26809.05
1195.657, 26859.25
1196.140, 26947.04
1196.622, 26995.15
1197.104, 26997.77
1197.586, 27014.64
1198.068, 27075.33
1198.550, 27118.16
1199.032, 27085.03
1199.514, 27048.28
1199.996, 27029.36
1200.479, 27043.39
1200.961, 27133.02
1201.443, 27243.71
1201.925, 27286.94
1202.407, 27270.64
1202.889, 27289.79
1203.371, 27350.36
1203.853, 27434.89
1204.336, 27569.06
1204.818, 27635.74
1205.300, 27596.29
1205.782, 27556.88
1206.264, 27573.61
1206.746, 27619.38
##END=



