##NAMES=Sodalite
##RRUFFID=R060416
##IDEAL CHEMISTRY=Na_4_Si_3_Al_3_O_12_Cl
##LOCALITY=Koksha Valley, Badakshan Province, Afghanistan
##OWNER=RRUFF
##SOURCE=Herb Obodda
##DESCRIPTION=Colorless fragment
##STATUS=The identification of this mineral has been confirmed by X-ray diffraction and chemical analysis
##URL=rruff.info/R060416
##MEASURED CHEMISTRY=Na_8.00_Al_6.00_Si_6.00_O_24_Cl_2.00_
90.60547, 212.8755
91.08759, 208.1848
91.56970, 207.4144
92.05182, 208.6900
92.53394, 213.4021
93.01605, 218.6568
93.49817, 223.8841
93.98029, 229.2487
94.46240, 234.2311
94.94452, 240.1433
95.42664, 244.1228
95.90874, 244.8421
96.39086, 242.4793
96.87298, 237.9950
97.35509, 231.6723
97.83721, 222.0683
98.31933, 214.3473
98.80145, 209.1324
99.28356, 205.2278
99.76568, 201.9884
100.2478, 199.1359
100.7299, 196.7231
101.2120, 194.9477
101.6941, 194.2461
102.1763, 193.7126
102.6584, 193.0100
103.1405, 192.4685
103.6226, 192.5556
104.1047, 193.5307
104.5868, 195.3573
105.0690, 197.6740
105.5511, 199.6926
106.0332, 202.7289
106.5153, 207.4265
106.9974, 213.7329
107.4795, 221.3381
107.9617, 231.0558
108.4438, 241.9411
108.9259, 250.7100
109.4080, 257.9724
109.8901, 262.5772
110.3722, 262.6550
110.8544, 257.5138
111.3365, 249.2009
111.8186, 237.4577
112.3007, 223.7953
112.7828, 211.2117
113.2649, 201.4455
113.7471, 194.3565
114.2292, 188.7485
114.7113, 185.4852
115.1934, 183.0360
115.6755, 180.9047
116.1576, 179.0412
116.6397, 177.5072
117.1219, 176.4271
117.6040, 176.0068
118.0861, 175.4106
118.5682, 174.1858
119.0503, 173.1318
119.5324, 172.8626
120.0146, 173.4483
120.4967, 174.3850
120.9788, 174.8267
121.4609, 174.2005
121.9430, 173.9022
122.4251, 174.4197
122.9073, 175.1062
123.3894, 175.0307
123.8715, 173.7312
124.3536, 171.8784
124.8357, 171.2659
125.3178, 172.0566
125.8000, 173.2474
126.2821, 174.4639
126.7642, 175.7742
127.2463, 177.3624
127.7284, 179.1341
128.2105, 181.4644
128.6927, 184.9499
129.1748, 190.2592
129.6569, 195.6609
130.1390, 200.1617
130.6211, 204.0789
131.1032, 205.1421
131.5854, 199.8043
132.0675, 191.9898
132.5496, 185.0371
133.0317, 180.0774
133.5138, 176.7919
133.9959, 174.4634
134.4781, 173.4806
134.9602, 172.9388
135.4423, 172.7244
135.9244, 172.6841
136.4065, 172.6197
136.8886, 172.3936
137.3708, 172.0274
137.8529, 171.8443
138.3350, 172.0083
138.8171, 172.2033
139.2992, 172.1910
139.7813, 172.1318
140.2635, 172.4416
140.7456, 173.5608
141.2277, 175.6763
141.7098, 176.8222
142.1919, 175.9552
142.6740, 175.1856
143.1561, 175.6575
143.6383, 177.4399
144.1204, 179.9194
144.6025, 182.7057
145.0846, 185.9119
145.5667, 188.0851
146.0488, 188.5092
146.5310, 188.1644
147.0131, 188.2095
147.4952, 188.9500
147.9773, 189.5334
148.4594, 188.4771
148.9415, 186.1005
149.4237, 184.2979
149.9058, 183.9876
150.3879, 184.7920
150.8700, 185.7115
151.3521, 186.6944
151.8342, 187.6212
152.3164, 188.2939
152.7985, 188.7604
153.2806, 189.4200
153.7627, 190.5403
154.2448, 192.1246
154.7269, 194.0537
155.2091, 196.8114
155.6912, 199.5408
156.1733, 201.6402
156.6554, 203.1362
157.1375, 204.6310
157.6196, 206.6288
158.1018, 208.7458
158.5839, 212.6534
159.0660, 219.1651
159.5481, 226.7255
160.0302, 234.0660
160.5123, 240.9957
160.9945, 248.5941
161.4766, 258.7352
161.9587, 273.2408
162.4408, 288.0473
162.9229, 303.4540
163.4050, 318.9243
163.8871, 334.7292
164.3693, 350.9599
164.8514, 365.9278
165.3335, 375.3262
165.8156, 377.9935
166.2977, 376.6823
166.7798, 370.3996
167.2620, 360.4898
167.7441, 348.5969
168.2262, 335.1456
168.7083, 320.7846
169.1904, 307.3784
169.6725, 294.4457
170.1547, 282.9064
170.6368, 273.6386
171.1189, 266.2260
171.6010, 259.1781
172.0831, 251.5567
172.5652, 244.2657
173.0474, 238.6227
173.5295, 234.8429
174.0116, 232.2877
174.4937, 230.9312
174.9758, 230.7669
175.4579, 230.4365
175.9401, 229.1847
176.4222, 227.5338
176.9043, 226.0450
177.3864, 224.8377
177.8685, 223.7514
178.3506, 222.7440
178.8328, 222.0262
179.3149, 220.5802
179.7970, 217.2235
180.2791, 213.3896
180.7612, 210.4111
181.2433, 208.8359
181.7255, 208.0120
182.2076, 206.4660
182.6897, 203.5661
183.1718, 201.1070
183.6539, 199.4929
184.1360, 198.4017
184.6181, 197.5952
185.1003, 196.9754
185.5824, 196.4471
186.0645, 195.6614
186.5466, 194.0592
187.0287, 192.8963
187.5108, 192.7116
187.9930, 192.9561
188.4751, 192.8015
188.9572, 191.7394
189.4393, 190.0912
189.9214, 189.7077
190.4035, 192.5186
190.8857, 194.4525
191.3678, 194.1553
191.8499, 192.5074
192.3320, 191.0849
192.8141, 190.8623
193.2962, 191.6454
193.7784, 191.9217
194.2605, 191.2985
194.7426, 190.7179
195.2247, 190.6739
195.7068, 190.9643
196.1889, 190.9146
196.6711, 189.9519
197.1532, 188.3880
197.6353, 187.7700
198.1174, 188.8713
198.5995, 190.1000
199.0816, 190.5194
199.5638, 190.2341
200.0459, 189.9605
200.5280, 190.1386
201.0101, 190.6354
201.4922, 190.9944
201.9743, 191.0850
202.4565, 191.1533
202.9386, 191.4202
203.4207, 191.8914
203.9028, 192.4073
204.3849, 193.0269
204.8670, 193.5814
205.3492, 193.7613
205.8313, 193.2734
206.3134, 192.7016
206.7955, 192.8108
207.2776, 193.7153
207.7597, 194.7732
208.2419, 195.7894
208.7240, 196.7753
209.2061, 197.7691
209.6882, 198.8383
210.1703, 199.8070
210.6524, 200.3703
211.1346, 200.4719
211.6167, 200.2730
212.0988, 199.4650
212.5809, 198.5671
213.0630, 198.1179
213.5451, 198.3673
214.0273, 199.0370
214.5094, 199.5069
214.9915, 199.6716
215.4736, 199.8130
215.9557, 199.9056
216.4378, 200.0423
216.9200, 200.3272
217.4021, 200.8074
217.8842, 201.4321
218.3663, 202.0457
218.8484, 202.5401
219.3305, 203.1967
219.8127, 203.9297
220.2948, 204.8709
220.7769, 206.3301
221.2590, 208.4500
221.7411, 210.8284
222.2232, 212.2568
222.7054, 211.2385
223.1875, 211.0353
223.6696, 212.3278
224.1517, 214.3534
224.6338, 216.3717
225.1159, 218.0662
225.5980, 219.3406
226.0802, 219.8930
226.5623, 218.1505
227.0444, 217.5651
227.5265, 219.1409
228.0086, 221.8019
228.4907, 224.1921
228.9729, 225.7390
229.4550, 226.7412
229.9371, 227.9237
230.4192, 229.2310
230.9013, 230.7822
231.3834, 233.1111
231.8656, 235.5795
232.3477, 237.0507
232.8298, 236.9701
233.3119, 236.1905
233.7940, 236.7134
234.2761, 239.1194
234.7583, 241.0860
235.2404, 241.9372
235.7225, 241.9861
236.2046, 241.7101
236.6867, 241.1942
237.1688, 240.5793
237.6510, 240.0108
238.1331, 239.3794
238.6152, 239.1934
239.0973, 239.9248
239.5794, 241.2064
240.0615, 242.1328
240.5437, 242.2561
241.0258, 242.4158
241.5079, 243.8709
241.9900, 246.5815
242.4721, 249.3342
242.9542, 251.7372
243.4364, 253.8021
243.9185, 255.4043
244.4006, 256.1732
244.8827, 257.1341
245.3648, 259.6034
245.8469, 263.3616
246.3290, 266.7979
246.8112, 268.4933
247.2933, 269.1908
247.7754, 271.3990
248.2575, 276.1399
248.7396, 281.2482
249.2217, 284.8359
249.7039, 287.3081
250.1860, 290.0059
250.6681, 293.8021
251.1502, 298.4162
251.6323, 302.7736
252.1144, 306.3352
252.5966, 310.4654
253.0787, 316.2406
253.5608, 323.0996
254.0429, 329.8505
254.5250, 335.4811
255.0071, 340.4275
255.4893, 346.4876
255.9714, 353.9918
256.4535, 362.1626
256.9356, 370.8468
257.4177, 379.7951
257.8998, 388.6720
258.3820, 397.2587
258.8641, 405.6121
259.3462, 413.9626
259.8283, 422.5153
260.3104, 430.6806
260.7925, 439.0781
261.2747, 446.9092
261.7568, 453.0356
262.2389, 456.8206
262.7210, 458.7701
263.2031, 460.5013
263.6852, 462.7916
264.1674, 463.3393
264.6495, 461.7897
265.1316, 458.4979
265.6137, 453.6898
266.0958, 447.4391
266.5779, 440.0585
267.0601, 432.1546
267.5422, 423.1090
268.0243, 414.7400
268.5064, 408.1109
268.9885, 401.7423
269.4706, 394.0647
269.9528, 384.5702
270.4349, 374.4766
270.9170, 366.1765
271.3991, 360.7581
271.8812, 355.1785
272.3633, 348.6495
272.8455, 342.2605
273.3276, 336.8467
273.8097, 332.5983
274.2918, 329.2019
274.7739, 326.2454
275.2560, 323.9193
275.7382, 321.6537
276.2202, 319.7889
276.7024, 317.7201
277.1845, 314.6769
277.6666, 310.7646
278.1487, 307.0558
278.6308, 304.9026
279.1129, 304.7817
279.5951, 304.6400
280.0772, 304.4098
280.5593, 304.2168
281.0414, 304.0376
281.5235, 303.9305
282.0056, 304.0461
282.4878, 304.5268
282.9699, 305.3928
283.4520, 306.5478
283.9341, 307.9889
284.4162, 309.6759
284.8983, 311.4273
285.3805, 313.3929
285.8626, 315.9008
286.3447, 319.1913
286.8268, 323.2519
287.3089, 328.2117
287.7910, 333.9470
288.2732, 340.5973
288.7553, 348.7103
289.2374, 357.7345
289.7195, 366.6796
290.2016, 374.9825
290.6837, 382.6515
291.1659, 389.9161
291.6480, 397.6610
292.1301, 403.9213
292.6122, 409.1631
293.0943, 412.5149
293.5764, 412.5620
294.0586, 408.6077
294.5407, 401.5607
295.0228, 393.8414
295.5049, 386.2151
295.9870, 376.8382
296.4691, 364.1625
296.9513, 350.3409
297.4334, 337.3821
297.9155, 326.0298
298.3976, 316.1079
298.8797, 307.3896
299.3618, 300.2266
299.8440, 293.8745
300.3261, 288.6704
300.8082, 284.0876
301.2903, 279.6219
301.7724, 275.2184
302.2545, 271.1461
302.7367, 267.6891
303.2188, 264.9311
303.7009, 262.7233
304.1830, 261.4748
304.6651, 260.3762
305.1472, 258.7149
305.6294, 256.6061
306.1115, 254.8876
306.5936, 254.3858
307.0757, 255.2003
307.5578, 255.2023
308.0399, 253.5321
308.5221, 252.0509
309.0042, 251.8820
309.4863, 252.6067
309.9684, 253.0291
310.4505, 252.3505
310.9326, 250.7485
311.4148, 249.4737
311.8969, 248.1396
312.3790, 247.5009
312.8611, 248.4799
313.3432, 250.1449
313.8253, 250.9099
314.3075, 250.0078
314.7896, 248.0949
315.2717, 246.8246
315.7538, 246.1360
316.2359, 246.1980
316.7180, 247.9815
317.2001, 250.1082
317.6823, 250.8694
318.1644, 249.8052
318.6465, 248.0359
319.1286, 247.2311
319.6107, 247.8956
320.0928, 248.4303
320.5750, 248.8687
321.0571, 249.1594
321.5392, 249.1504
322.0213, 248.8799
322.5034, 248.6689
322.9855, 248.8779
323.4677, 249.6086
323.9498, 249.9834
324.4319, 249.8570
324.9140, 249.5700
325.3961, 249.1491
325.8782, 248.6916
326.3604, 248.4165
326.8425, 248.4930
327.3246, 248.8921
327.8067, 249.2836
328.2888, 249.6317
328.7709, 250.0186
329.2531, 250.7154
329.7352, 251.4225
330.2173, 251.5886
330.6994, 250.9315
331.1815, 249.7643
331.6636, 248.9243
332.1458, 247.9790
332.6279, 247.9731
333.1100, 249.8521
333.5921, 252.2325
334.0742, 253.7226
334.5563, 253.9377
335.0385, 253.5246
335.5206, 253.4507
336.0027, 254.1321
336.4848, 254.0023
336.9669, 251.8436
337.4490, 249.9057
337.9312, 249.8483
338.4133, 251.5960
338.8954, 253.9304
339.3775, 255.8339
339.8596, 257.3560
340.3417, 257.8089
340.8239, 256.0933
341.3060, 254.5989
341.7881, 254.1356
342.2702, 254.5416
342.7523, 255.4514
343.2344, 256.6854
343.7166, 258.1102
344.1987, 259.0623
344.6808, 259.0517
345.1629, 259.0907
345.6450, 259.2113
346.1271, 259.4476
346.6093, 259.9012
347.0914, 260.5921
347.5735, 261.3338
348.0556, 261.7371
348.5377, 261.4883
349.0198, 261.4716
349.5020, 261.9821
349.9841, 262.4785
350.4662, 262.5255
350.9483, 262.1215
351.4304, 261.6205
351.9125, 261.4187
352.3947, 261.5801
352.8768, 261.6166
353.3589, 261.0988
353.8410, 260.8801
354.3231, 261.3031
354.8052, 262.2627
355.2874, 263.5915
355.7695, 265.2762
356.2516, 267.1285
356.7337, 268.0490
357.2158, 266.9306
357.6979, 266.3708
358.1800, 267.2559
358.6621, 268.7241
359.1443, 269.8760
359.6264, 270.3704
360.1085, 270.3780
360.5906, 270.1114
361.0727, 269.3171
361.5548, 268.9278
362.0370, 269.2859
362.5191, 269.8594
363.0012, 270.3361
363.4833, 270.6888
363.9654, 271.0680
364.4475, 271.6064
364.9297, 272.3038
365.4118, 273.1757
365.8939, 274.5987
366.3760, 275.7660
366.8581, 275.9633
367.3402, 275.6841
367.8224, 275.9940
368.3045, 277.7242
368.7866, 280.2923
369.2687, 281.9487
369.7508, 282.3784
370.2329, 282.5525
370.7151, 282.8096
371.1972, 282.9966
371.6793, 282.9078
372.1614, 282.4590
372.6435, 281.9249
373.1256, 281.6973
373.6078, 281.8101
374.0899, 281.7428
374.5720, 281.1479
375.0541, 280.5555
375.5362, 280.5153
376.0183, 280.9551
376.5005, 281.1438
376.9826, 280.2636
377.4647, 278.6964
377.9468, 277.8818
378.4289, 278.0634
378.9110, 278.6560
379.3932, 279.3972
379.8753, 280.2416
380.3574, 281.1466
380.8395, 282.3763
381.3216, 283.4046
381.8037, 283.2766
382.2859, 281.9594
382.7680, 281.1024
383.2501, 281.5811
383.7322, 282.8745
384.2143, 284.1603
384.6964, 285.5177
385.1786, 286.5160
385.6607, 286.6557
386.1428, 286.2348
386.6249, 285.9980
387.1070, 286.0776
387.5891, 286.4948
388.0713, 287.5504
388.5534, 289.1729
389.0355, 290.3251
389.5176, 290.4862
389.9997, 290.2765
390.4818, 290.1512
390.9640, 290.1704
391.4461, 290.6000
391.9282, 291.7367
392.4103, 293.4360
392.8924, 294.8507
393.3745, 296.2723
393.8567, 297.1248
394.3388, 296.6212
394.8209, 295.4452
395.3030, 295.0318
395.7851, 295.9698
396.2672, 297.5150
396.7494, 298.3109
397.2315, 297.7707
397.7136, 297.8871
398.1957, 299.5041
398.6778, 301.3004
399.1599, 301.8807
399.6420, 301.3022
400.1241, 300.9815
400.6063, 302.2957
401.0884, 305.3276
401.5705, 307.3258
402.0526, 307.5017
402.5347, 307.6834
403.0168, 308.5675
403.4990, 309.8029
403.9811, 310.5913
404.4632, 310.5303
404.9453, 310.2692
405.4274, 311.4143
405.9095, 314.6929
406.3917, 318.2542
406.8738, 322.7060
407.3559, 326.8959
407.8380, 329.9948
408.3201, 331.9293
408.8022, 333.2285
409.2844, 334.5355
409.7665, 335.9159
410.2486, 336.0371
410.7307, 333.5986
411.2128, 331.2427
411.6949, 329.8770
412.1771, 329.0795
412.6592, 328.0346
413.1413, 326.2675
413.6234, 324.2843
414.1055, 323.2050
414.5876, 323.2313
415.0698, 323.5448
415.5519, 324.1146
416.0340, 324.8020
416.5161, 325.6207
416.9982, 326.5461
417.4803, 327.2933
417.9625, 327.3510
418.4446, 326.8970
418.9267, 327.2695
419.4088, 328.9887
419.8909, 330.7624
420.3730, 331.6346
420.8552, 331.9587
421.3373, 332.4252
421.8194, 333.3034
422.3015, 334.3813
422.7836, 335.3966
423.2657, 336.3496
423.7479, 337.4117
424.2300, 338.6503
424.7121, 340.0427
425.1942, 341.6133
425.6763, 343.4394
426.1584, 345.0380
426.6406, 345.9814
427.1227, 346.6290
427.6048, 347.5147
428.0869, 348.7238
428.5690, 350.3223
429.0511, 352.5092
429.5333, 355.2834
430.0154, 357.6417
430.4975, 359.1474
430.9796, 360.6485
431.4617, 362.8346
431.9438, 365.3983
432.4260, 367.4583
432.9081, 368.5302
433.3902, 369.0896
433.8723, 370.2917
434.3544, 373.1210
434.8365, 374.9229
435.3187, 374.6366
435.8008, 373.9362
436.2829, 374.1003
436.7650, 375.3116
437.2471, 377.1680
437.7292, 379.3630
438.2114, 381.9195
438.6935, 384.2292
439.1756, 385.4029
439.6577, 387.3385
440.1398, 390.9751
440.6219, 395.4707
441.1040, 399.5453
441.5862, 402.6498
442.0683, 405.5554
442.5504, 409.5886
443.0325, 414.8747
443.5146, 420.9689
443.9967, 428.1103
444.4789, 435.8204
444.9610, 443.8884
445.4431, 452.2722
445.9252, 461.1044
446.4073, 470.4635
446.8894, 480.2713
447.3716, 490.2229
447.8537, 500.2847
448.3358, 510.5524
448.8179, 520.7292
449.3000, 531.3306
449.7821, 542.9310
450.2643, 555.6078
450.7464, 569.4984
451.2285, 584.3445
451.7106, 600.3929
452.1927, 618.5109
452.6748, 638.8448
453.1570, 661.1486
453.6391, 684.5563
454.1212, 709.2996
454.6033, 738.2898
455.0854, 772.3567
455.5675, 810.6664
456.0497, 852.2959
456.5318, 897.3352
457.0139, 947.3312
457.4960, 1003.065
457.9781, 1064.361
458.4602, 1131.690
458.9424, 1205.593
459.4245, 1282.956
459.9066, 1366.084
460.3887, 1450.586
460.8708, 1534.802
461.3529, 1617.159
461.8351, 1692.177
462.3172, 1756.145
462.7993, 1808.917
463.2814, 1842.084
463.7635, 1859.128
464.2456, 1854.287
464.7278, 1821.536
465.2099, 1767.297
465.6920, 1698.115
466.1741, 1616.568
466.6562, 1526.910
467.1383, 1434.899
467.6205, 1336.960
468.1026, 1245.446
468.5847, 1160.475
469.0668, 1082.340
469.5489, 1012.230
470.0310, 949.4851
470.5132, 893.2259
470.9953, 843.0303
471.4774, 798.7116
471.9595, 760.3047
472.4416, 728.6271
472.9237, 699.9911
473.4059, 674.0839
473.8880, 650.3887
474.3701, 628.5077
474.8522, 608.5245
475.3343, 590.4481
475.8164, 574.6309
476.2986, 560.8299
476.7807, 548.4328
477.2628, 537.5477
477.7449, 527.3907
478.2270, 517.1459
478.7091, 507.1854
479.1913, 498.9338
479.6734, 493.4879
480.1555, 488.6344
480.6376, 483.2349
481.1197, 477.6087
481.6018, 472.4946
482.0839, 468.1583
482.5660, 464.0721
483.0482, 459.4240
483.5303, 453.9325
484.0124, 448.9836
484.4945, 444.3401
484.9766, 440.4300
485.4587, 437.6231
485.9409, 435.7229
486.4230, 434.4310
486.9051, 433.6359
487.3872, 432.9295
487.8693, 430.9965
488.3514, 426.4482
488.8336, 423.2918
489.3157, 422.4862
489.7978, 422.4084
490.2799, 422.0278
490.7620, 421.3059
491.2441, 420.7973
491.7263, 421.1015
492.2084, 421.9812
492.6905, 422.1454
493.1726, 421.1158
493.6547, 420.5288
494.1368, 421.6272
494.6190, 423.2343
495.1011, 424.2359
495.5832, 424.4366
496.0653, 424.0565
496.5474, 422.6983
497.0295, 420.8664
497.5117, 420.5768
497.9938, 422.6442
498.4759, 424.0060
498.9580, 421.3644
499.4401, 415.6014
499.9222, 411.6913
500.4044, 411.2000
500.8865, 411.2980
501.3686, 410.5944
501.8507, 409.4078
502.3328, 408.3825
502.8149, 407.7396
503.2971, 407.3446
503.7792, 407.0616
504.2613, 407.0415
504.7434, 406.5323
505.2255, 404.9101
505.7076, 403.4726
506.1898, 402.8651
506.6719, 402.9166
507.1540, 403.3091
507.6361, 403.9040
508.1182, 404.4452
508.6003, 404.2299
509.0825, 402.8105
509.5646, 401.8370
510.0467, 401.5574
510.5288, 401.6865
511.0109, 402.3204
511.4930, 403.2814
511.9752, 404.0540
512.4573, 404.2729
512.9394, 404.1164
513.4215, 403.8985
513.9036, 403.5590
514.3857, 403.5624
514.8679, 404.4180
515.3500, 405.4635
515.8321, 405.7399
516.3142, 405.1222
516.7963, 404.7177
517.2784, 405.4276
517.7606, 406.4325
518.2427, 406.3577
518.7248, 405.1503
519.2069, 404.1314
519.6890, 404.1901
520.1711, 405.1449
520.6533, 406.1089
521.1354, 407.3570
521.6175, 408.2605
522.0996, 408.7326
522.5817, 408.8004
523.0638, 408.2168
523.5460, 407.1025
524.0281, 406.2147
524.5102, 406.3700
524.9923, 407.5249
525.4744, 408.1360
525.9565, 407.6364
526.4387, 407.3129
526.9208, 407.4411
527.4029, 407.8556
527.8850, 408.4154
528.3671, 409.0758
528.8492, 409.7827
529.3314, 410.6772
529.8135, 411.6782
530.2956, 411.8398
530.7777, 410.6511
531.2598, 409.5767
531.7419, 409.9319
532.2241, 410.9203
532.7062, 411.1526
533.1883, 409.8852
533.6704, 408.8349
534.1525, 409.4785
534.6346, 411.1827
535.1168, 412.5495
535.5989, 413.2798
536.0810, 413.4231
536.5631, 412.7866
537.0452, 411.3172
537.5273, 411.0136
538.0095, 412.9487
538.4916, 414.7384
538.9737, 415.2653
539.4558, 415.1756
539.9379, 415.6868
540.4200, 417.1284
540.9022, 418.4572
541.3843, 418.0400
541.8664, 415.4230
542.3485, 413.6396
542.8306, 413.3540
543.3127, 413.2423
543.7948, 412.6099
544.2769, 411.9742
544.7590, 412.3181
545.2411, 414.1146
545.7233, 416.1538
546.2054, 416.7347
546.6875, 415.9770
547.1696, 415.6542
547.6517, 416.1293
548.1339, 416.8964
548.6160, 417.6061
549.0981, 418.2730
549.5802, 418.9516
550.0623, 419.7656
550.5444, 420.4652
551.0266, 420.6923
551.5087, 420.7005
551.9908, 421.2707
552.4729, 422.6744
552.9550, 423.9272
553.4371, 423.5896
553.9193, 421.1079
554.4014, 420.4978
554.8835, 423.8733
555.3656, 426.5078
555.8477, 426.0722
556.3298, 424.0192
556.8120, 422.4503
557.2941, 422.1538
557.7762, 422.7466
558.2583, 423.9493
558.7404, 425.9170
559.2225, 427.1379
559.7047, 427.3185
560.1868, 427.0176
560.6689, 426.0230
561.1510, 424.8929
561.6331, 424.6828
562.1152, 425.9849
562.5974, 427.4937
563.0795, 427.8467
563.5616, 427.3780
564.0437, 427.4225
564.5258, 428.3696
565.0079, 429.2506
565.4901, 429.0171
565.9722, 427.7489
566.4543, 427.2155
566.9364, 427.6887
567.4185, 428.5783
567.9006, 430.2712
568.3828, 432.0141
568.8649, 432.5343
569.3470, 431.6035
569.8291, 430.3647
570.3112, 430.1242
570.7933, 430.9259
571.2755, 431.9637
571.7576, 433.8914
572.2397, 435.2091
572.7218, 435.0555
573.2039, 434.3814
573.6860, 434.1286
574.1682, 434.5451
574.6503, 435.6123
575.1324, 437.8975
575.6145, 440.9318
576.0966, 442.5052
576.5787, 442.2460
577.0609, 441.4156
577.5430, 440.3721
578.0251, 439.4162
578.5072, 439.2873
578.9893, 440.4839
579.4714, 441.4157
579.9536, 440.8942
580.4357, 440.0807
580.9178, 440.7056
581.3999, 442.7802
581.8820, 444.7346
582.3641, 445.3664
582.8463, 444.8675
583.3284, 444.3306
583.8105, 443.0751
584.2926, 442.8282
584.7747, 444.8417
585.2568, 447.0107
585.7390, 447.5648
586.2211, 446.6025
586.7032, 445.5070
587.1853, 445.2337
587.6674, 445.5544
588.1495, 445.6895
588.6317, 445.4643
589.1138, 446.2558
589.5959, 449.3259
590.0780, 452.8410
590.5601, 454.5738
591.0422, 454.5614
591.5244, 454.3658
592.0065, 454.4963
592.4886, 454.6123
592.9707, 454.0152
593.4528, 453.0749
593.9349, 453.1909
594.4171, 455.0513
594.8992, 457.7197
595.3813, 459.6092
595.8634, 460.6322
596.3455, 461.0760
596.8276, 460.3923
597.3098, 459.7862
597.7919, 459.7353
598.2740, 460.1148
598.7561, 460.7487
599.2382, 461.5847
599.7203, 462.3192
600.2025, 462.3311
600.6846, 461.6576
601.1667, 461.7191
601.6488, 462.9475
602.1309, 464.3419
602.6130, 465.1691
603.0952, 465.6841
603.5773, 466.4056
604.0594, 467.6440
604.5415, 468.6455
605.0236, 468.6646
605.5057, 468.3485
605.9879, 468.7948
606.4700, 470.1278
606.9521, 471.6143
607.4342, 472.6703
607.9163, 473.3268
608.3984, 473.8297
608.8806, 473.8656
609.3627, 474.1761
609.8448, 475.0459
610.3269, 476.0313
610.8090, 476.9558
611.2911, 477.6915
611.7733, 477.9247
612.2554, 477.1723
612.7375, 476.0095
613.2196, 475.7991
613.7017, 476.6022
614.1838, 477.8351
614.6660, 479.8465
615.1481, 481.5935
615.6302, 481.3781
616.1123, 479.3725
616.5944, 478.4034
617.0765, 479.9302
617.5587, 481.8352
618.0408, 482.9462
618.5229, 483.3077
619.0050, 482.9118
619.4871, 481.7823
619.9692, 480.6761
620.4514, 480.6363
620.9335, 481.7846
621.4156, 483.0739
621.8977, 484.7098
622.3798, 486.2433
622.8619, 487.8817
623.3441, 489.1957
623.8262, 489.4227
624.3083, 488.4243
624.7904, 487.5122
625.2725, 487.9589
625.7546, 489.3294
626.2367, 490.5612
626.7188, 491.6371
627.2009, 492.1405
627.6830, 491.6107
628.1652, 490.5706
628.6473, 490.2440
629.1294, 490.7813
629.6115, 491.3819
630.0936, 491.9019
630.5757, 492.4710
631.0579, 493.3182
631.5400, 494.2942
632.0221, 494.9963
632.5042, 495.2121
632.9863, 495.1707
633.4684, 495.2417
633.9506, 495.3835
634.4327, 495.8693
634.9148, 497.0235
635.3969, 498.1259
635.8790, 498.3524
636.3611, 498.4048
636.8433, 499.7604
637.3254, 503.3229
637.8075, 506.4669
638.2896, 506.8018
638.7717, 505.5158
639.2538, 504.7983
639.7360, 504.9625
640.2181, 505.6538
640.7002, 506.7890
641.1823, 508.1115
641.6644, 508.5707
642.1465, 506.6617
642.6287, 505.9856
643.1108, 507.7321
643.5929, 509.7361
644.0750, 510.5290
644.5571, 510.3015
645.0392, 510.0321
645.5214, 510.2839
646.0035, 510.6992
646.4856, 510.5232
646.9677, 509.7607
647.4498, 509.4858
647.9319, 509.9082
648.4141, 510.7994
648.8962, 511.9888
649.3783, 513.5052
649.8604, 515.4694
650.3425, 518.9988
650.8246, 521.4606
651.3068, 520.7949
651.7889, 519.0143
652.2710, 518.6589
652.7531, 519.9715
653.2352, 521.6058
653.7173, 522.5266
654.1995, 522.8984
654.6816, 523.4611
655.1637, 524.4532
655.6458, 525.0598
656.1279, 524.7204
656.6100, 524.3179
657.0922, 524.3776
657.5743, 524.8146
658.0564, 525.1647
658.5385, 524.5981
659.0206, 524.7904
659.5027, 528.7687
659.9849, 534.7714
660.4670, 537.4149
660.9491, 535.3872
661.4312, 531.9716
661.9133, 529.9125
662.3954, 529.1800
662.8776, 529.3586
663.3597, 531.2869
663.8418, 533.0461
664.3239, 534.6188
664.8060, 535.8427
665.2881, 536.2757
665.7703, 536.1751
666.2524, 536.5845
666.7345, 538.5047
667.2166, 540.8016
667.6987, 541.1083
668.1808, 539.4885
668.6630, 538.2408
669.1451, 537.7697
669.6272, 538.1601
670.1093, 540.0892
670.5914, 543.2973
671.0735, 544.7205
671.5557, 542.3080
672.0378, 540.5521
672.5199, 541.5559
673.0020, 543.5654
673.4841, 544.4329
673.9662, 544.0840
674.4484, 544.1766
674.9305, 546.1559
675.4126, 549.2862
675.8947, 551.0502
676.3768, 551.1553
676.8589, 551.1744
677.3411, 551.2535
677.8232, 551.5349
678.3053, 552.2683
678.7874, 553.3102
679.2695, 554.1213
679.7516, 554.5328
680.2338, 554.7478
680.7159, 554.2752
681.1980, 553.9167
681.6801, 555.4803
682.1622, 558.9749
682.6443, 562.0561
683.1265, 562.7426
683.6086, 561.4963
684.0907, 560.5095
684.5728, 559.6237
685.0549, 559.3383
685.5370, 560.1306
686.0192, 561.1795
686.5013, 562.0485
686.9834, 562.7843
687.4655, 563.6022
687.9476, 564.5400
688.4297, 565.6534
688.9119, 567.5043
689.3940, 569.4830
689.8761, 569.6007
690.3582, 567.5881
690.8403, 566.3611
691.3224, 568.4578
691.8046, 572.9572
692.2867, 575.4769
692.7688, 574.5781
693.2509, 573.9717
693.7330, 573.9111
694.2151, 574.0847
694.6973, 574.2916
695.1794, 574.5833
695.6615, 575.1999
696.1436, 576.3723
696.6257, 577.4547
697.1078, 577.4561
697.5900, 576.7563
698.0721, 576.7350
698.5542, 577.6078
699.0363, 578.7929
699.5184, 579.9893
700.0005, 581.1299
700.4827, 581.9605
700.9648, 582.0967
701.4469, 582.5392
701.9290, 583.3481
702.4111, 584.4186
702.8932, 586.0327
703.3754, 587.7937
703.8575, 588.8795
704.3396, 588.9082
704.8217, 588.6835
705.3038, 589.0616
705.7859, 590.0012
706.2681, 591.6746
706.7502, 594.3427
707.2323, 595.7835
707.7144, 594.0784
708.1965, 590.9286
708.6786, 590.3818
709.1607, 593.3466
709.6428, 596.0783
710.1249, 599.2725
710.6071, 601.2473
711.0892, 599.9053
711.5713, 597.0330
712.0534, 595.5931
712.5355, 596.5797
713.0176, 598.7858
713.4998, 601.5331
713.9819, 604.4736
714.4640, 605.4042
714.9461, 603.9380
715.4282, 602.7792
715.9103, 603.0399
716.3925, 604.2218
716.8746, 605.6987
717.3567, 607.4970
717.8388, 609.2692
718.3209, 611.5411
718.8030, 613.1644
719.2852, 613.1032
719.7673, 612.2831
720.2494, 611.8428
720.7315, 612.1027
721.2136, 612.9111
721.6957, 614.2692
722.1779, 616.0009
722.6600, 617.5286
723.1421, 618.8777
723.6242, 619.8085
724.1063, 620.0284
724.5884, 620.1473
725.0706, 620.7164
725.5527, 621.7463
726.0348, 623.2712
726.5169, 625.9107
726.9990, 628.2990
727.4811, 629.5620
727.9633, 630.6148
728.4454, 632.5417
728.9275, 635.3116
729.4096, 638.0173
729.8917, 639.9638
730.3738, 641.6641
730.8560, 644.5225
731.3381, 648.5939
731.8202, 651.5895
732.3023, 652.8707
732.7844, 653.6951
733.2665, 655.0356
733.7487, 656.6430
734.2308, 657.6110
734.7129, 657.7809
735.1950, 657.6151
735.6771, 657.6223
736.1592, 656.9772
736.6414, 654.4479
737.1235, 650.7673
737.6056, 647.7399
738.0877, 646.1605
738.5698, 645.3666
739.0519, 644.4971
739.5341, 643.5798
740.0162, 642.7814
740.4983, 642.0162
740.9804, 641.8815
741.4625, 643.0192
741.9446, 644.6555
742.4268, 645.2922
742.9089, 644.7281
743.3910, 644.3188
743.8731, 643.9440
744.3552, 643.9919
744.8373, 644.7141
745.3195, 645.9473
745.8016, 647.8618
746.2837, 650.2719
746.7658, 651.9077
747.2479, 651.2542
747.7300, 649.1848
748.2122, 648.0029
748.6943, 647.7171
749.1764, 647.9664
749.6585, 648.8034
750.1406, 649.7380
750.6227, 650.2150
751.1049, 650.2568
751.5870, 650.6779
752.0691, 651.7307
752.5512, 652.7856
753.0333, 653.8356
753.5154, 654.7627
753.9976, 655.6642
754.4797, 656.3604
754.9618, 656.2344
755.4439, 654.7218
755.9260, 653.1426
756.4081, 653.3840
756.8903, 655.0761
757.3724, 656.8038
757.8545, 658.4149
758.3366, 659.6805
758.8187, 660.3020
759.3008, 660.7026
759.7830, 661.9910
760.2651, 664.8147
760.7472, 667.0121
761.2293, 668.1942
761.7114, 669.2286
762.1935, 670.7478
762.6757, 672.2038
763.1578, 672.7314
763.6399, 672.1654
764.1220, 671.4183
764.6041, 670.9504
765.0862, 670.8104
765.5684, 671.1032
766.0505, 671.8021
766.5326, 672.9396
767.0147, 674.5682
767.4968, 675.8912
767.9789, 675.8909
768.4611, 674.6511
768.9432, 674.2343
769.4253, 674.9984
769.9074, 675.9739
770.3895, 677.0994
770.8716, 678.2974
771.3538, 679.5935
771.8359, 680.9136
772.3180, 682.0998
772.8001, 683.3046
773.2822, 683.9461
773.7643, 682.6168
774.2465, 680.9844
774.7286, 682.1730
775.2107, 685.8245
775.6928, 688.5383
776.1749, 688.3707
776.6570, 686.7740
777.1392, 686.5614
777.6213, 687.9436
778.1034, 689.2027
778.5855, 690.2606
779.0676, 691.3381
779.5497, 692.9149
780.0319, 694.3204
780.5140, 694.3235
780.9961, 692.7491
781.4782, 692.2493
781.9603, 694.4755
782.4424, 696.8604
782.9246, 697.8336
783.4067, 698.0574
783.8888, 698.5684
784.3709, 699.5455
784.8530, 700.5225
785.3351, 701.1705
785.8173, 701.4910
786.2994, 701.1864
786.7815, 700.2536
787.2636, 700.5101
787.7457, 702.6590
788.2278, 704.8040
788.7100, 705.4112
789.1921, 704.8896
789.6742, 704.8086
790.1563, 704.9512
790.6384, 705.9175
791.1205, 709.1243
791.6026, 711.7796
792.0847, 711.5226
792.5668, 709.9259
793.0490, 709.8630
793.5311, 712.1552
794.0132, 714.7643
794.4953, 715.8983
794.9774, 716.3082
795.4595, 717.1962
795.9417, 718.5761
796.4238, 720.4911
796.9059, 723.0115
797.3880, 725.2284
797.8701, 726.1042
798.3522, 725.7032
798.8344, 725.0811
799.3165, 723.7529
799.7986, 723.1077
800.2807, 723.4514
800.7628, 724.4699
801.2449, 726.7973
801.7271, 729.6293
802.2092, 730.6873
802.6913, 728.6429
803.1734, 726.8000
803.6555, 727.2780
804.1376, 728.5198
804.6198, 728.6056
805.1019, 727.9302
805.5840, 728.2165
806.0661, 730.1929
806.5482, 732.6053
807.0303, 733.7725
807.5125, 733.8229
807.9946, 733.7080
808.4767, 733.2720
808.9588, 733.6891
809.4409, 735.8019
809.9230, 738.1807
810.4052, 739.0981
810.8873, 738.5450
811.3694, 738.4607
811.8515, 739.1901
812.3336, 739.9016
812.8157, 740.3024
813.2979, 740.7226
813.7800, 741.3333
814.2621, 742.1937
814.7442, 743.4872
815.2263, 745.4081
815.7084, 747.1383
816.1906, 747.6592
816.6727, 747.4731
817.1548, 747.3992
817.6369, 747.5764
818.1190, 748.4454
818.6011, 750.2270
819.0833, 752.5706
819.5654, 755.2093
820.0475, 758.2170
820.5296, 759.1061
821.0117, 756.3348
821.4938, 754.6169
821.9760, 755.9251
822.4581, 758.0960
822.9402, 759.4569
823.4223, 760.1251
823.9044, 760.7497
824.3865, 761.6216
824.8687, 762.2100
825.3508, 761.5524
825.8329, 761.0988
826.3150, 762.9706
826.7971, 766.2833
827.2792, 768.2610
827.7614, 767.6726
828.2435, 766.1426
828.7256, 765.6920
829.2077, 765.9691
829.6898, 765.0785
830.1719, 762.9876
830.6541, 763.1952
831.1362, 767.5339
831.6183, 772.6315
832.1004, 774.2872
832.5825, 772.5602
833.0646, 772.5084
833.5468, 775.9706
834.0289, 778.2396
834.5110, 778.0949
834.9931, 777.2845
835.4752, 776.4153
835.9573, 775.8189
836.4395, 776.2115
836.9216, 778.0696
837.4037, 779.9391
837.8858, 781.0812
838.3679, 781.8444
838.8500, 782.3231
839.3322, 782.7727
839.8143, 783.9350
840.2964, 785.9815
840.7785, 787.8306
841.2606, 788.1031
841.7427, 787.2628
842.2249, 787.1364
842.7070, 787.7404
843.1891, 788.5823
843.6712, 789.5764
844.1533, 790.6589
844.6354, 791.8237
845.1176, 793.0153
845.5997, 793.9559
846.0818, 794.3271
846.5639, 794.9455
847.0460, 795.7379
847.5281, 796.8477
848.0103, 798.6812
848.4924, 800.7346
848.9745, 802.4363
849.4566, 803.6750
849.9387, 804.0556
850.4208, 802.4372
850.9030, 800.7338
851.3851, 800.9280
851.8672, 802.2565
852.3493, 803.2873
852.8314, 803.7068
853.3135, 803.7723
853.7957, 803.5458
854.2778, 803.4949
854.7599, 805.0770
855.2420, 808.2392
855.7241, 809.9764
856.2062, 809.6554
856.6884, 809.4545
857.1705, 810.5844
857.6526, 812.4744
858.1347, 814.0953
858.6168, 815.3466
859.0989, 816.7439
859.5811, 819.0128
860.0632, 820.4786
860.5453, 819.8040
861.0274, 818.8952
861.5095, 819.9799
861.9916, 822.5488
862.4738, 823.7185
862.9559, 821.5956
863.4380, 819.5895
863.9201, 819.8704
864.4022, 821.5091
864.8843, 824.1186
865.3665, 827.0381
865.8486, 828.3724
866.3307, 827.3839
866.8128, 826.1856
867.2949, 827.7202
867.7770, 831.2455
868.2592, 833.5369
868.7413, 834.5790
869.2234, 834.8983
869.7055, 834.4144
870.1876, 834.2253
870.6697, 835.4346
871.1519, 837.7892
871.6340, 839.9388
872.1161, 842.5038
872.5981, 843.6524
873.0803, 841.8446
873.5624, 840.1491
874.0445, 839.9347
874.5266, 840.5544
875.0087, 841.0520
875.4908, 841.2894
875.9730, 841.7105
876.4551, 842.6012
876.9372, 843.5671
877.4193, 844.3474
877.9014, 845.0674
878.3835, 845.9418
878.8657, 846.9579
879.3478, 847.8931
879.8299, 848.5792
880.3120, 849.2903
880.7941, 850.4910
881.2762, 852.0309
881.7584, 853.5784
882.2405, 855.0574
882.7226, 855.7712
883.2047, 855.3386
883.6868, 854.5378
884.1689, 854.3753
884.6511, 854.8439
885.1332, 855.8095
885.6153, 857.4179
886.0974, 859.1661
886.5795, 861.4366
887.0616, 863.1857
887.5438, 863.1297
888.0259, 861.9473
888.5080, 861.6912
888.9901, 862.5714
889.4722, 863.9669
889.9543, 866.4833
890.4365, 868.7390
890.9186, 870.1516
891.4007, 870.7752
891.8828, 870.2716
892.3649, 868.8763
892.8470, 868.3495
893.3292, 870.6636
893.8113, 873.0344
894.2934, 871.9933
894.7755, 869.4928
895.2576, 869.3409
895.7397, 871.4405
896.2219, 872.7064
896.7040, 871.4895
897.1861, 869.6370
897.6682, 870.0320
898.1503, 872.3727
898.6324, 874.5006
899.1146, 876.4721
899.5967, 876.7667
900.0788, 874.3064
900.5609, 872.3637
901.0430, 874.6246
901.5251, 880.1149
902.0073, 882.5309
902.4894, 878.9825
902.9715, 878.3386
903.4536, 883.6673
903.9357, 888.8936
904.4178, 891.2415
904.9000, 891.9359
905.3821, 892.4077
905.8642, 892.7415
906.3463, 893.4390
906.8284, 895.6443
907.3105, 896.9981
907.7927, 895.2202
908.2748, 892.8945
908.7569, 892.7925
909.2390, 894.7172
909.7211, 897.1098
910.2032, 899.4510
910.6854, 901.0060
911.1675, 900.4314
911.6496, 899.0121
912.1317, 898.7822
912.6138, 899.6331
913.0959, 900.8439
913.5781, 902.1702
914.0602, 903.6045
914.5423, 905.1854
915.0244, 906.8104
915.5065, 908.2726
915.9886, 909.5780
916.4708, 910.3325
916.9529, 910.4335
917.4350, 910.2789
917.9171, 909.9473
918.3992, 909.7565
918.8813, 910.2936
919.3635, 911.6632
919.8456, 913.0375
920.3277, 914.2433
920.8098, 915.7563
921.2919, 918.2078
921.7740, 920.5289
922.2562, 921.8015
922.7383, 922.3373
923.2204, 923.1239
923.7025, 924.4869
924.1846, 925.5391
924.6667, 925.5717
925.1489, 925.7338
925.6310, 926.5692
926.1131, 928.0311
926.5952, 930.4802
927.0773, 933.6296
927.5594, 935.7065
928.0416, 935.1060
928.5237, 934.0635
929.0058, 934.9836
929.4879, 936.6037
929.9700, 936.4141
930.4521, 934.9072
930.9343, 934.8596
931.4164, 937.4016
931.8985, 940.6406
932.3806, 942.3275
932.8627, 942.9601
933.3448, 944.3055
933.8270, 946.2541
934.3091, 947.3500
934.7912, 947.2244
935.2733, 947.2034
935.7554, 948.1926
936.2375, 950.0201
936.7197, 952.4768
937.2018, 955.8971
937.6839, 958.0073
938.1660, 958.4518
938.6481, 958.3901
939.1302, 957.3633
939.6124, 957.0500
940.0945, 959.9615
940.5766, 965.5340
941.0587, 968.4993
941.5408, 966.3221
942.0229, 965.5106
942.5051, 967.4929
942.9872, 969.6453
943.4693, 970.6201
943.9514, 971.0237
944.4335, 971.6425
944.9156, 972.5941
945.3978, 973.8903
945.8799, 975.6404
946.3620, 977.6241
946.8441, 980.1094
947.3262, 982.4756
947.8083, 983.7873
948.2905, 984.4568
948.7726, 985.7680
949.2547, 988.2047
949.7368, 990.6773
950.2189, 992.3328
950.7010, 993.4714
951.1832, 994.4528
951.6653, 995.2675
952.1474, 995.4675
952.6295, 995.2510
953.1116, 996.3046
953.5938, 999.8553
954.0759, 1004.277
954.5580, 1006.867
955.0400, 1007.911
955.5222, 1008.526
956.0043, 1008.807
956.4864, 1010.471
956.9685, 1014.119
957.4506, 1019.086
957.9327, 1024.946
958.4149, 1031.298
958.8970, 1036.032
959.3791, 1038.674
959.8612, 1042.277
960.3433, 1047.392
960.8254, 1052.528
961.3076, 1056.890
961.7897, 1061.004
962.2718, 1065.561
962.7539, 1070.559
963.2360, 1075.691
963.7181, 1081.426
964.2003, 1086.530
964.6824, 1090.573
965.1645, 1094.299
965.6466, 1097.959
966.1287, 1101.641
966.6108, 1105.949
967.0930, 1111.227
967.5751, 1114.049
968.0572, 1111.548
968.5393, 1109.165
969.0214, 1108.638
969.5035, 1109.511
969.9857, 1112.175
970.4678, 1115.704
970.9499, 1117.950
971.4320, 1118.121
971.9141, 1117.929
972.3962, 1119.013
972.8784, 1119.551
973.3605, 1116.747
973.8426, 1112.891
974.3247, 1112.017
974.8068, 1114.104
975.2889, 1115.892
975.7711, 1115.471
976.2532, 1114.793
976.7353, 1115.285
977.2174, 1117.408
977.6995, 1122.369
978.1816, 1129.771
978.6638, 1137.943
979.1459, 1146.506
979.6280, 1156.291
980.1101, 1167.976
980.5922, 1181.243
981.0743, 1193.932
981.5565, 1207.041
982.0386, 1227.840
982.5207, 1256.609
983.0028, 1287.683
983.4849, 1319.032
983.9670, 1349.912
984.4492, 1380.269
984.9313, 1408.686
985.4134, 1429.420
985.8955, 1442.858
986.3776, 1444.856
986.8597, 1434.406
987.3419, 1414.050
987.8240, 1382.723
988.3061, 1346.127
988.7882, 1311.534
989.2703, 1279.070
989.7524, 1250.625
990.2346, 1227.015
990.7167, 1205.545
991.1988, 1185.205
991.6809, 1167.786
992.1630, 1154.577
992.6451, 1144.769
993.1273, 1137.184
993.6094, 1131.935
994.0915, 1128.167
994.5736, 1127.566
995.0557, 1126.062
995.5378, 1121.187
996.0200, 1116.855
996.5021, 1116.644
996.9842, 1118.590
997.4663, 1118.414
997.9484, 1115.166
998.4305, 1112.711
998.9127, 1112.402
999.3948, 1112.582
999.8769, 1112.529
1000.359, 1112.668
1000.841, 1113.718
1001.323, 1115.278
1001.805, 1116.120
1002.287, 1115.749
1002.770, 1115.774
1003.252, 1117.801
1003.734, 1119.687
1004.216, 1119.587
1004.698, 1118.573
1005.180, 1117.830
1005.662, 1117.649
1006.144, 1118.098
1006.627, 1119.205
1007.109, 1120.979
1007.591, 1124.347
1008.073, 1127.615
1008.555, 1128.344
1009.037, 1127.592
1009.519, 1127.302
1010.001, 1127.917
1010.483, 1129.356
1010.966, 1131.656
1011.448, 1134.115
1011.930, 1136.204
1012.412, 1137.712
1012.894, 1137.858
1013.376, 1137.071
1013.858, 1136.736
1014.340, 1137.171
1014.823, 1138.006
1015.305, 1139.034
1015.787, 1140.031
1016.269, 1140.434
1016.751, 1140.504
1017.233, 1141.489
1017.715, 1143.231
1018.197, 1143.788
1018.679, 1142.666
1019.162, 1142.464
1019.644, 1145.565
1020.126, 1150.068
1020.608, 1151.381
1021.090, 1149.786
1021.572, 1149.245
1022.054, 1149.946
1022.536, 1150.622
1023.018, 1150.808
1023.501, 1151.436
1023.983, 1153.395
1024.465, 1156.337
1024.947, 1159.388
1025.429, 1162.646
1025.911, 1164.491
1026.393, 1164.599
1026.875, 1164.659
1027.358, 1165.152
1027.840, 1166.088
1028.322, 1167.567
1028.804, 1169.410
1029.286, 1170.794
1029.768, 1171.478
1030.250, 1172.768
1030.732, 1174.968
1031.214, 1177.045
1031.697, 1178.703
1032.179, 1179.998
1032.661, 1180.940
1033.143, 1181.590
1033.625, 1182.263
1034.107, 1183.240
1034.589, 1183.480
1035.071, 1182.116
1035.553, 1181.606
1036.036, 1182.975
1036.518, 1185.377
1037.000, 1188.100
1037.482, 1191.117
1037.964, 1194.371
1038.446, 1198.780
1038.928, 1201.542
1039.410, 1201.227
1039.893, 1201.179
1040.375, 1202.956
1040.857, 1205.130
1041.339, 1206.110
1041.821, 1206.198
1042.303, 1207.043
1042.785, 1209.435
1043.267, 1211.103
1043.750, 1211.197
1044.232, 1211.494
1044.714, 1212.403
1045.196, 1213.951
1045.678, 1216.165
1046.160, 1219.020
1046.642, 1222.558
1047.124, 1227.724
1047.606, 1231.414
1048.089, 1232.231
1048.571, 1232.696
1049.053, 1234.055
1049.535, 1235.363
1050.017, 1235.100
1050.499, 1233.879
1050.981, 1234.336
1051.463, 1237.501
1051.945, 1240.709
1052.428, 1243.571
1052.910, 1246.188
1053.392, 1248.646
1053.874, 1250.873
1054.356, 1252.489
1054.838, 1253.815
1055.320, 1256.041
1055.802, 1259.927
1056.285, 1262.894
1056.767, 1263.990
1057.249, 1264.260
1057.731, 1263.121
1058.213, 1262.241
1058.695, 1263.641
1059.177, 1266.695
1059.659, 1269.313
1060.141, 1271.119
1060.624, 1271.952
1061.106, 1270.592
1061.588, 1269.656
1062.070, 1271.271
1062.552, 1273.320
1063.034, 1273.391
1063.516, 1272.080
1063.998, 1271.360
1064.480, 1271.670
1064.963, 1272.849
1065.445, 1276.298
1065.927, 1278.806
1066.409, 1277.614
1066.891, 1275.568
1067.373, 1275.349
1067.855, 1276.636
1068.337, 1278.162
1068.820, 1279.651
1069.302, 1280.785
1069.784, 1280.959
1070.266, 1281.330
1070.748, 1282.537
1071.230, 1284.188
1071.712, 1286.256
1072.194, 1288.370
1072.677, 1289.759
1073.159, 1290.277
1073.641, 1291.039
1074.123, 1293.166
1074.605, 1294.844
1075.087, 1294.290
1075.569, 1293.677
1076.051, 1295.901
1076.533, 1299.101
1077.016, 1299.214
1077.498, 1295.780
1077.980, 1293.092
1078.462, 1292.602
1078.944, 1293.770
1079.426, 1297.498
1079.908, 1301.648
1080.390, 1305.072
1080.872, 1307.447
1081.354, 1307.984
1081.837, 1306.940
1082.319, 1306.635
1082.801, 1307.894
1083.283, 1310.149
1083.765, 1315.280
1084.247, 1319.079
1084.729, 1316.389
1085.211, 1311.711
1085.694, 1311.270
1086.176, 1315.234
1086.658, 1320.025
1087.140, 1325.243
1087.622, 1328.957
1088.104, 1329.220
1088.586, 1329.029
1089.068, 1330.316
1089.551, 1332.173
1090.033, 1333.461
1090.515, 1334.222
1090.997, 1335.025
1091.479, 1335.990
1091.961, 1337.164
1092.443, 1338.987
1092.925, 1340.521
1093.407, 1341.239
1093.890, 1341.462
1094.372, 1341.012
1094.854, 1340.463
1095.336, 1341.349
1095.818, 1344.221
1096.300, 1346.155
1096.782, 1344.943
1097.264, 1344.338
1097.746, 1346.457
1098.229, 1349.164
1098.711, 1351.068
1099.193, 1352.166
1099.675, 1352.215
1100.157, 1351.193
1100.639, 1351.923
1101.121, 1356.810
1101.603, 1361.076
1102.086, 1363.437
1102.568, 1364.794
1103.050, 1365.549
1103.532, 1365.728
1104.014, 1364.585
1104.496, 1362.439
1104.978, 1362.703
1105.460, 1368.519
1105.943, 1372.440
1106.425, 1370.797
1106.907, 1370.070
1107.389, 1374.645
1107.871, 1380.463
1108.353, 1382.940
1108.835, 1382.672
1109.317, 1383.250
1109.799, 1385.535
1110.281, 1387.190
1110.764, 1388.328
1111.246, 1388.441
1111.728, 1385.397
1112.210, 1383.094
1112.692, 1385.856
1113.174, 1391.458
1113.656, 1394.018
1114.138, 1392.730
1114.621, 1391.963
1115.103, 1390.917
1115.585, 1391.774
1116.067, 1396.444
1116.549, 1401.008
1117.031, 1402.869
1117.513, 1403.519
1117.995, 1405.533
1118.478, 1408.935
1118.960, 1411.047
1119.442, 1411.751
1119.924, 1411.232
1120.406, 1408.126
1120.888, 1406.711
1121.370, 1409.227
1121.852, 1413.781
1122.334, 1418.916
1122.817, 1423.998
1123.299, 1425.117
1123.781, 1420.846
1124.263, 1418.578
1124.745, 1418.838
1125.227, 1419.861
1125.709, 1421.213
1126.191, 1422.809
1126.673, 1424.546
1127.156, 1426.511
1127.638, 1429.058
1128.120, 1432.209
1128.602, 1434.686
1129.084, 1436.446
1129.566, 1437.745
1130.048, 1438.597
1130.530, 1439.203
1131.013, 1439.591
1131.495, 1440.334
1131.977, 1442.400
1132.459, 1445.488
1132.941, 1448.118
1133.423, 1450.337
1133.905, 1452.429
1134.387, 1454.427
1134.870, 1456.172
1135.352, 1457.602
1135.834, 1458.514
1136.316, 1458.484
1136.798, 1458.413
1137.280, 1460.399
1137.762, 1463.948
1138.244, 1467.758
1138.726, 1471.498
1139.208, 1473.989
1139.691, 1475.071
1140.173, 1475.914
1140.655, 1477.295
1141.137, 1478.404
1141.619, 1477.476
1142.101, 1476.083
1142.583, 1477.208
1143.065, 1480.050
1143.548, 1483.116
1144.030, 1485.963
1144.512, 1488.115
1144.994, 1489.420
1145.476, 1490.398
1145.958, 1491.314
1146.440, 1492.301
1146.922, 1493.551
1147.405, 1494.902
1147.887, 1496.195
1148.369, 1497.403
1148.851, 1498.170
1149.333, 1498.689
1149.815, 1500.502
1150.297, 1505.176
1150.779, 1508.969
1151.261, 1508.732
1151.744, 1507.854
1152.226, 1508.694
1152.708, 1510.401
1153.190, 1512.070
1153.672, 1513.502
1154.154, 1514.444
1154.636, 1514.689
1155.118, 1515.535
1155.600, 1518.072
1156.083, 1520.305
1156.565, 1521.543
1157.047, 1522.259
1157.529, 1521.436
1158.011, 1521.022
1158.493, 1525.180
1158.975, 1533.957
1159.457, 1539.049
1159.940, 1536.698
1160.422, 1536.002
1160.904, 1537.928
1161.386, 1540.599
1161.868, 1544.023
1162.350, 1547.190
1162.832, 1549.252
1163.314, 1550.304
1163.796, 1550.473
1164.279, 1549.397
1164.761, 1549.525
1165.243, 1551.179
1165.725, 1552.825
1166.207, 1554.023
1166.689, 1555.878
1167.171, 1559.389
1167.653, 1562.743
1168.135, 1563.018
1168.618, 1561.053
1169.100, 1561.827
1169.582, 1565.293
1170.064, 1568.183
1170.546, 1570.222
1171.028, 1571.827
1171.510, 1573.142
1171.992, 1574.988
1172.474, 1578.145
1172.957, 1581.636
1173.439, 1583.641
1173.921, 1584.662
1174.403, 1586.051
1174.885, 1587.806
1175.367, 1589.926
1175.849, 1592.319
1176.331, 1594.631
1176.814, 1596.705
1177.296, 1598.415
1177.778, 1599.499
1178.260, 1600.358
1178.742, 1601.099
1179.224, 1602.168
1179.706, 1604.820
1180.188, 1608.042
1180.671, 1608.250
1181.153, 1606.206
1181.635, 1609.941
1182.117, 1626.123
1182.599, 1636.928
1183.081, 1627.291
1183.563, 1615.775
1184.045, 1613.325
1184.527, 1615.210
1185.010, 1617.088
1185.492, 1618.910
1185.974, 1622.139
1186.456, 1627.146
1186.938, 1630.244
1187.420, 1628.394
1187.902, 1628.324
1188.384, 1632.415
1188.866, 1636.883
1189.349, 1640.979
1189.831, 1643.771
1190.313, 1643.540
1190.795, 1641.279
1191.277, 1640.982
1191.759, 1642.941
1192.241, 1645.573
1192.723, 1648.990
1193.206, 1652.879
1193.688, 1657.684
1194.170, 1660.537
1194.652, 1659.172
1195.134, 1657.217
1195.616, 1660.183
1196.098, 1666.536
1196.580, 1669.757
1197.063, 1670.076
1197.545, 1669.443
1198.027, 1668.252
1198.509, 1668.822
1198.991, 1671.623
1199.473, 1673.520
1199.955, 1672.141
1200.437, 1670.611
1200.919, 1673.813
1201.401, 1679.072
1201.884, 1682.019
1202.366, 1683.307
1202.848, 1683.757
1203.330, 1683.992
1203.812, 1685.068
1204.294, 1687.307
1204.776, 1690.501
1205.258, 1695.376
1205.741, 1699.448
1206.223, 1700.881
1206.705, 1701.109
1207.187, 1699.893
1207.669, 1699.104
1208.151, 1701.799
1208.633, 1706.775
1209.115, 1709.737
1209.598, 1709.789
1210.080, 1708.913
1210.562, 1705.055
1211.044, 1703.788
1211.526, 1708.281
1212.008, 1713.091
1212.490, 1716.383
1212.972, 1717.953
1213.454, 1716.603
1213.937, 1719.571
1214.419, 1721.362
1214.901, 1722.059
1215.383, 1726.147
1215.865, 1726.553
1216.347, 1726.939
1216.829, 1728.089
1217.311, 1729.467
1217.793, 1730.695
1218.276, 1732.613
1218.758, 1736.792
1219.240, 1741.912
1219.722, 1744.185
1220.204, 1744.171
1220.686, 1742.852
1221.168, 1741.161
1221.650, 1742.416
1222.133, 1746.962
1222.615, 1751.603
1223.097, 1754.561
1223.579, 1756.975
1224.061, 1760.067
1224.543, 1762.891
1225.025, 1764.111
1225.507, 1764.817
1225.990, 1766.507
1226.472, 1768.631
1226.954, 1769.866
1227.436, 1770.042
1227.918, 1770.020
1228.400, 1769.279
1228.882, 1769.986
1229.364, 1773.636
1229.846, 1777.545
1230.328, 1782.290
1230.811, 1785.203
1231.293, 1782.277
1231.775, 1777.588
1232.257, 1779.221
1232.739, 1787.119
1233.221, 1792.754
1233.703, 1795.738
1234.185, 1798.163
1234.668, 1800.126
1235.150, 1801.792
1235.632, 1803.180
1236.114, 1804.610
1236.596, 1806.359
1237.078, 1808.144
1237.560, 1809.485
1238.042, 1810.472
1238.525, 1811.208
1239.007, 1811.927
1239.489, 1813.611
1239.971, 1816.036
1240.453, 1817.836
1240.935, 1818.752
1241.417, 1820.135
1241.899, 1822.910
1242.381, 1826.118
1242.864, 1829.674
1243.346, 1832.641
1243.828, 1833.433
1244.310, 1833.868
1244.792, 1836.579
1245.274, 1840.403
1245.756, 1841.918
1246.238, 1840.661
1246.720, 1841.415
1247.203, 1846.569
1247.685, 1851.112
1248.167, 1855.637
1248.649, 1857.908
1249.131, 1856.183
1249.613, 1853.602
1250.095, 1851.986
1250.577, 1851.956
1251.059, 1855.246
1251.542, 1861.382
1252.024, 1864.157
1252.506, 1863.613
1252.988, 1863.918
1253.470, 1865.455
1253.952, 1867.684
1254.434, 1870.400
1254.916, 1873.750
1255.399, 1877.973
1255.881, 1881.420
1256.363, 1880.369
1256.845, 1884.921
1257.327, 1883.016
1257.809, 1889.756
1258.291, 1893.054
1258.773, 1894.012
1259.255, 1896.652
1259.738, 1901.458
1260.220, 1905.541
1260.702, 1908.040
1261.184, 1909.326
1261.666, 1908.784
1262.148, 1908.080
1262.630, 1906.966
1263.112, 1906.918
1263.594, 1909.652
1264.077, 1913.514
1264.559, 1915.816
1265.041, 1919.348
1265.523, 1923.321
1266.005, 1926.058
1266.487, 1930.939
1266.969, 1934.703
1267.451, 1937.148
1267.934, 1938.190
1268.416, 1938.727
1268.898, 1939.223
1269.380, 1940.257
1269.862, 1942.609
1270.344, 1945.776
1270.826, 1949.361
1271.308, 1952.812
1271.791, 1954.732
1272.273, 1955.813
1272.755, 1957.461
1273.237, 1959.933
1273.719, 1963.231
1274.201, 1967.463
1274.683, 1970.820
1275.165, 1971.870
1275.647, 1972.847
1276.130, 1973.940
1276.612, 1975.986
1277.094, 1980.932
1277.576, 1985.832
1278.058, 1987.373
1278.540, 1986.478
1279.022, 1985.398
1279.504, 1983.979
1279.986, 1985.578
1280.469, 1990.739
1280.951, 1994.600
1281.433, 1996.517
1281.915, 1998.756
1282.397, 2002.150
1282.879, 2006.357
1283.361, 2011.346
1283.843, 2015.762
1284.326, 2018.038
1284.808, 2018.012
##END=



