##NAMES=Sodalite
##RRUFFID=R060405
##IDEAL CHEMISTRY=Na_4_Si_3_Al_3_O_12_Cl
##LOCALITY=Cerro Sapo, Cochabamba Department, Bolivia
##OWNER=RRUFF
##SOURCE=Marcus Origlieri
##DESCRIPTION=Blue massive associated with brown burbankite R050646
##STATUS=The identification of this mineral has been confirmed by X-ray diffraction and chemical analysis
##URL=rruff.info/R060405
##MEASURED CHEMISTRY=Na_8.00_Al_6.00_Si_6.00_O_24_Cl_2_
183.1195, 3225.163
183.6017, 3223.962
184.0838, 3223.782
184.5659, 3226.331
185.0480, 3231.202
185.5301, 3236.564
186.0123, 3241.636
186.4944, 3246.475
186.9765, 3250.687
187.4586, 3253.904
187.9407, 3257.785
188.4228, 3265.686
188.9050, 3277.120
189.3871, 3287.664
189.8692, 3295.094
190.3513, 3299.656
190.8334, 3302.552
191.3155, 3303.708
191.7977, 3303.573
192.2798, 3302.503
192.7619, 3300.529
193.2440, 3298.615
193.7261, 3297.610
194.2082, 3297.402
194.6904, 3296.159
195.1725, 3293.669
195.6546, 3290.458
196.1367, 3286.949
196.6188, 3282.972
197.1009, 3280.607
197.5831, 3282.319
198.0652, 3288.082
198.5473, 3290.089
199.0294, 3286.984
199.5115, 3281.176
199.9937, 3277.337
200.4758, 3275.575
200.9579, 3274.995
201.4400, 3275.240
201.9221, 3276.300
202.4042, 3278.043
202.8864, 3280.852
203.3685, 3283.890
203.8506, 3284.973
204.3327, 3283.679
204.8148, 3282.051
205.2969, 3281.147
205.7791, 3281.027
206.2612, 3281.133
206.7433, 3281.476
207.2254, 3281.983
207.7075, 3282.463
208.1896, 3282.893
208.6718, 3283.389
209.1539, 3284.006
209.6360, 3284.739
210.1181, 3285.765
210.6002, 3287.302
211.0823, 3289.095
211.5645, 3290.496
212.0466, 3291.743
212.5287, 3292.244
213.0108, 3291.094
213.4929, 3287.198
213.9750, 3286.409
214.4572, 3290.417
214.9393, 3297.201
215.4214, 3300.690
215.9035, 3299.786
216.3856, 3297.781
216.8678, 3296.031
217.3499, 3293.853
217.8320, 3294.075
218.3141, 3297.946
218.7962, 3303.842
219.2783, 3306.465
219.7605, 3304.252
220.2426, 3301.362
220.7247, 3299.812
221.2068, 3299.585
221.6889, 3300.751
222.1710, 3303.999
222.6532, 3308.500
223.1353, 3311.679
223.6174, 3313.786
224.0995, 3314.332
224.5816, 3312.622
225.0637, 3306.856
225.5459, 3303.546
226.0280, 3303.400
226.5101, 3305.747
226.9922, 3308.673
227.4743, 3312.733
227.9564, 3316.542
228.4386, 3319.418
228.9207, 3320.907
229.4028, 3322.339
229.8849, 3323.635
230.3670, 3324.861
230.8492, 3326.366
231.3313, 3328.559
231.8134, 3330.372
232.2955, 3331.365
232.7776, 3331.464
233.2597, 3330.881
233.7419, 3329.017
234.2240, 3326.726
234.7061, 3326.511
235.1882, 3330.203
235.6703, 3333.314
236.1524, 3333.681
236.6346, 3329.372
237.1167, 3326.782
237.5988, 3325.933
238.0809, 3326.759
238.5630, 3329.430
239.0451, 3335.452
239.5273, 3340.943
240.0094, 3344.142
240.4915, 3343.925
240.9736, 3344.074
241.4557, 3344.348
241.9378, 3344.981
242.4200, 3346.414
242.9021, 3348.237
243.3842, 3351.452
243.8663, 3357.016
244.3484, 3366.786
244.8306, 3372.975
245.3127, 3373.185
245.7948, 3371.034
246.2769, 3373.519
246.7590, 3383.270
247.2411, 3393.192
247.7233, 3401.111
248.2054, 3407.060
248.6875, 3410.762
249.1696, 3410.746
249.6517, 3409.494
250.1338, 3411.207
250.6160, 3417.494
251.0981, 3423.909
251.5802, 3428.783
252.0623, 3431.561
252.5444, 3435.967
253.0265, 3442.591
253.5087, 3450.367
253.9908, 3457.596
254.4729, 3463.873
254.9550, 3470.584
255.4371, 3478.275
255.9192, 3487.029
256.4014, 3495.608
256.8835, 3504.226
257.3656, 3512.457
257.8477, 3519.699
258.3298, 3524.861
258.8120, 3531.583
259.2941, 3541.495
259.7762, 3554.948
260.2583, 3566.125
260.7404, 3575.399
261.2225, 3581.964
261.7047, 3584.335
262.1868, 3580.137
262.6689, 3577.941
263.1510, 3580.645
263.6331, 3587.965
264.1152, 3591.157
264.5974, 3589.286
265.0795, 3584.656
265.5616, 3579.625
266.0437, 3574.576
266.5258, 3567.673
267.0079, 3558.163
267.4901, 3546.364
267.9722, 3535.750
268.4543, 3526.894
268.9364, 3518.051
269.4185, 3507.452
269.9006, 3494.489
270.3828, 3482.823
270.8649, 3473.582
271.3470, 3465.929
271.8291, 3454.676
272.3112, 3437.479
272.7933, 3422.265
273.2755, 3416.320
273.7576, 3421.288
274.2397, 3423.311
274.7218, 3420.340
275.2039, 3413.541
275.6860, 3405.983
276.1682, 3397.160
276.6503, 3389.233
277.1324, 3383.852
277.6145, 3381.301
278.0966, 3378.905
278.5787, 3376.624
279.0609, 3374.436
279.5430, 3371.876
280.0251, 3368.836
280.5072, 3366.824
280.9893, 3367.728
281.4715, 3371.552
281.9536, 3372.196
282.4357, 3368.618
282.9178, 3363.284
283.3999, 3359.990
283.8820, 3358.697
284.3642, 3359.050
284.8463, 3360.866
285.3284, 3364.089
285.8105, 3368.857
286.2926, 3375.360
286.7747, 3382.499
287.2569, 3388.653
287.7390, 3393.828
288.2211, 3399.317
288.7032, 3405.965
289.1853, 3413.388
289.6674, 3420.287
290.1496, 3426.822
290.6317, 3432.265
291.1138, 3434.693
291.5959, 3434.750
292.0780, 3436.727
292.5602, 3443.618
293.0423, 3452.890
293.5244, 3458.369
294.0065, 3460.014
294.4886, 3458.630
294.9707, 3454.113
295.4529, 3446.968
295.9350, 3439.077
296.4171, 3430.724
296.8992, 3421.978
297.3813, 3413.683
297.8634, 3405.710
298.3456, 3396.015
298.8277, 3381.233
299.3098, 3363.745
299.7919, 3348.961
300.2740, 3338.554
300.7561, 3330.497
301.2383, 3322.879
301.7204, 3315.639
302.2025, 3308.992
302.6846, 3302.741
303.1667, 3297.211
303.6488, 3292.672
304.1310, 3289.105
304.6131, 3286.868
305.0952, 3287.346
305.5773, 3289.624
306.0594, 3291.230
306.5415, 3290.457
307.0237, 3288.542
307.5058, 3286.732
307.9879, 3285.161
308.4700, 3283.569
308.9521, 3281.343
309.4343, 3278.978
309.9164, 3277.285
310.3985, 3277.284
310.8806, 3277.598
311.3627, 3277.069
311.8448, 3275.629
312.3270, 3274.238
312.8091, 3273.668
313.2912, 3273.410
313.7733, 3272.868
314.2554, 3270.265
314.7375, 3268.685
315.2197, 3270.929
315.7018, 3276.445
316.1839, 3280.362
316.6660, 3279.488
317.1481, 3276.617
317.6302, 3274.012
318.1124, 3272.016
318.5945, 3270.590
319.0766, 3270.418
319.5587, 3270.964
320.0408, 3270.376
320.5229, 3265.273
321.0051, 3260.827
321.4872, 3260.456
321.9693, 3268.287
322.4514, 3273.403
322.9335, 3271.407
323.4156, 3265.396
323.8978, 3261.338
324.3799, 3262.524
324.8620, 3263.871
325.3441, 3263.294
325.8262, 3259.659
326.3083, 3257.281
326.7905, 3257.337
327.2726, 3258.551
327.7547, 3259.342
328.2368, 3259.093
328.7189, 3259.010
329.2010, 3259.291
329.6832, 3259.943
330.1653, 3260.958
330.6474, 3263.931
331.1295, 3266.126
331.6116, 3265.096
332.0938, 3257.606
332.5759, 3252.010
333.0580, 3249.610
333.5401, 3250.074
334.0222, 3251.272
334.5043, 3253.946
334.9865, 3256.323
335.4686, 3257.398
335.9507, 3257.051
336.4328, 3255.490
336.9149, 3251.904
337.3970, 3247.474
337.8792, 3245.805
338.3613, 3247.905
338.8434, 3249.875
339.3255, 3249.670
339.8076, 3246.868
340.2898, 3245.475
340.7719, 3245.889
341.2540, 3247.103
341.7361, 3247.616
342.2182, 3247.366
342.7003, 3247.153
343.1825, 3247.322
343.6646, 3247.791
344.1467, 3248.057
344.6288, 3248.156
345.1109, 3247.827
345.5930, 3245.784
346.0752, 3242.411
346.5573, 3241.896
347.0394, 3246.825
347.5215, 3253.786
348.0036, 3254.188
348.4857, 3248.155
348.9679, 3242.103
349.4500, 3240.945
349.9321, 3243.492
350.4142, 3246.605
350.8963, 3250.208
351.3784, 3253.214
351.8606, 3254.155
352.3427, 3253.247
352.8248, 3251.255
353.3069, 3246.854
353.7890, 3242.336
354.2711, 3241.448
354.7533, 3244.854
355.2354, 3248.530
355.7175, 3249.282
356.1996, 3247.909
356.6817, 3245.793
357.1638, 3241.720
357.6460, 3238.418
358.1281, 3239.011
358.6102, 3243.129
359.0923, 3246.078
359.5744, 3243.949
360.0565, 3239.885
360.5387, 3236.935
361.0208, 3236.425
361.5029, 3236.582
361.9850, 3237.043
362.4671, 3237.641
362.9492, 3237.829
363.4314, 3236.639
363.9135, 3235.573
364.3956, 3235.601
364.8777, 3237.478
365.3598, 3238.996
365.8419, 3239.763
366.3241, 3239.903
366.8062, 3239.578
367.2883, 3238.296
367.7704, 3237.040
368.2526, 3235.803
368.7347, 3234.364
369.2168, 3234.244
369.6989, 3237.227
370.1810, 3240.417
370.6631, 3241.352
371.1453, 3237.621
371.6274, 3235.234
372.1095, 3235.352
372.5916, 3237.546
373.0737, 3239.004
373.5558, 3239.668
374.0380, 3239.683
374.5201, 3238.950
375.0022, 3237.070
375.4843, 3235.785
375.9664, 3235.258
376.4485, 3235.255
376.9307, 3235.456
377.4128, 3236.010
377.8949, 3236.076
378.3770, 3234.836
378.8591, 3232.422
379.3412, 3232.066
379.8234, 3234.230
380.3055, 3236.816
380.7876, 3237.810
381.2697, 3237.228
381.7518, 3234.775
382.2339, 3229.282
382.7161, 3222.766
383.1982, 3220.115
383.6803, 3221.272
384.1624, 3223.679
384.6445, 3226.511
385.1266, 3229.127
385.6088, 3229.577
386.0909, 3227.106
386.5730, 3223.925
387.0551, 3222.762
387.5372, 3223.041
388.0193, 3223.083
388.5015, 3220.802
388.9836, 3218.473
389.4657, 3219.419
389.9478, 3223.931
390.4299, 3227.397
390.9120, 3224.972
391.3942, 3220.192
391.8763, 3217.467
392.3584, 3220.654
392.8405, 3224.026
393.3226, 3224.503
393.8047, 3222.595
394.2869, 3220.616
394.7690, 3218.926
395.2511, 3217.827
395.7332, 3217.459
396.2154, 3217.656
396.6975, 3219.011
397.1796, 3223.184
397.6617, 3228.388
398.1438, 3231.530
398.6259, 3230.195
399.1081, 3228.732
399.5902, 3228.285
400.0723, 3228.967
400.5544, 3229.777
401.0365, 3230.572
401.5186, 3231.523
402.0008, 3232.804
402.4829, 3234.775
402.9650, 3236.282
403.4471, 3237.042
403.9292, 3237.214
404.4113, 3237.611
404.8935, 3238.540
405.3756, 3239.000
405.8577, 3238.121
406.3398, 3235.581
406.8219, 3234.487
407.3040, 3235.226
407.7862, 3236.847
408.2683, 3238.042
408.7504, 3238.841
409.2325, 3239.735
409.7146, 3241.451
410.1967, 3243.342
410.6789, 3242.984
411.1610, 3240.361
411.6431, 3236.979
412.1252, 3234.310
412.6073, 3231.958
413.0894, 3228.483
413.5716, 3223.084
414.0537, 3217.777
414.5358, 3214.784
415.0179, 3213.916
415.5000, 3214.513
415.9821, 3217.667
416.4643, 3221.226
416.9464, 3222.708
417.4285, 3221.761
417.9106, 3220.375
418.3927, 3219.214
418.8748, 3218.482
419.3570, 3218.456
419.8391, 3219.885
420.3212, 3221.382
420.8033, 3222.751
421.2854, 3223.857
421.7675, 3224.066
422.2497, 3222.478
422.7318, 3220.553
423.2139, 3218.997
423.6960, 3217.677
424.1781, 3217.347
424.6602, 3219.322
425.1424, 3222.078
425.6245, 3223.293
426.1066, 3220.869
426.5887, 3219.526
427.0709, 3220.094
427.5530, 3222.558
428.0351, 3227.053
428.5172, 3235.786
428.9993, 3243.517
429.4814, 3245.509
429.9636, 3239.317
430.4457, 3237.142
430.9278, 3241.421
431.4099, 3248.785
431.8920, 3251.523
432.3741, 3249.102
432.8563, 3246.312
433.3384, 3244.773
433.8205, 3244.571
434.3026, 3246.616
434.7847, 3251.077
435.2668, 3256.453
435.7490, 3261.803
436.2311, 3266.935
436.7132, 3270.904
437.1953, 3273.194
437.6774, 3274.606
438.1595, 3275.794
438.6417, 3276.939
439.1238, 3278.781
439.6059, 3281.360
440.0880, 3285.092
440.5701, 3290.772
441.0522, 3298.764
441.5344, 3307.032
442.0165, 3313.605
442.4986, 3319.955
442.9807, 3327.851
443.4628, 3338.842
443.9449, 3350.535
444.4271, 3361.601
444.9092, 3372.356
445.3913, 3384.824
445.8734, 3398.085
446.3555, 3413.937
446.8376, 3433.637
447.3198, 3460.073
447.8019, 3484.798
448.2840, 3505.723
448.7661, 3525.429
449.2482, 3547.566
449.7303, 3573.532
450.2125, 3599.183
450.6946, 3623.314
451.1767, 3646.282
451.6588, 3671.277
452.1409, 3698.323
452.6230, 3727.817
453.1052, 3759.617
453.5873, 3793.966
454.0694, 3831.174
454.5515, 3871.236
455.0337, 3914.018
455.5158, 3957.626
455.9979, 4002.623
456.4800, 4051.764
456.9621, 4107.388
457.4442, 4168.113
457.9264, 4231.292
458.4085, 4296.677
458.8906, 4365.354
459.3727, 4441.023
459.8548, 4519.412
460.3369, 4591.927
460.8191, 4656.764
461.3012, 4717.505
461.7833, 4782.260
462.2654, 4845.172
462.7475, 4893.825
463.2296, 4925.438
463.7118, 4939.805
464.1939, 4937.760
464.6760, 4919.379
465.1581, 4880.817
465.6402, 4814.654
466.1223, 4731.844
466.6045, 4640.736
467.0866, 4533.845
467.5687, 4429.552
468.0508, 4325.064
468.5329, 4223.552
469.0150, 4130.904
469.4972, 4050.438
469.9793, 3975.486
470.4614, 3904.805
470.9435, 3838.379
471.4256, 3776.839
471.9077, 3719.575
472.3899, 3668.542
472.8720, 3626.954
473.3541, 3595.030
473.8362, 3564.402
474.3183, 3533.467
474.8004, 3503.495
475.2826, 3477.199
475.7647, 3454.431
476.2468, 3433.262
476.7289, 3411.839
477.2110, 3391.372
477.6931, 3375.293
478.1753, 3363.514
478.6574, 3353.745
479.1395, 3345.828
479.6216, 3338.223
480.1037, 3328.302
480.5858, 3313.819
481.0680, 3299.793
481.5501, 3289.935
482.0322, 3283.055
482.5143, 3276.752
482.9964, 3270.963
483.4786, 3264.855
483.9607, 3257.449
484.4428, 3248.593
484.9249, 3241.439
485.4070, 3237.797
485.8892, 3235.418
486.3713, 3232.772
486.8534, 3230.520
487.3355, 3226.894
487.8176, 3220.476
488.2997, 3213.114
488.7819, 3208.720
489.2640, 3208.109
489.7461, 3208.655
490.2282, 3210.259
490.7103, 3212.683
491.1924, 3211.087
491.6746, 3204.374
492.1567, 3197.995
492.6388, 3198.052
493.1209, 3203.580
493.6030, 3205.894
494.0851, 3203.276
494.5673, 3198.661
495.0494, 3195.999
495.5315, 3194.901
496.0136, 3194.084
496.4957, 3193.247
496.9778, 3192.211
497.4600, 3191.484
497.9421, 3190.829
498.4242, 3187.956
498.9063, 3178.553
499.3884, 3168.014
499.8705, 3161.187
500.3527, 3160.489
500.8348, 3160.021
501.3169, 3158.575
501.7990, 3155.937
502.2811, 3151.764
502.7632, 3143.558
503.2454, 3136.519
503.7275, 3132.124
504.2096, 3130.165
504.6917, 3128.064
505.1738, 3125.928
505.6559, 3123.617
506.1381, 3121.210
506.6202, 3118.953
507.1023, 3115.334
507.5844, 3109.427
508.0665, 3103.899
508.5486, 3103.242
509.0308, 3107.589
509.5129, 3110.925
509.9950, 3111.628
510.4771, 3110.369
510.9592, 3107.850
511.4413, 3104.226
511.9235, 3101.346
512.4056, 3100.848
512.8877, 3101.588
513.3698, 3101.493
513.8519, 3100.263
514.3340, 3100.121
514.8162, 3105.820
515.2983, 3112.405
515.7804, 3113.718
516.2625, 3103.274
516.7446, 3093.253
517.2267, 3088.818
517.7089, 3088.532
518.1910, 3088.885
518.6731, 3091.576
519.1552, 3092.589
519.6373, 3089.582
520.1194, 3081.983
520.6016, 3076.656
521.0837, 3074.027
521.5658, 3073.199
522.0479, 3073.844
522.5300, 3076.487
523.0121, 3078.640
523.4943, 3080.313
523.9764, 3081.143
524.4585, 3079.871
524.9406, 3076.451
525.4227, 3073.990
525.9048, 3074.169
526.3870, 3075.820
526.8691, 3076.563
527.3513, 3076.347
527.8334, 3074.338
528.3155, 3067.742
528.7976, 3059.774
529.2797, 3055.514
529.7618, 3056.030
530.2440, 3057.261
530.7261, 3055.869
531.2082, 3053.617
531.6903, 3052.786
532.1724, 3056.339
532.6545, 3059.031
533.1367, 3058.948
533.6188, 3056.616
534.1009, 3053.942
534.5830, 3051.291
535.0651, 3048.250
535.5472, 3044.230
536.0294, 3038.726
536.5115, 3035.966
536.9936, 3037.180
537.4757, 3039.454
537.9578, 3040.441
538.4399, 3040.007
538.9221, 3039.176
539.4042, 3037.945
539.8863, 3036.528
540.3684, 3035.438
540.8505, 3034.611
541.3326, 3033.324
541.8148, 3030.922
542.2969, 3028.099
542.7790, 3026.185
543.2611, 3025.087
543.7432, 3023.968
544.2253, 3021.300
544.7075, 3018.839
545.1896, 3019.086
545.6717, 3023.082
546.1538, 3025.770
546.6359, 3022.768
547.1180, 3017.972
547.6002, 3015.560
548.0823, 3019.263
548.5644, 3022.237
549.0465, 3023.038
549.5286, 3022.210
550.0107, 3021.358
550.4929, 3020.695
550.9750, 3019.625
551.4571, 3017.809
551.9392, 3015.219
552.4213, 3012.950
552.9034, 3010.984
553.3856, 3009.306
553.8677, 3007.821
554.3498, 3006.555
554.8319, 3006.157
555.3140, 3006.976
555.7961, 3007.609
556.2783, 3005.655
556.7604, 3001.993
557.2425, 2999.153
557.7246, 2998.767
558.2067, 2998.920
558.6888, 2997.753
559.1710, 2995.585
559.6531, 2993.443
560.1352, 2991.449
560.6173, 2989.990
561.0994, 2989.494
561.5815, 2990.110
562.0637, 2990.638
562.5458, 2991.827
563.0279, 2992.172
563.5100, 2990.470
563.9921, 2984.244
564.4742, 2980.345
564.9564, 2979.692
565.4385, 2980.751
565.9206, 2980.934
566.4027, 2979.981
566.8848, 2979.229
567.3669, 2978.950
567.8491, 2979.168
568.3312, 2980.518
568.8133, 2982.923
569.2954, 2984.453
569.7775, 2983.502
570.2596, 2980.940
570.7418, 2978.246
571.2239, 2975.494
571.7060, 2972.716
572.1881, 2969.230
572.6702, 2966.063
573.1523, 2964.548
573.6345, 2966.472
574.1166, 2967.484
574.5987, 2964.825
575.0808, 2960.441
575.5629, 2957.515
576.0450, 2958.851
576.5272, 2959.152
577.0093, 2957.094
577.4914, 2953.066
577.9735, 2949.387
578.4556, 2945.861
578.9377, 2943.219
579.4199, 2942.219
579.9020, 2942.949
580.3841, 2942.198
580.8662, 2939.636
581.3483, 2937.566
581.8304, 2939.028
582.3126, 2943.035
582.7947, 2946.319
583.2768, 2948.492
583.7589, 2949.116
584.2410, 2945.931
584.7231, 2940.963
585.2053, 2938.234
585.6874, 2941.638
586.1696, 2945.598
586.6517, 2947.360
587.1338, 2947.106
587.6159, 2945.966
588.0980, 2942.669
588.5801, 2939.819
589.0623, 2938.823
589.5444, 2940.064
590.0265, 2940.379
590.5086, 2939.416
590.9907, 2938.014
591.4728, 2937.015
591.9550, 2936.718
592.4371, 2935.163
592.9192, 2931.984
593.4013, 2928.297
593.8834, 2925.721
594.3655, 2924.171
594.8477, 2922.941
595.3298, 2922.180
595.8119, 2921.255
596.2940, 2918.701
596.7761, 2915.121
597.2582, 2912.457
597.7404, 2911.894
598.2225, 2912.423
598.7046, 2913.520
599.1867, 2915.094
599.6688, 2916.728
600.1509, 2918.703
600.6331, 2920.332
601.1152, 2921.281
601.5973, 2922.131
602.0794, 2920.682
602.5615, 2915.257
603.0436, 2909.148
603.5258, 2906.647
604.0079, 2908.734
604.4900, 2909.166
604.9721, 2906.545
605.4542, 2902.486
605.9363, 2900.065
606.4185, 2899.226
606.9006, 2899.009
607.3827, 2899.151
607.8648, 2899.621
608.3469, 2900.916
608.8290, 2902.753
609.3112, 2903.450
609.7933, 2901.629
610.2754, 2898.534
610.7575, 2894.588
611.2396, 2889.656
611.7217, 2885.763
612.2039, 2883.161
612.6860, 2881.985
613.1681, 2882.460
613.6502, 2886.568
614.1323, 2888.679
614.6144, 2888.158
615.0966, 2886.069
615.5787, 2883.688
616.0608, 2880.919
616.5429, 2878.747
617.0250, 2877.717
617.5071, 2877.125
617.9893, 2875.191
618.4714, 2872.099
618.9535, 2869.171
619.4356, 2866.667
619.9177, 2864.949
620.3998, 2864.798
620.8820, 2866.080
621.3641, 2867.453
621.8462, 2869.165
622.3283, 2869.993
622.8104, 2868.529
623.2925, 2863.663
623.7747, 2860.220
624.2568, 2859.041
624.7389, 2859.618
625.2210, 2861.959
625.7031, 2868.693
626.1852, 2870.985
626.6674, 2866.938
627.1495, 2859.859
627.6316, 2854.787
628.1137, 2851.743
628.5958, 2850.455
629.0779, 2851.634
629.5601, 2853.664
630.0422, 2853.147
630.5243, 2850.534
631.0064, 2847.822
631.4885, 2845.798
631.9706, 2844.462
632.4528, 2844.445
632.9349, 2845.559
633.4170, 2845.551
633.8991, 2841.447
634.3812, 2837.453
634.8633, 2836.534
635.3455, 2840.656
635.8276, 2842.417
636.3097, 2839.727
636.7918, 2836.363
637.2739, 2835.514
637.7560, 2837.665
638.2382, 2840.643
638.7203, 2844.973
639.2024, 2848.553
639.6845, 2847.001
640.1666, 2841.020
640.6487, 2836.750
641.1309, 2836.366
641.6130, 2837.973
642.0951, 2839.313
642.5772, 2840.502
643.0594, 2841.875
643.5415, 2845.638
644.0236, 2847.862
644.5057, 2844.993
644.9879, 2837.639
645.4700, 2831.994
645.9521, 2830.883
646.4342, 2830.629
646.9163, 2829.858
647.3984, 2828.694
647.8806, 2826.564
648.3627, 2823.401
648.8448, 2819.566
649.3269, 2814.874
649.8090, 2809.371
650.2911, 2805.096
650.7733, 2802.062
651.2554, 2800.722
651.7375, 2802.845
652.2196, 2807.008
652.7017, 2809.587
653.1838, 2808.864
653.6660, 2807.581
654.1481, 2808.091
654.6302, 2809.413
655.1123, 2809.845
655.5944, 2807.148
656.0765, 2805.132
656.5587, 2804.976
657.0408, 2806.437
657.5229, 2808.433
658.0050, 2811.260
658.4871, 2814.005
658.9692, 2816.758
659.4514, 2819.309
659.9335, 2819.229
660.4156, 2816.350
660.8977, 2812.286
661.3798, 2806.965
661.8619, 2801.516
662.3441, 2799.409
662.8262, 2800.941
663.3083, 2802.826
663.7904, 2802.903
664.2725, 2801.747
664.7546, 2799.845
665.2368, 2796.972
665.7189, 2794.382
666.2010, 2792.399
666.6831, 2790.999
667.1652, 2790.260
667.6473, 2791.790
668.1295, 2791.171
668.6116, 2786.715
669.0937, 2780.997
669.5758, 2779.434
670.0579, 2782.422
670.5400, 2785.594
671.0222, 2787.766
671.5043, 2789.176
671.9864, 2790.185
672.4685, 2790.832
672.9506, 2791.456
673.4327, 2792.735
673.9149, 2793.629
674.3970, 2793.032
674.8791, 2791.045
675.3612, 2788.752
675.8433, 2786.396
676.3254, 2783.977
676.8076, 2781.375
677.2897, 2778.483
677.7718, 2776.430
678.2539, 2775.583
678.7360, 2775.227
679.2181, 2775.110
679.7003, 2775.361
680.1824, 2774.633
680.6645, 2772.555
681.1466, 2771.060
681.6287, 2773.353
682.1108, 2777.914
682.5930, 2780.248
683.0751, 2779.011
683.5572, 2776.906
684.0393, 2775.827
684.5214, 2775.380
685.0035, 2775.013
685.4857, 2774.875
685.9678, 2774.334
686.4499, 2771.830
686.9320, 2768.993
687.4141, 2769.695
687.8962, 2777.356
688.3784, 2781.935
688.8605, 2780.289
689.3426, 2774.436
689.8247, 2771.395
690.3068, 2771.271
690.7889, 2771.217
691.2711, 2769.687
691.7532, 2767.391
692.2353, 2766.128
692.7174, 2765.644
693.1995, 2764.242
693.6816, 2759.121
694.1638, 2754.003
694.6459, 2752.567
695.1280, 2755.283
695.6101, 2756.181
696.0922, 2750.579
696.5743, 2745.565
697.0565, 2745.706
697.5386, 2753.431
698.0207, 2755.602
698.5028, 2750.170
698.9849, 2743.605
699.4670, 2742.403
699.9492, 2746.019
700.4313, 2748.705
700.9135, 2749.696
701.3956, 2750.154
701.8777, 2751.531
702.3598, 2753.119
702.8419, 2753.557
703.3240, 2751.574
703.8062, 2750.044
704.2883, 2751.122
704.7704, 2753.336
705.2525, 2754.548
705.7346, 2754.072
706.2167, 2752.985
706.6989, 2751.413
707.1810, 2749.334
707.6631, 2746.255
708.1452, 2741.865
708.6273, 2739.108
709.1094, 2739.641
709.5916, 2741.696
710.0737, 2740.360
710.5558, 2736.462
711.0379, 2734.146
711.5200, 2738.138
712.0021, 2742.793
712.4843, 2742.183
712.9664, 2737.294
713.4485, 2733.767
713.9306, 2734.962
714.4127, 2736.809
714.8948, 2737.531
715.3770, 2737.083
715.8591, 2736.445
716.3412, 2735.681
716.8233, 2734.613
717.3054, 2733.227
717.7875, 2731.516
718.2697, 2729.060
718.7518, 2725.810
719.2339, 2722.507
719.7160, 2719.135
720.1981, 2716.392
720.6802, 2716.028
721.1624, 2718.546
721.6445, 2720.094
722.1266, 2716.386
722.6087, 2711.879
723.0908, 2710.789
723.5729, 2717.122
724.0551, 2719.859
724.5372, 2716.524
725.0193, 2711.317
725.5014, 2708.371
725.9835, 2707.938
726.4656, 2708.467
726.9478, 2710.082
727.4299, 2711.880
727.9120, 2712.612
728.3941, 2712.456
728.8762, 2711.857
729.3583, 2710.649
729.8405, 2709.652
730.3226, 2709.347
730.8047, 2709.749
731.2868, 2710.889
731.7689, 2714.237
732.2510, 2716.600
732.7332, 2716.238
733.2153, 2714.637
733.6974, 2715.130
734.1795, 2719.214
734.6616, 2721.185
735.1437, 2719.143
735.6259, 2714.538
736.1080, 2711.110
736.5901, 2708.690
737.0722, 2705.788
737.5543, 2699.739
738.0364, 2694.298
738.5186, 2695.368
739.0007, 2701.145
739.4828, 2705.247
739.9649, 2705.030
740.4470, 2702.422
740.9291, 2697.106
741.4113, 2689.465
741.8934, 2683.665
742.3755, 2679.432
742.8576, 2677.722
743.3397, 2680.110
743.8218, 2685.750
744.3040, 2687.144
744.7861, 2684.223
745.2682, 2680.037
745.7503, 2675.582
746.2324, 2671.617
746.7145, 2670.267
747.1967, 2671.315
747.6788, 2671.191
748.1609, 2665.150
748.6430, 2659.375
749.1251, 2658.594
749.6072, 2664.652
750.0894, 2668.168
750.5715, 2667.416
751.0536, 2665.969
751.5357, 2666.599
752.0178, 2669.741
752.4999, 2669.191
752.9821, 2664.486
753.4642, 2659.163
753.9463, 2656.118
754.4284, 2655.001
754.9105, 2655.563
755.3926, 2657.950
755.8748, 2659.995
756.3569, 2660.188
756.8390, 2659.439
757.3211, 2658.501
757.8032, 2657.294
758.2853, 2656.246
758.7675, 2654.984
759.2496, 2654.230
759.7318, 2655.119
760.2139, 2658.118
760.6960, 2659.004
761.1781, 2657.149
761.6602, 2654.269
762.1423, 2652.152
762.6245, 2650.692
763.1066, 2649.771
763.5887, 2649.656
764.0708, 2649.167
764.5529, 2646.930
765.0350, 2644.094
765.5172, 2642.010
765.9993, 2642.162
766.4814, 2641.330
766.9635, 2638.131
767.4456, 2634.728
767.9277, 2634.208
768.4099, 2637.003
768.8920, 2639.827
769.3741, 2642.554
769.8562, 2644.079
770.3383, 2641.728
770.8204, 2636.876
771.3026, 2633.320
771.7847, 2632.741
772.2668, 2632.878
772.7489, 2632.521
773.2310, 2631.852
773.7131, 2631.144
774.1953, 2631.752
774.6774, 2630.613
775.1595, 2626.234
775.6416, 2620.738
776.1237, 2618.241
776.6058, 2619.137
777.0880, 2619.939
777.5701, 2619.638
778.0522, 2619.123
778.5343, 2620.250
779.0164, 2622.410
779.4985, 2623.849
779.9807, 2623.000
780.4628, 2622.172
780.9449, 2623.756
781.4270, 2626.241
781.9091, 2626.531
782.3912, 2621.299
782.8734, 2617.281
783.3555, 2615.963
783.8376, 2616.184
784.3197, 2614.766
784.8018, 2611.489
785.2839, 2609.540
785.7661, 2610.729
786.2482, 2612.601
786.7303, 2610.198
787.2124, 2604.983
787.6945, 2601.058
788.1766, 2601.910
788.6588, 2602.945
789.1409, 2600.629
789.6230, 2596.625
790.1051, 2595.873
790.5872, 2602.745
791.0693, 2606.618
791.5515, 2604.319
792.0336, 2598.231
792.5157, 2595.494
792.9978, 2596.137
793.4799, 2596.426
793.9620, 2594.548
794.4442, 2592.092
794.9263, 2591.368
795.4084, 2591.982
795.8905, 2592.814
796.3726, 2593.913
796.8547, 2594.509
797.3369, 2593.430
797.8190, 2591.485
798.3011, 2591.615
798.7832, 2595.498
799.2653, 2598.045
799.7474, 2597.794
800.2296, 2595.527
800.7117, 2592.802
801.1938, 2589.773
801.6759, 2588.324
802.1580, 2590.738
802.6401, 2593.544
803.1223, 2592.538
803.6044, 2588.724
804.0865, 2584.724
804.5686, 2581.017
805.0507, 2577.894
805.5328, 2575.490
806.0150, 2573.780
806.4971, 2572.750
806.9792, 2572.577
807.4613, 2572.699
807.9434, 2573.303
808.4255, 2573.720
808.9077, 2571.962
809.3898, 2568.471
809.8719, 2565.277
810.3540, 2562.750
810.8361, 2561.356
811.3182, 2562.149
811.8004, 2564.300
812.2825, 2565.882
812.7646, 2566.161
813.2467, 2566.083
813.7288, 2565.870
814.2109, 2565.434
814.6931, 2564.437
815.1752, 2562.815
815.6573, 2561.481
816.1394, 2560.860
816.6215, 2560.448
817.1037, 2559.159
817.5858, 2557.380
818.0679, 2556.070
818.5500, 2555.386
819.0322, 2555.521
819.5143, 2557.526
819.9964, 2560.238
820.4785, 2561.166
820.9606, 2559.658
821.4427, 2557.219
821.9249, 2553.577
822.4070, 2549.558
822.8891, 2546.952
823.3712, 2545.673
823.8533, 2544.836
824.3354, 2544.345
824.8176, 2543.915
825.2997, 2543.279
825.7818, 2542.513
826.2639, 2541.744
826.7460, 2541.485
827.2281, 2540.712
827.7103, 2538.803
828.1924, 2536.446
828.6745, 2534.388
829.1566, 2532.523
829.6387, 2531.478
830.1208, 2531.501
830.6030, 2531.932
831.0851, 2531.687
831.5672, 2531.010
832.0493, 2530.780
832.5314, 2531.623
833.0135, 2531.846
833.4957, 2529.025
833.9778, 2525.487
834.4599, 2523.937
834.9420, 2528.802
835.4241, 2529.927
835.9063, 2525.618
836.3884, 2519.669
836.8705, 2516.737
837.3526, 2516.750
837.8347, 2516.267
838.3168, 2514.788
838.7990, 2513.214
839.2811, 2511.919
839.7632, 2511.315
840.2453, 2512.327
840.7274, 2515.891
841.2095, 2518.336
841.6917, 2517.283
842.1738, 2515.362
842.6559, 2514.908
843.1380, 2517.090
843.6201, 2516.002
844.1022, 2510.781
844.5844, 2505.258
845.0665, 2503.298
845.5486, 2503.867
846.0307, 2504.278
846.5128, 2504.308
846.9949, 2504.170
847.4771, 2504.159
847.9592, 2503.961
848.4413, 2503.363
848.9234, 2502.327
849.4055, 2500.746
849.8876, 2498.030
850.3698, 2495.716
850.8519, 2494.902
851.3340, 2495.425
851.8161, 2495.421
852.2982, 2494.874
852.7803, 2494.294
853.2625, 2494.267
853.7446, 2494.237
854.2267, 2493.476
854.7088, 2492.024
855.1909, 2490.717
855.6730, 2490.617
856.1552, 2489.892
856.6373, 2487.456
857.1194, 2483.692
857.6015, 2481.715
858.0836, 2481.773
858.5657, 2481.817
859.0479, 2480.595
859.5300, 2478.953
860.0121, 2478.627
860.4942, 2479.344
860.9763, 2480.135
861.4584, 2481.116
861.9406, 2481.444
862.4227, 2480.445
862.9048, 2478.406
863.3869, 2476.373
863.8690, 2473.931
864.3511, 2472.526
864.8333, 2472.781
865.3154, 2473.833
865.7975, 2473.524
866.2796, 2472.286
866.7617, 2472.229
867.2438, 2475.295
867.7260, 2477.673
868.2081, 2474.827
868.6902, 2469.856
869.1723, 2467.564
869.6544, 2471.455
870.1365, 2474.662
870.6187, 2477.305
871.1008, 2478.616
871.5829, 2476.762
872.0650, 2471.966
872.5471, 2468.536
873.0292, 2467.235
873.5114, 2466.904
873.9935, 2466.466
874.4756, 2466.255
874.9577, 2466.943
875.4399, 2469.312
875.9220, 2470.506
876.4041, 2469.274
876.8862, 2467.059
877.3683, 2464.603
877.8505, 2461.830
878.3326, 2459.004
878.8147, 2456.002
879.2968, 2453.714
879.7789, 2453.632
880.2610, 2454.499
880.7432, 2454.161
881.2253, 2452.518
881.7074, 2450.872
882.1895, 2449.651
882.6716, 2448.792
883.1537, 2448.703
883.6359, 2449.286
884.1180, 2448.042
884.6001, 2444.517
885.0822, 2441.147
885.5643, 2439.237
886.0464, 2438.238
886.5286, 2436.682
887.0107, 2434.802
887.4928, 2433.518
887.9749, 2433.761
888.4570, 2434.286
888.9391, 2434.914
889.4213, 2435.306
889.9034, 2434.373
890.3855, 2431.107
890.8676, 2429.059
891.3497, 2429.533
891.8318, 2430.702
892.3140, 2428.339
892.7961, 2423.477
893.2782, 2420.281
893.7603, 2420.423
894.2424, 2421.606
894.7245, 2422.934
895.2067, 2423.974
895.6888, 2424.200
896.1709, 2423.755
896.6530, 2421.751
897.1351, 2416.879
897.6172, 2412.532
898.0994, 2413.826
898.5815, 2419.561
899.0636, 2419.878
899.5457, 2413.552
900.0278, 2407.626
900.5099, 2409.112
900.9921, 2412.844
901.4742, 2414.013
901.9563, 2411.727
902.4384, 2409.405
902.9205, 2406.641
903.4026, 2405.149
903.8848, 2406.313
904.3669, 2409.644
904.8490, 2411.630
905.3311, 2412.206
905.8132, 2410.395
906.2953, 2401.953
906.7775, 2393.616
907.2596, 2393.435
907.7417, 2399.258
908.2238, 2403.305
908.7059, 2402.009
909.1880, 2400.393
909.6702, 2399.589
910.1523, 2399.060
910.6344, 2397.042
911.1165, 2393.604
911.5986, 2391.922
912.0807, 2393.552
912.5629, 2395.573
913.0450, 2395.024
913.5271, 2392.558
914.0092, 2388.828
914.4913, 2381.490
914.9734, 2377.792
915.4556, 2381.371
915.9377, 2386.462
916.4198, 2387.746
916.9019, 2384.970
917.3840, 2382.663
917.8661, 2381.021
918.3483, 2380.116
918.8304, 2380.702
919.3125, 2381.656
919.7946, 2381.481
920.2767, 2380.024
920.7589, 2378.609
921.2410, 2377.697
921.7231, 2376.872
922.2052, 2376.083
922.6873, 2375.261
923.1694, 2373.430
923.6516, 2370.532
924.1337, 2368.687
924.6158, 2369.664
925.0979, 2371.630
925.5800, 2371.938
926.0621, 2371.282
926.5443, 2371.423
927.0264, 2375.265
927.5085, 2376.977
927.9906, 2374.789
928.4727, 2370.420
928.9548, 2366.209
929.4370, 2362.128
929.9191, 2359.923
930.4012, 2360.118
930.8833, 2361.467
931.3654, 2363.824
931.8475, 2365.929
932.3297, 2365.643
932.8118, 2361.524
933.2939, 2358.789
933.7761, 2359.554
934.2582, 2361.098
934.7403, 2362.170
935.2224, 2362.774
935.7045, 2361.592
936.1866, 2358.548
936.6688, 2355.234
937.1509, 2353.069
937.6330, 2351.052
938.1151, 2347.434
938.5972, 2342.719
939.0793, 2339.657
939.5615, 2342.375
940.0436, 2342.707
940.5257, 2337.653
941.0078, 2329.554
941.4899, 2324.885
941.9720, 2323.538
942.4542, 2322.473
942.9363, 2320.806
943.4184, 2319.055
943.9005, 2317.463
944.3826, 2316.222
944.8647, 2315.549
945.3469, 2315.352
945.8290, 2316.043
946.3111, 2318.148
946.7932, 2320.378
947.2753, 2321.717
947.7574, 2322.185
948.2396, 2321.638
948.7217, 2320.077
949.2038, 2319.132
949.6859, 2320.558
950.1680, 2322.856
950.6501, 2325.031
951.1323, 2326.977
951.6144, 2327.970
952.0965, 2326.798
952.5786, 2326.735
953.0607, 2329.276
953.5428, 2333.258
954.0250, 2335.141
954.5071, 2335.176
954.9892, 2334.847
955.4713, 2334.329
955.9534, 2334.255
956.4355, 2334.946
956.9177, 2336.418
957.3998, 2338.851
957.8819, 2344.154
958.3640, 2346.421
958.8461, 2344.286
959.3282, 2341.672
959.8104, 2342.771
960.2925, 2346.862
960.7746, 2352.025
961.2567, 2358.108
961.7388, 2363.441
962.2209, 2367.200
962.7031, 2369.707
963.1852, 2370.164
963.6673, 2368.838
964.1494, 2370.683
964.6315, 2376.653
965.1136, 2382.409
965.5958, 2386.590
966.0779, 2389.197
966.5600, 2389.170
967.0421, 2387.603
967.5242, 2387.581
968.0063, 2392.758
968.4885, 2396.321
968.9706, 2393.907
969.4527, 2389.520
969.9348, 2387.980
970.4169, 2389.781
970.8990, 2392.394
971.3812, 2395.825
971.8633, 2399.157
972.3454, 2401.460
972.8275, 2403.022
973.3096, 2403.989
973.7917, 2404.385
974.2739, 2405.424
974.7560, 2407.247
975.2381, 2410.107
975.7202, 2413.934
976.2023, 2418.858
976.6844, 2426.098
977.1666, 2435.686
977.6487, 2444.672
978.1308, 2450.755
978.6129, 2457.355
979.0950, 2468.326
979.5771, 2482.311
980.0593, 2497.119
980.5414, 2511.160
981.0235, 2527.687
981.5056, 2547.508
981.9877, 2569.042
982.4698, 2590.642
982.9520, 2612.657
983.4341, 2638.444
983.9162, 2668.126
984.3983, 2696.496
984.8804, 2722.175
985.3625, 2743.222
985.8447, 2758.668
986.3268, 2767.945
986.8089, 2769.772
987.2910, 2764.948
987.7731, 2750.200
988.2552, 2723.142
988.7374, 2687.284
989.2195, 2646.714
989.7016, 2603.720
990.1837, 2564.729
990.6658, 2532.944
991.1479, 2503.392
991.6301, 2473.522
992.1122, 2445.355
992.5944, 2420.475
993.0765, 2399.389
993.5586, 2381.019
994.0407, 2365.370
994.5228, 2352.174
995.0049, 2341.730
995.4871, 2333.302
995.9692, 2325.791
996.4513, 2319.179
996.9334, 2313.962
997.4155, 2311.528
997.8976, 2309.043
998.3798, 2305.915
998.8619, 2302.263
999.3440, 2298.164
999.8261, 2293.652
1000.308, 2289.285
1000.790, 2285.243
1001.272, 2281.252
1001.755, 2276.588
1002.237, 2272.070
1002.719, 2268.727
1003.201, 2267.091
1003.683, 2265.251
1004.165, 2263.092
1004.647, 2261.028
1005.129, 2259.094
1005.612, 2257.505
1006.094, 2257.001
1006.576, 2257.435
1007.058, 2258.033
1007.540, 2259.591
1008.022, 2259.947
1008.504, 2257.405
1008.986, 2253.397
1009.468, 2249.991
1009.951, 2247.112
1010.433, 2245.754
1010.915, 2246.257
1011.397, 2247.256
1011.879, 2247.823
1012.361, 2247.616
1012.843, 2245.760
1013.325, 2241.802
1013.807, 2239.102
1014.290, 2239.269
1014.772, 2239.222
1015.254, 2237.851
1015.736, 2235.170
1016.218, 2230.260
1016.700, 2223.684
1017.182, 2218.726
1017.664, 2217.560
1018.147, 2217.511
1018.629, 2217.931
1019.111, 2217.976
1019.593, 2216.096
1020.075, 2210.868
1020.557, 2208.450
1021.039, 2209.758
1021.521, 2211.282
1022.003, 2209.431
1022.486, 2205.597
1022.968, 2201.612
1023.450, 2197.772
1023.932, 2195.687
1024.414, 2199.100
1024.896, 2200.594
1025.378, 2196.646
1025.860, 2189.742
1026.343, 2187.060
1026.825, 2188.403
1027.307, 2190.746
1027.789, 2193.677
1028.271, 2196.056
1028.753, 2196.905
1029.235, 2196.612
1029.717, 2195.376
1030.199, 2192.664
1030.682, 2191.087
1031.164, 2190.876
1031.646, 2191.111
1032.128, 2191.027
1032.610, 2191.039
1033.092, 2192.860
1033.574, 2195.856
1034.056, 2197.628
1034.539, 2195.868
1035.021, 2194.204
1035.503, 2194.240
1035.985, 2194.655
1036.467, 2193.332
1036.949, 2190.204
1037.431, 2188.677
1037.913, 2189.323
1038.396, 2189.615
1038.878, 2186.397
1039.360, 2182.400
1039.842, 2180.419
1040.324, 2180.692
1040.806, 2180.074
1041.288, 2178.088
1041.770, 2175.810
1042.252, 2173.115
1042.734, 2170.913
1043.217, 2171.553
1043.699, 2174.171
1044.181, 2176.584
1044.663, 2178.459
1045.145, 2179.321
1045.627, 2178.307
1046.109, 2176.738
1046.591, 2175.242
1047.074, 2173.747
1047.556, 2174.819
1048.038, 2178.479
1048.520, 2181.793
1049.002, 2182.087
1049.484, 2181.799
1049.966, 2183.047
1050.448, 2185.431
1050.931, 2187.833
1051.413, 2190.758
1051.895, 2192.046
1052.377, 2190.824
1052.859, 2189.484
1053.341, 2191.829
1053.823, 2196.057
1054.305, 2197.479
1054.787, 2195.545
1055.270, 2195.267
1055.752, 2201.864
1056.234, 2207.272
1056.716, 2207.585
1057.198, 2204.208
1057.680, 2202.695
1058.162, 2202.885
1058.644, 2202.205
1059.126, 2199.181
1059.609, 2196.643
1060.091, 2199.315
1060.573, 2202.669
1061.055, 2200.793
1061.537, 2190.907
1062.019, 2185.328
1062.501, 2184.894
1062.983, 2185.805
1063.466, 2187.161
1063.948, 2187.402
1064.430, 2181.835
1064.912, 2172.546
1065.394, 2165.724
1065.876, 2167.147
1066.358, 2166.625
1066.840, 2161.220
1067.323, 2154.657
1067.805, 2151.489
1068.287, 2151.322
1068.769, 2152.066
1069.251, 2153.500
1069.733, 2154.345
1070.215, 2153.751
1070.697, 2152.137
1071.179, 2149.174
1071.661, 2145.315
1072.144, 2142.842
1072.626, 2142.197
1073.108, 2139.635
1073.590, 2133.496
1074.072, 2127.360
1074.554, 2126.905
1075.036, 2128.746
1075.518, 2128.190
1076.001, 2123.711
1076.483, 2120.448
1076.965, 2119.273
1077.447, 2118.501
1077.929, 2117.401
1078.411, 2116.039
1078.893, 2114.031
1079.375, 2111.842
1079.858, 2111.089
1080.340, 2114.725
1080.822, 2116.528
1081.304, 2112.903
1081.786, 2107.424
1082.268, 2103.046
1082.750, 2099.797
1083.232, 2096.532
1083.714, 2093.209
1084.197, 2091.078
1084.679, 2092.761
1085.161, 2094.416
1085.643, 2092.813
1086.125, 2088.801
1086.607, 2085.336
1087.089, 2082.454
1087.571, 2080.551
1088.054, 2079.812
1088.536, 2079.663
1089.018, 2079.965
1089.500, 2080.139
1089.982, 2079.160
1090.464, 2076.889
1090.946, 2074.707
1091.428, 2072.472
1091.911, 2070.994
1092.393, 2070.719
1092.875, 2071.119
1093.357, 2071.733
1093.839, 2071.980
1094.321, 2069.549
1094.803, 2062.509
1095.285, 2056.970
1095.767, 2057.229
1096.250, 2058.848
1096.732, 2058.675
1097.214, 2056.890
1097.696, 2057.668
1098.178, 2060.825
1098.660, 2062.399
1099.142, 2058.572
1099.624, 2054.530
1100.106, 2055.024
1100.589, 2057.588
1101.071, 2058.222
1101.553, 2056.095
1102.035, 2054.354
1102.517, 2053.135
1102.999, 2051.827
1103.481, 2049.447
1103.963, 2046.987
1104.446, 2045.958
1104.928, 2046.093
1105.410, 2046.146
1105.892, 2045.989
1106.374, 2045.312
1106.856, 2043.755
1107.338, 2042.200
1107.820, 2041.635
1108.302, 2042.034
1108.785, 2044.256
1109.267, 2048.353
1109.749, 2049.841
1110.231, 2043.216
1110.713, 2037.896
1111.195, 2037.948
1111.677, 2041.261
1112.159, 2042.119
1112.641, 2040.818
1113.124, 2039.029
1113.606, 2037.098
1114.088, 2035.088
1114.570, 2032.539
1115.052, 2030.374
1115.534, 2029.531
1116.016, 2029.935
1116.498, 2029.669
1116.981, 2028.691
1117.463, 2028.384
1117.945, 2030.272
1118.427, 2031.588
1118.909, 2028.233
1119.391, 2023.094
1119.873, 2020.462
1120.355, 2021.831
1120.838, 2022.386
1121.320, 2022.027
1121.802, 2021.182
1122.284, 2019.918
1122.766, 2018.500
1123.248, 2017.347
1123.730, 2016.362
1124.212, 2015.262
1124.694, 2013.337
1125.177, 2012.492
1125.659, 2013.473
1126.141, 2014.405
1126.623, 2012.372
1127.105, 2008.944
1127.587, 2008.906
1128.069, 2011.964
1128.551, 2014.085
1129.033, 2013.864
1129.516, 2011.629
1129.998, 2006.195
1130.480, 2000.282
1130.962, 1999.400
1131.444, 2002.355
1131.926, 2002.562
1132.408, 1998.982
1132.890, 1995.541
1133.373, 1993.631
1133.855, 1993.833
1134.337, 1998.051
1134.819, 2004.276
1135.301, 2004.769
1135.783, 1999.767
1136.265, 1995.510
1136.747, 1993.761
1137.229, 1992.515
1137.712, 1989.791
1138.194, 1986.980
1138.676, 1985.385
1139.158, 1984.996
1139.640, 1985.133
1140.122, 1985.924
1140.604, 1985.723
1141.086, 1983.057
1141.569, 1980.560
1142.051, 1982.313
1142.533, 1985.511
1143.015, 1986.232
1143.497, 1983.090
1143.979, 1979.867
1144.461, 1976.090
1144.943, 1974.243
1145.426, 1977.823
1145.908, 1982.610
1146.390, 1980.856
1146.872, 1975.192
1147.354, 1971.115
1147.836, 1971.000
1148.318, 1971.591
1148.800, 1973.164
1149.282, 1974.571
1149.765, 1975.303
1150.247, 1975.013
1150.729, 1972.260
1151.211, 1967.622
1151.693, 1963.449
1152.175, 1961.403
1152.657, 1958.781
1153.139, 1954.486
1153.621, 1950.534
1154.104, 1949.735
1154.586, 1951.231
1155.068, 1952.574
1155.550, 1953.499
1156.032, 1953.182
1156.514, 1949.221
1156.996, 1946.472
1157.478, 1946.772
1157.961, 1948.671
1158.443, 1949.480
1158.925, 1949.503
1159.407, 1951.034
1159.889, 1954.453
1160.371, 1956.465
1160.853, 1953.984
1161.335, 1950.615
1161.818, 1947.908
1162.300, 1945.861
1162.782, 1944.535
1163.264, 1943.892
1163.746, 1943.639
1164.228, 1943.838
1164.710, 1943.586
1165.192, 1941.656
1165.674, 1939.535
1166.156, 1938.364
1166.639, 1938.028
1167.121, 1937.918
1167.603, 1938.046
1168.085, 1937.763
1168.567, 1937.052
1169.049, 1935.361
1169.531, 1930.452
1170.013, 1925.541
1170.496, 1924.401
1170.978, 1927.100
1171.460, 1928.131
1171.942, 1927.385
1172.424, 1926.801
1172.906, 1927.610
1173.388, 1928.245
1173.870, 1926.776
1174.353, 1924.355
1174.835, 1922.290
1175.317, 1920.366
1175.799, 1921.073
1176.281, 1924.956
1176.763, 1927.220
1177.245, 1923.983
1177.727, 1919.066
1178.209, 1916.160
1178.692, 1914.848
1179.174, 1914.560
1179.656, 1915.846
1180.138, 1916.234
1180.620, 1915.589
1181.102, 1914.655
1181.584, 1913.645
1182.066, 1912.878
1182.548, 1913.286
1183.031, 1914.176
1183.513, 1913.840
1183.995, 1911.160
1184.477, 1909.500
1184.959, 1909.365
1185.441, 1908.802
1185.923, 1904.846
1186.405, 1900.288
1186.888, 1899.706
1187.370, 1902.033
1187.852, 1903.177
1188.334, 1902.218
1188.816, 1900.152
1189.298, 1896.610
1189.780, 1893.504
1190.262, 1892.976
1190.745, 1894.056
1191.227, 1896.351
1191.709, 1899.177
1192.191, 1899.139
1192.673, 1892.750
1193.155, 1889.338
1193.637, 1890.935
1194.119, 1893.646
1194.601, 1892.523
1195.084, 1889.573
1195.566, 1888.118
1196.048, 1888.248
1196.530, 1887.872
1197.012, 1886.102
1197.494, 1884.887
1197.976, 1884.891
1198.458, 1884.843
1198.941, 1882.069
1199.423, 1878.399
1199.905, 1877.405
1200.387, 1879.363
1200.869, 1880.543
1201.351, 1880.031
1201.833, 1879.157
1202.315, 1878.367
1202.797, 1877.101
1203.280, 1873.423
1203.762, 1869.096
1204.244, 1867.663
1204.726, 1869.846
1205.208, 1870.885
1205.690, 1869.807
1206.172, 1867.809
1206.654, 1864.701
1207.136, 1861.814
1207.619, 1862.000
1208.101, 1863.844
1208.583, 1864.760
1209.065, 1864.088
1209.547, 1864.189
1210.029, 1866.378
1210.511, 1867.092
1210.993, 1864.601
1211.476, 1860.621
1211.958, 1857.405
1212.440, 1855.258
1212.922, 1855.257
1213.404, 1858.297
1213.886, 1859.552
1214.368, 1857.737
1214.850, 1856.181
1215.333, 1856.625
1215.815, 1857.613
1216.297, 1856.193
1216.779, 1853.458
1217.261, 1851.247
1217.743, 1849.840
1218.225, 1849.786
1218.707, 1852.053
1219.189, 1852.978
1219.672, 1850.222
1220.154, 1845.911
1220.636, 1843.662
1221.118, 1842.799
1221.600, 1842.073
1222.082, 1840.953
1222.564, 1841.095
1223.046, 1843.170
1223.528, 1844.688
1224.011, 1844.506
1224.493, 1842.824
1224.975, 1838.340
1225.457, 1833.158
1225.939, 1831.104
1226.421, 1834.769
1226.903, 1837.143
1227.385, 1838.249
1227.868, 1837.684
1228.350, 1834.237
1228.832, 1830.070
1229.314, 1828.646
1229.796, 1828.830
1230.278, 1828.659
1230.760, 1827.214
1231.242, 1827.405
1231.724, 1829.782
1232.207, 1831.141
1232.689, 1829.026
1233.171, 1825.438
1233.653, 1822.156
1234.135, 1819.504
1234.617, 1818.146
1235.099, 1818.662
1235.581, 1818.707
1236.063, 1818.242
1236.546, 1817.778
1237.028, 1818.077
1237.510, 1818.111
1237.992, 1816.274
1238.474, 1813.630
1238.956, 1812.038
1239.438, 1811.889
1239.920, 1811.371
1240.403, 1810.451
1240.885, 1809.610
1241.367, 1809.718
1241.849, 1809.411
1242.331, 1806.125
1242.813, 1807.066
1243.295, 1801.994
1243.777, 1806.286
1244.260, 1807.768
1244.742, 1806.451
1245.224, 1804.343
1245.706, 1801.456
1246.188, 1799.552
1246.670, 1801.408
1247.152, 1804.044
1247.634, 1802.870
1248.116, 1797.352
1248.599, 1796.760
1249.081, 1800.784
1249.563, 1803.892
1250.045, 1801.432
1250.527, 1798.720
1251.009, 1799.239
1251.491, 1800.410
1251.973, 1799.485
1252.455, 1796.557
1252.938, 1793.771
1253.420, 1791.184
1253.902, 1789.054
1254.384, 1787.994
1254.866, 1786.797
1255.348, 1784.455
1255.830, 1782.382
1256.313, 1781.882
1256.795, 1782.828
1257.277, 1785.073
1257.759, 1788.173
1258.241, 1789.910
1258.723, 1788.111
1259.205, 1786.486
1259.687, 1785.995
1260.169, 1785.554
1260.651, 1783.728
1261.134, 1781.260
1261.616, 1780.755
1262.098, 1781.778
1262.580, 1782.760
1263.062, 1783.738
1263.544, 1783.518
1264.026, 1781.839
1264.508, 1779.415
1264.991, 1776.472
1265.473, 1773.440
1265.955, 1770.676
1266.437, 1768.537
1266.919, 1767.960
1267.401, 1770.863
1267.883, 1772.233
1268.365, 1771.731
1268.848, 1770.846
1269.330, 1771.121
1269.812, 1771.380
1270.294, 1769.560
1270.776, 1766.646
1271.258, 1764.951
1271.740, 1765.253
1272.222, 1764.384
1272.704, 1762.078
1273.187, 1760.512
1273.669, 1762.156
1274.151, 1764.211
1274.633, 1764.562
1275.115, 1763.472
1275.597, 1761.259
1276.079, 1757.609
1276.561, 1755.755
1277.043, 1755.674
1277.526, 1755.446
1278.008, 1753.007
1278.490, 1751.185
1278.972, 1753.128
1279.454, 1755.491
1279.936, 1754.498
1280.418, 1750.321
1280.900, 1747.426
1281.383, 1745.710
1281.865, 1744.499
1282.347, 1743.227
1282.829, 1742.694
1283.311, 1744.011
1283.793, 1745.059
1284.275, 1743.424
1284.757, 1744.683
1285.240, 1741.123
1285.722, 1744.787
1286.204, 1747.232
1286.686, 1746.820
1287.168, 1745.066
1287.650, 1741.540
1288.132, 1738.488
1288.614, 1737.674
1289.096, 1738.295
1289.578, 1739.451
1290.061, 1740.574
1290.543, 1740.470
1291.025, 1738.495
1291.507, 1735.518
1291.989, 1731.001
1292.471, 1727.880
1292.953, 1728.197
1293.435, 1730.284
1293.918, 1733.384
1294.400, 1736.348
1294.882, 1737.599
1295.364, 1737.249
1295.846, 1734.083
1296.328, 1728.077
1296.810, 1722.872
1297.292, 1719.929
1297.775, 1718.497
1298.257, 1719.686
1298.739, 1721.144
1299.221, 1720.521
1299.703, 1718.044
1300.185, 1716.155
1300.667, 1714.829
1301.149, 1713.748
1301.631, 1712.671
1302.114, 1711.509
1302.596, 1712.183
##END=



