##NAMES=Sodalite
##RRUFFID=R060436
##IDEAL CHEMISTRY=Na_4_Si_3_Al_3_O_12_Cl
##LOCALITY=Koksha Valley, Budakshan Province, Afghanistan
##OWNER=RRUFF
##SOURCE=Herb Obodda
##DESCRIPTION=Pale blue fragment
##STATUS=The identification of this mineral has been confirmed by X-ray diffraction and chemical analysis
##URL=rruff.info/R060436
##MEASURED CHEMISTRY=(Na_0.99_K_0.01_)_8_Al_6.00_Si_6.00_O_24_Cl_2.00_
134.4781, 181.4871
134.9602, 180.4990
135.4423, 180.2147
135.9244, 180.3436
136.4065, 180.5239
136.8886, 180.5278
137.3708, 180.3759
137.8529, 180.3599
138.3350, 180.6639
138.8171, 180.9284
139.2992, 181.1158
139.7813, 181.1994
140.2635, 181.0981
140.7456, 180.6781
141.2277, 179.8325
141.7098, 179.7792
142.1919, 180.7578
142.6740, 182.1364
143.1561, 183.6189
143.6383, 185.1682
144.1204, 186.8967
144.6025, 188.9750
145.0846, 191.4795
145.5667, 193.8071
146.0488, 196.2591
146.5310, 198.3723
147.0131, 199.6165
147.4952, 199.8611
147.9773, 199.4369
148.4594, 198.3878
148.9415, 196.8351
149.4237, 195.4464
149.9058, 194.5183
150.3879, 193.9422
150.8700, 193.3502
151.3521, 192.3561
151.8342, 191.8577
152.3164, 192.5745
152.7985, 194.4010
153.2806, 196.5769
153.7627, 198.5842
154.2448, 200.4228
154.7269, 202.2920
155.2091, 203.8199
155.6912, 205.7147
156.1733, 208.3388
156.6554, 211.7320
157.1375, 215.6918
157.6196, 219.8615
158.1018, 223.9013
158.5839, 229.2578
159.0660, 236.6155
159.5481, 244.7039
160.0302, 252.5543
160.5123, 259.9975
160.9945, 267.7521
161.4766, 277.1143
161.9587, 290.1599
162.4408, 301.8744
162.9229, 312.4687
163.4050, 321.7126
163.8871, 329.6449
164.3693, 336.2914
164.8514, 341.0427
165.3335, 342.2116
165.8156, 338.4692
166.2977, 333.0086
166.7798, 325.6694
167.2620, 316.8555
167.7441, 307.0005
168.2262, 296.1428
168.7083, 284.6981
169.1904, 273.8764
169.6725, 263.3224
170.1547, 253.7477
170.6368, 245.5760
171.1189, 238.6727
171.6010, 232.5776
172.0831, 227.0630
172.5652, 222.4061
173.0474, 218.7427
173.5295, 216.3109
174.0116, 214.4172
174.4937, 212.8153
174.9758, 211.5014
175.4579, 209.7918
175.9401, 206.9600
176.4222, 203.7709
176.9043, 201.0889
177.3864, 199.1469
177.8685, 197.5272
178.3506, 195.6955
178.8328, 193.5909
179.3149, 191.4771
179.7970, 189.2290
180.2791, 187.1015
180.7612, 185.4771
181.2433, 184.5696
181.7255, 183.8964
182.2076, 182.2990
182.6897, 178.9715
183.1718, 176.2026
183.6539, 174.6847
184.1360, 173.7675
184.6181, 172.7875
185.1003, 171.4131
185.5824, 169.8185
186.0645, 168.6511
186.5466, 168.4644
187.0287, 168.0410
187.5108, 166.9824
187.9930, 165.6687
188.4751, 164.6176
188.9572, 164.1377
189.4393, 164.0993
189.9214, 163.7814
190.4035, 162.6169
190.8857, 161.8051
191.3678, 161.8912
191.8499, 162.4626
192.3320, 162.7541
192.8141, 162.2597
193.2962, 161.1315
193.7784, 160.5644
194.2605, 161.0247
194.7426, 161.4050
195.2247, 161.2611
195.7068, 160.7178
196.1889, 160.1693
196.6711, 159.8724
197.1532, 159.7522
197.6353, 159.4247
198.1174, 158.4537
198.5995, 157.6859
199.0816, 157.7784
199.5638, 158.6059
200.0459, 159.3189
200.5280, 159.3772
201.0101, 158.9544
201.4922, 158.6459
201.9743, 158.3877
202.4565, 158.3325
202.9386, 158.7859
203.4207, 159.7701
203.9028, 160.5086
204.3849, 160.1500
204.8670, 159.4379
205.3492, 159.5538
205.8313, 161.2229
206.3134, 163.1264
206.7955, 163.4258
207.2776, 161.7595
207.7597, 160.1706
208.2419, 159.6374
208.7240, 159.6410
209.2061, 159.7897
209.6882, 160.0091
210.1703, 160.2159
210.6524, 160.1887
211.1346, 159.7202
211.6167, 159.5688
212.0988, 160.1110
212.5809, 160.9853
213.0630, 161.9283
213.5451, 162.8616
214.0273, 163.6840
214.5094, 164.1006
214.9915, 163.7485
215.4736, 163.6505
215.9557, 164.3976
216.4378, 165.2891
216.9200, 165.4869
217.4021, 164.5907
217.8842, 163.1460
218.3663, 162.7173
218.8484, 164.1392
219.3305, 165.4530
219.8127, 166.5307
220.2948, 167.3563
220.7769, 167.8431
221.2590, 167.9509
221.7411, 167.8623
222.2232, 168.1171
222.7054, 168.9770
223.1875, 169.9111
223.6696, 170.8486
224.1517, 171.8573
224.6338, 172.9633
225.1159, 174.1796
225.5980, 175.5863
226.0802, 177.4329
226.5623, 180.8415
227.0444, 183.3353
227.5265, 183.9352
228.0086, 183.7444
228.4907, 184.2416
228.9729, 186.0756
229.4550, 188.6649
229.9371, 190.4611
230.4192, 190.7759
230.9013, 191.4250
231.3834, 193.0112
231.8656, 195.0222
232.3477, 196.7805
232.8298, 198.0608
233.3119, 198.8423
233.7940, 198.8828
234.2761, 197.7611
234.7583, 197.0855
235.2404, 197.3499
235.7225, 198.3060
236.2046, 199.6864
236.6867, 201.5748
237.1688, 203.4372
237.6510, 204.0797
238.1331, 203.2423
238.6152, 202.9564
239.0973, 204.3109
239.5794, 206.6748
240.0615, 208.6452
240.5437, 209.7428
241.0258, 210.5891
241.5079, 211.9643
241.9900, 213.8300
242.4721, 215.9945
242.9542, 218.2134
243.4364, 220.6631
243.9185, 223.9935
244.4006, 228.7859
244.8827, 233.6282
245.3648, 237.0113
245.8469, 239.1107
246.3290, 240.9738
246.8112, 242.5939
247.2933, 244.3098
247.7754, 247.4113
248.2575, 252.7372
248.7396, 258.3416
249.2217, 262.5007
249.7039, 265.6024
250.1860, 268.9281
250.6681, 273.2679
251.1502, 278.3882
251.6323, 283.5111
252.1144, 288.5489
252.5966, 293.6418
253.0787, 298.6452
253.5608, 303.7232
254.0429, 309.3517
254.5250, 316.0374
255.0071, 323.4652
255.4893, 330.4420
255.9714, 336.6157
256.4535, 342.8596
256.9356, 349.5241
257.4177, 356.5009
257.8998, 363.7507
258.3820, 371.4784
258.8641, 379.3218
259.3462, 385.9359
259.8283, 390.7811
260.3104, 395.1755
260.7925, 399.9650
261.2747, 404.5910
261.7568, 408.4417
262.2389, 411.3673
262.7210, 413.1011
263.2031, 412.8118
263.6852, 409.8300
264.1674, 405.7342
264.6495, 401.0956
265.1316, 395.6996
265.6137, 389.2323
266.0958, 381.5412
266.5779, 372.9805
267.0601, 364.3443
267.5422, 355.5116
268.0243, 346.8917
268.5064, 338.4710
268.9885, 330.2797
269.4706, 322.4024
269.9528, 314.8607
270.4349, 307.6023
270.9170, 300.4143
271.3991, 292.7733
271.8812, 286.4408
272.3633, 282.2335
272.8455, 278.6949
273.3276, 274.7674
273.8097, 270.1761
274.2918, 265.3463
274.7739, 260.8326
275.2560, 256.3467
275.7382, 252.8953
276.2202, 251.0598
276.7024, 249.5825
277.1845, 247.6616
277.6666, 245.1906
278.1487, 242.5874
278.6308, 240.3731
279.1129, 238.7235
279.5951, 236.8687
280.0772, 234.1388
280.5593, 231.7937
281.0414, 230.4636
281.5235, 230.1659
282.0056, 230.6579
282.4878, 231.8593
282.9699, 234.0278
283.4520, 235.0142
283.9341, 233.2180
284.4162, 231.9613
284.8983, 232.7780
285.3805, 235.3223
285.8626, 238.4158
286.3447, 241.2026
286.8268, 243.6773
287.3089, 246.0929
287.7910, 247.1624
288.2732, 249.5215
288.7553, 254.5814
289.2374, 261.4554
289.7195, 268.5253
290.2016, 274.8747
290.6837, 280.5041
291.1659, 285.5268
291.6480, 289.8995
292.1301, 293.6850
292.6122, 297.3826
293.0943, 300.3669
293.5764, 301.8591
294.0586, 301.5150
294.5407, 299.3697
295.0228, 295.4927
295.5049, 289.2538
295.9870, 281.8771
296.4691, 272.8792
296.9513, 262.9864
297.4334, 252.6908
297.9155, 242.2381
298.3976, 231.9951
298.8797, 222.5961
299.3618, 214.1983
299.8440, 206.5608
300.3261, 199.5263
300.8082, 193.3765
301.2903, 188.5127
301.7724, 184.9460
302.2545, 181.9711
302.7367, 178.7236
303.2188, 175.0104
303.7009, 171.9092
304.1830, 169.4488
304.6651, 167.4885
305.1472, 166.3005
305.6294, 165.6732
306.1115, 164.7292
306.5936, 162.6042
307.0757, 159.1855
307.5578, 156.7607
308.0399, 155.7465
308.5221, 155.1060
309.0042, 154.6076
309.4863, 154.1356
309.9684, 153.4735
310.4505, 152.4446
310.9326, 151.1400
311.4148, 150.2426
311.8969, 150.2304
312.3790, 150.0054
312.8611, 149.0501
313.3432, 147.7585
313.8253, 146.7981
314.3075, 146.4910
314.7896, 146.5855
315.2717, 146.4366
315.7538, 145.8116
316.2359, 145.2784
316.7180, 144.7613
317.2001, 144.4102
317.6823, 144.5426
318.1644, 145.2273
318.6465, 145.9761
319.1286, 146.0364
319.6107, 145.0074
320.0928, 144.1915
320.5750, 143.6249
321.0571, 143.2327
321.5392, 143.1315
322.0213, 143.2479
322.5034, 143.1174
322.9855, 142.1719
323.4677, 140.1811
323.9498, 139.1302
324.4319, 139.8327
324.9140, 140.5640
325.3961, 140.1852
325.8782, 139.0276
326.3604, 138.3749
326.8425, 139.2805
327.3246, 141.4934
327.8067, 142.1136
328.2888, 139.5636
328.7709, 137.4537
329.2531, 136.9726
329.7352, 137.4924
330.2173, 137.9661
330.6994, 137.8997
331.1815, 137.4829
331.6636, 137.2249
332.1458, 137.1402
332.6279, 137.2177
333.1100, 137.8622
333.5921, 138.4694
334.0742, 138.2928
334.5563, 137.1700
335.0385, 135.7185
335.5206, 134.8246
336.0027, 134.6268
336.4848, 134.7184
336.9669, 135.6915
337.4490, 136.4644
337.9312, 135.9509
338.4133, 134.3556
338.8954, 133.0599
339.3775, 133.4971
339.8596, 135.9197
340.3417, 136.8802
340.8239, 134.8981
341.3060, 133.1959
341.7881, 133.1738
342.2702, 134.2950
342.7523, 135.3388
343.2344, 135.5478
343.7166, 135.0850
344.1987, 134.7384
344.6808, 134.4795
345.1629, 134.3906
345.6450, 134.5439
346.1271, 134.8475
346.6093, 135.2714
347.0914, 135.7884
347.5735, 136.2606
348.0556, 136.3932
348.5377, 135.8901
349.0198, 135.5793
349.5020, 135.8075
349.9841, 135.9507
350.4662, 135.2718
350.9483, 133.8896
351.4304, 132.7997
351.9125, 133.2431
352.3947, 135.5885
352.8768, 136.9904
353.3589, 136.5112
353.8410, 136.0279
354.3231, 136.2798
354.8052, 137.0395
355.2874, 137.7241
355.7695, 137.9370
356.2516, 137.7489
356.7337, 137.5536
357.2158, 137.1775
357.6979, 137.0518
358.1800, 137.6309
358.6621, 138.3238
359.1443, 138.2638
359.6264, 137.1260
360.1085, 135.7910
360.5906, 136.1307
361.0727, 139.3376
361.5548, 141.0691
362.0370, 139.6183
362.5191, 137.6261
363.0012, 136.6084
363.4833, 136.7318
363.9654, 137.3526
364.4475, 137.8923
364.9297, 138.3454
365.4118, 138.8120
365.8939, 139.4029
366.3760, 139.8742
366.8581, 139.9954
367.3402, 139.9321
367.8224, 140.0471
368.3045, 140.6403
368.7866, 141.4833
369.2687, 141.8676
369.7508, 141.6046
370.2329, 141.2858
370.7151, 141.3054
371.1972, 141.2847
371.6793, 140.7005
372.1614, 139.3364
372.6435, 137.9298
373.1256, 137.5588
373.6078, 138.3203
374.0899, 138.7246
374.5720, 138.2924
375.0541, 137.5293
375.5362, 136.6971
376.0183, 135.8369
376.5005, 135.1446
376.9826, 134.8126
377.4647, 134.7584
377.9468, 134.6722
378.4289, 134.5099
378.9110, 134.3721
379.3932, 134.3444
379.8753, 134.3854
380.3574, 134.4223
380.8395, 134.4223
381.3216, 134.4168
381.8037, 134.4858
382.2859, 134.6337
382.7680, 134.6566
383.2501, 134.4095
383.7322, 134.0157
384.2143, 133.6379
384.6964, 133.2279
385.1786, 133.0264
385.6607, 133.2884
386.1428, 133.8699
386.6249, 134.4161
387.1070, 134.8690
387.5891, 135.1994
388.0713, 135.2947
388.5534, 135.1803
389.0355, 135.1585
389.5176, 135.3138
389.9997, 135.5748
390.4818, 135.9567
390.9640, 136.4386
391.4461, 136.7202
391.9282, 136.4408
392.4103, 135.8147
392.8924, 135.9381
393.3745, 137.7016
393.8567, 139.1733
394.3388, 139.2651
394.8209, 138.5665
395.3030, 138.2587
395.7851, 138.8073
396.2672, 139.7507
396.7494, 140.2819
397.2315, 140.2273
397.7136, 140.1391
398.1957, 139.7756
398.6778, 139.5620
399.1599, 139.9256
399.6420, 140.8575
400.1241, 142.0068
400.6063, 143.1056
401.0884, 144.1663
401.5705, 144.8751
402.0526, 144.8291
402.5347, 144.9314
403.0168, 145.2604
403.4990, 145.9627
403.9811, 147.3245
404.4632, 149.4855
404.9453, 152.1444
405.4274, 154.5595
405.9095, 156.4581
406.3917, 158.5524
406.8738, 160.7827
407.3559, 163.2403
407.8380, 166.3739
408.3201, 169.9959
408.8022, 173.1787
409.2844, 175.1165
409.7665, 175.7993
410.2486, 175.1072
410.7307, 171.7641
411.2128, 168.3482
411.6949, 165.7443
412.1771, 163.5459
412.6592, 160.8911
413.1413, 157.2265
413.6234, 153.3171
414.1055, 150.9367
414.5876, 150.5609
415.0698, 150.2424
415.5519, 149.2954
416.0340, 148.4069
416.5161, 148.1112
416.9982, 148.4507
417.4803, 148.9883
417.9625, 149.2682
418.4446, 149.3766
418.9267, 150.0047
419.4088, 151.5229
419.8909, 152.9705
420.3730, 153.7621
420.8552, 154.0409
421.3373, 153.9978
421.8194, 153.3642
422.3015, 152.7800
422.7836, 153.1890
423.2657, 154.5765
423.7479, 155.7718
424.2300, 156.0329
424.7121, 156.1190
425.1942, 157.3155
425.6763, 159.8563
426.1584, 162.2437
426.6406, 163.8006
427.1227, 164.8024
427.6048, 165.5727
428.0869, 166.1418
428.5690, 166.8785
429.0511, 168.1568
429.5333, 169.9998
430.0154, 171.7939
430.4975, 173.3725
430.9796, 175.0602
431.4617, 177.2050
431.9438, 179.6040
432.4260, 181.7380
432.9081, 183.3378
433.3902, 184.5753
433.8723, 185.8215
434.3544, 186.7067
434.8365, 188.2487
435.3187, 190.7045
435.8008, 193.6802
436.2829, 196.9761
436.7650, 200.4908
437.2471, 204.0246
437.7292, 207.3452
438.2114, 210.4485
438.6935, 214.0029
439.1756, 217.5981
439.6577, 222.1389
440.1398, 228.0050
440.6219, 234.8869
441.1040, 242.3130
441.5862, 250.0564
442.0683, 258.3458
442.5504, 267.4995
443.0325, 277.5635
443.5146, 288.4612
443.9967, 300.0823
444.4789, 312.6163
444.9610, 326.4043
445.4431, 341.2023
445.9252, 356.4947
446.4073, 372.0077
446.8894, 387.5767
447.3716, 402.5043
447.8537, 416.5885
448.3358, 430.4978
448.8179, 444.1037
449.3000, 457.9431
449.7821, 472.5639
450.2643, 488.0026
450.7464, 504.6135
451.2285, 522.3224
451.7106, 541.3572
452.1927, 562.2977
452.6748, 584.9824
453.1570, 609.9520
453.6391, 637.5618
454.1212, 667.6776
454.6033, 701.5483
455.0854, 739.2703
455.5675, 780.8172
456.0497, 825.7756
456.5318, 874.3079
457.0139, 928.6663
457.4960, 990.6375
457.9781, 1058.489
458.4602, 1128.799
458.9424, 1205.035
459.4245, 1276.291
459.9066, 1339.021
460.3887, 1396.523
460.8708, 1453.591
461.3529, 1510.213
461.8351, 1561.753
462.3172, 1606.021
462.7993, 1643.334
463.2814, 1653.466
463.7635, 1629.719
464.2456, 1588.733
464.7278, 1529.695
465.2099, 1457.072
465.6920, 1374.195
466.1741, 1282.322
466.6562, 1186.989
467.1383, 1096.685
467.6205, 1009.931
468.1026, 930.6122
468.5847, 860.9744
469.0668, 796.9875
469.5489, 737.2410
470.0310, 681.9197
470.5132, 632.6998
470.9953, 591.0490
471.4774, 555.6453
471.9595, 523.4301
472.4416, 494.6894
472.9237, 468.2168
473.4059, 444.2263
473.8880, 422.2177
474.3701, 401.7525
474.8522, 382.8943
475.3343, 365.8695
475.8164, 351.3589
476.2986, 338.8696
476.7807, 326.9590
477.2628, 315.4474
477.7449, 304.9308
478.2270, 296.1118
478.7091, 288.7470
479.1913, 281.6556
479.6734, 274.6513
480.1555, 268.0640
480.6376, 262.1872
481.1197, 256.8434
481.6018, 251.4966
482.0839, 245.9348
482.5660, 240.8075
483.0482, 237.0867
483.5303, 235.2910
484.0124, 233.1651
484.4945, 230.4177
484.9766, 227.6412
485.4587, 225.2585
485.9409, 223.0944
486.4230, 220.6065
486.9051, 217.4424
487.3872, 213.9776
487.8693, 211.4161
488.3514, 210.6338
488.8336, 209.0561
489.3157, 205.6572
489.7978, 202.1959
490.2799, 199.9398
490.7620, 198.8407
491.2441, 197.9795
491.7263, 196.4753
492.2084, 194.6132
492.6905, 193.8833
493.1726, 194.7077
493.6547, 195.6547
494.1368, 196.2880
494.6190, 196.6717
495.1011, 196.8329
495.5832, 196.7690
496.0653, 196.5426
496.5474, 196.4453
497.0295, 196.2328
497.5117, 195.1460
497.9938, 193.0335
498.4759, 190.1737
498.9580, 186.4026
499.4401, 181.9444
499.9222, 178.0591
500.4044, 175.2182
500.8865, 172.5461
501.3686, 169.4380
501.8507, 166.1746
502.3328, 163.3061
502.8149, 161.0336
503.2971, 159.1159
503.7792, 157.1895
504.2613, 155.0885
504.7434, 153.6025
505.2255, 152.9617
505.7076, 152.6362
506.1898, 152.7738
506.6719, 152.9884
507.1540, 152.4788
507.6361, 150.7891
508.1182, 148.5243
508.6003, 147.1333
509.0825, 146.9554
509.5646, 146.7396
510.0467, 146.2586
510.5288, 145.8029
511.0109, 145.7082
511.4930, 145.8192
511.9752, 145.5479
512.4573, 144.2486
512.9394, 142.4984
513.4215, 141.7768
513.9036, 142.2755
514.3857, 142.5676
514.8679, 142.0119
515.3500, 141.0328
515.8321, 140.1021
516.3142, 139.1968
516.7963, 138.6413
517.2784, 138.9848
517.7606, 139.5680
518.2427, 139.3017
518.7248, 138.1404
519.2069, 137.1090
519.6890, 136.9553
520.1711, 137.4587
520.6533, 137.5193
521.1354, 136.8479
521.6175, 136.1964
522.0996, 135.5746
522.5817, 135.0950
523.0638, 134.9969
523.5460, 135.2459
524.0281, 135.4477
524.5102, 135.2029
524.9923, 134.5281
525.4744, 133.9440
525.9565, 133.2850
526.4387, 132.9689
526.9208, 133.2192
527.4029, 133.7590
527.8850, 134.5189
528.3671, 135.4283
528.8492, 135.8657
529.3314, 134.8635
529.8135, 132.6093
530.2956, 130.9803
530.7777, 130.3153
531.2598, 129.7993
531.7419, 128.8192
532.2241, 127.6779
532.7062, 126.8356
533.1883, 126.3218
533.6704, 126.2363
534.1525, 126.9735
534.6346, 128.1571
535.1168, 128.9411
535.5989, 129.1375
536.0810, 128.8608
536.5631, 128.1112
537.0452, 126.8570
537.5273, 125.9758
538.0095, 125.5838
538.4916, 125.3941
538.9737, 125.4957
539.4558, 125.6665
539.9379, 125.5122
540.4200, 124.9311
540.9022, 124.3014
541.3843, 124.2377
541.8664, 124.9414
542.3485, 125.0644
542.8306, 123.9015
543.3127, 122.9082
543.7948, 122.6415
544.2769, 122.8081
544.7590, 123.0043
545.2411, 123.1112
545.7233, 123.0113
546.2054, 122.2960
546.6875, 121.0462
547.1696, 120.6171
547.6517, 121.5646
548.1339, 122.6944
548.6160, 123.0422
549.0981, 122.7776
549.5802, 122.2761
550.0623, 121.2449
550.5444, 120.3798
551.0266, 120.3191
551.5087, 120.7453
551.9908, 120.8628
552.4729, 120.4180
552.9550, 119.9044
553.4371, 119.9910
553.9193, 120.8586
554.4014, 121.2147
554.8835, 120.8164
555.3656, 120.2580
555.8477, 119.6588
556.3298, 119.0668
556.8120, 118.4604
557.2941, 117.8430
557.7762, 117.4271
558.2583, 117.5791
558.7404, 118.3697
559.2225, 119.1779
559.7047, 120.4620
560.1868, 121.0861
560.6689, 120.2260
561.1510, 118.5083
561.6331, 116.9244
562.1152, 115.6990
562.5974, 114.8930
563.0795, 114.7584
563.5616, 115.1178
564.0437, 115.3139
564.5258, 115.1959
565.0079, 115.0084
565.4901, 115.0219
565.9722, 115.2070
566.4543, 115.0953
566.9364, 114.1252
567.4185, 113.5014
567.9006, 114.0380
568.3828, 115.0654
568.8649, 115.6524
569.3470, 115.5531
569.8291, 115.0764
570.3112, 114.4951
570.7933, 113.7728
571.2755, 113.6057
571.7576, 114.9857
572.2397, 115.6529
572.7218, 114.2732
573.2039, 112.3206
573.6860, 111.5497
574.1682, 112.3751
574.6503, 113.6423
575.1324, 114.4274
575.6145, 114.7581
576.0966, 114.6297
576.5787, 113.8784
577.0609, 113.3258
577.5430, 113.6654
578.0251, 114.4987
578.5072, 114.8202
578.9893, 114.3325
579.4714, 113.9604
579.9536, 114.2476
580.4357, 114.7440
580.9178, 114.9583
581.3999, 114.8089
581.8820, 114.2830
582.3641, 113.2633
582.8463, 111.9497
583.3284, 111.5115
583.8105, 112.7206
584.2926, 113.7188
584.7747, 114.3159
585.2568, 114.7049
585.7390, 114.9137
586.2211, 115.0323
586.7032, 115.3447
587.1853, 116.2653
587.6674, 117.3720
588.1495, 117.2353
588.6317, 115.5533
589.1138, 114.5328
589.5959, 115.1909
590.0780, 116.5449
590.5601, 117.5075
591.0422, 118.0872
591.5244, 118.3997
592.0065, 118.1023
592.4886, 117.8455
592.9707, 118.3654
593.4528, 119.4640
593.9349, 120.4814
594.4171, 121.1471
594.8992, 121.4042
595.3813, 121.0779
595.8634, 119.7643
596.3455, 119.0738
596.8276, 119.3529
597.3098, 119.7965
597.7919, 120.2219
598.2740, 120.5401
598.7561, 120.5791
599.2382, 120.2523
599.7203, 119.9418
600.2025, 120.2110
600.6846, 121.0456
601.1667, 121.9599
601.6488, 123.1720
602.1309, 123.9183
602.6130, 123.1534
603.0952, 121.6109
603.5773, 120.8318
604.0594, 121.4171
604.5415, 122.0107
605.0236, 121.8073
605.5057, 121.2162
605.9879, 120.9091
606.4700, 120.9721
606.9521, 121.0047
607.4342, 120.6736
607.9163, 120.0215
608.3984, 119.3641
608.8806, 118.6949
609.3627, 118.0305
609.8448, 117.4877
610.3269, 116.8632
610.8090, 115.8814
611.2911, 114.6236
611.7733, 113.4904
612.2554, 112.7247
612.7375, 112.3023
613.2196, 112.2860
613.7017, 112.7357
614.1838, 112.9071
614.6660, 112.3410
615.1481, 111.6935
615.6302, 111.9448
616.1123, 113.0162
616.5944, 113.5389
617.0765, 113.0197
617.5587, 112.0731
618.0408, 110.7331
618.5229, 109.3306
619.0050, 108.6774
619.4871, 109.0389
619.9692, 109.6209
620.4514, 109.2636
620.9335, 107.7440
621.4156, 106.9830
621.8977, 107.7816
622.3798, 108.4115
622.8619, 108.1940
623.3441, 107.6950
623.8262, 107.6871
624.3083, 108.3341
624.7904, 108.8702
625.2725, 108.4756
625.7546, 107.4896
626.2367, 106.9035
626.7188, 106.8044
627.2009, 106.6127
627.6830, 105.9138
628.1652, 105.0207
628.6473, 104.6736
629.1294, 104.9613
629.6115, 105.3743
630.0936, 106.0608
630.5757, 106.6593
631.0579, 106.9662
631.5400, 106.9600
632.0221, 106.5224
632.5042, 105.5737
632.9863, 104.6032
633.4684, 104.7120
633.9506, 106.2618
634.4327, 107.0838
634.9148, 106.7310
635.3969, 106.0372
635.8790, 105.2535
636.3611, 104.4841
636.8433, 103.9039
637.3254, 103.5652
637.8075, 103.4001
638.2896, 103.4446
638.7717, 103.6066
639.2538, 103.7576
639.7360, 103.8713
640.2181, 103.7675
640.7002, 103.2144
641.1823, 102.4346
641.6644, 102.3412
642.1465, 104.1006
642.6287, 104.9269
643.1108, 103.9820
643.5929, 102.7931
644.0750, 102.3525
644.5571, 102.5720
645.0392, 102.9142
645.5214, 103.1164
646.0035, 103.1743
646.4856, 103.0035
646.9677, 102.6057
647.4498, 102.3690
647.9319, 102.3750
648.4141, 102.5277
648.8962, 102.8251
649.3783, 103.2156
649.8604, 103.5014
650.3425, 103.8388
650.8246, 103.8345
651.3068, 102.9297
651.7889, 101.8072
652.2710, 101.3506
652.7531, 101.6336
653.2352, 102.1662
653.7173, 102.5927
654.1995, 102.9164
654.6816, 103.1806
655.1637, 103.4929
655.6458, 103.4844
656.1279, 102.6122
656.6100, 101.8083
657.0922, 101.7954
657.5743, 102.3401
658.0564, 102.5738
658.5385, 102.0013
659.0206, 101.2168
659.5027, 100.7176
659.9849, 100.4639
660.4670, 100.4030
660.9491, 100.5318
661.4312, 100.5779
661.9133, 100.2189
662.3954, 99.51541
662.8776, 99.33424
663.3597, 100.4385
663.8418, 101.0650
664.3239, 100.6065
664.8060, 99.93916
665.2881, 99.81993
665.7703, 100.2090
666.2524, 100.5695
666.7345, 100.5655
667.2166, 100.3346
667.6987, 100.0942
668.1808, 99.84573
668.6630, 99.62170
669.1451, 99.38835
669.6272, 99.28804
670.1093, 99.56864
670.5914, 100.1764
671.0735, 100.4478
671.5557, 99.82571
672.0378, 99.53447
672.5199, 100.4333
673.0020, 101.5912
673.4841, 101.8762
673.9662, 101.2491
674.4484, 100.5403
674.9305, 100.3993
675.4126, 100.6418
675.8947, 100.6527
676.3768, 100.3888
676.8589, 100.0605
677.3411, 99.46721
677.8232, 99.10336
678.3053, 99.63640
678.7874, 100.7586
679.2695, 101.3125
679.7516, 100.5300
680.2338, 99.75674
680.7159, 100.2009
681.1980, 101.0071
681.6801, 100.4370
682.1622, 98.41112
682.6443, 96.88259
683.1265, 97.60636
683.6086, 99.95700
684.0907, 100.7759
684.5728, 99.04200
685.0549, 98.00784
685.5370, 98.68894
686.0192, 99.67312
686.5013, 100.3990
686.9834, 100.7673
687.4655, 100.5962
687.9476, 99.50060
688.4297, 98.41850
688.9119, 98.33430
689.3940, 98.87322
689.8761, 99.12997
690.3582, 98.95280
690.8403, 98.82272
691.3224, 99.14411
691.8046, 99.79272
692.2867, 100.1876
692.7688, 100.3342
693.2509, 100.1991
693.7330, 99.37936
694.2151, 98.67143
694.6973, 98.76163
695.1794, 99.33506
695.6615, 99.53812
696.1436, 98.92387
696.6257, 98.10391
697.1078, 97.70275
697.5900, 97.65347
698.0721, 97.84239
698.5542, 98.28797
699.0363, 98.38051
699.5184, 97.51399
700.0005, 96.11687
700.4827, 95.72285
700.9648, 97.27543
701.4469, 98.30452
701.9290, 98.40523
702.4111, 98.32681
702.8932, 98.46035
703.3754, 98.77180
703.8575, 99.07470
704.3396, 99.28092
704.8217, 99.58944
705.3038, 100.5330
705.7859, 101.8476
706.2681, 102.0371
706.7502, 100.7958
707.2323, 99.79409
707.7144, 100.1032
708.1965, 101.1207
708.6786, 101.4337
709.1607, 100.7745
709.6428, 100.2404
710.1249, 99.84165
710.6071, 99.64494
711.0892, 99.77740
711.5713, 100.1108
712.0534, 100.4432
712.5355, 100.7071
713.0176, 100.9632
713.4998, 101.3285
713.9819, 101.7588
714.4640, 101.9795
714.9461, 101.9460
715.4282, 101.9930
715.9103, 102.3787
716.3925, 102.7856
716.8746, 102.5968
717.3567, 101.7009
717.8388, 101.2521
718.3209, 101.7940
718.8030, 102.3146
719.2852, 102.0869
719.7673, 101.6593
720.2494, 101.9760
720.7315, 103.1407
721.2136, 104.2030
721.6957, 104.1662
722.1779, 103.3946
722.6600, 103.2377
723.1421, 103.7686
723.6242, 104.3014
724.1063, 104.7684
724.5884, 104.9604
725.0706, 104.3256
725.5527, 102.9863
726.0348, 102.6578
726.5169, 104.2564
726.9990, 105.8604
727.4811, 106.8020
727.9633, 107.4446
728.4454, 108.1061
728.9275, 108.8604
729.4096, 109.6988
729.8917, 110.6201
730.3738, 111.6085
730.8560, 112.7388
731.3381, 114.0240
731.8202, 114.8620
732.3023, 115.0383
732.7844, 115.0616
733.2665, 115.5380
733.7487, 116.1314
734.2308, 115.5828
734.7129, 112.9293
735.1950, 110.9714
735.6771, 110.9560
736.1592, 111.2608
736.6414, 110.4306
737.1235, 108.8469
737.6056, 107.7895
738.0877, 107.8403
738.5698, 108.2381
739.0519, 107.8214
739.5341, 106.7157
740.0162, 106.1554
740.4983, 106.3500
740.9804, 106.3854
741.4625, 105.7886
741.9446, 104.7947
742.4268, 103.7492
742.9089, 102.5664
743.3910, 101.7479
743.8731, 101.7706
744.3552, 101.6939
744.8373, 100.7968
745.3195, 99.63765
745.8016, 99.11080
746.2837, 99.36301
746.7658, 99.66905
747.2479, 99.27122
747.7300, 98.51087
748.2122, 98.37856
748.6943, 98.88413
749.1764, 99.45457
749.6585, 100.0213
750.1406, 100.3566
750.6227, 100.1693
751.1049, 99.47304
751.5870, 98.84449
752.0691, 98.39190
752.5512, 97.85677
753.0333, 96.91747
753.5154, 96.09028
753.9976, 95.81233
754.4797, 96.04488
754.9618, 96.59248
755.4439, 97.48082
755.9260, 98.19694
756.4081, 97.68973
756.8903, 96.37711
757.3724, 96.19658
757.8545, 97.44907
758.3366, 98.64818
758.8187, 98.89509
759.3008, 98.45090
759.7830, 97.93234
760.2651, 97.14410
760.7472, 96.75480
761.2293, 97.29794
761.7114, 97.61979
762.1935, 96.90633
762.6757, 95.85307
763.1578, 95.46455
763.6399, 95.95198
764.1220, 96.57540
764.6041, 96.72675
765.0862, 96.73909
765.5684, 97.30170
766.0505, 98.24497
766.5326, 98.61376
767.0147, 98.07970
767.4968, 97.32589
767.9789, 97.13087
768.4611, 97.45984
768.9432, 97.50613
769.4253, 96.91404
769.9074, 96.65112
770.3895, 97.27938
770.8716, 97.90445
771.3538, 97.91612
771.8359, 97.41263
772.3180, 96.75974
772.8001, 95.83955
773.2822, 95.27799
773.7643, 95.88175
774.2465, 96.92150
774.7286, 97.29610
775.2107, 96.98396
775.6928, 96.53028
776.1749, 96.21889
776.6570, 96.10770
777.1392, 96.38557
777.6213, 97.14342
778.1034, 97.62108
778.5855, 97.68227
779.0676, 97.71715
779.5497, 97.90391
780.0319, 98.15073
780.5140, 98.44540
780.9961, 98.82053
781.4782, 98.71142
781.9603, 97.38583
782.4424, 96.17494
782.9246, 95.83519
783.4067, 96.10368
783.8888, 96.72472
784.3709, 97.54073
784.8530, 98.22251
785.3351, 98.52673
785.8173, 98.48539
786.2994, 97.94401
786.7815, 96.90203
787.2636, 96.68288
787.7457, 97.74174
788.2278, 98.96005
788.7100, 99.55367
789.1921, 99.61797
789.6742, 99.50690
790.1563, 99.18452
790.6384, 98.76338
791.1205, 97.90285
791.6026, 97.29518
792.0847, 97.59258
792.5668, 98.31694
793.0490, 98.64915
793.5311, 98.35102
794.0132, 97.85808
794.4953, 97.54131
794.9774, 97.25825
795.4595, 96.55169
795.9417, 95.56548
796.4238, 95.20576
796.9059, 95.78072
797.3880, 96.86678
797.8701, 98.07178
798.3522, 99.37418
798.8344, 100.3267
799.3165, 100.7837
799.7986, 101.1731
800.2807, 101.3557
800.7628, 101.6728
801.2449, 102.4871
801.7271, 103.5916
802.2092, 104.3855
802.6913, 104.5763
803.1734, 104.8274
803.6555, 105.4127
804.1376, 106.2732
804.6198, 107.6869
805.1019, 109.3088
805.5840, 110.0400
806.0661, 109.4240
806.5482, 108.6861
807.0303, 109.6710
807.5125, 112.1421
807.9946, 113.7462
808.4767, 114.3276
808.9588, 114.9684
809.4409, 116.0851
809.9230, 117.3059
810.4052, 118.2384
810.8873, 118.8756
811.3694, 119.3612
811.8515, 120.3358
812.3336, 120.2950
812.8157, 118.1949
813.2979, 115.5859
813.7800, 113.8323
814.2621, 112.6582
814.7442, 110.8306
815.2263, 107.6611
815.7084, 104.6407
816.1906, 103.5260
816.6727, 103.5334
817.1548, 103.0497
817.6369, 102.0315
818.1190, 101.1364
818.6011, 100.6595
819.0833, 100.4054
819.5654, 100.1243
820.0475, 99.82000
820.5296, 99.29798
821.0117, 98.29257
821.4938, 97.61130
821.9760, 97.77479
822.4581, 98.07178
822.9402, 97.79017
823.4223, 97.09367
823.9044, 96.79663
824.3865, 97.58125
824.8687, 97.98673
825.3508, 96.95513
825.8329, 95.66070
826.3150, 95.07998
826.7971, 95.28176
827.2792, 96.30167
827.7614, 98.17623
828.2435, 99.83702
828.7256, 99.69252
829.2077, 98.23848
829.6898, 97.41431
830.1719, 97.27388
830.6541, 96.95814
831.1362, 96.04993
831.6183, 95.23764
832.1004, 95.39433
832.5825, 96.50217
833.0646, 97.44006
833.5468, 98.64969
834.0289, 98.96162
834.5110, 97.40848
834.9931, 95.75206
835.4752, 95.03654
835.9573, 95.10583
836.4395, 95.45166
836.9216, 96.03976
837.4037, 96.57669
837.8858, 96.84364
838.3679, 97.03491
838.8500, 97.49508
839.3322, 98.03796
839.8143, 98.16016
840.2964, 97.69827
840.7785, 96.90609
841.2606, 95.91253
841.7427, 94.87805
842.2249, 94.50130
842.7070, 94.80341
843.1891, 95.38865
843.6712, 96.36225
844.1533, 96.88351
844.6354, 95.95921
845.1176, 94.02485
845.5997, 93.24167
846.0818, 94.67890
846.5639, 95.58741
847.0460, 95.71640
847.5281, 95.60993
848.0103, 95.31693
848.4924, 95.04273
848.9745, 95.15292
849.4566, 95.71827
849.9387, 96.11555
850.4208, 95.66588
850.9030, 95.23350
851.3851, 95.85989
851.8672, 97.00746
852.3493, 97.59256
852.8314, 97.44661
853.3135, 97.14229
853.7957, 97.09646
854.2778, 97.22110
854.7599, 97.35764
855.2420, 97.50394
855.7241, 97.52393
856.2062, 97.38560
856.6884, 97.19682
857.1705, 96.98291
857.6526, 96.80067
858.1347, 96.80119
858.6168, 97.11006
859.0989, 97.02394
859.5811, 95.98731
860.0632, 95.28281
860.5453, 95.44530
861.0274, 95.87379
861.5095, 96.07593
861.9916, 96.03883
862.4738, 95.93076
862.9559, 95.72780
863.4380, 95.62743
863.9201, 95.92383
864.4022, 96.28359
864.8843, 96.14870
865.3665, 95.69315
865.8486, 95.62234
866.3307, 96.22307
866.8128, 96.98466
867.2949, 97.42579
867.7770, 97.49068
868.2592, 96.61274
868.7413, 94.76953
869.2234, 93.82380
869.7055, 94.40780
870.1876, 95.55566
870.6697, 96.48320
871.1519, 97.16567
871.6340, 97.42789
872.1161, 96.95204
872.5981, 96.66450
873.0803, 96.87560
873.5624, 96.98615
874.0445, 96.66286
874.5266, 96.12502
875.0087, 95.65691
875.4908, 95.29346
875.9730, 95.05220
876.4551, 95.06091
876.9372, 95.06290
877.4193, 94.76357
877.9014, 94.43733
878.3835, 94.59114
878.8657, 95.14335
879.3478, 95.47077
879.8299, 95.18864
880.3120, 94.57369
880.7941, 93.87297
881.2762, 93.16539
881.7584, 92.68263
882.2405, 92.44677
882.7226, 92.52652
883.2047, 92.97881
883.6868, 93.57585
884.1689, 94.04553
884.6511, 94.38262
885.1332, 94.32945
885.6153, 93.69707
886.0974, 93.20773
886.5795, 93.16483
887.0616, 93.08804
887.5438, 92.41677
888.0259, 91.43200
888.5080, 91.02589
888.9901, 91.58821
889.4722, 91.83862
889.9543, 91.13836
890.4365, 90.57986
890.9186, 90.92029
891.4007, 91.65772
891.8828, 92.19777
892.3649, 92.39814
892.8470, 92.19704
893.3292, 91.25356
893.8113, 90.28163
894.2934, 90.13893
894.7755, 90.37350
895.2576, 90.04439
895.7397, 89.22229
896.2219, 88.85804
896.7040, 89.46358
897.1861, 90.39563
897.6682, 90.72245
898.1503, 90.50473
898.6324, 90.15653
899.1146, 89.65791
899.5967, 89.43062
900.0788, 89.68326
900.5609, 89.95617
901.0430, 89.79661
901.5251, 89.26421
902.0073, 88.68339
902.4894, 87.61911
902.9715, 87.40937
903.4536, 88.95043
903.9357, 90.38982
904.4178, 90.92190
904.9000, 90.86309
905.3821, 90.53832
905.8642, 89.95659
906.3463, 89.50879
906.8284, 89.24717
907.3105, 89.19103
907.7927, 89.39852
908.2748, 89.78365
908.7569, 90.36792
909.2390, 91.04588
909.7211, 91.59016
910.2032, 91.91447
910.6854, 91.97684
911.1675, 91.50927
911.6496, 90.88327
912.1317, 90.82978
912.6138, 91.18175
913.0959, 91.22949
913.5781, 90.77189
914.0602, 90.19112
914.5423, 89.83907
915.0244, 89.63708
915.5065, 89.16039
915.9886, 88.40070
916.4708, 88.81020
916.9529, 90.89111
917.4350, 92.34011
917.9171, 91.74710
918.3992, 90.06079
918.8813, 88.86992
919.3635, 88.16487
919.8456, 87.99729
920.3277, 88.70582
920.8098, 89.39708
921.2919, 89.90298
921.7740, 90.31377
922.2562, 90.82251
922.7383, 91.28008
923.2204, 91.18014
923.7025, 90.13908
924.1846, 89.38406
924.6667, 89.39413
925.1489, 89.58923
925.6310, 89.62991
926.1131, 89.63206
926.5952, 89.84934
927.0773, 90.26836
927.5594, 90.54049
928.0416, 90.41011
928.5237, 90.16038
929.0058, 89.92999
929.4879, 89.81137
929.9700, 90.10023
930.4521, 90.65701
930.9343, 90.84867
931.4164, 90.42519
931.8985, 90.00195
932.3806, 90.41423
932.8627, 91.35503
933.3448, 91.85686
933.8270, 91.93787
934.3091, 91.64882
934.7912, 90.96185
935.2733, 90.65913
935.7554, 91.38213
936.2375, 92.64587
936.7197, 93.25938
937.2018, 93.09959
937.6839, 92.99765
938.1660, 92.99307
938.6481, 92.94104
939.1302, 92.75080
939.6124, 92.53806
940.0945, 92.29549
940.5766, 92.08068
941.0587, 92.45887
941.5408, 94.43690
942.0229, 95.44521
942.5051, 94.37289
942.9872, 93.39462
943.4693, 93.79912
943.9514, 94.81858
944.4335, 95.42295
944.9156, 95.48003
945.3978, 95.27724
945.8799, 94.48151
946.3620, 93.97868
946.8441, 94.36274
947.3262, 95.15923
947.8083, 96.06703
948.2905, 96.92442
948.7726, 97.37115
949.2547, 97.26663
949.7368, 97.50153
950.2189, 99.15061
950.7010, 101.3248
951.1832, 103.0075
951.6653, 104.2054
952.1474, 104.8568
952.6295, 105.0541
953.1116, 105.2880
953.5938, 105.8657
954.0759, 106.7200
954.5580, 107.7105
955.0400, 108.8729
955.5222, 110.6769
956.0043, 113.1062
956.4864, 114.3624
956.9685, 113.6987
957.4506, 113.3310
957.9327, 115.5457
958.4149, 119.6767
958.8970, 122.7411
959.3791, 124.4265
959.8612, 126.7500
960.3433, 130.1288
960.8254, 133.3885
961.3076, 135.9516
961.7897, 138.1253
962.2718, 140.2404
962.7539, 142.2859
963.2360, 144.6621
963.7181, 147.8030
964.2003, 150.5898
964.6824, 153.1211
965.1645, 155.0715
965.6466, 155.8297
966.1287, 156.0735
966.6108, 157.1583
967.0930, 159.3710
967.5751, 160.6289
968.0572, 159.2776
968.5393, 158.4285
969.0214, 159.3395
969.5035, 161.2686
969.9857, 164.1739
970.4678, 167.3829
970.9499, 169.2329
971.4320, 168.9583
971.9141, 169.2391
972.3962, 172.5391
972.8784, 176.1997
973.3605, 177.3669
973.8426, 177.5393
974.3247, 179.3704
974.8068, 182.9143
975.2889, 186.2114
975.7711, 188.0588
976.2532, 189.9417
976.7353, 193.4532
977.2174, 198.1717
977.6995, 203.0865
978.1816, 208.5330
978.6638, 215.6419
979.1459, 224.7503
979.6280, 235.4920
980.1101, 247.6036
980.5922, 260.9911
981.0743, 275.0511
981.5565, 291.0348
982.0386, 307.0385
982.5207, 326.3648
983.0028, 346.6365
983.4849, 367.4840
983.9670, 387.4983
984.4492, 405.6127
984.9313, 421.0981
985.4134, 431.0086
985.8955, 435.5392
986.3776, 432.2940
986.8597, 420.2912
987.3419, 402.9215
987.8240, 380.6787
988.3061, 355.9297
988.7882, 331.7514
989.2703, 308.2276
989.7524, 285.2310
990.2346, 261.5487
990.7167, 241.1088
991.1988, 225.1522
991.6809, 211.3257
992.1630, 198.5379
992.6451, 186.9106
993.1273, 176.7025
993.6094, 167.9411
994.0915, 160.4905
994.5736, 154.7677
995.0557, 149.7128
995.5378, 145.1491
996.0200, 141.2000
996.5021, 138.3872
996.9842, 136.1216
997.4663, 133.1564
997.9484, 129.1814
998.4305, 125.6985
998.9127, 123.3933
999.3948, 121.2805
999.8769, 118.7758
1000.359, 116.4337
1000.841, 114.6708
1001.323, 113.5539
1001.805, 113.3824
1002.287, 114.4716
1002.770, 114.7186
1003.252, 112.1687
1003.734, 109.3312
1004.216, 108.0064
1004.698, 107.5138
1005.180, 106.7916
1005.662, 105.8850
1006.144, 105.5969
1006.627, 106.3470
1007.109, 107.2091
1007.591, 107.4131
1008.073, 107.3189
1008.555, 107.3631
1009.037, 107.4277
1009.519, 107.1161
1010.001, 106.4908
1010.483, 106.2523
1010.966, 106.8942
1011.448, 107.4168
1011.930, 106.3348
1012.412, 104.4420
1012.894, 103.3518
1013.376, 102.8587
1013.858, 102.0906
1014.340, 100.8498
1014.823, 99.41177
1015.305, 97.93693
1015.787, 96.54327
1016.269, 95.50276
1016.751, 94.70373
1017.233, 93.60542
1017.715, 92.28440
1018.197, 91.53064
1018.679, 91.55565
1019.162, 91.69346
1019.644, 91.39935
1020.126, 91.23672
1020.608, 90.55139
1021.090, 90.43485
1021.572, 90.01767
1022.054, 89.27420
1022.536, 88.31521
1023.018, 87.12568
1023.501, 86.15050
1023.983, 85.77658
1024.465, 85.93755
1024.947, 86.58037
1025.429, 87.79381
1025.911, 88.33176
1026.393, 88.03743
1026.875, 87.70534
1027.358, 87.65794
1027.840, 87.45039
1028.322, 86.51777
1028.804, 86.54510
1029.286, 86.42271
1029.768, 85.99326
1030.250, 86.57756
1030.732, 86.32499
1031.214, 86.30326
1031.697, 86.94565
1032.179, 87.86533
1032.661, 88.68801
1033.143, 89.44971
1033.625, 90.32047
1034.107, 91.17802
1034.589, 92.52756
1035.071, 95.00496
1035.553, 96.80225
1036.036, 96.89767
1036.518, 96.48322
1037.000, 96.90684
1037.482, 97.91008
1037.964, 97.95014
1038.446, 96.34185
1038.928, 95.11877
1039.410, 94.62424
1039.893, 94.05276
1040.375, 92.71046
1040.857, 91.51110
1041.339, 91.40047
1041.821, 92.23600
1042.303, 93.27682
1042.785, 94.83186
1043.267, 95.96966
1043.750, 96.15339
1044.232, 96.53541
1044.714, 97.85709
1045.196, 99.29589
1045.678, 99.75932
1046.160, 99.56179
1046.642, 100.3163
1047.124, 102.7531
1047.606, 104.8208
1048.089, 105.8144
1048.571, 106.9249
1049.053, 109.0255
1049.535, 111.1619
1050.017, 112.2213
1050.499, 112.4565
1050.981, 113.0740
1051.463, 114.2127
1051.945, 115.8663
1052.428, 118.5814
1052.910, 121.1541
1053.392, 123.0493
1053.874, 124.5397
1054.356, 125.7537
1054.838, 126.8306
1055.320, 128.1061
1055.802, 129.6768
1056.285, 131.3484
1056.767, 133.6508
1057.249, 135.3355
1057.731, 135.4889
1058.213, 134.9590
1058.695, 134.6030
1059.177, 134.3366
1059.659, 133.5620
1060.141, 131.9680
1060.624, 130.6946
1061.106, 130.5552
1061.588, 130.3212
1062.070, 129.1851
1062.552, 127.7906
1063.034, 126.5911
1063.516, 125.7431
1063.998, 125.6082
1064.480, 126.4206
1064.963, 126.7342
1065.445, 125.7513
1065.927, 124.4003
1066.409, 123.1144
1066.891, 121.7348
1067.373, 120.3557
1067.855, 118.6863
1068.337, 115.7298
1068.820, 111.1304
1069.302, 107.7257
1069.784, 107.8838
1070.266, 108.0931
1070.748, 106.1663
1071.230, 103.7481
1071.712, 102.5037
1072.194, 101.9587
1072.677, 100.6407
1073.159, 98.26054
1073.641, 96.51785
1074.123, 96.92885
1074.605, 97.16507
1075.087, 95.81117
1075.569, 93.98263
1076.051, 92.31481
1076.533, 91.04520
1077.016, 90.59029
1077.498, 90.93827
1077.980, 91.11869
1078.462, 91.00542
1078.944, 90.22356
1079.426, 87.64526
1079.908, 85.24549
1080.390, 84.89610
1080.872, 85.68481
1081.354, 86.19738
1081.837, 86.16604
1082.319, 85.75845
1082.801, 84.70828
1083.283, 83.93973
1083.765, 84.21951
1084.247, 84.59102
1084.729, 84.31227
1085.211, 83.71413
1085.694, 83.25572
1086.176, 82.98637
1086.658, 82.77107
1087.140, 82.61316
1087.622, 82.36710
1088.104, 81.80373
1088.586, 81.31644
1089.068, 81.39098
1089.551, 81.51223
1090.033, 80.75246
1090.515, 79.47492
1090.997, 79.26476
1091.479, 80.91494
1091.961, 81.93287
1092.443, 80.70317
1092.925, 79.42988
1093.407, 79.50251
1093.890, 79.88179
1094.372, 79.35964
1094.854, 78.30012
1095.336, 77.81888
1095.818, 78.18913
1096.300, 78.69312
1096.782, 79.18845
1097.264, 79.66512
1097.746, 80.49086
1098.229, 80.95004
1098.711, 80.10197
1099.193, 78.62632
1099.675, 77.81319
1100.157, 77.84483
1100.639, 77.90812
1101.121, 77.55925
1101.603, 77.56605
1102.086, 78.81489
1102.568, 79.75291
1103.050, 79.01131
1103.532, 77.59592
1104.014, 76.86527
1104.496, 76.90075
1104.978, 77.24171
1105.460, 78.07664
1105.943, 78.77013
1106.425, 79.07948
1106.907, 79.40360
1107.389, 80.25488
1107.871, 80.96102
1108.353, 80.69314
1108.835, 79.61843
1109.317, 78.53999
1109.799, 77.05691
1110.281, 76.71494
1110.764, 79.10315
1111.246, 80.68262
1111.728, 79.69740
1112.210, 78.22139
1112.692, 77.73678
1113.174, 78.04044
1113.656, 78.68105
1114.138, 79.84531
1114.621, 80.48031
1115.103, 80.18324
1115.585, 80.01662
1116.067, 80.30712
1116.549, 80.55607
1117.031, 80.49508
1117.513, 80.19547
1117.995, 79.66133
1118.478, 78.88541
1118.960, 78.74935
1119.442, 79.77840
1119.924, 80.17651
1120.406, 79.54677
1120.888, 78.75163
1121.370, 78.00756
1121.852, 77.51400
1122.334, 77.56826
1122.817, 78.05884
1123.299, 78.37472
1123.781, 78.47778
1124.263, 78.58546
1124.745, 78.75325
1125.227, 78.71986
1125.709, 78.35741
1126.191, 77.92021
1126.673, 77.61069
1127.156, 77.38946
1127.638, 77.12066
1128.120, 76.79133
1128.602, 76.89987
1129.084, 77.50515
1129.566, 77.92261
1130.048, 78.00040
1130.530, 78.04140
1131.013, 78.24754
1131.495, 78.33842
1131.977, 77.76742
1132.459, 76.79457
1132.941, 76.83353
1133.423, 77.79903
1133.905, 78.54784
1134.387, 78.94611
1134.870, 79.04470
1135.352, 78.86372
1135.834, 78.43679
1136.316, 77.72586
1136.798, 76.98306
1137.280, 76.75454
1137.762, 76.94962
1138.244, 77.34047
1138.726, 77.85484
1139.208, 78.33968
1139.691, 78.70876
1140.173, 78.58459
1140.655, 77.67168
1141.137, 76.70919
1141.619, 76.80756
1142.101, 77.37420
1142.583, 77.37167
1143.065, 76.98906
1143.548, 76.64539
1144.030, 76.40191
1144.512, 76.15918
1144.994, 75.88509
1145.476, 75.75146
1145.958, 75.99435
1146.440, 76.31369
1146.922, 76.34297
1147.405, 76.31901
1147.887, 76.57549
1148.369, 77.01081
1148.851, 77.40793
1149.333, 77.70216
1149.815, 77.85557
1150.297, 77.81767
1150.779, 77.72428
1151.261, 77.70927
1151.744, 77.60902
1152.226, 77.03854
1152.708, 76.50660
1153.190, 76.78484
1153.672, 77.63449
1154.154, 78.19214
1154.636, 78.26582
1155.118, 78.06300
1155.600, 77.36015
1156.083, 76.78128
1156.565, 76.44994
1157.047, 76.40864
1157.529, 76.80201
1158.011, 77.43929
1158.493, 78.16224
1158.975, 78.94812
1159.457, 79.15384
1159.940, 78.29223
1160.422, 77.57870
1160.904, 76.97124
1161.386, 76.62463
1161.868, 76.54354
1162.350, 76.82875
1162.832, 77.83269
1163.314, 79.15446
1163.796, 79.45053
1164.279, 78.43916
1164.761, 78.03745
1165.243, 78.52815
1165.725, 78.60802
1166.207, 77.92842
1166.689, 77.09408
1167.171, 76.35172
1167.653, 75.96484
1168.135, 76.43394
1168.618, 76.17885
1169.100, 76.47191
1169.582, 76.91051
1170.064, 77.01317
1170.546, 78.09460
1171.028, 78.35714
1171.510, 77.20364
1171.992, 76.39107
1172.474, 77.44497
1172.957, 79.09330
1173.439, 79.02341
1173.921, 77.79123
1174.403, 76.82813
1174.885, 76.19951
1175.367, 76.10092
1175.849, 76.45391
1176.331, 76.79021
1176.814, 76.90594
1177.296, 76.96571
1177.778, 77.10217
1178.260, 77.27490
1178.742, 77.40208
1179.224, 77.56277
1179.706, 78.09750
1180.188, 78.66138
1180.671, 78.36704
1181.153, 77.26525
1181.635, 76.54903
1182.117, 76.91868
1182.599, 77.07717
1183.081, 76.00676
1183.563, 74.89187
1184.045, 74.25512
1184.527, 74.12051
1185.010, 74.73519
1185.492, 75.76834
1185.974, 76.56329
1186.456, 77.03557
1186.938, 77.17717
1187.420, 76.28154
1187.902, 76.13075
1188.384, 78.18102
1188.866, 79.56326
1189.349, 78.33835
1189.831, 76.55496
1190.313, 76.51341
1190.795, 75.85657
1191.277, 75.46272
1191.759, 76.05055
1192.241, 75.41785
1192.723, 76.12048
1193.206, 76.43468
1193.688, 75.85983
1194.170, 75.47149
1194.652, 75.96141
1195.134, 75.72816
1195.616, 76.77508
1196.098, 76.40323
1196.580, 76.82594
1197.063, 77.88651
1197.545, 77.73965
1198.027, 76.43063
1198.509, 75.83741
1198.991, 76.43626
1199.473, 76.94417
1199.955, 76.44691
1200.437, 75.70284
1200.919, 75.79819
1201.401, 75.45895
1201.884, 76.06998
1202.366, 75.65712
1202.848, 75.98258
1203.330, 76.79356
1203.812, 76.95774
1204.294, 76.20254
1204.776, 75.49680
1205.258, 75.47826
1205.741, 75.51574
1206.223, 74.81698
1206.705, 74.43949
1207.187, 75.84582
1207.669, 77.57393
1208.151, 77.63205
1208.633, 76.38857
1209.115, 75.57391
1209.598, 75.54049
1210.080, 75.54051
1210.562, 75.44508
1211.044, 75.39700
1211.526, 75.63438
1212.008, 75.65891
1212.490, 75.15034
1212.972, 74.38622
1213.454, 73.50637
1213.937, 72.69475
1214.419, 73.03407
1214.901, 72.86264
1215.383, 72.78645
1215.865, 73.95620
1216.347, 73.47255
1216.829, 74.75558
1217.311, 76.38835
1217.793, 77.63412
1218.276, 78.11846
1218.758, 77.13334
1219.240, 75.27754
1219.722, 74.11632
1220.204, 73.56824
1220.686, 73.45293
1221.168, 73.67223
1221.650, 73.99334
1222.133, 74.33751
1222.615, 74.66525
1223.097, 74.95827
1223.579, 75.19494
1224.061, 75.46396
1224.543, 75.55132
1225.025, 75.01118
1225.507, 74.35882
1225.990, 74.33422
1226.472, 74.63351
1226.954, 74.40108
1227.436, 73.60953
1227.918, 73.41183
1228.400, 74.55941
1228.882, 75.43080
1229.364, 75.03105
1229.846, 75.10262
1230.328, 77.44621
1230.811, 79.35596
1231.293, 78.39776
1231.775, 75.88904
1232.257, 74.08955
1232.739, 73.00266
1233.221, 73.19688
1233.703, 75.04925
1234.185, 76.61111
1234.668, 77.82475
1235.150, 78.12406
1235.632, 77.24340
1236.114, 75.99507
1236.596, 74.91122
1237.078, 74.36227
1237.560, 75.54366
1238.042, 74.74771
1238.525, 74.66502
1239.007, 74.98479
1239.489, 74.23409
1239.971, 74.83438
1240.453, 75.48296
1240.935, 75.72942
1241.417, 75.57413
1241.899, 74.86703
1242.381, 74.29069
1242.864, 74.45545
1243.346, 74.89919
1243.828, 75.53169
1244.310, 75.98772
1244.792, 75.50953
1245.274, 74.66789
1245.756, 75.11693
1246.238, 77.06566
1246.720, 77.48890
1247.203, 73.79593
1247.685, 72.04736
1248.167, 74.14036
1248.649, 75.97389
1249.131, 76.34010
1249.613, 75.98479
1250.095, 75.29037
1250.577, 74.50218
1251.059, 74.10430
1251.542, 74.07131
1252.024, 74.01188
1252.506, 73.93047
1252.988, 74.79159
1253.470, 76.57677
1253.952, 77.13234
1254.434, 75.87806
1254.916, 74.69695
1255.399, 74.92119
1255.881, 75.66467
1256.363, 75.91521
1256.845, 75.92065
1257.327, 76.05534
1257.809, 76.17170
1258.291, 76.00385
1258.773, 75.63165
1259.255, 75.26096
1259.738, 74.93855
1260.220, 74.58093
1260.702, 73.95190
1261.184, 73.86494
1261.666, 75.20164
1262.148, 76.29794
1262.630, 76.48765
1263.112, 76.21117
1263.594, 75.66048
1264.077, 74.95152
1264.559, 74.21079
1265.041, 73.45985
1265.523, 72.82461
1266.005, 72.18859
1266.487, 72.58789
1266.969, 74.23512
1267.451, 74.91454
1267.934, 74.06458
1268.416, 73.67379
1268.898, 74.89748
1269.380, 76.35888
1269.862, 76.44825
1270.344, 75.69809
1270.826, 74.83792
1271.308, 73.99152
1271.791, 73.21822
1272.273, 72.72561
1272.755, 73.17098
1273.237, 74.31939
1273.719, 74.95493
1274.201, 74.63819
1274.683, 74.31036
1275.165, 74.19380
1275.647, 74.43357
1276.130, 75.72140
1276.612, 76.63677
1277.094, 75.89665
1277.576, 74.75495
1278.058, 74.67529
1278.540, 75.20383
1279.022, 74.91573
1279.504, 73.64279
1279.986, 74.35490
1280.469, 77.63348
1280.951, 78.44395
1281.433, 76.01879
1281.915, 74.04671
1282.397, 73.84969
1282.879, 74.54200
1283.361, 75.55210
1283.843, 76.25609
1284.326, 75.91330
1284.808, 74.51263
##END=



