##NAMES=Soddyite
##RRUFFID=R060407
##IDEAL CHEMISTRY=(U^6+^O_2_)_2_SiO_4_&#183;2H_2_O
##LOCALITY=Palette, Northern Territory, Australia
##OWNER=RRUFF
##SOURCE=American Museum of Natural History
##DESCRIPTION=Pale yellow consolidated earthy powder
##STATUS=The identification of this mineral has been confirmed by X-ray diffraction and chemical analysis
##URL=rruff.info/R060407
##MEASURED CHEMISTRY=(U_1.00_O_2_)_2_Si_1.00_O_4_Â·2H_2_O
158.1018, 3485.530
158.5839, 3489.668
159.0660, 3490.521
159.5481, 3489.809
160.0302, 3488.097
160.5123, 3485.692
160.9945, 3483.061
161.4766, 3481.139
161.9587, 3481.293
162.4408, 3479.984
162.9229, 3475.807
163.4050, 3470.951
163.8871, 3467.722
164.3693, 3466.950
164.8514, 3467.409
165.3335, 3466.105
165.8156, 3462.595
166.2977, 3457.985
166.7798, 3450.824
167.2620, 3442.883
167.7441, 3437.200
168.2262, 3435.419
168.7083, 3435.948
169.1904, 3434.132
169.6725, 3428.405
170.1547, 3423.645
170.6368, 3422.533
171.1189, 3424.156
171.6010, 3425.403
172.0831, 3424.863
172.5652, 3423.065
173.0474, 3421.262
173.5295, 3419.239
174.0116, 3417.612
174.4937, 3416.583
174.9758, 3416.149
175.4579, 3417.137
175.9401, 3421.848
176.4222, 3427.249
176.9043, 3429.830
177.3864, 3428.423
177.8685, 3425.392
178.3506, 3423.452
178.8328, 3422.606
179.3149, 3422.923
179.7970, 3425.539
180.2791, 3428.767
180.7612, 3431.180
181.2433, 3432.255
181.7255, 3432.343
182.2076, 3432.220
182.6897, 3432.120
183.1718, 3431.244
183.6539, 3428.565
184.1360, 3425.489
184.6181, 3423.771
185.1003, 3424.353
185.5824, 3426.229
186.0645, 3425.847
186.5466, 3421.589
187.0287, 3416.744
187.5108, 3411.433
187.9930, 3405.926
188.4751, 3400.411
188.9572, 3394.999
189.4393, 3389.789
189.9214, 3385.410
190.4035, 3383.251
190.8857, 3380.432
191.3678, 3375.700
191.8499, 3370.031
192.3320, 3365.147
192.8141, 3362.152
193.2962, 3360.780
193.7784, 3358.928
194.2605, 3356.274
194.7426, 3353.604
195.2247, 3351.964
195.7068, 3350.654
196.1889, 3347.204
196.6711, 3339.085
197.1532, 3328.047
197.6353, 3322.617
198.1174, 3327.746
198.5995, 3333.276
199.0816, 3332.817
199.5638, 3327.200
200.0459, 3322.262
200.5280, 3322.023
201.0101, 3324.796
201.4922, 3325.188
201.9743, 3320.645
202.4565, 3316.082
202.9386, 3316.715
203.4207, 3322.731
203.9028, 3327.607
204.3849, 3326.448
204.8670, 3322.413
205.3492, 3320.072
205.8313, 3320.924
206.3134, 3322.880
206.7955, 3323.299
207.2776, 3321.856
207.7597, 3320.384
208.2419, 3319.837
208.7240, 3319.633
209.2061, 3319.110
209.6882, 3317.830
210.1703, 3316.572
210.6524, 3317.167
211.1346, 3320.973
211.6167, 3322.990
212.0988, 3320.652
212.5809, 3316.385
213.0630, 3312.397
213.5451, 3309.608
214.0273, 3307.426
214.5094, 3304.384
214.9915, 3299.446
215.4736, 3295.589
215.9557, 3294.565
216.4378, 3294.217
216.9200, 3292.090
217.4021, 3287.051
217.8842, 3280.426
218.3663, 3276.146
218.8484, 3277.376
219.3305, 3276.384
219.8127, 3270.589
220.2948, 3262.999
220.7769, 3256.963
221.2590, 3254.010
221.7411, 3252.905
222.2232, 3250.003
222.7054, 3244.163
223.1875, 3237.634
223.6696, 3230.383
224.1517, 3222.570
224.6338, 3214.288
225.1159, 3205.547
225.5980, 3196.539
226.0802, 3187.825
226.5623, 3178.101
227.0444, 3170.330
227.5265, 3166.431
228.0086, 3164.132
228.4907, 3160.504
228.9729, 3154.278
229.4550, 3146.442
229.9371, 3139.533
230.4192, 3132.740
230.9013, 3127.981
231.3834, 3127.077
231.8656, 3128.083
232.3477, 3128.000
232.8298, 3125.573
233.3119, 3122.008
233.7940, 3120.029
234.2761, 3120.223
234.7583, 3120.132
235.2404, 3118.668
235.7225, 3116.578
236.2046, 3115.409
236.6867, 3115.940
237.1688, 3116.825
237.6510, 3115.162
238.1331, 3110.417
238.6152, 3106.810
239.0973, 3106.792
239.5794, 3108.844
240.0615, 3109.620
240.5437, 3107.957
241.0258, 3105.332
241.5079, 3103.969
241.9900, 3103.899
242.4721, 3103.034
242.9542, 3099.125
243.4364, 3093.748
243.9185, 3091.357
244.4006, 3093.936
244.8827, 3097.661
245.3648, 3098.649
245.8469, 3097.239
246.3290, 3095.436
246.8112, 3094.724
247.2933, 3094.428
247.7754, 3092.013
248.2575, 3085.706
248.7396, 3079.734
249.2217, 3077.943
249.7039, 3079.285
250.1860, 3080.316
250.6681, 3078.922
251.1502, 3075.690
251.6323, 3072.752
252.1144, 3070.250
252.5966, 3067.988
253.0787, 3066.155
253.5608, 3064.466
254.0429, 3062.208
254.5250, 3058.559
255.0071, 3054.024
255.4893, 3050.603
255.9714, 3048.949
256.4535, 3047.458
256.9356, 3045.640
257.4177, 3043.457
257.8998, 3040.741
258.3820, 3037.142
258.8641, 3033.075
259.3462, 3030.034
259.8283, 3028.389
260.3104, 3027.252
260.7925, 3026.743
261.2747, 3026.340
261.7568, 3025.320
262.2389, 3023.251
262.7210, 3020.471
263.2031, 3017.902
263.6852, 3015.450
264.1674, 3013.423
264.6495, 3011.380
265.1316, 3009.922
265.6137, 3010.103
266.0958, 3012.486
266.5779, 3015.771
267.0601, 3016.685
267.5422, 3013.482
268.0243, 3010.992
268.5064, 3010.048
268.9885, 3009.944
269.4706, 3010.362
269.9528, 3011.145
270.4349, 3011.759
270.9170, 3010.978
271.3991, 3007.425
271.8812, 3005.244
272.3633, 3005.544
272.8455, 3006.552
273.3276, 3006.878
273.8097, 3006.207
274.2918, 3005.237
274.7739, 3005.335
275.2560, 3008.393
275.7382, 3008.256
276.2202, 3002.392
276.7024, 2995.910
277.1845, 2991.823
277.6666, 2990.607
278.1487, 2991.053
278.6308, 2991.816
279.1129, 2993.034
279.5951, 2994.035
280.0772, 2994.818
280.5593, 2995.411
281.0414, 2996.155
281.5235, 2996.831
282.0056, 2996.675
282.4878, 2994.844
282.9699, 2991.027
283.4520, 2987.676
283.9341, 2984.240
284.4162, 2981.711
284.8983, 2981.583
285.3805, 2982.880
285.8626, 2983.011
286.3447, 2979.767
286.8268, 2973.251
287.3089, 2968.602
287.7910, 2968.366
288.2732, 2967.149
288.7553, 2962.054
289.2374, 2954.935
289.7195, 2949.603
290.2016, 2948.499
290.6837, 2950.714
291.1659, 2951.187
291.6480, 2948.602
292.1301, 2945.790
292.6122, 2942.966
293.0943, 2940.223
293.5764, 2937.564
294.0586, 2934.960
294.5407, 2932.609
295.0228, 2931.048
295.5049, 2931.626
295.9870, 2931.359
296.4691, 2929.684
296.9513, 2927.321
297.4334, 2925.351
297.9155, 2924.086
298.3976, 2922.375
298.8797, 2918.056
299.3618, 2907.700
299.8440, 2901.439
300.3261, 2902.862
300.8082, 2906.075
301.2903, 2906.092
301.7724, 2902.091
302.2545, 2896.876
302.7367, 2893.841
303.2188, 2894.024
303.7009, 2892.208
304.1830, 2886.698
304.6651, 2880.732
305.1472, 2876.725
305.6294, 2874.449
306.1115, 2871.661
306.5936, 2866.238
307.0757, 2857.934
307.5578, 2851.499
308.0399, 2848.442
308.5221, 2845.393
309.0042, 2841.243
309.4863, 2835.935
309.9684, 2829.350
310.4505, 2821.138
310.9326, 2811.821
311.4148, 2805.399
311.8969, 2804.724
312.3790, 2803.165
312.8611, 2798.346
313.3432, 2791.777
313.8253, 2785.844
314.3075, 2781.647
314.7896, 2778.753
315.2717, 2776.099
315.7538, 2775.052
316.2359, 2772.259
316.7180, 2765.443
317.2001, 2757.638
317.6823, 2752.389
318.1644, 2750.663
318.6465, 2750.583
319.1286, 2749.289
319.6107, 2745.757
320.0928, 2743.518
320.5750, 2743.600
321.0571, 2744.182
321.5392, 2743.923
322.0213, 2742.647
322.5034, 2740.916
322.9855, 2739.339
323.4677, 2737.989
323.9498, 2735.834
324.4319, 2731.169
324.9140, 2727.356
325.3961, 2726.913
325.8782, 2728.941
326.3604, 2730.393
326.8425, 2728.995
327.3246, 2725.114
327.8067, 2722.840
328.2888, 2723.605
328.7709, 2724.158
329.2531, 2723.479
329.7352, 2722.115
330.2173, 2721.183
330.6994, 2721.270
331.1815, 2721.703
331.6636, 2720.604
332.1458, 2715.468
332.6279, 2711.914
333.1100, 2710.876
333.5921, 2711.132
334.0742, 2711.276
334.5563, 2710.979
335.0385, 2711.316
335.5206, 2714.149
336.0027, 2721.783
336.4848, 2725.723
336.9669, 2723.231
337.4490, 2719.635
337.9312, 2718.858
338.4133, 2720.731
338.8954, 2722.047
339.3775, 2719.497
339.8596, 2712.508
340.3417, 2708.809
340.8239, 2710.658
341.3060, 2712.950
341.7881, 2713.917
342.2702, 2713.940
342.7523, 2714.120
343.2344, 2715.147
343.7166, 2716.819
344.1987, 2718.156
344.6808, 2720.200
345.1629, 2720.570
345.6450, 2717.514
346.1271, 2713.290
346.6093, 2710.346
347.0914, 2709.604
347.5735, 2710.302
348.0556, 2711.215
348.5377, 2713.554
349.0198, 2713.785
349.5020, 2709.871
349.9841, 2705.688
350.4662, 2704.164
350.9483, 2705.423
351.4304, 2707.413
351.9125, 2707.846
352.3947, 2706.373
352.8768, 2705.726
353.3589, 2706.142
353.8410, 2707.129
354.3231, 2709.269
354.8052, 2711.832
355.2874, 2713.524
355.7695, 2713.490
356.2516, 2711.816
356.7337, 2708.795
357.2158, 2701.532
357.6979, 2697.007
358.1800, 2697.580
358.6621, 2700.851
359.1443, 2704.597
359.6264, 2707.968
360.1085, 2710.646
360.5906, 2711.911
361.0727, 2711.141
361.5548, 2710.590
362.0370, 2710.666
362.5191, 2710.895
363.0012, 2711.099
363.4833, 2711.204
363.9654, 2711.085
364.4475, 2710.278
364.9297, 2708.659
365.4118, 2708.427
365.8939, 2710.910
366.3760, 2713.368
366.8581, 2714.341
367.3402, 2714.465
367.8224, 2715.156
368.3045, 2717.395
368.7866, 2720.624
369.2687, 2723.310
369.7508, 2725.556
370.2329, 2726.962
370.7151, 2726.801
371.1972, 2726.109
371.6793, 2725.983
372.1614, 2726.806
372.6435, 2727.778
373.1256, 2727.935
373.6078, 2727.251
374.0899, 2726.202
374.5720, 2723.890
375.0541, 2722.195
375.5362, 2722.983
376.0183, 2726.012
376.5005, 2728.775
376.9826, 2728.613
377.4647, 2726.708
377.9468, 2727.987
378.4289, 2734.262
378.9110, 2740.289
379.3932, 2742.623
379.8753, 2742.225
380.3574, 2740.450
380.8395, 2736.363
381.3216, 2732.315
381.8037, 2731.695
382.2859, 2734.573
382.7680, 2737.431
383.2501, 2739.154
383.7322, 2739.639
384.2143, 2738.809
384.6964, 2736.314
385.1786, 2733.805
385.6607, 2732.150
386.1428, 2731.235
386.6249, 2730.913
387.1070, 2731.396
387.5891, 2731.821
388.0713, 2730.827
388.5534, 2728.581
389.0355, 2726.974
389.5176, 2726.834
389.9997, 2727.238
390.4818, 2727.387
390.9640, 2727.215
391.4461, 2726.754
391.9282, 2726.019
392.4103, 2724.982
392.8924, 2723.643
393.3745, 2720.906
393.8567, 2719.044
394.3388, 2719.609
394.8209, 2721.585
395.3030, 2722.978
395.7851, 2723.020
396.2672, 2722.342
396.7494, 2722.119
397.2315, 2722.903
397.7136, 2722.699
398.1957, 2720.194
398.6778, 2717.464
399.1599, 2716.574
399.6420, 2717.490
400.1241, 2718.406
400.6063, 2717.678
401.0884, 2715.250
401.5705, 2713.165
402.0526, 2711.950
402.5347, 2710.483
403.0168, 2708.383
403.4990, 2705.837
403.9811, 2703.037
404.4632, 2700.080
404.9453, 2697.285
405.4274, 2695.540
405.9095, 2696.383
406.3917, 2695.692
406.8738, 2692.271
407.3559, 2688.250
407.8380, 2684.187
408.3201, 2680.724
408.8022, 2679.530
409.2844, 2683.114
409.7665, 2691.966
410.2486, 2697.231
410.7307, 2696.679
411.2128, 2694.586
411.6949, 2690.404
412.1771, 2685.871
412.6592, 2683.900
413.1413, 2686.293
413.6234, 2690.745
414.1055, 2692.038
414.5876, 2688.961
415.0698, 2686.424
415.5519, 2686.795
416.0340, 2687.311
416.5161, 2685.199
416.9982, 2680.415
417.4803, 2676.866
417.9625, 2679.152
418.4446, 2686.197
418.9267, 2690.384
419.4088, 2690.054
419.8909, 2688.855
420.3730, 2688.928
420.8552, 2689.894
421.3373, 2691.065
421.8194, 2692.361
422.3015, 2693.601
422.7836, 2694.712
423.2657, 2695.683
423.7479, 2695.909
424.2300, 2694.606
424.7121, 2692.914
425.1942, 2692.913
425.6763, 2695.111
426.1584, 2696.392
426.6406, 2693.775
427.1227, 2689.849
427.6048, 2689.787
428.0869, 2694.716
428.5690, 2699.886
429.0511, 2700.668
429.5333, 2697.011
430.0154, 2694.953
430.4975, 2696.493
430.9796, 2697.765
431.4617, 2695.478
431.9438, 2691.121
432.4260, 2688.881
432.9081, 2690.929
433.3902, 2695.432
433.8723, 2698.101
434.3544, 2698.006
434.8365, 2697.436
435.3187, 2695.225
435.8008, 2693.363
436.2829, 2694.082
436.7650, 2697.240
437.2471, 2700.575
437.7292, 2702.060
438.2114, 2701.683
438.6935, 2700.173
439.1756, 2695.861
439.6577, 2692.288
440.1398, 2689.994
440.6219, 2689.033
441.1040, 2690.054
441.5862, 2693.312
442.0683, 2696.908
442.5504, 2696.911
443.0325, 2691.663
443.5146, 2687.970
443.9967, 2688.102
444.4789, 2688.543
444.9610, 2687.427
445.4431, 2684.930
445.9252, 2682.305
446.4073, 2680.409
446.8894, 2679.109
447.3716, 2677.841
447.8537, 2676.381
448.3358, 2675.486
448.8179, 2675.568
449.3000, 2676.326
449.7821, 2677.877
450.2643, 2680.581
450.7464, 2682.417
451.2285, 2681.088
451.7106, 2677.178
452.1927, 2673.704
452.6748, 2671.442
453.1570, 2669.389
453.6391, 2665.690
454.1212, 2660.930
454.6033, 2658.469
455.0854, 2661.687
455.5675, 2665.617
456.0497, 2665.712
456.5318, 2662.289
457.0139, 2657.787
457.4960, 2653.141
457.9781, 2648.587
458.4602, 2644.883
458.9424, 2642.763
459.4245, 2639.854
459.9066, 2635.094
460.3887, 2629.729
460.8708, 2625.002
461.3529, 2621.099
461.8351, 2617.520
462.3172, 2613.753
462.7993, 2609.802
463.2814, 2606.214
463.7635, 2603.445
464.2456, 2600.483
464.7278, 2596.923
465.2099, 2593.031
465.6920, 2589.093
466.1741, 2585.215
466.6562, 2581.578
467.1383, 2578.664
467.6205, 2576.970
468.1026, 2574.358
468.5847, 2570.051
469.0668, 2565.442
469.5489, 2560.998
470.0310, 2556.773
470.5132, 2552.771
470.9953, 2548.977
471.4774, 2545.430
471.9595, 2542.136
472.4416, 2538.986
472.9237, 2536.569
473.4059, 2536.105
473.8880, 2535.889
474.3701, 2534.394
474.8522, 2531.448
475.3343, 2527.767
475.8164, 2522.962
476.2986, 2517.857
476.7807, 2514.786
477.2628, 2514.337
477.7449, 2514.154
478.2270, 2512.400
478.7091, 2509.406
479.1913, 2506.752
479.6734, 2504.130
480.1555, 2502.275
480.6376, 2502.504
481.1197, 2503.672
481.6018, 2503.169
482.0839, 2500.078
482.5660, 2495.899
483.0482, 2492.613
483.5303, 2490.374
484.0124, 2488.709
484.4945, 2488.255
484.9766, 2487.741
485.4587, 2486.492
485.9409, 2484.616
486.4230, 2482.549
486.9051, 2480.538
487.3872, 2478.425
487.8693, 2475.583
488.3514, 2470.455
488.8336, 2467.598
489.3157, 2469.376
489.7978, 2471.573
490.2799, 2471.106
490.7620, 2468.144
491.2441, 2465.097
491.7263, 2464.237
492.2084, 2464.888
492.6905, 2463.452
493.1726, 2458.790
493.6547, 2454.819
494.1368, 2453.063
494.6190, 2452.888
495.1011, 2454.600
495.5832, 2458.682
496.0653, 2461.191
496.5474, 2457.577
497.0295, 2449.948
497.5117, 2444.785
497.9938, 2443.257
498.4759, 2443.259
498.9580, 2443.808
499.4401, 2444.559
499.9222, 2443.879
500.4044, 2440.352
500.8865, 2436.712
501.3686, 2434.352
501.8507, 2432.884
502.3328, 2431.489
502.8149, 2429.899
503.2971, 2428.290
503.7792, 2426.962
504.2613, 2426.124
504.7434, 2424.769
505.2255, 2422.000
505.7076, 2419.680
506.1898, 2419.039
506.6719, 2419.506
507.1540, 2419.921
507.6361, 2419.693
508.1182, 2418.927
508.6003, 2417.906
509.0825, 2416.813
509.5646, 2414.964
510.0467, 2410.629
510.5288, 2406.941
511.0109, 2406.477
511.4930, 2408.404
511.9752, 2409.404
512.4573, 2406.925
512.9394, 2402.443
513.4215, 2399.253
513.9036, 2397.426
514.3857, 2396.406
514.8679, 2396.633
515.3500, 2397.083
515.8321, 2396.418
516.3142, 2394.512
516.7963, 2392.390
517.2784, 2390.150
517.7606, 2388.100
518.2427, 2386.687
518.7248, 2385.940
519.2069, 2385.666
519.6890, 2385.925
520.1711, 2386.487
520.6533, 2386.153
521.1354, 2384.657
521.6175, 2382.786
522.0996, 2380.155
522.5817, 2377.505
523.0638, 2375.659
523.5460, 2374.710
524.0281, 2374.133
524.5102, 2373.420
524.9923, 2372.585
525.4744, 2372.204
525.9565, 2372.873
526.4387, 2373.223
526.9208, 2372.700
527.4029, 2371.888
527.8850, 2371.584
528.3671, 2371.945
528.8492, 2372.055
529.3314, 2370.829
529.8135, 2368.399
530.2956, 2365.949
530.7777, 2363.403
531.2598, 2361.166
531.7419, 2359.272
532.2241, 2357.911
532.7062, 2357.594
533.1883, 2358.946
533.6704, 2360.289
534.1525, 2361.003
534.6346, 2360.806
535.1168, 2358.187
535.5989, 2352.503
536.0810, 2347.709
536.5631, 2348.531
537.0452, 2355.311
537.5273, 2358.142
538.0095, 2353.657
538.4916, 2349.364
538.9737, 2348.028
539.4558, 2348.628
539.9379, 2349.888
540.4200, 2351.275
540.9022, 2352.140
541.3843, 2351.374
541.8664, 2348.537
542.3485, 2346.605
542.8306, 2346.895
543.3127, 2346.704
543.7948, 2344.219
544.2769, 2341.007
544.7590, 2339.721
545.2411, 2341.515
545.7233, 2344.100
546.2054, 2344.552
546.6875, 2343.011
547.1696, 2341.407
547.6517, 2339.577
548.1339, 2338.572
548.6160, 2340.218
549.0981, 2343.496
549.5802, 2345.519
550.0623, 2345.370
550.5444, 2344.209
551.0266, 2342.128
551.5087, 2339.640
551.9908, 2338.138
552.4729, 2338.087
552.9550, 2338.218
553.4371, 2336.743
553.9193, 2333.070
554.4014, 2331.528
554.8835, 2334.069
555.3656, 2336.286
555.8477, 2336.185
556.3298, 2334.894
556.8120, 2334.318
557.2941, 2335.124
557.7762, 2336.191
558.2583, 2335.557
558.7404, 2332.836
559.2225, 2331.793
559.7047, 2334.122
560.1868, 2336.037
560.6689, 2335.088
561.1510, 2332.740
561.6331, 2331.618
562.1152, 2332.870
562.5974, 2334.473
563.0795, 2334.622
563.5616, 2333.570
564.0437, 2332.179
564.5258, 2330.558
565.0079, 2328.848
565.4901, 2327.005
565.9722, 2325.114
566.4543, 2324.048
566.9364, 2323.874
567.4185, 2324.458
567.9006, 2326.798
568.3828, 2329.485
568.8649, 2330.282
569.3470, 2328.735
569.8291, 2326.513
570.3112, 2325.566
570.7933, 2325.981
571.2755, 2326.106
571.7576, 2326.346
572.2397, 2325.711
572.7218, 2322.686
573.2039, 2319.315
573.6860, 2318.180
574.1682, 2319.860
574.6503, 2322.087
575.1324, 2322.754
575.6145, 2322.142
576.0966, 2321.505
576.5787, 2320.929
577.0609, 2320.271
577.5430, 2319.481
578.0251, 2318.528
578.5072, 2317.390
578.9893, 2316.049
579.4714, 2314.563
579.9536, 2312.376
580.4357, 2310.368
580.9178, 2310.191
581.3999, 2311.708
581.8820, 2312.595
582.3641, 2310.969
582.8463, 2307.312
583.3284, 2304.365
583.8105, 2302.241
584.2926, 2300.755
584.7747, 2300.747
585.2568, 2300.702
585.7390, 2299.208
586.2211, 2296.437
586.7032, 2293.751
587.1853, 2292.095
587.6674, 2291.239
588.1495, 2291.035
588.6317, 2291.851
589.1138, 2290.793
589.5959, 2285.113
590.0780, 2278.878
590.5601, 2277.495
591.0422, 2280.853
591.5244, 2283.073
592.0065, 2282.610
592.4886, 2280.050
592.9707, 2274.638
593.4528, 2267.410
593.9349, 2261.328
594.4171, 2257.635
594.8992, 2256.350
595.3813, 2257.912
595.8634, 2264.412
596.3455, 2267.460
596.8276, 2265.884
597.3098, 2262.606
597.7919, 2257.764
598.2740, 2252.330
598.7561, 2247.615
599.2382, 2244.152
599.7203, 2241.540
600.2025, 2239.471
600.6846, 2237.920
601.1667, 2236.060
601.6488, 2233.957
602.1309, 2231.285
602.6130, 2226.994
603.0952, 2222.098
603.5773, 2218.897
604.0594, 2218.466
604.5415, 2218.273
605.0236, 2216.888
605.5057, 2214.974
605.9879, 2213.895
606.4700, 2213.727
606.9521, 2212.746
607.4342, 2209.261
607.9163, 2203.792
608.3984, 2200.286
608.8806, 2199.805
609.3627, 2199.942
609.8448, 2201.355
610.3269, 2202.624
610.8090, 2202.737
611.2911, 2201.613
611.7733, 2199.547
612.2554, 2196.256
612.7375, 2192.602
613.2196, 2190.675
613.7017, 2190.585
614.1838, 2191.117
614.6660, 2192.544
615.1481, 2193.698
615.6302, 2192.998
616.1123, 2190.593
616.5944, 2188.181
617.0765, 2186.114
617.5587, 2184.158
618.0408, 2182.281
618.5229, 2180.381
619.0050, 2177.969
619.4871, 2174.901
619.9692, 2172.315
620.4514, 2172.120
620.9335, 2174.986
621.4156, 2175.017
621.8977, 2168.452
622.3798, 2163.464
622.8619, 2163.756
623.3441, 2165.907
623.8262, 2165.537
624.3083, 2161.687
624.7904, 2157.977
625.2725, 2158.079
625.7546, 2160.622
626.2367, 2161.909
626.7188, 2161.726
627.2009, 2160.664
627.6830, 2158.629
628.1652, 2156.228
628.6473, 2155.004
629.1294, 2155.505
629.6115, 2155.246
630.0936, 2153.231
630.5757, 2150.878
631.0579, 2148.986
631.5400, 2147.636
632.0221, 2146.798
632.5042, 2146.471
632.9863, 2146.432
633.4684, 2146.328
633.9506, 2146.199
634.4327, 2145.719
634.9148, 2144.089
635.3969, 2143.126
635.8790, 2144.778
636.3611, 2147.362
636.8433, 2147.565
637.3254, 2143.659
637.8075, 2140.198
638.2896, 2142.222
638.7717, 2146.518
639.2538, 2146.042
639.7360, 2139.994
640.2181, 2133.999
640.7002, 2132.154
641.1823, 2133.368
641.6644, 2133.179
642.1465, 2129.903
642.6287, 2127.530
643.1108, 2126.084
643.5929, 2125.589
644.0750, 2126.777
644.5571, 2128.953
645.0392, 2130.275
645.5214, 2129.555
646.0035, 2128.045
646.4856, 2128.030
646.9677, 2129.505
647.4498, 2130.399
647.9319, 2130.179
648.4141, 2129.668
648.8962, 2129.749
649.3783, 2130.104
649.8604, 2129.515
650.3425, 2126.719
650.8246, 2124.524
651.3068, 2124.378
651.7889, 2125.245
652.2710, 2125.957
652.7531, 2126.309
653.2352, 2126.658
653.7173, 2127.365
654.1995, 2128.149
654.6816, 2127.654
655.1637, 2124.949
655.6458, 2123.198
656.1279, 2123.672
656.6100, 2124.621
657.0922, 2125.083
657.5743, 2125.179
658.0564, 2125.478
658.5385, 2126.164
659.0206, 2127.189
659.5027, 2129.443
659.9849, 2131.985
660.4670, 2131.421
660.9491, 2126.868
661.4312, 2122.366
661.9133, 2121.716
662.3954, 2124.624
662.8776, 2126.802
663.3597, 2127.692
663.8418, 2128.591
664.3239, 2130.206
664.8060, 2131.458
665.2881, 2131.015
665.7703, 2129.252
666.2524, 2127.944
666.7345, 2128.277
667.2166, 2129.610
667.6987, 2130.765
668.1808, 2131.756
668.6630, 2133.255
669.1451, 2135.776
669.6272, 2137.946
670.1093, 2138.040
670.5914, 2136.273
671.0735, 2135.637
671.5557, 2136.293
672.0378, 2137.910
672.5199, 2141.254
673.0020, 2144.975
673.4841, 2147.777
673.9662, 2149.403
674.4484, 2150.051
674.9305, 2149.737
675.4126, 2148.788
675.8947, 2148.125
676.3768, 2147.572
676.8589, 2148.214
677.3411, 2151.210
677.8232, 2154.449
678.3053, 2156.741
678.7874, 2157.973
679.2695, 2157.561
679.7516, 2154.228
680.2338, 2150.682
680.7159, 2148.197
681.1980, 2146.655
681.6801, 2146.030
682.1622, 2146.224
682.6443, 2146.712
683.1265, 2147.038
683.6086, 2147.321
684.0907, 2148.302
684.5728, 2150.729
685.0549, 2152.165
685.5370, 2150.951
686.0192, 2149.801
686.5013, 2150.652
686.9834, 2152.865
687.4655, 2154.525
687.9476, 2155.243
688.4297, 2154.578
688.9119, 2151.070
689.3940, 2146.063
689.8761, 2142.522
690.3582, 2140.979
690.8403, 2141.255
691.3224, 2143.646
691.8046, 2147.389
692.2867, 2148.793
692.7688, 2146.023
693.2509, 2143.866
693.7330, 2143.145
694.2151, 2142.523
694.6973, 2140.420
695.1794, 2137.828
695.6615, 2137.681
696.1436, 2142.100
696.6257, 2146.352
697.1078, 2143.809
697.5900, 2136.662
698.0721, 2132.953
698.5542, 2134.002
699.0363, 2135.651
699.5184, 2135.208
700.0005, 2133.142
700.4827, 2131.100
700.9648, 2128.661
701.4469, 2126.951
701.9290, 2126.586
702.4111, 2126.380
702.8932, 2125.439
703.3754, 2124.144
703.8575, 2123.390
704.3396, 2123.571
704.8217, 2124.134
705.3038, 2124.606
705.7859, 2124.926
706.2681, 2124.541
706.7502, 2123.236
707.2323, 2122.495
707.7144, 2123.193
708.1965, 2124.943
708.6786, 2127.021
709.1607, 2129.857
709.6428, 2131.743
710.1249, 2132.249
710.6071, 2132.097
711.0892, 2131.505
711.5713, 2130.602
712.0534, 2129.072
712.5355, 2126.913
713.0176, 2125.820
713.4998, 2128.691
713.9819, 2134.527
714.4640, 2137.890
714.9461, 2138.506
715.4282, 2137.653
715.9103, 2134.406
716.3925, 2131.574
716.8746, 2134.735
717.3567, 2144.920
717.8388, 2151.292
718.3209, 2149.488
718.8030, 2147.436
719.2852, 2149.628
719.7673, 2153.492
720.2494, 2154.701
720.7315, 2152.655
721.2136, 2151.147
721.6957, 2154.176
722.1779, 2160.246
722.6600, 2163.790
723.1421, 2164.505
723.6242, 2165.495
724.1063, 2167.813
724.5884, 2170.418
725.0706, 2171.925
725.5527, 2172.499
726.0348, 2174.140
726.5169, 2178.361
726.9990, 2181.961
727.4811, 2183.214
727.9633, 2183.739
728.4454, 2184.997
728.9275, 2187.284
729.4096, 2190.654
729.8917, 2195.467
730.3738, 2200.541
730.8560, 2202.843
731.3381, 2202.258
731.8202, 2203.130
732.3023, 2206.625
732.7844, 2210.506
733.2665, 2212.922
733.7487, 2214.426
734.2308, 2217.155
734.7129, 2221.906
735.1950, 2226.333
735.6771, 2229.964
736.1592, 2233.117
736.6414, 2236.184
737.1235, 2238.999
737.6056, 2241.001
738.0877, 2241.935
738.5698, 2242.484
739.0519, 2243.444
739.5341, 2244.821
740.0162, 2246.880
740.4983, 2249.781
740.9804, 2252.576
741.4625, 2254.681
741.9446, 2256.477
742.4268, 2258.462
742.9089, 2260.369
743.3910, 2263.681
743.8731, 2269.546
744.3552, 2275.717
744.8373, 2282.279
745.3195, 2287.954
745.8016, 2290.353
746.2837, 2289.357
746.7658, 2288.437
747.2479, 2291.459
747.7300, 2296.438
748.2122, 2296.936
748.6943, 2292.860
749.1764, 2291.720
749.6585, 2296.603
750.1406, 2302.460
750.6227, 2303.589
751.1049, 2300.215
751.5870, 2300.396
752.0691, 2307.540
752.5512, 2313.328
753.0333, 2315.664
753.5154, 2316.572
753.9976, 2317.621
754.4797, 2318.824
754.9618, 2319.172
755.4439, 2317.675
755.9260, 2316.814
756.4081, 2321.304
756.8903, 2329.440
757.3724, 2333.674
757.8545, 2332.930
758.3366, 2331.186
758.8187, 2330.527
759.3008, 2331.009
759.7830, 2332.860
760.2651, 2336.905
760.7472, 2340.427
761.2293, 2342.697
761.7114, 2345.307
762.1935, 2350.364
762.6757, 2355.487
763.1578, 2356.667
763.6399, 2353.204
764.1220, 2350.390
764.6041, 2352.557
765.0862, 2357.361
765.5684, 2361.549
766.0505, 2365.171
766.5326, 2369.036
767.0147, 2373.491
767.4968, 2376.747
767.9789, 2376.223
768.4611, 2372.234
768.9432, 2372.773
769.4253, 2382.231
769.9074, 2388.652
770.3895, 2387.386
770.8716, 2385.105
771.3538, 2386.274
771.8359, 2390.192
772.3180, 2393.876
772.8001, 2396.460
773.2822, 2398.431
773.7643, 2399.973
774.2465, 2401.183
774.7286, 2401.981
775.2107, 2402.531
775.6928, 2403.531
776.1749, 2405.406
776.6570, 2407.725
777.1392, 2409.492
777.6213, 2411.829
778.1034, 2412.611
778.5855, 2416.523
779.0676, 2420.108
779.5497, 2422.829
780.0319, 2424.434
780.5140, 2423.706
780.9961, 2420.308
781.4782, 2419.715
781.9603, 2426.949
782.4424, 2433.371
782.9246, 2432.289
783.4067, 2427.957
783.8888, 2426.824
784.3709, 2429.957
784.8530, 2434.235
785.3351, 2437.396
785.8173, 2439.627
786.2994, 2441.281
786.7815, 2442.347
787.2636, 2443.437
787.7457, 2445.097
788.2278, 2445.213
788.7100, 2441.179
789.1921, 2434.550
789.6742, 2431.625
790.1563, 2434.630
790.6384, 2437.094
791.1205, 2439.482
791.6026, 2440.470
792.0847, 2438.237
792.5668, 2434.501
793.0490, 2432.178
793.5311, 2432.116
794.0132, 2432.448
794.4953, 2431.704
794.9774, 2430.314
795.4595, 2429.066
795.9417, 2427.892
796.4238, 2426.224
796.9059, 2423.816
797.3880, 2421.492
797.8701, 2420.163
798.3522, 2419.755
798.8344, 2419.461
799.3165, 2418.653
799.7986, 2419.081
800.2807, 2421.951
800.7628, 2425.262
801.2449, 2428.069
801.7271, 2430.349
802.2092, 2431.929
802.6913, 2431.949
803.1734, 2433.340
803.6555, 2438.419
804.1376, 2445.066
804.6198, 2451.362
805.1019, 2457.131
805.5840, 2462.740
806.0661, 2468.318
806.5482, 2473.523
807.0303, 2477.457
807.5125, 2480.414
807.9946, 2484.841
808.4767, 2490.732
808.9588, 2498.554
809.4409, 2509.285
809.9230, 2520.559
810.4052, 2528.750
810.8873, 2533.916
811.3694, 2544.047
811.8515, 2562.816
812.3336, 2581.372
812.8157, 2596.190
813.2979, 2611.554
813.7800, 2631.230
814.2621, 2654.288
814.7442, 2677.446
815.2263, 2699.235
815.7084, 2720.898
816.1906, 2744.113
816.6727, 2767.638
817.1548, 2787.670
817.6369, 2804.781
818.1190, 2825.249
818.6011, 2852.130
819.0833, 2880.788
819.5654, 2904.345
820.0475, 2922.611
820.5296, 2942.142
821.0117, 2964.058
821.4938, 2985.208
821.9760, 3003.878
822.4581, 3022.187
822.9402, 3042.728
823.4223, 3064.603
823.9044, 3083.424
824.3865, 3097.214
824.8687, 3109.473
825.3508, 3122.089
825.8329, 3133.485
826.3150, 3142.863
826.7971, 3149.565
827.2792, 3152.694
827.7614, 3151.883
828.2435, 3146.676
828.7256, 3136.644
829.2077, 3121.762
829.6898, 3101.628
830.1719, 3076.356
830.6541, 3047.104
831.1362, 3014.237
831.6183, 2977.800
832.1004, 2936.995
832.5825, 2892.111
833.0646, 2848.207
833.5468, 2805.520
834.0289, 2763.946
834.5110, 2723.424
834.9931, 2684.320
835.4752, 2646.356
835.9573, 2609.813
836.4395, 2574.745
836.9216, 2540.663
837.4037, 2509.832
837.8858, 2484.360
838.3679, 2461.866
838.8500, 2440.511
839.3322, 2419.855
839.8143, 2399.128
840.2964, 2378.204
840.7785, 2358.332
841.2606, 2341.125
841.7427, 2326.225
842.2249, 2312.628
842.7070, 2300.440
843.1891, 2288.360
843.6712, 2276.173
844.1533, 2263.937
844.6354, 2251.614
845.1176, 2239.352
845.5997, 2228.008
846.0818, 2217.957
846.5639, 2208.328
847.0460, 2200.103
847.5281, 2191.204
848.0103, 2180.081
848.4924, 2167.866
848.9745, 2155.702
849.4566, 2143.827
849.9387, 2134.170
850.4208, 2130.073
850.9030, 2126.467
851.3851, 2117.979
851.8672, 2106.758
852.3493, 2096.684
852.8314, 2088.731
853.3135, 2082.453
853.7957, 2077.888
854.2778, 2073.892
854.7599, 2067.501
855.2420, 2058.774
855.7241, 2051.611
856.2062, 2046.810
856.6884, 2041.603
857.1705, 2034.094
857.6526, 2025.882
858.1347, 2020.170
858.6168, 2018.016
859.0989, 2013.557
859.5811, 2004.493
860.0632, 1996.138
860.5453, 1989.824
861.0274, 1984.581
861.5095, 1979.427
861.9916, 1974.460
862.4738, 1970.598
862.9559, 1968.739
863.4380, 1966.871
863.9201, 1963.926
864.4022, 1960.122
864.8843, 1955.073
865.3665, 1949.413
865.8486, 1945.148
866.3307, 1943.095
866.8128, 1941.707
867.2949, 1939.107
867.7770, 1935.584
868.2592, 1932.229
868.7413, 1929.047
869.2234, 1926.414
869.7055, 1924.417
870.1876, 1923.100
870.6697, 1922.755
871.1519, 1923.062
871.6340, 1922.182
872.1161, 1919.104
872.5981, 1916.746
873.0803, 1915.874
873.5624, 1915.032
874.0445, 1914.050
874.5266, 1912.516
875.0087, 1909.697
875.4908, 1905.453
875.9730, 1900.998
876.4551, 1895.365
876.9372, 1891.168
877.4193, 1890.517
877.9014, 1892.024
878.3835, 1895.191
878.8657, 1898.804
879.3478, 1899.007
879.8299, 1892.751
880.3120, 1885.128
880.7941, 1883.715
881.2762, 1886.699
881.7584, 1888.605
882.2405, 1888.978
882.7226, 1887.884
883.2047, 1885.208
883.6868, 1882.211
884.1689, 1880.661
884.6511, 1880.504
885.1332, 1880.121
885.6153, 1879.401
886.0974, 1878.773
886.5795, 1878.685
887.0616, 1878.202
887.5438, 1876.148
888.0259, 1873.128
888.5080, 1870.978
888.9901, 1869.936
889.4722, 1869.252
889.9543, 1868.457
890.4365, 1868.366
890.9186, 1870.884
891.4007, 1873.586
891.8828, 1872.467
892.3649, 1867.480
892.8470, 1863.466
893.3292, 1863.979
893.8113, 1865.588
894.2934, 1865.103
894.7755, 1863.394
895.2576, 1862.123
895.7397, 1861.278
896.2219, 1859.478
896.7040, 1855.986
897.1861, 1852.020
897.6682, 1849.255
898.1503, 1847.642
898.6324, 1846.835
899.1146, 1846.896
899.5967, 1846.850
900.0788, 1846.311
900.5609, 1845.989
901.0430, 1846.911
901.5251, 1848.590
902.0073, 1847.798
902.4894, 1842.183
902.9715, 1838.917
903.4536, 1840.394
903.9357, 1841.877
904.4178, 1841.103
904.9000, 1839.175
905.3821, 1837.475
905.8642, 1836.110
906.3463, 1835.100
906.8284, 1834.578
907.3105, 1834.258
907.7927, 1833.987
908.2748, 1833.873
908.7569, 1834.082
909.2390, 1834.557
909.7211, 1835.238
910.2032, 1836.221
910.6854, 1836.605
911.1675, 1835.155
911.6496, 1832.790
912.1317, 1830.981
912.6138, 1829.639
913.0959, 1827.965
913.5781, 1826.534
914.0602, 1824.047
914.5423, 1823.865
915.0244, 1822.173
915.5065, 1821.135
915.9886, 1820.661
916.4708, 1818.988
916.9529, 1819.045
917.4350, 1818.572
917.9171, 1816.114
918.3992, 1812.824
918.8813, 1810.796
919.3635, 1810.284
919.8456, 1809.061
920.3277, 1806.583
920.8098, 1804.324
921.2919, 1802.564
921.7740, 1801.172
922.2562, 1800.490
922.7383, 1800.103
923.2204, 1798.715
923.7025, 1795.677
924.1846, 1792.910
924.6667, 1789.734
925.1489, 1788.168
925.6310, 1791.285
926.1131, 1795.765
926.5952, 1796.932
927.0773, 1794.330
927.5594, 1790.985
928.0416, 1787.936
928.5237, 1785.828
929.0058, 1786.048
929.4879, 1787.148
929.9700, 1786.948
930.4521, 1785.378
930.9343, 1782.970
931.4164, 1780.002
931.8985, 1777.288
932.3806, 1775.846
932.8627, 1775.426
933.3448, 1775.607
933.8270, 1776.260
934.3091, 1775.629
934.7912, 1773.301
935.2733, 1770.548
935.7554, 1768.156
936.2375, 1766.267
936.7197, 1765.274
937.2018, 1765.309
937.6839, 1765.581
938.1660, 1766.298
938.6481, 1766.741
939.1302, 1766.719
939.6124, 1766.269
940.0945, 1765.557
940.5766, 1764.503
941.0587, 1762.376
941.5408, 1756.478
942.0229, 1753.618
942.5051, 1756.879
942.9872, 1760.170
943.4693, 1760.408
943.9514, 1758.932
944.4335, 1757.705
944.9156, 1756.957
945.3978, 1755.747
945.8799, 1752.443
946.3620, 1750.207
946.8441, 1751.953
947.3262, 1754.603
947.8083, 1754.888
948.2905, 1753.283
948.7726, 1752.056
949.2547, 1752.054
949.7368, 1751.668
950.2189, 1748.521
950.7010, 1744.978
951.1832, 1744.529
951.6653, 1746.206
952.1474, 1748.039
952.6295, 1749.371
953.1116, 1748.990
953.5938, 1745.833
954.0759, 1742.489
954.5580, 1744.457
955.0400, 1750.295
955.5222, 1751.811
956.0043, 1748.822
956.4864, 1745.908
956.9685, 1744.501
957.4506, 1744.221
957.9327, 1744.960
958.4149, 1746.221
958.8970, 1745.709
959.3791, 1742.979
959.8612, 1740.621
960.3433, 1738.569
960.8254, 1737.677
961.3076, 1739.107
961.7897, 1740.958
962.2718, 1740.411
962.7539, 1737.402
963.2360, 1735.475
963.7181, 1734.688
964.2003, 1734.912
964.6824, 1737.128
965.1645, 1739.256
965.6466, 1740.220
966.1287, 1740.355
966.6108, 1740.221
967.0930, 1739.855
967.5751, 1739.343
968.0572, 1737.970
968.5393, 1737.379
969.0214, 1739.226
969.5035, 1741.321
969.9857, 1741.387
970.4678, 1740.000
970.9499, 1739.023
971.4320, 1739.018
971.9141, 1739.648
972.3962, 1741.582
972.8784, 1743.238
973.3605, 1743.127
973.8426, 1741.829
974.3247, 1740.227
974.8068, 1738.487
975.2889, 1736.019
975.7711, 1732.115
976.2532, 1729.564
976.7353, 1733.403
977.2174, 1739.750
977.6995, 1740.963
978.1816, 1738.121
978.6638, 1736.326
979.1459, 1736.882
979.6280, 1737.461
980.1101, 1736.106
980.5922, 1733.872
981.0743, 1732.725
981.5565, 1732.655
982.0386, 1734.293
982.5207, 1737.577
983.0028, 1738.583
983.4849, 1735.566
983.9670, 1732.126
984.4492, 1732.505
984.9313, 1730.093
985.4134, 1728.792
985.8955, 1729.732
986.3776, 1728.008
986.8597, 1731.318
987.3419, 1735.083
987.8240, 1737.360
988.3061, 1738.445
988.7882, 1738.719
989.2703, 1738.177
989.7524, 1736.813
990.2346, 1733.698
990.7167, 1731.849
991.1988, 1732.138
991.6809, 1733.082
992.1630, 1734.515
992.6451, 1735.747
993.1273, 1735.249
993.6094, 1732.678
994.0915, 1730.996
994.5736, 1729.735
995.0557, 1730.089
995.5378, 1734.321
996.0200, 1738.262
996.5021, 1738.502
996.9842, 1736.615
997.4663, 1735.977
997.9484, 1737.223
998.4305, 1738.188
998.9127, 1738.251
999.3948, 1738.010
999.8769, 1737.629
1000.359, 1737.117
1000.841, 1736.051
1001.323, 1734.919
1001.805, 1734.951
1002.287, 1736.577
1002.770, 1738.774
1003.252, 1741.304
1003.734, 1743.905
1004.216, 1747.302
1004.698, 1750.110
1005.180, 1749.908
1005.662, 1747.333
1006.144, 1745.151
1006.627, 1744.393
1007.109, 1745.391
1007.591, 1749.561
1008.073, 1754.666
1008.555, 1758.499
1009.037, 1761.070
1009.519, 1761.807
1010.001, 1761.322
1010.483, 1762.843
1010.966, 1768.608
1011.448, 1774.214
1011.930, 1773.294
1012.412, 1769.087
1012.894, 1768.108
1013.376, 1769.603
1013.858, 1769.857
1014.340, 1768.280
1014.823, 1767.837
1015.305, 1770.773
1015.787, 1775.036
1016.269, 1777.172
1016.751, 1777.755
1017.233, 1779.256
1017.715, 1781.481
1018.197, 1781.927
1018.679, 1779.928
1019.162, 1777.597
1019.644, 1776.593
1020.126, 1776.635
1020.608, 1777.642
1021.090, 1779.410
1021.572, 1778.765
1022.054, 1775.508
1022.536, 1772.395
1023.018, 1770.159
1023.501, 1769.824
1023.983, 1772.823
1024.465, 1777.432
1024.947, 1777.918
1025.429, 1773.884
1025.911, 1770.340
1026.393, 1767.578
1026.875, 1764.343
1027.358, 1759.885
1027.840, 1755.869
1028.322, 1754.187
1028.804, 1754.057
1029.286, 1752.060
1029.768, 1747.206
1030.250, 1744.979
1030.732, 1747.201
1031.214, 1747.078
1031.697, 1740.811
1032.179, 1733.832
1032.661, 1732.023
1033.143, 1734.147
1033.625, 1733.691
1034.107, 1728.804
1034.589, 1726.181
1035.071, 1727.529
1035.553, 1728.095
1036.036, 1725.198
1036.518, 1722.027
1037.000, 1722.354
1037.482, 1725.351
1037.964, 1726.139
1038.446, 1723.364
1038.928, 1721.006
1039.410, 1719.224
1039.893, 1717.643
1040.375, 1716.294
1040.857, 1714.958
1041.339, 1713.003
1041.821, 1710.753
1042.303, 1710.127
1042.785, 1713.142
1043.267, 1713.894
1043.750, 1709.219
1044.232, 1705.881
1044.714, 1708.363
1045.196, 1711.622
1045.678, 1709.681
1046.160, 1703.904
1046.642, 1701.465
1047.124, 1705.210
1047.606, 1707.336
1048.089, 1706.284
1048.571, 1704.104
1049.053, 1700.043
1049.535, 1696.474
1050.017, 1696.386
1050.499, 1698.890
1050.981, 1700.033
1051.463, 1699.064
1051.945, 1697.109
1052.428, 1692.649
1052.910, 1689.407
1053.392, 1690.076
1053.874, 1691.997
1054.356, 1692.795
1054.838, 1692.427
1055.320, 1691.448
1055.802, 1689.674
1056.285, 1688.331
1056.767, 1688.099
1057.249, 1687.963
1057.731, 1686.751
1058.213, 1685.917
1058.695, 1687.930
1059.177, 1691.522
1059.659, 1692.589
1060.141, 1689.741
1060.624, 1686.483
1061.106, 1683.325
1061.588, 1680.898
1062.070, 1679.457
1062.552, 1678.939
1063.034, 1679.540
1063.516, 1680.963
1063.998, 1682.769
1064.480, 1685.043
1064.963, 1686.162
1065.445, 1684.889
1065.927, 1683.022
1066.409, 1680.957
1066.891, 1679.187
1067.373, 1678.426
1067.855, 1678.270
1068.337, 1677.637
1068.820, 1676.227
1069.302, 1675.126
1069.784, 1675.278
1070.266, 1675.251
1070.748, 1674.089
1071.230, 1672.588
1071.712, 1671.006
1072.194, 1669.836
1072.677, 1670.182
1073.159, 1672.237
1073.641, 1673.832
1074.123, 1674.120
1074.605, 1673.599
1075.087, 1672.726
1075.569, 1670.977
1076.051, 1666.652
1076.533, 1661.599
1077.016, 1659.180
1077.498, 1659.917
1077.980, 1661.654
1078.462, 1664.731
1078.944, 1666.816
1079.426, 1666.182
1079.908, 1664.714
1080.390, 1664.152
1080.872, 1663.721
1081.354, 1661.302
1081.837, 1657.143
1082.319, 1655.151
1082.801, 1657.793
1083.283, 1660.893
1083.765, 1663.203
1084.247, 1664.536
1084.729, 1664.762
1085.211, 1663.912
1085.694, 1661.118
1086.176, 1657.096
1086.658, 1655.249
1087.140, 1657.544
1087.622, 1659.674
1088.104, 1660.014
1088.586, 1659.393
1089.068, 1657.494
1089.551, 1655.516
1090.033, 1655.137
1090.515, 1655.920
1090.997, 1655.830
1091.479, 1654.023
1091.961, 1652.705
1092.443, 1653.794
1092.925, 1654.265
1093.407, 1651.572
1093.890, 1648.331
1094.372, 1647.375
1094.854, 1647.996
1095.336, 1647.842
1095.818, 1646.337
1096.300, 1645.135
1096.782, 1645.107
1097.264, 1645.037
1097.746, 1644.191
1098.229, 1643.361
1098.711, 1643.487
1099.193, 1643.975
1099.675, 1643.489
1100.157, 1641.843
1100.639, 1640.792
1101.121, 1641.243
1101.603, 1641.647
1102.086, 1641.781
1102.568, 1641.514
1103.050, 1640.570
1103.532, 1639.285
1104.014, 1637.783
1104.496, 1636.224
1104.978, 1635.906
1105.460, 1638.724
1105.943, 1639.965
1106.425, 1636.575
1106.907, 1634.273
1107.389, 1636.835
1107.871, 1640.838
1108.353, 1642.832
1108.835, 1642.968
1109.317, 1642.622
1109.799, 1641.632
1110.281, 1640.824
1110.764, 1640.698
1111.246, 1640.181
1111.728, 1638.369
1112.210, 1636.592
1112.692, 1635.860
1113.174, 1635.969
1113.656, 1636.320
1114.138, 1636.743
1114.621, 1638.195
1115.103, 1642.187
1115.585, 1644.738
1116.067, 1645.321
1116.549, 1644.132
1117.031, 1640.307
1117.513, 1635.501
1117.995, 1632.140
1118.478, 1630.234
1118.960, 1630.397
1119.442, 1634.284
1119.924, 1636.242
1120.406, 1634.912
1120.888, 1633.396
1121.370, 1632.654
1121.852, 1633.011
1122.334, 1635.320
1122.817, 1635.101
1123.299, 1636.052
1123.781, 1637.527
1124.263, 1637.166
1124.745, 1640.057
1125.227, 1641.084
1125.709, 1637.811
1126.191, 1635.150
1126.673, 1637.533
1127.156, 1642.734
1127.638, 1645.450
1128.120, 1645.607
1128.602, 1644.791
1129.084, 1642.916
1129.566, 1640.808
1130.048, 1638.566
1130.530, 1636.711
1131.013, 1635.465
1131.495, 1635.318
1131.977, 1637.389
1132.459, 1640.974
1132.941, 1642.634
1133.423, 1642.455
1133.905, 1640.989
1134.387, 1638.398
1134.870, 1636.218
1135.352, 1635.055
1135.834, 1634.858
1136.316, 1635.670
1136.798, 1637.144
1137.280, 1638.682
1137.762, 1640.232
1138.244, 1641.922
1138.726, 1643.497
1139.208, 1643.496
1139.691, 1641.797
1140.173, 1640.382
1140.655, 1640.525
1141.137, 1641.050
1141.619, 1639.973
1142.101, 1641.105
1142.583, 1639.714
1143.065, 1642.190
1143.548, 1643.330
1144.030, 1643.045
1144.512, 1642.542
1144.994, 1642.320
1145.476, 1642.377
1145.958, 1642.771
1146.440, 1643.381
1146.922, 1644.284
1147.405, 1645.181
1147.887, 1646.098
1148.369, 1646.546
1148.851, 1645.186
1149.333, 1642.157
1149.815, 1639.735
1150.297, 1638.702
1150.779, 1639.239
1151.261, 1643.140
1151.744, 1646.785
1152.226, 1647.253
1152.708, 1646.130
1153.190, 1644.964
1153.672, 1644.133
1154.154, 1643.781
1154.636, 1643.801
1155.118, 1645.282
1155.600, 1651.214
1156.083, 1655.005
1156.565, 1652.897
1157.047, 1649.403
1157.529, 1646.689
1158.011, 1645.217
1158.493, 1646.101
1158.975, 1649.300
1159.457, 1650.828
1159.940, 1648.915
1160.422, 1647.827
1160.904, 1647.678
1161.386, 1648.425
1161.868, 1650.620
1162.350, 1653.046
1162.832, 1654.592
1163.314, 1655.516
1163.796, 1656.706
1164.279, 1658.411
1164.761, 1658.897
1165.243, 1657.932
1165.725, 1656.414
1166.207, 1654.217
1166.689, 1652.355
1167.171, 1651.157
1167.653, 1651.499
1168.135, 1655.201
1168.618, 1661.221
1169.100, 1663.321
1169.582, 1661.553
1170.064, 1660.391
1170.546, 1660.198
1171.028, 1659.725
1171.510, 1658.559
1171.992, 1658.190
1172.474, 1660.015
1172.957, 1662.324
1173.439, 1661.425
1173.921, 1658.832
1174.403, 1659.372
1174.885, 1662.167
1175.367, 1664.088
1175.849, 1664.734
1176.331, 1665.150
1176.814, 1665.795
1177.296, 1666.226
1177.778, 1665.667
1178.260, 1665.204
1178.742, 1666.736
1179.224, 1668.666
1179.706, 1668.310
1180.188, 1666.788
1180.671, 1667.000
1181.153, 1669.048
1181.635, 1670.306
1182.117, 1669.658
1182.599, 1668.014
1183.081, 1664.733
1183.563, 1661.957
1184.045, 1661.080
1184.527, 1661.323
1185.010, 1662.153
1185.492, 1663.360
1185.974, 1664.789
1186.456, 1666.456
1186.938, 1667.641
1187.420, 1668.011
1187.902, 1668.230
1188.384, 1667.746
1188.866, 1667.957
1189.349, 1670.135
1189.831, 1672.608
1190.313, 1673.458
1190.795, 1673.165
1191.277, 1673.686
1191.759, 1675.220
1192.241, 1676.778
1192.723, 1678.801
1193.206, 1678.889
1193.688, 1675.892
1194.170, 1673.455
1194.652, 1673.708
1195.134, 1675.740
1195.616, 1678.791
1196.098, 1682.007
1196.580, 1680.698
1197.063, 1675.559
1197.545, 1673.758
1198.027, 1675.589
1198.509, 1678.922
1198.991, 1682.857
1199.473, 1684.410
1199.955, 1681.254
1200.437, 1677.058
1200.919, 1676.708
1201.401, 1678.477
1201.884, 1679.542
1202.366, 1680.307
1202.848, 1682.093
1203.330, 1684.381
1203.812, 1685.162
1204.294, 1683.949
1204.776, 1682.415
1205.258, 1681.365
1205.741, 1680.577
1206.223, 1679.304
1206.705, 1678.882
1207.187, 1680.971
1207.669, 1684.031
1208.151, 1687.002
1208.633, 1689.126
1209.115, 1688.300
1209.598, 1683.290
1210.080, 1680.496
1210.562, 1682.524
1211.044, 1684.391
1211.526, 1685.654
1212.008, 1685.835
1212.490, 1683.585
1212.972, 1681.369
1213.454, 1682.533
1213.937, 1682.141
1214.419, 1683.232
1214.901, 1685.580
1215.383, 1686.393
1215.865, 1690.731
1216.347, 1692.314
1216.829, 1689.318
1217.311, 1687.391
1217.793, 1690.049
1218.276, 1693.671
1218.758, 1693.324
1219.240, 1690.345
1219.722, 1687.641
1220.204, 1685.700
1220.686, 1687.415
1221.168, 1691.635
1221.650, 1692.751
1222.133, 1690.033
1222.615, 1688.198
1223.097, 1689.938
1223.579, 1692.829
1224.061, 1695.725
1224.543, 1697.594
1225.025, 1696.088
1225.507, 1694.015
1225.990, 1695.156
1226.472, 1698.189
1226.954, 1700.231
1227.436, 1700.715
1227.918, 1700.066
1228.400, 1697.357
1228.882, 1695.758
1229.364, 1697.380
1229.846, 1698.449
1230.328, 1696.304
1230.811, 1694.297
1231.293, 1695.122
1231.775, 1697.708
1232.257, 1700.324
1232.739, 1702.961
1233.221, 1704.064
1233.703, 1703.054
1234.185, 1703.236
1234.668, 1705.151
1235.150, 1706.402
1235.632, 1706.108
1236.114, 1705.865
1236.596, 1707.057
1237.078, 1708.294
1237.560, 1706.597
1238.042, 1703.192
1238.525, 1702.288
1239.007, 1703.145
1239.489, 1703.352
1239.971, 1702.910
1240.453, 1703.146
1240.935, 1704.359
1241.417, 1705.332
1241.899, 1705.075
1242.381, 1705.247
1242.864, 1707.922
1243.346, 1710.765
1243.828, 1711.894
1244.310, 1712.053
1244.792, 1712.003
1245.274, 1711.795
1245.756, 1711.064
1246.238, 1709.773
1246.720, 1709.449
1247.203, 1711.588
1247.685, 1712.612
1248.167, 1711.784
1248.649, 1710.454
1249.131, 1708.202
1249.613, 1706.999
1250.095, 1708.747
1250.577, 1711.976
1251.059, 1713.844
1251.542, 1714.449
1252.024, 1714.771
1252.506, 1714.815
1252.988, 1715.300
1253.470, 1716.223
1253.952, 1716.086
1254.434, 1714.514
1254.916, 1713.286
1255.399, 1713.727
1255.881, 1714.387
1256.363, 1712.842
1256.845, 1710.926
1257.327, 1711.221
1257.809, 1713.018
1258.291, 1715.810
1258.773, 1718.914
1259.255, 1721.533
1259.738, 1723.339
1260.220, 1723.580
1260.702, 1721.372
1261.184, 1719.346
1261.666, 1717.998
1262.148, 1717.471
1262.630, 1718.348
1263.112, 1719.533
1263.594, 1720.268
1264.077, 1720.814
1264.559, 1721.583
1265.041, 1722.513
1265.523, 1722.819
1266.005, 1722.002
1266.487, 1724.178
1266.969, 1730.077
1267.451, 1732.275
1267.934, 1728.905
1268.416, 1725.641
1268.898, 1725.690
1269.380, 1726.364
1269.862, 1724.013
1270.344, 1725.146
1270.826, 1722.330
1271.308, 1725.794
1271.791, 1727.928
1272.273, 1728.589
1272.755, 1727.767
1273.237, 1725.857
1273.719, 1723.642
1274.201, 1721.249
1274.683, 1720.846
1275.165, 1724.902
1275.647, 1728.984
1276.130, 1731.725
1276.612, 1733.711
1277.094, 1734.332
1277.576, 1735.238
1278.058, 1738.885
1278.540, 1743.833
1279.022, 1746.146
1279.504, 1745.765
1279.986, 1743.801
1280.469, 1739.774
1280.951, 1737.191
1281.433, 1736.487
1281.915, 1737.440
1282.397, 1739.987
1282.879, 1742.740
1283.361, 1744.691
1283.843, 1746.041
1284.326, 1747.062
1284.808, 1747.617
##END=



