##NAMES=Soddyite
##RRUFFID=R060361
##IDEAL CHEMISTRY=(U^6+^O_2_)_2_SiO_4_&#183;2H_2_O
##LOCALITY=Musonoi Extension, near Kolwezi, Shaba Province, Zaire
##OWNER=RRUFF
##SOURCE=Michael Scott
##DESCRIPTION=Yellow pyramidal crystals associated with light green malachite and dark green brochantite
##STATUS=The identification of this mineral has been confirmed by single-crystal X-ray diffraction.
##URL=rruff.info/R060361
90.49219, 186.8236
90.97430, 188.0293
91.45642, 188.4643
91.93854, 186.7813
92.42065, 184.7264
92.90277, 185.3472
93.38489, 189.2917
93.86700, 193.8352
94.34912, 195.6423
94.83124, 195.0332
95.31335, 193.7689
95.79547, 192.5345
96.27759, 191.4314
96.75970, 190.7395
97.24182, 190.3356
97.72394, 190.5658
98.20605, 192.6989
98.68817, 196.9891
99.17029, 201.1869
99.65240, 203.5263
100.1345, 203.9199
100.6166, 203.6933
101.0988, 202.7011
101.5809, 201.1767
102.0630, 201.1772
102.5451, 203.0959
103.0272, 205.8375
103.5093, 208.3346
103.9915, 210.6214
104.4736, 212.5117
104.9557, 213.8745
105.4378, 214.6172
105.9199, 215.3473
106.4020, 216.0895
106.8842, 216.8106
107.3663, 217.4508
107.8484, 217.7945
108.3305, 218.3013
108.8126, 219.1503
109.2947, 220.6702
109.7769, 221.9833
110.2590, 222.6628
110.7411, 223.0660
111.2232, 224.2840
111.7053, 227.5988
112.1874, 230.8457
112.6696, 233.0260
113.1517, 233.1173
113.6338, 233.1386
114.1159, 233.2139
114.5980, 233.3751
115.0801, 233.8484
115.5623, 234.2239
116.0444, 235.1544
116.5265, 237.1350
117.0086, 241.8921
117.4907, 246.3481
117.9728, 249.1206
118.4550, 250.1233
118.9371, 251.1313
119.4192, 252.8821
119.9013, 255.1105
120.3834, 257.4525
120.8655, 260.2288
121.3477, 262.7811
121.8298, 264.2929
122.3119, 264.4551
122.7940, 265.0341
123.2761, 266.7223
123.7582, 269.7159
124.2404, 274.4518
124.7225, 282.8289
125.2046, 292.5365
125.6867, 300.0464
126.1688, 303.8225
126.6509, 307.9749
127.1331, 316.8739
127.6152, 330.1039
128.0973, 345.5975
128.5794, 361.8027
129.0615, 379.2173
129.5436, 398.9481
130.0258, 421.1468
130.5079, 445.8885
130.9900, 473.4282
131.4721, 503.5294
131.9542, 537.4950
132.4363, 575.7849
132.9185, 618.5679
133.4006, 666.8585
133.8827, 720.6882
134.3648, 779.9050
134.8469, 846.8693
135.3290, 921.0547
135.8112, 1005.708
136.2933, 1102.429
136.7754, 1211.441
137.2575, 1334.817
137.7396, 1476.262
138.2217, 1633.058
138.7039, 1797.565
139.1860, 1972.149
139.6681, 2151.163
140.1502, 2330.242
140.6323, 2507.788
141.1144, 2684.879
141.5966, 2863.704
142.0787, 3045.489
142.5608, 3219.177
143.0429, 3383.647
143.5250, 3540.324
144.0071, 3689.315
144.4893, 3821.383
144.9714, 3958.703
145.4535, 4109.369
145.9356, 4278.508
146.4177, 4453.560
146.8998, 4631.523
147.3820, 4815.208
147.8641, 5025.098
148.3462, 5269.106
148.8283, 5529.170
149.3104, 5798.884
149.7925, 6078.333
150.2747, 6365.651
150.7568, 6659.832
151.2389, 6960.117
151.7210, 7257.622
152.2031, 7554.713
152.6852, 7844.599
153.1674, 8126.349
153.6495, 8400.545
154.1316, 8663.216
154.6137, 8913.546
155.0958, 9151.491
155.5779, 9378.761
156.0601, 9589.818
156.5422, 9793.393
157.0243, 9994.445
157.5064, 10191.67
157.9885, 10388.65
158.4706, 10586.39
158.9528, 10785.05
159.4349, 10983.69
159.9170, 11176.53
160.3991, 11370.85
160.8812, 11575.05
161.3633, 11795.19
161.8455, 12022.81
162.3276, 12254.81
162.8097, 12487.02
163.2918, 12727.56
163.7739, 12982.93
164.2560, 13232.00
164.7382, 13380.78
165.2203, 13490.37
165.7024, 13598.67
166.1845, 13712.31
166.6666, 13835.47
167.1487, 13954.87
167.6309, 14067.81
168.1130, 14173.58
168.5951, 14268.45
169.0772, 14348.88
169.5593, 14420.21
170.0414, 14486.92
170.5236, 14550.46
171.0057, 14608.63
171.4878, 14660.41
171.9699, 14706.35
172.4520, 14747.01
172.9341, 14780.90
173.4163, 14810.79
173.8984, 14839.12
174.3805, 14864.20
174.8626, 14891.25
175.3447, 14926.60
175.8268, 14969.06
176.3090, 15013.94
176.7911, 15057.75
177.2732, 15101.40
177.7553, 15146.06
178.2374, 15191.82
178.7195, 15238.85
179.2017, 15287.32
179.6838, 15337.57
180.1659, 15389.27
180.6480, 15442.82
181.1301, 15497.81
181.6122, 15554.85
182.0944, 15615.22
182.5765, 15676.68
183.0586, 15737.29
183.5407, 15796.04
184.0228, 15854.00
184.5049, 15911.85
184.9871, 15969.42
185.4692, 16023.66
185.9513, 16073.75
186.4334, 16120.21
186.9155, 16165.29
187.3976, 16208.78
187.8798, 16251.24
188.3619, 16292.16
188.8440, 16332.30
189.3261, 16374.04
189.8082, 16420.73
190.2903, 16469.88
190.7725, 16513.35
191.2546, 16551.61
191.7367, 16584.69
192.2188, 16611.05
192.7009, 16631.26
193.1830, 16652.79
193.6652, 16679.06
194.1473, 16709.36
194.6294, 16738.86
195.1115, 16768.29
195.5936, 16794.55
196.0757, 16810.61
196.5579, 16816.00
197.0400, 16825.35
197.5221, 16846.28
198.0042, 16877.82
198.4863, 16905.54
198.9684, 16927.53
199.4506, 16949.96
199.9327, 16983.54
200.4148, 17029.80
200.8969, 17074.35
201.3790, 17109.12
201.8611, 17133.25
202.3433, 17167.04
202.8254, 17212.79
203.3075, 17264.10
203.7896, 17309.74
204.2717, 17349.06
204.7538, 17385.84
205.2360, 17420.82
205.7181, 17453.51
206.2002, 17486.87
206.6823, 17520.17
207.1644, 17554.78
207.6465, 17594.76
208.1287, 17641.91
208.6108, 17687.25
209.0929, 17726.33
209.5750, 17758.25
210.0571, 17790.71
210.5392, 17823.47
211.0214, 17858.06
211.5035, 17897.68
211.9856, 17942.66
212.4677, 17991.63
212.9498, 18044.06
213.4319, 18099.26
213.9141, 18159.89
214.3962, 18228.20
214.8783, 18300.65
215.3604, 18367.67
215.8425, 18428.21
216.3246, 18486.27
216.8067, 18544.74
217.2889, 18604.34
217.7710, 18658.98
218.2531, 18709.33
218.7352, 18753.61
219.2173, 18789.43
219.6994, 18817.49
220.1816, 18835.26
220.6637, 18839.88
221.1458, 18824.94
221.6279, 18816.14
222.1100, 18817.43
222.5921, 18824.02
223.0743, 18822.36
223.5564, 18808.49
224.0385, 18794.40
224.5206, 18786.72
225.0027, 18789.38
225.4848, 18787.94
225.9670, 18777.95
226.4491, 18765.48
226.9312, 18767.51
227.4133, 18791.93
227.8954, 18818.03
228.3775, 18834.26
228.8597, 18832.29
229.3418, 18841.02
229.8239, 18864.85
230.3060, 18897.68
230.7881, 18921.18
231.2702, 18926.39
231.7524, 18935.05
232.2345, 18958.70
232.7166, 19009.87
233.1987, 19046.04
233.6808, 19060.95
234.1629, 19062.29
234.6451, 19070.62
235.1272, 19088.57
235.6093, 19110.44
236.0914, 19135.30
236.5735, 19169.08
237.0556, 19193.55
237.5378, 19205.36
238.0199, 19209.71
238.5020, 19218.82
238.9841, 19233.35
239.4662, 19252.55
239.9483, 19275.92
240.4305, 19301.77
240.9126, 19335.54
241.3947, 19381.03
241.8768, 19432.85
242.3589, 19478.12
242.8410, 19515.29
243.3232, 19547.36
243.8053, 19574.12
244.2874, 19591.52
244.7695, 19613.05
245.2516, 19640.44
245.7337, 19671.33
246.2159, 19699.78
246.6980, 19721.55
247.1801, 19748.08
247.6622, 19786.45
248.1443, 19846.18
248.6264, 19891.29
249.1086, 19916.43
249.5907, 19930.21
250.0728, 19949.56
250.5549, 19974.57
251.0370, 20004.92
251.5191, 20041.65
252.0013, 20086.95
252.4834, 20129.06
252.9655, 20165.43
253.4476, 20199.20
253.9297, 20236.66
254.4118, 20280.11
254.8940, 20321.53
255.3761, 20357.40
255.8582, 20386.15
256.3403, 20416.41
256.8224, 20449.60
257.3046, 20483.44
257.7867, 20514.25
258.2688, 20544.48
258.7509, 20567.78
259.2330, 20580.25
259.7151, 20579.74
260.1973, 20583.97
260.6794, 20593.93
261.1615, 20608.19
261.6436, 20624.85
262.1257, 20645.12
262.6078, 20664.96
263.0900, 20680.54
263.5721, 20690.12
264.0542, 20713.44
264.5363, 20754.81
265.0184, 20804.37
265.5005, 20851.19
265.9827, 20893.60
266.4648, 20936.00
266.9469, 20979.05
267.4290, 21022.43
267.9111, 21067.39
268.3932, 21116.94
268.8754, 21162.63
269.3575, 21191.98
269.8396, 21199.57
270.3217, 21212.24
270.8038, 21237.84
271.2859, 21275.96
271.7681, 21311.30
272.2502, 21342.21
272.7323, 21374.10
273.2144, 21412.21
273.6965, 21457.83
274.1786, 21503.55
274.6608, 21547.38
275.1429, 21590.05
275.6250, 21639.37
276.1071, 21697.44
276.5892, 21756.20
277.0714, 21805.34
277.5535, 21843.71
278.0356, 21886.17
278.5177, 21935.69
278.9998, 21991.54
279.4819, 22052.00
279.9641, 22119.29
280.4462, 22185.40
280.9283, 22244.57
281.4104, 22296.38
281.8925, 22343.50
282.3746, 22383.06
282.8568, 22420.75
283.3389, 22473.59
283.8210, 22542.49
284.3031, 22618.27
284.7852, 22697.32
285.2673, 22778.36
285.7495, 22854.14
286.2316, 22921.60
286.7137, 22985.37
287.1958, 23056.48
287.6779, 23134.87
288.1600, 23212.38
288.6422, 23285.07
289.1243, 23353.18
289.6064, 23414.87
290.0885, 23470.81
290.5706, 23520.64
291.0527, 23563.19
291.5349, 23598.85
292.0170, 23630.35
292.4991, 23660.77
292.9812, 23688.88
293.4633, 23706.90
293.9454, 23713.42
294.4276, 23716.01
294.9097, 23722.24
295.3918, 23732.36
295.8739, 23747.40
296.3560, 23765.94
296.8381, 23789.74
297.3203, 23824.38
297.8024, 23870.34
298.2845, 23920.13
298.7666, 23969.44
299.2487, 24016.34
299.7308, 24056.59
300.2130, 24080.03
300.6951, 24098.86
301.1772, 24134.68
301.6593, 24187.43
302.1414, 24246.07
302.6235, 24300.92
303.1057, 24354.78
303.5878, 24411.71
304.0699, 24476.03
304.5520, 24543.06
305.0341, 24609.10
305.5162, 24673.72
305.9984, 24735.48
306.4805, 24786.11
306.9626, 24834.46
307.4447, 24892.87
307.9268, 24972.03
308.4089, 25052.79
308.8911, 25122.29
309.3732, 25180.09
309.8553, 25225.08
310.3374, 25249.80
310.8195, 25264.34
311.3016, 25277.97
311.7838, 25292.10
312.2659, 25306.90
312.7480, 25326.41
313.2301, 25347.24
313.7122, 25361.11
314.1943, 25361.23
314.6765, 25355.54
315.1586, 25348.30
315.6407, 25338.71
316.1228, 25333.57
316.6049, 25336.67
317.0870, 25346.40
317.5692, 25359.89
318.0513, 25380.69
318.5334, 25400.82
319.0155, 25413.74
319.4976, 25416.89
319.9797, 25425.77
320.4619, 25447.43
320.9440, 25476.23
321.4261, 25505.65
321.9082, 25535.13
322.3903, 25563.79
322.8724, 25591.46
323.3546, 25618.20
323.8367, 25644.03
324.3188, 25664.88
324.8009, 25687.80
325.2830, 25718.03
325.7651, 25769.18
326.2473, 25814.69
326.7294, 25848.15
327.2115, 25871.64
327.6936, 25899.67
328.1757, 25933.85
328.6578, 25972.38
329.1400, 26014.67
329.6221, 26067.75
330.1042, 26114.16
330.5863, 26150.90
331.0684, 26180.57
331.5505, 26209.98
332.0327, 26234.43
332.5148, 26263.51
332.9969, 26302.03
333.4790, 26353.26
333.9611, 26400.94
334.4432, 26440.60
334.9254, 26479.16
335.4075, 26529.87
335.8896, 26602.88
336.3717, 26668.38
336.8538, 26714.07
337.3359, 26738.01
337.8180, 26769.31
338.3001, 26808.18
338.7823, 26854.52
339.2644, 26910.24
339.7465, 26979.31
340.2286, 27042.27
340.7107, 27093.18
341.1928, 27133.91
341.6750, 27171.40
342.1571, 27204.47
342.6392, 27239.60
343.1213, 27285.65
343.6034, 27342.27
344.0855, 27391.30
344.5677, 27427.59
345.0498, 27455.77
345.5319, 27483.17
346.0140, 27509.51
346.4961, 27543.42
346.9782, 27598.25
347.4604, 27668.48
347.9425, 27721.61
348.4246, 27752.39
348.9067, 27775.41
349.3888, 27811.99
349.8709, 27860.40
350.3531, 27909.64
350.8352, 27954.89
351.3173, 27997.27
351.7994, 28039.19
352.2815, 28080.63
352.7636, 28121.71
353.2458, 28159.71
353.7279, 28197.33
354.2100, 28240.56
354.6921, 28293.86
355.1742, 28351.65
355.6563, 28411.63
356.1385, 28472.70
356.6206, 28528.07
357.1027, 28565.76
357.5848, 28597.45
358.0669, 28637.94
358.5490, 28694.97
359.0312, 28755.21
359.5133, 28811.07
359.9954, 28863.43
360.4775, 28916.08
360.9596, 28974.23
361.4417, 29030.73
361.9239, 29079.56
362.4060, 29115.66
362.8881, 29155.88
363.3702, 29213.79
363.8523, 29278.34
364.3344, 29332.71
364.8166, 29369.18
365.2987, 29397.76
365.7808, 29417.20
366.2629, 29425.69
366.7450, 29445.61
367.2271, 29490.43
367.7093, 29543.83
368.1914, 29591.55
368.6735, 29636.23
369.1556, 29671.63
369.6377, 29688.47
370.1198, 29690.51
370.6020, 29709.28
371.0841, 29755.13
371.5662, 29808.30
372.0483, 29858.27
372.5304, 29905.77
373.0125, 29948.77
373.4947, 29983.41
373.9768, 30014.29
374.4589, 30054.29
374.9410, 30110.00
375.4231, 30161.17
375.9052, 30197.19
376.3874, 30214.59
376.8695, 30246.80
377.3516, 30297.48
377.8337, 30357.63
378.3158, 30420.17
378.7979, 30486.59
379.2801, 30545.94
379.7622, 30593.53
380.2443, 30632.06
380.7264, 30676.55
381.2085, 30727.40
381.6906, 30778.81
382.1728, 30822.15
382.6549, 30860.06
383.1370, 30909.49
383.6191, 30978.47
384.1012, 31051.47
384.5833, 31100.46
385.0655, 31128.29
385.5476, 31156.64
386.0297, 31200.43
386.5118, 31253.23
386.9939, 31303.88
387.4760, 31350.81
387.9582, 31398.80
388.4403, 31456.58
388.9224, 31519.29
389.4045, 31576.36
389.8866, 31621.70
390.3687, 31661.43
390.8509, 31697.05
391.3330, 31729.09
391.8151, 31765.58
392.2972, 31817.93
392.7793, 31873.38
393.2614, 31919.08
393.7436, 31941.83
394.2257, 31967.51
394.7078, 32008.45
395.1899, 32060.64
395.6720, 32113.50
396.1541, 32165.24
396.6363, 32216.10
397.1184, 32266.01
397.6005, 32314.58
398.0826, 32364.36
398.5647, 32417.33
399.0468, 32471.38
399.5290, 32523.95
400.0111, 32578.89
400.4932, 32627.90
400.9753, 32663.07
401.4574, 32684.67
401.9395, 32727.21
402.4217, 32804.75
402.9038, 32888.22
403.3859, 32957.11
403.8680, 33001.63
404.3501, 33055.03
404.8322, 33122.86
405.3144, 33198.79
405.7965, 33264.29
406.2786, 33318.09
406.7607, 33366.66
407.2428, 33411.07
407.7249, 33451.24
408.2071, 33494.63
408.6892, 33541.33
409.1713, 33591.27
409.6534, 33646.93
410.1355, 33707.67
410.6176, 33763.88
411.0998, 33810.85
411.5819, 33853.30
412.0640, 33902.36
412.5461, 33957.51
413.0282, 34016.58
413.5103, 34085.26
413.9925, 34154.97
414.4746, 34206.20
414.9567, 34231.54
415.4388, 34250.54
415.9209, 34283.86
416.4030, 34327.04
416.8852, 34369.86
417.3673, 34406.03
417.8494, 34439.85
418.3315, 34475.17
418.8136, 34511.84
419.2957, 34548.67
419.7779, 34579.91
420.2600, 34612.90
420.7421, 34654.54
421.2242, 34716.82
421.7063, 34778.42
422.1884, 34835.26
422.6706, 34887.07
423.1527, 34934.80
423.6348, 34980.06
424.1169, 35020.04
424.5990, 35052.23
425.0811, 35068.80
425.5633, 35095.73
426.0454, 35140.09
426.5275, 35192.64
427.0096, 35242.05
427.4917, 35281.86
427.9738, 35328.15
428.4560, 35385.89
428.9381, 35454.86
429.4202, 35520.05
429.9023, 35578.41
430.3844, 35636.55
430.8665, 35700.79
431.3487, 35773.70
431.8308, 35833.20
432.3129, 35872.21
432.7950, 35902.77
433.2771, 35948.71
433.7592, 36009.65
434.2414, 36077.36
434.7235, 36153.61
435.2056, 36233.84
435.6877, 36297.84
436.1698, 36344.24
436.6519, 36386.16
437.1341, 36432.41
437.6162, 36483.54
438.0983, 36544.48
438.5804, 36625.71
439.0625, 36704.52
439.5446, 36748.89
440.0268, 36766.97
440.5089, 36787.74
440.9910, 36831.73
441.4731, 36884.33
441.9552, 36935.61
442.4373, 36985.33
442.9195, 37026.98
443.4016, 37049.30
443.8837, 37064.39
444.3658, 37086.97
444.8479, 37122.71
445.3300, 37165.41
445.8122, 37215.69
446.2943, 37272.32
446.7764, 37329.23
447.2585, 37385.23
447.7406, 37441.21
448.2227, 37498.20
448.7049, 37558.32
449.1870, 37613.98
449.6691, 37660.76
450.1512, 37705.02
450.6333, 37756.28
451.1154, 37818.50
451.5976, 37879.79
452.0797, 37935.43
452.5618, 37986.21
453.0439, 38042.38
453.5260, 38104.21
454.0081, 38166.97
454.4903, 38228.00
454.9724, 38286.77
455.4545, 38338.41
455.9366, 38378.11
456.4187, 38418.39
456.9008, 38486.19
457.3830, 38578.26
457.8651, 38661.81
458.3472, 38716.27
458.8293, 38754.82
459.3114, 38804.91
459.7935, 38866.23
460.2757, 38923.48
460.7578, 38962.99
461.2399, 38990.52
461.7220, 39012.33
462.2041, 39023.44
462.6862, 39040.62
463.1684, 39077.57
463.6505, 39128.88
464.1326, 39181.38
464.6147, 39237.15
465.0968, 39286.58
465.5789, 39318.97
466.0611, 39330.14
466.5432, 39351.52
467.0253, 39402.13
467.5074, 39457.95
467.9895, 39498.57
468.4716, 39502.86
468.9538, 39518.29
469.4359, 39554.95
469.9180, 39604.71
470.4001, 39640.45
470.8822, 39654.80
471.3643, 39669.23
471.8465, 39693.44
472.3286, 39729.09
472.8107, 39762.08
473.2928, 39790.81
473.7749, 39821.69
474.2570, 39864.32
474.7392, 39918.85
475.2213, 39967.26
475.7034, 40004.58
476.1855, 40035.02
476.6676, 40062.07
477.1497, 40087.11
477.6319, 40122.68
478.1140, 40184.60
478.5961, 40258.96
479.0782, 40323.31
479.5603, 40375.59
480.0424, 40420.73
480.5246, 40453.63
481.0067, 40484.12
481.4888, 40526.84
481.9709, 40601.50
482.4530, 40672.32
482.9352, 40715.00
483.4173, 40737.77
483.8994, 40766.80
484.3815, 40818.78
484.8636, 40872.58
485.3457, 40917.17
485.8279, 40948.98
486.3100, 40983.00
486.7921, 41017.69
487.2742, 41056.82
487.7563, 41105.34
488.2384, 41174.50
488.7206, 41234.39
489.2027, 41280.55
489.6848, 41315.56
490.1669, 41346.23
490.6490, 41370.41
491.1311, 41397.01
491.6133, 41432.03
492.0954, 41475.65
492.5775, 41512.26
493.0596, 41540.14
493.5417, 41568.70
494.0238, 41609.87
494.5060, 41661.34
494.9881, 41711.07
495.4702, 41754.12
495.9523, 41796.32
496.4344, 41845.52
496.9165, 41900.46
497.3987, 41956.29
497.8808, 42013.86
498.3629, 42069.22
498.8450, 42115.13
499.3271, 42150.60
499.8092, 42191.78
500.2914, 42254.35
500.7735, 42322.94
501.2556, 42384.64
501.7377, 42431.54
502.2198, 42475.12
502.7019, 42518.42
503.1841, 42560.18
503.6662, 42597.48
504.1483, 42626.07
504.6304, 42655.35
505.1125, 42688.21
505.5946, 42725.23
506.0768, 42762.77
506.5589, 42803.51
507.0410, 42841.44
507.5231, 42867.86
508.0052, 42878.85
508.4873, 42908.48
508.9695, 42965.70
509.4516, 43034.65
509.9337, 43082.98
510.4158, 43111.84
510.8979, 43142.93
511.3800, 43188.65
511.8622, 43242.03
512.3443, 43289.60
512.8264, 43330.68
513.3085, 43365.35
513.7906, 43381.91
514.2728, 43396.19
514.7549, 43433.79
515.2370, 43509.70
515.7191, 43578.31
516.2012, 43601.90
516.6833, 43601.83
517.1655, 43611.34
517.6476, 43645.96
518.1297, 43687.71
518.6118, 43735.02
519.0939, 43786.85
519.5760, 43831.97
520.0582, 43865.52
520.5403, 43894.91
521.0224, 43921.28
521.5045, 43940.21
521.9866, 43968.99
522.4688, 44009.64
522.9509, 44057.27
523.4330, 44108.03
523.9151, 44162.89
524.3972, 44214.13
524.8793, 44258.79
525.3615, 44298.93
525.8436, 44340.34
526.3257, 44383.16
526.8078, 44426.55
527.2899, 44476.52
527.7720, 44526.45
528.2542, 44557.80
528.7363, 44569.60
529.2184, 44577.66
529.7005, 44590.14
530.1826, 44608.84
530.6647, 44636.60
531.1469, 44676.70
531.6290, 44721.73
532.1111, 44768.62
532.5932, 44816.98
533.0753, 44865.89
533.5574, 44916.71
534.0396, 44966.35
534.5217, 45014.86
535.0038, 45061.59
535.4859, 45103.45
535.9680, 45137.93
536.4501, 45168.68
536.9323, 45197.65
537.4144, 45225.62
537.8965, 45248.73
538.3786, 45263.32
538.8607, 45278.23
539.3428, 45310.86
539.8250, 45363.82
540.3071, 45406.31
540.7892, 45426.39
541.2713, 45433.42
541.7534, 45446.98
542.2355, 45467.18
542.7177, 45492.53
543.1998, 45523.84
543.6819, 45559.66
544.1640, 45600.38
544.6461, 45646.55
545.1282, 45686.50
545.6104, 45699.89
546.0925, 45706.70
546.5746, 45730.04
547.0567, 45789.51
547.5388, 45847.09
548.0209, 45884.97
548.5031, 45911.46
548.9852, 45945.82
549.4673, 46006.84
549.9494, 46058.79
550.4315, 46089.93
550.9136, 46100.41
551.3958, 46114.29
551.8779, 46127.76
552.3600, 46151.47
552.8421, 46198.93
553.3242, 46274.88
553.8063, 46327.80
554.2885, 46352.18
554.7706, 46362.76
555.2527, 46376.61
555.7348, 46393.45
556.2169, 46410.53
556.6990, 46422.70
557.1812, 46439.99
557.6633, 46483.70
558.1454, 46547.00
558.6275, 46604.49
559.1096, 46635.96
559.5917, 46659.27
560.0739, 46685.67
560.5560, 46716.17
561.0381, 46755.30
561.5202, 46816.38
562.0023, 46879.54
562.4844, 46929.30
562.9666, 46947.91
563.4487, 46976.70
563.9308, 47026.54
564.4129, 47083.41
564.8950, 47124.73
565.3771, 47141.27
565.8593, 47160.88
566.3414, 47189.63
566.8235, 47225.49
567.3056, 47264.21
567.7877, 47306.52
568.2698, 47342.29
568.7520, 47360.10
569.2341, 47365.75
569.7162, 47384.54
570.1983, 47417.93
570.6804, 47453.24
571.1625, 47482.20
571.6447, 47504.40
572.1268, 47516.59
572.6089, 47510.90
573.0910, 47511.99
573.5731, 47546.81
574.0552, 47597.98
574.5374, 47635.74
575.0195, 47640.77
575.5016, 47641.17
575.9837, 47641.51
576.4658, 47643.46
576.9479, 47660.62
577.4301, 47710.50
577.9122, 47755.31
578.3943, 47773.66
578.8764, 47755.37
579.3585, 47770.56
579.8406, 47826.87
580.3228, 47899.35
580.8049, 47965.62
581.2870, 48025.13
581.7691, 48075.84
582.2512, 48113.37
582.7333, 48148.65
583.2155, 48203.65
583.6976, 48270.07
584.1797, 48325.78
584.6617, 48336.98
585.1439, 48348.10
585.6260, 48407.09
586.1081, 48504.96
586.5902, 48597.29
587.0723, 48682.14
587.5544, 48740.38
588.0366, 48754.30
588.5187, 48708.83
589.0008, 48677.93
589.4829, 48674.21
589.9650, 48686.73
590.4471, 48711.06
590.9293, 48762.50
591.4114, 48790.02
591.8935, 48782.73
592.3756, 48759.66
592.8577, 48754.04
593.3398, 48766.63
593.8220, 48787.05
594.3041, 48816.80
594.7862, 48848.38
595.2683, 48861.94
595.7504, 48859.39
596.2325, 48855.73
596.7147, 48858.49
597.1968, 48866.47
597.6789, 48879.16
598.1610, 48896.80
598.6431, 48916.52
599.1252, 48935.27
599.6074, 48956.70
600.0895, 48985.74
600.5716, 49038.32
601.0537, 49072.89
601.5358, 49064.74
602.0179, 49042.54
602.5001, 49043.27
602.9822, 49076.46
603.4643, 49113.15
603.9464, 49148.29
604.4285, 49182.95
604.9106, 49223.30
605.3928, 49268.96
605.8749, 49315.15
606.3570, 49357.74
606.8391, 49398.51
607.3212, 49450.55
607.8033, 49512.53
608.2855, 49561.80
608.7676, 49564.55
609.2497, 49550.67
609.7318, 49561.49
610.2139, 49608.72
610.6960, 49653.77
611.1782, 49671.55
611.6603, 49677.95
612.1424, 49690.06
612.6245, 49722.82
613.1066, 49748.14
613.5887, 49757.27
614.0709, 49758.03
614.5530, 49767.17
615.0351, 49791.70
615.5172, 49809.13
615.9993, 49809.27
616.4814, 49797.85
616.9636, 49809.70
617.4457, 49847.52
617.9278, 49881.18
618.4099, 49885.57
618.8920, 49871.80
619.3741, 49868.79
619.8563, 49877.66
620.3384, 49894.43
620.8205, 49920.76
621.3026, 49950.63
621.7847, 49977.33
622.2668, 50000.60
622.7490, 50017.28
623.2311, 50012.03
623.7132, 50004.13
624.1953, 50018.25
624.6774, 50087.41
625.1595, 50143.34
625.6417, 50174.66
626.1238, 50188.19
626.6059, 50201.65
627.0880, 50214.88
627.5701, 50230.05
628.0522, 50248.64
628.5344, 50270.23
629.0165, 50289.13
629.4986, 50305.20
629.9807, 50329.31
630.4628, 50381.45
630.9449, 50443.09
631.4271, 50474.36
631.9092, 50470.77
632.3913, 50469.97
632.8734, 50503.92
633.3555, 50551.70
633.8376, 50592.20
634.3198, 50616.85
634.8019, 50639.56
635.2840, 50665.27
635.7661, 50689.75
636.2482, 50707.80
636.7303, 50718.31
637.2125, 50723.32
637.6946, 50720.77
638.1767, 50714.14
638.6588, 50716.44
639.1409, 50730.99
639.6230, 50734.42
640.1052, 50711.66
640.5873, 50674.15
641.0694, 50655.64
641.5515, 50655.70
642.0336, 50663.61
642.5157, 50678.70
642.9979, 50695.26
643.4800, 50702.23
643.9621, 50698.37
644.4442, 50706.46
644.9263, 50747.05
645.4084, 50798.80
645.8906, 50843.62
646.3727, 50869.46
646.8548, 50903.33
647.3369, 50946.82
647.8190, 50996.25
648.3011, 51049.07
648.7833, 51110.21
649.2654, 51153.09
649.7475, 51168.03
650.2296, 51168.29
650.7117, 51182.43
651.1938, 51209.36
651.6760, 51237.46
652.1581, 51262.28
652.6402, 51286.09
653.1223, 51314.75
653.6044, 51346.58
654.0865, 51374.62
654.5687, 51395.42
655.0508, 51411.49
655.5329, 51425.01
656.0150, 51436.40
656.4971, 51443.74
656.9792, 51433.93
657.4614, 51430.51
657.9435, 51447.20
658.4256, 51490.48
658.9077, 51531.87
659.3898, 51575.56
659.8719, 51608.93
660.3541, 51612.27
660.8362, 51586.54
661.3183, 51572.01
661.8004, 51576.24
662.2825, 51587.74
662.7646, 51592.84
663.2468, 51593.59
663.7289, 51595.22
664.2110, 51602.52
664.6931, 51608.70
665.1752, 51606.15
665.6573, 51599.69
666.1395, 51599.91
666.6216, 51616.55
667.1037, 51634.59
667.5858, 51644.79
668.0679, 51650.27
668.5500, 51674.51
669.0322, 51727.06
669.5143, 51779.67
669.9964, 51822.54
670.4785, 51855.07
670.9606, 51869.04
671.4427, 51862.43
671.9249, 51852.43
672.4070, 51845.45
672.8891, 51846.08
673.3712, 51869.44
673.8533, 51918.91
674.3354, 51967.31
674.8176, 51996.07
675.2997, 52013.68
675.7818, 52028.88
676.2639, 52045.92
676.7460, 52057.65
677.2281, 52055.73
677.7103, 52051.35
678.1924, 52058.45
678.6745, 52083.31
679.1566, 52106.95
679.6387, 52126.55
680.1208, 52143.97
680.6030, 52162.01
681.0851, 52180.18
681.5672, 52205.79
682.0493, 52248.20
682.5314, 52291.96
683.0135, 52304.01
683.4957, 52291.21
683.9778, 52281.32
684.4599, 52292.35
684.9420, 52308.77
685.4241, 52322.58
685.9063, 52332.96
686.3884, 52337.27
686.8705, 52327.24
687.3526, 52318.82
687.8347, 52318.38
688.3168, 52326.43
688.7990, 52349.31
689.2811, 52398.00
689.7632, 52440.09
690.2453, 52442.99
690.7274, 52410.82
691.2095, 52395.24
691.6917, 52400.33
692.1738, 52415.79
692.6559, 52437.19
693.1380, 52459.26
693.6201, 52470.71
694.1022, 52462.64
694.5844, 52459.11
695.0665, 52480.20
695.5486, 52510.75
696.0307, 52531.59
696.5128, 52515.43
696.9949, 52519.21
697.4771, 52561.51
697.9592, 52620.86
698.4413, 52650.41
698.9234, 52640.44
699.4055, 52643.44
699.8876, 52683.07
700.3698, 52735.98
700.8519, 52734.74
701.3340, 52687.14
701.8161, 52642.71
702.2982, 52628.13
702.7803, 52630.33
703.2625, 52638.41
703.7446, 52652.01
704.2267, 52668.16
704.7088, 52688.80
705.1909, 52709.52
705.6730, 52727.70
706.1552, 52743.10
706.6373, 52758.49
707.1194, 52769.89
707.6015, 52786.17
708.0836, 52810.66
708.5657, 52842.38
709.0479, 52888.24
709.5300, 52950.38
710.0121, 53006.26
710.4942, 53027.13
710.9763, 53026.01
711.4584, 53036.68
711.9406, 53064.42
712.4227, 53090.68
712.9048, 53103.80
713.3869, 53107.54
713.8690, 53105.86
714.3511, 53099.63
714.8333, 53089.88
715.3154, 53078.04
715.7975, 53064.54
716.2796, 53049.63
716.7617, 53035.04
717.2438, 53020.51
717.7260, 53008.43
718.2081, 52995.92
718.6902, 52972.74
719.1723, 52941.71
719.6544, 52924.93
720.1365, 52935.06
720.6187, 52952.88
721.1008, 52951.06
721.5829, 52938.52
722.0650, 52936.80
722.5471, 52953.97
723.0292, 52983.37
723.5114, 53031.60
723.9935, 53090.52
724.4756, 53127.93
724.9577, 53129.44
725.4398, 53128.53
725.9219, 53133.67
726.4041, 53144.22
726.8862, 53156.51
727.3683, 53170.96
727.8504, 53188.11
728.3325, 53216.62
728.8146, 53246.55
729.2968, 53254.65
729.7789, 53242.55
730.2610, 53222.65
730.7431, 53186.54
731.2252, 53158.09
731.7073, 53159.14
732.1895, 53193.79
732.6716, 53224.54
733.1537, 53241.46
733.6358, 53254.39
734.1179, 53268.76
734.6000, 53285.68
735.0822, 53291.26
735.5643, 53283.12
736.0464, 53269.91
736.5285, 53255.59
737.0106, 53242.38
737.4927, 53242.51
737.9749, 53259.21
738.4570, 53273.61
738.9391, 53266.45
739.4212, 53250.50
739.9033, 53242.53
740.3854, 53256.14
740.8676, 53256.20
741.3497, 53214.54
741.8318, 53166.32
742.3139, 53147.52
742.7960, 53169.96
743.2781, 53191.56
743.7603, 53206.76
744.2424, 53223.32
744.7245, 53253.42
745.2066, 53294.80
745.6887, 53340.61
746.1708, 53394.24
746.6530, 53435.16
747.1351, 53422.23
747.6172, 53382.61
748.0993, 53365.04
748.5814, 53417.59
749.0635, 53459.71
749.5457, 53457.74
750.0278, 53427.95
750.5099, 53404.31
750.9920, 53383.30
751.4741, 53382.04
751.9562, 53416.94
752.4384, 53464.93
752.9205, 53459.15
753.4026, 53401.51
753.8847, 53344.02
754.3668, 53301.72
754.8489, 53276.88
755.3311, 53282.74
755.8132, 53309.86
756.2953, 53330.38
756.7774, 53321.97
757.2595, 53312.98
757.7416, 53325.98
758.2238, 53353.30
758.7059, 53350.09
759.1880, 53281.49
759.6701, 53236.18
760.1522, 53248.51
760.6343, 53305.07
761.1165, 53331.77
761.5986, 53326.80
762.0807, 53323.58
762.5628, 53349.00
763.0449, 53383.91
763.5270, 53392.84
764.0092, 53379.35
764.4913, 53363.72
764.9734, 53353.85
765.4555, 53348.18
765.9376, 53349.55
766.4197, 53358.04
766.9019, 53356.07
767.3840, 53333.29
767.8661, 53314.83
768.3482, 53313.52
768.8303, 53328.71
769.3124, 53338.84
769.7946, 53343.71
770.2767, 53347.39
770.7588, 53349.77
771.2409, 53354.00
771.7230, 53369.34
772.2051, 53395.08
772.6873, 53414.67
773.1694, 53403.98
773.6515, 53394.02
774.1336, 53411.14
774.6157, 53465.17
775.0978, 53494.57
775.5800, 53484.32
776.0621, 53466.40
776.5442, 53460.04
777.0263, 53465.82
777.5084, 53461.56
777.9905, 53445.75
778.4727, 53433.04
778.9548, 53439.68
779.4369, 53456.87
779.9190, 53473.20
780.4011, 53488.09
780.8832, 53490.46
781.3654, 53461.24
781.8475, 53426.98
782.3296, 53408.88
782.8117, 53417.91
783.2938, 53418.71
783.7759, 53405.53
784.2581, 53393.74
784.7402, 53396.51
785.2223, 53414.08
785.7044, 53434.14
786.1865, 53457.39
786.6686, 53470.11
787.1508, 53439.24
787.6329, 53395.72
788.1150, 53393.05
788.5971, 53445.09
789.0792, 53493.26
789.5613, 53497.16
790.0435, 53492.33
790.5256, 53509.89
791.0077, 53565.36
791.4898, 53602.49
791.9719, 53615.83
792.4540, 53618.64
792.9362, 53623.41
793.4183, 53629.49
793.9004, 53627.83
794.3825, 53618.05
794.8646, 53601.95
795.3467, 53573.03
795.8289, 53543.04
796.3110, 53530.55
796.7931, 53543.88
797.2752, 53554.18
797.7573, 53547.32
798.2394, 53536.62
798.7216, 53533.38
799.2037, 53540.84
799.6858, 53546.74
800.1679, 53548.50
800.6500, 53553.74
801.1321, 53574.03
801.6143, 53605.05
802.0964, 53625.91
802.5785, 53632.88
803.0606, 53636.96
803.5427, 53642.66
804.0248, 53652.62
804.5070, 53671.30
804.9891, 53703.34
805.4712, 53731.93
805.9533, 53755.26
806.4354, 53773.24
806.9175, 53782.55
807.3997, 53776.96
807.8818, 53797.73
808.3639, 53852.92
808.8460, 53910.18
809.3281, 53927.68
809.8102, 53922.06
810.2924, 53935.70
810.7745, 53975.30
811.2566, 54025.84
811.7387, 54070.42
812.2208, 54124.29
812.7029, 54200.22
813.1851, 54300.13
813.6672, 54423.93
814.1493, 54582.98
814.6314, 54750.23
815.1135, 54901.26
815.5956, 55036.01
816.0778, 55175.97
816.5599, 55322.39
817.0420, 55474.21
817.5241, 55621.71
818.0062, 55776.88
818.4883, 55967.96
818.9705, 56203.99
819.4526, 56434.15
819.9347, 56607.86
820.4168, 56785.63
820.8989, 57020.00
821.3810, 57328.54
821.8632, 57609.54
822.3453, 57851.57
822.8274, 58093.58
823.3095, 58360.22
823.7916, 58651.82
824.2737, 58953.66
824.7559, 59266.43
825.2380, 59583.12
825.7201, 59906.09
826.2022, 60222.67
826.6843, 60530.75
827.1664, 60837.12
827.6486, 61064.36
828.1307, 61173.10
828.6128, 61218.72
829.0949, 61235.09
829.5770, 61227.45
830.0591, 61109.20
830.5413, 60877.13
831.0234, 60554.15
831.5055, 60130.29
831.9876, 59637.88
832.4697, 59119.92
832.9518, 58584.81
833.4340, 58055.74
833.9161, 57519.05
834.3982, 57021.23
834.8803, 56602.17
835.3624, 56270.43
835.8445, 55931.85
836.3267, 55570.68
836.8088, 55235.89
837.2909, 54959.26
837.7730, 54732.96
838.2551, 54500.71
838.7372, 54265.74
839.2194, 54072.42
839.7015, 53976.93
840.1836, 53917.90
840.6657, 53839.68
841.1478, 53743.15
841.6299, 53647.76
842.1121, 53551.08
842.5942, 53466.36
843.0763, 53397.77
843.5584, 53343.17
844.0405, 53291.73
844.5226, 53241.85
845.0048, 53200.83
845.4869, 53177.18
845.9690, 53158.24
846.4511, 53118.50
846.9332, 53062.24
847.4153, 53005.32
847.8975, 52943.79
848.3796, 52894.80
848.8617, 52877.70
849.3438, 52880.73
849.8259, 52863.43
850.3080, 52811.76
850.7902, 52771.64
851.2723, 52758.24
851.7544, 52758.45
852.2365, 52743.18
852.7186, 52714.85
853.2007, 52684.34
853.6829, 52655.01
854.1650, 52627.16
854.6471, 52598.52
855.1292, 52571.82
855.6113, 52551.54
856.0934, 52542.76
856.5756, 52535.39
857.0577, 52528.51
857.5398, 52521.41
858.0219, 52513.53
858.5040, 52504.60
858.9861, 52489.05
859.4683, 52463.20
859.9504, 52438.45
860.4325, 52430.94
860.9146, 52433.73
861.3967, 52436.43
861.8788, 52438.21
862.3610, 52434.23
862.8431, 52421.55
863.3252, 52402.73
863.8073, 52380.68
864.2894, 52354.89
864.7715, 52327.04
865.2537, 52296.34
865.7358, 52267.98
866.2179, 52253.13
866.7000, 52244.65
867.1821, 52218.36
867.6642, 52171.33
868.1464, 52128.94
868.6285, 52097.43
869.1106, 52085.24
869.5927, 52106.09
870.0748, 52172.75
870.5569, 52209.58
871.0391, 52203.10
871.5212, 52189.82
872.0033, 52187.47
872.4854, 52195.28
872.9675, 52218.24
873.4496, 52254.23
873.9318, 52276.61
874.4139, 52247.64
874.8960, 52210.75
875.3781, 52213.59
875.8602, 52249.79
876.3423, 52261.46
876.8245, 52206.96
877.3066, 52159.03
877.7887, 52140.16
878.2708, 52142.90
878.7529, 52136.08
879.2350, 52120.39
879.7172, 52101.36
880.1993, 52080.83
880.6814, 52060.78
881.1635, 52048.30
881.6456, 52038.59
882.1277, 52019.72
882.6099, 51967.55
883.0920, 51930.09
883.5741, 51931.48
884.0562, 51950.55
884.5383, 51952.16
885.0204, 51932.48
885.5026, 51920.07
885.9847, 51921.32
886.4668, 51926.88
886.9489, 51922.88
887.4310, 51913.53
887.9131, 51905.31
888.3953, 51894.24
888.8774, 51899.94
889.3595, 51959.71
889.8416, 52021.97
890.3237, 52033.30
890.8058, 51962.37
891.2880, 51933.90
891.7701, 51958.44
892.2522, 51992.32
892.7343, 51993.48
893.2164, 51973.09
893.6985, 51957.95
894.1807, 51950.42
894.6628, 51954.68
895.1449, 51990.00
895.6270, 52024.49
896.1091, 52034.82
896.5912, 52017.37
897.0734, 52001.02
897.5555, 51984.43
898.0376, 51972.02
898.5197, 51968.85
899.0018, 51970.55
899.4839, 51956.76
899.9661, 51931.45
900.4482, 51917.54
900.9303, 51946.00
901.4124, 51973.40
901.8945, 51969.19
902.3766, 51941.01
902.8588, 51913.59
903.3409, 51884.88
903.8230, 51868.41
904.3051, 51869.88
904.7872, 51881.49
905.2693, 51892.77
905.7515, 51901.54
906.2336, 51892.24
906.7157, 51853.41
907.1978, 51814.02
907.6799, 51795.79
908.1620, 51792.34
908.6442, 51796.92
909.1263, 51820.22
909.6084, 51829.61
910.0905, 51823.00
910.5726, 51804.95
911.0547, 51774.41
911.5369, 51733.80
912.0190, 51706.72
912.5011, 51695.27
912.9832, 51688.85
913.4653, 51683.24
913.9474, 51675.79
914.4296, 51658.55
914.9117, 51629.94
915.3938, 51621.95
915.8759, 51657.34
916.3580, 51686.48
916.8401, 51684.54
917.3223, 51658.39
917.8044, 51656.14
918.2865, 51675.39
918.7686, 51683.53
919.2507, 51650.43
919.7328, 51608.96
920.2150, 51596.88
920.6971, 51602.02
921.1792, 51593.77
921.6613, 51551.09
922.1434, 51511.80
922.6255, 51477.51
923.1077, 51453.48
923.5898, 51455.68
924.0719, 51482.16
924.5540, 51493.69
925.0361, 51479.89
925.5182, 51459.38
926.0004, 51445.66
926.4825, 51437.61
926.9646, 51433.90
927.4467, 51434.29
927.9288, 51436.76
928.4109, 51443.40
928.8931, 51447.98
929.3752, 51449.22
929.8573, 51446.95
930.3394, 51421.18
930.8215, 51372.46
931.3036, 51326.85
931.7858, 51314.15
932.2679, 51307.57
932.7500, 51274.21
933.2321, 51219.33
933.7142, 51182.69
934.1964, 51199.02
934.6785, 51200.45
935.1606, 51160.67
935.6427, 51100.09
936.1248, 51085.23
936.6069, 51112.07
937.0891, 51135.96
937.5712, 51139.64
938.0533, 51137.84
938.5354, 51143.59
939.0175, 51152.96
939.4996, 51160.40
939.9818, 51169.14
940.4639, 51165.59
940.9460, 51139.23
941.4281, 51114.19
941.9102, 51120.74
942.3923, 51154.64
942.8745, 51176.87
943.3566, 51184.95
943.8387, 51181.91
944.3208, 51154.38
944.8029, 51129.02
945.2850, 51134.66
945.7672, 51174.95
946.2493, 51200.45
946.7314, 51205.43
947.2135, 51199.70
947.6956, 51185.24
948.1777, 51163.74
948.6599, 51137.70
949.1420, 51109.29
949.6241, 51091.75
950.1062, 51096.48
950.5883, 51108.00
951.0704, 51115.97
951.5526, 51123.24
952.0347, 51135.66
952.5168, 51160.84
952.9989, 51176.77
953.4810, 51181.74
953.9631, 51177.09
954.4453, 51159.09
954.9274, 51132.55
955.4095, 51113.34
955.8916, 51103.60
956.3737, 51102.25
956.8558, 51120.52
957.3380, 51137.28
957.8201, 51136.14
958.3022, 51115.35
958.7843, 51083.98
959.2664, 51032.77
959.7485, 51000.07
960.2307, 51018.83
960.7128, 51059.44
961.1949, 51045.08
961.6770, 50989.82
962.1591, 50943.47
962.6412, 50939.73
963.1234, 50938.39
963.6055, 50917.42
964.0876, 50892.18
964.5697, 50893.11
965.0518, 50933.10
965.5339, 50941.60
966.0161, 50906.68
966.4982, 50853.37
966.9803, 50789.31
967.4624, 50735.16
967.9445, 50738.33
968.4266, 50814.18
968.9088, 50870.41
969.3909, 50851.92
969.8730, 50822.74
970.3551, 50815.09
970.8372, 50827.27
971.3193, 50836.07
971.8015, 50840.51
972.2836, 50850.07
972.7657, 50880.00
973.2478, 50908.36
973.7299, 50902.00
974.2120, 50873.74
974.6942, 50855.57
975.1763, 50865.48
975.6584, 50875.25
976.1405, 50878.23
976.6226, 50883.26
977.1047, 50908.00
977.5869, 50950.02
978.0690, 50977.24
978.5511, 50984.33
979.0332, 50984.73
979.5153, 50990.53
979.9974, 50994.68
980.4796, 50988.31
980.9617, 50968.51
981.4438, 50958.11
981.9259, 50959.93
982.4080, 50967.39
982.8901, 50982.54
983.3723, 50998.63
983.8544, 50988.20
984.3365, 50957.77
984.8186, 50934.79
985.3007, 50935.56
985.7828, 50943.11
986.2650, 50950.90
986.7471, 50958.93
987.2292, 50966.93
987.7113, 50973.21
988.1934, 50984.57
988.6755, 51003.09
989.1577, 51018.88
989.6398, 51020.46
990.1219, 51011.90
990.6040, 51000.98
991.0861, 50988.76
991.5682, 50968.69
992.0504, 50933.68
992.5325, 50895.77
993.0146, 50859.71
993.4967, 50826.84
993.9788, 50800.75
994.4609, 50782.13
994.9431, 50756.39
995.4252, 50710.92
995.9073, 50667.34
996.3894, 50652.18
996.8715, 50654.27
997.3536, 50654.52
997.8358, 50638.04
998.3179, 50635.99
998.8000, 50653.63
999.2821, 50677.41
999.7642, 50687.91
1000.246, 50690.87
1000.728, 50730.76
1001.211, 50807.21
1001.693, 50861.93
1002.175, 50831.29
1002.657, 50788.07
1003.139, 50778.91
1003.621, 50801.36
1004.103, 50824.16
1004.585, 50850.25
1005.068, 50863.16
1005.550, 50853.57
1006.032, 50838.82
1006.514, 50851.16
1006.996, 50878.87
1007.478, 50897.46
1007.960, 50895.29
1008.442, 50896.95
1008.924, 50919.29
1009.407, 50940.45
1009.889, 50942.37
1010.371, 50923.71
1010.853, 50927.34
1011.335, 50953.49
1011.817, 50979.70
1012.299, 50993.39
1012.781, 50998.35
1013.263, 50989.62
1013.746, 50974.29
1014.228, 50976.89
1014.710, 51010.91
1015.192, 51045.38
1015.674, 51079.31
1016.156, 51105.91
1016.638, 51110.34
1017.120, 51099.37
1017.603, 51091.16
1018.085, 51087.46
1018.567, 51096.90
1019.049, 51136.87
1019.531, 51180.61
1020.013, 51208.88
1020.495, 51221.95
1020.977, 51242.39
1021.459, 51273.04
1021.942, 51282.83
1022.424, 51240.96
1022.906, 51189.71
1023.388, 51198.87
1023.870, 51240.25
1024.352, 51258.34
1024.834, 51213.13
1025.316, 51177.72
1025.799, 51160.81
1026.281, 51153.90
1026.763, 51149.45
1027.245, 51147.88
1027.727, 51155.46
1028.209, 51171.57
1028.691, 51169.90
1029.173, 51115.93
1029.656, 51052.23
1030.138, 51000.90
1030.620, 50964.27
1031.102, 50948.55
1031.584, 50960.67
1032.066, 50961.61
1032.548, 50939.59
1033.030, 50905.39
1033.512, 50859.94
1033.995, 50818.29
1034.477, 50814.18
1034.959, 50870.50
1035.441, 50904.02
1035.923, 50883.97
1036.405, 50847.82
1036.887, 50811.37
1037.369, 50775.78
1037.851, 50753.52
1038.334, 50742.60
1038.816, 50716.49
1039.298, 50646.11
1039.780, 50571.20
1040.262, 50510.85
1040.744, 50467.25
1041.226, 50444.62
1041.708, 50452.30
1042.191, 50451.07
1042.673, 50435.80
1043.155, 50421.11
1043.637, 50421.98
1044.119, 50433.50
1044.601, 50447.81
1045.083, 50464.13
1045.565, 50482.65
1046.047, 50526.70
1046.530, 50540.90
1047.012, 50491.01
1047.494, 50409.84
1047.976, 50396.89
1048.458, 50443.30
1048.940, 50479.06
1049.422, 50483.96
1049.904, 50476.87
1050.386, 50461.64
1050.869, 50447.85
1051.351, 50445.71
1051.833, 50456.27
1052.315, 50474.20
1052.797, 50501.85
1053.279, 50525.21
1053.761, 50534.32
1054.243, 50534.82
1054.726, 50530.75
1055.208, 50526.12
1055.690, 50532.14
1056.172, 50576.28
1056.654, 50596.89
1057.136, 50575.76
1057.618, 50542.95
1058.100, 50538.45
1058.583, 50556.13
1059.065, 50552.27
1059.547, 50524.18
1060.029, 50492.59
1060.511, 50470.88
1060.993, 50452.52
1061.475, 50432.71
1061.957, 50413.30
1062.439, 50399.63
1062.922, 50390.17
1063.404, 50402.66
1063.886, 50451.53
1064.368, 50493.07
1064.850, 50458.01
1065.332, 50389.09
1065.814, 50344.02
1066.296, 50338.21
1066.778, 50338.20
1067.261, 50347.01
1067.743, 50347.30
1068.225, 50320.96
1068.707, 50283.73
1069.189, 50294.45
1069.671, 50342.27
1070.153, 50388.52
1070.635, 50420.24
1071.118, 50441.57
1071.600, 50449.06
1072.082, 50449.70
1072.564, 50448.23
1073.046, 50443.73
1073.528, 50446.30
1074.010, 50455.92
1074.492, 50474.23
1074.974, 50510.98
1075.457, 50549.13
1075.939, 50572.04
1076.421, 50582.30
1076.903, 50595.50
1077.385, 50619.30
1077.867, 50624.95
1078.349, 50602.46
1078.831, 50574.44
1079.313, 50569.66
1079.796, 50581.04
1080.278, 50601.65
1080.760, 50631.82
1081.242, 50644.91
1081.724, 50613.79
1082.206, 50584.74
1082.688, 50575.27
1083.170, 50578.99
1083.652, 50574.50
1084.135, 50564.36
1084.617, 50563.93
1085.099, 50586.27
1085.581, 50599.70
1086.063, 50576.98
1086.545, 50543.00
1087.027, 50517.74
1087.509, 50501.15
1087.992, 50513.50
1088.474, 50557.82
1088.956, 50593.60
1089.438, 50584.77
1089.920, 50564.82
1090.402, 50566.13
1090.884, 50582.64
1091.366, 50602.29
1091.849, 50623.74
1092.331, 50641.10
1092.813, 50649.49
1093.295, 50661.18
1093.777, 50700.45
1094.259, 50746.50
1094.741, 50753.39
1095.223, 50723.36
1095.705, 50691.67
1096.188, 50673.47
1096.670, 50655.61
1097.152, 50632.42
1097.634, 50612.14
1098.116, 50614.70
1098.598, 50635.56
1099.080, 50640.84
1099.562, 50623.37
1100.044, 50618.60
1100.527, 50669.66
1101.009, 50724.40
1101.491, 50749.45
1101.973, 50747.43
1102.455, 50725.27
1102.937, 50681.09
1103.419, 50655.74
1103.901, 50666.91
1104.384, 50690.31
1104.866, 50695.41
1105.348, 50700.36
1105.830, 50733.49
1106.312, 50813.46
1106.794, 50847.53
1107.276, 50823.94
1107.758, 50793.68
1108.240, 50783.41
1108.723, 50786.70
1109.205, 50794.40
1109.687, 50806.25
1110.169, 50821.56
1110.651, 50848.83
1111.133, 50868.74
1111.615, 50884.54
1112.097, 50887.51
1112.579, 50861.30
1113.062, 50816.50
1113.544, 50790.92
1114.026, 50784.17
1114.508, 50785.55
1114.990, 50791.31
1115.472, 50802.73
1115.954, 50820.85
1116.436, 50843.96
1116.919, 50873.40
1117.401, 50907.97
1117.883, 50926.58
1118.365, 50926.16
1118.847, 50921.34
1119.329, 50915.63
1119.811, 50915.43
1120.293, 50930.63
1120.776, 50955.22
1121.258, 50964.54
1121.740, 50956.37
1122.222, 50952.42
1122.704, 50959.70
1123.186, 50964.13
1123.668, 50947.02
1124.150, 50921.74
1124.632, 50903.63
1125.115, 50896.21
1125.597, 50882.54
1126.079, 50858.02
1126.561, 50845.16
1127.043, 50856.66
1127.525, 50879.23
1128.007, 50895.86
1128.489, 50906.29
1128.971, 50908.16
1129.454, 50894.73
1129.936, 50891.72
1130.418, 50907.45
1130.900, 50920.83
1131.382, 50912.42
1131.864, 50895.00
1132.346, 50912.39
1132.828, 50953.96
1133.311, 50986.59
1133.793, 50983.99
1134.275, 50988.30
1134.757, 51018.75
1135.239, 51047.75
1135.721, 51047.84
1136.203, 51023.01
1136.685, 50999.95
1137.167, 50981.11
1137.650, 50983.27
1138.132, 51050.40
1138.614, 51102.24
1139.096, 51088.46
1139.578, 51044.55
1140.060, 51014.16
1140.542, 50997.16
1141.024, 50996.13
1141.506, 51011.63
1141.989, 51027.79
1142.471, 51036.02
1142.953, 51037.91
1143.435, 51034.60
1143.917, 51025.79
1144.399, 51006.63
1144.881, 50973.46
1145.363, 50963.27
1145.846, 50985.30
1146.328, 51015.58
1146.810, 51032.61
1147.292, 51044.18
1147.774, 51057.46
1148.256, 51073.13
1148.738, 51090.01
1149.220, 51109.85
1149.703, 51123.09
1150.185, 51125.40
1150.667, 51123.89
1151.149, 51120.03
1151.631, 51122.01
1152.113, 51145.10
1152.595, 51195.72
1153.077, 51233.45
1153.559, 51254.11
1154.042, 51263.91
1154.524, 51260.43
1155.006, 51253.87
1155.488, 51269.03
1155.970, 51293.75
1156.452, 51303.04
1156.934, 51284.53
1157.416, 51269.41
1157.898, 51264.47
1158.381, 51257.84
1158.863, 51240.34
1159.345, 51218.42
1159.827, 51215.71
1160.309, 51224.56
1160.791, 51222.67
1161.273, 51191.93
1161.755, 51171.05
1162.238, 51173.95
1162.720, 51182.90
1163.202, 51185.61
1163.684, 51183.95
1164.166, 51185.65
1164.648, 51190.32
1165.130, 51195.44
1165.612, 51181.25
1166.094, 51191.34
1166.577, 51260.58
1167.059, 51336.71
1167.541, 51361.09
1168.023, 51340.27
1168.505, 51345.94
1168.987, 51375.26
1169.469, 51391.16
1169.951, 51336.20
1170.433, 51303.12
1170.916, 51364.77
1171.398, 51452.43
1171.880, 51474.89
1172.362, 51436.11
1172.844, 51398.78
1173.326, 51368.77
1173.808, 51353.02
1174.290, 51381.24
1174.773, 51401.61
1175.255, 51361.20
1175.737, 51301.44
1176.219, 51318.55
1176.701, 51413.70
1177.183, 51429.54
1177.665, 51341.83
1178.147, 51254.50
1178.630, 51253.87
1179.112, 51279.10
1179.594, 51285.90
1180.076, 51282.98
1180.558, 51309.87
1181.040, 51369.05
1181.522, 51402.98
1182.004, 51396.90
1182.486, 51387.77
1182.969, 51413.37
1183.451, 51444.67
1183.933, 51454.09
1184.415, 51469.65
1184.897, 51479.05
1185.379, 51472.82
1185.861, 51479.24
1186.343, 51455.85
1186.825, 51435.13
1187.308, 51460.86
1187.790, 51496.97
1188.272, 51515.07
1188.754, 51512.84
1189.236, 51461.23
1189.718, 51351.45
1190.200, 51290.79
1190.682, 51323.73
1191.165, 51391.24
1191.647, 51453.62
1192.129, 51502.01
1192.611, 51520.81
1193.093, 51506.13
1193.575, 51505.12
1194.057, 51518.78
1194.539, 51533.24
1195.021, 51539.65
1195.504, 51549.80
1195.986, 51579.17
1196.468, 51618.35
1196.950, 51657.92
1197.432, 51698.96
1197.914, 51720.33
1198.396, 51720.00
1198.878, 51709.80
1199.360, 51687.37
1199.843, 51670.62
1200.325, 51695.59
1200.807, 51733.68
1201.289, 51742.43
1201.771, 51712.15
1202.253, 51679.43
1202.735, 51643.30
1203.217, 51615.92
1203.700, 51602.27
1204.182, 51604.55
1204.664, 51639.87
1205.146, 51687.41
1205.628, 51711.11
1206.110, 51696.13
1206.592, 51696.80
1207.074, 51714.77
1207.557, 51733.50
1208.039, 51729.04
1208.521, 51731.32
1209.003, 51795.08
1209.485, 51882.82
1209.967, 51920.61
1210.449, 51874.50
1210.931, 51866.67
1211.413, 51903.11
1211.896, 51940.10
1212.378, 51943.08
1212.860, 51935.07
1213.342, 51942.16
1213.824, 51956.57
1214.306, 51960.73
1214.788, 51949.08
1215.270, 51947.14
1215.752, 51957.41
1216.235, 51963.41
1216.717, 51959.33
1217.199, 51939.47
1217.681, 51875.71
1218.163, 51797.14
1218.645, 51775.09
1219.127, 51832.32
1219.609, 51860.54
1220.092, 51853.55
1220.574, 51836.56
1221.056, 51826.49
1221.538, 51818.29
1222.020, 51796.96
1222.502, 51776.69
1222.984, 51792.68
1223.466, 51858.13
1223.948, 51893.74
1224.431, 51893.05
1224.913, 51884.00
1225.395, 51887.62
1225.877, 51893.30
1226.359, 51885.09
1226.841, 51874.36
1227.323, 51891.68
1227.805, 51944.94
1228.287, 51970.90
1228.770, 51964.23
1229.252, 51948.82
1229.734, 51924.16
1230.216, 51916.61
1230.698, 51966.12
1231.180, 52041.36
1231.662, 52069.27
1232.144, 52045.90
1232.627, 52025.70
1233.109, 52012.93
1233.591, 52003.85
1234.073, 51994.27
1234.555, 51988.87
1235.037, 51998.57
1235.519, 52011.80
1236.001, 52000.84
1236.484, 51966.17
1236.966, 51968.00
1237.448, 52011.74
1237.930, 52039.30
1238.412, 51977.68
1238.894, 51924.61
1239.376, 51950.37
1239.858, 52012.34
1240.340, 52044.18
1240.823, 52047.91
1241.305, 52056.90
1241.787, 52073.57
1242.269, 52079.47
1242.751, 52046.31
1243.233, 52020.09
1243.715, 52024.66
1244.197, 52044.59
1244.679, 52057.87
1245.162, 52065.77
1245.644, 52067.95
1246.126, 52066.04
1246.608, 52081.86
1247.090, 52145.51
1247.572, 52205.91
1248.054, 52247.34
1248.536, 52275.60
1249.019, 52295.33
1249.501, 52308.14
1249.983, 52316.80
1250.465, 52322.35
1250.947, 52338.07
1251.429, 52394.68
1251.911, 52423.34
1252.393, 52401.73
1252.875, 52361.88
1253.358, 52343.21
1253.840, 52340.61
1254.322, 52351.59
1254.804, 52371.86
1255.286, 52367.32
1255.768, 52300.52
1256.250, 52259.49
1256.732, 52262.50
1257.214, 52284.98
1257.697, 52309.59
1258.179, 52327.13
1258.661, 52314.20
1259.143, 52276.25
1259.625, 52256.09
1260.107, 52264.51
1260.589, 52276.37
1261.071, 52288.82
1261.554, 52301.61
1262.036, 52316.97
1262.518, 52330.35
1263.000, 52336.75
1263.482, 52335.62
1263.964, 52325.40
1264.446, 52298.74
1264.928, 52296.71
1265.411, 52326.71
1265.893, 52360.57
1266.375, 52369.27
1266.857, 52373.82
1267.339, 52390.62
1267.821, 52418.61
1268.303, 52455.76
1268.785, 52505.15
1269.267, 52517.37
1269.750, 52485.93
1270.232, 52455.62
1270.714, 52474.34
1271.196, 52490.39
1271.678, 52455.86
1272.160, 52404.62
1272.642, 52395.03
1273.124, 52423.81
1273.606, 52439.07
1274.089, 52437.49
1274.571, 52435.79
1275.053, 52460.70
1275.535, 52465.40
1276.017, 52419.17
1276.499, 52361.07
1276.981, 52346.41
1277.463, 52364.14
1277.946, 52369.99
1278.428, 52363.84
1278.910, 52367.48
1279.392, 52407.84
1279.874, 52433.21
1280.356, 52433.45
1280.838, 52418.45
1281.320, 52390.71
1281.802, 52358.96
1282.285, 52345.05
1282.767, 52344.71
1283.249, 52336.58
1283.731, 52299.75
1284.213, 52288.54
1284.695, 52313.57
1285.177, 52341.27
1285.659, 52330.76
1286.141, 52313.39
1286.624, 52342.20
1287.106, 52336.77
1287.588, 52335.47
1288.070, 52360.74
1288.552, 52340.59
1289.034, 52354.59
1289.516, 52379.58
1289.998, 52406.51
1290.481, 52428.42
1290.963, 52439.78
1291.445, 52440.93
1291.927, 52430.76
1292.409, 52407.09
1292.891, 52400.48
1293.373, 52412.00
1293.855, 52441.40
1294.338, 52505.99
1294.820, 52566.96
1295.302, 52613.26
1295.784, 52640.61
1296.266, 52630.51
1296.748, 52594.04
1297.230, 52607.51
1297.712, 52665.71
1298.194, 52733.15
1298.677, 52796.83
1299.159, 52832.85
1299.641, 52824.73
1300.123, 52814.18
1300.605, 52838.85
1301.087, 52877.04
1301.569, 52863.93
1302.051, 52812.32
1302.533, 52754.76
1303.016, 52657.37
##END=



