##NAMES=Sogdianite
##RRUFFID=R050648
##IDEAL CHEMISTRY=KZr^4+^_2_(Li_3_Si_12_)O_30_
##LOCALITY=Dara-i-Pioz, Tadjikistan
##OWNER=RRUFF
##SOURCE=Dmitri Belakyovski
##DESCRIPTION=Purple tabular fragment, used in the Geiger & Grodzicki (2012) study
##STATUS=The identification of this mineral has been confirmed by X-ray diffraction and chemical analysis
##URL=rruff.info/R050648
##MEASURED CHEMISTRY=([box]_1.13_Na_0.87_)_Σ=2_K_1.00_Li_3.00_(Zr_0.76_Fe^3+^_0.73_Ti_0.37_Al_0.14_)_Σ=2_Si_12.00_O_30_ ; Li not measured but estimated by difference and charge balance.
89.78156, 0.0000000E+00
90.26367, 43.37417
90.74579, 37.55326
91.22791, 39.78690
91.71002, 49.23354
92.19214, 58.54576
92.67426, 61.40266
93.15638, 59.41502
93.63850, 56.67098
94.12061, 53.64326
94.60273, 50.96910
95.08485, 50.60425
95.56696, 52.80676
96.04908, 55.59513
96.53120, 57.17460
97.01331, 57.49713
97.49543, 56.09982
97.97755, 51.08897
98.45966, 42.88827
98.94178, 38.99337
99.42390, 40.19243
99.90602, 44.64913
100.3881, 49.43612
100.8703, 54.92679
101.3524, 59.49241
101.8345, 62.73841
102.3166, 65.00385
102.7987, 63.88691
103.2808, 57.31223
103.7630, 47.27013
104.2451, 43.16883
104.7272, 47.76941
105.2093, 54.61490
105.6914, 59.98822
106.1735, 65.41799
106.6557, 66.44226
107.1378, 59.76655
107.6199, 44.89995
108.1020, 37.50423
108.5841, 42.99366
109.0662, 53.08523
109.5484, 60.41506
110.0305, 59.65343
110.5126, 61.50100
110.9947, 68.93480
111.4768, 83.77281
111.9590, 96.18320
112.4411, 101.6577
112.9232, 105.1826
113.4053, 113.0048
113.8874, 128.2683
114.3695, 146.4040
114.8517, 165.5378
115.3338, 184.9579
115.8159, 206.5346
116.2980, 232.2755
116.7801, 260.8443
117.2622, 289.0718
117.7444, 312.2657
118.2265, 337.0541
118.7086, 367.7582
119.1907, 406.6763
119.6728, 450.1480
120.1549, 495.5414
120.6371, 543.5615
121.1192, 597.3033
121.6013, 663.3093
122.0834, 733.9269
122.5655, 799.8751
123.0476, 851.4761
123.5298, 903.3076
124.0119, 970.9022
124.4940, 1053.328
124.9761, 1137.768
125.4582, 1211.849
125.9404, 1280.130
126.4225, 1350.926
126.9046, 1430.106
127.3867, 1512.971
127.8688, 1591.411
128.3509, 1665.043
128.8331, 1737.981
129.3152, 1817.415
129.7973, 1901.682
130.2794, 1980.505
130.7615, 2049.517
131.2436, 2109.593
131.7258, 2163.140
132.2079, 2210.886
132.6900, 2250.224
133.1721, 2277.391
133.6542, 2292.182
134.1364, 2296.043
134.6185, 2287.713
135.1006, 2267.420
135.5827, 2243.583
136.0648, 2216.796
136.5469, 2186.616
137.0291, 2150.204
137.5112, 2106.108
137.9933, 2062.783
138.4754, 2025.569
138.9575, 1995.706
139.4396, 1965.954
139.9218, 1934.781
140.4039, 1903.281
140.8860, 1876.777
141.3681, 1854.385
141.8502, 1838.968
142.3323, 1832.033
142.8145, 1830.837
143.2966, 1844.638
143.7787, 1874.773
144.2608, 1921.515
144.7429, 1982.124
145.2250, 2057.138
145.7072, 2146.373
146.1893, 2250.798
146.6714, 2377.309
147.1535, 2509.458
147.6356, 2657.992
148.1178, 2835.003
148.5999, 2944.279
149.0820, 2973.215
149.5641, 2938.882
150.0462, 2859.996
150.5283, 2703.477
151.0105, 2536.462
151.4926, 2347.788
151.9747, 2151.862
152.4568, 1983.763
152.9389, 1851.022
153.4210, 1744.953
153.9032, 1651.573
154.3853, 1574.065
154.8674, 1506.393
155.3495, 1447.320
155.8316, 1397.141
156.3137, 1352.152
156.7959, 1311.126
157.2780, 1274.628
157.7601, 1243.995
158.2422, 1222.552
158.7243, 1204.210
159.2065, 1185.690
159.6886, 1165.485
160.1707, 1146.733
160.6528, 1130.108
161.1349, 1115.509
161.6170, 1102.754
162.0992, 1094.209
162.5813, 1085.976
163.0634, 1075.163
163.5455, 1057.812
164.0276, 1042.290
164.5097, 1032.849
164.9919, 1028.503
165.4740, 1025.512
165.9561, 1023.379
166.4382, 1021.179
166.9203, 1018.043
167.4024, 1013.330
167.8846, 1008.049
168.3667, 1002.125
168.8488, 995.7915
169.3309, 990.6124
169.8130, 988.1342
170.2952, 987.1515
170.7773, 986.2448
171.2594, 986.2104
171.7415, 985.0826
172.2236, 980.1351
172.7057, 971.6341
173.1879, 963.6509
173.6700, 960.6934
174.1521, 960.1119
174.6342, 957.4301
175.1163, 948.2806
175.5984, 937.4117
176.0806, 930.1663
176.5627, 926.4792
177.0448, 925.3968
177.5269, 929.1990
178.0090, 935.2223
178.4911, 937.2049
178.9733, 929.2301
179.4554, 916.6138
179.9375, 907.5222
180.4196, 902.2860
180.9017, 899.0829
181.3838, 896.2241
181.8660, 893.8999
182.3481, 892.6801
182.8302, 893.2702
183.3123, 895.1414
183.7944, 897.4946
184.2766, 900.5706
184.7587, 902.9452
185.2408, 904.2938
185.7229, 904.1393
186.2050, 899.4490
186.6871, 885.5270
187.1693, 865.1982
187.6514, 850.2162
188.1335, 841.6036
188.6156, 835.6232
189.0977, 826.5891
189.5798, 814.6890
190.0620, 803.0963
190.5441, 794.1202
191.0262, 787.1390
191.5083, 777.8282
191.9904, 765.2474
192.4725, 751.5221
192.9547, 739.0267
193.4368, 727.5607
193.9189, 720.0755
194.4010, 720.5886
194.8831, 728.3898
195.3652, 731.8928
195.8474, 729.7014
196.3295, 723.9611
196.8116, 718.8569
197.2937, 714.5704
197.7758, 709.4593
198.2579, 701.7383
198.7401, 691.2977
199.2222, 683.1813
199.7043, 678.0038
200.1864, 675.1338
200.6685, 673.5293
201.1507, 673.4210
201.6328, 673.5043
202.1149, 672.8511
202.5970, 671.3289
203.0791, 670.6749
203.5612, 671.7623
204.0434, 673.2683
204.5255, 670.9144
205.0076, 663.6171
205.4897, 656.2169
205.9718, 651.8622
206.4539, 651.0599
206.9361, 650.3571
207.4182, 649.6624
207.9003, 648.7871
208.3824, 647.1005
208.8645, 644.5624
209.3466, 641.3162
209.8288, 636.7336
210.3109, 629.8409
210.7930, 626.1834
211.2751, 627.5468
211.7572, 632.1625
212.2393, 633.5126
212.7215, 630.9436
213.2036, 626.5419
213.6857, 620.6860
214.1678, 611.6934
214.6499, 607.2919
215.1320, 609.8807
215.6142, 617.4014
216.0963, 620.4091
216.5784, 616.8324
217.0605, 612.6726
217.5426, 612.5577
218.0247, 619.2474
218.5069, 621.5596
218.9890, 616.8853
219.4711, 606.9944
219.9532, 600.1490
220.4353, 596.8012
220.9175, 595.6427
221.3996, 595.8688
221.8817, 597.4136
222.3638, 600.8104
222.8459, 607.6332
223.3280, 616.5539
223.8102, 619.9381
224.2923, 615.2220
224.7744, 609.0135
225.2565, 605.4338
225.7386, 605.3065
226.2207, 605.9447
226.7029, 607.9667
227.1850, 610.7080
227.6671, 610.0421
228.1492, 602.8148
228.6313, 596.6522
229.1134, 596.7786
229.5956, 607.0321
230.0777, 614.8906
230.5598, 618.6949
231.0419, 619.3068
231.5240, 621.2322
232.0062, 625.8389
232.4883, 629.9188
232.9704, 631.0807
233.4525, 626.6689
233.9346, 625.2670
234.4167, 628.3222
234.8989, 634.9725
235.3810, 641.4071
235.8631, 648.6287
236.3452, 654.4036
236.8273, 657.1823
237.3094, 654.9521
237.7916, 653.9722
238.2737, 654.2318
238.7558, 655.9642
239.2379, 660.3586
239.7200, 668.7299
240.2021, 677.9776
240.6843, 686.6808
241.1664, 695.1676
241.6485, 702.2925
242.1306, 707.2844
242.6127, 710.9182
243.0948, 715.9386
243.5770, 722.7291
244.0591, 730.4301
244.5412, 738.5657
245.0233, 747.2264
245.5054, 756.2650
245.9876, 765.7165
246.4697, 775.5194
246.9518, 785.8085
247.4339, 796.8304
247.9160, 808.0259
248.3981, 819.2131
248.8803, 831.2052
249.3624, 841.2506
249.8445, 848.2411
250.3266, 853.5148
250.8087, 860.5133
251.2908, 868.4913
251.7730, 879.2676
252.2551, 894.0900
252.7372, 915.3652
253.2193, 934.6436
253.7014, 950.9077
254.1835, 965.4626
254.6657, 980.8587
255.1478, 996.4886
255.6299, 1014.102
256.1120, 1035.278
256.5941, 1061.799
257.0763, 1085.558
257.5584, 1105.516
258.0405, 1123.646
258.5226, 1143.896
259.0047, 1168.041
259.4868, 1191.026
259.9690, 1210.777
260.4511, 1226.901
260.9332, 1242.247
261.4153, 1259.420
261.8974, 1273.734
262.3795, 1276.172
262.8617, 1262.988
263.3438, 1247.048
263.8259, 1233.186
264.3080, 1222.591
264.7901, 1205.423
265.2722, 1179.992
265.7544, 1150.025
266.2365, 1120.014
266.7186, 1088.318
267.2007, 1061.828
267.6828, 1043.599
268.1649, 1033.798
268.6471, 1025.946
269.1292, 1020.057
269.6113, 1015.858
270.0934, 1013.098
270.5755, 1011.887
271.0576, 1011.422
271.5398, 1010.345
272.0219, 1008.848
272.5040, 1015.214
272.9861, 1031.543
273.4682, 1050.948
273.9503, 1065.565
274.4325, 1073.940
274.9146, 1085.550
275.3967, 1104.181
275.8788, 1128.567
276.3610, 1146.732
276.8431, 1157.276
277.3252, 1165.357
277.8073, 1176.277
278.2894, 1190.537
278.7715, 1201.864
279.2537, 1208.808
279.7358, 1212.007
280.2179, 1215.027
280.7000, 1218.644
281.1821, 1218.624
281.6642, 1211.162
282.1464, 1196.243
282.6285, 1177.999
283.1106, 1156.988
283.5927, 1133.155
284.0748, 1106.451
284.5569, 1076.763
285.0391, 1043.998
285.5212, 1005.051
286.0033, 960.8270
286.4854, 922.2255
286.9675, 890.8309
287.4496, 865.3198
287.9318, 844.0051
288.4139, 826.7700
288.8960, 811.5143
289.3781, 796.4612
289.8602, 781.9318
290.3423, 769.3221
290.8245, 758.5294
291.3066, 750.2517
291.7887, 746.6351
292.2708, 747.2813
292.7529, 748.6466
293.2350, 748.9098
293.7172, 748.4067
294.1993, 747.7386
294.6814, 746.6695
295.1635, 746.6960
295.6456, 749.9313
296.1277, 755.9727
296.6099, 763.1652
297.0920, 772.0814
297.5741, 781.2460
298.0562, 787.8889
298.5383, 791.9297
299.0204, 793.2467
299.5026, 790.3359
299.9847, 784.4324
300.4668, 778.7329
300.9489, 775.9733
301.4311, 773.4666
301.9132, 765.6510
302.3953, 752.7675
302.8774, 742.4611
303.3595, 743.8290
303.8416, 751.5331
304.3238, 755.9847
304.8059, 751.1561
305.2880, 744.6388
305.7701, 744.2649
306.2522, 749.3904
306.7343, 756.1245
307.2165, 762.6895
307.6986, 769.1512
308.1807, 775.4125
308.6628, 780.7815
309.1449, 787.1754
309.6270, 796.7845
310.1092, 808.9086
310.5913, 821.0135
311.0734, 832.6863
311.5555, 843.2384
312.0376, 850.8857
312.5197, 853.1312
313.0019, 858.4359
313.4840, 875.6398
313.9661, 899.3563
314.4482, 918.7252
314.9303, 922.2746
315.4124, 924.9479
315.8946, 936.2726
316.3767, 958.6559
316.8588, 983.3600
317.3409, 1007.980
317.8230, 1032.668
318.3051, 1057.516
318.7873, 1081.560
319.2694, 1106.976
319.7515, 1135.113
320.2336, 1166.201
320.7157, 1197.686
321.1978, 1228.760
321.6800, 1259.669
322.1621, 1290.515
322.6442, 1319.420
323.1263, 1350.199
323.6084, 1383.880
324.0905, 1420.392
324.5727, 1458.562
325.0548, 1498.327
325.5369, 1539.259
326.0190, 1581.010
326.5012, 1622.978
326.9833, 1666.657
327.4654, 1712.080
327.9475, 1759.195
328.4296, 1807.149
328.9117, 1858.000
329.3939, 1907.811
329.8760, 1954.988
330.3581, 1995.923
330.8402, 2041.059
331.3223, 2092.410
331.8044, 2147.581
332.2866, 2202.344
332.7687, 2258.346
333.2508, 2310.635
333.7329, 2358.254
334.2150, 2401.585
334.6971, 2438.454
335.1793, 2467.416
335.6614, 2491.753
336.1435, 2516.825
336.6256, 2547.219
337.1077, 2566.952
337.5898, 2571.525
338.0720, 2561.417
338.5541, 2542.093
339.0362, 2511.926
339.5183, 2476.107
340.0004, 2441.410
340.4825, 2409.190
340.9647, 2365.863
341.4468, 2307.046
341.9289, 2236.907
342.4110, 2166.766
342.8931, 2097.185
343.3752, 2027.486
343.8574, 1957.709
344.3395, 1887.349
344.8216, 1818.141
345.3037, 1749.415
345.7858, 1683.421
346.2679, 1626.047
346.7501, 1576.321
347.2322, 1526.957
347.7143, 1470.313
348.1964, 1410.365
348.6785, 1360.117
349.1607, 1320.170
349.6428, 1285.601
350.1249, 1250.027
350.6070, 1214.668
351.0891, 1182.689
351.5713, 1157.377
352.0534, 1135.687
352.5355, 1111.978
353.0176, 1086.718
353.4997, 1063.690
353.9818, 1046.386
354.4640, 1033.270
354.9461, 1021.932
355.4282, 1012.615
355.9103, 1003.826
356.3924, 993.7770
356.8745, 982.9260
357.3567, 973.3137
357.8388, 968.2230
358.3209, 963.6219
358.8030, 955.2028
359.2851, 940.4050
359.7672, 926.8544
360.2494, 920.2497
360.7315, 917.5841
361.2136, 913.4074
361.6957, 901.0918
362.1778, 890.4132
362.6599, 887.7294
363.1421, 894.7421
363.6242, 899.9233
364.1063, 900.8273
364.5884, 897.7825
365.0705, 891.1207
365.5526, 874.3163
366.0348, 860.8168
366.5169, 854.5944
366.9990, 855.3304
367.4811, 856.6458
367.9632, 858.8446
368.4453, 860.8522
368.9275, 862.0537
369.4096, 862.7527
369.8917, 862.2204
370.3738, 859.8325
370.8559, 856.2142
371.3380, 853.1370
371.8202, 850.7031
372.3023, 848.6213
372.7844, 846.5856
373.2665, 844.1548
373.7487, 843.7150
374.2308, 846.0062
374.7129, 849.5511
375.1950, 852.3719
375.6771, 854.2098
376.1592, 856.1618
376.6414, 858.4139
377.1235, 861.0045
377.6056, 864.3594
378.0877, 868.5502
378.5698, 873.3788
379.0519, 879.6910
379.5341, 887.4689
380.0162, 892.1298
380.4983, 892.1226
380.9804, 889.4531
381.4625, 888.0210
381.9446, 887.8081
382.4268, 889.3659
382.9089, 895.6712
383.3910, 904.2368
383.8731, 906.8156
384.3552, 902.3304
384.8373, 893.8123
385.3195, 883.7568
385.8016, 872.4466
386.2837, 860.4922
386.7658, 847.8641
387.2479, 835.0510
387.7300, 822.7750
388.2122, 811.0379
388.6943, 798.6561
389.1764, 783.8817
389.6585, 768.3195
390.1406, 754.0527
390.6227, 740.4169
391.1049, 730.0012
391.5870, 726.9149
392.0691, 728.9763
392.5512, 729.6146
393.0333, 724.7935
393.5154, 718.2982
393.9976, 712.4123
394.4797, 707.5189
394.9618, 703.0180
395.4439, 698.1801
395.9260, 693.7762
396.4081, 690.8445
396.8903, 690.8034
397.3724, 691.0355
397.8545, 690.2878
398.3366, 688.4349
398.8188, 688.6324
399.3009, 693.5111
399.7830, 698.9055
400.2651, 702.0247
400.7472, 698.8233
401.2293, 699.5828
401.7115, 706.9203
402.1936, 718.3548
402.6757, 726.3419
403.1578, 729.7957
403.6399, 731.6520
404.1220, 732.8622
404.6042, 733.2817
405.0863, 733.9863
405.5684, 735.1531
406.0505, 736.3036
406.5326, 736.4988
407.0147, 735.4984
407.4969, 735.2945
407.9790, 735.9318
408.4611, 737.8781
408.9432, 743.8460
409.4253, 754.1473
409.9074, 764.9808
410.3896, 773.6234
410.8717, 780.3690
411.3538, 786.6024
411.8359, 792.5887
412.3180, 797.8094
412.8001, 799.6093
413.2823, 799.3190
413.7644, 802.4121
414.2465, 815.4001
414.7286, 831.8237
415.2107, 842.3815
415.6928, 846.3882
416.1750, 850.6346
416.6571, 860.8090
417.1392, 874.1374
417.6213, 887.1522
418.1034, 896.7040
418.5855, 907.6134
419.0677, 923.6071
419.5498, 943.5833
420.0319, 962.7805
420.5140, 976.1693
420.9961, 990.6270
421.4782, 1010.791
421.9604, 1039.082
422.4425, 1068.079
422.9246, 1095.144
423.4067, 1122.001
423.8889, 1151.408
424.3710, 1185.269
424.8531, 1219.910
425.3352, 1253.441
425.8173, 1285.797
426.2994, 1321.303
426.7816, 1359.323
427.2637, 1400.859
427.7458, 1446.164
428.2279, 1494.987
428.7100, 1549.926
429.1921, 1611.911
429.6743, 1679.137
430.1564, 1744.267
430.6385, 1805.360
431.1206, 1871.828
431.6027, 1947.448
432.0848, 2032.663
432.5670, 2122.134
433.0491, 2215.834
433.5312, 2315.193
434.0133, 2424.429
434.4954, 2542.596
434.9775, 2663.478
435.4597, 2785.574
435.9418, 2909.468
436.4239, 3033.311
436.9060, 3156.641
437.3881, 3283.491
437.8702, 3421.072
438.3524, 3561.765
438.8345, 3692.732
439.3166, 3811.120
439.7987, 3929.929
440.2808, 4059.757
440.7629, 4197.233
441.2451, 4335.724
441.7272, 4466.979
442.2093, 4603.215
442.6914, 4750.271
443.1735, 4907.774
443.6556, 5072.780
444.1378, 5239.652
444.6199, 5417.579
445.1020, 5611.313
445.5841, 5822.645
446.0662, 6046.198
446.5483, 6287.311
447.0305, 6538.995
447.5126, 6791.522
447.9947, 7052.885
448.4768, 7301.888
448.9590, 7540.337
449.4411, 7767.663
449.9232, 7957.215
450.4053, 8118.610
450.8874, 8230.857
451.3695, 8279.488
451.8517, 8265.769
452.3338, 8183.155
452.8159, 8027.519
453.2980, 7807.759
453.7801, 7528.323
454.2622, 7189.174
454.7444, 6825.079
455.2265, 6442.415
455.7086, 6046.944
456.1907, 5676.519
456.6728, 5326.437
457.1549, 5006.630
457.6371, 4717.998
458.1192, 4460.894
458.6013, 4229.076
459.0834, 4025.960
459.5655, 3843.370
460.0476, 3675.663
460.5298, 3522.238
461.0119, 3389.834
461.4940, 3285.399
461.9761, 3197.160
462.4582, 3115.431
462.9403, 3038.277
463.4225, 2973.192
463.9046, 2928.082
464.3867, 2894.118
464.8688, 2864.019
465.3509, 2834.518
465.8330, 2809.994
466.3152, 2791.927
466.7973, 2779.788
467.2794, 2771.755
467.7615, 2770.949
468.2436, 2770.931
468.7257, 2769.652
469.2079, 2766.904
469.6900, 2764.648
470.1721, 2766.630
470.6542, 2764.961
471.1363, 2750.976
471.6184, 2722.992
472.1006, 2689.471
472.5827, 2652.430
473.0648, 2610.482
473.5469, 2559.601
474.0291, 2499.765
474.5112, 2431.413
474.9933, 2350.500
475.4754, 2260.391
475.9575, 2176.307
476.4396, 2099.349
476.9218, 2023.674
477.4039, 1942.096
477.8860, 1857.611
478.3681, 1777.826
478.8502, 1704.433
479.3323, 1637.587
479.8145, 1578.204
480.2966, 1525.264
480.7787, 1477.562
481.2608, 1434.219
481.7429, 1394.757
482.2250, 1358.620
482.7072, 1325.523
483.1893, 1297.063
483.6714, 1276.755
484.1535, 1260.039
484.6356, 1242.292
485.1177, 1218.157
485.5999, 1198.063
486.0820, 1185.183
486.5641, 1177.927
487.0462, 1170.254
487.5283, 1161.853
488.0104, 1153.490
488.4926, 1145.598
488.9747, 1138.545
489.4568, 1129.490
489.9389, 1117.055
490.4210, 1105.233
490.9031, 1099.605
491.3853, 1100.578
491.8674, 1100.193
492.3495, 1096.660
492.8316, 1091.078
493.3137, 1086.099
493.7958, 1081.546
494.2780, 1075.666
494.7601, 1066.881
495.2422, 1056.219
495.7243, 1045.680
496.2064, 1035.213
496.6885, 1025.003
497.1707, 1015.423
497.6528, 1005.866
498.1349, 995.5728
498.6170, 984.7365
499.0992, 972.3729
499.5813, 956.9489
500.0634, 939.4648
500.5455, 922.2360
501.0276, 906.8197
501.5097, 891.1661
501.9919, 873.8943
502.4740, 854.6173
502.9561, 836.6415
503.4382, 821.1263
503.9203, 806.1406
504.4024, 790.1859
504.8846, 772.5860
505.3667, 755.7928
505.8488, 739.9838
506.3309, 725.1683
506.8130, 711.7185
507.2951, 700.1237
507.7773, 687.7869
508.2594, 672.6559
508.7415, 655.9530
509.2236, 645.0705
509.7057, 640.4512
510.1878, 636.0680
510.6700, 625.2272
511.1521, 610.5136
511.6342, 600.0597
512.1163, 596.1212
512.5984, 593.3665
513.0806, 585.1058
513.5627, 573.9168
514.0448, 565.1888
514.5269, 565.1734
515.0090, 565.2095
515.4911, 557.6905
515.9733, 543.9208
516.4554, 533.2477
516.9375, 531.8407
517.4196, 532.6434
517.9017, 531.3984
518.3839, 526.4052
518.8660, 522.2924
519.3481, 520.6486
519.8302, 519.6240
520.3123, 517.1100
520.7944, 511.1680
521.2766, 507.3103
521.7587, 506.8955
522.2408, 509.1181
522.7229, 511.2695
523.2050, 513.8079
523.6871, 514.6251
524.1693, 511.2045
524.6514, 504.1739
525.1335, 501.4171
525.6156, 503.3859
526.0977, 506.6790
526.5798, 508.4557
527.0620, 508.8249
527.5441, 507.9352
528.0262, 505.4236
528.5083, 502.4903
528.9904, 500.3701
529.4725, 498.8457
529.9547, 497.4160
530.4368, 495.9745
530.9189, 494.4364
531.4010, 492.0658
531.8831, 488.9030
532.3652, 487.8629
532.8474, 492.3159
533.3295, 497.4850
533.8116, 500.3386
534.2937, 499.0434
534.7758, 497.9733
535.2579, 498.7267
535.7401, 499.0328
536.2222, 495.1068
536.7043, 484.0785
537.1864, 475.4149
537.6685, 471.3124
538.1506, 471.0809
538.6328, 472.4455
539.1149, 475.8559
539.5970, 478.1591
540.0791, 476.9792
540.5612, 472.9516
541.0433, 468.8868
541.5255, 464.8549
542.0076, 461.0907
542.4897, 457.7402
542.9718, 454.8001
543.4539, 452.3128
543.9360, 450.6733
544.4182, 448.8570
544.9003, 445.3596
545.3824, 441.0981
545.8645, 438.1161
546.3466, 438.8259
546.8287, 439.5680
547.3109, 438.7637
547.7930, 436.3188
548.2751, 433.1001
548.7572, 428.3454
549.2393, 423.5417
549.7214, 419.4426
550.2036, 416.0185
550.6857, 413.5616
551.1678, 412.9400
551.6499, 412.4002
552.1320, 408.9850
552.6141, 402.0316
553.0963, 396.5100
553.5784, 393.8314
554.0605, 393.0993
554.5426, 392.5403
555.0247, 392.0918
555.5068, 390.5805
555.9890, 385.9546
556.4711, 380.2493
556.9532, 377.9434
557.4353, 379.1805
557.9174, 379.5033
558.3995, 374.4246
558.8817, 367.1467
559.3638, 360.9193
559.8459, 355.9504
560.3281, 353.3809
560.8102, 355.8203
561.2923, 360.5080
561.7744, 363.0902
562.2565, 359.6911
562.7386, 357.5571
563.2208, 359.6133
563.7029, 364.8192
564.1850, 365.5351
564.6671, 359.3907
565.1492, 352.9663
565.6313, 349.5396
566.1135, 349.3666
566.5956, 349.1495
567.0777, 348.9084
567.5598, 348.5544
568.0419, 348.1720
568.5240, 347.6540
569.0062, 346.1540
569.4883, 343.0140
569.9704, 340.0655
570.4525, 340.6811
570.9346, 343.4511
571.4167, 344.7211
571.8989, 339.8427
572.3810, 335.3587
572.8631, 336.9606
573.3452, 343.7082
573.8273, 349.0237
574.3094, 348.7456
574.7916, 347.6672
575.2737, 348.9398
575.7558, 354.7677
576.2379, 356.4299
576.7200, 349.1234
577.2021, 341.3945
577.6843, 341.6935
578.1664, 354.0801
578.6485, 362.0367
579.1306, 362.6557
579.6127, 359.4262
580.0948, 359.6703
580.5770, 363.3892
581.0591, 366.4383
581.5412, 366.6711
582.0233, 365.4233
582.5054, 365.3959
582.9875, 366.5382
583.4697, 368.5082
583.9518, 370.9536
584.4339, 374.1623
584.9160, 378.9398
585.3981, 385.6133
585.8802, 391.4642
586.3624, 395.7912
586.8445, 398.3185
587.3266, 398.7517
587.8087, 393.3691
588.2908, 390.5758
588.7729, 391.1160
589.2551, 394.8583
589.7372, 402.3008
590.2193, 416.4346
590.7014, 428.4071
591.1835, 435.8369
591.6656, 439.3511
592.1478, 441.4977
592.6299, 442.0551
593.1120, 442.7251
593.5941, 444.8299
594.0762, 447.9009
594.5583, 450.2013
595.0405, 451.6412
595.5226, 452.7585
596.0047, 452.4343
596.4868, 452.5981
596.9689, 456.6844
597.4510, 467.2222
597.9332, 477.1803
598.4153, 482.4961
598.8974, 484.6488
599.3795, 486.0508
599.8616, 486.3364
600.3438, 487.0059
600.8259, 488.6683
601.3080, 491.0569
601.7901, 493.0468
602.2722, 494.1557
602.7543, 495.6992
603.2365, 498.8092
603.7186, 503.3789
604.2007, 504.5474
604.6828, 501.8656
605.1649, 497.8343
605.6470, 493.3057
606.1292, 488.9454
606.6113, 488.1638
607.0934, 491.8808
607.5755, 495.9482
608.0576, 496.6255
608.5398, 494.6129
609.0219, 491.0182
609.5040, 485.5836
609.9861, 479.4797
610.4683, 472.5576
610.9504, 465.5104
611.4325, 459.7187
611.9146, 457.5848
612.3967, 454.7503
612.8788, 449.1646
613.3610, 441.2320
613.8431, 435.3403
614.3252, 432.8686
614.8073, 430.1862
615.2894, 425.0436
615.7715, 417.2558
616.2537, 410.5051
616.7358, 404.6477
617.2179, 400.5246
617.7000, 399.6024
618.1821, 401.2512
618.6642, 403.7538
619.1464, 407.4163
619.6285, 409.7408
620.1106, 406.9369
620.5927, 401.2633
621.0748, 396.6298
621.5569, 394.4977
622.0391, 393.7082
622.5212, 393.9910
623.0033, 395.2205
623.4854, 397.0146
623.9675, 399.7446
624.4496, 402.5666
624.9318, 404.7076
625.4139, 406.2322
625.8960, 410.8550
626.3781, 419.8609
626.8602, 428.8963
627.3423, 435.2930
627.8245, 439.1064
628.3066, 441.8749
628.7887, 443.4533
629.2708, 445.1532
629.7529, 448.2051
630.2350, 452.4087
630.7172, 457.5668
631.1993, 463.9848
631.6814, 470.3364
632.1635, 476.1883
632.6456, 481.0873
633.1277, 484.4217
633.6099, 482.8570
634.0920, 483.0422
634.5741, 488.3702
635.0562, 497.3647
635.5383, 504.3571
636.0204, 507.8415
636.5026, 511.3996
636.9847, 517.0966
637.4668, 524.4841
637.9489, 526.2308
638.4310, 521.5530
638.9131, 514.8901
639.3953, 509.5189
639.8774, 504.7186
640.3595, 496.8152
640.8416, 485.4435
641.3237, 473.5593
641.8058, 463.3338
642.2880, 454.7102
642.7701, 448.2726
643.2522, 445.0486
643.7343, 441.3105
644.2164, 434.1666
644.6985, 425.6334
645.1807, 418.4619
645.6628, 414.0045
646.1449, 410.0109
646.6270, 406.1714
647.1091, 402.5570
647.5912, 399.6042
648.0734, 397.7127
648.5555, 395.2444
649.0376, 391.3431
649.5197, 386.4708
650.0018, 383.0987
650.4839, 381.1673
650.9661, 378.6888
651.4482, 373.6107
651.9303, 367.3751
652.4124, 362.3749
652.8945, 358.7157
653.3766, 355.8215
653.8588, 354.1250
654.3409, 352.5429
654.8230, 349.9141
655.3051, 345.3550
655.7872, 341.8081
656.2693, 339.5901
656.7515, 338.8958
657.2336, 340.2959
657.7158, 346.6677
658.1979, 348.4864
658.6800, 343.5217
659.1621, 335.3830
659.6442, 330.0444
660.1263, 327.5263
660.6085, 326.8678
661.0906, 328.9344
661.5727, 331.3073
662.0548, 328.6249
662.5369, 322.2058
663.0190, 317.0794
663.5012, 317.4306
663.9833, 318.9576
664.4654, 317.7997
664.9475, 314.3612
665.4296, 312.4607
665.9117, 315.9060
666.3939, 319.0146
666.8760, 317.9003
667.3581, 311.2398
667.8402, 309.5904
668.3223, 315.2600
668.8044, 322.2811
669.2866, 326.6327
669.7687, 328.3228
670.2508, 327.6374
670.7329, 324.3532
671.2150, 319.6804
671.6971, 313.7069
672.1793, 307.3875
672.6614, 303.6294
673.1435, 303.9276
673.6256, 304.6190
674.1077, 301.6540
674.5898, 297.4064
675.0720, 295.5812
675.5541, 301.8600
676.0362, 305.6118
676.5183, 301.0923
677.0004, 291.9773
677.4825, 288.7296
677.9647, 295.3828
678.4468, 300.1273
678.9289, 299.2781
679.4110, 294.0261
679.8931, 289.5796
680.3752, 285.9353
680.8574, 283.5869
681.3395, 283.9748
681.8216, 285.5341
682.3037, 284.5393
682.7858, 281.1450
683.2679, 277.9903
683.7501, 275.5619
684.2322, 274.9575
684.7143, 278.4438
685.1964, 287.5072
685.6785, 292.5115
686.1606, 286.3288
686.6428, 278.3504
687.1249, 275.5521
687.6070, 281.6160
688.0891, 284.1823
688.5712, 281.8672
689.0533, 278.2776
689.5355, 278.7148
690.0176, 282.8973
690.4997, 283.4315
690.9818, 277.9564
691.4639, 271.3564
691.9460, 270.8061
692.4282, 274.2462
692.9103, 277.1655
693.3924, 277.4523
693.8745, 277.2178
694.3566, 277.8607
694.8387, 278.8786
695.3209, 279.0941
695.8030, 277.6064
696.2851, 275.9458
696.7672, 274.0767
697.2493, 272.2407
697.7314, 271.8847
698.2136, 273.3213
698.6957, 275.3015
699.1778, 278.2177
699.6599, 281.2022
700.1420, 279.0907
700.6241, 272.1815
701.1063, 266.2908
701.5884, 267.3163
702.0705, 270.7041
702.5526, 270.5081
703.0347, 266.3155
703.5168, 262.2332
703.9990, 259.5700
704.4811, 258.2861
704.9632, 258.8431
705.4453, 262.8169
705.9274, 264.0262
706.4095, 260.8404
706.8917, 256.6967
707.3738, 254.6571
707.8560, 255.0388
708.3381, 254.6436
708.8202, 252.9483
709.3023, 251.4554
709.7844, 252.3777
710.2665, 255.0433
710.7487, 257.7718
711.2308, 260.4868
711.7129, 262.2230
712.1950, 262.0218
712.6771, 260.4156
713.1592, 258.1995
713.6414, 253.0088
714.1235, 250.2774
714.6056, 253.4896
715.0877, 259.5540
715.5698, 262.1839
716.0519, 259.9817
716.5341, 258.0840
717.0162, 258.0891
717.4983, 258.9551
717.9804, 256.9150
718.4625, 252.2493
718.9446, 249.1873
719.4268, 251.7769
719.9089, 255.7849
720.3910, 254.4093
720.8731, 249.1219
721.3552, 246.1199
721.8373, 250.9878
722.3195, 256.8083
722.8016, 260.1962
723.2837, 260.8796
723.7658, 260.1902
724.2479, 256.2335
724.7300, 253.6975
725.2122, 255.6000
725.6943, 262.0444
726.1764, 264.5663
726.6585, 262.6288
727.1406, 260.3432
727.6227, 261.1044
728.1049, 263.9115
728.5870, 266.5493
729.0691, 268.8475
729.5512, 270.9585
730.0333, 273.3378
730.5154, 275.3888
730.9976, 276.1996
731.4797, 274.7856
731.9618, 274.7899
732.4439, 278.7658
732.9260, 283.0263
733.4081, 284.7444
733.8903, 283.2361
734.3724, 281.2751
734.8545, 278.7984
735.3366, 276.3934
735.8187, 274.7489
736.3008, 273.8262
736.7830, 273.3281
737.2651, 273.0107
737.7472, 273.7198
738.2293, 278.1969
738.7114, 283.7016
739.1935, 286.0822
739.6757, 281.7392
740.1578, 277.0313
740.6399, 272.7837
741.1220, 269.5357
741.6041, 268.0439
742.0862, 268.6143
742.5684, 270.5019
743.0505, 274.3575
743.5326, 278.6791
744.0147, 279.5638
744.4968, 277.2800
744.9789, 275.3380
745.4611, 274.6290
745.9432, 275.3993
746.4253, 279.9791
746.9074, 286.3882
747.3895, 289.4289
747.8716, 282.8750
748.3538, 276.4261
748.8359, 273.9327
749.3180, 275.1244
749.8001, 278.1066
750.2822, 285.1271
750.7643, 289.6352
751.2465, 288.3407
751.7286, 283.0708
752.2107, 283.5225
752.6928, 289.8101
753.1749, 295.5740
753.6570, 297.0455
754.1392, 295.7793
754.6213, 293.9637
755.1034, 291.6318
755.5855, 289.0246
756.0676, 284.9491
756.5498, 281.7371
757.0319, 281.3412
757.5140, 283.9439
757.9962, 285.1220
758.4783, 283.4818
758.9604, 281.9876
759.4425, 281.6188
759.9246, 282.3981
760.4067, 286.2154
760.8889, 293.4844
761.3710, 299.8056
761.8531, 302.4393
762.3352, 301.6981
762.8173, 296.4501
763.2994, 286.9268
763.7816, 279.6978
764.2637, 280.1682
764.7458, 283.6113
765.2279, 287.3593
765.7100, 291.8386
766.1921, 292.8360
766.6743, 288.2007
767.1564, 282.5683
767.6385, 278.6518
768.1206, 276.4963
768.6027, 275.6038
769.0848, 276.1534
769.5670, 276.8827
770.0491, 276.2291
770.5312, 275.0152
771.0133, 275.1826
771.4954, 277.1035
771.9775, 278.6517
772.4597, 279.0872
772.9418, 278.1750
773.4239, 275.3074
773.9060, 268.5757
774.3881, 264.6818
774.8702, 264.8333
775.3524, 266.7103
775.8345, 268.8342
776.3166, 271.3443
776.7987, 272.3236
777.2808, 271.5445
777.7629, 269.7854
778.2451, 266.7321
778.7272, 263.5494
779.2093, 262.7798
779.6914, 265.2845
780.1735, 268.5307
780.6556, 272.0697
781.1378, 275.0163
781.6199, 276.4432
782.1020, 274.8876
782.5841, 273.8510
783.0662, 272.8683
783.5483, 272.9293
784.0305, 276.1025
784.5126, 282.6133
784.9947, 285.4968
785.4768, 283.4779
785.9589, 279.8662
786.4410, 278.3553
786.9232, 278.0241
787.4053, 276.8375
787.8874, 273.3454
788.3695, 271.6306
788.8516, 276.0641
789.3337, 282.1740
789.8159, 284.7276
790.2980, 279.4826
790.7801, 277.7778
791.2622, 281.3365
791.7443, 286.6461
792.2264, 288.6132
792.7086, 287.5206
793.1907, 287.8571
793.6728, 290.4716
794.1549, 294.2342
794.6370, 299.3222
795.1191, 304.3258
795.6013, 306.7601
796.0834, 304.4821
796.5655, 302.5411
797.0476, 302.2684
797.5297, 303.5534
798.0118, 306.2473
798.4940, 311.0602
798.9761, 315.7632
799.4582, 320.5012
799.9403, 324.5616
800.4224, 326.6933
800.9045, 327.2066
801.3867, 327.7047
801.8688, 328.1091
802.3509, 330.0535
802.8330, 336.3330
803.3151, 344.7558
803.7972, 352.2628
804.2794, 358.3791
804.7615, 363.0616
805.2436, 364.4518
805.7258, 365.4832
806.2079, 369.9761
806.6900, 379.8681
807.1721, 384.6876
807.6542, 381.7289
808.1364, 377.8849
808.6185, 384.9504
809.1006, 398.7391
809.5827, 405.9256
810.0648, 401.6090
810.5469, 396.7763
811.0291, 399.2075
811.5112, 405.8425
811.9933, 413.2699
812.4754, 423.7630
812.9575, 429.9735
813.4396, 428.3614
813.9218, 425.6009
814.4039, 430.0509
814.8860, 442.3251
815.3681, 452.2239
815.8502, 458.3564
816.3323, 463.3808
816.8145, 470.6068
817.2966, 478.8631
817.7787, 486.3250
818.2608, 492.7539
818.7429, 497.8599
819.2250, 500.0953
819.7072, 501.7357
820.1893, 505.1616
820.6714, 511.6705
821.1535, 517.2274
821.6356, 521.7283
822.1177, 525.4720
822.5999, 528.5156
823.0820, 530.9688
823.5641, 533.2777
824.0462, 535.3614
824.5283, 538.5146
825.0104, 545.1043
825.4926, 552.8257
825.9747, 559.1333
826.4568, 563.6957
826.9389, 566.3254
827.4210, 566.0905
827.9031, 564.5743
828.3853, 562.5341
828.8674, 559.6884
829.3495, 558.5531
829.8316, 560.0054
830.3137, 559.4117
830.7958, 550.8737
831.2780, 537.3875
831.7601, 524.7676
832.2422, 513.7175
832.7243, 504.1628
833.2064, 498.8953
833.6885, 493.2376
834.1707, 482.8399
834.6528, 465.2650
835.1349, 451.3539
835.6170, 441.5601
836.0991, 434.6928
836.5812, 430.6248
837.0634, 429.1993
837.5455, 428.8612
838.0276, 429.6247
838.5097, 428.6093
838.9918, 421.0360
839.4739, 412.1099
839.9561, 408.4690
840.4382, 410.3901
840.9203, 410.4475
841.4024, 403.1060
841.8845, 396.4067
842.3666, 394.7079
842.8488, 397.8498
843.3309, 396.4480
843.8130, 389.5281
844.2951, 383.5468
844.7772, 384.3772
845.2593, 388.2048
845.7415, 385.0969
846.2236, 376.3123
846.7057, 368.6429
847.1878, 367.3766
847.6699, 366.9002
848.1520, 363.8105
848.6342, 358.3780
849.1163, 353.8486
849.5984, 349.3628
850.0805, 347.9996
850.5626, 352.2010
851.0447, 359.4767
851.5269, 361.6493
852.0090, 359.0514
852.4911, 354.3724
852.9732, 347.5117
853.4553, 340.5623
853.9374, 334.4698
854.4196, 329.7584
854.9017, 327.7169
855.3839, 332.0446
855.8660, 334.9863
856.3481, 334.2434
856.8302, 331.6245
857.3123, 331.2475
857.7944, 333.2822
858.2766, 335.5928
858.7587, 338.3073
859.2408, 339.6415
859.7229, 335.1064
860.2050, 327.5031
860.6871, 322.7517
861.1693, 324.9501
861.6514, 326.9299
862.1335, 326.0614
862.6156, 323.4405
863.0977, 320.3359
863.5798, 315.5578
864.0620, 314.0617
864.5441, 317.1289
865.0262, 321.4108
865.5083, 322.6958
865.9904, 321.7133
866.4725, 320.6939
866.9547, 320.0078
867.4368, 319.3713
867.9189, 317.8727
868.4010, 316.7411
868.8831, 317.3503
869.3652, 321.2827
869.8474, 323.1839
870.3295, 322.0471
870.8116, 320.4738
871.2937, 320.7569
871.7758, 322.6618
872.2579, 323.0206
872.7401, 321.7290
873.2222, 321.1633
873.7043, 324.6219
874.1864, 328.7996
874.6685, 330.1026
875.1506, 328.2293
875.6328, 326.8286
876.1149, 326.5228
876.5970, 327.2538
877.0791, 329.7149
877.5612, 333.5049
878.0433, 333.9211
878.5255, 330.8289
879.0076, 327.9490
879.4897, 327.6656
879.9718, 328.7312
880.4539, 329.0375
880.9360, 329.1142
881.4182, 330.7878
881.9003, 337.9670
882.3824, 343.3779
882.8645, 343.2553
883.3466, 339.7438
883.8287, 338.2695
884.3109, 339.2254
884.7930, 339.9156
885.2751, 339.4838
885.7572, 338.7096
886.2393, 338.3804
886.7214, 338.7736
887.2036, 340.8636
887.6857, 347.5891
888.1678, 351.6962
888.6499, 346.8868
889.1320, 339.0081
889.6141, 335.9045
890.0963, 339.5502
890.5784, 343.3860
891.0605, 347.6515
891.5426, 350.5296
892.0247, 348.2920
892.5068, 343.0751
892.9890, 341.9578
893.4711, 346.3927
893.9532, 350.3541
894.4353, 348.1452
894.9174, 344.8297
895.3995, 344.8039
895.8817, 349.5085
896.3638, 353.0156
896.8459, 355.3599
897.3280, 356.3588
897.8101, 355.1161
898.2922, 352.2452
898.7744, 351.4104
899.2565, 352.4518
899.7386, 353.6780
900.2207, 352.7405
900.7028, 352.6454
901.1849, 357.0958
901.6671, 365.1513
902.1492, 369.5420
902.6313, 366.6676
903.1134, 365.1575
903.5955, 367.9767
904.0776, 373.1453
904.5598, 374.2248
905.0419, 371.9342
905.5240, 372.1914
906.0062, 378.5449
906.4883, 386.0892
906.9704, 390.4171
907.4525, 392.9456
907.9346, 396.0181
908.4167, 402.0747
908.8989, 405.6629
909.3810, 404.2984
909.8631, 402.8471
910.3452, 409.0501
910.8273, 422.1549
911.3094, 430.0011
911.7916, 430.5759
912.2737, 430.4137
912.7558, 436.3105
913.2379, 444.2983
913.7200, 449.5567
914.2021, 450.4364
914.6843, 454.0466
915.1664, 463.5330
915.6485, 473.3305
916.1306, 480.3124
916.6127, 484.6994
917.0948, 490.6129
917.5770, 498.0658
918.0591, 504.7484
918.5412, 507.7138
919.0233, 510.3162
919.5054, 516.1337
919.9875, 524.7347
920.4697, 534.1320
920.9518, 544.1054
921.4339, 554.5555
921.9160, 566.2230
922.3981, 577.9709
922.8802, 586.2130
923.3624, 591.0245
923.8445, 597.0779
924.3266, 605.5573
924.8087, 616.1758
925.2908, 631.1469
925.7729, 647.2570
926.2551, 659.8655
926.7372, 665.5026
927.2193, 671.5851
927.7014, 678.6263
928.1835, 686.9020
928.6656, 696.6565
929.1478, 707.8518
929.6299, 720.5141
930.1120, 734.6315
930.5941, 748.7999
931.0762, 763.4828
931.5583, 776.4572
932.0405, 783.9131
932.5226, 785.5264
933.0047, 790.7026
933.4868, 803.7030
933.9689, 818.0358
934.4510, 831.8268
934.9332, 845.1040
935.4153, 857.5734
935.8974, 869.2900
936.3795, 879.3771
936.8616, 885.1945
937.3438, 891.8132
937.8259, 906.4213
938.3080, 925.3824
938.7901, 941.1006
939.2722, 949.7889
939.7543, 957.3332
940.2365, 962.4233
940.7186, 968.7401
941.2007, 982.4305
941.6828, 1002.802
942.1649, 1021.421
942.6470, 1037.153
943.1292, 1052.434
943.6113, 1069.323
944.0934, 1086.956
944.5755, 1104.997
945.0576, 1123.388
945.5397, 1141.698
946.0219, 1160.723
946.5040, 1178.280
946.9861, 1192.344
947.4682, 1204.011
947.9503, 1219.228
948.4324, 1237.613
948.9146, 1255.435
949.3967, 1271.062
949.8788, 1284.813
950.3609, 1294.616
950.8430, 1302.718
951.3251, 1315.968
951.8073, 1339.634
952.2894, 1358.999
952.7715, 1370.273
953.2536, 1378.960
953.7357, 1395.729
954.2179, 1418.101
954.7000, 1436.040
955.1821, 1446.926
955.6642, 1455.050
956.1464, 1461.736
956.6285, 1468.065
957.1106, 1475.031
957.5927, 1482.709
958.0748, 1491.097
958.5569, 1500.377
959.0391, 1509.934
959.5212, 1519.436
960.0033, 1528.885
960.4854, 1537.505
960.9675, 1545.741
961.4496, 1555.850
961.9318, 1571.544
962.4139, 1586.993
962.8960, 1598.711
963.3781, 1611.233
963.8602, 1622.506
964.3423, 1630.855
964.8245, 1640.734
965.3066, 1646.711
965.7887, 1650.506
966.2708, 1652.127
966.7529, 1654.067
967.2350, 1662.191
967.7172, 1680.465
968.1993, 1695.600
968.6814, 1700.488
969.1635, 1702.187
969.6456, 1704.994
970.1277, 1708.736
970.6099, 1716.747
971.0920, 1729.389
971.5741, 1740.760
972.0562, 1745.116
972.5383, 1746.761
973.0204, 1750.724
973.5026, 1756.817
973.9847, 1763.840
974.4668, 1772.790
974.9489, 1780.634
975.4310, 1785.307
975.9131, 1789.732
976.3953, 1800.766
976.8774, 1818.028
977.3595, 1834.229
977.8416, 1847.560
978.3237, 1859.852
978.8058, 1871.036
979.2880, 1883.183
979.7701, 1898.645
980.2522, 1918.391
980.7343, 1939.852
981.2164, 1963.411
981.6985, 1988.150
982.1807, 2014.345
982.6628, 2041.465
983.1449, 2066.792
983.6270, 2090.623
984.1091, 2114.879
984.5912, 2142.412
985.0734, 2168.853
985.5555, 2190.368
986.0376, 2209.270
986.5197, 2232.235
987.0018, 2261.286
987.4839, 2287.868
987.9661, 2310.926
988.4482, 2330.536
988.9303, 2345.750
989.4124, 2357.712
989.8945, 2368.265
990.3766, 2377.685
990.8588, 2386.300
991.3409, 2397.539
991.8230, 2404.760
992.3051, 2403.550
992.7872, 2394.269
993.2693, 2385.340
993.7515, 2376.777
994.2336, 2367.872
994.7157, 2358.003
995.1978, 2347.741
995.6799, 2338.471
996.1620, 2329.076
996.6442, 2317.125
997.1263, 2297.172
997.6084, 2281.722
998.0905, 2274.117
998.5726, 2268.512
999.0547, 2257.429
999.5369, 2241.384
1000.019, 2223.499
1000.501, 2204.035
1000.983, 2184.907
1001.465, 2167.379
1001.947, 2150.619
1002.430, 2134.439
1002.912, 2118.676
1003.394, 2102.795
1003.876, 2087.070
1004.358, 2069.822
1004.840, 2049.959
1005.322, 2028.262
1005.804, 2005.354
1006.287, 1981.636
1006.769, 1957.449
1007.251, 1932.751
1007.733, 1908.242
1008.215, 1885.792
1008.697, 1861.957
1009.179, 1833.056
1009.661, 1798.907
1010.143, 1762.243
1010.626, 1722.487
1011.108, 1683.583
1011.590, 1650.042
1012.072, 1617.407
1012.554, 1580.395
1013.036, 1539.435
1013.518, 1498.740
1014.000, 1458.122
1014.483, 1419.560
1014.965, 1384.580
1015.447, 1351.073
1015.929, 1313.065
1016.411, 1272.037
1016.893, 1232.947
1017.375, 1195.802
1017.857, 1163.941
1018.339, 1143.388
1018.822, 1126.184
1019.304, 1104.657
1019.786, 1077.790
1020.268, 1053.449
1020.750, 1031.563
1021.232, 1012.587
1021.714, 998.7474
1022.196, 986.7690
1022.679, 971.2295
1023.161, 953.3762
1023.643, 936.9725
1024.125, 924.1423
1024.607, 911.8265
1025.089, 899.3716
1025.571, 887.3304
1026.053, 876.7363
1026.535, 867.5225
1027.018, 857.2982
1027.500, 845.6823
1027.982, 835.1843
1028.464, 830.6649
1028.946, 825.6896
1029.428, 814.0525
1029.910, 795.4796
1030.392, 781.1666
1030.875, 772.6852
1031.357, 762.1425
1031.839, 745.8143
1032.321, 727.0279
1032.803, 711.4765
1033.285, 698.1793
1033.767, 685.4203
1034.249, 672.6675
1034.731, 660.5139
1035.214, 650.2420
1035.696, 639.5074
1036.178, 625.2437
1036.660, 607.6471
1037.142, 596.8910
1037.624, 592.8538
1038.106, 586.9639
1038.588, 569.7513
1039.071, 551.9396
1039.553, 543.2784
1040.035, 540.7505
1040.517, 532.8625
1040.999, 515.8411
1041.481, 502.5596
1041.963, 495.4750
1042.445, 490.5514
1042.927, 482.0734
1043.410, 471.8285
1043.892, 463.1384
1044.374, 456.4249
1044.856, 450.9441
1045.338, 447.9577
1045.820, 444.3424
1046.302, 438.3910
1046.784, 430.7433
1047.266, 424.6222
1047.749, 419.9365
1048.231, 416.1334
1048.713, 412.6314
1049.195, 410.6415
1049.677, 413.6554
1050.159, 417.6537
1050.641, 416.4881
1051.123, 406.1005
1051.606, 401.3679
1052.088, 403.4156
1052.570, 407.0228
1053.052, 408.9925
1053.534, 409.3596
1054.016, 407.2102
1054.498, 403.2560
1054.980, 400.7195
1055.463, 401.7069
1055.945, 403.2646
1056.427, 404.7018
1056.909, 406.2311
1057.391, 408.9602
1057.873, 412.4527
1058.355, 412.3081
1058.837, 407.4590
1059.319, 403.4665
1059.802, 406.1794
1060.284, 410.2310
1060.766, 411.0238
1061.248, 408.7068
1061.730, 409.0949
1062.212, 412.7357
1062.694, 416.2435
1063.176, 418.1894
1063.658, 419.6660
1064.141, 422.8945
1064.623, 426.6053
1065.105, 428.5246
1065.587, 426.9345
1066.069, 425.9084
1066.551, 425.5407
1067.033, 426.2604
1067.515, 428.7870
1067.998, 432.7215
1068.480, 435.7393
1068.962, 438.0290
1069.444, 440.6133
1069.926, 444.4308
1070.408, 448.2318
1070.890, 451.2634
1071.372, 453.9194
1071.854, 456.7152
1072.337, 459.6296
1072.819, 462.8541
1073.301, 466.4438
1073.783, 469.8238
1074.265, 472.1084
1074.747, 474.1237
1075.229, 476.7322
1075.711, 479.9421
1076.193, 483.1260
1076.676, 486.5410
1077.158, 488.9993
1077.640, 489.7573
1078.122, 490.1469
1078.604, 492.7070
1079.086, 496.6120
1079.568, 500.0358
1080.051, 502.3784
1080.533, 505.2033
1081.015, 510.2839
1081.497, 514.6987
1081.979, 516.9781
1082.461, 517.2930
1082.943, 515.8146
1083.425, 513.0063
1083.907, 512.5175
1084.390, 517.9665
1084.872, 523.5653
1085.354, 525.8998
1085.836, 526.0609
1086.318, 525.5941
1086.800, 524.4615
1087.282, 523.0432
1087.764, 521.3430
1088.246, 519.3277
1088.729, 516.0760
1089.211, 513.1386
1089.693, 513.4374
1090.175, 515.7965
1090.657, 515.3807
1091.139, 509.1089
1091.621, 504.1200
1092.103, 501.1357
1092.586, 500.1809
1093.068, 501.8981
1093.550, 505.5298
1094.032, 510.2498
1094.514, 515.9485
1094.996, 518.8903
1095.478, 513.6205
1095.960, 509.6764
1096.443, 511.1761
1096.925, 516.2357
1097.407, 519.6087
1097.889, 521.4550
1098.371, 522.6403
1098.853, 523.0519
1099.335, 524.1720
1099.817, 527.2748
1100.299, 531.4227
1100.781, 536.0479
1101.264, 541.1774
1101.746, 544.9946
1102.228, 547.3735
1102.710, 550.3459
1103.192, 555.0806
1103.674, 560.6478
1104.156, 567.5182
1104.638, 573.9167
1105.121, 576.6868
1105.603, 570.7120
1106.085, 570.7701
1106.567, 578.3329
1107.049, 587.7939
1107.531, 594.8495
1108.013, 600.6172
1108.495, 608.1046
1108.978, 616.7023
1109.460, 623.9091
1109.942, 627.8234
1110.424, 631.7062
1110.906, 636.7095
1111.388, 641.2450
1111.870, 642.8157
1112.352, 642.0687
1112.834, 641.5113
1113.317, 641.3874
1113.799, 642.1007
1114.281, 646.2064
1114.763, 648.6529
1115.245, 646.2383
1115.727, 640.7234
1116.209, 636.5658
1116.691, 633.6634
1117.173, 629.2530
1117.656, 622.4790
1118.138, 615.6556
1118.620, 608.8604
1119.102, 604.3247
1119.584, 605.5548
1120.066, 612.2622
1120.548, 615.5812
1121.030, 615.6096
1121.513, 610.6899
1121.995, 597.2104
1122.477, 584.5723
1122.959, 584.1162
1123.441, 591.7970
1123.923, 602.6364
1124.405, 617.9503
1124.887, 629.4802
1125.370, 636.9630
1125.852, 640.9515
1126.334, 638.8038
1126.816, 635.4871
1127.298, 642.6175
1127.780, 656.9210
1128.262, 670.5416
1128.744, 679.5520
1129.226, 689.5079
1129.709, 701.4125
1130.191, 713.6600
1130.673, 725.1656
1131.155, 735.9047
1131.637, 744.7577
1132.119, 752.5730
1132.601, 764.1766
1133.083, 786.3071
1133.566, 807.4471
1134.048, 823.5582
1134.530, 836.8791
1135.012, 850.4517
1135.494, 863.9532
1135.976, 875.9048
1136.458, 886.1786
1136.940, 891.2752
1137.422, 887.7108
1137.905, 879.3969
1138.387, 867.9137
1138.869, 853.4612
1139.351, 835.3989
1139.833, 813.3987
1140.315, 792.5284
1140.797, 773.8439
1141.279, 755.2766
1141.761, 733.5353
1142.244, 712.0049
1142.726, 692.9615
1143.208, 676.8117
1143.690, 663.9760
1144.172, 655.0980
1144.654, 646.2485
1145.136, 636.3636
1145.618, 626.3017
1146.101, 617.3759
1146.583, 608.9837
1147.065, 600.0128
1147.547, 589.9568
1148.029, 582.0178
1148.511, 576.7241
1148.993, 571.9025
1149.475, 566.4893
1149.958, 561.2056
1150.440, 557.8041
1150.922, 555.1927
1151.404, 551.3499
1151.886, 545.4524
1152.368, 538.9228
1152.850, 531.5077
1153.332, 524.3812
1153.814, 518.3765
1154.297, 513.1362
1154.779, 507.1699
1155.261, 501.1539
1155.743, 497.2325
1156.225, 499.2425
1156.707, 498.6856
1157.189, 493.7928
1157.671, 487.4538
1158.153, 482.2807
1158.636, 477.7218
1159.118, 470.1805
1159.600, 460.7108
1160.082, 454.4347
1160.564, 458.1595
1161.046, 459.7241
1161.528, 454.6878
1162.010, 447.2676
1162.493, 442.2803
1162.975, 439.3015
1163.457, 435.4303
1163.939, 430.5083
1164.421, 424.9316
1164.903, 417.6509
1165.385, 411.2347
1165.867, 407.4555
1166.349, 404.8447
1166.832, 401.2748
1167.314, 396.7505
1167.796, 391.4015
1168.278, 385.1990
1168.760, 379.8329
1169.242, 376.9549
1169.724, 374.8278
1170.206, 372.8431
1170.688, 370.6489
1171.171, 366.7868
1171.653, 361.2918
1172.135, 358.1002
1172.617, 358.1294
1173.099, 359.1271
1173.581, 359.9635
1174.063, 360.4375
1174.545, 360.6141
1175.028, 360.3288
1175.510, 357.7815
1175.992, 352.7312
1176.474, 351.2446
1176.956, 355.6910
1177.438, 360.6052
1177.920, 360.9406
1178.402, 359.2981
1178.885, 357.1992
1179.367, 354.9339
1179.849, 356.8600
1180.331, 363.6037
1180.813, 367.4519
1181.295, 364.2563
1181.777, 361.0359
1182.259, 366.7768
1182.741, 375.5092
1183.224, 380.5364
1183.706, 380.9943
1184.188, 381.4001
1184.670, 381.9562
1185.152, 380.8502
1185.634, 376.4519
1186.116, 371.4984
1186.598, 368.8647
1187.081, 367.7492
1187.563, 367.5169
1188.045, 368.8180
1188.527, 367.1737
1189.009, 362.1359
1189.491, 356.8876
1189.973, 353.2429
1190.455, 350.2082
1190.938, 346.8693
1191.420, 343.1953
1191.902, 338.9146
1192.384, 333.2637
1192.866, 329.6664
1193.348, 328.6142
1193.830, 327.1999
1194.312, 322.4034
1194.794, 317.0700
1195.276, 314.6570
1195.759, 314.5538
1196.241, 315.7515
1196.723, 319.7141
1197.205, 320.9926
1197.687, 319.2665
1198.169, 315.9848
1198.651, 310.7133
1199.133, 305.6929
1199.616, 304.7595
1200.098, 306.4680
1200.580, 307.1978
1201.062, 306.3343
1201.544, 304.2809
1202.026, 300.6031
1202.508, 297.6239
1202.990, 297.8503
1203.473, 299.6483
1203.955, 302.0622
1204.437, 304.2195
1204.919, 303.3316
1205.401, 297.5986
1205.883, 292.2841
1206.365, 287.5070
1206.847, 284.1505
1207.329, 283.7460
1207.812, 284.7566
1208.294, 284.7409
1208.776, 284.2649
1209.258, 286.5070
1209.740, 294.4402
1210.222, 297.4645
1210.704, 293.4508
1211.186, 288.3951
1211.668, 288.8605
1212.151, 291.5077
1212.633, 292.0010
1213.115, 290.6467
1213.597, 290.6305
1214.079, 292.8773
1214.561, 294.1611
1215.043, 293.6658
1215.525, 293.7074
1216.008, 298.8516
1216.490, 304.5394
1216.972, 304.0305
1217.454, 298.1387
1217.936, 295.6909
1218.418, 298.3198
1218.900, 300.4159
1219.382, 301.0313
1219.865, 301.0563
1220.347, 301.4724
1220.829, 301.8579
1221.311, 301.5216
1221.793, 300.5761
1222.275, 300.5138
1222.757, 301.9778
1223.239, 301.4586
1223.721, 297.7372
1224.203, 294.4713
1224.686, 297.0826
1225.168, 301.1922
1225.650, 301.7076
1226.132, 303.4825
1226.614, 304.5296
1227.096, 302.6667
1227.578, 303.3062
1228.061, 298.3716
1228.543, 298.5552
1229.025, 293.5849
1229.507, 295.8829
1229.989, 295.8883
1230.471, 293.6448
1230.953, 292.4996
1231.435, 292.5619
1231.917, 292.9481
1232.400, 293.7331
1232.882, 293.3704
1233.364, 289.3290
1233.846, 284.3013
1234.328, 280.3330
1234.810, 277.5466
1235.292, 276.1845
1235.774, 276.3163
1236.256, 276.4236
1236.739, 275.9895
1237.221, 276.2987
1237.703, 280.1180
1238.185, 283.7227
1238.667, 283.6572
1239.149, 280.6962
1239.631, 277.6942
1240.113, 274.7103
1240.596, 271.7373
1241.078, 268.4463
1241.560, 267.2354
1242.042, 271.9526
1242.524, 277.5098
1243.006, 280.9915
1243.488, 282.3371
1243.970, 280.8037
1244.453, 276.6791
1244.935, 271.9410
1245.417, 266.5670
1245.899, 263.3972
1246.381, 266.1714
1246.863, 269.5508
1247.345, 270.3895
1247.827, 269.6014
1248.309, 270.2994
1248.792, 272.0450
1249.274, 272.6615
1249.756, 271.3330
1250.238, 270.8530
1250.720, 273.7790
1251.202, 276.4692
1251.684, 277.4963
1252.166, 277.1878
1252.648, 276.1740
1253.131, 274.5469
1253.613, 272.2602
1254.095, 269.0145
1254.577, 267.1798
1255.059, 268.7104
1255.541, 269.9682
1256.023, 269.6837
1256.505, 268.3824
1256.988, 266.6448
1257.470, 264.8661
1257.952, 263.9898
1258.434, 264.2876
1258.916, 264.7304
1259.398, 265.9324
1259.880, 265.2876
1260.362, 261.0605
1260.844, 256.2783
1261.327, 256.5050
1261.809, 259.2570
1262.291, 260.7108
1262.773, 260.1312
1263.255, 260.1929
1263.737, 261.4985
1264.219, 261.6328
1264.701, 259.3424
1265.183, 256.9231
1265.666, 257.4524
1266.148, 259.3873
1266.630, 261.3309
1267.112, 263.0733
1267.594, 263.0879
1268.076, 261.1766
1268.558, 259.0328
1269.040, 257.1005
1269.523, 255.2981
1270.005, 252.2835
1270.487, 250.3114
1270.969, 252.8362
1271.451, 258.6725
1271.933, 260.9845
1272.415, 259.8122
1272.897, 258.3235
1273.380, 257.0291
1273.862, 257.1212
1274.344, 261.0075
1274.826, 265.1057
1275.308, 267.6451
1275.790, 268.4500
1276.272, 265.6839
1276.754, 260.3558
1277.236, 258.3729
1277.719, 261.3485
1278.201, 264.0205
1278.683, 263.0320
1279.165, 261.7969
1279.647, 261.5060
1280.129, 262.0224
1280.611, 263.7647
1281.093, 265.9509
1281.576, 266.4089
1282.058, 264.7566
1282.540, 262.2410
1283.022, 256.4144
1283.504, 255.1160
1283.986, 262.0279
1284.468, 270.8716
1284.950, 271.2070
1285.432, 267.1399
1285.915, 264.8942
1286.397, 265.2005
1286.879, 266.4611
1287.361, 268.8680
1287.843, 270.6691
1288.325, 271.3465
1288.807, 271.7781
1289.289, 272.6782
1289.771, 274.0885
1290.254, 277.2822
1290.736, 281.2932
1291.218, 280.0271
1291.700, 272.6532
1292.182, 267.9427
1292.664, 267.4224
1293.146, 269.0560
1293.628, 272.5828
1294.111, 276.2380
1294.593, 279.6536
1295.075, 281.9526
1295.557, 279.9727
1296.039, 274.3484
1296.521, 272.6095
1297.003, 275.6238
1297.485, 278.5036
1297.968, 278.0463
1298.450, 277.1414
1298.932, 277.3882
1299.414, 277.2029
1299.896, 272.7292
1300.378, 266.0463
1300.860, 264.0427
1301.342, 266.7536
1301.824, 269.2256
##END=



