##NAMES=Sonoraite
##RRUFFID=R070745
##IDEAL CHEMISTRY=Fe^3+^Te^4+^O_3_(OH)&#183;H_2_O
##LOCALITY=Tombstone, Tombstone District, Cochise County, Arizona, USA
##OWNER=RRUFF
##SOURCE=Michael Scott
##DESCRIPTION=Massive, lime-yellow crystals associated with anglesite, calcite and jarosite
##STATUS=The identification of this mineral has been confirmed only by single crystal X-ray diffraction.
##URL=rruff.info/R070745
130.2518, 5900.368
130.7339, 5636.706
131.2160, 5393.891
131.6981, 5198.413
132.1802, 5049.064
132.6623, 4928.875
133.1445, 4834.802
133.6266, 4764.979
134.1087, 4714.397
134.5908, 4684.351
135.0729, 4667.835
135.5550, 4653.399
136.0372, 4640.150
136.5193, 4634.615
137.0014, 4638.004
137.4835, 4649.408
137.9656, 4679.403
138.4477, 4736.726
138.9299, 4809.930
139.4120, 4856.386
139.8941, 4865.512
140.3762, 4871.617
140.8583, 4905.251
141.3404, 4977.701
141.8225, 5041.147
142.3047, 5086.071
142.7868, 5111.812
143.2689, 5136.448
143.7510, 5158.492
144.2331, 5180.749
144.7152, 5207.374
145.1974, 5243.730
145.6795, 5276.434
146.1616, 5297.731
146.6437, 5289.967
147.1258, 5314.926
147.6079, 5384.493
148.0901, 5486.668
148.5722, 5586.218
149.0543, 5688.432
149.5364, 5784.316
150.0185, 5869.237
150.5006, 5946.646
150.9828, 6009.036
151.4649, 6044.833
151.9470, 6057.496
152.4291, 6087.440
152.9112, 6142.716
153.3933, 6211.659
153.8755, 6286.715
154.3576, 6369.425
154.8397, 6455.152
155.3218, 6538.838
155.8039, 6618.257
156.2860, 6714.553
156.7682, 6842.188
157.2503, 6984.495
157.7324, 7121.936
158.2145, 7296.189
158.6966, 7427.620
159.1787, 7482.838
159.6609, 7449.189
160.1430, 7359.693
160.6251, 7217.122
161.1072, 7027.453
161.5893, 6801.284
162.0714, 6499.652
162.5536, 6189.293
163.0357, 5914.913
163.5178, 5691.736
163.9999, 5500.270
164.4820, 5342.887
164.9641, 5215.292
165.4463, 5095.758
165.9284, 4955.613
166.4105, 4823.418
166.8926, 4729.967
167.3747, 4707.034
167.8568, 4711.565
168.3390, 4717.606
168.8211, 4723.996
169.3032, 4734.875
169.7853, 4750.280
170.2674, 4772.023
170.7495, 4803.350
171.2317, 4842.016
171.7138, 4892.928
172.1959, 4964.036
172.6780, 5060.139
173.1601, 5161.500
173.6422, 5240.122
174.1244, 5307.050
174.6065, 5395.995
175.0886, 5539.878
175.5707, 5715.824
176.0528, 5890.613
176.5349, 6053.207
177.0171, 6215.801
177.4992, 6401.887
177.9813, 6606.720
178.4634, 6804.318
178.9455, 6977.464
179.4276, 7127.129
179.9098, 7261.947
180.3919, 7408.894
180.8740, 7528.806
181.3561, 7553.691
181.8382, 7481.300
182.3203, 7356.557
182.8025, 7204.820
183.2846, 7033.245
183.7667, 6863.884
184.2488, 6706.931
184.7309, 6559.297
185.2130, 6417.574
185.6951, 6277.829
186.1773, 6151.642
186.6594, 6055.029
187.1415, 5986.942
187.6236, 5930.404
188.1057, 5869.240
188.5878, 5809.430
189.0700, 5781.106
189.5521, 5794.382
190.0342, 5828.446
190.5163, 5844.914
190.9984, 5842.875
191.4805, 5840.552
191.9627, 5846.300
192.4448, 5860.580
192.9269, 5892.356
193.4090, 5946.916
193.8911, 6017.508
194.3732, 6083.653
194.8554, 6144.877
195.3375, 6207.923
195.8196, 6286.272
196.3017, 6380.794
196.7838, 6455.906
197.2659, 6493.305
197.7481, 6501.458
198.2302, 6539.382
198.7123, 6613.381
199.1944, 6699.725
199.6765, 6768.952
200.1586, 6819.481
200.6408, 6870.673
201.1229, 6924.601
201.6050, 6980.456
202.0871, 7063.266
202.5692, 7181.142
203.0513, 7313.259
203.5335, 7419.114
204.0156, 7489.305
204.4977, 7571.951
204.9798, 7693.539
205.4619, 7858.549
205.9440, 8023.691
206.4262, 8194.744
206.9083, 8359.656
207.3904, 8489.283
207.8725, 8582.564
208.3546, 8642.930
208.8367, 8670.822
209.3189, 8664.069
209.8010, 8633.677
210.2831, 8582.763
210.7652, 8508.954
211.2473, 8395.741
211.7294, 8229.674
212.2116, 8050.747
212.6937, 7889.882
213.1758, 7748.522
213.6579, 7617.189
214.1400, 7495.292
214.6221, 7382.070
215.1043, 7268.425
215.5864, 7143.013
216.0685, 7032.075
216.5506, 6966.758
217.0327, 6962.035
217.5148, 6962.754
217.9970, 6952.412
218.4791, 6928.698
218.9612, 6934.763
219.4433, 6981.676
219.9254, 7046.555
220.4075, 7097.423
220.8897, 7120.817
221.3718, 7156.970
221.8539, 7221.706
222.3360, 7325.121
222.8181, 7409.070
223.3002, 7461.769
223.7824, 7501.700
224.2645, 7564.069
224.7466, 7668.258
225.2287, 7762.749
225.7108, 7826.894
226.1929, 7851.102
226.6750, 7871.596
227.1572, 7888.288
227.6393, 7901.325
228.1214, 7912.408
228.6035, 7927.449
229.0856, 7931.711
229.5677, 7916.511
230.0499, 7874.233
230.5320, 7829.637
231.0141, 7779.083
231.4962, 7726.913
231.9783, 7688.415
232.4604, 7655.925
232.9426, 7647.247
233.4247, 7676.687
233.9068, 7763.105
234.3889, 7847.043
234.8710, 7915.958
235.3531, 7974.725
235.8353, 8063.275
236.3174, 8194.629
236.7995, 8341.174
237.2816, 8483.606
237.7637, 8623.418
238.2458, 8756.478
238.7280, 8881.373
239.2101, 8998.233
239.6922, 9113.112
240.1743, 9228.606
240.6564, 9339.531
241.1385, 9438.774
241.6207, 9516.028
242.1028, 9601.903
242.5849, 9702.468
243.0670, 9818.063
243.5491, 9940.669
244.0313, 10055.39
244.5134, 10189.48
244.9955, 10376.53
245.4776, 10635.37
245.9597, 10915.47
246.4418, 11205.47
246.9240, 11502.63
247.4061, 11829.00
247.8882, 12192.16
248.3703, 12575.76
248.8524, 12955.44
249.3345, 13334.26
249.8167, 13705.91
250.2988, 14081.49
250.7809, 14481.30
251.2630, 14807.43
251.7451, 15061.58
252.2272, 15238.25
252.7094, 15320.84
253.1915, 15288.88
253.6736, 15196.31
254.1557, 15060.81
254.6378, 14879.83
255.1199, 14658.06
255.6021, 14382.28
256.0842, 14074.15
256.5663, 13775.19
257.0484, 13460.82
257.5305, 13197.18
258.0126, 13016.55
258.4948, 12935.77
258.9769, 12886.73
259.4590, 12866.72
259.9411, 12878.53
260.4232, 12931.25
260.9053, 13032.50
261.3875, 13161.55
261.8696, 13321.01
262.3517, 13531.58
262.8338, 13692.23
263.3159, 13770.13
263.7980, 13800.78
264.2802, 13922.41
264.7623, 14202.67
265.2444, 14440.39
265.7265, 14505.11
266.2086, 14352.05
266.6907, 14186.48
267.1729, 14035.33
267.6550, 13883.39
268.1371, 13668.40
268.6192, 13388.08
269.1013, 13053.04
269.5834, 12669.35
270.0656, 12240.63
270.5477, 11767.22
271.0298, 11236.71
271.5119, 10668.57
271.9940, 10128.83
272.4761, 9620.703
272.9583, 9144.256
273.4404, 8691.775
273.9225, 8261.319
274.4046, 7873.050
274.8867, 7529.056
275.3688, 7228.314
275.8510, 6961.012
276.3331, 6731.425
276.8152, 6527.357
277.2973, 6335.288
277.7794, 6152.785
278.2615, 6006.210
278.7437, 5906.560
279.2258, 5845.826
279.7079, 5790.912
280.1900, 5743.044
280.6721, 5696.332
281.1542, 5646.039
281.6364, 5591.926
282.1185, 5533.749
282.6006, 5464.473
283.0827, 5392.044
283.5648, 5352.394
284.0469, 5349.376
284.5291, 5359.166
285.0112, 5364.106
285.4933, 5364.012
285.9754, 5350.206
286.4575, 5305.833
286.9396, 5249.605
287.4217, 5252.935
287.9038, 5320.443
288.3860, 5413.250
288.8681, 5500.822
289.3502, 5582.168
289.8323, 5654.779
290.3144, 5705.718
290.7965, 5750.632
291.2787, 5841.229
291.7608, 5981.461
292.2429, 6127.568
292.7250, 6238.266
293.2071, 6318.952
293.6892, 6396.925
294.1714, 6484.574
294.6535, 6572.910
295.1356, 6641.597
295.6177, 6690.544
296.0998, 6730.784
296.5819, 6767.690
297.0641, 6804.084
297.5462, 6848.485
298.0283, 6906.701
298.5104, 6972.983
298.9925, 7038.125
299.4746, 7102.388
299.9568, 7169.077
300.4389, 7240.949
300.9210, 7317.625
301.4031, 7400.166
301.8852, 7483.492
302.3673, 7574.632
302.8495, 7682.403
303.3316, 7805.815
303.8137, 7947.500
304.2958, 8116.485
304.7779, 8303.855
305.2600, 8490.608
305.7422, 8668.747
306.2243, 8843.804
306.7064, 9026.515
307.1885, 9217.308
307.6706, 9393.186
308.1527, 9538.455
308.6349, 9659.758
309.1170, 9763.452
309.5991, 9861.975
310.0812, 9938.097
310.5633, 9983.269
311.0454, 9997.848
311.5276, 9978.430
312.0097, 9930.580
312.4918, 9845.877
312.9739, 9713.718
313.4560, 9503.623
313.9381, 9267.220
314.4203, 9036.110
314.9024, 8806.297
315.3845, 8561.606
315.8666, 8295.304
316.3487, 8009.665
316.8308, 7706.830
317.3130, 7340.220
317.7951, 6998.741
318.2772, 6738.189
318.7593, 6550.512
319.2414, 6357.636
319.7235, 6122.672
320.2057, 5877.783
320.6878, 5648.467
321.1699, 5439.818
321.6520, 5247.333
322.1341, 5070.087
322.6162, 4907.856
323.0984, 4767.347
323.5805, 4664.798
324.0626, 4575.707
324.5447, 4483.545
325.0268, 4376.613
325.5089, 4277.026
325.9911, 4185.287
326.4732, 4102.667
326.9553, 4033.420
327.4374, 3985.479
327.9195, 3945.935
328.4016, 3906.828
328.8838, 3872.790
329.3659, 3833.053
329.8480, 3782.755
330.3301, 3724.452
330.8122, 3673.337
331.2943, 3631.384
331.7765, 3594.134
332.2586, 3558.469
332.7407, 3518.495
333.2228, 3491.786
333.7049, 3487.354
334.1870, 3497.346
334.6692, 3486.967
335.1513, 3443.835
335.6334, 3400.275
336.1155, 3374.759
336.5976, 3371.647
337.0797, 3373.102
337.5619, 3381.172
338.0440, 3391.836
338.5261, 3391.396
339.0082, 3375.746
339.4903, 3361.170
339.9724, 3359.151
340.4546, 3371.952
340.9367, 3375.520
341.4188, 3364.805
341.9009, 3348.899
342.3830, 3347.286
342.8651, 3360.917
343.3473, 3379.912
343.8294, 3401.831
344.3115, 3426.304
344.7936, 3442.417
345.2757, 3446.380
345.7578, 3450.356
346.2400, 3479.070
346.7221, 3530.585
347.2042, 3577.396
347.6863, 3595.499
348.1684, 3597.127
348.6505, 3626.516
349.1327, 3689.827
349.6148, 3761.969
350.0969, 3812.900
350.5790, 3846.597
351.0611, 3878.793
351.5432, 3913.796
352.0254, 3952.609
352.5075, 3998.635
352.9896, 4052.188
353.4717, 4108.331
353.9538, 4160.261
354.4359, 4211.405
354.9181, 4267.036
355.4002, 4335.806
355.8823, 4406.406
356.3644, 4467.146
356.8465, 4517.850
357.3286, 4567.790
357.8108, 4620.194
358.2929, 4676.633
358.7750, 4740.122
359.2571, 4810.386
359.7392, 4889.133
360.2213, 4982.781
360.7035, 5089.946
361.1856, 5191.062
361.6677, 5265.943
362.1498, 5336.236
362.6319, 5421.540
363.1140, 5528.776
363.5962, 5649.595
364.0783, 5791.516
364.5604, 5950.102
365.0425, 6094.856
365.5246, 6200.601
366.0067, 6302.198
366.4889, 6420.902
366.9710, 6578.116
367.4531, 6731.641
367.9352, 6874.525
368.4173, 7009.906
368.8994, 7152.243
369.3815, 7312.273
369.8636, 7469.444
370.3458, 7613.992
370.8279, 7751.831
371.3100, 7868.572
371.7921, 7958.692
372.2742, 8029.558
372.7563, 8101.284
373.2385, 8183.796
373.7206, 8249.574
374.2027, 8284.419
374.6848, 8281.238
375.1669, 8276.270
375.6490, 8271.006
376.1312, 8262.318
376.6133, 8243.158
377.0954, 8210.699
377.5775, 8179.216
378.0596, 8158.133
378.5417, 8147.049
379.0239, 8111.691
379.5060, 8045.442
379.9881, 7975.771
380.4702, 7943.169
380.9523, 7945.946
381.4344, 7943.511
381.9166, 7918.977
382.3987, 7879.874
382.8808, 7848.275
383.3629, 7824.807
383.8450, 7801.581
384.3271, 7766.996
384.8093, 7725.851
385.2914, 7695.792
385.7735, 7693.731
386.2556, 7694.325
386.7377, 7656.050
387.2198, 7583.735
387.7020, 7512.277
388.1841, 7487.336
388.6662, 7473.013
389.1483, 7417.041
389.6304, 7287.829
390.1125, 7145.769
390.5947, 7033.040
391.0768, 6942.887
391.5589, 6857.486
392.0410, 6764.992
392.5231, 6675.837
393.0052, 6597.376
393.4874, 6534.011
393.9695, 6474.616
394.4516, 6404.521
394.9337, 6335.752
395.4158, 6290.398
395.8979, 6291.759
396.3801, 6302.747
396.8622, 6309.671
397.3443, 6310.564
397.8264, 6309.602
398.3085, 6300.347
398.7906, 6291.705
399.2728, 6294.520
399.7549, 6305.465
400.2370, 6331.924
400.7191, 6378.225
401.2012, 6445.608
401.6833, 6515.847
402.1655, 6590.405
402.6476, 6665.768
403.1297, 6738.148
403.6118, 6805.109
404.0939, 6874.772
404.5760, 6943.467
405.0582, 7015.132
405.5403, 7112.854
406.0224, 7241.143
406.5045, 7379.405
406.9866, 7515.129
407.4688, 7648.840
407.9509, 7777.323
408.4330, 7898.203
408.9151, 8017.742
409.3972, 8149.707
409.8793, 8293.535
410.3615, 8442.882
410.8436, 8596.163
411.3257, 8753.715
411.8078, 8912.945
412.2899, 9074.263
412.7720, 9239.579
413.2542, 9412.347
413.7363, 9589.491
414.2184, 9765.280
414.7005, 9934.963
415.1826, 10100.86
415.6647, 10260.06
416.1469, 10410.87
416.6290, 10574.10
417.1111, 10779.37
417.5932, 11001.48
418.0753, 11200.82
418.5574, 11334.49
419.0396, 11472.25
419.5217, 11663.68
420.0038, 11898.12
420.4859, 12117.02
420.9680, 12294.13
421.4501, 12448.91
421.9323, 12591.27
422.4144, 12743.87
422.8965, 12860.66
423.3786, 12919.57
423.8607, 12936.61
424.3428, 12958.04
424.8250, 13031.59
425.3071, 13071.79
425.7892, 13047.55
426.2713, 12940.68
426.7534, 12817.28
427.2355, 12677.31
427.7177, 12520.30
428.1998, 12348.45
428.6819, 12163.31
429.1640, 11958.43
429.6461, 11723.14
430.1282, 11460.68
430.6104, 11205.00
431.0925, 10957.19
431.5746, 10713.72
432.0567, 10474.50
432.5388, 10239.46
433.0209, 10008.10
433.5031, 9779.739
433.9852, 9555.883
434.4673, 9328.931
434.9494, 9100.402
435.4315, 8888.205
435.9136, 8710.193
436.3958, 8560.618
436.8779, 8426.443
437.3600, 8310.296
437.8421, 8200.900
438.3242, 8077.324
438.8063, 7949.443
439.2885, 7844.857
439.7706, 7800.549
440.2527, 7772.450
440.7348, 7711.822
441.2169, 7609.880
441.6990, 7527.033
442.1812, 7503.333
442.6633, 7514.922
443.1454, 7532.928
443.6275, 7555.404
444.1096, 7575.754
444.5917, 7586.197
445.0739, 7588.320
445.5560, 7603.965
446.0381, 7646.711
446.5202, 7697.834
447.0023, 7746.288
447.4844, 7786.807
447.9666, 7830.770
448.4487, 7878.145
448.9308, 7929.354
449.4129, 7984.832
449.8950, 8037.856
450.3771, 8104.448
450.8592, 8195.749
451.3413, 8317.667
451.8235, 8423.232
452.3056, 8506.237
452.7877, 8583.108
453.2698, 8679.177
453.7519, 8795.656
454.2340, 8911.830
454.7162, 9020.001
455.1983, 9123.837
455.6804, 9235.530
456.1625, 9354.889
456.6446, 9493.993
457.1267, 9675.704
457.6089, 9885.529
458.0910, 10093.45
458.5731, 10288.63
459.0552, 10483.93
459.5373, 10691.07
460.0194, 10907.72
460.5016, 11130.76
460.9837, 11374.28
461.4658, 11611.81
461.9479, 11821.35
462.4300, 11999.74
462.9121, 12151.49
463.3943, 12305.53
463.8764, 12425.67
464.3585, 12462.43
464.8406, 12367.39
465.3227, 12220.11
465.8048, 12037.85
466.2870, 11821.58
466.7691, 11587.04
467.2512, 11317.23
467.7333, 11039.85
468.2154, 10771.52
468.6975, 10520.41
469.1797, 10263.08
469.6618, 9990.543
470.1439, 9716.293
470.6260, 9479.377
471.1081, 9284.952
471.5902, 9115.393
472.0724, 8970.531
472.5545, 8851.152
473.0366, 8717.687
473.5187, 8566.330
474.0008, 8415.262
474.4829, 8287.215
474.9651, 8181.247
475.4472, 8086.167
475.9293, 8002.204
476.4114, 7924.729
476.8935, 7845.365
477.3756, 7764.803
477.8578, 7681.581
478.3399, 7590.373
478.8220, 7497.448
479.3041, 7413.888
479.7862, 7346.382
480.2683, 7277.125
480.7505, 7187.174
481.2326, 7085.544
481.7147, 6990.875
482.1968, 6914.954
482.6789, 6843.417
483.1610, 6769.518
483.6432, 6692.490
484.1253, 6613.384
484.6074, 6530.175
485.0895, 6446.751
485.5716, 6365.846
486.0537, 6289.311
486.5359, 6212.959
487.0180, 6132.190
487.5001, 6050.162
487.9822, 5982.930
488.4643, 5940.121
488.9464, 5897.502
489.4286, 5839.826
489.9107, 5762.146
490.3928, 5702.016
490.8749, 5666.111
491.3570, 5636.459
491.8391, 5582.970
492.3213, 5506.318
492.8034, 5430.922
493.2855, 5365.020
493.7676, 5307.487
494.2497, 5253.990
494.7318, 5205.065
495.2140, 5162.573
495.6961, 5137.072
496.1782, 5117.470
496.6603, 5082.479
497.1424, 5017.644
497.6245, 4957.221
498.1067, 4935.436
498.5888, 4938.397
499.0709, 4933.645
499.5530, 4904.432
500.0351, 4865.444
500.5172, 4819.703
500.9994, 4765.939
501.4815, 4722.789
501.9636, 4700.404
502.4457, 4687.045
502.9278, 4672.226
503.4099, 4662.063
503.8921, 4641.069
504.3742, 4600.641
504.8563, 4547.705
505.3384, 4512.624
505.8205, 4505.068
506.3026, 4497.482
506.7848, 4473.577
507.2669, 4429.006
507.7490, 4401.571
508.2311, 4395.145
508.7132, 4397.207
509.1953, 4394.490
509.6775, 4386.677
510.1596, 4368.300
510.6417, 4329.703
511.1238, 4284.604
511.6059, 4263.883
512.0880, 4265.304
512.5701, 4266.037
513.0522, 4250.979
513.5344, 4225.072
514.0165, 4190.563
514.4986, 4140.690
514.9807, 4103.556
515.4628, 4113.613
515.9449, 4145.749
516.4271, 4157.201
516.9092, 4115.729
517.3913, 4068.438
517.8734, 4033.461
518.3555, 4012.212
518.8376, 3988.007
519.3198, 3952.157
519.8019, 3917.912
520.2840, 3894.911
520.7661, 3900.638
521.2482, 3881.825
521.7303, 3824.097
522.2125, 3747.197
522.6946, 3697.772
523.1767, 3680.806
523.6588, 3668.888
524.1409, 3654.314
524.6230, 3636.476
525.1052, 3604.388
525.5873, 3555.875
526.0694, 3510.239
526.5515, 3494.646
527.0336, 3497.992
527.5157, 3487.373
527.9979, 3450.970
528.4800, 3405.455
528.9621, 3363.967
529.4442, 3327.494
529.9263, 3297.627
530.4084, 3283.156
530.8906, 3270.217
531.3727, 3248.226
531.8548, 3214.808
532.3369, 3182.995
532.8190, 3160.137
533.3011, 3139.188
533.7833, 3114.103
534.2654, 3068.523
534.7475, 3037.636
535.2296, 3032.964
535.7117, 3045.540
536.1938, 3042.955
536.6760, 3016.750
537.1581, 2991.431
537.6402, 2979.033
538.1223, 2981.260
538.6044, 2975.626
539.0865, 2961.682
539.5687, 2941.091
540.0508, 2912.142
540.5329, 2876.304
541.0150, 2847.135
541.4971, 2829.161
541.9792, 2818.166
542.4614, 2808.180
542.9435, 2799.643
543.4256, 2794.578
543.9077, 2801.878
544.3898, 2808.827
544.8719, 2800.702
545.3541, 2773.958
545.8362, 2747.947
546.3183, 2731.569
546.8004, 2720.732
547.2825, 2710.830
547.7646, 2703.069
548.2468, 2693.703
548.7289, 2680.471
549.2110, 2664.624
549.6931, 2651.784
550.1752, 2644.333
550.6573, 2636.669
551.1395, 2626.106
551.6216, 2611.920
552.1037, 2599.268
552.5858, 2588.210
553.0679, 2578.426
553.5500, 2570.571
554.0322, 2564.559
554.5143, 2555.254
554.9964, 2538.774
555.4785, 2521.743
555.9606, 2519.925
556.4427, 2530.405
556.9249, 2537.363
557.4070, 2525.208
557.8891, 2507.435
558.3712, 2499.997
558.8533, 2505.262
559.3354, 2511.951
559.8176, 2517.025
560.2997, 2518.904
560.7818, 2515.956
561.2639, 2503.724
561.7460, 2491.110
562.2281, 2477.519
562.7103, 2464.447
563.1924, 2457.997
563.6745, 2467.309
564.1566, 2470.839
564.6387, 2456.743
565.1208, 2421.129
565.6030, 2409.339
566.0851, 2430.032
566.5672, 2454.874
567.0493, 2451.460
567.5314, 2421.441
568.0135, 2399.631
568.4957, 2394.371
568.9778, 2397.233
569.4599, 2394.641
569.9420, 2388.078
570.4241, 2383.901
570.9063, 2388.225
571.3884, 2394.892
571.8705, 2398.562
572.3526, 2398.915
572.8347, 2395.713
573.3168, 2383.884
573.7990, 2371.095
574.2811, 2363.985
574.7632, 2366.009
575.2453, 2370.618
575.7274, 2383.134
576.2095, 2396.619
576.6917, 2396.472
577.1738, 2374.058
577.6559, 2351.893
578.1380, 2334.154
578.6201, 2321.160
579.1022, 2320.170
579.5844, 2333.557
580.0665, 2350.075
580.5486, 2362.154
581.0307, 2370.084
581.5128, 2374.527
581.9949, 2374.809
582.4771, 2374.316
582.9592, 2381.271
583.4413, 2390.934
583.9234, 2391.563
584.4055, 2365.166
584.8876, 2338.260
585.3698, 2333.877
585.8519, 2348.255
586.3340, 2360.512
586.8161, 2360.718
587.2982, 2357.202
587.7803, 2353.354
588.2625, 2346.141
588.7446, 2348.184
589.2267, 2371.004
589.7088, 2395.821
590.1909, 2400.057
590.6730, 2372.606
591.1552, 2355.411
591.6373, 2358.156
592.1194, 2373.857
592.6015, 2381.721
593.0836, 2381.286
593.5657, 2380.586
594.0479, 2384.994
594.5300, 2392.327
595.0121, 2395.771
595.4942, 2395.031
595.9763, 2395.150
596.4584, 2402.481
596.9406, 2412.416
597.4227, 2418.018
597.9048, 2411.381
598.3869, 2410.974
598.8690, 2435.738
599.3511, 2471.538
599.8333, 2491.390
600.3154, 2472.607
600.7975, 2454.801
601.2796, 2447.064
601.7617, 2449.372
602.2438, 2460.747
602.7260, 2488.613
603.2081, 2512.880
603.6902, 2516.592
604.1723, 2497.266
604.6544, 2493.293
605.1365, 2510.248
605.6187, 2531.321
606.1008, 2527.564
606.5829, 2506.486
607.0650, 2500.146
607.5471, 2524.844
608.0292, 2562.305
608.5114, 2597.707
608.9935, 2628.970
609.4756, 2649.401
609.9577, 2640.426
610.4398, 2630.521
610.9219, 2640.162
611.4041, 2674.678
611.8862, 2702.171
612.3683, 2708.213
612.8504, 2710.309
613.3325, 2721.965
613.8146, 2749.076
614.2968, 2774.166
614.7789, 2794.581
615.2610, 2814.266
615.7431, 2841.104
616.2252, 2875.558
616.7073, 2911.229
617.1895, 2945.091
617.6716, 2978.714
618.1537, 3017.666
618.6358, 3061.764
619.1179, 3102.484
619.6000, 3124.137
620.0822, 3143.552
620.5643, 3186.982
621.0464, 3263.751
621.5285, 3330.714
622.0106, 3349.226
622.4927, 3351.656
622.9749, 3372.499
623.4570, 3435.337
623.9391, 3497.831
624.4212, 3553.776
624.9033, 3605.422
625.3854, 3658.686
625.8676, 3713.631
626.3497, 3768.677
626.8318, 3821.790
627.3139, 3873.809
627.7960, 3934.786
628.2781, 4005.673
628.7603, 4077.374
629.2424, 4139.840
629.7245, 4197.224
630.2066, 4264.475
630.6887, 4346.098
631.1708, 4425.101
631.6530, 4484.640
632.1351, 4532.125
632.6172, 4578.964
633.0993, 4627.757
633.5814, 4677.560
634.0635, 4729.575
634.5457, 4782.932
635.0278, 4834.523
635.5099, 4889.578
635.9920, 4935.771
636.4741, 4965.622
636.9562, 4977.815
637.4384, 5002.974
637.9205, 5045.089
638.4026, 5089.884
638.8847, 5127.667
639.3668, 5158.322
639.8489, 5177.285
640.3311, 5181.906
640.8132, 5182.257
641.2953, 5182.789
641.7774, 5188.406
642.2595, 5210.362
642.7416, 5265.678
643.2238, 5325.341
643.7059, 5370.122
644.1880, 5403.650
644.6701, 5440.008
645.1522, 5477.423
645.6343, 5523.296
646.1165, 5581.562
646.5986, 5653.306
647.0807, 5727.590
647.5628, 5802.139
648.0449, 5883.893
648.5270, 5978.360
649.0092, 6085.927
649.4913, 6202.090
649.9734, 6328.363
650.4555, 6461.402
650.9376, 6594.445
651.4197, 6731.022
651.9019, 6879.838
652.3840, 7049.831
652.8661, 7226.207
653.3482, 7393.878
653.8303, 7555.987
654.3124, 7721.579
654.7946, 7883.518
655.2767, 8061.402
655.7588, 8273.907
656.2408, 8526.365
656.7230, 8756.460
657.2051, 8945.361
657.6872, 9128.771
658.1693, 9328.501
658.6514, 9549.067
659.1335, 9764.668
659.6157, 9975.394
660.0978, 10186.00
660.5799, 10396.67
661.0620, 10610.49
661.5441, 10846.51
662.0262, 11135.37
662.5084, 11407.66
662.9905, 11567.86
663.4726, 11642.18
663.9547, 11701.69
664.4368, 11794.97
664.9189, 11868.35
665.4011, 11895.32
665.8832, 11874.75
666.3653, 11818.14
666.8474, 11724.89
667.3295, 11595.85
667.8116, 11431.36
668.2938, 11234.60
668.7759, 10986.96
669.2580, 10677.83
669.7401, 10338.97
670.2222, 9999.011
670.7043, 9658.430
671.1865, 9317.965
671.6686, 8978.918
672.1507, 8645.215
672.6328, 8308.137
673.1149, 7976.240
673.5970, 7675.247
674.0792, 7428.444
674.5613, 7200.641
675.0434, 6980.555
675.5255, 6765.346
676.0076, 6538.621
676.4897, 6262.102
676.9719, 6004.754
677.4540, 5789.835
677.9361, 5619.113
678.4182, 5468.985
678.9003, 5343.967
679.3824, 5226.065
679.8646, 5099.168
680.3467, 4964.943
680.8288, 4835.128
681.3109, 4708.630
681.7930, 4594.977
682.2751, 4508.367
682.7573, 4441.203
683.2394, 4376.066
683.7215, 4309.655
684.2036, 4243.018
684.6857, 4174.430
685.1678, 4106.215
685.6500, 4041.810
686.1321, 3976.001
686.6142, 3922.226
687.0963, 3891.738
687.5784, 3880.778
688.0605, 3845.375
688.5427, 3776.956
689.0248, 3706.818
689.5069, 3650.634
689.9890, 3607.850
690.4711, 3569.217
690.9532, 3534.379
691.4354, 3506.216
691.9175, 3491.395
692.3996, 3483.810
692.8817, 3473.053
693.3638, 3455.092
693.8459, 3439.465
694.3281, 3437.633
694.8102, 3439.357
695.2923, 3431.127
695.7744, 3397.012
696.2565, 3369.283
696.7386, 3355.037
697.2208, 3349.184
697.7029, 3338.496
698.1850, 3322.054
698.6671, 3303.685
699.1492, 3283.029
699.6313, 3262.069
700.1135, 3249.536
700.5956, 3244.989
701.0777, 3241.123
701.5598, 3231.221
702.0419, 3220.000
702.5240, 3213.394
703.0062, 3212.035
703.4883, 3212.433
703.9704, 3216.929
704.4525, 3219.980
704.9346, 3216.811
705.4167, 3199.233
705.8989, 3189.300
706.3810, 3192.215
706.8631, 3198.493
707.3452, 3196.942
707.8273, 3187.048
708.3094, 3170.843
708.7916, 3144.485
709.2737, 3118.999
709.7558, 3118.348
710.2379, 3137.448
710.7200, 3155.602
711.2021, 3166.667
711.6843, 3170.117
712.1664, 3161.790
712.6485, 3144.239
713.1306, 3128.399
713.6127, 3118.518
714.0948, 3111.089
714.5770, 3105.339
715.0591, 3101.329
715.5412, 3096.460
716.0233, 3091.368
716.5054, 3084.341
716.9875, 3074.192
717.4697, 3061.018
717.9518, 3043.686
718.4339, 3021.245
718.9160, 3002.018
719.3981, 3000.041
719.8802, 3007.058
720.3624, 3006.486
720.8445, 2991.598
721.3266, 2975.478
721.8087, 2964.752
722.2908, 2958.373
722.7729, 2955.111
723.2551, 2956.590
723.7372, 2958.792
724.2193, 2960.337
724.7014, 2962.262
725.1835, 2967.566
725.6656, 2976.587
726.1478, 2987.719
726.6299, 3003.426
727.1120, 3019.386
727.5941, 3018.573
728.0762, 3002.839
728.5583, 2990.576
729.0405, 3001.996
729.5226, 3017.501
730.0047, 3012.993
730.4868, 2986.988
730.9689, 2971.476
731.4510, 2992.093
731.9332, 3017.612
732.4153, 3026.731
732.8974, 3012.092
733.3795, 3002.265
733.8616, 2997.706
734.3438, 2997.502
734.8259, 3001.314
735.3080, 3009.109
735.7901, 3019.342
736.2722, 3032.464
736.7543, 3045.680
737.2365, 3056.930
737.7186, 3065.342
738.2007, 3068.328
738.6828, 3054.542
739.1649, 3048.522
739.6470, 3072.633
740.1292, 3113.296
740.6113, 3139.468
741.0934, 3132.854
741.5755, 3126.678
742.0576, 3126.430
742.5397, 3131.394
743.0219, 3138.040
743.5040, 3145.904
743.9861, 3158.458
744.4682, 3181.819
744.9503, 3210.309
745.4324, 3227.364
745.9146, 3233.912
746.3967, 3238.461
746.8788, 3243.162
747.3609, 3250.696
747.8430, 3263.948
748.3251, 3283.882
748.8073, 3304.861
749.2894, 3322.799
749.7715, 3344.002
750.2536, 3373.390
750.7357, 3416.825
751.2178, 3448.940
751.7000, 3465.353
752.1821, 3481.284
752.6642, 3519.449
753.1463, 3574.221
753.6284, 3614.281
754.1105, 3629.757
754.5927, 3643.950
755.0748, 3684.313
755.5569, 3738.054
756.0390, 3785.933
756.5211, 3806.146
757.0032, 3835.641
757.4854, 3890.151
757.9675, 3960.426
758.4496, 4023.863
758.9317, 4079.610
759.4138, 4131.016
759.8959, 4175.341
760.3781, 4218.085
760.8602, 4279.193
761.3423, 4357.315
761.8244, 4435.635
762.3065, 4502.457
762.7886, 4565.001
763.2708, 4632.805
763.7529, 4705.522
764.2350, 4779.791
764.7171, 4854.176
765.1992, 4930.277
765.6813, 5007.867
766.1635, 5086.834
766.6456, 5170.104
767.1277, 5262.279
767.6098, 5351.153
768.0919, 5421.542
768.5740, 5474.119
769.0562, 5552.949
769.5383, 5661.016
770.0204, 5773.815
770.5025, 5870.054
770.9846, 5955.741
771.4667, 6040.826
771.9489, 6130.919
772.4310, 6208.257
772.9131, 6254.065
773.3952, 6287.752
773.8773, 6329.104
774.3594, 6393.371
774.8416, 6445.284
775.3237, 6484.858
775.8058, 6511.342
776.2879, 6521.716
776.7700, 6515.960
777.2521, 6510.804
777.7343, 6511.804
778.2164, 6510.559
778.6985, 6496.333
779.1806, 6470.817
779.6627, 6437.310
780.1448, 6410.989
780.6270, 6363.202
781.1091, 6264.097
781.5912, 6132.124
782.0733, 6025.433
782.5554, 5968.139
783.0375, 5900.765
783.5197, 5808.731
784.0018, 5697.754
784.4839, 5584.794
784.9660, 5469.189
785.4481, 5357.138
785.9302, 5252.168
786.4124, 5150.500
786.8945, 5049.241
787.3766, 4947.822
787.8587, 4846.888
788.3408, 4746.357
788.8229, 4647.908
789.3051, 4553.528
789.7872, 4463.139
790.2693, 4376.630
790.7514, 4298.734
791.2335, 4219.833
791.7156, 4131.432
792.1978, 4033.393
792.6799, 3962.584
793.1620, 3920.833
793.6441, 3882.126
794.1262, 3818.674
794.6083, 3747.344
795.0905, 3695.221
795.5726, 3666.447
796.0547, 3639.708
796.5368, 3602.569
797.0189, 3564.235
797.5010, 3532.900
797.9832, 3512.388
798.4653, 3489.879
798.9474, 3464.617
799.4295, 3438.601
799.9116, 3415.630
800.3937, 3395.079
800.8759, 3364.310
801.3580, 3319.729
801.8401, 3274.706
802.3222, 3249.610
802.8043, 3231.556
803.2864, 3198.851
803.7686, 3128.723
804.2507, 3075.070
804.7328, 3071.439
805.2149, 3087.822
805.6970, 3081.133
806.1791, 3041.086
806.6613, 3003.816
807.1434, 2975.365
807.6255, 2948.488
808.1076, 2904.847
808.5897, 2848.779
809.0718, 2807.645
809.5540, 2797.692
810.0361, 2793.708
810.5182, 2773.338
811.0003, 2740.971
811.4824, 2705.189
811.9645, 2660.859
812.4467, 2622.732
812.9288, 2594.909
813.4109, 2575.532
813.8930, 2562.527
814.3751, 2558.430
814.8572, 2549.822
815.3394, 2531.226
815.8215, 2507.163
816.3036, 2488.579
816.7857, 2473.894
817.2678, 2456.641
817.7499, 2426.999
818.2321, 2399.027
818.7142, 2384.388
819.1963, 2380.382
819.6784, 2374.575
820.1605, 2362.608
820.6426, 2350.291
821.1247, 2338.806
821.6068, 2328.174
822.0889, 2320.656
822.5710, 2316.854
823.0532, 2309.484
823.5353, 2292.353
824.0174, 2269.990
824.4995, 2247.623
824.9816, 2226.488
825.4637, 2211.681
825.9459, 2207.503
826.4280, 2209.364
826.9101, 2219.367
827.3922, 2237.656
827.8743, 2241.196
828.3564, 2223.938
828.8386, 2202.608
829.3207, 2182.837
829.8028, 2165.235
830.2849, 2154.525
830.7670, 2150.701
831.2491, 2147.659
831.7313, 2138.584
832.2134, 2129.464
832.6955, 2129.239
833.1776, 2138.284
833.6597, 2142.788
834.1418, 2135.987
834.6240, 2125.078
835.1061, 2113.438
835.5882, 2100.791
836.0703, 2089.747
836.5524, 2080.908
837.0345, 2071.946
837.5167, 2058.500
837.9988, 2043.758
838.4809, 2038.877
838.9630, 2044.281
839.4451, 2049.196
839.9272, 2045.559
840.4094, 2038.799
840.8915, 2033.399
841.3736, 2030.651
841.8557, 2025.185
842.3378, 2014.043
842.8199, 2003.586
843.3021, 1996.754
843.7842, 1993.423
844.2663, 2002.025
844.7484, 2024.413
845.2305, 2039.014
845.7126, 2014.932
846.1948, 1976.536
846.6769, 1959.889
847.1590, 1972.119
847.6411, 1983.758
848.1232, 1979.872
848.6053, 1973.589
849.0875, 1974.865
849.5696, 1986.970
850.0517, 1994.924
850.5338, 1999.754
851.0159, 1997.771
851.4980, 1981.393
851.9802, 1955.441
852.4623, 1935.078
852.9444, 1921.754
853.4265, 1913.609
853.9086, 1911.893
854.3907, 1913.133
854.8729, 1914.402
855.3550, 1915.216
855.8371, 1915.928
856.3192, 1915.777
856.8013, 1916.424
857.2834, 1917.792
857.7656, 1919.726
858.2477, 1933.641
858.7298, 1962.231
859.2119, 1984.017
859.6940, 1968.635
860.1761, 1938.510
860.6583, 1926.094
861.1404, 1940.353
861.6225, 1951.002
862.1046, 1939.632
862.5867, 1925.798
863.0688, 1926.171
863.5510, 1949.279
864.0331, 1950.847
864.5152, 1925.164
864.9973, 1896.925
865.4794, 1889.611
865.9615, 1897.713
866.4437, 1910.323
866.9258, 1927.502
867.4079, 1932.233
867.8900, 1894.588
868.3721, 1851.831
868.8542, 1837.753
869.3364, 1871.180
869.8185, 1890.549
870.3006, 1891.224
870.7827, 1884.803
871.2648, 1876.970
871.7469, 1868.646
872.2291, 1873.886
872.7112, 1894.572
873.1933, 1909.871
873.6754, 1892.773
874.1575, 1865.928
874.6396, 1853.434
875.1218, 1860.860
875.6039, 1870.694
876.0860, 1882.777
876.5681, 1892.490
877.0502, 1896.354
877.5323, 1893.435
878.0145, 1893.064
878.4966, 1895.430
878.9787, 1898.834
879.4608, 1903.140
879.9429, 1907.009
880.4250, 1908.088
880.9072, 1906.131
881.3893, 1902.762
881.8714, 1896.272
882.3535, 1890.721
882.8356, 1889.693
883.3177, 1894.174
883.7999, 1893.848
884.2820, 1887.226
884.7641, 1880.356
885.2462, 1877.295
885.7283, 1877.262
886.2104, 1877.485
886.6926, 1877.994
887.1747, 1880.692
887.6568, 1888.672
888.1389, 1897.822
888.6210, 1905.724
889.1031, 1912.055
889.5853, 1916.992
890.0674, 1919.836
890.5495, 1922.734
891.0316, 1928.035
891.5137, 1934.592
891.9958, 1934.951
892.4780, 1929.255
892.9601, 1919.478
893.4422, 1897.507
893.9243, 1879.226
894.4064, 1884.514
894.8885, 1910.947
895.3707, 1926.447
895.8528, 1885.993
896.3349, 1921.023
896.8170, 1941.008
897.2991, 1946.758
897.7813, 1895.635
898.2634, 1917.952
898.7455, 1910.837
899.2276, 1902.516
899.7097, 1935.169
900.1918, 1892.318
900.6740, 1924.321
901.1561, 1926.443
901.6382, 1942.241
902.1203, 1928.427
902.6024, 1923.758
903.0845, 1948.712
903.5667, 1957.264
904.0488, 1940.041
904.5309, 1956.708
905.0130, 1912.822
905.4951, 1949.312
905.9772, 1949.499
906.4594, 1935.245
906.9415, 1922.887
907.4236, 1917.266
907.9057, 1916.671
908.3878, 1925.260
908.8699, 1937.222
909.3521, 1940.813
909.8342, 1934.221
910.3163, 1926.002
910.7984, 1916.606
911.2805, 1909.038
911.7626, 1910.334
912.2448, 1917.386
912.7269, 1923.076
913.2090, 1926.975
913.6911, 1925.705
914.1732, 1911.712
914.6553, 1894.045
915.1375, 1885.866
915.6196, 1891.883
916.1017, 1895.236
916.5838, 1894.208
917.0659, 1891.029
917.5480, 1886.211
918.0302, 1881.616
918.5123, 1884.995
918.9944, 1900.852
919.4765, 1911.552
919.9586, 1900.279
920.4407, 1881.620
920.9229, 1869.712
921.4050, 1867.948
921.8871, 1867.678
922.3692, 1870.966
922.8513, 1871.346
923.3334, 1855.743
923.8156, 1831.713
924.2977, 1832.560
924.7798, 1861.421
925.2619, 1888.261
925.7440, 1889.602
926.2261, 1881.360
926.7083, 1875.460
927.1904, 1873.795
927.6725, 1869.153
928.1546, 1859.271
928.6367, 1850.825
929.1188, 1849.025
929.6010, 1852.158
930.0831, 1850.197
930.5652, 1843.802
931.0473, 1839.546
931.5294, 1844.917
932.0115, 1851.327
932.4937, 1852.435
932.9758, 1848.404
933.4579, 1843.915
933.9400, 1838.175
934.4221, 1834.054
934.9042, 1832.496
935.3864, 1833.009
935.8685, 1834.969
936.3506, 1837.929
936.8327, 1839.412
937.3148, 1836.852
937.7969, 1833.698
938.2791, 1833.528
938.7612, 1834.560
939.2433, 1832.016
939.7254, 1816.917
940.2075, 1813.844
940.6896, 1830.570
941.1718, 1855.526
941.6539, 1870.587
942.1360, 1875.706
942.6181, 1867.977
943.1002, 1840.759
943.5823, 1816.879
944.0645, 1821.963
944.5466, 1837.444
945.0287, 1839.985
945.5108, 1809.321
945.9929, 1793.912
946.4750, 1798.032
946.9572, 1810.102
947.4393, 1820.013
947.9214, 1827.636
948.4035, 1832.821
948.8856, 1835.679
949.3677, 1834.103
949.8499, 1818.677
950.3320, 1803.596
950.8141, 1804.605
951.2962, 1829.485
951.7783, 1833.808
952.2604, 1806.227
952.7426, 1779.702
953.2247, 1775.957
953.7068, 1789.496
954.1889, 1793.885
954.6710, 1790.407
955.1531, 1790.545
955.6353, 1801.818
956.1174, 1818.838
956.5995, 1847.931
957.0816, 1882.915
957.5637, 1884.504
958.0458, 1832.562
958.5280, 1793.079
959.0101, 1787.447
959.4922, 1803.711
959.9743, 1820.822
960.4564, 1835.845
960.9385, 1837.395
961.4207, 1807.227
961.9028, 1780.689
962.3849, 1780.291
962.8670, 1795.320
963.3491, 1806.967
963.8312, 1813.675
964.3134, 1819.155
964.7955, 1823.771
965.2776, 1827.164
965.7597, 1825.619
966.2418, 1822.756
966.7239, 1830.306
967.2061, 1853.315
967.6882, 1871.001
968.1703, 1867.137
968.6524, 1856.748
969.1345, 1852.860
969.6166, 1858.484
970.0988, 1853.507
970.5809, 1834.698
971.0630, 1818.743
971.5451, 1821.347
972.0272, 1834.290
972.5093, 1841.693
972.9915, 1843.587
973.4736, 1846.102
973.9557, 1852.511
974.4378, 1859.915
974.9199, 1867.715
975.4020, 1875.514
975.8842, 1881.297
976.3663, 1884.979
976.8484, 1887.905
977.3305, 1891.707
977.8126, 1893.532
978.2947, 1884.337
978.7769, 1870.290
979.2590, 1865.394
979.7411, 1888.767
980.2232, 1902.859
980.7053, 1892.963
981.1874, 1876.566
981.6696, 1880.678
982.1517, 1905.957
982.6338, 1919.576
983.1159, 1915.859
983.5980, 1905.573
984.0801, 1892.795
984.5623, 1883.031
985.0444, 1882.721
985.5264, 1894.048
986.0085, 1912.129
986.4907, 1944.332
986.9728, 1970.898
987.4549, 1977.645
987.9370, 1966.613
988.4191, 1956.127
988.9012, 1946.660
989.3834, 1944.289
989.8655, 1961.625
990.3476, 1980.271
990.8297, 1987.274
991.3118, 1983.132
991.7939, 1974.311
992.2761, 1958.003
992.7582, 1943.868
993.2403, 1931.907
993.7224, 1926.815
994.2045, 1948.148
994.6866, 1986.142
995.1688, 2008.472
995.6509, 1999.185
996.1330, 1980.213
996.6151, 1951.802
997.0972, 1925.704
997.5793, 1917.522
998.0615, 1934.562
998.5436, 1944.530
999.0257, 1945.909
999.5078, 1940.861
999.9899, 1924.816
1000.472, 1906.392
1000.954, 1904.506
1001.436, 1921.583
1001.918, 1931.870
1002.401, 1919.076
1002.883, 1902.532
1003.365, 1890.572
1003.847, 1882.880
1004.329, 1877.639
1004.811, 1874.859
1005.293, 1873.282
1005.775, 1874.723
1006.257, 1874.810
1006.740, 1868.831
1007.222, 1857.837
1007.704, 1844.154
1008.186, 1820.620
1008.668, 1805.625
1009.150, 1802.015
1009.632, 1806.672
1010.114, 1819.077
1010.596, 1836.735
1011.079, 1844.641
1011.561, 1838.867
1012.043, 1829.653
1012.525, 1821.041
1013.007, 1815.030
1013.489, 1815.752
1013.971, 1826.989
1014.453, 1822.951
1014.936, 1797.194
1015.418, 1776.948
1015.900, 1788.636
1016.382, 1816.202
1016.864, 1820.094
1017.346, 1804.288
1017.828, 1790.766
1018.310, 1790.865
1018.792, 1794.254
1019.275, 1798.139
1019.757, 1802.154
1020.239, 1806.168
1020.721, 1810.374
1021.203, 1810.452
1021.685, 1804.028
1022.167, 1796.992
1022.649, 1795.610
1023.132, 1798.045
1023.614, 1802.896
1024.096, 1816.493
1024.578, 1814.645
1025.060, 1783.139
1025.542, 1756.372
1026.024, 1770.366
1026.506, 1815.630
1026.989, 1827.529
1027.471, 1806.621
1027.953, 1782.492
1028.435, 1764.245
1028.917, 1757.855
1029.399, 1777.922
1029.881, 1816.383
1030.363, 1826.900
1030.845, 1800.355
1031.328, 1780.479
1031.810, 1780.960
1032.292, 1790.860
1032.774, 1793.645
1033.256, 1792.401
1033.738, 1794.025
1034.220, 1806.541
1034.702, 1810.409
1035.184, 1791.307
1035.667, 1771.238
1036.149, 1769.683
1036.631, 1786.782
1037.113, 1801.528
1037.595, 1813.528
1038.077, 1816.348
1038.559, 1794.051
1039.041, 1769.197
1039.524, 1761.078
1040.006, 1770.002
1040.488, 1780.863
1040.970, 1795.892
1041.452, 1804.390
1041.934, 1800.614
1042.416, 1791.517
1042.898, 1792.240
1043.380, 1799.233
1043.863, 1802.517
1044.345, 1795.611
1044.827, 1790.272
1045.309, 1793.687
1045.791, 1798.927
1046.273, 1799.117
1046.755, 1793.550
1047.237, 1789.967
1047.719, 1788.583
1048.202, 1789.599
1048.684, 1796.436
1049.166, 1803.513
1049.648, 1802.474
1050.130, 1793.985
1050.612, 1793.537
1051.094, 1809.018
1051.576, 1820.126
1052.059, 1821.085
1052.541, 1814.432
1053.023, 1800.404
1053.505, 1783.527
1053.987, 1779.239
1054.469, 1800.476
1054.951, 1819.155
1055.433, 1818.130
1055.916, 1810.805
1056.398, 1811.877
1056.880, 1824.640
1057.362, 1823.154
1057.844, 1805.685
1058.326, 1789.395
1058.808, 1792.523
1059.290, 1801.167
1059.772, 1797.345
1060.255, 1782.417
1060.737, 1776.924
1061.219, 1787.701
1061.701, 1801.513
1062.183, 1818.018
1062.665, 1832.272
1063.147, 1832.426
1063.629, 1821.221
1064.111, 1806.726
1064.594, 1760.392
1065.076, 1795.401
1065.558, 1815.366
1066.040, 1821.095
1066.522, 1769.951
1067.004, 1792.247
1067.486, 1785.112
1067.968, 1776.770
1068.450, 1809.402
1068.933, 1766.532
1069.415, 1798.514
1069.897, 1800.616
1070.379, 1816.394
1070.861, 1802.558
1071.343, 1797.869
1071.825, 1822.803
1072.307, 1831.334
1072.790, 1814.091
1073.272, 1830.738
1073.754, 1786.832
1074.236, 1796.062
1074.718, 1828.218
1075.200, 1812.462
1075.682, 1829.651
1076.164, 1834.292
1076.646, 1781.914
1077.129, 1828.700
1077.611, 1832.600
1078.093, 1792.467
1078.575, 1835.854
1079.057, 1801.791
1079.539, 1795.373
1080.021, 1809.760
1080.503, 1802.458
1080.985, 1829.350
1081.468, 1823.303
1081.950, 1814.311
1082.432, 1818.163
1082.914, 1785.619
1083.396, 1820.597
1083.878, 1809.451
1084.360, 1821.233
1084.842, 1838.211
1085.325, 1815.400
1085.807, 1834.713
1086.289, 1788.699
1086.771, 1797.346
1087.253, 1800.108
1087.735, 1837.808
1088.217, 1792.112
1088.699, 1799.241
1089.182, 1828.863
1089.664, 1827.012
1090.146, 1838.320
1090.628, 1810.674
1091.110, 1830.173
1091.592, 1822.808
1092.074, 1820.471
1092.556, 1825.052
1093.038, 1827.948
1093.521, 1819.751
1094.003, 1806.223
1094.485, 1791.980
1094.967, 1778.237
1095.449, 1773.119
1095.931, 1784.820
1096.413, 1794.658
1096.895, 1796.875
1097.377, 1796.191
1097.860, 1804.387
1098.342, 1818.357
1098.824, 1827.672
1099.306, 1828.341
1099.788, 1828.179
1100.270, 1836.523
1100.752, 1840.158
1101.234, 1825.922
1101.717, 1792.960
1102.199, 1782.009
1102.681, 1792.708
1103.163, 1805.080
1103.645, 1805.576
1104.127, 1803.195
1104.609, 1804.521
1105.091, 1808.766
1105.573, 1814.280
1106.056, 1823.877
1106.538, 1824.776
1107.020, 1813.566
1107.502, 1799.942
1107.984, 1791.698
1108.466, 1790.531
1108.948, 1803.699
1109.430, 1833.111
1109.912, 1850.206
1110.395, 1840.755
1110.877, 1829.194
1111.359, 1824.067
1111.841, 1822.800
1112.323, 1819.795
1112.805, 1814.287
1113.287, 1802.190
1113.769, 1773.206
1114.252, 1754.066
1114.734, 1763.736
1115.216, 1783.779
1115.698, 1797.848
1116.180, 1805.637
1116.662, 1812.997
1117.144, 1820.051
1117.626, 1822.621
1118.109, 1810.470
1118.591, 1799.161
1119.073, 1805.055
1119.555, 1822.869
1120.037, 1830.077
1120.519, 1822.109
1121.001, 1819.866
1121.483, 1828.950
1121.965, 1837.689
1122.448, 1826.532
1122.930, 1807.703
1123.412, 1799.887
1123.894, 1807.335
1124.376, 1812.357
1124.858, 1812.734
1125.340, 1810.136
1125.822, 1803.637
1126.304, 1795.822
1126.787, 1794.541
1127.269, 1798.168
1127.751, 1801.829
1128.233, 1801.229
1128.715, 1804.329
1129.197, 1819.294
1129.679, 1833.696
1130.161, 1834.039
1130.644, 1821.506
1131.126, 1821.340
1131.608, 1833.459
1132.090, 1841.773
1132.572, 1829.934
1133.054, 1816.583
1133.536, 1813.136
1134.018, 1817.154
1134.500, 1822.834
1134.983, 1831.175
1135.465, 1830.531
1135.947, 1817.050
1136.429, 1803.163
1136.911, 1802.326
1137.393, 1807.627
1137.875, 1812.541
1138.357, 1816.260
1138.839, 1819.704
1139.322, 1823.351
1139.804, 1825.004
1140.286, 1822.865
1140.768, 1819.352
1141.250, 1818.165
1141.732, 1818.803
1142.214, 1820.358
1142.696, 1823.698
1143.179, 1826.293
1143.661, 1829.631
1144.143, 1829.260
1144.625, 1817.222
1145.107, 1799.065
1145.589, 1793.838
1146.071, 1800.211
1146.553, 1808.112
1147.036, 1812.879
1147.518, 1818.881
1148.000, 1830.536
1148.482, 1841.234
1148.964, 1834.451
1149.446, 1814.589
1149.928, 1812.035
1150.410, 1832.256
1150.892, 1854.653
1151.375, 1869.218
1151.857, 1878.132
1152.339, 1882.564
1152.821, 1882.714
1153.303, 1875.287
1153.785, 1860.472
1154.267, 1854.218
1154.749, 1865.076
1155.231, 1878.653
1155.714, 1883.664
1156.196, 1883.356
1156.678, 1880.620
1157.160, 1874.810
1157.642, 1873.478
1158.124, 1877.570
1158.606, 1878.823
1159.088, 1866.723
1159.571, 1853.066
1160.053, 1854.679
1160.535, 1865.025
1161.017, 1867.047
1161.499, 1848.421
1161.981, 1846.137
1162.463, 1867.202
1162.945, 1890.719
1163.427, 1895.589
1163.910, 1887.613
1164.392, 1870.657
1164.874, 1846.770
1165.356, 1832.283
1165.838, 1836.831
1166.320, 1841.977
1166.802, 1844.414
1167.284, 1844.493
1167.766, 1841.436
1168.249, 1836.800
1168.731, 1834.599
1169.213, 1836.251
1169.695, 1836.300
1170.177, 1830.292
1170.659, 1825.580
1171.141, 1826.294
1171.623, 1830.301
1172.106, 1828.058
1172.588, 1822.032
1173.070, 1822.338
1173.552, 1839.991
1174.034, 1852.159
1174.516, 1841.583
1174.998, 1828.665
1175.480, 1831.941
1175.963, 1850.113
1176.445, 1849.860
1176.927, 1832.976
1177.409, 1819.468
1177.891, 1823.256
1178.373, 1831.776
1178.855, 1843.009
1179.337, 1852.915
1179.819, 1853.603
1180.302, 1844.737
1180.784, 1845.166
1181.266, 1857.428
1181.748, 1866.738
1182.230, 1858.138
1182.712, 1845.534
1183.194, 1835.787
1183.676, 1830.735
1184.158, 1839.057
1184.641, 1862.525
1185.123, 1876.554
1185.605, 1872.874
1186.087, 1867.627
1186.569, 1882.131
1187.051, 1898.956
1187.533, 1898.820
1188.015, 1879.670
1188.498, 1860.356
1188.980, 1839.586
1189.462, 1830.119
1189.944, 1841.728
1190.426, 1860.063
1190.908, 1872.032
1191.390, 1878.193
1191.872, 1878.712
1192.354, 1871.823
1192.837, 1864.250
1193.319, 1854.817
1193.801, 1850.420
1194.283, 1861.386
1194.765, 1876.200
1195.247, 1878.264
1195.729, 1871.693
1196.211, 1867.496
1196.693, 1870.448
1197.176, 1868.594
1197.658, 1860.090
1198.140, 1850.354
1198.622, 1844.052
1199.104, 1840.368
1199.586, 1838.122
1200.068, 1837.262
1200.550, 1838.066
1201.033, 1840.836
1201.515, 1845.042
1201.997, 1851.735
1202.479, 1857.126
1202.961, 1853.249
1203.443, 1845.434
1203.925, 1842.285
1204.407, 1845.141
1204.890, 1850.858
1205.372, 1862.034
1205.854, 1869.177
1206.336, 1867.342
1206.818, 1862.457
1207.300, 1867.442
1207.782, 1878.036
1208.264, 1885.836
1208.746, 1888.698
1209.229, 1889.490
1209.711, 1889.731
1210.193, 1886.129
1210.675, 1872.931
1211.157, 1857.460
1211.639, 1861.880
1212.121, 1878.868
1212.603, 1889.132
1213.085, 1881.523
1213.568, 1873.962
1214.050, 1866.703
1214.532, 1863.333
1215.014, 1869.728
1215.496, 1881.518
1215.978, 1883.864
1216.460, 1879.077
1216.942, 1877.172
1217.425, 1884.276
1217.907, 1892.779
1218.389, 1905.004
1218.871, 1911.983
1219.353, 1893.790
1219.835, 1863.693
1220.317, 1862.952
1220.799, 1891.153
1221.281, 1917.706
1221.764, 1934.287
1222.246, 1941.281
1222.728, 1937.966
1223.210, 1926.968
1223.692, 1906.454
1224.174, 1882.649
1224.656, 1875.379
1225.138, 1888.211
1225.620, 1896.405
1226.103, 1884.881
1226.585, 1873.773
1227.067, 1866.960
1227.549, 1866.295
1228.031, 1882.296
1228.513, 1907.256
1228.995, 1918.730
1229.477, 1908.737
1229.960, 1900.433
1230.442, 1903.638
1230.924, 1905.792
1231.406, 1900.425
1231.888, 1890.896
1232.370, 1884.472
1232.852, 1881.993
1233.334, 1886.864
1233.816, 1907.762
1234.299, 1917.422
1234.781, 1904.282
1235.263, 1873.431
1235.745, 1907.872
1236.227, 1927.269
1236.709, 1932.430
1237.191, 1880.719
1237.673, 1902.447
1238.156, 1894.744
1238.638, 1885.834
1239.120, 1917.898
1239.602, 1874.459
1240.084, 1905.874
1240.566, 1907.408
1241.048, 1922.618
1241.530, 1908.215
1242.012, 1902.958
1242.495, 1927.324
1242.977, 1935.287
1243.459, 1917.475
1243.941, 1933.555
1244.423, 1889.081
1244.905, 1897.743
1245.387, 1929.331
1245.869, 1913.008
1246.351, 1929.629
1246.834, 1933.703
1247.316, 1880.757
1247.798, 1926.974
1248.280, 1930.306
1248.762, 1889.605
1249.244, 1910.887
1249.726, 1918.871
1250.208, 1913.209
1250.691, 1905.848
1251.173, 1898.636
1251.655, 1890.544
1252.137, 1879.735
1252.619, 1871.131
1253.101, 1872.576
1253.583, 1881.355
1254.065, 1895.476
1254.547, 1915.964
1255.030, 1926.467
1255.512, 1923.217
1255.994, 1918.269
1256.476, 1916.010
1256.958, 1913.931
1257.440, 1908.023
1257.922, 1899.808
1258.404, 1889.993
1258.886, 1876.431
1259.369, 1875.243
1259.851, 1889.596
1260.333, 1904.138
1260.815, 1913.131
1261.297, 1916.790
1261.779, 1911.894
1262.261, 1903.519
1262.743, 1900.067
1263.226, 1905.158
1263.708, 1903.207
1264.190, 1892.935
1264.672, 1884.489
1265.154, 1886.371
1265.636, 1890.241
1266.118, 1886.439
1266.600, 1879.246
1267.083, 1875.815
1267.565, 1877.364
1268.047, 1878.785
1268.529, 1880.000
1269.011, 1882.216
1269.493, 1887.721
1269.975, 1893.042
1270.457, 1894.411
1270.939, 1894.114
1271.422, 1897.525
1271.904, 1906.002
1272.386, 1904.271
1272.868, 1891.822
1273.350, 1879.521
1273.832, 1873.644
1274.314, 1871.849
1274.796, 1875.552
1275.278, 1881.145
1275.761, 1880.828
1276.243, 1875.201
1276.725, 1884.304
1277.207, 1909.141
1277.689, 1927.664
1278.171, 1922.791
1278.653, 1911.588
1279.135, 1897.850
1279.618, 1886.101
1280.100, 1887.329
1280.582, 1897.779
1281.064, 1894.411
1281.546, 1874.969
1282.028, 1862.157
1282.510, 1874.668
1282.992, 1887.625
1283.474, 1894.088
1283.957, 1895.297
1284.439, 1890.930
1284.921, 1883.583
1285.403, 1880.172
1285.885, 1881.681
1286.367, 1887.190
1286.849, 1903.949
1287.331, 1912.134
1287.813, 1904.367
1288.296, 1888.790
1288.778, 1874.469
1289.260, 1864.478
1289.742, 1867.465
1290.224, 1886.438
1290.706, 1895.886
1291.188, 1891.404
1291.670, 1882.873
1292.153, 1871.209
1292.635, 1862.105
1293.117, 1866.994
1293.599, 1878.037
1294.081, 1883.935
1294.563, 1882.072
1295.045, 1886.467
1295.527, 1899.956
1296.010, 1901.148
1296.492, 1875.971
1296.974, 1850.020
1297.456, 1855.526
1297.938, 1873.178
1298.420, 1879.569
1298.902, 1873.843
1299.384, 1880.209
1299.866, 1898.634
1300.349, 1908.998
1300.831, 1898.111
##END=



