##NAMES=Sorensenite
##RRUFFID=R070576
##IDEAL CHEMISTRY=Na_4_Be_2_Sn^4+^(Si_3_O_9_)_2_&#183;2H_2_O
##LOCALITY=Kvanefjeld, Ilimaussaq, Narsaq, Kitaa, Greenland
##OWNER=RRUFF
##SOURCE=James Shigley
##DESCRIPTION=Striated colorless laths
##STATUS=The identification of this mineral has been confirmed by X-ray diffraction and chemical analysis
##URL=rruff.info/R070576
##MEASURED CHEMISTRY=(Na_3.98_[box]_0.02_)_Σ=4_Be_2.00_(Sn_0.91_Ti_0.07_Nb^5+^_0.02_)_Σ=1_(Si_3.00_O_9_)_2_·2H_2_O; Be and H_2_O not measured but assumed by stoichiometry
149.0633, 8563.475
149.5454, 8781.096
150.0275, 9012.242
150.5096, 9251.156
150.9917, 9494.702
151.4738, 9720.830
151.9560, 9971.287
152.4381, 10262.44
152.9202, 10621.87
153.4023, 10967.03
153.8844, 11314.64
154.3665, 11650.00
154.8487, 11938.48
155.3308, 12232.08
155.8129, 12442.68
156.2950, 12529.12
156.7771, 12484.03
157.2592, 12326.82
157.7414, 12023.65
158.2235, 11581.17
158.7056, 11147.59
159.1877, 10691.51
159.6698, 10279.21
160.1519, 9972.073
160.6341, 9816.055
161.1162, 9734.277
161.5983, 9710.899
162.0804, 9752.035
162.5625, 9815.926
163.0446, 9912.911
163.5268, 10023.45
164.0089, 10110.63
164.4910, 10198.81
164.9731, 10237.42
165.4552, 10190.33
165.9373, 9998.053
166.4195, 9791.034
166.9016, 9614.630
167.3837, 9467.966
167.8658, 9347.808
168.3479, 9238.239
168.8300, 9158.619
169.3122, 9128.869
169.7943, 9145.353
170.2764, 9221.012
170.7585, 9380.633
171.2406, 9628.724
171.7227, 9895.417
172.2049, 10152.39
172.6870, 10395.71
173.1691, 10618.14
173.6512, 10839.57
174.1333, 11026.91
174.6154, 11161.33
175.0976, 11251.09
175.5797, 11260.28
176.0618, 11124.98
176.5439, 10871.50
177.0260, 10593.75
177.5081, 10337.61
177.9903, 10097.76
178.4724, 9864.432
178.9545, 9628.660
179.4366, 9400.565
179.9187, 9202.059
180.4008, 9030.870
180.8830, 8860.595
181.3651, 8662.251
181.8472, 8448.074
182.3293, 8245.043
182.8114, 8050.388
183.2935, 7877.819
183.7757, 7757.296
184.2578, 7693.179
184.7399, 7665.231
185.2220, 7655.213
185.7041, 7663.048
186.1862, 7688.988
186.6684, 7735.999
187.1505, 7801.185
187.6326, 7883.169
188.1147, 7990.450
188.5968, 8098.479
189.0790, 8173.140
189.5611, 8215.200
190.0432, 8212.146
190.5253, 8143.079
191.0074, 8015.860
191.4895, 7870.941
191.9717, 7702.284
192.4538, 7527.670
192.9359, 7392.185
193.4180, 7298.122
193.9001, 7233.315
194.3822, 7182.828
194.8644, 7147.839
195.3465, 7140.469
195.8286, 7170.106
196.3107, 7233.715
196.7928, 7306.487
197.2749, 7386.972
197.7571, 7479.690
198.2392, 7590.634
198.7213, 7719.005
199.2034, 7862.449
199.6855, 8017.666
200.1676, 8185.900
200.6498, 8371.058
201.1319, 8569.552
201.6140, 8788.352
202.0961, 9048.824
202.5782, 9356.591
203.0603, 9682.888
203.5425, 10016.94
204.0246, 10357.08
204.5067, 10702.98
204.9888, 11053.69
205.4709, 11409.68
205.9530, 11775.85
206.4352, 12155.97
206.9173, 12538.82
207.3994, 12908.13
207.8815, 13252.90
208.3636, 13640.51
208.8457, 14108.96
209.3279, 14659.58
209.8100, 15160.07
210.2921, 15633.01
210.7742, 16027.82
211.2563, 16259.64
211.7384, 16301.05
212.2206, 16279.98
212.7027, 16221.93
213.1848, 16103.61
213.6669, 16061.67
214.1490, 16100.24
214.6311, 16213.40
215.1133, 16396.28
215.5954, 16671.55
216.0775, 16967.12
216.5596, 17250.32
217.0417, 17520.90
217.5238, 17775.73
218.0060, 18036.36
218.4881, 18283.77
218.9702, 18407.73
219.4523, 18391.60
219.9344, 18282.43
220.4165, 18113.29
220.8987, 17878.50
221.3808, 17591.56
221.8629, 17242.04
222.3450, 16828.24
222.8271, 16441.08
223.3092, 16089.70
223.7914, 15755.37
224.2735, 15418.53
224.7556, 15055.13
225.2377, 14736.50
225.7198, 14490.60
226.2020, 14336.89
226.6841, 14147.43
227.1662, 13915.23
227.6483, 13656.01
228.1304, 13400.41
228.6125, 13146.57
229.0947, 12895.48
229.5768, 12643.93
230.0589, 12392.05
230.5410, 12144.58
231.0231, 11902.29
231.5052, 11666.88
231.9874, 11431.64
232.4695, 11195.86
232.9516, 10963.74
233.4337, 10736.65
233.9158, 10503.37
234.3979, 10301.10
234.8801, 10136.18
235.3622, 10005.27
235.8443, 9876.287
236.3264, 9734.510
236.8085, 9610.744
237.2906, 9524.424
237.7728, 9476.513
238.2549, 9465.146
238.7370, 9500.732
239.2191, 9581.175
239.7012, 9650.123
240.1833, 9693.077
240.6655, 9738.713
241.1476, 9812.681
241.6297, 9915.885
242.1118, 10045.74
242.5939, 10202.52
243.0760, 10387.64
243.5582, 10594.68
244.0403, 10826.81
244.5224, 11079.99
245.0045, 11350.02
245.4866, 11639.78
245.9688, 11941.05
246.4509, 12247.88
246.9330, 12557.40
247.4151, 12889.34
247.8972, 13242.85
248.3793, 13618.29
248.8615, 14014.10
249.3436, 14431.94
249.8257, 14867.31
250.3078, 15316.45
250.7899, 15770.61
251.2720, 16261.45
251.7542, 16785.49
252.2363, 17343.77
252.7184, 17936.09
253.2005, 18556.77
253.6826, 19209.40
254.1647, 19896.37
254.6469, 20625.46
255.1290, 21379.59
255.6111, 22159.10
256.0932, 22957.48
256.5753, 23721.03
257.0574, 24475.87
257.5396, 25159.55
258.0217, 25744.92
258.5038, 26247.03
258.9859, 26619.94
259.4680, 26864.76
259.9501, 26979.87
260.4323, 26902.53
260.9144, 26606.38
261.3965, 26158.41
261.8786, 25594.42
262.3607, 24875.20
262.8428, 24150.97
263.3250, 23448.34
263.8071, 22767.37
264.2892, 22114.16
264.7713, 21494.88
265.2534, 20885.23
265.7355, 20258.31
266.2177, 19583.90
266.6998, 18955.61
267.1819, 18388.41
267.6640, 17892.75
268.1461, 17440.07
268.6282, 17046.66
269.1104, 16681.18
269.5925, 16293.49
270.0746, 15875.43
270.5567, 15468.58
271.0388, 15092.08
271.5209, 14749.50
272.0031, 14403.18
272.4852, 14037.43
272.9673, 13688.77
273.4494, 13415.37
273.9315, 13229.11
274.4136, 13086.21
274.8958, 12971.04
275.3779, 12885.29
275.8600, 12816.89
276.3421, 12755.04
276.8242, 12720.76
277.3063, 12769.38
277.7885, 12919.06
278.2706, 13075.31
278.7527, 13203.53
279.2348, 13305.38
279.7169, 13349.01
280.1990, 13330.19
280.6812, 13253.55
281.1633, 13123.83
281.6454, 12935.10
282.1275, 12715.18
282.6096, 12486.11
283.0917, 12249.07
283.5739, 11958.03
284.0560, 11598.03
284.5381, 11195.04
285.0202, 10808.66
285.5023, 10437.29
285.9844, 10096.46
286.4666, 9801.435
286.9487, 9551.461
287.4308, 9319.376
287.9129, 9099.050
288.3950, 8898.730
288.8771, 8745.257
289.3593, 8640.232
289.8414, 8564.189
290.3235, 8506.853
290.8056, 8467.571
291.2877, 8434.843
291.7699, 8400.007
292.2520, 8374.793
292.7341, 8387.694
293.2162, 8439.143
293.6983, 8517.662
294.1805, 8620.996
294.6626, 8745.350
295.1447, 8870.185
295.6268, 8988.294
296.1089, 9104.197
296.5910, 9230.277
297.0732, 9366.407
297.5553, 9517.603
298.0374, 9699.327
298.5195, 9901.620
299.0016, 10089.00
299.4837, 10243.56
299.9659, 10378.21
300.4480, 10522.49
300.9301, 10675.42
301.4122, 10814.88
301.8943, 10912.41
302.3764, 10979.19
302.8586, 11041.76
303.3407, 11117.34
303.8228, 11189.95
304.3049, 11240.00
304.7870, 11268.07
305.2691, 11271.54
305.7513, 11250.00
306.2334, 11202.66
306.7155, 11127.20
307.1976, 11018.47
307.6797, 10882.85
308.1618, 10729.94
308.6440, 10557.86
309.1261, 10367.71
309.6082, 10152.63
310.0903, 9919.484
310.5724, 9684.539
311.0545, 9452.118
311.5367, 9217.784
312.0188, 8973.770
312.5009, 8715.493
312.9830, 8473.712
313.4651, 8274.687
313.9472, 8102.316
314.4294, 7936.545
314.9115, 7771.075
315.3936, 7608.380
315.8757, 7446.050
316.3578, 7282.831
316.8399, 7136.627
317.3221, 7021.465
317.8042, 6927.935
318.2863, 6842.432
318.7684, 6758.882
319.2505, 6684.268
319.7326, 6625.373
320.2148, 6585.417
320.6969, 6542.667
321.1790, 6479.857
321.6611, 6411.921
322.1432, 6357.473
322.6253, 6333.527
323.1075, 6313.221
323.5896, 6284.021
324.0717, 6242.068
324.5538, 6208.708
325.0359, 6193.967
325.5180, 6188.547
326.0002, 6181.200
326.4823, 6160.486
326.9644, 6146.833
327.4465, 6149.070
327.9286, 6172.815
328.4107, 6191.330
328.8929, 6199.711
329.3750, 6203.099
329.8571, 6207.920
330.3392, 6200.854
330.8213, 6208.939
331.3034, 6239.057
331.7856, 6294.896
332.2677, 6359.119
332.7498, 6431.933
333.2319, 6512.684
333.7140, 6599.915
334.1961, 6689.942
334.6783, 6791.783
335.1604, 6906.906
335.6425, 7037.073
336.1246, 7175.139
336.6067, 7315.567
337.0888, 7467.747
337.5710, 7643.886
338.0531, 7850.430
338.5352, 8067.879
339.0173, 8291.683
339.4994, 8522.134
339.9815, 8767.744
340.4637, 9028.343
340.9458, 9302.939
341.4279, 9592.290
341.9100, 9896.988
342.3921, 10218.35
342.8742, 10560.43
343.3564, 10920.32
343.8385, 11295.55
344.3206, 11672.65
344.8027, 12083.43
345.2848, 12564.37
345.7669, 13121.71
346.2491, 13695.20
346.7312, 14264.90
347.2133, 14838.09
347.6954, 15468.17
348.1775, 16170.97
348.6596, 16887.10
349.1418, 17595.76
349.6239, 18287.81
350.1060, 18924.43
350.5881, 19546.63
351.0702, 20092.39
351.5523, 20428.84
352.0345, 20557.94
352.5166, 20484.69
352.9987, 20211.06
353.4808, 19740.14
353.9629, 19083.54
354.4450, 18172.32
354.9272, 17126.62
355.4093, 16056.44
355.8914, 14964.48
356.3735, 13927.11
356.8556, 12980.12
357.3377, 12123.26
357.8199, 11343.52
358.3020, 10651.17
358.7841, 10032.38
359.2662, 9479.608
359.7483, 8990.214
360.2304, 8561.575
360.7126, 8206.551
361.1947, 7901.583
361.6768, 7618.209
362.1589, 7340.959
362.6410, 7093.201
363.1231, 6888.087
363.6053, 6722.924
364.0874, 6586.399
364.5695, 6483.524
365.0516, 6400.110
365.5337, 6325.460
366.0158, 6249.941
366.4980, 6189.805
366.9801, 6154.356
367.4622, 6139.645
367.9443, 6128.123
368.4264, 6111.638
368.9085, 6100.474
369.3907, 6100.190
369.8728, 6106.617
370.3549, 6129.666
370.8370, 6178.334
371.3191, 6246.398
371.8012, 6308.577
372.2834, 6347.952
372.7655, 6397.376
373.2476, 6471.023
373.7297, 6580.824
374.2119, 6694.726
374.6940, 6807.492
375.1761, 6925.431
375.6582, 7068.516
376.1403, 7243.431
376.6224, 7433.828
377.1046, 7633.097
377.5867, 7836.524
378.0688, 8069.131
378.5509, 8331.677
379.0330, 8625.902
379.5151, 8953.665
379.9973, 9323.170
380.4794, 9706.670
380.9615, 10103.59
381.4436, 10515.36
381.9257, 10924.83
382.4078, 11346.79
382.8900, 11736.00
383.3721, 12049.63
383.8542, 12283.88
384.3363, 12418.54
384.8184, 12486.53
385.3005, 12450.68
385.7827, 12100.88
386.2648, 11399.06
386.7469, 10669.15
387.2290, 10320.90
387.7111, 10252.87
388.1932, 10151.37
388.6754, 9848.846
389.1575, 9457.609
389.6396, 9126.175
390.1217, 8855.924
390.6038, 8626.856
391.0859, 8438.739
391.5681, 8281.613
392.0502, 8140.355
392.5323, 7984.997
393.0144, 7862.541
393.4965, 7821.575
393.9786, 7854.439
394.4608, 7893.135
394.9429, 7892.726
395.4250, 7885.704
395.9071, 7901.275
396.3892, 7955.303
396.8713, 8024.370
397.3535, 8104.454
397.8356, 8194.063
398.3177, 8286.753
398.7998, 8386.463
399.2819, 8484.441
399.7640, 8576.124
400.2462, 8673.179
400.7283, 8747.418
401.2104, 8801.383
401.6925, 8831.149
402.1746, 8825.228
402.6567, 8774.604
403.1389, 8697.604
403.6210, 8602.834
404.1031, 8500.497
404.5852, 8356.578
405.0673, 8157.708
405.5494, 7922.889
406.0316, 7689.593
406.5137, 7452.333
406.9958, 7226.092
407.4779, 7014.105
407.9600, 6814.581
408.4421, 6640.154
408.9243, 6491.504
409.4064, 6363.457
409.8885, 6256.206
410.3706, 6170.624
410.8527, 6083.357
411.3348, 5983.271
411.8170, 5875.009
412.2991, 5773.565
412.7812, 5679.191
413.2633, 5595.983
413.7454, 5531.099
414.2275, 5482.338
414.7097, 5442.904
415.1918, 5413.194
415.6739, 5389.773
416.1560, 5368.654
416.6381, 5349.687
417.1202, 5329.853
417.6024, 5294.862
418.0845, 5261.008
418.5666, 5253.969
419.0487, 5297.237
419.5308, 5343.827
420.0129, 5350.954
420.4951, 5329.525
420.9772, 5317.116
421.4593, 5340.730
421.9414, 5375.163
422.4235, 5402.931
422.9056, 5421.444
423.3878, 5432.563
423.8699, 5426.646
424.3520, 5414.477
424.8341, 5417.439
425.3162, 5454.437
425.7983, 5494.747
426.2805, 5524.724
426.7626, 5533.770
427.2447, 5562.339
427.7268, 5633.654
428.2089, 5715.908
428.6910, 5771.841
429.1732, 5784.249
429.6553, 5796.549
430.1374, 5816.493
430.6195, 5844.315
431.1016, 5881.350
431.5837, 5936.047
432.0659, 5987.271
432.5480, 6013.054
433.0301, 6008.667
433.5122, 6004.905
433.9943, 6012.823
434.4764, 6023.263
434.9586, 6000.376
435.4407, 5941.313
435.9228, 5869.714
436.4049, 5805.376
436.8870, 5744.930
437.3691, 5669.376
437.8513, 5571.700
438.3334, 5466.995
438.8155, 5371.806
439.2976, 5286.271
439.7797, 5218.185
440.2618, 5186.655
440.7440, 5168.828
441.2261, 5127.857
441.7082, 5055.451
442.1903, 4986.930
442.6724, 4950.710
443.1545, 4937.698
443.6367, 4932.203
444.1188, 4933.852
444.6009, 4936.051
445.0830, 4935.282
445.5651, 4931.354
446.0472, 4925.717
446.5294, 4914.853
447.0115, 4904.366
447.4936, 4899.346
447.9757, 4902.335
448.4578, 4909.040
448.9399, 4918.366
449.4221, 4930.558
449.9042, 4947.714
450.3863, 4979.843
450.8684, 5008.112
451.3505, 5021.474
451.8326, 5005.035
452.3148, 5004.651
452.7969, 5030.666
453.2790, 5069.033
453.7611, 5083.823
454.2432, 5067.005
454.7253, 5050.738
455.2075, 5047.271
455.6896, 5056.779
456.1717, 5078.304
456.6538, 5114.348
457.1360, 5155.639
457.6181, 5192.527
458.1002, 5224.947
458.5823, 5248.301
459.0644, 5255.474
459.5465, 5254.931
460.0287, 5266.339
460.5108, 5289.335
460.9929, 5315.715
461.4750, 5334.619
461.9571, 5352.943
462.4392, 5383.077
462.9214, 5435.824
463.4035, 5490.890
463.8856, 5531.398
464.3677, 5560.369
464.8498, 5585.575
465.3319, 5601.721
465.8141, 5621.781
466.2962, 5655.088
466.7783, 5706.267
467.2604, 5762.586
467.7425, 5826.460
468.2246, 5891.627
468.7068, 5947.237
469.1889, 5969.393
469.6710, 6003.874
470.1531, 6069.869
470.6352, 6172.788
471.1173, 6256.882
471.5995, 6315.406
472.0816, 6361.474
472.5637, 6404.975
473.0458, 6440.005
473.5279, 6489.929
474.0100, 6566.910
474.4922, 6659.416
474.9743, 6719.841
475.4564, 6743.910
475.9385, 6755.514
476.4206, 6768.031
476.9027, 6781.150
477.3849, 6792.710
477.8670, 6802.792
478.3491, 6809.975
478.8312, 6807.475
479.3133, 6798.292
479.7954, 6797.106
480.2776, 6810.348
480.7597, 6835.899
481.2418, 6870.080
481.7239, 6912.728
482.2060, 6967.958
482.6881, 7041.498
483.1703, 7128.838
483.6524, 7224.020
484.1345, 7311.229
484.6166, 7420.487
485.0987, 7570.603
485.5808, 7756.325
486.0630, 7953.300
486.5451, 8158.414
487.0272, 8367.623
487.5093, 8578.211
487.9914, 8778.723
488.4735, 8996.280
488.9557, 9223.573
489.4378, 9471.115
489.9199, 9759.926
490.4020, 10102.52
490.8841, 10459.08
491.3662, 10817.06
491.8484, 11169.57
492.3305, 11552.54
492.8126, 11960.75
493.2947, 12413.99
493.7768, 12939.22
494.2589, 13539.51
494.7411, 14183.10
495.2232, 14871.08
495.7053, 15598.52
496.1874, 16390.77
496.6695, 17240.23
497.1516, 18135.44
497.6338, 19094.47
498.1159, 20083.57
498.5980, 21091.40
499.0801, 22139.27
499.5622, 23088.31
500.0443, 23902.16
500.5265, 24543.00
501.0086, 24962.18
501.4907, 25222.51
501.9728, 25176.91
502.4549, 24699.37
502.9370, 23788.17
503.4192, 22679.89
503.9013, 21301.75
504.3834, 19842.90
504.8655, 18421.60
505.3476, 16981.80
505.8297, 15689.28
506.3119, 14540.22
506.7940, 13537.85
507.2761, 12678.15
507.7582, 11974.05
508.2403, 11392.02
508.7224, 10933.27
509.2046, 10607.64
509.6867, 10318.82
510.1688, 10059.51
510.6509, 9847.229
511.1330, 9701.849
511.6151, 9624.037
512.0973, 9602.297
512.5794, 9641.644
513.0615, 9728.424
513.5436, 9834.763
514.0258, 9961.144
514.5079, 10120.23
514.9900, 10304.32
515.4721, 10531.35
515.9542, 10832.23
516.4363, 11216.76
516.9185, 11659.54
517.4006, 12148.66
517.8827, 12682.60
518.3648, 13258.84
518.8469, 13893.98
519.3290, 14555.31
519.8112, 15215.54
520.2933, 15868.86
520.7754, 16617.30
521.2575, 17500.12
521.7396, 18465.02
522.2217, 19468.55
522.7039, 20472.34
523.1860, 21581.27
523.6681, 22812.80
524.1502, 24163.42
524.6323, 25583.51
525.1144, 27056.50
525.5966, 28670.27
526.0787, 30500.07
526.5608, 32527.29
527.0429, 34596.30
527.5250, 36693.92
528.0071, 38810.63
528.4893, 40971.47
528.9714, 43135.91
529.4535, 45131.63
529.9356, 46998.06
530.4177, 48550.88
530.8998, 49585.31
531.3820, 50088.80
531.8641, 50006.53
532.3462, 49238.05
532.8283, 47911.26
533.3104, 46073.21
533.7925, 43662.86
534.2747, 41030.26
534.7568, 38153.45
535.2389, 35198.49
535.7210, 32403.86
536.2031, 29724.77
536.6852, 27276.51
537.1674, 25062.99
537.6495, 23096.39
538.1316, 21313.64
538.6137, 19729.34
539.0958, 18326.95
539.5779, 17109.11
540.0601, 16097.86
540.5422, 15187.17
541.0243, 14385.25
541.5064, 13674.87
541.9885, 13020.70
542.4706, 12423.53
542.9528, 11884.57
543.4349, 11402.66
543.9170, 10970.93
544.3991, 10565.93
544.8812, 10184.91
545.3633, 9848.431
545.8455, 9594.685
546.3276, 9387.381
546.8097, 9174.246
547.2918, 8928.644
547.7739, 8701.571
548.2560, 8531.281
548.7382, 8400.620
549.2203, 8272.805
549.7024, 8129.576
550.1845, 7990.115
550.6666, 7857.936
551.1487, 7728.896
551.6309, 7631.870
552.1130, 7594.816
552.5951, 7566.066
553.0772, 7500.945
553.5593, 7375.375
554.0414, 7279.027
554.5236, 7229.099
555.0057, 7208.417
555.4878, 7171.781
555.9699, 7117.526
556.4520, 7067.015
556.9341, 7033.416
557.4163, 7012.790
557.8984, 6992.337
558.3805, 6972.383
558.8626, 6947.511
559.3447, 6903.093
559.8268, 6851.698
560.3090, 6816.393
560.7911, 6807.826
561.2732, 6810.909
561.7553, 6818.151
562.2374, 6829.354
562.7195, 6843.707
563.2017, 6858.490
563.6838, 6878.343
564.1659, 6903.599
564.6480, 6932.087
565.1301, 6976.556
565.6122, 7046.441
566.0944, 7126.762
566.5765, 7203.058
567.0586, 7274.900
567.5407, 7344.124
568.0228, 7403.214
568.5049, 7462.927
568.9871, 7562.019
569.4692, 7704.414
569.9513, 7846.110
570.4334, 7953.143
570.9155, 8037.304
571.3976, 8138.715
571.8798, 8257.641
572.3619, 8390.222
572.8440, 8528.572
573.3261, 8677.751
573.8082, 8843.991
574.2903, 9028.101
574.7725, 9230.660
575.2546, 9464.003
575.7367, 9717.690
576.2188, 9969.252
576.7009, 10196.34
577.1830, 10428.97
577.6652, 10690.79
578.1473, 10992.33
578.6294, 11266.04
579.1115, 11513.07
579.5936, 11732.57
580.0757, 11936.82
580.5579, 12153.54
581.0400, 12269.34
581.5221, 12263.24
582.0042, 12154.48
582.4863, 11988.63
582.9684, 11764.97
583.4506, 11488.24
583.9327, 11136.66
584.4148, 10733.43
584.8969, 10332.42
585.3790, 9932.355
585.8611, 9546.531
586.3433, 9162.142
586.8254, 8797.807
587.3075, 8478.394
587.7896, 8222.434
588.2717, 7991.735
588.7538, 7767.144
589.2360, 7553.852
589.7181, 7362.264
590.2002, 7198.807
590.6823, 7056.355
591.1644, 6940.411
591.6465, 6852.266
592.1287, 6758.400
592.6108, 6648.467
593.0929, 6546.617
593.5750, 6475.701
594.0571, 6444.460
594.5392, 6394.515
595.0214, 6316.255
595.5035, 6227.227
595.9856, 6151.222
596.4677, 6088.842
596.9498, 6044.846
597.4319, 6032.139
597.9141, 6033.552
598.3962, 6026.852
598.8783, 6011.920
599.3604, 5988.245
599.8425, 5943.458
600.3246, 5896.186
600.8068, 5865.620
601.2889, 5863.419
601.7710, 5854.607
602.2531, 5815.993
602.7352, 5768.822
603.2173, 5742.648
603.6995, 5755.983
604.1816, 5767.314
604.6637, 5769.270
605.1458, 5763.826
605.6279, 5764.917
606.1100, 5778.373
606.5922, 5780.310
607.0743, 5748.716
607.5564, 5687.830
608.0385, 5647.327
608.5206, 5630.545
609.0027, 5624.286
609.4849, 5614.908
609.9670, 5605.417
610.4491, 5604.312
610.9312, 5623.546
611.4133, 5638.617
611.8954, 5619.601
612.3776, 5580.130
612.8597, 5556.852
613.3418, 5586.224
613.8239, 5616.584
614.3060, 5620.276
614.7881, 5589.274
615.2703, 5574.824
615.7524, 5585.575
616.2345, 5606.837
616.7166, 5630.375
617.1987, 5658.622
617.6808, 5679.350
618.1630, 5691.686
618.6451, 5696.255
619.1272, 5687.199
619.6093, 5665.497
620.0914, 5660.482
620.5735, 5697.108
621.0557, 5749.482
621.5378, 5766.622
622.0199, 5752.960
622.5020, 5745.987
622.9841, 5783.356
623.4662, 5831.369
623.9484, 5857.264
624.4305, 5850.429
624.9126, 5843.896
625.3947, 5844.857
625.8768, 5853.738
626.3589, 5871.482
626.8411, 5911.590
627.3232, 5941.562
627.8053, 5953.356
628.2874, 5953.425
628.7695, 5960.514
629.2516, 5971.742
629.7338, 6001.012
630.2159, 6067.897
630.6980, 6162.678
631.1801, 6217.259
631.6622, 6229.829
632.1443, 6232.716
632.6265, 6250.279
633.1086, 6279.006
633.5907, 6314.397
634.0728, 6359.185
634.5549, 6400.932
635.0370, 6414.614
635.5192, 6422.862
636.0013, 6463.589
636.4834, 6579.618
636.9655, 6697.826
637.4476, 6791.755
637.9297, 6865.396
638.4119, 6953.495
638.8940, 7061.619
639.3761, 7176.212
639.8582, 7294.181
640.3403, 7417.285
640.8224, 7529.278
641.3046, 7626.534
641.7867, 7723.991
642.2688, 7832.060
642.7509, 7952.162
643.2330, 8097.368
643.7151, 8277.232
644.1973, 8467.316
644.6794, 8648.162
645.1615, 8819.693
645.6436, 8986.721
646.1257, 9142.781
646.6078, 9300.771
647.0900, 9467.084
647.5721, 9643.200
648.0542, 9816.312
648.5363, 9996.137
649.0184, 10162.58
649.5005, 10306.44
649.9827, 10420.52
650.4648, 10538.58
650.9469, 10672.07
651.4290, 10788.32
651.9111, 10845.49
652.3932, 10844.27
652.8754, 10805.64
653.3575, 10736.40
653.8396, 10628.17
654.3217, 10443.26
654.8038, 10201.52
655.2859, 9972.228
655.7681, 9829.301
656.2502, 9680.318
656.7323, 9448.413
657.2144, 9133.544
657.6965, 8805.271
658.1786, 8452.761
658.6608, 8120.255
659.1429, 7836.620
659.6250, 7608.660
660.1071, 7407.266
660.5892, 7237.327
661.0714, 7086.875
661.5535, 6941.647
662.0356, 6801.437
662.5178, 6672.730
662.9999, 6558.206
663.4820, 6452.370
663.9641, 6340.357
664.4462, 6225.924
664.9283, 6121.951
665.4105, 6031.008
665.8926, 5956.906
666.3747, 5911.007
666.8568, 5891.715
667.3389, 5867.280
667.8210, 5813.993
668.3032, 5758.097
668.7853, 5716.803
669.2674, 5699.646
669.7495, 5681.221
670.2316, 5664.977
670.7137, 5643.912
671.1959, 5606.001
671.6780, 5546.488
672.1601, 5498.423
672.6422, 5468.913
673.1243, 5452.020
673.6064, 5437.613
674.0886, 5425.625
674.5707, 5416.020
675.0528, 5414.941
675.5349, 5412.509
676.0170, 5396.621
676.4991, 5368.248
676.9813, 5336.472
677.4634, 5299.765
677.9455, 5265.921
678.4276, 5240.198
678.9097, 5225.644
679.3918, 5213.205
679.8740, 5202.747
680.3561, 5193.817
680.8382, 5169.314
681.3203, 5193.663
681.8024, 5209.702
682.2845, 5217.878
682.7667, 5194.645
683.2488, 5211.972
683.7309, 5213.043
684.2130, 5213.449
684.6951, 5236.485
685.1772, 5217.818
685.6594, 5240.497
686.1415, 5246.669
686.6236, 5260.396
687.1057, 5257.768
687.5878, 5260.190
688.0699, 5278.974
688.5521, 5288.700
689.0342, 5284.188
689.5163, 5298.395
689.9984, 5279.157
690.4805, 5289.268
690.9626, 5312.040
691.4448, 5308.352
691.9269, 5322.857
692.4090, 5330.434
692.8911, 5306.517
693.3732, 5337.370
693.8553, 5344.536
694.3375, 5327.383
694.8196, 5356.359
695.3017, 5342.558
695.7838, 5344.026
696.2659, 5356.984
696.7480, 5357.964
697.2302, 5377.831
697.7123, 5379.502
698.1944, 5379.548
698.6765, 5386.688
699.1586, 5399.316
699.6407, 5409.956
700.1229, 5441.131
700.6050, 5498.005
701.0871, 5542.271
701.5692, 5571.646
702.0513, 5596.045
702.5334, 5627.564
703.0156, 5663.427
703.4977, 5691.731
703.9798, 5703.927
704.4619, 5724.175
704.9440, 5780.938
705.4261, 5861.078
705.9083, 5941.135
706.3904, 6019.505
706.8725, 6088.105
707.3546, 6138.771
707.8367, 6175.817
708.3188, 6220.356
708.8010, 6264.983
709.2831, 6331.055
709.7652, 6445.530
710.2473, 6601.294
710.7294, 6668.841
711.2115, 6642.212
711.6937, 6582.487
712.1758, 6529.438
712.6579, 6480.634
713.1400, 6429.244
713.6221, 6372.792
714.1042, 6323.842
714.5864, 6304.785
715.0685, 6290.905
715.5506, 6254.762
716.0327, 6173.801
716.5148, 6090.781
716.9969, 6010.078
717.4791, 5932.768
717.9612, 5862.134
718.4433, 5798.090
718.9254, 5741.728
719.4075, 5696.052
719.8896, 5657.018
720.3718, 5615.191
720.8539, 5570.373
721.3360, 5522.631
721.8181, 5466.901
722.3002, 5411.435
722.7823, 5367.594
723.2645, 5335.336
723.7466, 5306.741
724.2287, 5280.998
724.7108, 5255.520
725.1929, 5226.651
725.6750, 5189.547
726.1572, 5167.835
726.6393, 5177.658
727.1214, 5187.553
727.6035, 5165.295
728.0856, 5100.965
728.5677, 5066.838
729.0499, 5074.326
729.5320, 5099.453
730.0141, 5111.787
730.4962, 5112.850
730.9783, 5107.180
731.4604, 5094.203
731.9426, 5077.828
732.4247, 5054.113
732.9068, 5029.313
733.3889, 5019.369
733.8710, 5024.659
734.3531, 5050.483
734.8353, 5116.447
735.3174, 5212.092
735.7995, 5269.504
736.2816, 5287.372
736.7637, 5270.167
737.2458, 5202.886
737.7280, 5094.883
738.2101, 5032.230
738.6922, 5016.226
739.1743, 5018.265
739.6564, 5021.824
740.1385, 5025.708
740.6207, 5028.651
741.1028, 5030.877
741.5849, 5030.013
742.0670, 5018.256
742.5491, 5006.086
743.0313, 5003.905
743.5134, 5020.859
743.9955, 5037.098
744.4776, 5054.175
744.9597, 5068.667
745.4418, 5073.825
745.9240, 5068.387
746.4061, 5066.768
746.8882, 5076.192
747.3703, 5085.635
747.8524, 5065.300
748.3345, 5025.193
748.8167, 5003.589
749.2988, 5043.166
749.7809, 5086.499
750.2630, 5089.098
750.7451, 5057.205
751.2272, 5035.040
751.7094, 5046.277
752.1915, 5056.158
752.6736, 5051.304
753.1557, 5031.153
753.6378, 5012.043
754.1199, 4991.781
754.6021, 4979.729
755.0842, 4988.132
755.5663, 5011.317
756.0484, 5025.116
756.5305, 5027.811
757.0126, 5024.736
757.4948, 5016.860
757.9769, 5007.399
758.4590, 4998.917
758.9411, 4988.335
759.4232, 4987.294
759.9053, 5008.866
760.3875, 5037.008
760.8696, 5053.073
761.3517, 5052.051
761.8338, 5050.194
762.3159, 5048.457
762.7980, 5047.673
763.2802, 5052.347
763.7623, 5061.162
764.2444, 5061.898
764.7265, 5044.334
765.2086, 5023.226
765.6907, 5018.869
766.1729, 5025.662
766.6550, 5027.534
767.1371, 5008.139
767.6192, 4991.694
768.1013, 4993.227
768.5834, 5011.034
769.0656, 5015.454
769.5477, 4998.933
770.0298, 4983.573
770.5119, 4980.849
770.9940, 4989.331
771.4761, 4989.268
771.9583, 4980.303
772.4404, 4971.011
772.9225, 4968.812
773.4046, 4970.105
773.8867, 4968.478
774.3688, 4962.582
774.8510, 4961.117
775.3331, 4972.765
775.8152, 4987.895
776.2973, 4999.520
776.7794, 5011.566
777.2615, 5008.303
777.7437, 4977.998
778.2258, 4947.191
778.7079, 4953.297
779.1900, 4996.564
779.6721, 5019.568
780.1542, 5010.262
780.6364, 4987.755
781.1185, 4968.986
781.6006, 4956.152
782.0827, 4953.927
782.5648, 4976.469
783.0469, 4994.394
783.5291, 4987.346
784.0112, 4966.500
784.4933, 4958.131
784.9754, 4972.828
785.4575, 4985.325
785.9396, 4992.558
786.4218, 4993.419
786.9039, 4980.240
787.3860, 4952.793
787.8681, 4929.655
788.3502, 4923.254
788.8323, 4924.146
789.3145, 4915.525
789.7966, 4899.798
790.2787, 4888.986
790.7608, 4890.931
791.2429, 4898.096
791.7250, 4910.535
792.2072, 4928.931
792.6893, 4931.130
793.1714, 4905.450
793.6535, 4881.050
794.1356, 4873.357
794.6177, 4882.135
795.0999, 4891.531
795.5820, 4901.255
796.0641, 4912.830
796.5462, 4929.977
797.0283, 4948.632
797.5104, 4963.703
797.9926, 4975.067
798.4747, 4977.887
798.9568, 4961.776
799.4389, 4941.150
799.9210, 4928.229
800.4031, 4928.364
800.8853, 4926.259
801.3674, 4918.814
801.8495, 4914.033
802.3316, 4922.136
802.8137, 4942.595
803.2958, 4966.107
803.7780, 4992.832
804.2601, 5017.106
804.7422, 5025.593
805.2243, 5028.935
805.7064, 5045.622
806.1885, 5099.537
806.6707, 5142.197
807.1528, 5144.546
807.6349, 5128.614
808.1170, 5134.818
808.5991, 5173.992
809.0812, 5210.378
809.5634, 5237.601
810.0455, 5258.678
810.5276, 5280.272
811.0097, 5301.900
811.4918, 5319.555
811.9739, 5326.494
812.4561, 5334.145
812.9382, 5357.787
813.4203, 5392.209
813.9024, 5422.065
814.3845, 5449.945
814.8666, 5464.196
815.3488, 5458.937
815.8309, 5436.915
816.3130, 5406.030
816.7951, 5360.962
817.2772, 5325.992
817.7593, 5315.920
818.2415, 5322.055
818.7236, 5317.900
819.2057, 5304.991
819.6878, 5294.511
820.1699, 5295.824
820.6520, 5300.421
821.1342, 5304.900
821.6163, 5308.451
822.0984, 5301.135
822.5805, 5263.472
823.0626, 5232.586
823.5447, 5226.763
824.0269, 5246.606
824.5090, 5246.214
824.9911, 5222.710
825.4732, 5197.267
825.9553, 5192.605
826.4375, 5195.280
826.9196, 5170.162
827.4017, 5115.355
827.8839, 5075.000
828.3660, 5094.837
828.8481, 5126.918
829.3302, 5132.969
829.8123, 5096.545
830.2944, 5077.868
830.7766, 5086.174
831.2587, 5098.955
831.7408, 5097.222
832.2229, 5081.622
832.7050, 5074.509
833.1871, 5077.772
833.6693, 5083.661
834.1514, 5084.769
834.6335, 5083.994
835.1156, 5085.353
835.5977, 5089.880
836.0798, 5095.242
836.5620, 5103.276
837.0441, 5109.942
837.5262, 5111.877
838.0083, 5108.193
838.4904, 5101.321
838.9725, 5089.286
839.4547, 5079.040
839.9368, 5080.486
840.4189, 5091.194
840.9010, 5102.183
841.3831, 5112.501
841.8652, 5120.558
842.3474, 5121.842
842.8295, 5121.541
843.3116, 5125.844
843.7937, 5139.805
844.2758, 5153.263
844.7579, 5164.641
845.2401, 5175.992
845.7222, 5190.304
846.2043, 5207.821
846.6864, 5225.136
847.1685, 5242.099
847.6506, 5257.608
848.1328, 5266.688
848.6149, 5273.655
849.0970, 5287.358
849.5791, 5316.438
850.0612, 5343.407
850.5433, 5356.707
851.0255, 5364.791
851.5076, 5381.730
851.9897, 5412.104
852.4718, 5439.820
852.9539, 5460.139
853.4360, 5480.370
853.9182, 5519.947
854.4003, 5573.188
854.8824, 5609.318
855.3645, 5611.907
855.8466, 5606.774
856.3287, 5615.594
856.8109, 5632.706
857.2930, 5648.365
857.7751, 5659.404
858.2572, 5669.266
858.7393, 5678.237
859.2214, 5686.631
859.7036, 5693.764
860.1857, 5699.211
860.6678, 5711.581
861.1499, 5736.594
861.6320, 5763.417
862.1141, 5772.957
862.5963, 5771.524
863.0784, 5773.373
863.5605, 5794.281
864.0426, 5808.704
864.5247, 5793.918
865.0068, 5768.019
865.4890, 5775.087
865.9711, 5836.841
866.4532, 5875.404
866.9353, 5870.048
867.4174, 5841.004
867.8995, 5828.340
868.3817, 5828.917
868.8638, 5829.307
869.3459, 5821.930
869.8280, 5815.272
870.3101, 5820.601
870.7922, 5830.772
871.2744, 5830.858
871.7565, 5798.388
872.2386, 5780.293
872.7207, 5785.226
873.2028, 5806.557
873.6849, 5835.130
874.1671, 5870.786
874.6492, 5890.892
875.1313, 5878.667
875.6134, 5863.034
876.0955, 5889.876
876.5776, 5941.071
877.0598, 5977.520
877.5419, 5976.174
878.0240, 5968.731
878.5061, 5960.562
878.9882, 5953.756
879.4703, 5953.229
879.9525, 5961.034
880.4346, 5965.742
880.9167, 5962.390
881.3988, 5958.900
881.8809, 5975.344
882.3630, 6003.606
882.8452, 6020.435
883.3273, 6009.869
883.8094, 5993.475
884.2915, 5979.778
884.7736, 5968.124
885.2557, 5956.504
885.7379, 5941.663
886.2200, 5932.948
886.7021, 5932.564
887.1842, 5937.489
887.6663, 5939.585
888.1484, 5940.807
888.6306, 5953.064
889.1127, 5984.899
889.5948, 6020.804
890.0769, 6049.825
890.5590, 6074.175
891.0411, 6097.529
891.5233, 6119.448
892.0054, 6142.187
892.4875, 6165.086
892.9696, 6189.947
893.4517, 6218.550
893.9338, 6250.573
894.4160, 6294.297
894.8981, 6356.501
895.3802, 6418.280
895.8623, 6456.136
896.3444, 6479.779
896.8265, 6504.803
897.3087, 6533.501
897.7908, 6567.977
898.2729, 6619.892
898.7550, 6670.898
899.2371, 6695.558
899.7192, 6689.298
900.2014, 6687.034
900.6835, 6694.124
901.1656, 6703.686
901.6477, 6709.571
902.1298, 6710.690
902.6119, 6706.253
903.0941, 6700.141
903.5762, 6678.205
904.0583, 6628.686
904.5404, 6562.471
905.0225, 6492.265
905.5046, 6414.480
905.9868, 6345.363
906.4689, 6288.499
906.9510, 6234.248
907.4331, 6166.091
907.9152, 6091.569
908.3973, 6034.257
908.8795, 6002.761
909.3616, 5963.259
909.8437, 5879.218
910.3258, 5787.406
910.8079, 5721.709
911.2900, 5695.808
911.7722, 5666.020
912.2543, 5631.250
912.7364, 5594.640
913.2185, 5557.020
913.7006, 5519.608
914.1827, 5490.796
914.6649, 5471.713
915.1470, 5447.469
915.6291, 5390.120
916.1112, 5334.651
916.5933, 5314.147
917.0754, 5343.963
917.5576, 5355.130
918.0397, 5340.105
918.5218, 5315.300
919.0039, 5286.605
919.4860, 5255.422
919.9681, 5236.268
920.4503, 5229.245
920.9324, 5228.220
921.4145, 5227.634
921.8966, 5231.945
922.3787, 5253.671
922.8608, 5293.092
923.3430, 5303.225
923.8251, 5253.770
924.3072, 5209.321
924.7893, 5198.502
925.2714, 5215.161
925.7535, 5219.947
926.2357, 5213.083
926.7178, 5200.545
927.1999, 5176.203
927.6820, 5155.284
928.1641, 5159.741
928.6462, 5182.601
929.1284, 5191.343
929.6105, 5154.807
930.0926, 5130.647
930.5747, 5138.342
931.0568, 5166.151
931.5389, 5171.334
932.0211, 5154.648
932.5032, 5142.808
932.9853, 5152.549
933.4674, 5164.566
933.9495, 5146.896
934.4316, 5115.640
934.9138, 5107.040
935.3959, 5166.736
935.8780, 5205.692
936.3601, 5201.513
936.8422, 5174.734
937.3243, 5162.536
937.8065, 5165.154
938.2886, 5167.069
938.7707, 5163.842
939.2528, 5161.039
939.7349, 5164.447
940.2170, 5172.679
940.6992, 5184.362
941.1813, 5206.733
941.6634, 5218.937
942.1455, 5211.846
942.6276, 5198.867
943.1097, 5193.002
943.5919, 5194.507
944.0740, 5196.936
944.5561, 5199.408
945.0382, 5205.067
945.5203, 5220.054
946.0024, 5238.861
946.4846, 5255.413
946.9667, 5270.272
947.4488, 5276.699
947.9309, 5263.432
948.4130, 5250.483
948.8951, 5248.876
949.3773, 5258.810
949.8594, 5276.945
950.3415, 5303.985
950.8236, 5322.830
951.3057, 5310.960
951.7878, 5289.443
952.2700, 5283.164
952.7521, 5292.878
953.2342, 5304.033
953.7163, 5313.217
954.1984, 5322.446
954.6805, 5333.640
955.1627, 5345.672
955.6448, 5348.835
956.1269, 5343.210
956.6090, 5343.057
957.0911, 5359.218
957.5732, 5381.556
958.0554, 5402.816
958.5375, 5421.404
959.0196, 5432.560
959.5017, 5428.582
959.9838, 5424.890
960.4659, 5424.965
960.9481, 5426.479
961.4302, 5421.570
961.9123, 5411.213
962.3944, 5411.308
962.8765, 5427.493
963.3586, 5452.521
963.8408, 5488.219
964.3229, 5524.602
964.8050, 5547.081
965.2871, 5535.378
965.7692, 5534.981
966.2513, 5549.723
966.7335, 5574.153
967.2156, 5603.882
967.6977, 5638.822
968.1798, 5679.508
968.6619, 5727.005
969.1440, 5767.397
969.6262, 5777.566
970.1083, 5782.768
970.5904, 5807.152
971.0725, 5857.062
971.5546, 5910.712
972.0367, 5967.226
972.5189, 6027.045
973.0010, 6092.637
973.4831, 6162.298
973.9652, 6225.855
974.4473, 6284.113
974.9294, 6339.302
975.4116, 6392.502
975.8937, 6444.536
976.3758, 6491.592
976.8579, 6536.604
977.3400, 6595.654
977.8221, 6685.822
978.3043, 6751.941
978.7864, 6774.371
979.2685, 6768.920
979.7506, 6774.161
980.2327, 6782.782
980.7148, 6769.027
981.1970, 6716.132
981.6791, 6649.232
982.1612, 6574.613
982.6433, 6497.339
983.1254, 6424.282
983.6075, 6354.298
984.0897, 6293.523
984.5718, 6243.445
985.0539, 6200.209
985.5360, 6154.860
986.0181, 6113.918
986.5002, 6096.157
986.9824, 6109.106
987.4645, 6113.717
987.9466, 6080.947
988.4287, 6042.737
988.9108, 6019.857
989.3929, 6013.289
989.8751, 6008.197
990.3572, 6003.968
990.8393, 6005.096
991.3215, 6024.195
991.8036, 6044.945
992.2857, 6041.997
992.7678, 6017.809
993.2499, 5989.619
993.7321, 5958.687
994.2142, 5930.769
994.6963, 5912.373
995.1784, 5896.479
995.6605, 5854.477
996.1426, 5787.417
996.6248, 5738.900
997.1069, 5729.609
997.5890, 5734.063
998.0711, 5735.156
998.5532, 5729.575
999.0353, 5712.143
999.5175, 5672.516
999.9996, 5632.421
1000.482, 5585.405
1000.964, 5548.621
1001.446, 5547.301
1001.928, 5574.969
1002.410, 5592.868
1002.892, 5596.822
1003.374, 5592.346
1003.857, 5571.268
1004.339, 5552.097
1004.821, 5552.254
1005.303, 5575.630
1005.785, 5594.136
1006.267, 5609.016
1006.749, 5615.396
1007.231, 5607.021
1007.713, 5590.343
1008.196, 5579.940
1008.678, 5575.566
1009.160, 5575.730
1009.642, 5578.763
1010.124, 5587.361
1010.606, 5603.028
1011.088, 5625.234
1011.570, 5658.496
1012.052, 5707.611
1012.535, 5729.688
1013.017, 5707.927
1013.499, 5681.893
1013.981, 5699.580
1014.463, 5745.885
1014.945, 5803.041
1015.427, 5879.711
1015.909, 5929.414
1016.392, 5923.589
1016.874, 5913.630
1017.356, 5938.357
1017.838, 5995.979
1018.320, 6044.825
1018.802, 6084.845
1019.284, 6133.913
1019.766, 6215.233
1020.248, 6303.231
1020.731, 6376.704
1021.213, 6435.925
1021.695, 6500.776
1022.177, 6572.713
1022.659, 6649.616
1023.141, 6733.243
1023.623, 6818.543
1024.105, 6896.628
1024.588, 6967.542
1025.070, 7028.926
1025.552, 7069.019
1026.034, 7118.524
1026.516, 7209.325
1026.998, 7305.470
1027.480, 7365.171
1027.962, 7382.177
1028.444, 7397.390
1028.927, 7414.517
1029.409, 7418.350
1029.891, 7399.480
1030.373, 7356.038
1030.855, 7275.076
1031.337, 7155.865
1031.819, 7051.468
1032.301, 6980.723
1032.783, 6919.812
1033.266, 6863.701
1033.748, 6810.190
1034.230, 6745.339
1034.712, 6672.105
1035.194, 6615.250
1035.676, 6596.535
1036.158, 6584.900
1036.640, 6556.896
1037.123, 6522.024
1037.605, 6499.353
1038.087, 6498.520
1038.569, 6483.640
1039.051, 6447.769
1039.533, 6409.077
1040.015, 6389.729
1040.497, 6383.871
1040.979, 6382.011
1041.462, 6383.055
1041.944, 6385.402
1042.426, 6386.865
1042.908, 6391.608
1043.390, 6403.729
1043.872, 6421.799
1044.354, 6432.047
1044.836, 6434.597
1045.318, 6434.416
1045.801, 6425.526
1046.283, 6423.200
1046.765, 6446.988
1047.247, 6487.545
1047.729, 6523.188
1048.211, 6556.120
1048.693, 6574.059
1049.175, 6574.324
1049.658, 6561.722
1050.140, 6537.673
1050.622, 6506.072
1051.104, 6479.014
1051.586, 6458.862
1052.068, 6437.615
1052.550, 6412.112
1053.032, 6382.958
1053.515, 6349.094
1053.997, 6310.888
1054.479, 6279.232
1054.961, 6254.498
1055.443, 6236.099
1055.925, 6228.946
1056.407, 6223.601
1056.889, 6209.921
1057.371, 6189.513
1057.854, 6166.404
1058.336, 6140.629
1058.818, 6112.010
1059.300, 6077.115
1059.782, 6044.245
1060.264, 6026.991
1060.746, 6021.598
1061.228, 6016.488
1061.710, 6010.025
1062.193, 6001.906
1062.675, 5989.890
1063.157, 5978.018
1063.639, 5969.254
1064.121, 5963.644
1064.603, 5957.559
1065.085, 5951.120
1065.567, 5944.307
1066.050, 5937.180
1066.532, 5929.755
1067.014, 5917.817
1067.496, 5905.939
1067.978, 5904.748
1068.460, 5929.897
1068.942, 5945.328
1069.424, 5944.252
1069.906, 5938.604
1070.389, 5947.490
1070.871, 5964.250
1071.353, 5963.904
1071.835, 5941.600
1072.317, 5926.746
1072.799, 5953.244
1073.281, 5975.745
1073.763, 5961.019
1074.246, 5914.628
1074.728, 5899.181
1075.210, 5916.295
1075.692, 5929.233
1076.174, 5914.938
1076.656, 5896.129
1077.138, 5898.438
1077.620, 5914.216
1078.103, 5929.712
1078.585, 5947.766
1079.067, 5953.724
1079.549, 5941.396
1080.031, 5927.854
1080.513, 5936.550
1080.995, 5957.966
1081.477, 5965.576
1081.959, 5957.281
1082.442, 5950.652
1082.924, 5955.219
1083.406, 5963.139
1083.888, 5970.189
1084.370, 5977.798
1084.852, 5994.381
1085.334, 6019.531
1085.816, 6040.711
1086.298, 6053.211
1086.781, 6060.186
1087.263, 6055.730
1087.745, 6051.037
1088.227, 6063.199
1088.709, 6102.686
1089.191, 6135.590
1089.673, 6158.987
1090.155, 6184.391
1090.638, 6221.793
1091.120, 6268.002
1091.602, 6322.160
1092.084, 6381.597
1092.566, 6428.027
1093.048, 6431.187
1093.530, 6449.837
1094.012, 6502.929
1094.495, 6578.113
1094.977, 6654.298
1095.459, 6729.182
1095.941, 6781.115
1096.423, 6795.698
1096.905, 6820.562
1097.387, 6901.947
1097.869, 6999.241
1098.351, 7074.379
1098.833, 7122.618
1099.316, 7183.851
1099.798, 7259.685
1100.280, 7338.403
1100.762, 7421.481
1101.244, 7497.721
1101.726, 7546.439
1102.208, 7576.980
1102.690, 7617.891
1103.173, 7705.527
1103.655, 7748.931
1104.137, 7728.215
1104.619, 7679.215
1105.101, 7647.592
1105.583, 7626.247
1106.065, 7594.646
1106.547, 7549.308
1107.030, 7506.586
1107.512, 7473.723
1107.994, 7445.280
1108.476, 7417.247
1108.958, 7391.161
1109.440, 7377.950
1109.922, 7376.134
1110.404, 7365.617
1110.886, 7328.214
1111.369, 7294.905
1111.851, 7292.295
1112.333, 7306.399
1112.815, 7319.635
1113.297, 7336.124
1113.779, 7332.579
1114.261, 7306.126
1114.743, 7274.170
1115.225, 7252.347
1115.708, 7233.437
1116.190, 7211.974
1116.672, 7186.179
1117.154, 7146.576
1117.636, 7081.395
1118.118, 7019.281
1118.600, 6964.750
1119.082, 6918.174
1119.565, 6883.137
1120.047, 6857.261
1120.529, 6832.776
1121.011, 6805.438
1121.493, 6790.866
1121.975, 6803.231
1122.457, 6823.647
1122.939, 6842.540
1123.422, 6860.181
1123.904, 6880.001
1124.386, 6901.596
1124.868, 6919.835
1125.350, 6920.937
1125.832, 6929.790
1126.314, 6971.142
1126.796, 7026.979
1127.278, 7065.945
1127.760, 7084.826
1128.243, 7098.290
1128.725, 7105.514
1129.207, 7120.400
1129.689, 7169.787
1130.171, 7224.199
1130.653, 7245.599
1131.135, 7234.696
1131.617, 7244.306
1132.100, 7299.197
1132.582, 7322.455
1133.064, 7284.813
1133.546, 7221.186
1134.028, 7189.669
1134.510, 7177.087
1134.992, 7156.745
1135.474, 7118.227
1135.957, 7084.574
1136.439, 7070.506
1136.921, 7048.193
1137.403, 6997.590
1137.885, 6924.943
1138.367, 6855.648
1138.849, 6792.851
1139.331, 6749.794
1139.813, 6754.457
1140.296, 6756.571
1140.778, 6735.555
1141.260, 6700.179
1141.742, 6657.036
1142.224, 6605.589
1142.706, 6567.831
1143.188, 6546.315
1143.670, 6523.187
1144.152, 6474.998
1144.635, 6427.800
1145.117, 6403.276
1145.599, 6399.320
1146.081, 6394.544
1146.563, 6390.200
1147.045, 6375.897
1147.527, 6345.024
1148.009, 6313.755
1148.492, 6308.297
1148.974, 6310.537
1149.456, 6293.530
1149.938, 6240.546
1150.420, 6215.535
1150.902, 6228.057
1151.384, 6243.778
1151.866, 6247.730
1152.349, 6239.018
1152.831, 6206.456
1153.313, 6159.803
1153.795, 6125.092
1154.277, 6124.664
1154.759, 6118.324
1155.241, 6097.316
1155.723, 6076.857
1156.205, 6077.817
1156.688, 6092.492
1157.170, 6092.977
1157.652, 6078.896
1158.134, 6067.872
1158.616, 6077.203
1159.098, 6080.465
1159.580, 6066.691
1160.062, 6042.441
1160.544, 6020.295
1161.027, 6000.636
1161.509, 5988.896
1161.991, 5987.671
1162.473, 5985.217
1162.955, 5966.557
1163.437, 5950.527
1163.919, 5955.395
1164.401, 5978.585
1164.884, 5974.809
1165.366, 5944.697
1165.848, 5920.885
1166.330, 5923.649
1166.812, 5928.893
1167.294, 5909.641
1167.776, 5884.407
1168.258, 5881.739
1168.740, 5913.889
1169.223, 5922.349
1169.705, 5904.541
1170.187, 5883.067
1170.669, 5871.272
1171.151, 5867.053
1171.633, 5876.510
1172.115, 5892.355
1172.597, 5884.935
1173.079, 5834.958
1173.562, 5814.721
1174.044, 5839.880
1174.526, 5873.806
1175.008, 5870.578
1175.490, 5851.100
1175.972, 5846.823
1176.454, 5861.057
1176.936, 5867.870
1177.419, 5861.024
1177.901, 5853.348
1178.383, 5847.677
1178.865, 5844.933
1179.347, 5850.396
1179.829, 5859.165
1180.311, 5859.385
1180.793, 5842.015
1181.276, 5839.107
1181.758, 5865.925
1182.240, 5891.883
1182.722, 5899.356
1183.204, 5893.564
1183.686, 5889.563
1184.168, 5887.728
1184.650, 5889.658
1185.132, 5907.883
1185.615, 5912.598
1186.097, 5888.156
1186.579, 5859.080
1187.061, 5846.124
1187.543, 5848.421
1188.025, 5867.037
1188.507, 5899.645
1188.989, 5925.378
1189.471, 5932.776
1189.954, 5930.930
1190.436, 5922.717
1190.918, 5908.484
1191.400, 5883.000
1191.882, 5849.283
1192.364, 5833.494
1192.846, 5839.820
1193.328, 5854.373
1193.811, 5879.526
1194.293, 5898.438
1194.775, 5899.728
1195.257, 5887.111
1195.739, 5870.840
1196.221, 5851.518
1196.703, 5838.923
1197.185, 5835.705
1197.667, 5840.236
1198.150, 5858.307
1198.632, 5878.438
1199.114, 5892.710
1199.596, 5901.172
1200.078, 5892.733
1200.560, 5867.536
1201.042, 5847.538
1201.524, 5847.476
1202.006, 5850.889
1202.489, 5840.539
1202.971, 5828.554
1203.453, 5833.440
1203.935, 5861.215
1204.417, 5873.695
1204.899, 5869.642
1205.381, 5863.829
1205.863, 5868.296
1206.346, 5873.961
1206.828, 5872.467
1207.310, 5866.110
1207.792, 5860.893
1208.274, 5855.760
1208.756, 5859.978
1209.238, 5876.391
1209.720, 5887.879
1210.203, 5864.026
1210.685, 5838.868
1211.167, 5854.643
1211.649, 5905.276
1212.131, 5922.283
1212.613, 5898.312
1213.095, 5871.358
1213.577, 5846.612
1214.059, 5831.533
1214.542, 5840.594
1215.024, 5859.792
1215.506, 5875.412
1215.988, 5885.584
1216.470, 5890.333
1216.952, 5889.226
1217.434, 5885.150
1217.916, 5878.638
1218.398, 5870.815
1218.881, 5858.197
1219.363, 5847.515
1219.845, 5849.322
1220.327, 5869.243
1220.809, 5886.672
1221.291, 5902.333
1221.773, 5911.181
1222.255, 5906.877
1222.738, 5897.576
1223.220, 5893.320
1223.702, 5892.262
1224.184, 5890.975
1224.666, 5889.802
1225.148, 5883.805
1225.630, 5869.693
1226.112, 5865.599
1226.594, 5899.519
1227.077, 5942.431
1227.559, 5956.703
1228.041, 5947.811
1228.523, 5935.263
1229.005, 5917.616
1229.487, 5908.274
1229.969, 5909.780
1230.451, 5914.294
1230.933, 5915.026
1231.416, 5913.125
1231.898, 5907.846
1232.380, 5900.342
1232.862, 5899.450
1233.344, 5907.746
1233.826, 5915.242
1234.308, 5919.645
1234.790, 5924.038
1235.273, 5936.721
1235.755, 5948.840
1236.237, 5944.980
1236.719, 5923.155
1237.201, 5924.157
1237.683, 5958.842
1238.165, 5976.261
1238.647, 5953.754
1239.130, 5924.057
1239.612, 5936.328
1240.094, 5964.676
1240.576, 5975.139
1241.058, 5958.129
1241.540, 5946.088
1242.022, 5938.485
1242.504, 5940.055
1242.986, 5960.635
1243.469, 5979.645
1243.951, 5956.918
1244.433, 5921.395
1244.915, 5920.285
1245.397, 5973.038
1245.879, 6007.954
1246.361, 6023.680
1246.843, 6029.916
1247.326, 6033.066
1247.808, 6029.177
1248.290, 6006.257
1248.772, 5975.089
1249.254, 5958.234
1249.736, 5959.731
1250.218, 5966.618
1250.700, 5980.167
1251.182, 5985.849
1251.665, 5960.147
1252.147, 5932.259
1252.629, 5932.563
1253.111, 5952.492
1253.593, 5967.833
1254.075, 5977.082
1254.557, 5984.601
1255.039, 5990.587
1255.521, 5996.456
1256.004, 6006.874
1256.486, 6014.605
1256.968, 6008.961
1257.450, 5995.947
1257.932, 5997.713
1258.414, 6016.592
1258.896, 6025.882
1259.378, 6020.759
1259.861, 6014.619
1260.343, 6023.014
1260.825, 6031.574
1261.307, 6026.428
1261.789, 6012.027
1262.271, 6003.975
1262.753, 6002.260
1263.235, 6003.219
1263.718, 6006.431
1264.200, 6009.948
1264.682, 6012.413
1265.164, 6014.476
1265.646, 6015.965
1266.128, 6017.485
1266.610, 6023.872
1267.092, 6034.176
1267.574, 6037.688
1268.057, 6029.113
1268.539, 6021.171
1269.021, 6021.239
1269.503, 6025.255
1269.985, 6031.066
1270.467, 6037.953
1270.949, 6042.181
1271.431, 6043.973
1271.913, 6046.187
1272.396, 6054.926
1272.878, 6052.244
1273.360, 6011.083
1273.842, 5975.786
1274.324, 5980.840
1274.806, 6013.220
1275.288, 6004.350
1275.770, 5967.331
1276.253, 5950.412
1276.735, 5991.160
1277.217, 6023.604
1277.699, 6034.232
1278.181, 6032.799
1278.663, 6019.731
1279.145, 6001.501
1279.627, 6001.630
1280.109, 6015.515
1280.592, 6027.639
1281.074, 6035.242
1281.556, 6033.428
1282.038, 6015.331
1282.520, 6002.521
1283.002, 6024.320
1283.484, 6059.494
1283.966, 6061.094
1284.448, 6037.928
1284.931, 6025.440
1285.413, 6039.389
1285.895, 6051.434
1286.377, 6059.443
1286.859, 6066.383
1287.341, 6081.176
1287.823, 6092.547
1288.305, 6077.839
1288.788, 6045.016
1289.270, 6031.284
1289.752, 6045.150
1290.234, 6055.007
1290.716, 6057.410
##END=



