##NAMES=Spangolite
##RRUFFID=R080023
##IDEAL CHEMISTRY=Cu^2+^_6_AlS^6+^O_4_(OH)_12_Cl&#183;3H_2_O
##LOCALITY=Mex-Tex mine, Hansonberg Mining District, Bingham, Socorro County, New Mexico, USA
##OWNER=RRUFF
##SOURCE=William W. Pinch
##DESCRIPTION=Deep bluish green doubly terminated and pyramidal crystals associated with quartz
##STATUS=The identification of this mineral has been confirmed by single-crystal X-ray diffraction.
##URL=rruff.info/R080023
94.51007, 0.0000000E+00
94.99219, 74.99443
95.47430, 72.75536
95.95642, 74.07970
96.43854, 78.15518
96.92065, 82.61140
97.40277, 84.49200
97.88489, 83.05952
98.36700, 81.49782
98.84912, 79.56810
99.33124, 77.66245
99.81335, 76.27995
100.2955, 75.57804
100.7776, 74.98664
101.2597, 73.22948
101.7418, 69.50986
102.2239, 66.70030
102.7061, 66.29143
103.1882, 67.34639
103.6703, 67.41547
104.1524, 65.04408
104.6345, 61.69957
105.1166, 59.89578
105.5988, 60.01697
106.0809, 60.72936
106.5630, 61.20599
107.0451, 61.57982
107.5272, 60.89125
108.0093, 56.88486
108.4915, 52.34367
108.9736, 49.91796
109.4557, 50.89561
109.9378, 54.14298
110.4199, 56.58378
110.9020, 57.85731
111.3842, 58.73386
111.8663, 59.33181
112.3484, 59.72092
112.8305, 60.03184
113.3126, 60.41687
113.7947, 60.90057
114.2769, 60.44439
114.7590, 57.91787
115.2411, 55.59116
115.7232, 54.02374
116.2053, 53.33941
116.6874, 53.59982
117.1696, 55.02842
117.6517, 58.10505
118.1338, 60.19246
118.6159, 60.77112
119.0980, 60.73137
119.5801, 60.87675
120.0623, 61.39771
120.5444, 61.82051
121.0265, 61.31174
121.5086, 59.87172
121.9907, 58.53098
122.4728, 57.36968
122.9550, 56.51180
123.4371, 56.45515
123.9192, 57.95643
124.4013, 59.48095
124.8834, 59.10505
125.3655, 56.71981
125.8476, 54.40404
126.3298, 54.15126
126.8119, 56.17212
127.2940, 57.68003
127.7761, 57.24946
128.2582, 56.43779
128.7404, 56.17421
129.2225, 56.70623
129.7046, 57.60741
130.1867, 58.22905
130.6688, 58.71537
131.1509, 58.54881
131.6331, 57.15947
132.1152, 55.43421
132.5973, 54.29685
133.0794, 54.21463
133.5615, 54.82332
134.0436, 54.59738
134.5258, 51.64513
135.0079, 49.87543
135.4900, 50.75293
135.9721, 53.12379
136.4542, 55.00563
136.9363, 55.08525
137.4185, 53.45501
137.9006, 51.94013
138.3827, 50.22475
138.8648, 48.85716
139.3469, 48.21247
139.8290, 48.22903
140.3112, 48.48460
140.7933, 48.80375
141.2754, 49.10252
141.7575, 48.92279
142.2396, 47.28774
142.7217, 45.63597
143.2039, 45.98571
143.6860, 48.94030
144.1681, 51.68909
144.6502, 51.10945
145.1323, 48.45980
145.6144, 46.41416
146.0966, 46.80962
146.5787, 48.72942
147.0608, 49.04060
147.5429, 46.14525
148.0250, 43.68779
148.5071, 44.25535
148.9893, 47.00467
149.4714, 49.53565
149.9535, 49.56829
150.4356, 46.83373
150.9177, 45.19293
151.3998, 46.10199
151.8820, 47.03014
152.3641, 46.79209
152.8462, 45.51529
153.3283, 44.26306
153.8104, 44.32885
154.2925, 46.29714
154.7747, 48.00626
155.2568, 50.06667
155.7389, 51.52684
156.2210, 51.40594
156.7031, 49.67390
157.1852, 47.40231
157.6673, 46.25479
158.1495, 46.93325
158.6316, 47.73856
159.1137, 49.27288
159.5958, 50.67423
160.0779, 50.68677
160.5600, 48.81796
161.0422, 46.38562
161.5243, 46.41571
162.0064, 50.28311
162.4885, 53.06342
162.9706, 52.93673
163.4527, 51.01941
163.9349, 49.44749
164.4170, 49.00164
164.8991, 49.37267
165.3812, 50.13465
165.8633, 51.73533
166.3454, 52.51033
166.8276, 50.72708
167.3097, 46.80424
167.7918, 43.94995
168.2739, 44.10140
168.7560, 45.50418
169.2381, 46.06262
169.7203, 45.49725
170.2024, 44.37270
170.6845, 42.94775
171.1666, 41.04451
171.6487, 39.93517
172.1308, 41.45042
172.6130, 43.27460
173.0951, 43.34510
173.5772, 40.85632
174.0593, 37.38216
174.5414, 35.70365
175.0235, 36.51508
175.5057, 37.83101
175.9878, 39.85908
176.4699, 41.80994
176.9520, 42.87318
177.4341, 42.64427
177.9162, 41.51883
178.3984, 40.69653
178.8805, 40.11068
179.3626, 39.99724
179.8447, 40.57157
180.3268, 41.55090
180.8089, 42.78653
181.2911, 44.24625
181.7732, 45.69286
182.2553, 45.71447
182.7374, 42.76918
183.2195, 40.10159
183.7016, 37.95234
184.1838, 36.52478
184.6659, 36.27648
185.1480, 37.66024
185.6301, 40.41633
186.1122, 41.82500
186.5943, 41.27897
187.0765, 40.35933
187.5586, 39.54371
188.0407, 38.83488
188.5228, 38.11710
189.0049, 37.26709
189.4870, 36.36294
189.9692, 35.78563
190.4513, 35.66010
190.9334, 35.73211
191.4155, 36.02024
191.8976, 36.48799
192.3797, 36.62397
192.8619, 35.73402
193.3440, 34.30256
193.8261, 33.70041
194.3082, 34.60346
194.7903, 36.04169
195.2724, 37.15192
195.7546, 37.96131
196.2367, 38.26472
196.7188, 37.05843
197.2009, 35.40427
197.6830, 34.88876
198.1651, 36.78878
198.6473, 39.53881
199.1294, 40.09113
199.6115, 37.33276
200.0936, 35.16671
200.5757, 35.94262
201.0578, 38.19396
201.5400, 40.16399
202.0221, 41.00988
202.5042, 41.05390
202.9863, 41.34300
203.4684, 42.49537
203.9505, 42.79324
204.4327, 40.84330
204.9148, 38.02739
205.3969, 36.34591
205.8790, 37.12263
206.3611, 39.76236
206.8432, 41.23519
207.3254, 40.66895
207.8075, 39.83886
208.2896, 39.09363
208.7717, 38.36726
209.2538, 37.43643
209.7359, 36.10448
210.2181, 34.48247
210.7002, 33.66025
211.1823, 33.91743
211.6644, 34.75999
212.1465, 36.49281
212.6286, 38.72931
213.1108, 41.08404
213.5929, 43.44259
214.0750, 45.65661
214.5571, 45.38109
215.0392, 39.19823
215.5213, 34.38140
216.0035, 33.91245
216.4856, 36.45327
216.9677, 38.89091
217.4498, 39.12704
217.9319, 37.36993
218.4140, 36.55352
218.8962, 36.80932
219.3783, 37.62228
219.8604, 39.31679
220.3425, 41.51546
220.8246, 43.13833
221.3067, 43.39800
221.7889, 42.47936
222.2710, 41.93621
222.7531, 41.69846
223.2352, 41.83738
223.7173, 42.98828
224.1994, 44.80524
224.6816, 45.54315
225.1637, 43.64640
225.6458, 39.96595
226.1279, 38.01079
226.6100, 39.27325
227.0921, 40.74921
227.5743, 40.02630
228.0564, 37.34760
228.5385, 35.18607
229.0206, 34.82513
229.5027, 36.01176
229.9848, 38.08229
230.4670, 42.23273
230.9491, 45.62794
231.4312, 45.08625
231.9133, 40.58001
232.3954, 36.51152
232.8775, 34.97390
233.3597, 35.11823
233.8418, 36.03740
234.3239, 38.08315
234.8060, 39.91143
235.2881, 39.73257
235.7702, 37.28674
236.2524, 35.29250
236.7345, 35.64074
237.2166, 36.49829
237.6987, 35.87309
238.1808, 33.00364
238.6629, 30.22420
239.1451, 30.98508
239.6272, 36.14992
240.1093, 40.22931
240.5914, 41.64041
241.0735, 41.26194
241.5556, 38.71899
242.0378, 33.84517
242.5199, 29.05637
243.0020, 27.77043
243.4841, 30.96038
243.9662, 34.14180
244.4483, 36.84335
244.9305, 39.04823
245.4126, 41.03969
245.8947, 42.79166
246.3768, 43.48888
246.8589, 41.40592
247.3410, 34.97926
247.8232, 30.72058
248.3053, 29.83167
248.7874, 30.64868
249.2695, 33.12073
249.7516, 36.84455
250.2337, 40.20415
250.7159, 40.67625
251.1980, 36.64218
251.6801, 34.11948
252.1622, 33.69907
252.6443, 34.22338
253.1264, 35.37621
253.6086, 36.94110
254.0907, 38.53566
254.5728, 39.67093
255.0549, 40.21516
255.5370, 40.68847
256.0191, 41.90438
256.5013, 42.43165
256.9834, 40.61396
257.4655, 36.87294
257.9476, 33.57336
258.4297, 33.53243
258.9118, 37.96729
259.3940, 40.69686
259.8761, 41.12518
260.3582, 40.76363
260.8403, 40.32372
261.3224, 39.84329
261.8045, 38.86926
262.2867, 36.72855
262.7688, 32.90932
263.2509, 31.70153
263.7330, 35.77329
264.2151, 39.41663
264.6972, 39.46317
265.1794, 36.47026
265.6615, 33.19063
266.1436, 31.92103
266.6257, 32.77226
267.1078, 33.04334
267.5899, 31.51159
268.0721, 30.70544
268.5542, 32.33865
269.0363, 35.72990
269.5184, 38.87648
270.0005, 40.37432
270.4826, 40.32205
270.9648, 40.16228
271.4469, 40.42529
271.9290, 40.07470
272.4111, 37.87366
272.8932, 34.69238
273.3753, 32.71688
273.8575, 33.40679
274.3396, 36.15273
274.8217, 37.77920
275.3038, 38.59953
275.7859, 38.27723
276.2680, 35.51257
276.7502, 31.55355
277.2323, 29.12240
277.7144, 29.68974
278.1965, 32.19521
278.6786, 33.47189
279.1607, 32.84039
279.6429, 32.50159
280.1250, 33.38830
280.6071, 34.92971
281.0892, 36.08161
281.5713, 36.44857
282.0534, 36.33961
282.5356, 36.43109
283.0177, 37.01415
283.4998, 36.89715
283.9819, 35.09850
284.4640, 32.59377
284.9461, 30.98394
285.4283, 30.78411
285.9104, 31.11051
286.3925, 30.59536
286.8746, 29.11942
287.3567, 28.16140
287.8388, 28.18286
288.3210, 28.81932
288.8031, 29.72505
289.2852, 30.88185
289.7673, 31.99625
290.2494, 32.85499
290.7315, 33.45560
291.2137, 33.43920
291.6958, 32.10372
292.1779, 30.46754
292.6600, 29.55593
293.1421, 29.46746
293.6242, 30.02363
294.1064, 31.46464
294.5885, 33.54064
295.0706, 34.88895
295.5527, 34.69498
296.0348, 34.19539
296.5169, 34.71171
296.9991, 36.20894
297.4812, 37.22031
297.9633, 36.42947
298.4454, 34.53680
298.9275, 33.83120
299.4096, 35.57398
299.8918, 37.18242
300.3739, 36.21225
300.8560, 33.09705
301.3381, 30.98000
301.8202, 31.62374
302.3023, 33.91106
302.7845, 35.51066
303.2666, 36.45512
303.7487, 36.65583
304.2308, 35.44787
304.7129, 33.31349
305.1950, 31.98891
305.6772, 32.15905
306.1593, 33.23310
306.6414, 34.71881
307.1235, 36.84165
307.6056, 37.75879
308.0877, 35.62194
308.5699, 31.75821
309.0520, 29.32330
309.5341, 29.21738
310.0162, 30.02423
310.4983, 30.29318
310.9804, 30.10783
311.4626, 29.86594
311.9447, 29.52180
312.4268, 29.25425
312.9089, 29.47489
313.3910, 30.33987
313.8731, 31.09377
314.3553, 30.80964
314.8374, 29.85100
315.3195, 29.39917
315.8016, 30.23237
316.2837, 31.35842
316.7658, 31.38227
317.2480, 30.23330
317.7301, 29.75517
318.2122, 31.82345
318.6943, 35.16652
319.1764, 36.67667
319.6585, 35.30268
320.1407, 33.08447
320.6228, 31.34826
321.1049, 30.06506
321.5870, 28.92005
322.0691, 27.47115
322.5512, 26.43556
323.0334, 27.05358
323.5155, 29.77299
323.9976, 32.62912
324.4797, 34.99779
324.9618, 36.73115
325.4439, 37.10909
325.9261, 35.43911
326.4082, 33.28864
326.8903, 33.05337
327.3724, 34.73508
327.8545, 35.71722
328.3366, 34.30354
328.8188, 31.81793
329.3009, 30.65258
329.7830, 31.39527
330.2651, 32.35349
330.7472, 31.59901
331.2293, 29.49405
331.7115, 28.02987
332.1936, 27.71122
332.6757, 28.11426
333.1578, 29.10699
333.6399, 30.67489
334.1220, 31.86386
334.6042, 31.88020
335.0863, 31.00324
335.5684, 30.44713
336.0505, 30.10612
336.5326, 30.23433
337.0147, 31.60417
337.4969, 33.81292
337.9790, 34.86099
338.4611, 33.42397
338.9432, 30.72280
339.4253, 29.49439
339.9074, 30.10091
340.3896, 30.98909
340.8717, 32.07761
341.3538, 32.96861
341.8359, 32.57663
342.3180, 30.33146
342.8001, 27.69275
343.2823, 27.00404
343.7644, 28.46206
344.2465, 29.31571
344.7286, 27.99773
345.2107, 26.35956
345.6928, 26.76576
346.1750, 29.52682
346.6571, 32.74514
347.1392, 34.93467
347.6213, 35.95839
348.1034, 36.03974
348.5855, 34.03033
349.0677, 32.03955
349.5498, 31.70902
350.0319, 32.75646
350.5140, 33.58465
350.9961, 33.11552
351.4782, 31.75107
351.9604, 31.41864
352.4425, 33.26665
352.9246, 34.57707
353.4067, 34.29713
353.8888, 32.95347
354.3709, 31.30670
354.8531, 29.57659
355.3352, 28.07917
355.8173, 27.46178
356.2994, 27.97809
356.7815, 28.78917
357.2636, 30.35801
357.7458, 31.89775
358.2279, 32.64807
358.7100, 32.48055
359.1921, 31.65802
359.6742, 30.25499
360.1563, 27.95672
360.6385, 27.34320
361.1206, 29.86930
361.6027, 32.57519
362.0848, 34.50488
362.5669, 35.30791
363.0490, 34.10396
363.5312, 29.88591
364.0133, 23.35905
364.4954, 20.48616
364.9775, 24.64883
365.4596, 28.21801
365.9417, 29.49806
366.4239, 29.36507
366.9060, 28.98811
367.3881, 28.84605
367.8702, 28.84913
368.3523, 28.78773
368.8344, 28.26469
369.3166, 28.37750
369.7987, 29.43050
370.2808, 30.84868
370.7629, 32.62299
371.2450, 34.51114
371.7271, 35.67700
372.2093, 35.06066
372.6914, 32.27206
373.1735, 30.19241
373.6556, 28.21978
374.1377, 27.50413
374.6198, 29.50531
375.1020, 33.07657
375.5841, 35.83210
376.0662, 36.14282
376.5483, 34.62840
377.0304, 34.34033
377.5125, 37.16145
377.9947, 38.43969
378.4768, 36.12652
378.9589, 32.69285
379.4410, 30.58451
379.9231, 30.60619
380.4052, 31.85398
380.8874, 33.21531
381.3695, 35.06853
381.8516, 35.74037
382.3337, 33.51370
382.8158, 31.38521
383.2979, 31.29064
383.7801, 32.94561
384.2622, 34.44585
384.7443, 33.65817
385.2264, 30.92320
385.7085, 30.83227
386.1906, 36.26004
386.6728, 40.14927
387.1549, 38.58822
387.6370, 34.15919
388.1191, 30.63940
388.6012, 29.51659
389.0833, 30.31573
389.5655, 32.99895
390.0476, 38.42963
390.5297, 41.76240
391.0118, 39.18996
391.4939, 35.19886
391.9760, 33.51125
392.4582, 34.66748
392.9403, 36.11533
393.4224, 35.49615
393.9045, 33.21302
394.3866, 31.69120
394.8687, 31.15336
395.3509, 31.67456
395.8330, 33.83685
396.3151, 37.14153
396.7972, 39.95499
397.2793, 41.76690
397.7614, 42.68847
398.2436, 42.82262
398.7257, 42.15735
399.2078, 40.85732
399.6899, 38.50478
400.1720, 35.78220
400.6541, 33.97847
401.1363, 32.88659
401.6184, 33.22156
402.1005, 37.02862
402.5826, 42.71126
403.0647, 45.40585
403.5468, 43.06106
404.0290, 38.81669
404.5111, 37.24084
404.9932, 38.51894
405.4753, 39.43565
405.9574, 39.14632
406.4395, 38.41132
406.9217, 37.80927
407.4038, 37.43335
407.8859, 37.47145
408.3680, 38.23532
408.8501, 39.60442
409.3322, 40.06116
409.8144, 38.36722
410.2965, 37.27526
410.7786, 38.32479
411.2607, 40.53088
411.7428, 42.23004
412.2249, 42.73565
412.7071, 42.35790
413.1892, 41.66659
413.6713, 40.42297
414.1534, 39.27863
414.6355, 38.49828
415.1176, 37.61994
415.5998, 36.04872
416.0819, 33.92741
416.5640, 32.06829
417.0461, 31.20005
417.5282, 31.32899
418.0103, 31.88286
418.4925, 32.94192
418.9746, 34.36573
419.4567, 37.11019
419.9388, 39.91195
420.4209, 40.90355
420.9030, 39.21105
421.3852, 36.00699
421.8673, 33.55630
422.3494, 31.78405
422.8315, 30.98880
423.3136, 31.74357
423.7957, 32.98505
424.2779, 34.44173
424.7600, 35.89434
425.2421, 36.78328
425.7242, 36.43383
426.2063, 34.98646
426.6884, 33.80962
427.1706, 32.97441
427.6527, 32.30981
428.1348, 31.65179
428.6169, 31.11344
429.0990, 30.82272
429.5811, 30.76403
430.0633, 31.11480
430.5454, 32.52299
431.0275, 35.03097
431.5096, 36.44489
431.9917, 35.40213
432.4738, 33.73919
432.9560, 33.27395
433.4381, 34.00016
433.9202, 35.46142
434.4023, 38.61311
434.8844, 42.01560
435.3665, 42.74716
435.8487, 40.33775
436.3308, 37.19430
436.8129, 34.40541
437.2950, 32.35942
437.7771, 32.18356
438.2592, 35.67927
438.7414, 39.13749
439.2235, 40.76011
439.7056, 40.81700
440.1877, 39.68030
440.6698, 37.30952
441.1519, 34.57979
441.6341, 32.81926
442.1162, 32.06295
442.5983, 32.35470
443.0804, 35.01994
443.5625, 37.74482
444.0446, 38.73692
444.5268, 38.03702
445.0089, 36.72250
445.4910, 35.51687
445.9731, 34.44857
446.4552, 33.77794
446.9373, 33.70004
447.4195, 33.79031
447.9016, 34.30432
448.3837, 34.81305
448.8658, 34.74352
449.3479, 33.96420
449.8300, 32.95667
450.3122, 32.35526
450.7943, 32.14006
451.2764, 32.41394
451.7585, 33.80998
452.2406, 35.11057
452.7227, 35.61367
453.2049, 35.64502
453.6870, 36.09743
454.1691, 37.73148
454.6512, 39.79317
455.1333, 40.10122
455.6154, 37.90444
456.0976, 36.20114
456.5797, 36.31396
457.0618, 37.08090
457.5439, 37.92991
458.0260, 38.76131
458.5081, 38.94465
458.9903, 37.33242
459.4724, 34.59584
459.9545, 33.45182
460.4366, 34.78698
460.9187, 36.02198
461.4008, 34.21174
461.8830, 30.78336
462.3651, 29.40606
462.8472, 32.66841
463.3293, 36.08899
463.8114, 35.70832
464.2935, 32.51904
464.7756, 29.99529
465.2578, 29.30590
465.7399, 30.12695
466.2220, 32.35725
466.7041, 36.66872
467.1862, 39.55992
467.6683, 40.40405
468.1505, 39.85388
468.6326, 37.53370
469.1147, 34.01731
469.5968, 31.56695
470.0789, 31.94198
470.5610, 34.61999
471.0432, 36.07525
471.5253, 35.19957
472.0074, 34.44044
472.4895, 33.97003
472.9716, 33.78022
473.4537, 33.84064
473.9359, 34.14788
474.4180, 34.77544
474.9001, 36.09461
475.3822, 38.38750
475.8643, 38.95672
476.3464, 35.64572
476.8286, 32.87230
477.3107, 32.22573
477.7928, 33.01752
478.2749, 34.25972
478.7570, 35.70654
479.2391, 36.70247
479.7213, 35.46250
480.2034, 31.48027
480.6855, 29.69836
481.1676, 32.82298
481.6497, 37.02428
482.1318, 39.37753
482.6140, 39.95197
483.0961, 39.73045
483.5782, 38.53841
484.0603, 37.11018
484.5424, 36.84962
485.0245, 37.84582
485.5067, 38.54393
485.9888, 38.04055
486.4709, 36.67994
486.9530, 35.35018
487.4351, 33.74136
487.9172, 32.81438
488.3994, 33.41708
488.8815, 34.66891
489.3636, 35.38237
489.8457, 35.33776
490.3278, 35.07360
490.8099, 35.23134
491.2921, 35.88525
491.7742, 35.10218
492.2563, 30.34815
492.7384, 27.28919
493.2205, 29.23576
493.7026, 33.41030
494.1848, 35.63134
494.6669, 34.39314
495.1490, 31.86273
495.6311, 31.62468
496.1132, 34.67582
496.5953, 36.79533
497.0775, 37.10968
497.5596, 37.31022
498.0417, 38.31351
498.5238, 39.71108
499.0059, 40.57893
499.4880, 40.46169
499.9702, 39.48549
500.4523, 37.47761
500.9344, 34.07745
501.4165, 31.95063
501.8986, 32.59579
502.3807, 34.20422
502.8629, 35.28369
503.3450, 35.78413
503.8271, 35.82321
504.3092, 34.97443
504.7913, 33.90090
505.2734, 33.67078
505.7556, 34.33767
506.2377, 35.34117
506.7198, 36.45891
507.2019, 37.63819
507.6840, 38.76978
508.1661, 40.25544
508.6483, 40.96815
509.1304, 39.98329
509.6125, 38.39710
510.0946, 37.15611
510.5767, 36.54600
511.0588, 37.11303
511.5410, 39.71293
512.0231, 44.31728
512.5052, 46.30859
512.9873, 42.84747
513.4694, 40.12607
513.9515, 39.83937
514.4337, 40.66251
514.9158, 41.33474
515.3979, 41.39297
515.8800, 40.62168
516.3621, 38.17485
516.8442, 33.71864
517.3264, 31.30285
517.8085, 32.32227
518.2906, 33.67377
518.7727, 33.68640
519.2548, 33.11922
519.7369, 33.33254
520.2191, 34.97408
520.7012, 37.05170
521.1833, 39.12040
521.6654, 40.95135
522.1475, 40.28267
522.6296, 35.51950
523.1118, 30.24990
523.5939, 28.84265
524.0760, 30.75046
524.5581, 32.32303
525.0402, 32.99977
525.5223, 33.12110
526.0045, 32.65186
526.4866, 31.80856
526.9687, 31.21629
527.4508, 31.17730
527.9329, 31.31534
528.4150, 30.85624
528.8972, 29.08961
529.3793, 28.44598
529.8614, 30.80669
530.3435, 32.49573
530.8256, 30.41006
531.3077, 25.93141
531.7899, 22.66265
532.2720, 22.74800
532.7541, 25.26941
533.2362, 28.19141
533.7183, 32.20166
534.2004, 34.68504
534.6826, 34.49501
535.1647, 33.15324
535.6468, 30.80855
536.1289, 27.86935
536.6110, 25.76199
537.0931, 25.63970
537.5753, 26.72988
538.0574, 27.79400
538.5395, 28.85006
539.0216, 29.52601
539.5037, 29.56345
539.9858, 29.21967
540.4680, 28.96919
540.9501, 28.87165
541.4322, 28.52467
541.9143, 27.11287
542.3964, 25.86280
542.8785, 26.61608
543.3607, 29.00282
543.8428, 30.47444
544.3249, 29.22873
544.8070, 26.16011
545.2891, 24.58578
545.7712, 26.13979
546.2534, 26.99653
546.7355, 26.46539
547.2176, 25.66533
547.6997, 25.80969
548.1818, 26.62755
548.6639, 26.50948
549.1461, 23.77055
549.6282, 19.41551
550.1103, 17.95341
550.5924, 20.53631
551.0745, 23.00487
551.5566, 24.13371
552.0388, 24.63047
552.5209, 24.78929
553.0030, 24.68129
553.4851, 24.90319
553.9672, 26.40246
554.4493, 28.24538
554.9315, 28.33231
555.4136, 26.54921
555.8957, 25.51173
556.3778, 27.07167
556.8599, 30.00446
557.3420, 30.82825
557.8242, 28.68151
558.3063, 26.90216
558.7884, 25.96032
559.2705, 25.77093
559.7526, 27.22385
560.2347, 29.66747
560.7169, 30.17731
561.1990, 26.23575
561.6811, 19.39976
562.1632, 17.09984
562.6453, 23.24825
563.1274, 27.28439
563.6096, 26.89082
564.0917, 25.16727
564.5738, 23.78945
565.0559, 23.14437
565.5380, 23.49475
566.0201, 25.84393
566.5023, 28.92975
566.9844, 28.77061
567.4665, 24.66251
567.9486, 21.95108
568.4307, 23.40555
568.9128, 26.68513
569.3950, 28.60201
569.8771, 29.09406
570.3592, 29.21207
570.8413, 29.19948
571.3234, 29.05599
571.8055, 29.00033
572.2877, 28.89051
572.7698, 27.82308
573.2519, 25.09128
573.7340, 21.74565
574.2161, 20.55632
574.6982, 23.39846
575.1804, 25.18568
575.6625, 25.38390
576.1446, 25.05629
576.6267, 24.53985
577.1088, 24.05575
577.5909, 23.99681
578.0731, 24.69142
578.5552, 25.64479
579.0373, 25.72635
579.5194, 24.81469
580.0015, 23.66871
580.4836, 21.97178
580.9658, 20.58609
581.4479, 19.96739
581.9300, 20.13495
582.4121, 21.15284
582.8942, 23.89877
583.3763, 26.81141
583.8585, 28.63948
584.3406, 29.37617
584.8227, 28.70577
585.3048, 26.31265
585.7869, 23.48461
586.2690, 22.00039
586.7512, 22.16187
587.2333, 22.32347
587.7154, 22.27475
588.1975, 22.44921
588.6796, 23.22906
589.1617, 24.29623
589.6439, 25.18816
590.1260, 25.72288
590.6081, 25.97317
591.0902, 26.00036
591.5723, 25.78814
592.0544, 25.44236
592.5366, 24.46469
593.0187, 24.11812
593.5008, 25.85980
593.9829, 28.26047
594.4650, 29.03967
594.9471, 27.35616
595.4293, 25.17656
595.9114, 23.72918
596.3935, 22.93202
596.8756, 22.52189
597.3577, 22.44303
597.8398, 23.28996
598.3220, 26.05085
598.8041, 30.15558
599.2862, 31.63081
599.7683, 28.25288
600.2504, 25.62857
600.7325, 24.90348
601.2147, 25.11881
601.6968, 25.49853
602.1789, 25.89422
602.6610, 26.51860
603.1431, 27.67961
603.6252, 29.06599
604.1074, 29.15592
604.5895, 27.42190
605.0716, 25.76135
605.5537, 23.82700
606.0358, 22.76974
606.5179, 24.40711
607.0001, 28.27518
607.4822, 30.65835
607.9643, 28.16145
608.4464, 24.29009
608.9285, 23.59126
609.4106, 25.60547
609.8928, 27.42595
610.3749, 27.92724
610.8570, 27.80174
611.3391, 28.05541
611.8212, 28.79392
612.3033, 29.53247
612.7855, 31.16054
613.2676, 31.85664
613.7497, 30.26643
614.2318, 27.35219
614.7139, 24.26136
615.1960, 21.49247
615.6782, 19.94000
616.1603, 21.65068
616.6424, 26.87447
617.1245, 29.42532
617.6066, 27.78332
618.0887, 25.96923
618.5709, 26.64587
619.0530, 28.11927
619.5351, 27.74320
620.0172, 24.54295
620.4993, 21.88717
620.9814, 22.44183
621.4636, 24.43546
621.9457, 24.90956
622.4278, 23.68177
622.9099, 22.53332
623.3920, 22.57516
623.8741, 23.62433
624.3563, 25.06284
624.8384, 28.00176
625.3205, 29.65823
625.8026, 29.54612
626.2847, 28.60521
626.7668, 26.99813
627.2490, 25.08584
627.7311, 23.54389
628.2132, 22.75007
628.6953, 22.48471
629.1774, 22.35061
629.6595, 22.34224
630.1417, 22.68370
630.6238, 23.55296
631.1059, 24.55384
631.5880, 25.69564
632.0701, 26.75562
632.5522, 26.83659
633.0344, 24.65121
633.5165, 22.83478
633.9986, 23.26496
634.4807, 24.69477
634.9628, 25.09285
635.4449, 24.11563
635.9271, 22.93540
636.4092, 22.67806
636.8913, 23.21198
637.3734, 23.09869
637.8555, 21.39600
638.3376, 20.58921
638.8198, 22.07057
639.3019, 23.71615
639.7840, 23.51968
640.2661, 21.69120
640.7482, 20.32508
641.2303, 20.89715
641.7125, 22.50446
642.1946, 23.77641
642.6767, 24.74674
643.1588, 26.01845
643.6409, 28.07490
644.1230, 29.68485
644.6052, 29.00147
645.0873, 25.60440
645.5694, 23.55640
646.0515, 24.06507
646.5336, 24.55099
647.0157, 23.53566
647.4979, 22.09364
647.9800, 21.97765
648.4621, 23.47376
648.9442, 25.01775
649.4263, 24.81747
649.9084, 23.11946
650.3906, 22.25815
650.8727, 22.30656
651.3548, 23.02194
651.8369, 25.24384
652.3190, 27.46715
652.8011, 27.99799
653.2833, 26.76088
653.7654, 25.35039
654.2475, 24.41498
654.7296, 23.52526
655.2117, 21.86938
655.6938, 19.86936
656.1760, 19.06942
656.6581, 20.10653
657.1402, 21.81793
657.6223, 22.57611
658.1044, 22.32894
658.5865, 21.43557
659.0687, 18.13002
659.5508, 16.21779
660.0329, 17.79918
660.5150, 20.68612
660.9971, 22.52088
661.4792, 22.76519
661.9614, 22.09047
662.4435, 20.28358
662.9256, 18.12284
663.4077, 17.63350
663.8898, 18.87032
664.3719, 20.20204
664.8541, 20.92038
665.3362, 21.31573
665.8183, 21.97618
666.3004, 23.19048
666.7825, 23.57186
667.2646, 22.41801
667.7468, 21.12996
668.2289, 19.59649
668.7110, 18.66280
669.1931, 20.33805
669.6752, 25.05657
670.1573, 29.49195
670.6395, 28.69253
671.1216, 23.20790
671.6037, 20.66767
672.0858, 21.93671
672.5679, 23.53536
673.0500, 23.89921
673.5322, 23.72418
674.0143, 24.40581
674.4964, 26.27659
674.9785, 26.60364
675.4606, 22.89479
675.9427, 18.77942
676.4249, 16.99500
676.9070, 17.28945
677.3891, 18.89704
677.8712, 21.48744
678.3533, 24.16455
678.8354, 25.59217
679.3176, 25.65445
679.7997, 25.64625
680.2818, 26.20330
680.7639, 25.68044
681.2460, 21.93436
681.7281, 17.77253
682.2103, 16.49581
682.6924, 18.59334
683.1745, 21.29466
683.6566, 24.00562
684.1387, 25.93072
684.6208, 25.51362
685.1030, 23.23390
685.5851, 21.22244
686.0672, 20.32540
686.5493, 20.55118
687.0314, 22.20836
687.5135, 25.93770
687.9957, 27.60369
688.4778, 25.45760
688.9599, 23.23754
689.4420, 21.25856
689.9241, 20.01143
690.4063, 20.53910
690.8884, 22.83749
691.3705, 24.60652
691.8526, 23.38376
692.3347, 20.78226
692.8168, 20.01730
693.2990, 21.01295
693.7811, 21.80491
694.2632, 21.53174
694.7453, 21.13008
695.2274, 22.07817
695.7095, 24.80178
696.1917, 26.23589
696.6738, 25.66599
697.1559, 24.78536
697.6380, 23.79589
698.1201, 22.95303
698.6022, 22.90047
699.0844, 23.51528
699.5665, 23.30734
700.0486, 19.96725
700.5307, 15.40840
701.0128, 15.82524
701.4949, 21.46020
701.9771, 24.28896
702.4592, 20.57025
702.9413, 15.50381
703.4234, 15.62071
703.9055, 21.28920
704.3876, 24.91976
704.8698, 25.01139
705.3519, 24.76474
705.8340, 25.28321
706.3161, 26.03672
706.7982, 26.47343
707.2803, 26.46021
707.7625, 26.00349
708.2446, 25.00154
708.7267, 23.68746
709.2088, 22.73076
709.6909, 22.15710
710.1730, 21.62613
710.6552, 20.91570
711.1373, 20.46919
711.6194, 21.04609
712.1015, 22.37614
712.5836, 22.84679
713.0657, 21.44666
713.5479, 20.30474
714.0300, 19.99800
714.5121, 20.39013
714.9942, 21.92151
715.4763, 24.15326
715.9584, 25.33564
716.4406, 24.13720
716.9227, 21.70101
717.4048, 20.85414
717.8869, 21.79946
718.3690, 22.29415
718.8511, 21.65986
719.3333, 21.16765
719.8154, 22.12441
720.2975, 23.86882
720.7796, 24.70311
721.2617, 23.97660
721.7438, 23.43293
722.2260, 24.39759
722.7081, 25.26611
723.1902, 23.96475
723.6723, 21.09602
724.1544, 18.96250
724.6365, 18.77657
725.1187, 19.70346
725.6008, 20.37607
726.0829, 20.76812
726.5650, 21.25865
727.0471, 22.01201
727.5292, 22.54206
728.0114, 22.15101
728.4935, 21.59223
728.9756, 22.45184
729.4577, 25.40350
729.9398, 26.63774
730.4219, 23.06378
730.9041, 19.14750
731.3862, 18.34773
731.8683, 19.98882
732.3504, 22.62954
732.8325, 25.61703
733.3146, 27.90342
733.7968, 27.93151
734.2789, 25.86235
734.7610, 24.20307
735.2431, 22.94540
735.7252, 22.13541
736.2073, 21.92277
736.6895, 22.07476
737.1716, 22.19058
737.6537, 22.29042
738.1358, 23.02956
738.6179, 26.28046
739.1000, 28.31440
739.5822, 25.99788
740.0643, 21.71941
740.5464, 18.58942
741.0285, 17.34360
741.5106, 17.38761
741.9927, 18.40957
742.4749, 20.08479
742.9570, 21.40392
743.4391, 22.39943
743.9212, 22.80316
744.4033, 22.25914
744.8854, 21.57214
745.3676, 21.18607
745.8497, 21.17656
746.3318, 21.92212
746.8139, 24.45957
747.2960, 26.10618
747.7781, 25.37476
748.2603, 23.86525
748.7424, 22.90040
749.2245, 22.56591
749.7066, 22.64511
750.1887, 23.06266
750.6708, 23.34801
751.1530, 22.26931
751.6351, 19.91666
752.1172, 19.63997
752.5993, 22.32294
753.0814, 24.73956
753.5635, 25.12374
754.0457, 24.24601
754.5278, 23.51099
755.0099, 22.84586
755.4920, 22.60746
755.9741, 23.59199
756.4562, 24.22676
756.9384, 23.24265
757.4205, 21.51204
757.9026, 20.26101
758.3847, 19.84555
758.8668, 20.15221
759.3489, 21.52174
759.8311, 23.34043
760.3132, 23.47956
760.7953, 21.89470
761.2774, 20.76685
761.7595, 20.76518
762.2416, 21.38284
762.7238, 22.39124
763.2059, 23.74372
763.6880, 23.88254
764.1701, 21.22484
764.6522, 19.60796
765.1343, 20.42892
765.6165, 21.94383
766.0986, 22.84507
766.5807, 23.14316
767.0628, 23.56967
767.5449, 24.68457
768.0270, 25.26846
768.5092, 22.75461
768.9913, 18.45145
769.4734, 17.49967
769.9555, 20.52499
770.4376, 23.01643
770.9197, 22.11273
771.4019, 19.49187
771.8840, 19.03115
772.3661, 21.88145
772.8482, 23.59430
773.3303, 23.33518
773.8124, 22.97371
774.2946, 23.03300
774.7767, 23.39288
775.2588, 24.19043
775.7409, 25.35676
776.2230, 25.65250
776.7051, 23.31535
777.1873, 20.45002
777.6694, 19.32435
778.1515, 19.83250
778.6336, 22.10682
779.1157, 26.09993
779.5978, 29.56612
780.0800, 30.17227
780.5621, 28.40257
781.0442, 27.61220
781.5263, 28.59851
782.0084, 28.64034
782.4905, 26.09337
782.9727, 23.77794
783.4548, 23.74067
783.9369, 25.20469
784.4190, 26.37015
784.9011, 27.34333
785.3832, 26.82642
785.8654, 21.94119
786.3475, 16.87810
786.8296, 16.90690
787.3117, 20.84612
787.7938, 24.18889
788.2759, 24.93256
788.7581, 24.25016
789.2402, 23.50375
789.7223, 22.71749
790.2044, 22.60221
790.6865, 23.42942
791.1686, 23.70107
791.6508, 22.17866
792.1329, 20.62796
792.6150, 21.89896
793.0971, 26.01605
793.5792, 28.18370
794.0613, 26.61079
794.5435, 24.95004
795.0256, 24.27469
795.5077, 24.09963
795.9898, 24.25122
796.4719, 24.43796
796.9540, 23.74780
797.4362, 21.25966
797.9183, 18.96426
798.4004, 20.26860
798.8825, 24.19935
799.3646, 26.96442
799.8467, 28.10437
800.3289, 28.28593
800.8110, 27.76586
801.2931, 26.80900
801.7752, 25.98514
802.2573, 25.38018
802.7394, 24.63242
803.2216, 23.59859
803.7037, 22.58048
804.1858, 21.42645
804.6679, 20.46619
805.1500, 20.07959
805.6321, 20.28482
806.1143, 20.77186
806.5964, 21.91632
807.0785, 22.78399
807.5606, 21.83358
808.0427, 20.26877
808.5248, 20.71587
809.0070, 23.40504
809.4891, 26.38671
809.9712, 28.39560
810.4533, 29.08468
810.9354, 26.57350
811.4175, 19.98383
811.8997, 17.56560
812.3818, 21.98471
812.8639, 26.54288
813.3460, 27.23588
813.8281, 25.63159
814.3102, 25.08777
814.7924, 25.86835
815.2745, 26.55629
815.7566, 27.44472
816.2387, 27.66656
816.7208, 25.70842
817.2029, 23.34543
817.6851, 23.62654
818.1672, 26.62533
818.6493, 28.55524
819.1314, 25.57311
819.6135, 21.08242
820.0956, 21.23671
820.5778, 25.00992
821.0599, 27.90922
821.5420, 29.03556
822.0241, 28.90912
822.5062, 27.69915
822.9883, 25.87313
823.4705, 24.98520
823.9526, 25.46343
824.4347, 25.84318
824.9168, 26.03004
825.3989, 26.20187
825.8810, 26.54111
826.3632, 26.85259
826.8453, 27.05667
827.3274, 27.17467
827.8095, 26.35241
828.2916, 22.52712
828.7737, 19.38816
829.2559, 20.46863
829.7380, 23.70489
830.2201, 25.85730
830.7022, 26.27188
831.1843, 25.82445
831.6664, 24.98378
832.1486, 24.18566
832.6307, 24.88714
833.1128, 26.95007
833.5949, 26.83673
834.0770, 23.46299
834.5591, 21.14914
835.0413, 23.08225
835.5233, 27.33153
836.0054, 29.27267
836.4875, 28.11780
836.9697, 26.88494
837.4518, 24.83565
837.9339, 23.59903
838.4160, 24.57783
838.8981, 26.10810
839.3802, 26.23974
839.8624, 24.91127
840.3445, 23.66819
840.8266, 22.89180
841.3087, 22.89582
841.7908, 25.04348
842.2729, 27.69782
842.7551, 27.58354
843.2372, 24.75687
843.7193, 22.01234
844.2014, 21.01821
844.6835, 21.46698
845.1656, 23.22069
845.6478, 26.30442
846.1299, 28.31385
846.6120, 29.15799
847.0941, 28.77738
847.5762, 26.39914
848.0583, 23.74083
848.5405, 23.50178
849.0226, 26.04370
849.5047, 27.58524
849.9868, 27.52286
850.4689, 27.28533
850.9510, 27.59990
851.4332, 27.52204
851.9153, 25.46346
852.3974, 22.31357
852.8795, 20.92916
853.3616, 22.86548
853.8438, 25.32647
854.3259, 26.22888
854.8080, 26.23650
855.2901, 26.24517
855.7722, 26.26496
856.2543, 25.88784
856.7365, 24.96246
857.2186, 24.07983
857.7007, 24.08343
858.1828, 24.78754
858.6649, 24.71692
859.1470, 23.71104
859.6292, 22.89966
860.1113, 22.48039
860.5934, 22.51275
861.0755, 23.30883
861.5576, 24.61668
862.0397, 25.11876
862.5219, 24.28090
863.0040, 23.55567
863.4861, 22.70314
863.9682, 22.28933
864.4503, 22.90231
864.9324, 24.00620
865.4146, 25.09918
865.8967, 26.01946
866.3788, 25.86738
866.8609, 22.78882
867.3430, 19.60952
867.8251, 18.97462
868.3073, 20.29185
868.7894, 23.12970
869.2715, 26.89771
869.7536, 29.07101
870.2357, 27.64446
870.7178, 24.65397
871.2000, 24.58402
871.6821, 27.33486
872.1642, 29.39169
872.6463, 30.64432
873.1284, 30.17366
873.6105, 26.74596
874.0927, 22.72921
874.5748, 22.07356
875.0569, 25.35808
875.5390, 26.85579
876.0211, 24.77680
876.5032, 23.26398
876.9854, 23.32219
877.4675, 23.81396
877.9496, 23.83063
878.4317, 23.55498
878.9138, 23.76502
879.3959, 24.92191
879.8781, 25.84304
880.3602, 26.10733
880.8423, 25.68686
881.3244, 23.81611
881.8065, 21.40495
882.2886, 20.52267
882.7708, 21.68972
883.2529, 23.26687
883.7350, 23.76821
884.2171, 23.57654
884.6992, 23.49703
885.1813, 23.52967
885.6635, 23.79305
886.1456, 24.34144
886.6277, 24.48361
887.1098, 23.62671
887.5919, 22.27155
888.0740, 21.69695
888.5562, 21.99237
889.0383, 22.80694
889.5204, 24.74577
890.0025, 26.17736
890.4846, 26.04401
890.9667, 25.44933
891.4489, 25.98174
891.9310, 27.45472
892.4131, 27.28273
892.8952, 22.62689
893.3773, 19.55483
893.8594, 21.85849
894.3416, 24.77768
894.8237, 23.50653
895.3058, 19.72564
895.7879, 18.19631
896.2700, 20.60751
896.7521, 23.82867
897.2343, 26.06455
897.7164, 27.13934
898.1985, 26.12940
898.6806, 23.81772
899.1627, 22.63455
899.6448, 23.05365
900.1270, 23.16523
900.6091, 21.16708
901.0912, 22.22554
901.5733, 18.99891
902.0554, 22.96569
902.5375, 25.66251
903.0197, 26.55630
903.5018, 26.65283
903.9839, 26.33886
904.4660, 25.65339
904.9481, 24.52111
905.4302, 22.80653
905.9124, 21.99000
906.3945, 23.34266
906.8766, 23.74252
907.3587, 22.02042
907.8408, 19.84213
908.3229, 17.83720
908.8051, 16.35537
909.2872, 16.22194
909.7693, 17.98869
910.2514, 19.83166
910.7335, 21.53906
911.2156, 22.62371
911.6978, 22.70548
912.1799, 21.92747
912.6620, 19.86358
913.1441, 16.89748
913.6262, 15.44108
914.1083, 17.67745
914.5905, 21.24679
915.0726, 23.48305
915.5547, 24.52844
916.0368, 24.40230
916.5189, 23.30977
917.0010, 22.23267
917.4832, 21.65062
917.9653, 21.58106
918.4474, 22.20550
918.9295, 23.42062
919.4116, 24.07736
919.8937, 24.10987
920.3759, 24.03674
920.8580, 24.02296
921.3401, 23.80890
921.8222, 23.08740
922.3043, 22.03134
922.7864, 21.28057
923.2686, 20.83532
923.7507, 20.69402
924.2328, 20.75330
924.7149, 21.25370
925.1970, 23.30564
925.6791, 25.16455
926.1613, 24.30068
926.6434, 20.94487
927.1255, 18.95830
927.6076, 20.55104
928.0897, 21.95079
928.5718, 20.94257
929.0540, 19.86661
929.5361, 21.69115
930.0182, 24.89055
930.5003, 25.69261
930.9824, 22.93890
931.4645, 19.52966
931.9467, 16.39257
932.4288, 14.88735
932.9109, 18.54011
933.3930, 24.74065
933.8751, 27.07245
934.3572, 24.89047
934.8394, 22.38505
935.3215, 22.27104
935.8036, 23.10962
936.2857, 22.37127
936.7678, 20.28425
937.2499, 18.11223
937.7321, 15.86059
938.2142, 15.77092
938.6963, 18.99248
939.1784, 22.61107
939.6605, 23.44469
940.1426, 21.99956
940.6248, 21.29287
941.1069, 21.36415
941.5890, 22.22489
942.0711, 25.13755
942.5532, 26.61600
943.0353, 23.28114
943.5175, 18.49410
943.9996, 18.43027
944.4817, 23.69608
944.9638, 25.99040
945.4459, 22.86541
945.9280, 19.67893
946.4102, 16.15792
946.8923, 14.30525
947.3744, 16.94876
947.8565, 22.09566
948.3386, 25.09281
948.8207, 24.48567
949.3029, 24.08197
949.7850, 26.08172
950.2671, 28.41518
950.7492, 29.88984
951.2313, 30.56603
951.7134, 30.37166
952.1956, 29.54518
952.6777, 28.95072
953.1598, 29.18116
953.6419, 29.29602
954.1240, 27.45223
954.6061, 25.19004
955.0883, 25.84013
955.5704, 28.76010
956.0525, 30.98562
956.5346, 31.56590
957.0167, 31.33061
957.4988, 30.86443
957.9810, 30.47951
958.4631, 31.32590
958.9452, 33.23997
959.4273, 33.89812
959.9094, 32.97826
960.3915, 31.96724
960.8737, 31.51663
961.3558, 31.58680
961.8379, 32.12751
962.3200, 33.13961
962.8021, 34.81399
963.2842, 37.92353
963.7664, 39.06514
964.2485, 36.51112
964.7306, 34.05404
965.2127, 34.43683
965.6948, 36.39375
966.1769, 37.11071
966.6591, 36.31002
967.1412, 35.34895
967.6233, 33.54090
968.1054, 32.50276
968.5875, 33.46744
969.0696, 34.57091
969.5518, 34.10142
970.0339, 32.57776
970.5160, 31.82119
970.9981, 32.65913
971.4802, 32.60321
971.9623, 29.86003
972.4445, 27.21837
972.9266, 26.56637
973.4087, 26.75667
973.8908, 26.18299
974.3729, 24.86667
974.8550, 24.04235
975.3372, 24.39847
975.8193, 24.98650
976.3014, 25.13223
976.7835, 25.13567
977.2656, 25.74068
977.7477, 26.37486
978.2299, 25.40166
978.7120, 22.68116
979.1941, 20.25229
979.6762, 19.54462
980.1583, 20.06236
980.6404, 21.81846
981.1226, 24.03141
981.6047, 24.54926
982.0868, 23.48845
982.5689, 22.48198
983.0510, 22.19239
983.5331, 22.16253
984.0153, 21.86990
984.4974, 21.84725
984.9795, 21.85960
985.4616, 21.81304
985.9437, 22.06783
986.4258, 22.14046
986.9080, 22.42021
987.3901, 23.23545
987.8722, 23.76868
988.3543, 22.47735
988.8364, 19.49894
989.3185, 18.50962
989.8007, 20.02725
990.2828, 21.07344
990.7649, 20.95659
991.2470, 20.68445
991.7291, 21.05289
992.2112, 21.54852
992.6934, 20.86540
993.1755, 18.50821
993.6576, 17.86372
994.1397, 20.55678
994.6218, 22.01130
995.1039, 19.73059
995.5861, 17.50898
996.0682, 19.22902
996.5503, 23.07216
997.0324, 23.67110
997.5145, 18.96766
997.9966, 17.15674
998.4788, 21.73292
998.9609, 25.46793
999.4430, 26.22468
999.9251, 25.02018
1000.407, 21.25464
1000.889, 16.35780
1001.371, 15.01319
1001.854, 19.68604
1002.336, 23.14820
1002.818, 21.98542
1003.300, 20.35549
1003.782, 21.08503
1004.264, 22.40614
1004.746, 21.99794
1005.228, 19.91711
1005.711, 17.62916
1006.193, 15.27122
1006.675, 14.03593
1007.157, 15.49264
1007.639, 17.60791
1008.121, 18.78464
1008.603, 19.17913
1009.085, 18.70883
1009.567, 17.79605
1010.050, 18.36881
1010.532, 22.21265
1011.014, 25.78546
1011.496, 24.76055
1011.978, 26.47564
1012.460, 22.27699
1012.942, 24.23332
1013.424, 23.21463
1013.906, 18.56741
1014.389, 14.75254
1014.871, 15.15802
1015.353, 17.80149
1015.835, 21.00251
1016.317, 23.86770
1016.799, 23.14643
1017.281, 19.75151
1017.763, 19.04339
1018.246, 22.49160
1018.728, 25.40021
1019.210, 23.18751
1019.692, 18.49417
1020.174, 17.01962
1020.656, 18.13935
1021.138, 18.96638
1021.620, 19.23173
1022.102, 18.63936
1022.585, 17.04659
1023.067, 16.01055
1023.549, 17.37973
1024.031, 20.18710
1024.513, 21.26796
1024.995, 20.64997
1025.477, 19.48834
1025.959, 17.78871
1026.442, 17.06257
1026.924, 18.03581
1027.406, 19.84772
1027.888, 21.80487
1028.370, 23.52695
1028.852, 22.39048
1029.334, 17.71706
1029.816, 15.34900
1030.298, 16.14368
1030.781, 17.86875
1031.263, 19.87272
1031.745, 21.51882
1032.227, 21.94236
1032.709, 21.27894
1033.191, 20.69006
1033.673, 20.16588
1034.155, 19.85628
1034.638, 20.18605
1035.120, 19.64048
1035.602, 16.87884
1036.084, 13.83839
1036.566, 13.18540
1037.048, 14.73228
1037.530, 15.42937
1038.012, 14.56958
1038.495, 14.45125
1038.977, 15.46627
1039.459, 16.89930
1039.941, 19.17664
1040.423, 21.02380
1040.905, 20.20857
1041.387, 16.92162
1041.869, 15.79260
1042.351, 19.19956
1042.833, 20.77556
1043.316, 18.16709
1043.798, 16.16675
1044.280, 17.73515
1044.762, 20.34867
1045.244, 20.79061
1045.726, 19.20382
1046.208, 18.44119
1046.690, 19.15874
1047.173, 19.86515
1047.655, 21.59807
1048.137, 21.96471
1048.619, 17.88225
1049.101, 13.16625
1049.583, 12.78560
1050.065, 16.49208
1050.547, 19.43478
1051.030, 21.35259
1051.512, 21.95003
1051.994, 19.69896
1052.476, 17.83584
1052.958, 18.56926
1053.440, 20.17074
1053.922, 20.68672
1054.404, 20.04235
1054.886, 18.85975
1055.369, 16.63326
1055.851, 15.05469
1056.333, 14.53861
1056.815, 14.72924
1057.297, 15.42038
1057.779, 16.73756
1058.261, 19.59645
1058.743, 23.41186
1059.225, 25.20982
1059.708, 23.34029
1060.190, 21.54843
1060.672, 21.25055
1061.154, 20.99619
1061.636, 20.06001
1062.118, 18.66528
1062.600, 16.45815
1063.082, 14.01039
1063.565, 13.65308
1064.047, 16.97518
1064.529, 19.46235
1065.011, 18.07031
1065.493, 17.00448
1065.975, 20.00679
1066.457, 23.69456
1066.939, 24.14223
1067.422, 21.64308
1067.904, 18.21922
1068.386, 13.55404
1068.868, 11.80071
1069.350, 18.02576
1069.832, 23.74443
1070.314, 23.34292
1070.796, 20.35363
1071.278, 17.78853
1071.760, 16.34406
1072.243, 16.90895
1072.725, 20.16113
1073.207, 22.17957
1073.689, 19.72764
1074.171, 17.39153
1074.653, 18.78699
1075.135, 20.80400
1075.617, 19.45174
1076.100, 16.11460
1076.582, 15.02817
1077.064, 17.37789
1077.546, 19.84914
1078.028, 21.77196
1078.510, 22.44632
1078.992, 20.26591
1079.474, 17.71424
1079.957, 17.27029
1080.439, 18.28830
1080.921, 19.06247
1081.403, 19.21465
1081.885, 19.38487
1082.367, 19.68187
1082.849, 20.28746
1083.331, 22.04424
1083.813, 23.44748
1084.296, 23.12252
1084.778, 21.54008
1085.260, 19.12644
1085.742, 16.21241
1086.224, 14.76497
1086.706, 16.64995
1087.188, 18.47998
1087.670, 18.31518
1088.152, 17.91886
1088.635, 18.70599
1089.117, 20.12316
1089.599, 21.47053
1090.081, 22.52764
1090.563, 22.91595
1091.045, 22.65079
1091.527, 21.37251
1092.009, 17.14036
1092.491, 13.79782
1092.974, 14.09041
1093.456, 16.60100
1093.938, 21.06924
1094.420, 26.03824
1094.902, 26.49200
1095.384, 19.11493
1095.866, 13.74363
1096.348, 15.96099
1096.831, 18.78565
1097.313, 18.10249
1097.795, 16.48471
1098.277, 16.82635
1098.759, 18.65857
1099.241, 19.89289
1099.723, 19.98119
1100.205, 20.22957
1100.688, 21.57434
1101.170, 22.45329
1101.652, 21.87865
1102.134, 20.90254
1102.616, 20.43253
1103.098, 20.21040
1103.580, 19.34221
1104.062, 17.63609
1104.544, 17.05833
1105.026, 19.45421
1105.509, 21.08029
1105.991, 19.68560
1106.473, 18.48717
1106.955, 20.52540
1107.437, 23.51733
1107.919, 23.84951
1108.401, 21.38243
1108.883, 18.90907
1109.366, 15.46074
1109.848, 14.13800
1110.330, 18.53060
1110.812, 21.36832
1111.294, 17.16043
1111.776, 11.28240
1112.258, 9.642385
1112.740, 11.81668
1113.223, 14.28427
1113.705, 17.92058
1114.187, 19.47466
1114.669, 16.46629
1115.151, 14.40730
1115.633, 16.05084
1116.115, 18.16685
1116.597, 17.76192
1117.079, 15.91657
1117.562, 15.65318
1118.044, 17.51649
1118.526, 18.59783
1119.008, 18.27855
1119.490, 18.28220
1119.972, 19.64564
1120.454, 20.29066
1120.936, 18.11517
1121.418, 15.19343
1121.901, 15.39236
1122.383, 18.80912
1122.865, 19.90634
1123.347, 17.40150
1123.829, 15.99316
1124.311, 16.71140
1124.793, 17.19696
1125.275, 16.19002
1125.758, 14.85824
1126.240, 14.46691
1126.722, 14.97003
1127.204, 16.41368
1127.686, 19.44832
1128.168, 19.92527
1128.650, 16.90336
1129.132, 14.65398
1129.615, 14.52239
1130.097, 15.52601
1130.579, 17.25425
1131.061, 18.73758
1131.543, 17.08758
1132.025, 12.23351
1132.507, 10.70174
1132.989, 12.77197
1133.471, 13.24787
1133.953, 10.90980
1134.436, 9.601804
1134.918, 11.65927
1135.400, 14.92019
1135.882, 16.52090
1136.364, 16.55836
1136.846, 14.40731
1137.328, 10.66802
1137.810, 11.50784
1138.293, 17.15443
1138.775, 21.68756
1139.257, 22.83607
1139.739, 21.75859
1140.221, 19.07868
1140.703, 16.14227
1141.185, 16.46049
1141.667, 18.48358
1142.150, 16.50037
1142.632, 11.75379
1143.114, 10.78272
1143.596, 14.47802
1144.078, 17.50120
1144.560, 16.61290
1145.042, 19.12200
1145.524, 16.80974
1146.006, 19.78261
1146.489, 19.88659
1146.971, 18.26644
1147.453, 17.12544
1147.935, 16.66974
1148.417, 16.32835
1148.899, 15.88739
1149.381, 15.39295
1149.863, 14.53851
1150.345, 14.12576
1150.828, 15.24704
1151.310, 16.90364
1151.792, 18.03861
1152.274, 18.77679
1152.756, 19.82621
1153.238, 21.03809
1153.720, 20.82736
1154.202, 17.78366
1154.685, 15.52709
1155.167, 16.74029
1155.649, 18.39984
1156.131, 18.41591
1156.613, 17.96851
1157.095, 18.82352
1157.577, 20.32986
1158.059, 20.19775
1158.542, 17.74012
1159.024, 16.09933
1159.506, 16.53235
1159.988, 17.14744
1160.470, 17.41037
1160.952, 17.70475
1161.434, 18.16431
1161.916, 19.71970
1162.398, 18.80745
1162.880, 19.45943
1163.363, 19.55935
1163.845, 18.23154
1164.327, 19.10119
1164.809, 16.42256
1165.291, 14.17931
1165.773, 13.58507
1166.255, 13.88927
1166.737, 14.64960
1167.220, 15.71068
1167.702, 16.71795
1168.184, 17.70322
1168.666, 18.25523
1169.148, 18.20554
1169.630, 18.70520
1170.112, 20.22104
1170.594, 20.91915
1171.077, 19.82772
1171.559, 17.45011
1172.041, 13.84093
1172.523, 10.24211
1173.005, 12.79708
1173.487, 20.71364
1173.969, 23.54244
1174.451, 20.95025
1174.933, 17.38192
1175.416, 14.23145
1175.898, 13.26265
1176.380, 15.98008
1176.862, 19.13944
1177.344, 16.85591
1177.826, 12.06128
1178.308, 11.98531
1178.790, 14.87760
1179.272, 16.05362
1179.755, 15.36010
1180.237, 15.28788
1180.719, 16.65971
1181.201, 17.64629
1181.683, 16.59476
1182.165, 15.13301
1182.647, 14.69371
1183.129, 14.82523
1183.612, 15.57287
1184.094, 16.21749
1184.576, 14.97175
1185.058, 12.40500
1185.540, 11.97950
1186.022, 15.53646
1186.504, 17.80849
1186.986, 14.24770
1187.469, 11.72497
1187.951, 15.19133
1188.433, 19.52218
1188.915, 20.59356
1189.397, 19.43214
1189.879, 18.04349
1190.361, 16.62394
1190.843, 15.86483
1191.325, 16.72322
1191.807, 16.73885
1192.290, 14.19343
1192.772, 13.28098
1193.254, 16.91251
1193.736, 20.59621
1194.218, 20.09295
1194.700, 16.99679
1195.182, 15.39706
1195.664, 15.39475
1196.147, 15.63443
1196.629, 16.08437
1197.111, 17.09645
1197.593, 18.88122
1198.075, 20.33728
1198.557, 21.05928
1199.039, 20.33148
1199.521, 16.93481
1200.004, 12.43361
1200.486, 11.33440
1200.968, 13.03520
1201.450, 14.64425
1201.932, 16.06577
1202.414, 17.68269
1202.896, 19.51893
1203.378, 21.44526
1203.860, 23.41223
1204.343, 24.07129
1204.825, 20.86765
1205.307, 16.62229
1205.789, 15.00123
1206.271, 14.90089
1206.753, 15.06198
1207.235, 15.20109
1207.717, 14.91280
1208.199, 14.29910
1208.682, 14.42625
1209.164, 15.91687
1209.646, 17.72024
1210.128, 20.08602
1210.610, 21.67566
1211.092, 21.09580
1211.574, 19.90450
1212.056, 19.85714
1212.539, 20.26455
1213.021, 19.00282
1213.503, 18.99114
1213.985, 19.26324
1214.467, 17.63237
1214.949, 19.17042
1215.431, 18.02920
1215.913, 16.06119
1216.396, 12.92181
1216.878, 10.99117
1217.360, 13.10260
1217.842, 17.23847
1218.324, 17.90173
1218.806, 14.98614
1219.288, 13.58242
1219.770, 13.77987
1220.252, 14.14448
1220.734, 14.46420
1221.217, 14.61595
1221.699, 14.53127
1222.181, 15.00003
1222.663, 16.98654
1223.145, 19.42081
1223.627, 20.43207
1224.109, 20.29309
1224.591, 19.33071
1225.074, 17.85050
1225.556, 16.16051
1226.038, 14.66133
1226.520, 14.50886
1227.002, 16.14753
1227.484, 18.33657
1227.966, 21.24057
1228.448, 23.03541
1228.931, 21.48801
1229.413, 19.20433
1229.895, 18.39463
1230.377, 18.40741
1230.859, 18.14213
1231.341, 17.59588
1231.823, 17.42994
1232.305, 18.01869
1232.787, 18.00611
1233.270, 17.20939
1233.752, 15.75017
1234.234, 12.23477
1234.716, 10.17939
1235.198, 12.28877
1235.680, 15.61469
1236.162, 16.43836
1236.644, 15.28043
1237.126, 14.51603
1237.609, 14.10022
1238.091, 14.83571
1238.573, 16.84685
1239.055, 17.95713
1239.537, 17.68939
1240.019, 15.75268
1240.501, 11.88861
1240.983, 8.847962
1241.466, 10.29404
1241.948, 13.93967
1242.430, 15.88723
1242.912, 16.48703
1243.394, 16.06628
1243.876, 15.00915
1244.358, 13.67588
1244.840, 12.47169
1245.323, 12.73574
1245.805, 15.18623
1246.287, 17.12563
1246.769, 17.02458
1247.251, 15.89406
1247.733, 12.55513
1248.215, 10.22100
1248.697, 12.62226
1249.179, 16.79038
1249.661, 18.38443
1250.144, 17.54260
1250.626, 17.15579
1251.108, 17.64302
1251.590, 17.66697
1252.072, 16.68462
1252.554, 16.62370
1253.036, 18.46065
1253.518, 19.44457
1254.001, 17.81185
1254.483, 15.74486
1254.965, 15.95289
1255.447, 17.61478
1255.929, 18.31799
1256.411, 18.11243
1256.893, 17.01652
1257.375, 15.28242
1257.858, 13.92026
1258.340, 13.30071
1258.822, 14.64971
1259.304, 18.39266
1259.786, 21.27451
1260.268, 19.96254
1260.750, 17.65154
1261.232, 17.61351
1261.714, 18.12832
1262.197, 17.43186
1262.679, 16.06742
1263.161, 14.38651
1263.643, 12.96997
1264.125, 13.65855
1264.607, 17.28287
1265.089, 18.72225
1265.571, 13.92499
1266.053, 11.79034
1266.536, 16.47157
1267.018, 19.68207
1267.500, 16.96062
1267.982, 13.65447
1268.464, 14.95712
1268.946, 18.80265
1269.428, 20.16538
1269.910, 19.13802
1270.393, 17.83038
1270.875, 16.27303
1271.357, 15.57599
1271.839, 15.76166
1272.321, 15.27168
1272.803, 13.70001
1273.285, 13.27888
1273.767, 15.99632
1274.250, 18.32022
1274.732, 14.23584
1275.214, 9.300838
1275.696, 11.24975
1276.178, 15.87263
1276.660, 17.64025
1277.142, 17.11152
1277.624, 16.64630
1278.106, 16.66095
1278.589, 16.42508
1279.071, 15.08519
1279.553, 15.09476
1280.035, 19.42896
1280.517, 21.42331
1280.999, 17.40908
1281.481, 13.55528
1281.963, 13.79710
1282.445, 15.54109
1282.928, 15.20382
1283.410, 15.37654
1283.892, 13.16840
1284.374, 14.45764
1284.856, 14.46706
1285.338, 13.33161
1285.820, 14.30775
1286.302, 17.62585
1286.785, 19.32665
1287.267, 17.68384
1287.749, 15.31419
1288.231, 14.07408
##END=



