##NAMES=Spangolite
##RRUFFID=R060135
##IDEAL CHEMISTRY=Cu^2+^_6_AlS^6+^O_4_(OH)_12_Cl&#183;3H_2_O
##LOCALITY=Blanchard mine, Hansonburg District, Socorro County, New Mexico, USA
##OWNER=RRUFF
##SOURCE=University of Arizona Mineral Museum
##DESCRIPTION=Bluish-green stubby hexagonal pyramids
##STATUS=The identification of this mineral has been confirmed by X-ray diffraction and chemical analysis
##URL=rruff.info/R060135
##MEASURED CHEMISTRY=Cu_6.00_Al_1.00_(S_1.00_O_4_)Cl_1.00_(OH)_12_Â·3H_2_O
90.26367, 29.58250
90.74579, 29.03043
91.22791, 29.62612
91.71002, 31.17444
92.19214, 31.91629
92.67426, 29.62507
93.15637, 25.29921
93.63850, 21.64302
94.12061, 19.65002
94.60273, 18.86380
95.08485, 18.28586
95.56696, 17.91764
96.04908, 17.78300
96.53120, 18.10497
97.01331, 18.84577
97.49543, 19.35251
97.97755, 19.16098
98.45966, 18.32656
98.94178, 17.88538
99.42390, 17.91329
99.90602, 18.23710
100.3881, 18.53634
100.8703, 18.79466
101.3524, 19.09482
101.8345, 19.62886
102.3166, 20.60229
102.7987, 20.83292
103.2808, 19.92482
103.7630, 18.22134
104.2451, 17.34667
104.7272, 17.80143
105.2093, 18.41246
105.6914, 18.33686
106.1735, 16.87446
106.6557, 15.93582
107.1378, 15.91404
107.6199, 16.84216
108.1020, 17.57702
108.5841, 17.98602
109.0662, 18.27581
109.5484, 18.63667
110.0305, 19.04151
110.5126, 19.54798
110.9947, 20.12693
111.4768, 20.74192
111.9590, 21.62384
112.4411, 23.21905
112.9232, 24.99857
113.4053, 26.23519
113.8874, 25.92227
114.3695, 25.77086
114.8517, 26.48272
115.3338, 28.40980
115.8159, 30.50749
116.2980, 32.41896
116.7801, 34.30286
117.2622, 36.48278
117.7444, 38.85760
118.2265, 41.71809
118.7086, 45.23940
119.1907, 49.51561
119.6728, 54.43904
120.1549, 60.13072
120.6371, 66.49117
121.1192, 73.14590
121.6013, 79.63510
122.0834, 86.32207
122.5655, 93.60292
123.0477, 101.8976
123.5298, 110.5711
124.0119, 119.3564
124.4940, 128.2077
124.9761, 136.5123
125.4582, 143.3182
125.9404, 149.1782
126.4225, 155.1158
126.9046, 161.8225
127.3867, 168.7602
127.8688, 174.9543
128.3509, 180.3460
128.8331, 185.5664
129.3152, 191.1321
129.7973, 197.0842
130.2794, 203.4710
130.7615, 210.2775
131.2436, 217.5384
131.7258, 225.2887
132.2079, 233.5368
132.6900, 242.2534
133.1721, 251.4868
133.6542, 261.2016
134.1364, 271.1858
134.6185, 281.5176
135.1006, 292.2241
135.5827, 302.8351
136.0648, 313.5250
136.5469, 323.9812
137.0291, 333.4510
137.5112, 341.7982
137.9933, 349.4615
138.4754, 357.0459
138.9575, 364.7268
139.4396, 370.8097
139.9218, 374.9322
140.4039, 377.2913
140.8860, 378.6120
141.3681, 378.6606
141.8502, 378.0606
142.3323, 377.2525
142.8145, 376.1714
143.2966, 374.9812
143.7787, 373.4627
144.2608, 371.6282
144.7429, 370.9432
145.2251, 371.6551
145.7072, 373.2923
146.1893, 375.3972
146.6714, 377.7444
147.1535, 380.8755
147.6356, 384.7310
148.1178, 389.1692
148.5999, 395.1691
149.0820, 403.5013
149.5641, 413.0561
150.0462, 422.4586
150.5283, 431.3499
151.0105, 440.3267
151.4926, 445.4724
151.9747, 450.2083
152.4568, 454.9707
152.9389, 459.7880
153.4210, 464.6063
153.9032, 469.4360
154.3853, 474.5005
154.8674, 479.3043
155.3495, 483.7221
155.8316, 487.9266
156.3138, 491.4766
156.7959, 494.0398
157.2780, 495.9388
157.7601, 497.7672
158.2422, 499.0945
158.7243, 500.7988
159.2065, 503.3570
159.6886, 507.1964
160.1707, 511.2174
160.6528, 514.9815
161.1349, 518.6594
161.6170, 522.7167
162.0992, 527.6482
162.5813, 532.8038
163.0634, 537.6928
163.5455, 541.5842
164.0276, 546.0302
164.5097, 551.9092
164.9919, 558.9786
165.4740, 566.3146
165.9561, 573.5969
166.4382, 580.8707
166.9203, 588.3272
167.4025, 597.0482
167.8846, 604.9231
168.3667, 610.9525
168.8488, 615.1683
169.3309, 617.6611
169.8130, 619.3083
170.2952, 619.0538
170.7773, 615.5793
171.2594, 607.5151
171.7415, 596.8017
172.2236, 584.9082
172.7057, 571.8083
173.1879, 557.0558
173.6700, 539.2269
174.1521, 519.6215
174.6342, 500.4008
175.1163, 481.6730
175.5984, 463.8414
176.0806, 447.5067
176.5627, 432.5748
177.0448, 419.1995
177.5269, 407.8582
178.0090, 398.2536
178.4911, 389.3676
178.9733, 380.7823
179.4554, 372.7628
179.9375, 365.6274
180.4196, 359.4523
180.9017, 354.0478
181.3839, 349.3874
181.8660, 345.4261
182.3481, 341.8271
182.8302, 338.6696
183.3123, 335.7819
183.7944, 332.7080
184.2766, 329.3597
184.7587, 326.1122
185.2408, 323.6555
185.7229, 321.8383
186.2050, 319.5708
186.6871, 315.8495
187.1693, 311.1445
187.6514, 306.9512
188.1335, 305.6665
188.6156, 304.1356
189.0977, 302.3717
189.5798, 299.6770
190.0620, 298.1839
190.5441, 296.2095
191.0262, 294.2153
191.5083, 292.8917
191.9904, 290.3324
192.4725, 288.9982
192.9547, 287.1747
193.4368, 287.3431
193.9189, 287.3700
194.4010, 287.1639
194.8831, 286.0271
195.3652, 286.0921
195.8474, 285.6755
196.3295, 285.2391
196.8116, 285.4734
197.2937, 284.4719
197.7758, 284.6955
198.2579, 284.4301
198.7401, 284.3884
199.2222, 283.8622
199.7043, 285.0020
200.1864, 286.9583
200.6685, 287.9435
201.1507, 287.7464
201.6328, 287.5320
202.1149, 288.1469
202.5970, 289.7146
203.0791, 290.8041
203.5612, 291.2154
204.0434, 291.1355
204.5255, 290.9697
205.0076, 290.6425
205.4897, 290.4939
205.9718, 290.8942
206.4539, 292.0224
206.9361, 292.5809
207.4182, 292.2377
207.9003, 291.3542
208.3824, 291.1925
208.8645, 292.0494
209.3466, 292.8578
209.8288, 292.8324
210.3109, 291.6819
210.7930, 290.9626
211.2751, 290.8016
211.7572, 291.1685
212.2393, 291.9999
212.7215, 293.3704
213.2036, 295.0131
213.6857, 296.8300
214.1678, 298.9463
214.6499, 300.8081
215.1321, 302.3094
215.6142, 303.5374
216.0963, 304.8495
216.5784, 306.2837
217.0605, 307.7150
217.5426, 309.1472
218.0248, 310.7567
218.5069, 311.7809
218.9890, 311.9964
219.4711, 311.5672
219.9532, 311.2053
220.4353, 310.7308
220.9175, 310.6148
221.3996, 311.1984
221.8817, 312.6789
222.3638, 314.3931
222.8459, 316.5591
223.3280, 318.9542
223.8102, 320.1408
224.2923, 319.3609
224.7744, 318.5630
225.2565, 319.0065
225.7386, 321.1080
226.2208, 323.4224
226.7029, 325.8170
227.1850, 328.3261
227.6671, 331.0587
228.1492, 334.2036
228.6313, 337.3016
229.1135, 340.0103
229.5956, 342.0521
230.0777, 344.3902
230.5598, 347.2065
231.0419, 350.4025
231.5240, 353.6625
232.0062, 357.5480
232.4883, 360.7479
232.9704, 362.5411
233.4525, 362.9880
233.9346, 361.9217
234.4167, 359.2731
234.8989, 355.0987
235.3810, 349.5533
235.8631, 341.8820
236.3452, 333.7251
236.8273, 325.8525
237.3095, 318.1294
237.7916, 310.9588
238.2737, 304.0816
238.7558, 297.7238
239.2379, 292.7714
239.7200, 289.6717
240.2022, 287.3619
240.6843, 285.2544
241.1664, 283.2247
241.6485, 281.7162
242.1306, 281.0698
242.6127, 280.9557
243.0949, 280.0544
243.5770, 277.7379
244.0591, 275.5111
244.5412, 274.2220
245.0233, 274.3862
245.5054, 274.2776
245.9876, 273.4821
246.4697, 272.4305
246.9518, 272.5620
247.4339, 274.5287
247.9160, 276.7108
248.3981, 278.2811
248.8803, 278.8822
249.3624, 279.7301
249.8445, 280.8110
250.3266, 282.1554
250.8087, 283.8405
251.2909, 285.7653
251.7730, 288.1583
252.2551, 291.1979
252.7372, 295.3207
253.2193, 299.0020
253.7014, 302.0781
254.1836, 304.7540
254.6657, 307.4605
255.1478, 310.2471
255.6299, 312.9865
256.1120, 315.6310
256.5941, 318.0851
257.0763, 320.7157
257.5584, 323.6212
258.0405, 326.6757
258.5226, 329.5589
259.0047, 332.1853
259.4868, 334.8711
259.9690, 337.7183
260.4511, 340.7443
260.9332, 343.8690
261.4153, 347.1964
261.8974, 350.5699
262.3795, 353.6243
262.8617, 356.2091
263.3438, 358.9015
263.8259, 362.0056
264.3080, 365.6068
264.7901, 368.8275
265.2722, 371.4432
265.7544, 373.9380
266.2365, 377.0460
266.7186, 380.9919
267.2007, 384.8262
267.6829, 388.1746
268.1650, 391.0468
268.6471, 394.0589
269.1292, 397.4146
269.6113, 400.6806
270.0934, 403.2137
270.5756, 404.8118
271.0577, 406.6133
271.5398, 409.3275
272.0219, 412.8993
272.5040, 414.3770
272.9861, 413.4017
273.4683, 411.1021
273.9504, 408.7086
274.4325, 406.4048
274.9146, 402.9767
275.3967, 397.9348
275.8788, 391.4286
276.3610, 385.0845
276.8431, 379.1300
277.3252, 372.8414
277.8073, 365.3575
278.2894, 356.5557
278.7715, 348.0102
279.2537, 339.8984
279.7358, 332.2597
280.2179, 325.2234
280.7000, 318.8688
281.1821, 312.6686
281.6642, 305.8128
282.1464, 298.2908
282.6285, 291.9081
283.1106, 287.1438
283.5927, 283.5410
284.0748, 279.9500
284.5569, 276.3468
285.0391, 272.8228
285.5212, 269.2481
286.0033, 265.6683
286.4854, 262.7189
286.9675, 260.5901
287.4496, 258.9494
287.9318, 257.0872
288.4139, 254.9821
288.8960, 253.1183
289.3781, 252.0579
289.8602, 251.5628
290.3424, 250.2953
290.8245, 247.9657
291.3066, 245.2896
291.7887, 243.4091
292.2708, 242.2609
292.7530, 241.3269
293.2351, 240.4124
293.7172, 239.5028
294.1993, 238.4835
294.6814, 237.2748
295.1635, 236.2810
295.6457, 236.3312
296.1278, 237.1597
296.6099, 237.6344
297.0920, 236.9175
297.5741, 235.5517
298.0562, 234.6138
298.5384, 234.1473
299.0205, 233.8268
299.5026, 233.2265
299.9847, 232.5106
300.4668, 232.1017
300.9489, 232.3604
301.4311, 232.9304
301.9132, 233.3833
302.3953, 233.7227
302.8774, 233.8981
303.3595, 233.7824
303.8416, 233.4917
304.3238, 233.2159
304.8059, 232.9609
305.2880, 232.8085
305.7701, 232.9980
306.2522, 233.4532
306.7343, 233.7003
307.2165, 233.0854
307.6986, 232.1952
308.1807, 231.7981
308.6628, 232.2844
309.1449, 232.9676
309.6270, 233.3275
310.1092, 233.4473
310.5913, 233.5863
311.0734, 233.8843
311.5555, 234.2631
312.0376, 234.6670
312.5197, 235.1120
313.0019, 235.5066
313.4840, 235.7412
313.9661, 235.8948
314.4482, 236.1305
314.9304, 236.6626
315.4125, 237.1990
315.8946, 237.5467
316.3767, 237.6602
316.8588, 237.7207
317.3409, 237.7224
317.8231, 237.7401
318.3052, 237.8712
318.7873, 238.5533
319.2694, 239.0019
319.7515, 238.6465
320.2336, 237.3746
320.7158, 236.6148
321.1979, 237.1973
321.6800, 238.2782
322.1621, 239.0953
322.6442, 239.6675
323.1263, 239.7844
323.6085, 239.0258
324.0906, 237.4872
324.5727, 236.6059
325.0548, 237.1896
325.5369, 238.1157
326.0190, 238.7068
326.5012, 238.5053
326.9833, 238.4456
327.4654, 238.7066
327.9475, 239.1944
328.4296, 239.5222
328.9117, 239.5954
329.3939, 239.5914
329.8760, 239.5835
330.3581, 239.6181
330.8402, 239.5525
331.3223, 239.3421
331.8044, 239.0372
332.2866, 238.7202
332.7687, 238.2504
333.2508, 237.9738
333.7329, 238.0845
334.2150, 238.7408
334.6971, 238.9715
335.1793, 238.5731
335.6614, 237.9487
336.1435, 237.6560
336.6256, 237.8535
337.1077, 237.9711
337.5899, 237.8616
338.0720, 237.5390
338.5541, 237.1782
339.0362, 236.7090
339.5183, 236.3687
340.0005, 236.4748
340.4826, 237.1239
340.9647, 237.5546
341.4468, 237.5877
341.9289, 237.3438
342.4110, 237.2112
342.8932, 237.2033
343.3753, 237.2101
343.8574, 237.2189
344.3395, 237.2117
344.8216, 236.8813
345.3037, 236.0577
345.7859, 235.1651
346.2680, 234.9438
346.7501, 235.3679
347.2322, 236.0864
347.7143, 237.2185
348.1964, 238.5212
348.6786, 239.2306
349.1607, 239.3070
349.6428, 238.8931
350.1249, 237.8224
350.6070, 236.3400
351.0891, 235.2003
351.5713, 234.9890
352.0534, 235.1809
352.5355, 234.9292
353.0176, 234.2574
353.4997, 233.6565
353.9818, 233.5650
354.4640, 233.7857
354.9461, 234.0618
355.4282, 234.5674
355.9103, 234.7799
356.3924, 233.9222
356.8745, 232.2641
357.3567, 230.8929
357.8388, 230.4985
358.3209, 230.6030
358.8030, 230.8457
359.2851, 231.2374
359.7672, 231.5493
360.2494, 231.6834
360.7315, 231.6504
361.2136, 231.4702
361.6957, 230.7633
362.1779, 230.2235
362.6600, 230.2316
363.1421, 230.8625
363.6242, 231.6769
364.1063, 232.7563
364.5884, 233.8703
365.0706, 234.7736
365.5527, 235.5244
366.0348, 235.9447
366.5169, 235.7808
366.9990, 235.0837
367.4811, 234.7099
367.9633, 234.7047
368.4454, 235.0677
368.9275, 235.8140
369.4096, 237.4622
369.8917, 238.7602
370.3738, 239.4734
370.8560, 239.8333
371.3381, 240.4959
371.8202, 241.7953
372.3023, 242.9487
372.7844, 243.5173
373.2665, 243.1661
373.7487, 243.6534
374.2308, 245.3706
374.7129, 247.5339
375.1950, 249.0398
375.6771, 249.6289
376.1592, 250.4258
376.6414, 251.8795
377.1235, 253.8748
377.6056, 255.1108
378.0877, 255.3240
378.5698, 255.6800
379.0519, 257.4793
379.5341, 260.7192
380.0162, 263.4075
380.4983, 264.9283
380.9804, 266.0321
381.4625, 268.5645
381.9446, 272.5241
382.4268, 276.3987
382.9089, 279.0434
383.3910, 280.8546
383.8731, 283.2766
384.3553, 286.4773
384.8374, 289.9445
385.3195, 293.2538
385.8016, 296.3546
386.2837, 299.1591
386.7658, 301.0593
387.2480, 302.8788
387.7301, 305.7753
388.2122, 309.7141
388.6943, 314.0428
389.1764, 318.0986
389.6585, 322.2908
390.1407, 327.0881
390.6228, 332.8392
391.1049, 338.9087
391.5870, 344.8886
392.0691, 350.8122
392.5512, 356.7807
393.0334, 362.8856
393.5155, 369.0191
393.9976, 375.0938
394.4797, 381.0580
394.9618, 387.1023
395.4439, 392.9460
395.9261, 398.9999
396.4082, 405.7814
396.8903, 413.9767
397.3724, 422.4345
397.8545, 431.0599
398.3366, 439.8615
398.8188, 448.3179
399.3009, 456.2206
399.7830, 463.8825
400.2651, 471.4671
400.7472, 478.6439
401.2293, 486.2616
401.7115, 494.5205
402.1936, 503.2657
402.6757, 512.0258
403.1578, 520.7148
403.6399, 529.6063
404.1220, 538.9066
404.6042, 548.8987
405.0863, 557.9161
405.5684, 565.7653
406.0505, 572.7925
406.5326, 579.4564
407.0147, 585.8428
407.4969, 591.3585
407.9790, 595.8076
408.4611, 599.3242
408.9432, 602.6386
409.4254, 605.8146
409.9075, 607.9453
410.3896, 608.4060
410.8717, 607.2529
411.3538, 604.6839
411.8359, 600.7152
412.3181, 595.4523
412.8002, 589.0587
413.2823, 581.5784
413.7644, 572.7174
414.2465, 561.4918
414.7286, 549.2003
415.2108, 537.3721
415.6929, 526.1928
416.1750, 514.9508
416.6571, 502.7491
417.1392, 490.3581
417.6213, 478.4097
418.1035, 467.6622
418.5856, 457.0011
419.0677, 445.5933
419.5498, 433.6820
420.0319, 422.6281
420.5140, 413.0280
420.9962, 404.2766
421.4783, 396.0826
421.9604, 388.6536
422.4425, 381.1588
422.9246, 372.6049
423.4067, 364.1935
423.8889, 357.4633
424.3710, 354.3242
424.8531, 351.1429
425.3352, 347.1026
425.8173, 342.1993
426.2994, 337.6895
426.7816, 333.5762
427.2637, 329.8937
427.7458, 326.6544
428.2279, 323.7487
428.7100, 321.5337
429.1921, 320.3215
429.6743, 319.6421
430.1564, 318.4155
430.6385, 316.5231
431.1206, 314.5344
431.6028, 312.5556
432.0849, 310.5928
432.5670, 309.2060
433.0491, 308.4245
433.5312, 308.0927
434.0133, 308.1593
434.4955, 308.5764
434.9776, 309.0229
435.4597, 309.4378
435.9418, 309.8219
436.4239, 310.0791
436.9060, 310.2495
437.3882, 310.5994
437.8703, 311.4520
438.3524, 312.5302
438.8345, 313.3594
439.3166, 313.8288
439.7987, 314.4479
440.2809, 315.7441
440.7630, 317.4349
441.2451, 319.0674
441.7272, 320.5632
442.2093, 321.8607
442.6914, 322.6620
443.1736, 323.0978
443.6557, 324.0203
444.1378, 326.1689
444.6199, 328.6229
445.1020, 330.7747
445.5841, 332.2866
446.0663, 333.9834
446.5484, 336.2443
447.0305, 338.7056
447.5126, 340.7564
447.9947, 341.7910
448.4768, 343.1159
448.9590, 345.1173
449.4411, 347.8027
449.9232, 350.2871
450.4053, 352.4775
450.8874, 354.6267
451.3695, 356.9113
451.8517, 359.3890
452.3338, 361.8471
452.8159, 364.3980
453.2980, 366.7267
453.7801, 368.0101
454.2622, 368.1576
454.7444, 368.4193
455.2265, 369.4307
455.7086, 371.0282
456.1907, 372.6432
456.6729, 374.3329
457.1550, 375.5482
457.6371, 375.6601
458.1192, 374.9395
458.6013, 374.0113
459.0834, 372.9724
459.5656, 371.8952
460.0477, 370.9183
460.5298, 369.9779
461.0119, 368.9400
461.4940, 367.8373
461.9761, 366.5146
462.4583, 364.8368
462.9404, 362.7705
463.4225, 360.4799
463.9046, 357.7711
464.3867, 354.9814
464.8688, 352.4952
465.3510, 350.5197
465.8331, 348.6916
466.3152, 347.0156
466.7973, 345.4578
467.2794, 343.8997
467.7615, 341.9825
468.2437, 340.3879
468.7258, 339.3532
469.2079, 338.9538
469.6900, 338.8423
470.1721, 339.2173
470.6542, 339.6605
471.1364, 339.6711
471.6185, 339.0901
472.1006, 338.6688
472.5827, 338.4429
473.0648, 338.5193
473.5469, 339.3329
474.0291, 340.9310
474.5112, 342.7222
474.9933, 344.5696
475.4754, 346.3700
475.9575, 347.5591
476.4396, 348.0585
476.9218, 348.4146
477.4039, 349.3993
477.8860, 350.6807
478.3681, 351.4135
478.8503, 350.8780
479.3324, 350.2379
479.8145, 350.8679
480.2966, 352.4409
480.7787, 353.7273
481.2608, 353.7586
481.7430, 353.5262
482.2251, 353.7181
482.7072, 354.4630
483.1893, 355.3283
483.6714, 356.4730
484.1535, 357.5311
484.6357, 358.1386
485.1178, 357.7666
485.5999, 357.4979
486.0820, 357.5457
486.5641, 357.8376
487.0462, 358.0702
487.5284, 357.9118
488.0105, 358.1590
488.4926, 359.2710
488.9747, 361.4471
489.4568, 363.1382
489.9389, 364.2085
490.4211, 365.0148
490.9032, 365.8776
491.3853, 366.7942
491.8674, 367.7819
492.3495, 368.6931
492.8316, 369.8426
493.3138, 372.1519
493.7959, 375.5292
494.2780, 378.8887
494.7601, 381.0667
495.2422, 382.9110
495.7243, 386.2374
496.2065, 391.2234
496.6886, 396.2435
497.1707, 399.8067
497.6528, 402.7573
498.1349, 406.2455
498.6170, 410.6818
499.0992, 415.6496
499.5813, 421.1952
500.0634, 427.1411
500.5455, 433.1064
501.0276, 438.7419
501.5097, 444.5464
501.9919, 450.8996
502.4740, 457.9087
502.9561, 464.6027
503.4382, 470.5374
503.9203, 476.4775
504.4025, 482.9788
504.8846, 490.0339
505.3667, 497.4792
505.8488, 505.1997
506.3309, 513.3203
506.8130, 522.2880
507.2952, 532.3016
507.7773, 542.1491
508.2594, 551.2896
508.7415, 559.7773
509.2236, 568.2893
509.7057, 576.8106
510.1879, 585.5255
510.6700, 595.0139
511.1521, 604.8975
511.6342, 614.2380
512.1163, 622.8264
512.5984, 630.7540
513.0806, 637.6251
513.5627, 643.8903
514.0448, 650.4920
514.5269, 658.5547
515.0090, 666.5020
515.4911, 673.2792
515.9733, 678.9865
516.4554, 684.1962
516.9375, 689.2577
517.4196, 693.8490
517.9017, 697.8250
518.3839, 701.2927
518.8660, 703.8310
519.3481, 705.2892
519.8302, 705.8118
520.3123, 705.5045
520.7944, 704.3541
521.2766, 702.4371
521.7587, 699.8459
522.2408, 696.5125
522.7229, 692.1351
523.2050, 686.8334
523.6871, 680.1044
524.1693, 671.5125
524.6514, 661.2620
525.1335, 649.8451
525.6156, 637.1510
526.0977, 623.7343
526.5798, 609.8916
527.0620, 595.5706
527.5441, 580.7677
528.0262, 565.3015
528.5083, 549.7375
528.9904, 534.8463
529.4725, 520.4848
529.9547, 506.4149
530.4368, 492.6847
530.9189, 479.1909
531.4010, 466.0337
531.8831, 453.0497
532.3652, 440.5166
532.8474, 428.2695
533.3295, 416.4420
533.8116, 404.9116
534.2937, 393.2841
534.7758, 382.8576
535.2579, 374.2686
535.7401, 366.6091
536.2222, 358.7939
536.7043, 350.2944
537.1865, 342.6159
537.6686, 336.1963
538.1507, 330.8049
538.6328, 325.8375
539.1149, 321.3566
539.5970, 316.6300
540.0792, 310.8919
540.5613, 304.4332
541.0434, 299.0716
541.5255, 294.9309
542.0076, 291.2935
542.4897, 287.3487
542.9719, 283.3663
543.4540, 279.8845
543.9361, 277.2992
544.4182, 274.8885
544.9003, 272.1164
545.3824, 269.1219
545.8646, 266.2164
546.3467, 263.6367
546.8288, 261.0699
547.3109, 258.3286
547.7930, 255.4236
548.2751, 252.6959
548.7573, 250.1742
549.2394, 247.8693
549.7215, 245.8067
550.2036, 244.1130
550.6857, 242.3938
551.1678, 240.6767
551.6500, 238.9051
552.1321, 237.0047
552.6142, 234.9469
553.0963, 232.8883
553.5784, 230.8129
554.0605, 228.8081
554.5427, 227.1657
555.0248, 225.8686
555.5069, 224.5930
555.9890, 223.1043
556.4711, 221.5341
556.9532, 220.1084
557.4354, 218.8352
557.9175, 217.6918
558.3996, 216.9452
558.8817, 216.2023
559.3638, 214.9918
559.8459, 213.0017
560.3281, 210.9682
560.8102, 208.8708
561.2923, 207.0008
561.7744, 205.8352
562.2565, 206.3741
562.7386, 206.6211
563.2208, 206.1050
563.7029, 204.9243
564.1850, 203.6745
564.6671, 202.2484
565.1492, 200.9694
565.6313, 200.0238
566.1135, 199.4425
566.5956, 198.8766
567.0777, 198.3203
567.5598, 197.8114
568.0419, 197.4377
568.5240, 197.1615
569.0062, 196.7712
569.4883, 196.2233
569.9704, 195.5585
570.4525, 194.6544
570.9346, 193.6619
571.4167, 193.0087
571.8989, 193.1988
572.3810, 193.5237
572.8631, 193.5346
573.3452, 193.2467
573.8273, 192.8229
574.3094, 192.0730
574.7916, 191.4038
575.2737, 191.0643
575.7558, 191.1972
576.2379, 191.2860
576.7200, 191.3451
577.2021, 191.3327
577.6843, 191.1568
578.1664, 190.6541
578.6485, 190.4857
579.1306, 190.7631
579.6127, 191.3565
580.0948, 192.1641
580.5770, 193.1839
581.0591, 193.8477
581.5412, 193.7335
582.0233, 193.2181
582.5054, 193.1832
582.9875, 193.5667
583.4697, 193.8941
583.9518, 193.5390
584.4340, 193.1211
584.9161, 193.4444
585.3982, 194.6825
585.8803, 195.8174
586.3624, 196.2437
586.8445, 196.3752
587.3267, 196.5892
587.8088, 196.7671
588.2909, 197.2836
588.7730, 198.4384
589.2551, 199.8913
589.7372, 201.0655
590.2194, 201.8177
590.7015, 202.5628
591.1836, 203.3363
591.6657, 204.1763
592.1478, 205.2963
592.6299, 206.7018
593.1121, 208.2558
593.5942, 210.1039
594.0763, 212.0498
594.5584, 213.2753
595.0405, 213.7243
595.5226, 213.9845
596.0048, 214.2448
596.4869, 214.7470
596.9690, 215.9925
597.4511, 218.4799
597.9332, 220.7192
598.4153, 221.4557
598.8975, 221.5012
599.3796, 222.0965
599.8617, 224.1197
600.3438, 226.1180
600.8259, 227.8027
601.3080, 229.1947
601.7902, 230.2884
602.2723, 230.7879
602.7544, 231.4745
603.2365, 232.7553
603.7186, 234.5998
604.2007, 235.9489
604.6829, 236.7004
605.1650, 237.3606
605.6471, 238.5126
606.1292, 239.9506
606.6113, 240.8887
607.0934, 241.2265
607.5756, 241.0415
608.0577, 240.0927
608.5398, 238.7306
609.0219, 237.5872
609.5040, 237.0871
609.9861, 236.5296
610.4683, 235.5998
610.9504, 234.3377
611.4325, 232.8042
611.9146, 230.8913
612.3967, 228.8680
612.8788, 226.7576
613.3610, 224.5911
613.8431, 222.4674
614.3252, 220.5008
614.8073, 218.4127
615.2894, 215.9894
615.7715, 213.2207
616.2537, 210.4140
616.7358, 207.5475
617.2179, 204.7670
617.7000, 202.4113
618.1821, 200.3012
618.6642, 197.8305
619.1464, 194.7824
619.6285, 191.6087
620.1106, 188.6930
620.5927, 185.9707
621.0748, 183.3437
621.5569, 180.6956
622.0391, 178.1773
622.5212, 175.9301
623.0033, 173.8578
623.4854, 171.6629
623.9675, 168.7485
624.4496, 166.2982
624.9318, 164.8425
625.4139, 164.3560
625.8960, 163.3590
626.3781, 161.7328
626.8602, 159.9019
627.3423, 157.9621
627.8245, 155.9322
628.3066, 154.6120
628.7887, 154.1098
629.2708, 153.7360
629.7529, 152.6844
630.2350, 151.2246
630.7172, 149.9425
631.1993, 148.9674
631.6815, 148.1832
632.1636, 147.4750
632.6457, 146.8997
633.1278, 146.5359
633.6099, 146.6250
634.0920, 146.6999
634.5742, 146.6196
635.0563, 146.4091
635.5384, 146.1740
636.0205, 145.9252
636.5026, 145.6504
636.9847, 145.3699
637.4669, 145.0775
637.9490, 144.5565
638.4311, 143.7144
638.9132, 143.0497
639.3953, 143.1404
639.8774, 143.7407
640.3596, 143.6356
640.8417, 142.7368
641.3238, 141.6710
641.8059, 140.8598
642.2880, 140.3182
642.7701, 140.1615
643.2523, 140.5905
643.7344, 140.9083
644.2165, 140.4621
644.6986, 139.7909
645.1807, 139.6160
645.6628, 141.0209
646.1450, 141.7717
646.6271, 141.3216
647.1092, 140.0890
647.5913, 139.1069
648.0734, 138.3689
648.5555, 137.8949
649.0377, 137.7795
649.5198, 137.9146
650.0019, 137.7654
650.4840, 137.3337
650.9661, 136.9611
651.4482, 136.9282
651.9304, 137.0757
652.4125, 137.1899
652.8946, 137.2554
653.3767, 137.1246
653.8588, 136.4583
654.3409, 135.7037
654.8231, 134.6524
655.3052, 135.0465
655.7873, 135.1944
656.2694, 135.1093
656.7515, 134.0933
657.2336, 134.2793
657.7158, 133.9836
658.1979, 133.6682
658.6800, 134.0234
659.1621, 133.1428
659.6442, 133.4874
660.1263, 133.3429
660.6085, 133.4221
661.0906, 133.0168
661.5727, 132.7612
662.0548, 132.9904
662.5369, 132.9511
663.0190, 132.4900
663.5012, 132.7861
663.9833, 132.9839
664.4654, 132.9487
664.9475, 131.9827
665.4296, 132.2186
665.9117, 131.9729
666.3939, 131.7073
666.8760, 132.1124
667.3581, 131.2818
667.8402, 131.6763
668.3223, 131.5817
668.8044, 131.7110
669.2866, 131.3555
669.7687, 131.1498
670.2508, 131.4289
670.7329, 131.4395
671.2150, 131.0283
671.6971, 131.1718
672.1793, 130.5322
672.6614, 130.2201
673.1435, 129.9348
673.6256, 129.7199
674.1077, 129.6706
674.5898, 129.6955
675.0720, 129.6547
675.5541, 129.5229
676.0362, 129.2991
676.5183, 128.8577
677.0004, 128.3293
677.4825, 128.0902
677.9647, 128.3814
678.4468, 128.4963
678.9290, 128.1755
679.4111, 127.5354
679.8932, 127.0709
680.3753, 126.7823
680.8574, 126.2278
681.3395, 126.6861
681.8217, 126.8982
682.3038, 126.8774
682.7859, 125.9257
683.2680, 126.1760
683.7501, 125.9446
684.2322, 125.6935
684.7144, 126.1129
685.1965, 125.2967
685.6786, 125.7055
686.1607, 125.6253
686.6428, 125.7689
687.1249, 125.4278
687.6071, 125.2364
688.0892, 125.5299
688.5713, 125.5549
689.0534, 125.1580
689.5355, 125.3159
690.0176, 124.4827
690.4998, 124.5191
690.9819, 124.9308
691.4640, 124.5583
691.9461, 124.7250
692.4282, 124.6863
692.9103, 123.7145
693.3925, 124.3655
693.8746, 124.3147
694.3567, 123.5433
694.8388, 124.1387
695.3209, 123.4157
695.8030, 123.2115
696.2852, 123.2173
696.7673, 123.5946
697.2494, 124.2219
697.7315, 124.4297
698.2136, 124.1158
698.6957, 123.7095
699.1779, 123.3350
699.6600, 123.0215
700.1421, 122.9680
700.6242, 123.1603
701.1063, 123.3269
701.5884, 123.0315
702.0706, 122.7341
702.5527, 123.2091
703.0348, 124.5023
703.5169, 125.4552
703.9990, 125.2551
704.4811, 124.6705
704.9633, 124.2243
705.4454, 124.0534
705.9275, 123.7646
706.4096, 123.2408
706.8917, 122.7287
707.3738, 122.4417
707.8560, 122.4008
708.3381, 122.4356
708.8202, 122.5383
709.3023, 122.7006
709.7844, 123.0430
710.2665, 123.4387
710.7487, 123.4658
711.2308, 122.8337
711.7129, 122.2860
712.1950, 122.7947
712.6771, 123.6664
713.1592, 123.8535
713.6414, 121.9720
714.1235, 120.6023
714.6056, 120.6752
715.0877, 121.5760
715.5698, 122.1461
716.0519, 122.3280
716.5341, 122.3024
717.0162, 122.0254
717.4983, 121.6310
717.9804, 121.5719
718.4625, 121.8202
718.9446, 121.9913
719.4268, 121.8206
719.9089, 121.5191
720.3910, 121.3120
720.8731, 121.2056
721.3552, 121.2177
721.8373, 121.4654
722.3195, 121.7413
722.8016, 121.9768
723.2837, 122.1626
723.7658, 122.1762
724.2479, 121.9323
724.7300, 121.6314
725.2122, 121.3228
725.6943, 121.0038
726.1765, 120.9585
726.6586, 121.2372
727.1407, 121.4663
727.6228, 121.2098
728.1049, 120.7085
728.5870, 120.5851
729.0692, 120.8963
729.5513, 121.2241
730.0334, 121.1589
730.5155, 121.0331
730.9976, 121.2323
731.4797, 122.0509
731.9619, 122.4709
732.4440, 121.9366
732.9261, 121.2060
733.4082, 120.8287
733.8903, 120.8677
734.3724, 121.1266
734.8546, 121.7016
735.3367, 122.2409
735.8188, 122.2246
736.3009, 121.7572
736.7830, 121.2786
737.2651, 120.8275
737.7473, 120.5598
738.2294, 120.7160
738.7115, 121.1338
739.1936, 121.5740
739.6757, 121.9810
740.1578, 122.3729
740.6400, 122.8850
741.1221, 123.3398
741.6042, 123.4386
742.0863, 123.0229
742.5684, 122.5680
743.0505, 122.0607
743.5327, 121.6430
744.0148, 121.7520
744.4969, 122.3405
744.9790, 122.8039
745.4611, 122.8796
745.9432, 122.7701
746.4254, 122.6430
746.9075, 122.5420
747.3896, 122.5824
747.8717, 122.7922
748.3538, 123.1815
748.8359, 124.0025
749.3181, 125.0842
749.8002, 125.5540
750.2823, 125.0610
750.7644, 124.5395
751.2465, 124.2686
751.7286, 124.1956
752.2108, 124.0272
752.6929, 123.7571
753.1750, 123.6713
753.6571, 124.1254
754.1392, 124.7765
754.6213, 125.0207
755.1035, 124.9161
755.5856, 124.7974
756.0677, 124.7199
756.5498, 124.7875
757.0319, 125.1459
757.5140, 125.8068
757.9962, 126.2829
758.4783, 126.5752
758.9604, 126.6295
759.4425, 126.2239
759.9246, 125.3916
760.4067, 125.5673
760.8889, 126.8416
761.3710, 128.3006
761.8531, 129.4436
762.3352, 130.2457
762.8173, 130.6136
763.2994, 130.5512
763.7816, 130.2596
764.2637, 129.5078
764.7458, 128.8314
765.2279, 128.7545
765.7100, 129.5354
766.1921, 129.8037
766.6743, 129.0103
767.1564, 128.2774
767.6385, 128.3743
768.1206, 129.4061
768.6027, 130.3089
769.0848, 131.0785
769.5670, 131.7327
770.0491, 132.3378
770.5312, 132.8351
771.0133, 133.0148
771.4954, 132.8139
771.9775, 132.7538
772.4597, 133.4315
772.9418, 134.2256
773.4240, 134.6025
773.9061, 134.3223
774.3882, 134.0068
774.8703, 133.5495
775.3524, 133.2165
775.8345, 133.2755
776.3167, 133.7618
776.7988, 134.2342
777.2809, 134.6657
777.7630, 135.0704
778.2451, 135.2652
778.7272, 135.4841
779.2094, 136.3445
779.6915, 138.1536
780.1736, 139.7028
780.6557, 140.0600
781.1378, 139.8989
781.6199, 139.8571
782.1021, 140.0078
782.5842, 140.3328
783.0663, 140.8467
783.5484, 141.5186
784.0305, 142.4057
784.5126, 143.5315
784.9948, 144.2903
785.4769, 144.5637
785.9590, 144.6754
786.4411, 144.8636
786.9232, 145.1876
787.4053, 145.8130
787.8875, 146.9356
788.3696, 147.9394
788.8517, 148.4026
789.3338, 148.6602
789.8159, 149.1008
790.2980, 149.7986
790.7802, 150.6181
791.2623, 151.6440
791.7444, 152.6699
792.2265, 153.3650
792.7086, 153.7561
793.1907, 154.1059
793.6729, 154.4128
794.1550, 154.8820
794.6371, 156.0395
795.1192, 157.4399
795.6013, 158.3459
796.0834, 158.3703
796.5656, 158.2561
797.0477, 158.0769
797.5298, 157.9959
798.0119, 158.2028
798.4940, 158.7701
798.9761, 159.5013
799.4583, 160.4890
799.9404, 161.4484
800.4225, 161.9399
800.9046, 162.0401
801.3867, 162.2522
801.8688, 162.7202
802.3510, 163.1557
802.8331, 163.1918
803.3152, 163.0421
803.7973, 162.9967
804.2794, 163.1133
804.7615, 163.3671
805.2437, 163.9230
805.7258, 164.5206
806.2079, 164.8994
806.6900, 165.0517
807.1721, 165.0195
807.6542, 164.8156
808.1364, 164.4072
808.6185, 163.5448
809.1006, 162.4359
809.5827, 161.7625
810.0648, 161.8072
810.5469, 161.8645
811.0291, 161.3849
811.5112, 160.6370
811.9933, 159.9221
812.4754, 159.1997
812.9575, 158.7022
813.4396, 158.6666
813.9218, 158.6322
814.4039, 157.9788
814.8860, 156.6448
815.3681, 155.6723
815.8502, 155.2319
816.3323, 154.9010
816.8145, 154.0973
817.2966, 153.0779
817.7787, 152.3086
818.2608, 151.9612
818.7429, 151.6362
819.2251, 151.1665
819.7072, 150.6149
820.1893, 150.0387
820.6714, 149.4537
821.1536, 148.8240
821.6357, 148.1141
822.1178, 147.4188
822.5999, 146.8566
823.0820, 146.4108
823.5641, 146.0096
824.0463, 145.6585
824.5284, 145.2055
825.0105, 144.1451
825.4926, 143.0876
825.9747, 142.9352
826.4568, 144.3255
826.9390, 144.9887
827.4211, 143.7073
827.9032, 142.0680
828.3853, 141.0908
828.8674, 140.9078
829.3495, 140.9082
829.8317, 141.1974
830.3138, 141.1911
830.7959, 139.9831
831.2780, 138.1472
831.7601, 136.8750
832.2422, 136.3109
832.7244, 136.1471
833.2065, 136.6420
833.6886, 137.1523
834.1707, 137.1197
834.6528, 136.2836
835.1349, 135.7620
835.6171, 135.6694
836.0992, 135.6996
836.5813, 135.6925
837.0634, 135.6445
837.5455, 135.4925
838.0276, 135.2324
838.5098, 134.9368
838.9919, 134.5169
839.4740, 134.1750
839.9561, 134.2252
840.4382, 134.6748
840.9203, 134.9796
841.4025, 134.8159
841.8846, 134.6030
842.3667, 134.5522
842.8488, 134.6580
843.3309, 134.5667
843.8130, 134.2278
844.2952, 133.9819
844.7773, 134.1401
845.2594, 134.5023
845.7415, 134.5595
846.2236, 134.3703
846.7057, 134.2436
847.1879, 134.6265
847.6700, 134.8674
848.1521, 134.2794
848.6342, 133.0456
849.1163, 132.8195
849.5984, 134.2830
850.0806, 135.4469
850.5627, 135.5887
851.0448, 135.0005
851.5269, 134.4915
852.0090, 134.0821
852.4911, 133.9546
852.9733, 134.4359
853.4554, 135.0084
853.9375, 135.1464
854.4196, 135.0061
854.9017, 134.9751
855.3839, 135.1477
855.8660, 135.4771
856.3481, 136.0426
856.8302, 136.7078
857.3123, 137.1875
857.7944, 137.4824
858.2766, 137.6195
858.7587, 137.5621
859.2408, 137.4525
859.7229, 137.5202
860.2050, 137.6889
860.6871, 137.7885
861.1693, 137.6142
861.6514, 137.6019
862.1335, 138.2177
862.6156, 138.9483
863.0977, 139.0436
863.5798, 138.1002
864.0620, 137.7012
864.5441, 138.0380
865.0262, 138.7865
865.5083, 139.7571
865.9904, 140.8066
866.4726, 141.4847
866.9547, 141.6885
867.4368, 141.6819
867.9189, 141.3976
868.4011, 141.1448
868.8832, 141.2387
869.3653, 141.9237
869.8474, 142.4437
870.3295, 142.7409
870.8116, 142.9610
871.2938, 143.2457
871.7759, 143.5764
872.2580, 143.5699
872.7401, 143.2114
873.2222, 143.1750
873.7043, 144.5924
874.1865, 146.1992
874.6686, 146.5930
875.1507, 145.6555
875.6328, 144.9199
876.1149, 144.6084
876.5970, 144.7730
877.0792, 145.6593
877.5613, 147.1395
878.0434, 147.7699
878.5255, 147.5141
879.0076, 147.3266
879.4897, 147.9070
879.9719, 148.7799
880.4540, 149.3285
880.9361, 149.5973
881.4182, 149.7388
881.9003, 149.7603
882.3824, 149.7210
882.8646, 149.4293
883.3467, 149.1268
883.8288, 149.5528
884.3109, 150.8794
884.7930, 151.9639
885.2751, 152.4554
885.7573, 152.6487
886.2394, 152.9450
886.7215, 153.3403
887.2036, 153.8278
887.6857, 154.4576
888.1678, 155.0872
888.6500, 155.7403
889.1321, 156.3154
889.6142, 156.6824
890.0963, 156.7887
890.5784, 156.7624
891.0605, 156.4835
891.5427, 156.3947
892.0248, 157.2878
892.5069, 158.7821
892.9890, 159.6790
893.4711, 159.7535
893.9532, 159.7450
894.4354, 160.0952
894.9175, 160.6103
895.3996, 161.1573
895.8817, 161.7320
896.3638, 162.2438
896.8459, 162.5858
897.3281, 163.0780
897.8102, 164.0439
898.2923, 165.3584
898.7744, 166.3273
899.2565, 166.9548
899.7386, 167.3038
900.2208, 167.0219
900.7029, 166.8117
901.1850, 167.2790
901.6671, 168.3473
902.1492, 169.3162
902.6313, 169.6139
903.1135, 170.7358
903.5956, 173.6884
904.0777, 177.2955
904.5598, 178.2095
905.0419, 179.7758
905.5240, 181.0763
906.0062, 182.1253
906.4883, 182.1684
906.9704, 183.5100
907.4525, 184.3313
907.9346, 185.1311
908.4167, 186.6555
908.8989, 186.8452
909.3810, 188.3579
909.8631, 186.5161
910.3452, 187.2207
910.8273, 187.4049
911.3094, 187.5678
911.7916, 188.4552
912.2737, 188.0076
912.7558, 188.8835
913.2380, 189.2311
913.7201, 190.2014
914.2022, 190.2393
914.6843, 190.0111
915.1664, 189.5314
915.6486, 188.0459
916.1307, 187.8590
916.6128, 187.1518
917.0949, 186.4232
917.5770, 186.4190
918.0591, 185.0800
918.5413, 185.0642
919.0234, 184.5203
919.5055, 184.2182
919.9876, 183.3924
920.4697, 182.7284
920.9518, 182.5882
921.4340, 182.1578
921.9161, 181.2719
922.3982, 180.9852
922.8803, 179.6278
923.3624, 178.6712
923.8445, 178.3623
924.3267, 178.0557
924.8088, 177.7236
925.2909, 177.1988
925.7730, 176.6736
926.2551, 176.4446
926.7372, 176.8835
927.2194, 177.0964
927.7015, 176.9845
928.1836, 176.6340
928.6657, 176.0058
929.1478, 175.1038
929.6299, 174.6159
930.1121, 174.5932
930.5942, 174.7571
931.0763, 175.0239
931.5584, 175.2554
932.0405, 175.2209
932.5226, 174.9074
933.0048, 174.8094
933.4869, 175.2280
933.9690, 175.6478
934.4511, 175.8888
934.9332, 175.9830
935.4153, 176.0911
935.8975, 176.2092
936.3796, 176.2646
936.8617, 176.0106
937.3438, 175.9226
937.8259, 176.4941
938.3080, 177.5887
938.7902, 178.9207
939.2723, 181.0434
939.7544, 182.5021
940.2365, 182.8360
940.7186, 182.8065
941.2007, 183.4428
941.6829, 184.7015
942.1650, 186.0867
942.6471, 187.5572
943.1292, 189.0519
943.6113, 190.2878
944.0934, 191.6617
944.5756, 193.6444
945.0577, 196.3751
945.5398, 199.2310
946.0219, 202.0511
946.5040, 205.1310
946.9861, 208.5755
947.4683, 212.4364
947.9504, 216.6397
948.4325, 221.2299
948.9146, 226.4748
949.3967, 232.4947
949.8788, 239.2592
950.3610, 246.6848
950.8431, 254.8676
951.3252, 263.9765
951.8073, 274.0366
952.2894, 284.9932
952.7715, 296.8549
953.2537, 309.5895
953.7358, 323.1531
954.2179, 337.5463
954.7000, 352.8933
955.1821, 369.1594
955.6642, 385.9709
956.1464, 402.8629
956.6285, 420.2490
957.1106, 438.7579
957.5927, 458.5772
958.0748, 478.7534
958.5569, 499.1114
959.0391, 520.5247
959.5212, 543.9103
960.0033, 568.7561
960.4855, 592.6901
960.9676, 616.2654
961.4497, 641.8770
961.9318, 674.4194
962.4139, 706.0316
962.8961, 731.8534
963.3782, 753.4952
963.8603, 776.5096
964.3424, 802.0873
964.8245, 823.3533
965.3066, 839.1853
965.7888, 849.6937
966.2709, 855.0439
966.7530, 855.3511
967.2351, 851.0323
967.7172, 842.7631
968.1993, 827.7176
968.6815, 801.9189
969.1636, 770.9473
969.6457, 737.7702
970.1278, 702.2654
970.6099, 667.5771
971.0920, 633.7930
971.5742, 601.0961
972.0563, 569.5762
972.5384, 539.7934
973.0205, 512.0432
973.5026, 486.4205
973.9847, 462.7681
974.4669, 441.1109
974.9490, 421.6066
975.4311, 404.3559
975.9132, 388.9287
976.3953, 374.3949
976.8774, 360.6650
977.3596, 348.0966
977.8417, 336.9210
978.3238, 326.7785
978.8059, 317.6626
979.2880, 309.1491
979.7701, 300.7138
980.2523, 292.1703
980.7344, 284.1717
981.2165, 276.7323
981.6986, 269.6606
982.1807, 262.6201
982.6628, 255.7701
983.1450, 250.0915
983.6271, 245.4042
984.1092, 240.5913
984.5913, 234.6814
985.0734, 228.8047
985.5555, 223.3295
986.0377, 218.3796
986.5198, 214.1942
987.0019, 211.0799
987.4840, 207.6884
987.9661, 203.7567
988.4482, 199.6430
988.9304, 195.7048
989.4125, 192.0201
989.8946, 188.8765
990.3767, 186.4220
990.8588, 183.8457
991.3409, 180.5607
991.8231, 177.2970
992.3052, 174.4757
992.7873, 172.1219
993.2694, 169.6385
993.7515, 167.0068
994.2336, 164.7585
994.7158, 163.3401
995.1979, 162.3167
995.6800, 161.4134
996.1621, 160.4680
996.6442, 159.1195
997.1263, 156.5940
997.6085, 154.6600
998.0906, 153.7732
998.5727, 153.1515
999.0548, 151.6409
999.5369, 149.4142
1000.019, 147.5874
1000.501, 146.2940
1000.983, 145.3267
1001.465, 144.9314
1001.948, 144.4747
1002.430, 143.4367
1002.912, 141.7671
1003.394, 139.9969
1003.876, 137.9411
1004.358, 136.3613
1004.840, 135.6686
1005.322, 135.4366
1005.804, 134.9101
1006.287, 134.1473
1006.769, 133.2669
1007.251, 132.1880
1007.733, 131.2020
1008.215, 130.4173
1008.697, 129.7378
1009.179, 129.1033
1009.661, 128.5310
1010.144, 127.7045
1010.626, 126.5653
1011.108, 125.7637
1011.590, 126.1812
1012.072, 126.9190
1012.554, 127.1566
1013.036, 126.8689
1013.518, 126.2558
1014.000, 125.0455
1014.483, 124.0954
1014.965, 123.7657
1015.447, 123.6193
1015.929, 122.5072
1016.411, 120.7655
1016.893, 119.6704
1017.375, 119.6549
1017.857, 119.9016
1018.340, 120.2133
1018.822, 120.3400
1019.304, 119.9820
1019.786, 119.0398
1020.268, 118.5001
1020.750, 118.4147
1021.232, 118.3921
1021.714, 118.1698
1022.196, 117.8664
1022.679, 117.6871
1023.161, 117.5844
1023.643, 117.4248
1024.125, 117.0799
1024.607, 116.7651
1025.089, 116.3708
1025.571, 115.6868
1026.053, 116.2351
1026.536, 116.5170
1027.018, 116.5472
1027.500, 115.5711
1027.982, 115.8944
1028.464, 115.6970
1028.946, 115.4781
1029.428, 115.9844
1029.910, 115.1546
1030.392, 115.6493
1030.875, 115.6152
1031.357, 115.8231
1031.839, 115.5071
1032.321, 115.3530
1032.803, 114.6692
1033.285, 113.7218
1033.767, 113.3080
1034.249, 114.0071
1034.732, 114.5934
1035.214, 114.7669
1035.696, 114.7288
1036.178, 114.4508
1036.660, 113.9446
1037.142, 114.0379
1037.624, 114.7067
1038.106, 115.1093
1038.589, 115.2602
1039.071, 114.4047
1039.553, 114.8486
1040.035, 114.7717
1040.517, 114.6735
1040.999, 115.3003
1041.481, 114.5911
1041.963, 115.2064
1042.445, 115.2930
1042.927, 115.6216
1043.410, 115.4263
1043.892, 115.3927
1044.374, 115.8833
1044.856, 116.0836
1045.338, 115.8279
1045.820, 116.1719
1046.302, 115.4444
1046.784, 115.6571
1047.267, 116.2756
1047.749, 116.0462
1048.231, 116.3997
1048.713, 116.5312
1049.195, 116.8570
1049.677, 116.9155
1050.159, 116.6102
1050.641, 116.5469
1051.124, 116.7980
1051.606, 117.3018
1052.088, 118.1924
1052.570, 118.8555
1053.052, 118.5651
1053.534, 117.8445
1054.016, 117.5960
1054.498, 117.8095
1054.980, 118.3114
1055.463, 119.4536
1055.945, 120.3277
1056.427, 120.6311
1056.909, 120.6584
1057.391, 120.8331
1057.873, 121.1559
1058.355, 121.6878
1058.837, 122.4603
1059.319, 123.1929
1059.802, 123.6387
1060.284, 123.9673
1060.766, 124.1721
1061.248, 124.2963
1061.730, 125.0242
1062.212, 126.5120
1062.694, 127.8107
1063.176, 128.5702
1063.659, 128.9532
1064.141, 128.6077
1064.623, 128.2344
1065.105, 129.1749
1065.587, 132.9062
1066.069, 135.3324
1066.551, 135.5214
1067.033, 135.2361
1067.516, 135.6442
1067.998, 136.6500
1068.480, 137.8752
1068.962, 139.2618
1069.444, 140.4680
1069.926, 141.3215
1070.408, 141.9208
1070.890, 141.9074
1071.372, 141.8405
1071.854, 142.6974
1072.337, 144.6132
1072.819, 145.9969
1073.301, 146.6339
1073.783, 147.2076
1074.265, 148.4742
1074.747, 149.8995
1075.229, 150.8804
1075.711, 151.4175
1076.194, 152.2107
1076.676, 153.3953
1077.158, 154.5816
1077.640, 155.6482
1078.122, 156.6819
1078.604, 157.7717
1079.086, 158.9569
1079.568, 160.3647
1080.051, 162.1196
1080.533, 163.7338
1081.015, 164.9027
1081.497, 166.0249
1081.979, 167.2727
1082.461, 168.6270
1082.943, 169.9957
1083.425, 171.4058
1083.907, 172.9622
1084.390, 174.6706
1084.872, 176.6071
1085.354, 179.1190
1085.836, 181.7175
1086.318, 183.8094
1086.800, 185.2224
1087.282, 186.7301
1087.764, 188.3334
1088.247, 190.1082
1088.729, 192.0577
1089.211, 194.2483
1089.693, 196.9917
1090.175, 200.0988
1090.657, 202.8405
1091.139, 205.0506
1091.621, 206.8580
1092.104, 207.9793
1092.586, 209.3364
1093.068, 212.9690
1093.550, 217.5974
1094.032, 220.0847
1094.514, 220.0584
1094.996, 219.9218
1095.478, 220.5576
1095.960, 221.4810
1096.443, 222.5275
1096.925, 223.6959
1097.407, 225.2143
1097.889, 226.9720
1098.371, 228.1011
1098.853, 228.3213
1099.335, 228.0805
1099.817, 227.4659
1100.299, 226.6929
1100.782, 226.0584
1101.264, 225.5896
1101.746, 224.3525
1102.228, 222.3098
1102.710, 219.9403
1103.192, 217.4420
1103.674, 214.8140
1104.156, 212.2574
1104.639, 209.5522
1105.121, 206.2627
1105.603, 201.8798
1106.085, 197.8975
1106.567, 194.4431
1107.049, 191.0062
1107.531, 186.8721
1108.013, 182.5750
1108.495, 179.2538
1108.978, 176.6504
1109.460, 173.6377
1109.942, 168.9244
1110.424, 164.9763
1110.906, 162.4641
1111.388, 160.4632
1111.870, 157.7311
1112.352, 154.4326
1112.834, 151.2101
1113.317, 148.1028
1113.799, 145.2607
1114.281, 142.7907
1114.763, 140.5862
1115.245, 138.7719
1115.727, 137.1484
1116.209, 135.1997
1116.691, 132.9261
1117.174, 130.8159
1117.656, 128.9865
1118.138, 127.2614
1118.620, 125.5446
1119.102, 123.8259
1119.584, 122.1239
1120.066, 120.4319
1120.548, 118.5049
1121.031, 116.2497
1121.513, 114.4593
1121.995, 113.6246
1122.477, 112.9798
1122.959, 111.3747
1123.441, 109.4115
1123.923, 108.0054
1124.405, 107.7185
1124.887, 106.7045
1125.370, 104.6432
1125.852, 102.6827
1126.334, 101.5252
1126.816, 100.8983
1127.298, 100.4283
1127.780, 99.99486
1128.262, 99.31184
1128.744, 97.85786
1129.227, 96.80730
1129.709, 96.50631
1130.191, 96.24252
1130.673, 95.21940
1131.155, 93.71733
1131.637, 93.00983
1132.119, 92.93662
1132.601, 92.43722
1133.083, 90.45374
1133.566, 88.58173
1134.048, 87.31047
1134.530, 86.45959
1135.012, 85.92879
1135.494, 85.67886
1135.976, 85.24219
1136.458, 84.57735
1136.940, 83.76146
1137.422, 82.49450
1137.905, 81.44506
1138.387, 81.28630
1138.869, 81.59164
1139.351, 81.26511
1139.833, 80.27377
1140.315, 79.37508
1140.797, 78.69589
1141.279, 78.18214
1141.762, 77.79790
1142.244, 77.54116
1142.726, 77.53015
1143.208, 77.71658
1143.690, 77.40341
1144.172, 76.47097
1144.654, 75.79118
1145.136, 75.72346
1145.619, 75.75594
1146.101, 75.30969
1146.583, 74.57746
1147.065, 73.70859
1147.547, 72.64865
1148.029, 72.01613
1148.511, 71.92422
1148.993, 71.92240
1149.475, 71.88608
1149.958, 71.72978
1150.440, 71.14134
1150.922, 70.37588
1151.404, 69.91325
1151.886, 70.05220
1152.368, 70.06940
1152.850, 69.91818
1153.332, 69.63661
1153.814, 69.14417
1154.297, 68.59555
1154.779, 68.51695
1155.261, 68.71278
1155.743, 68.64027
1156.225, 67.89714
1156.707, 67.12954
1157.189, 66.24512
1157.671, 65.62383
1158.154, 65.77678
1158.636, 66.46329
1159.118, 66.68266
1159.600, 66.49052
1160.082, 66.25072
1160.564, 66.20950
1161.046, 66.04994
1161.528, 65.74139
1162.010, 65.22869
1162.493, 64.18638
1162.975, 62.79816
1163.457, 62.46729
1163.939, 63.17641
1164.421, 63.80553
1164.903, 63.73095
1165.385, 63.37678
1165.867, 62.69471
1166.349, 62.00776
1166.832, 62.00640
1167.314, 62.60908
1167.796, 62.66538
1168.278, 62.04332
1168.760, 61.39752
1169.242, 61.03400
1169.724, 60.93974
1170.206, 61.27472
1170.689, 61.82902
1171.171, 62.12949
1171.653, 62.17973
1172.135, 62.08123
1172.617, 61.86223
1173.099, 61.42491
1173.581, 60.25547
1174.063, 59.20928
1174.546, 59.16076
1175.028, 59.85522
1175.510, 60.11375
1175.992, 59.92175
1176.474, 59.63493
1176.956, 59.28123
1177.438, 59.11779
1177.920, 59.87117
1178.402, 60.56945
1178.885, 60.00653
1179.367, 58.23769
1179.849, 57.49751
1180.331, 57.86723
1180.813, 58.39490
1181.295, 58.90092
1181.777, 59.06027
1182.259, 58.09647
1182.742, 56.86927
1183.224, 56.43885
1183.706, 56.98339
1184.188, 57.10806
1184.670, 56.73619
1185.152, 56.53330
1185.634, 56.96006
1186.116, 57.40324
1186.599, 57.02552
1187.081, 56.28992
1187.563, 55.83608
1188.045, 55.81010
1188.527, 55.73485
1189.009, 55.59114
1189.491, 55.50690
1189.973, 55.49758
1190.455, 55.64936
1190.938, 56.43062
1191.420, 57.31565
1191.902, 57.36344
1192.384, 55.94928
1192.866, 55.14331
1193.348, 55.01414
1193.830, 55.16508
1194.312, 55.58101
1194.794, 55.92632
1195.277, 55.60308
1195.759, 54.91338
1196.241, 54.48991
1196.723, 54.56780
1197.205, 54.52261
1197.687, 54.26336
1198.169, 54.25251
1198.651, 55.40345
1199.134, 56.60934
1199.616, 55.99510
1200.098, 54.27166
1200.580, 53.27576
1201.062, 53.63932
1201.544, 53.94277
1202.026, 54.15467
1202.508, 54.17261
1202.990, 53.77124
1203.473, 53.21952
1203.955, 52.76123
1204.437, 52.45486
1204.919, 52.49973
1205.401, 53.32907
1205.883, 53.41191
1206.365, 52.47843
1206.847, 51.41796
1207.329, 50.93639
1207.812, 50.93077
1208.294, 51.55706
1208.776, 52.58821
1209.258, 53.05473
1209.740, 52.60704
1210.222, 52.28656
1210.704, 52.20018
1211.186, 52.27928
1211.669, 52.64521
1212.151, 53.00291
1212.633, 52.85482
1213.115, 52.30334
1213.597, 52.07273
1214.079, 52.38292
1214.561, 52.49590
1215.043, 52.27010
1215.526, 51.99506
1216.008, 52.03722
1216.490, 52.16613
1216.972, 52.08006
1217.454, 51.79474
1217.936, 51.55788
1218.418, 51.32455
1218.900, 51.36735
1219.382, 51.77482
1219.865, 52.27746
1220.347, 52.55617
1220.829, 52.78027
1221.311, 53.12244
1221.793, 53.59557
1222.275, 54.29966
1222.757, 55.54343
1223.239, 55.59358
1223.722, 53.90780
1224.204, 51.94777
1224.686, 51.07635
1225.168, 50.93412
1225.650, 51.30027
1226.132, 52.11226
1226.614, 52.89883
1227.096, 53.74049
1227.578, 54.07768
1228.061, 53.75643
1228.543, 53.06792
1229.025, 51.93615
1229.507, 50.88665
1229.989, 50.47788
1230.471, 50.70360
1230.953, 51.08277
1231.435, 51.66286
1231.917, 52.00249
1232.400, 52.00533
1232.882, 51.71690
1233.364, 50.72840
1233.846, 49.82978
1234.328, 49.97216
1234.810, 50.93604
1235.292, 51.13909
1235.774, 50.53332
1236.257, 50.31767
1236.739, 50.87843
1237.221, 51.37116
1237.703, 50.82114
1238.185, 50.12656
1238.667, 50.12838
1239.149, 50.63812
1239.631, 50.80613
1240.114, 50.63986
1240.596, 50.37837
1241.078, 50.06709
1241.560, 49.75013
1242.042, 49.44294
1242.524, 49.16048
1243.006, 48.87342
1243.488, 48.62619
1243.970, 48.62644
1244.453, 48.84985
1244.935, 49.14903
1245.417, 49.53527
1245.899, 49.72192
1246.381, 49.39715
1246.863, 48.95148
1247.345, 48.57375
1247.827, 48.27437
1248.309, 48.07821
1248.792, 48.00170
1249.274, 48.20718
1249.756, 48.82042
1250.238, 49.13592
1250.720, 48.43254
1251.202, 47.80318
1251.684, 47.75040
1252.166, 48.03380
1252.649, 48.02885
1253.131, 47.83691
1253.613, 47.79973
1254.095, 48.03616
1254.577, 48.08758
1255.059, 47.61284
1255.541, 47.22559
1256.023, 47.17259
1256.505, 47.29215
1256.988, 47.24701
1257.470, 47.11780
1257.952, 47.11946
1258.434, 47.33313
1258.916, 47.29352
1259.398, 46.80335
1259.880, 46.35842
1260.362, 46.08135
1260.844, 46.01760
1261.327, 46.52338
1261.809, 47.15909
1262.291, 47.12490
1262.773, 46.20956
1263.255, 45.89101
1263.737, 46.47701
1264.219, 46.77543
1264.701, 46.30254
1265.184, 45.68463
1265.666, 45.74444
1266.148, 46.09019
1266.630, 46.16698
1267.112, 45.92696
1267.594, 46.46756
1268.076, 47.97999
1268.558, 48.73333
1269.041, 48.08689
1269.523, 47.06578
1270.005, 46.34211
1270.487, 45.95889
1270.969, 46.18724
1271.451, 46.84697
1271.933, 46.99572
1272.415, 46.63747
1272.897, 46.04387
1273.380, 45.20932
1273.862, 44.59509
1274.344, 44.67999
1274.826, 44.97993
1275.308, 45.27638
1275.790, 45.49085
1276.272, 45.28511
1276.754, 44.75005
1277.237, 44.37721
1277.719, 44.28304
1278.201, 44.23803
1278.683, 44.15953
1279.165, 44.05831
1279.647, 43.91045
1280.129, 43.77465
1280.611, 43.81557
1281.094, 43.96128
1281.576, 43.93439
1282.058, 43.67201
1282.540, 43.78081
1283.022, 44.86761
1283.504, 45.61935
1283.986, 45.66601
1284.468, 45.30267
1284.950, 44.91475
1285.432, 44.46587
1285.915, 43.71679
1286.397, 42.68232
1286.879, 42.53240
1287.361, 43.72770
1287.843, 44.39573
1288.325, 43.99557
1288.807, 43.44498
1289.289, 44.07876
1289.772, 44.91496
1290.254, 44.68513
1290.736, 43.55992
1291.218, 43.31975
1291.700, 44.08966
1292.182, 44.55304
1292.664, 44.48559
1293.146, 44.13739
1293.629, 43.29438
1294.111, 42.65825
1294.593, 43.05489
1295.075, 43.89083
1295.557, 43.86706
1296.039, 43.07682
1296.521, 42.48262
1297.003, 42.20546
1297.485, 42.22741
1297.968, 42.72796
1298.450, 43.30833
1298.932, 43.94966
1299.414, 44.42324
1299.896, 44.22931
1300.378, 43.59895
1300.860, 43.17523
1301.342, 43.01711
1301.824, 43.05762
1302.307, 43.26210
##END=



