##NAMES=Spangolite
##RRUFFID=R080023
##IDEAL CHEMISTRY=Cu^2+^_6_AlS^6+^O_4_(OH)_12_Cl&#183;3H_2_O
##LOCALITY=Mex-Tex mine, Hansonberg Mining District, Bingham, Socorro County, New Mexico, USA
##OWNER=RRUFF
##SOURCE=William W. Pinch
##DESCRIPTION=Deep bluish green doubly terminated and pyramidal crystals associated with quartz
##STATUS=The identification of this mineral has been confirmed by single-crystal X-ray diffraction.
##URL=rruff.info/R080023
93.40625, 65.34505
93.88837, 62.57806
94.37048, 64.94582
94.85260, 71.16011
95.33472, 77.46634
95.81683, 82.83652
96.29895, 87.97341
96.78107, 94.29634
97.26318, 101.8166
97.74530, 110.6799
98.22742, 121.6289
98.70953, 134.6589
99.19165, 146.9155
99.67377, 156.9110
100.1559, 164.9792
100.6380, 175.5602
101.1201, 189.7301
101.6022, 204.1036
102.0844, 213.1046
102.5665, 215.2760
103.0486, 217.3365
103.5307, 221.9536
104.0128, 230.1344
104.4949, 236.6422
104.9771, 241.0706
105.4592, 244.1031
105.9413, 247.1563
106.4234, 249.0960
106.9055, 252.5546
107.3876, 258.6842
107.8698, 268.8267
108.3519, 279.7156
108.8340, 291.7200
109.3161, 304.6904
109.7982, 317.1332
110.2803, 329.0332
110.7624, 340.5313
111.2446, 351.6946
111.7267, 361.5795
112.2088, 372.3076
112.6909, 384.8418
113.1730, 399.1523
113.6551, 412.1970
114.1373, 422.5653
114.6194, 431.9099
115.1015, 441.6912
115.5836, 453.8320
116.0657, 464.9563
116.5478, 473.7603
117.0300, 480.2388
117.5121, 485.4650
117.9942, 489.6067
118.4763, 492.7780
118.9584, 495.1168
119.4405, 495.9934
119.9227, 496.5453
120.4048, 496.8594
120.8869, 496.3970
121.3690, 498.1186
121.8511, 505.7816
122.3332, 517.0557
122.8154, 527.0364
123.2975, 531.3210
123.7796, 533.8328
124.2617, 538.5778
124.7438, 546.3103
125.2259, 556.0624
125.7081, 568.5323
126.1902, 582.5899
126.6723, 591.9679
127.1544, 593.9124
127.6365, 592.7870
128.1186, 592.5069
128.6008, 594.0883
129.0829, 596.6078
129.5650, 599.0710
130.0471, 601.4586
130.5292, 603.2700
131.0113, 604.3738
131.4935, 604.6636
131.9756, 603.4275
132.4577, 599.4753
132.9398, 594.2354
133.4219, 592.0719
133.9040, 593.1405
134.3862, 595.5579
134.8683, 598.3111
135.3504, 601.3888
135.8325, 602.0120
136.3146, 598.0311
136.7967, 590.1517
137.2789, 585.8406
137.7610, 585.8843
138.2431, 587.4461
138.7252, 586.4667
139.2073, 582.3787
139.6894, 578.5574
140.1716, 576.9456
140.6537, 578.2944
141.1358, 575.7977
141.6179, 568.4910
142.1000, 558.3256
142.5821, 549.0620
143.0643, 541.0249
143.5464, 533.0159
144.0285, 524.2737
144.5106, 514.1234
144.9927, 505.0877
145.4748, 497.1503
145.9570, 490.3706
146.4391, 485.4610
146.9212, 483.6589
147.4033, 482.1548
147.8854, 479.4571
148.3675, 473.1347
148.8497, 469.4384
149.3318, 469.0513
149.8139, 471.5621
150.2960, 475.1674
150.7781, 481.2908
151.2602, 487.4380
151.7424, 492.2050
152.2245, 493.5677
152.7066, 495.8691
153.1887, 500.2258
153.6708, 506.3287
154.1529, 510.8066
154.6351, 512.2269
155.1172, 512.7102
155.5993, 513.6811
156.0814, 514.6205
156.5635, 516.7544
157.0456, 520.3047
157.5278, 525.2460
158.0099, 531.4635
158.4920, 540.2090
158.9741, 549.7106
159.4562, 558.4255
159.9383, 564.1277
160.4205, 570.6944
160.9026, 579.9581
161.3847, 592.1681
161.8668, 604.0277
162.3489, 613.4733
162.8310, 622.2375
163.3132, 632.3364
163.7953, 643.3835
164.2774, 656.7419
164.7595, 674.0282
165.2416, 696.0143
165.7237, 717.4991
166.2059, 737.6143
166.6880, 755.5297
167.1701, 769.9800
167.6522, 782.8799
168.1343, 790.5913
168.6164, 790.3596
169.0986, 781.5240
169.5807, 766.3500
170.0628, 746.1598
170.5449, 720.8127
171.0270, 690.1038
171.5091, 647.7757
171.9913, 603.0680
172.4734, 565.3151
172.9555, 536.7051
173.4376, 511.4535
173.9197, 484.3318
174.4018, 456.4185
174.8840, 430.9157
175.3661, 409.1951
175.8482, 391.3036
176.3303, 378.2275
176.8124, 371.3315
177.2945, 366.1552
177.7767, 357.4057
178.2588, 345.9007
178.7409, 335.4164
179.2230, 329.2181
179.7051, 325.4346
180.1872, 320.5308
180.6694, 313.3965
181.1515, 305.7610
181.6336, 300.0451
182.1157, 296.0961
182.5978, 292.8548
183.0799, 289.8511
183.5621, 286.9727
184.0442, 284.0226
184.5263, 281.0408
185.0084, 277.8243
185.4905, 273.5261
185.9726, 268.2240
186.4547, 263.4193
186.9369, 260.7594
187.4190, 259.7127
187.9011, 258.1053
188.3832, 255.2221
188.8653, 251.7488
189.3474, 249.4938
189.8296, 248.4963
190.3117, 247.1683
190.7938, 243.3221
191.2759, 237.4391
191.7580, 233.4453
192.2401, 232.6940
192.7223, 234.1059
193.2044, 234.7675
193.6865, 234.7011
194.1686, 233.7506
194.6507, 230.9482
195.1328, 226.4375
195.6150, 223.7293
196.0971, 224.2693
196.5792, 227.1014
197.0613, 228.3059
197.5434, 227.5991
198.0255, 226.6041
198.5077, 227.1367
198.9898, 229.2765
199.4719, 230.8165
199.9540, 230.8276
200.4361, 229.7812
200.9182, 230.7569
201.4004, 234.4185
201.8825, 238.0674
202.3646, 238.5028
202.8467, 235.2680
203.3288, 232.7093
203.8109, 232.1587
204.2931, 233.3085
204.7752, 233.4462
205.2573, 232.3395
205.7394, 230.7830
206.2215, 229.7005
206.7036, 229.2843
207.1858, 228.3608
207.6679, 226.4928
208.1500, 223.7578
208.6321, 221.2150
209.1142, 218.6287
209.5963, 216.6695
210.0785, 216.2214
210.5606, 217.6274
211.0427, 219.3515
211.5248, 221.4556
212.0069, 223.8933
212.4890, 224.1166
212.9712, 221.1454
213.4533, 217.4674
213.9354, 215.8871
214.4175, 216.8559
214.8996, 218.5803
215.3817, 221.0872
215.8639, 224.3625
216.3460, 225.9658
216.8281, 225.2547
217.3102, 223.7202
217.7923, 223.0307
218.2744, 223.4663
218.7566, 224.0260
219.2387, 224.5868
219.7208, 225.1671
220.2029, 225.1315
220.6850, 224.0533
221.1671, 222.8649
221.6493, 222.6715
222.1314, 223.8761
222.6135, 225.1451
223.0956, 226.1031
223.5777, 226.7365
224.0598, 227.7609
224.5420, 229.3649
225.0241, 231.1613
225.5062, 232.6463
225.9883, 233.2780
226.4704, 234.7479
226.9525, 237.5775
227.4347, 241.8673
227.9168, 245.8880
228.3989, 249.4701
228.8810, 252.9626
229.3631, 256.7027
229.8452, 260.9693
230.3274, 264.9417
230.8095, 267.9083
231.2916, 269.7412
231.7737, 274.5208
232.2558, 284.3958
232.7379, 294.9929
233.2201, 301.9612
233.7022, 304.9634
234.1843, 304.9568
234.6664, 301.5703
235.1485, 294.8027
235.6306, 287.4529
236.1128, 278.9449
236.5949, 270.3454
237.0770, 262.7189
237.5591, 256.7838
238.0412, 250.4570
238.5233, 243.3906
239.0055, 235.5522
239.4876, 227.2096
239.9697, 216.8131
240.4518, 207.5015
240.9339, 202.2737
241.4160, 202.9856
241.8982, 204.1668
242.3803, 205.1596
242.8624, 205.9582
243.3445, 206.3445
243.8266, 206.5609
244.3087, 206.1019
244.7909, 204.3326
245.2730, 200.0972
245.7551, 196.8611
246.2372, 195.1722
246.7193, 194.9651
247.2014, 195.4581
247.6836, 196.9970
248.1657, 198.8079
248.6478, 200.2645
249.1299, 201.1411
249.6120, 202.1192
250.0941, 202.9658
250.5762, 203.8547
251.0584, 206.3930
251.5405, 211.5199
252.0226, 217.0118
252.5047, 221.3435
252.9868, 224.4589
253.4689, 226.6083
253.9511, 227.6276
254.4332, 227.6702
254.9153, 227.4555
255.3974, 226.5672
255.8795, 226.0702
256.3617, 226.8708
256.8438, 229.9048
257.3259, 231.8119
257.8080, 232.2602
258.2901, 231.4013
258.7722, 229.6153
259.2544, 226.1641
259.7365, 223.0122
260.2186, 221.0583
260.7007, 220.2042
261.1828, 221.1298
261.6649, 225.0052
262.1471, 230.3105
262.6292, 232.0644
263.1113, 228.2847
263.5934, 224.9419
264.0755, 225.2307
264.5576, 230.1363
265.0398, 235.2459
265.5219, 240.7257
266.0040, 246.2055
266.4861, 250.7760
266.9682, 253.8840
267.4503, 257.3940
267.9325, 262.4083
268.4146, 269.6437
268.8967, 275.3277
269.3788, 279.0814
269.8609, 281.6748
270.3430, 284.3732
270.8252, 287.1491
271.3073, 290.1230
271.7894, 293.6115
272.2715, 297.8059
272.7536, 300.5614
273.2357, 301.8253
273.7179, 301.6771
274.2000, 299.7704
274.6821, 295.6130
275.1642, 291.9693
275.6463, 290.4665
276.1284, 291.1133
276.6106, 288.8009
277.0927, 282.9413
277.5748, 275.4023
278.0569, 268.3729
278.5390, 261.9265
279.0211, 255.6293
279.5032, 249.5009
279.9854, 243.5326
280.4675, 237.0026
280.9496, 229.7574
281.4317, 222.4720
281.9138, 215.8444
282.3959, 209.8871
282.8781, 204.2616
283.3602, 198.8673
283.8423, 193.7189
284.3244, 188.9133
284.8065, 184.3750
285.2886, 180.4713
285.7708, 177.8943
286.2529, 176.5562
286.7350, 174.7804
287.2171, 172.1016
287.6992, 168.8278
288.1813, 165.6450
288.6635, 162.5076
289.1456, 159.9626
289.6277, 158.8455
290.1098, 158.8980
290.5919, 158.3225
291.0740, 156.5878
291.5562, 154.4487
292.0383, 153.6684
292.5204, 154.1662
293.0025, 154.3863
293.4846, 152.7572
293.9667, 149.9335
294.4489, 148.4160
294.9310, 148.8524
295.4131, 149.7894
295.8952, 148.6612
296.3773, 145.8441
296.8594, 143.7151
297.3416, 144.8061
297.8237, 147.4268
298.3058, 147.2402
298.7879, 143.5194
299.2700, 139.1493
299.7521, 137.3831
300.2343, 137.7745
300.7164, 139.0026
301.1985, 141.3925
301.6806, 143.9193
302.1627, 144.6857
302.6448, 143.5467
303.1270, 142.0196
303.6091, 141.0732
304.0912, 140.7752
304.5733, 141.2246
305.0554, 144.0273
305.5375, 146.7497
306.0197, 145.8070
306.5018, 141.4241
306.9839, 137.4685
307.4660, 136.8708
307.9481, 138.5173
308.4302, 140.8993
308.9124, 144.3517
309.3945, 147.5866
309.8766, 149.6815
310.3587, 150.6943
310.8408, 150.8135
311.3229, 149.2035
311.8051, 147.1731
312.2872, 146.1315
312.7693, 146.7727
313.2514, 147.8220
313.7335, 148.7955
314.2156, 149.6285
314.6978, 150.1490
315.1799, 149.1859
315.6620, 148.5603
316.1441, 149.9054
316.6262, 154.3831
317.1083, 158.3803
317.5905, 160.3830
318.0726, 160.8681
318.5547, 160.6852
319.0368, 159.2973
319.5189, 157.9571
320.0010, 157.2671
320.4832, 157.3232
320.9653, 157.7820
321.4474, 158.7479
321.9295, 159.9994
322.4116, 161.2772
322.8937, 162.4317
323.3759, 163.6983
323.8580, 165.3987
324.3401, 167.5762
324.8222, 169.0191
325.3043, 168.9994
325.7864, 168.4793
326.2686, 168.2005
326.7507, 168.1221
327.2328, 168.4109
327.7149, 169.3693
328.1970, 170.8912
328.6791, 171.9129
329.1613, 171.5225
329.6434, 171.3243
330.1255, 172.1734
330.6076, 175.6772
331.0897, 177.8993
331.5718, 178.4626
332.0540, 177.7029
332.5361, 176.5051
333.0182, 174.1922
333.5003, 172.3146
333.9824, 171.5787
334.4645, 172.3778
334.9467, 173.1281
335.4288, 173.9105
335.9109, 174.5830
336.3930, 174.9812
336.8751, 175.3149
337.3572, 174.8365
337.8394, 172.7978
338.3215, 169.0595
338.8036, 167.6747
339.2857, 169.5480
339.7678, 172.2017
340.2499, 172.7247
340.7321, 170.6709
341.2142, 169.0958
341.6963, 168.7278
342.1784, 169.3698
342.6605, 170.0359
343.1426, 170.6094
343.6248, 171.7252
344.1069, 174.4505
344.5890, 178.6366
345.0711, 181.6772
345.5532, 183.2620
346.0353, 183.3560
346.5175, 180.9129
346.9996, 175.9648
347.4817, 171.9828
347.9638, 171.9344
348.4459, 174.7000
348.9280, 176.2624
349.4102, 176.2749
349.8923, 175.2918
350.3744, 173.2396
350.8565, 170.5586
351.3386, 168.9334
351.8207, 170.6411
352.3029, 173.4314
352.7850, 173.1502
353.2671, 169.7093
353.7492, 165.9650
354.2313, 163.9855
354.7134, 163.4607
355.1956, 163.8971
355.6777, 165.8031
356.1598, 167.9633
356.6419, 169.5705
357.1240, 170.5700
357.6061, 170.6581
358.0883, 168.2627
358.5704, 165.5137
359.0525, 164.6997
359.5346, 167.0784
360.0167, 169.9084
360.4988, 172.4607
360.9810, 174.3003
361.4631, 174.4277
361.9452, 169.9069
362.4273, 165.4440
362.9094, 164.0665
363.3915, 166.8143
363.8737, 169.3029
364.3558, 169.5734
364.8379, 168.9717
365.3200, 169.0683
365.8021, 171.5479
366.2842, 173.4594
366.7664, 173.3269
367.2485, 171.1040
367.7306, 170.3083
368.2127, 172.4264
368.6948, 175.4326
369.1769, 178.0029
369.6591, 180.5048
370.1412, 182.0472
370.6233, 181.8956
371.1054, 180.6498
371.5875, 180.5780
372.0696, 181.9622
372.5518, 184.1802
373.0339, 187.1732
373.5160, 191.5300
373.9981, 194.8957
374.4802, 196.6755
374.9623, 197.9776
375.4445, 200.8819
375.9266, 206.4439
376.4087, 210.6631
376.8908, 211.7032
377.3729, 209.7361
377.8550, 210.2465
378.3372, 213.8243
378.8193, 218.2961
379.3014, 221.4286
379.7835, 223.1799
380.2656, 225.0651
380.7477, 227.2058
381.2299, 229.7943
381.7120, 233.8669
382.1941, 239.4294
382.6762, 244.4947
383.1583, 246.4608
383.6404, 246.5463
384.1226, 250.0125
384.6047, 258.0265
385.0868, 267.0204
385.5689, 272.0544
386.0510, 274.0897
386.5331, 276.8052
387.0153, 281.8445
387.4974, 288.6693
387.9795, 297.5708
388.4616, 308.5205
388.9437, 318.0665
389.4258, 321.2696
389.9080, 321.9804
390.3901, 325.8217
390.8722, 336.7820
391.3543, 348.7195
391.8364, 356.5251
392.3185, 361.2761
392.8007, 367.2278
393.2828, 376.7666
393.7649, 388.0255
394.2470, 399.8856
394.7291, 412.6168
395.2112, 424.6567
395.6934, 434.6542
396.1755, 443.7775
396.6576, 453.7769
397.1397, 466.6262
397.6218, 478.9300
398.1039, 489.1488
398.5861, 496.9708
399.0682, 505.7611
399.5503, 514.2067
400.0324, 524.7880
400.5145, 539.3216
400.9966, 563.1004
401.4788, 583.4714
401.9609, 598.0000
402.4430, 608.3549
402.9251, 621.0665
403.4072, 637.2822
403.8893, 654.1909
404.3714, 670.4117
404.8535, 685.8519
405.3357, 701.6528
405.8178, 718.3854
406.2999, 734.4797
406.7820, 747.5388
407.2641, 757.3467
407.7462, 765.2186
408.2284, 770.8015
408.7105, 774.7004
409.1926, 781.4606
409.6747, 791.6712
410.1568, 800.4340
410.6389, 804.1691
411.1211, 802.9736
411.6032, 797.0826
412.0853, 785.6412
412.5674, 771.2418
413.0495, 757.0684
413.5316, 742.9310
414.0138, 728.2906
414.4959, 712.8154
414.9780, 696.4489
415.4601, 679.1921
415.9422, 660.8561
416.4243, 642.1256
416.9065, 623.1513
417.3886, 604.1111
417.8707, 585.6661
418.3528, 567.9656
418.8349, 550.7789
419.3170, 533.8744
419.7992, 517.0884
420.2813, 500.6010
420.7634, 482.4161
421.2455, 465.5370
421.7276, 452.3589
422.2097, 444.7630
422.6919, 436.9074
423.1740, 425.8698
423.6561, 413.9809
424.1382, 404.5459
424.6203, 401.4471
425.1024, 397.7184
425.5846, 391.2968
426.0667, 382.0234
426.5488, 373.1985
427.0309, 363.6998
427.5130, 355.5424
427.9951, 350.1922
428.4773, 348.5687
428.9594, 347.8155
429.4415, 347.9890
429.9236, 348.7972
430.4057, 349.5643
430.8878, 350.3350
431.3700, 350.9095
431.8521, 350.9103
432.3342, 350.3397
432.8163, 351.2176
433.2984, 353.8576
433.7805, 356.8666
434.2627, 358.9237
434.7448, 360.0276
435.2269, 359.8228
435.7090, 357.0938
436.1911, 354.1740
436.6732, 356.7760
437.1554, 364.2628
437.6375, 371.4496
438.1196, 373.8295
438.6017, 373.9540
439.0838, 376.1316
439.5659, 381.1219
440.0481, 386.7515
440.5302, 392.3027
441.0123, 397.1209
441.4944, 400.1088
441.9765, 398.2336
442.4586, 396.5429
442.9408, 398.7227
443.4229, 404.3322
443.9050, 409.5380
444.3871, 412.5445
444.8692, 414.7181
445.3513, 416.8781
445.8335, 418.9527
446.3156, 421.4073
446.7977, 424.7510
447.2798, 428.4453
447.7619, 431.5245
448.2440, 433.3346
448.7262, 435.1191
449.2083, 436.8259
449.6904, 438.3856
450.1725, 441.4998
450.6546, 447.0921
451.1367, 453.0389
451.6189, 457.8025
452.1010, 461.3136
452.5831, 463.8516
453.0652, 465.2310
453.5473, 465.9135
454.0294, 467.1363
454.5116, 469.0416
454.9937, 470.3479
455.4758, 469.9865
455.9579, 468.3988
456.4400, 468.5211
456.9221, 470.5673
457.4043, 472.2923
457.8864, 470.9750
458.3685, 467.5245
458.8506, 464.7260
459.3327, 463.8831
459.8148, 462.9645
460.2970, 458.6876
460.7791, 452.0714
461.2612, 446.6225
461.7433, 446.4404
462.2254, 446.9264
462.7076, 443.4184
463.1897, 435.1083
463.6718, 427.4245
464.1539, 422.7574
464.6360, 420.3470
465.1181, 419.5397
465.6003, 422.4736
466.0824, 424.4762
466.5645, 424.6162
467.0466, 422.9451
467.5287, 419.6856
468.0108, 411.1015
468.4930, 404.3824
468.9751, 402.7397
469.4572, 408.2139
469.9393, 411.0921
470.4214, 410.1069
470.9035, 407.6440
471.3857, 406.0128
471.8678, 404.9490
472.3499, 405.6993
472.8320, 409.0703
473.3141, 414.1575
473.7962, 417.8141
474.2784, 419.8945
474.7605, 421.6242
475.2426, 423.6098
475.7247, 425.8492
476.2068, 428.3311
476.6889, 431.1210
477.1711, 433.8396
477.6532, 436.3684
478.1353, 438.5150
478.6174, 439.5146
479.0995, 437.5401
479.5816, 436.1104
480.0638, 440.3712
480.5459, 448.9369
481.0280, 456.6029
481.5101, 460.7671
481.9922, 462.6387
482.4743, 462.3991
482.9565, 459.5075
483.4386, 457.9304
483.9207, 460.6573
484.4028, 464.9432
484.8849, 467.9155
485.3670, 468.0806
485.8492, 467.8558
486.3313, 467.4881
486.8134, 467.0397
487.2955, 466.7771
487.7776, 466.9758
488.2597, 467.0434
488.7419, 466.4591
489.2240, 464.7140
489.7061, 465.1171
490.1882, 468.7569
490.6703, 472.9461
491.1524, 473.8172
491.6346, 470.5492
492.1167, 470.8807
492.5988, 477.6731
493.0809, 487.6550
493.5630, 491.6294
494.0451, 489.8165
494.5273, 488.3326
495.0094, 490.4625
495.4915, 495.6024
495.9736, 503.2915
496.4557, 513.6326
496.9378, 523.4109
497.4200, 528.3759
497.9021, 531.1911
498.3842, 535.9175
498.8663, 544.9017
499.3484, 554.5980
499.8305, 562.8034
500.3127, 569.9947
500.7948, 577.3444
501.2769, 584.3259
501.7590, 592.4886
502.2411, 603.3800
502.7232, 617.8800
503.2054, 630.0862
503.6875, 635.5391
504.1696, 640.6671
504.6517, 650.2081
505.1338, 667.7675
505.6159, 683.1723
506.0981, 694.2045
506.5802, 703.3857
507.0623, 717.0784
507.5444, 737.1303
508.0265, 756.3507
508.5086, 772.3934
508.9908, 785.4576
509.4729, 796.5587
509.9550, 805.3759
510.4371, 814.4269
510.9192, 826.9127
511.4013, 841.6534
511.8835, 853.4055
512.3655, 860.7722
512.8477, 867.2746
513.3298, 877.3192
513.8119, 889.7234
514.2940, 901.6597
514.7761, 913.5291
515.2582, 923.1478
515.7404, 927.9849
516.2225, 928.5965
516.7046, 929.1005
517.1867, 931.5590
517.6688, 934.3571
518.1509, 936.6621
518.6331, 938.8934
519.1152, 939.2640
519.5973, 936.5643
520.0794, 932.1291
520.5615, 927.8793
521.0436, 925.9312
521.5258, 920.7284
522.0079, 910.6497
522.4900, 896.5538
522.9721, 882.4987
523.4542, 868.8505
523.9363, 854.9595
524.4185, 841.0648
524.9006, 827.0912
525.3827, 810.2495
525.8648, 790.1303
526.3469, 768.9098
526.8290, 749.5966
527.3112, 731.3674
527.7933, 710.4417
528.2754, 684.5460
528.7575, 657.7957
529.2396, 635.0893
529.7217, 615.2524
530.2039, 595.2831
530.6860, 572.0471
531.1681, 549.0804
531.6502, 528.3389
532.1323, 509.8387
532.6144, 492.9484
533.0966, 478.8065
533.5787, 465.1203
534.0608, 450.0002
534.5429, 431.9903
535.0250, 414.5817
535.5071, 396.8859
535.9893, 380.5458
536.4714, 368.8280
536.9535, 364.9633
537.4356, 359.4285
537.9177, 349.5633
538.3998, 336.2137
538.8820, 324.9569
539.3641, 316.0201
539.8462, 308.6983
540.3283, 303.6837
540.8104, 300.4646
541.2925, 294.6935
541.7747, 285.8832
542.2568, 276.7625
542.7389, 270.7959
543.2210, 266.7581
543.7031, 261.5577
544.1852, 253.3342
544.6674, 245.2864
545.1495, 240.9463
545.6316, 239.1841
546.1137, 237.1770
546.5958, 233.5597
547.0779, 229.4390
547.5601, 225.4192
548.0422, 221.5458
548.5243, 217.3007
549.0064, 211.1634
549.4885, 205.6326
549.9706, 202.3842
550.4528, 203.3493
550.9349, 202.8969
551.4170, 200.3524
551.8991, 196.9104
552.3812, 194.3599
552.8633, 192.9409
553.3455, 191.4523
553.8276, 189.6714
554.3097, 187.5879
554.7918, 184.7534
555.2739, 181.2155
555.7560, 178.4915
556.2382, 178.9284
556.7203, 180.5926
557.2024, 178.2911
557.6845, 171.6694
558.1666, 165.6353
558.6487, 165.0914
559.1309, 167.2786
559.6130, 168.8708
560.0951, 169.5331
560.5772, 168.5350
561.0593, 163.4422
561.5414, 156.7508
562.0236, 152.9352
562.5057, 156.5585
562.9878, 159.4997
563.4699, 159.0332
563.9520, 155.5217
564.4341, 152.8159
564.9163, 150.7973
565.3984, 149.7674
565.8805, 150.5104
566.3626, 153.8213
566.8447, 153.3127
567.3268, 147.8654
567.8090, 141.7100
568.2911, 140.0718
568.7732, 142.4508
569.2553, 144.5845
569.7374, 145.7356
570.2195, 146.0174
570.7017, 145.2204
571.1838, 143.6432
571.6659, 142.2505
572.1480, 142.2533
572.6301, 142.0840
573.1122, 139.4543
573.5944, 134.8061
574.0765, 132.1990
574.5586, 136.1233
575.0407, 140.6400
575.5228, 141.8867
576.0049, 137.8696
576.4871, 134.8820
576.9692, 133.6420
577.4513, 133.4911
577.9334, 133.9726
578.4155, 135.6179
578.8976, 136.5956
579.3798, 136.5564
579.8619, 135.8387
580.3440, 135.1207
580.8261, 134.3793
581.3082, 133.9388
581.7903, 133.7599
582.2725, 134.0423
582.7546, 135.8701
583.2367, 139.0985
583.7188, 141.8185
584.2009, 142.2510
584.6830, 141.4644
585.1652, 140.8277
585.6473, 140.5462
586.1294, 140.1900
586.6115, 138.8201
587.0936, 137.5336
587.5757, 137.5061
588.0579, 140.0672
588.5400, 142.6887
589.0221, 144.9173
589.5042, 146.9000
589.9863, 148.9812
590.4684, 151.1336
590.9506, 153.3880
591.4327, 155.7461
591.9148, 158.2092
592.3969, 160.8932
592.8790, 163.9105
593.3611, 166.6716
593.8433, 168.4942
594.3254, 169.6163
594.8075, 171.8078
595.2896, 175.2668
595.7717, 178.5100
596.2538, 178.9176
596.7360, 178.3101
597.2181, 180.2012
597.7002, 186.3122
598.1823, 193.1960
598.6644, 199.0916
599.1465, 204.0908
599.6287, 208.3654
600.1108, 210.5308
600.5929, 213.4099
601.0750, 218.6193
601.5571, 225.7272
602.0392, 231.1447
602.5214, 234.1111
603.0035, 236.4099
603.4856, 238.5031
603.9677, 240.3407
604.4498, 243.1277
604.9319, 247.2118
605.4141, 251.2209
605.8962, 252.9326
606.3783, 252.9927
606.8604, 256.3842
607.3425, 264.5719
607.8246, 272.7538
608.3068, 274.3728
608.7889, 271.6595
609.2710, 269.3598
609.7531, 269.5910
610.2352, 270.3190
610.7173, 270.4864
611.1995, 270.1171
611.6816, 269.2879
612.1637, 267.9885
612.6458, 266.2710
613.1279, 263.8882
613.6100, 260.8377
614.0922, 258.5129
614.5743, 258.1652
615.0564, 256.8600
615.5385, 252.4406
616.0206, 243.9420
616.5027, 238.2319
616.9849, 236.1373
617.4670, 234.3586
617.9491, 228.6886
618.4312, 219.8714
618.9133, 211.8796
619.3954, 205.5523
619.8776, 199.9843
620.3597, 193.7081
620.8418, 187.3156
621.3239, 182.2400
621.8060, 181.0181
622.2881, 179.3610
622.7703, 174.0401
623.2524, 165.9757
623.7345, 159.0209
624.2166, 154.9283
624.6987, 151.4038
625.1808, 147.6909
625.6630, 143.7621
626.1451, 139.6641
626.6272, 135.1595
627.1093, 130.7986
627.5914, 126.9443
628.0735, 123.6115
628.5557, 120.4689
629.0378, 117.4244
629.5199, 114.9466
630.0020, 114.3065
630.4841, 114.7474
630.9662, 113.7279
631.4484, 110.0953
631.9305, 105.9029
632.4126, 102.9747
632.8947, 100.9831
633.3768, 99.19559
633.8589, 96.70614
634.3411, 95.00043
634.8232, 95.63131
635.3053, 97.98820
635.7874, 98.39067
636.2695, 94.48605
636.7516, 90.77310
637.2338, 88.95442
637.7159, 89.12780
638.1980, 88.52501
638.6801, 86.91827
639.1622, 85.16924
639.6443, 83.89299
640.1265, 83.07147
640.6086, 82.44505
641.0907, 81.98451
641.5728, 81.80356
642.0549, 82.08936
642.5370, 82.72542
643.0192, 83.58401
643.5013, 84.93321
643.9834, 85.89091
644.4655, 85.72714
644.9476, 84.83740
645.4297, 83.88829
645.9119, 82.80467
646.3940, 81.97459
646.8761, 81.95578
647.3582, 82.35194
647.8403, 81.45762
648.3224, 78.26735
648.8046, 75.79315
649.2867, 75.49635
649.7688, 77.04556
650.2509, 77.02610
650.7330, 75.26602
651.2151, 73.76101
651.6973, 74.19123
652.1794, 75.95897
652.6615, 78.05583
653.1436, 80.47898
653.6257, 81.78380
654.1078, 79.75323
654.5900, 76.48669
655.0721, 74.30103
655.5542, 74.27104
656.0363, 74.24237
656.5184, 73.00233
657.0005, 71.61314
657.4827, 71.58043
657.9648, 74.77558
658.4469, 76.19093
658.9290, 74.72473
659.4111, 71.42433
659.8932, 68.40962
660.3754, 65.52831
660.8575, 64.32354
661.3396, 66.02248
661.8217, 69.36198
662.3038, 71.63338
662.7859, 72.82008
663.2681, 72.81648
663.7502, 70.51566
664.2323, 67.66277
664.7144, 65.83926
665.1965, 65.12645
665.6786, 65.08318
666.1608, 65.84789
666.6429, 66.98146
667.1250, 68.36461
667.6071, 70.46555
668.0892, 71.39297
668.5714, 70.63348
669.0535, 69.27216
669.5356, 68.07796
670.0177, 66.92988
670.4998, 67.01363
670.9819, 68.88419
671.4641, 70.86108
671.9462, 69.81725
672.4283, 66.62987
672.9104, 64.81139
673.3925, 66.19134
673.8746, 68.02950
674.3568, 66.88794
674.8389, 64.12628
675.3210, 62.67178
675.8031, 66.19099
676.2852, 68.75974
676.7673, 67.06256
677.2495, 61.92267
677.7316, 58.78785
678.2137, 58.54287
678.6958, 59.31751
679.1779, 60.67804
679.6600, 62.61182
680.1422, 64.55636
680.6243, 66.66434
681.1064, 68.05727
681.5885, 68.07275
682.0706, 66.89989
682.5527, 64.60770
683.0349, 61.11892
683.5170, 58.62770
683.9991, 59.65729
684.4812, 62.18943
684.9633, 64.10389
685.4454, 65.02924
685.9276, 65.15664
686.4097, 64.01724
686.8918, 62.37035
687.3739, 61.00257
687.8560, 59.63827
688.3381, 59.16536
688.8203, 60.08245
689.3024, 61.49255
689.7845, 61.90693
690.2666, 61.27901
690.7487, 60.17347
691.2308, 58.35747
691.7130, 56.70943
692.1951, 57.37841
692.6772, 59.67272
693.1593, 61.08994
693.6414, 59.24317
694.1235, 57.00729
694.6057, 56.89886
695.0878, 58.42227
695.5699, 59.39769
696.0520, 58.72430
696.5341, 57.77780
697.0162, 56.95113
697.4984, 56.25654
697.9805, 55.97225
698.4626, 56.14501
698.9447, 56.63792
699.4268, 57.52575
699.9089, 58.77522
700.3911, 59.81550
700.8732, 60.69987
701.3553, 60.70834
701.8374, 57.80898
702.3195, 54.01506
702.8016, 53.52227
703.2838, 57.44065
703.7659, 60.49419
704.2480, 58.11709
704.7301, 54.00831
705.2122, 51.69290
705.6943, 52.78660
706.1765, 54.18249
706.6586, 56.05285
707.1407, 57.80068
707.6228, 58.70002
708.1049, 58.59440
708.5870, 58.26584
709.0692, 57.80966
709.5513, 57.21659
710.0334, 56.02467
710.5155, 54.51207
710.9976, 54.30305
711.4797, 56.91291
711.9618, 59.78008
712.4439, 60.03563
712.9260, 58.45478
713.4081, 56.92162
713.8903, 56.19054
714.3724, 55.64480
714.8545, 54.84426
715.3366, 53.94114
715.8187, 53.89489
716.3008, 55.36264
716.7830, 56.56765
717.2651, 56.92389
717.7472, 56.49336
718.2293, 55.59998
718.7114, 54.20197
719.1935, 53.04425
719.6757, 52.54526
720.1578, 52.62716
720.6399, 53.36862
721.1220, 54.71147
721.6041, 55.86406
722.0862, 56.19032
722.5684, 56.18467
723.0505, 56.13832
723.5326, 56.03226
724.0147, 56.17974
724.4968, 57.36843
724.9789, 58.17469
725.4611, 57.47905
725.9432, 54.59226
726.4253, 52.98768
726.9074, 52.89289
727.3895, 53.41491
727.8716, 53.51626
728.3538, 53.39163
728.8359, 53.91802
729.3180, 55.35673
729.8001, 56.91966
730.2822, 57.98204
730.7643, 58.71032
731.2465, 59.33578
731.7286, 60.26255
732.2107, 60.56379
732.6928, 59.36663
733.1749, 57.59983
733.6570, 56.70082
734.1392, 57.04987
734.6213, 57.44641
735.1034, 57.74566
735.5855, 57.99306
736.0676, 58.51412
736.5497, 59.24325
737.0319, 59.05249
737.5140, 56.96346
737.9961, 54.63045
738.4782, 54.52924
738.9603, 55.96281
739.4424, 57.13553
739.9246, 56.63010
740.4067, 56.29432
740.8888, 57.80438
741.3709, 60.43280
741.8530, 60.65471
742.3351, 56.30545
742.8173, 52.67667
743.2994, 51.22517
743.7815, 51.68850
744.2636, 52.97783
744.7457, 55.17603
745.2278, 57.06144
745.7100, 57.76339
746.1921, 57.72718
746.6742, 57.74056
747.1563, 57.78043
747.6384, 57.68129
748.1205, 57.06697
748.6027, 56.50077
749.0848, 56.37377
749.5669, 56.72117
750.0490, 57.23655
750.5311, 58.11907
751.0132, 58.89602
751.4954, 59.33568
751.9775, 59.41481
752.4596, 59.62405
752.9417, 60.08552
753.4238, 60.07453
753.9059, 58.09356
754.3881, 55.32587
754.8702, 55.21508
755.3523, 58.05571
755.8344, 61.02266
756.3165, 62.27010
756.7986, 62.53732
757.2808, 62.24506
757.7629, 61.08167
758.2450, 60.80000
758.7271, 63.19189
759.2092, 65.31388
759.6913, 64.77502
760.1735, 60.46235
760.6556, 58.21371
761.1377, 58.40812
761.6198, 59.91111
762.1019, 62.24832
762.5840, 64.91104
763.0662, 65.85979
763.5483, 64.43016
764.0304, 63.06024
764.5125, 64.46364
764.9946, 66.77821
765.4767, 67.81488
765.9589, 66.34571
766.4410, 64.87762
766.9231, 63.26805
767.4052, 62.20617
767.8873, 62.68800
768.3694, 65.32452
768.8516, 67.01085
769.3337, 67.21733
769.8158, 66.83910
770.2979, 67.29060
770.7800, 68.29969
771.2621, 68.80231
771.7443, 68.28895
772.2264, 67.76408
772.7085, 68.33583
773.1906, 69.37621
773.6727, 69.94853
774.1548, 68.71997
774.6370, 68.34816
775.1191, 70.11662
775.6012, 72.60521
776.0833, 73.38435
776.5654, 71.90282
777.0475, 71.00395
777.5297, 71.15889
778.0118, 72.23866
778.4939, 75.07793
778.9760, 78.85909
779.4581, 80.30259
779.9402, 76.50167
780.4224, 72.44258
780.9045, 72.25008
781.3866, 74.63585
781.8687, 77.19638
782.3508, 80.58241
782.8329, 82.39993
783.3151, 81.11085
783.7972, 78.43184
784.2793, 78.63612
784.7614, 82.47718
785.2435, 84.92345
785.7256, 84.05508
786.2078, 81.75352
786.6899, 81.99030
787.1720, 84.15018
787.6541, 85.96725
788.1362, 87.04430
788.6183, 86.87580
789.1005, 83.52913
789.5826, 78.66322
790.0647, 76.52538
790.5468, 80.22666
791.0289, 84.20885
791.5110, 87.80936
791.9932, 90.80701
792.4753, 92.08124
792.9574, 91.44422
793.4395, 90.91646
793.9216, 91.51329
794.4037, 92.30889
794.8859, 90.65910
795.3680, 87.55438
795.8501, 86.22740
796.3322, 90.29112
796.8143, 94.57347
797.2964, 95.93552
797.7786, 95.11668
798.2607, 94.86312
798.7428, 96.39316
799.2249, 97.02313
799.7070, 95.61156
800.1891, 93.07069
800.6713, 92.31477
801.1534, 93.36028
801.6355, 95.95624
802.1176, 101.5309
802.5997, 107.1060
803.0818, 107.4376
803.5640, 103.9441
804.0461, 100.9420
804.5282, 100.2601
805.0103, 100.6250
805.4924, 102.3935
805.9745, 104.9308
806.4567, 105.5398
806.9388, 103.2536
807.4209, 101.0578
807.9030, 99.60635
808.3851, 98.92831
808.8672, 99.51566
809.3494, 101.2030
809.8315, 102.4875
810.3136, 102.5407
810.7957, 101.9440
811.2778, 100.8666
811.7599, 99.59238
812.2421, 98.91730
812.7242, 99.51523
813.2063, 100.3367
813.6884, 101.4989
814.1705, 102.6239
814.6526, 102.0229
815.1348, 98.82984
815.6169, 97.68154
816.0990, 101.0029
816.5811, 106.1542
817.0632, 107.0265
817.5453, 104.4225
818.0275, 101.6151
818.5096, 99.81682
818.9917, 98.70680
819.4738, 98.55461
819.9559, 98.94258
820.4380, 98.76484
820.9202, 96.86732
821.4023, 95.63920
821.8844, 95.90802
822.3665, 96.89825
822.8486, 96.18901
823.3307, 93.70375
823.8129, 92.33864
824.2950, 93.45264
824.7771, 95.59895
825.2592, 97.51337
825.7413, 98.73698
826.2234, 98.27093
826.7056, 93.26451
827.1877, 89.15246
827.6698, 88.83530
828.1519, 90.75316
828.6340, 91.06039
829.1161, 88.54988
829.5983, 87.40787
830.0804, 88.91010
830.5625, 91.44534
831.0446, 91.94722
831.5267, 90.65462
832.0089, 88.64271
832.4910, 85.59483
832.9731, 83.23013
833.4552, 83.81555
833.9373, 85.94467
834.4194, 87.34554
834.9016, 87.27192
835.3837, 86.53289
835.8658, 84.55947
836.3479, 82.48779
836.8300, 82.50487
837.3121, 84.97371
837.7943, 85.65366
838.2764, 83.29985
838.7585, 80.49104
839.2406, 81.07950
839.7227, 83.78198
840.2048, 86.10674
840.6870, 87.67290
841.1691, 88.09921
841.6512, 86.18225
842.1333, 83.52252
842.6154, 82.10578
843.0975, 82.76038
843.5797, 82.91229
844.0618, 82.25523
844.5439, 81.45839
845.0260, 81.32329
845.5081, 81.76778
845.9902, 82.56599
846.4724, 83.79860
846.9545, 84.63387
847.4366, 84.18520
847.9187, 83.03243
848.4008, 81.61277
848.8829, 79.38482
849.3651, 78.69255
849.8472, 80.88070
850.3293, 83.56189
850.8114, 84.98375
851.2935, 85.02630
851.7756, 84.94388
852.2578, 84.73585
852.7399, 84.64397
853.2220, 85.01733
853.7041, 85.59892
854.1862, 85.95969
854.6683, 86.03895
855.1505, 86.13844
855.6326, 86.75797
856.1147, 87.14104
856.5968, 86.51616
857.0789, 84.63982
857.5610, 84.18825
858.0432, 85.47118
858.5253, 87.23875
859.0074, 89.16407
859.4895, 90.90559
859.9716, 90.86466
860.4537, 89.21031
860.9359, 87.78065
861.4180, 87.57191
861.9001, 88.15412
862.3822, 89.79012
862.8643, 92.33195
863.3464, 93.36565
863.8286, 91.61761
864.3107, 90.24707
864.7928, 90.47980
865.2749, 91.94770
865.7570, 93.19418
866.2391, 94.20361
866.7213, 94.51283
867.2034, 92.76639
867.6855, 91.10486
868.1676, 92.43282
868.6497, 95.76173
869.1318, 98.22227
869.6140, 98.03532
870.0961, 97.90176
870.5782, 98.82133
871.0603, 100.1333
871.5424, 99.85078
872.0245, 97.70571
872.5067, 96.58708
872.9888, 97.34731
873.4709, 99.31630
873.9530, 102.4590
874.4351, 105.9254
874.9172, 107.7205
875.3994, 105.5850
875.8815, 104.1406
876.3636, 106.1659
876.8457, 109.4151
877.3278, 110.6848
877.8099, 109.1674
878.2921, 108.1244
878.7742, 107.8529
879.2563, 108.0815
879.7384, 108.7294
880.2205, 109.5841
880.7026, 109.9208
881.1848, 109.4859
881.6669, 109.2646
882.1490, 110.0612
882.6311, 111.2790
883.1132, 112.5217
883.5953, 114.1029
884.0775, 114.2943
884.5596, 112.0645
885.0417, 110.3850
885.5238, 112.3389
886.0059, 117.1106
886.4880, 119.3505
886.9702, 118.9374
887.4523, 118.1359
887.9344, 118.7741
888.4165, 119.6187
888.8986, 119.4983
889.3807, 118.3546
889.8629, 117.3981
890.3450, 116.0477
890.8271, 116.0484
891.3092, 118.6438
891.7913, 123.1110
892.2734, 125.3861
892.7556, 125.5361
893.2377, 125.3490
893.7198, 125.6311
894.2019, 126.1484
894.6840, 126.8826
895.1661, 127.6659
895.6483, 128.0247
896.1304, 126.8305
896.6125, 126.5012
897.0946, 128.1949
897.5767, 130.6382
898.0588, 130.6758
898.5410, 128.1778
899.0231, 126.9848
899.5052, 128.3536
899.9873, 130.3551
900.4694, 130.1268
900.9515, 128.9862
901.4337, 129.3435
901.9158, 133.3661
902.3979, 135.9311
902.8800, 134.4129
903.3621, 131.6681
903.8442, 129.9477
904.3264, 129.3233
904.8085, 129.5943
905.2906, 130.9373
905.7727, 132.2000
906.2548, 131.7829
906.7369, 130.7500
907.2191, 131.0208
907.7012, 132.8229
908.1833, 134.4896
908.6654, 135.4005
909.1475, 135.8105
909.6296, 135.5910
910.1118, 134.7724
910.5939, 135.5138
911.0760, 138.2517
911.5581, 140.1834
912.0402, 138.9736
912.5223, 136.3339
913.0045, 136.0919
913.4866, 137.5731
913.9687, 138.3156
914.4508, 135.8623
914.9329, 133.7899
915.4150, 133.8244
915.8972, 135.3361
916.3793, 136.9041
916.8614, 138.7436
917.3435, 139.6917
917.8256, 139.4352
918.3077, 138.3028
918.7899, 136.0493
919.2720, 133.4128
919.7541, 132.1687
920.2362, 133.0513
920.7183, 134.8729
921.2004, 138.4882
921.6826, 141.9076
922.1647, 143.0965
922.6468, 141.2677
923.1289, 139.4669
923.6110, 137.6222
924.0931, 136.1129
924.5753, 135.2472
925.0574, 135.0199
925.5395, 135.6828
926.0216, 137.2301
926.5037, 138.6453
926.9858, 139.8224
927.4680, 140.3187
927.9501, 139.3601
928.4322, 137.1385
928.9143, 136.0654
929.3964, 136.2285
929.8785, 137.2978
930.3607, 139.6634
930.8428, 142.4186
931.3249, 143.6250
931.8070, 143.4489
932.2891, 142.4406
932.7712, 139.3861
933.2534, 137.1750
933.7355, 137.5555
934.2176, 139.4416
934.6997, 140.4665
935.1818, 139.9229
935.6639, 141.5260
936.1461, 146.6574
936.6282, 151.5420
937.1103, 149.5798
937.5924, 143.9115
938.0745, 141.3671
938.5566, 143.5325
939.0388, 147.2824
939.5209, 153.3998
940.0030, 158.6140
940.4851, 159.8020
940.9672, 156.0869
941.4493, 156.0730
941.9315, 160.4922
942.4136, 165.1464
942.8957, 167.1563
943.3778, 167.4376
943.8599, 166.7067
944.3420, 165.5944
944.8242, 167.0982
945.3063, 175.1465
945.7884, 183.4609
946.2705, 188.9170
946.7526, 192.7719
947.2347, 198.4587
947.7169, 206.1677
948.1990, 214.6714
948.6811, 224.0572
949.1632, 233.1895
949.6453, 238.7339
950.1274, 243.2541
950.6096, 251.7540
951.0917, 267.8503
951.5738, 283.0912
952.0559, 293.2115
952.5380, 302.8065
953.0201, 315.1868
953.5023, 330.4088
953.9844, 348.4930
954.4665, 369.4961
954.9486, 391.2061
955.4307, 411.4814
955.9128, 431.5055
956.3950, 452.4011
956.8771, 474.3372
957.3591, 498.1199
957.8412, 526.4184
958.3234, 553.8523
958.8055, 578.3208
959.2876, 601.1522
959.7697, 627.4825
960.2518, 657.3815
960.7339, 687.9655
961.2161, 717.6583
961.6982, 749.1708
962.1803, 787.7863
962.6624, 829.7733
963.1445, 869.9160
963.6266, 907.4105
964.1088, 941.9683
964.5909, 973.6774
965.0730, 1002.953
965.5551, 1032.020
966.0372, 1059.727
966.5193, 1075.644
967.0015, 1078.847
967.4836, 1075.522
967.9657, 1070.092
968.4478, 1060.427
968.9299, 1044.122
969.4120, 1020.983
969.8942, 995.8283
970.3763, 968.8013
970.8584, 939.7346
971.3405, 907.2855
971.8226, 873.5060
972.3047, 843.1266
972.7869, 815.7281
973.2690, 789.0151
973.7511, 761.2635
974.2332, 735.1994
974.7153, 711.4403
975.1974, 690.5894
975.6796, 673.5609
976.1617, 663.4811
976.6438, 647.3860
977.1259, 623.2634
977.6080, 598.7441
978.0901, 583.1697
978.5723, 572.9447
979.0544, 560.6757
979.5365, 545.7428
980.0186, 530.3583
980.5007, 515.5563
980.9828, 500.8765
981.4650, 485.7830
981.9471, 470.4911
982.4292, 456.0701
982.9113, 442.5665
983.3934, 429.4249
983.8755, 416.4489
984.3577, 403.6710
984.8398, 391.5194
985.3219, 379.2931
985.8040, 365.8830
986.2861, 348.6594
986.7682, 333.5769
987.2504, 321.7424
987.7325, 311.6279
988.2146, 302.1327
988.6967, 293.1777
989.1788, 283.6940
989.6609, 273.5443
990.1431, 264.0111
990.6252, 256.0869
991.1073, 249.1130
991.5894, 242.6986
992.0715, 236.8406
992.5536, 230.9632
993.0358, 225.0899
993.5179, 218.9984
994.0000, 212.4499
994.4821, 205.8981
994.9642, 200.7786
995.4464, 196.7177
995.9285, 192.1617
996.4106, 185.9968
996.8927, 180.4203
997.3748, 177.0066
997.8569, 174.5894
998.3391, 171.6765
998.8212, 167.7873
999.3033, 165.3393
999.7854, 164.7615
1000.268, 163.7340
1000.750, 159.1160
1001.232, 153.3675
1001.714, 151.0246
1002.196, 151.8079
1002.678, 151.5951
1003.160, 147.0455
1003.642, 143.4401
1004.124, 143.1642
1004.607, 144.5394
1005.089, 142.3492
1005.571, 136.7916
1006.053, 132.5896
1006.535, 131.2924
1007.017, 130.8599
1007.499, 129.6733
1007.981, 128.0210
1008.464, 126.0942
1008.946, 123.3699
1009.428, 122.1422
1009.910, 123.2697
1010.392, 124.1177
1010.874, 122.2723
1011.356, 118.6842
1011.838, 117.1543
1012.320, 117.3377
1012.803, 117.1702
1013.285, 115.7802
1013.767, 113.4951
1014.249, 109.3000
1014.731, 104.6247
1015.213, 102.8649
1015.695, 104.5981
1016.177, 105.7339
1016.659, 105.5567
1017.142, 104.7423
1017.624, 103.8597
1018.106, 102.9651
1018.588, 102.1219
1019.070, 101.3415
1019.552, 100.5961
1020.034, 99.69148
1020.516, 99.10735
1020.999, 99.47024
1021.481, 100.3234
1021.963, 98.48460
1022.445, 94.44204
1022.927, 91.64833
1023.409, 92.60980
1023.891, 94.45345
1024.373, 96.21535
1024.855, 97.28917
1025.338, 96.33817
1025.820, 91.94757
1026.302, 89.84260
1026.784, 90.86531
1027.266, 92.50148
1027.748, 91.88576
1028.230, 90.11790
1028.712, 89.44724
1029.195, 89.97490
1029.677, 89.94534
1030.159, 87.85658
1030.641, 85.94580
1031.123, 84.81928
1031.605, 84.52144
1032.087, 85.72099
1032.569, 88.27871
1033.052, 89.71635
1033.534, 88.93989
1034.016, 87.58254
1034.498, 86.82436
1034.980, 86.47829
1035.462, 86.34092
1035.944, 86.38733
1036.426, 86.74759
1036.908, 87.68294
1037.391, 88.21040
1037.873, 86.97775
1038.355, 84.98811
1038.837, 85.09785
1039.319, 86.91556
1039.801, 88.63098
1040.283, 89.03514
1040.765, 89.64746
1041.247, 91.54153
1041.730, 93.58929
1042.212, 93.58342
1042.694, 91.47549
1043.176, 90.82353
1043.658, 92.33049
1044.140, 93.71556
1044.622, 92.26195
1045.104, 90.11618
1045.587, 89.51331
1046.069, 90.79981
1046.551, 91.38475
1047.033, 90.44904
1047.515, 90.70428
1047.997, 93.69814
1048.479, 97.94658
1048.961, 100.6275
1049.443, 101.8899
1049.926, 102.0087
1050.408, 99.98676
1050.890, 98.77486
1051.372, 100.1476
1051.854, 102.1773
1052.336, 103.2999
1052.818, 103.4528
1053.300, 104.1443
1053.782, 105.3912
1054.265, 106.8731
1054.747, 108.3369
1055.229, 109.9589
1055.711, 111.6302
1056.193, 113.5811
1056.675, 116.9004
1057.157, 123.2155
1057.639, 126.4344
1058.122, 124.7354
1058.604, 121.8404
1059.086, 122.9866
1059.568, 126.6994
1060.050, 130.2898
1060.532, 133.3764
1061.014, 135.9071
1061.496, 137.5752
1061.979, 138.8905
1062.461, 139.8109
1062.943, 140.5856
1063.425, 142.8776
1063.907, 146.4799
1064.389, 149.1287
1064.871, 149.2155
1065.353, 149.4656
1065.835, 152.0287
1066.318, 155.9315
1066.800, 160.0589
1067.282, 164.4309
1067.764, 168.8997
1068.246, 173.6985
1068.728, 177.3176
1069.210, 177.3533
1069.692, 176.1466
1070.174, 177.7077
1070.657, 181.4463
1071.139, 184.7922
1071.621, 186.9918
1072.103, 188.4406
1072.585, 188.6018
1073.067, 188.8477
1073.549, 192.2918
1074.031, 197.7914
1074.514, 200.1228
1074.996, 198.4098
1075.478, 196.6197
1075.960, 197.0298
1076.442, 198.4195
1076.924, 200.8518
1077.406, 203.7864
1077.888, 203.2047
1078.370, 198.8598
1078.853, 195.9954
1079.335, 196.9746
1079.817, 198.8344
1080.299, 199.2088
1080.781, 198.0062
1081.263, 194.8169
1081.745, 187.8968
1082.227, 183.6052
1082.709, 182.6411
1083.192, 182.5884
1083.674, 182.2100
1084.156, 181.4678
1084.638, 180.4001
1085.120, 178.9062
1085.602, 176.6197
1086.084, 172.4728
1086.566, 168.6572
1087.048, 165.5929
1087.531, 163.1536
1088.013, 161.4859
1088.495, 160.4665
1088.977, 158.6302
1089.459, 155.8686
1089.941, 153.1077
1090.423, 150.9390
1090.905, 149.0518
1091.388, 147.4629
1091.870, 145.9900
1092.352, 143.8714
1092.834, 140.9365
1093.316, 138.5999
1093.798, 137.3606
1094.280, 136.1788
1094.762, 133.4580
1095.245, 130.2705
1095.727, 127.9931
1096.209, 127.0151
1096.691, 125.9464
1097.173, 124.5638
1097.655, 123.4602
1098.137, 123.2406
1098.619, 123.1593
1099.101, 120.8262
1099.583, 117.2326
1100.066, 114.8635
1100.548, 115.2894
1101.030, 115.7958
1101.512, 116.3476
1101.994, 116.0321
1102.476, 113.5373
1102.958, 109.1261
1103.440, 106.5305
1103.923, 105.7067
1104.405, 105.8285
1104.887, 108.1995
1105.369, 109.4669
1105.851, 106.5488
1106.333, 101.6154
1106.815, 99.00994
1107.297, 99.12762
1107.780, 98.63023
1108.262, 97.12400
1108.744, 95.57365
1109.226, 94.24320
1109.708, 93.75514
1110.190, 95.61774
1110.672, 99.43997
1111.154, 100.6832
1111.636, 98.25986
1112.119, 95.75064
1112.601, 93.87088
1113.083, 92.50494
1113.565, 91.97231
1114.047, 91.62281
1114.529, 89.97590
1115.011, 86.37888
1115.493, 84.12392
1115.975, 84.88861
1116.458, 85.61474
1116.940, 84.91383
1117.422, 83.31061
1117.904, 82.49609
1118.386, 82.27780
1118.868, 81.96251
1119.350, 81.30237
1119.832, 80.51091
1120.315, 79.47765
1120.797, 78.52489
1121.279, 78.16020
1121.761, 78.36198
1122.243, 76.62653
1122.725, 73.10975
1123.207, 70.19454
1123.689, 69.22199
1124.172, 69.41612
1124.654, 71.44341
1125.136, 73.86024
1125.618, 74.04649
1126.100, 71.46114
1126.582, 69.42219
1127.064, 68.15833
1127.546, 67.14424
1128.028, 65.79784
1128.510, 64.56883
1128.993, 63.98468
1129.475, 63.97974
1129.957, 64.06178
1130.439, 64.35542
1130.921, 64.28607
1131.403, 63.76373
1131.885, 62.83631
1132.367, 61.10385
1132.850, 59.22726
1133.332, 58.46606
1133.814, 58.99358
1134.296, 58.70091
1134.778, 56.58657
1135.260, 54.55444
1135.742, 53.06937
1136.224, 52.13375
1136.707, 52.05768
1137.189, 52.47802
1137.671, 52.37992
1138.153, 51.38411
1138.635, 50.46063
1139.117, 50.29751
1139.599, 49.93150
1140.081, 48.62701
1140.563, 46.78064
1141.046, 46.42139
1141.528, 47.28232
1142.010, 48.03460
1142.492, 48.44845
1142.974, 48.05848
1143.456, 45.82258
1143.938, 43.26300
1144.420, 41.77048
1144.902, 41.37434
1145.385, 40.78951
1145.867, 40.05667
1146.349, 40.05578
1146.831, 42.29372
1147.313, 44.46833
1147.795, 45.25745
1148.277, 44.73067
1148.759, 42.75388
1149.242, 38.56454
1149.724, 37.55046
1150.206, 40.19503
1150.688, 43.09800
1151.170, 43.96043
1151.652, 43.30087
1152.134, 40.51622
1152.616, 36.52840
1153.099, 34.91840
1153.581, 36.94726
1154.063, 37.26606
1154.545, 34.80578
1155.027, 32.15183
1155.509, 32.67316
1155.991, 34.44166
1156.473, 34.84529
1156.955, 33.81582
1157.438, 33.86538
1157.920, 36.09602
1158.402, 37.21596
1158.884, 36.23248
1159.366, 34.34428
1159.848, 32.93790
1160.330, 32.03170
1160.812, 31.78560
1161.294, 32.29395
1161.777, 32.66758
1162.259, 32.63185
1162.741, 32.64557
1163.223, 32.93668
1163.705, 33.29313
1164.187, 32.92786
1164.669, 32.29991
1165.151, 32.69337
1165.634, 34.97390
1166.116, 36.31779
1166.598, 35.62258
1167.080, 34.26722
1167.562, 32.52510
1168.044, 30.80049
1168.526, 30.98243
1169.008, 32.51320
1169.490, 33.38070
1169.973, 32.43494
1170.455, 31.56685
1170.937, 31.61701
1171.419, 31.78169
1171.901, 31.51182
1172.383, 30.87045
1172.865, 30.29791
1173.347, 29.80575
1173.829, 29.40528
1174.312, 29.34194
1174.794, 29.08383
1175.276, 27.94727
1175.758, 26.86668
1176.240, 27.04376
1176.722, 28.40867
1177.204, 28.32527
1177.686, 26.83421
1178.169, 25.12464
1178.651, 23.04338
1179.133, 21.93963
1179.615, 23.44550
1180.097, 25.88334
1180.579, 26.72828
1181.061, 25.94378
1181.543, 25.78148
1182.026, 26.39969
1182.508, 27.06435
1182.990, 27.60984
1183.472, 27.66285
1183.954, 26.71618
1184.436, 25.15146
1184.918, 23.43853
1185.400, 21.49666
1185.882, 21.79593
1186.365, 24.88803
1186.847, 27.23311
1187.329, 24.65604
1187.811, 21.28925
1188.293, 20.35900
1188.775, 21.47445
1189.257, 23.17242
1189.739, 25.62176
1190.221, 26.08787
1190.704, 23.75647
1191.186, 21.01901
1191.668, 19.94832
1192.150, 19.66798
1192.632, 19.47001
1193.114, 19.34432
1193.596, 19.70153
1194.078, 20.60684
1194.561, 21.40248
1195.043, 21.96003
1195.525, 22.13956
1196.007, 21.29367
1196.489, 20.34037
1196.971, 20.51752
1197.453, 21.87225
1197.935, 21.53174
1198.417, 19.16328
1198.900, 18.17363
1199.382, 20.38827
1199.864, 22.91863
1200.346, 22.31134
1200.828, 20.56637
1201.310, 20.04951
1201.792, 21.08967
1202.274, 22.09505
1202.756, 23.16101
1203.239, 23.26566
1203.721, 21.38884
1204.203, 19.34240
1204.685, 19.32576
1205.167, 20.26432
1205.649, 20.57347
1206.131, 19.78036
1206.613, 20.60210
1207.096, 23.34644
1207.578, 25.08543
1208.060, 23.58424
1208.542, 21.14149
1209.024, 19.97692
1209.506, 19.67583
1209.988, 19.65276
1210.470, 19.74294
1210.953, 20.58244
1211.435, 22.31816
1211.917, 23.66152
1212.399, 23.81387
1212.881, 23.17597
1213.363, 21.66504
1213.845, 19.82374
1214.327, 18.59153
1214.809, 17.90458
1215.292, 18.22118
1215.774, 19.62808
1216.256, 21.26522
1216.738, 22.60748
1217.220, 23.76497
1217.702, 25.36896
1218.184, 26.73979
1218.666, 26.30835
1219.148, 23.41392
1219.631, 21.26404
1220.113, 19.98538
1220.595, 19.59244
1221.077, 20.98976
1221.559, 22.46931
1222.041, 21.97641
1222.523, 20.47847
1223.005, 20.48987
1223.488, 22.47614
1223.970, 24.06294
1224.452, 25.10826
1224.934, 25.60571
1225.416, 25.34501
1225.898, 24.73911
1226.380, 24.03707
1226.862, 23.27953
1227.344, 22.46711
1227.827, 21.50320
1228.309, 21.26350
1228.791, 21.87764
1229.273, 22.40795
1229.755, 22.17453
1230.237, 21.45251
1230.719, 19.70445
1231.201, 17.78790
1231.683, 18.34374
1232.166, 21.73255
1232.648, 23.08773
1233.130, 21.76883
1233.612, 20.25713
1234.094, 20.69469
1234.576, 21.55501
1235.058, 21.69613
1235.540, 21.40553
1236.023, 21.46906
1236.505, 21.89399
1236.987, 22.29469
1237.469, 22.62568
1237.951, 22.85686
1238.433, 23.09616
1238.915, 23.09304
1239.397, 22.50904
1239.880, 21.62246
1240.362, 20.91648
1240.844, 20.41316
1241.326, 20.48966
1241.808, 21.24260
1242.290, 21.94862
1242.772, 22.30550
1243.254, 22.23705
1243.736, 21.50428
1244.219, 20.46616
1244.701, 19.90527
1245.183, 19.79100
1245.665, 20.01164
1246.147, 20.57836
1246.629, 20.89047
1247.111, 20.57204
1247.593, 19.94676
1248.075, 19.24403
1248.558, 18.30805
1249.040, 16.03496
1249.522, 13.13583
1250.004, 13.19037
1250.486, 16.99476
1250.968, 19.74810
1251.450, 17.99097
1251.932, 16.21351
1252.415, 15.87471
1252.897, 16.54787
1253.379, 17.93837
1253.861, 19.50407
1254.343, 19.66618
1254.825, 18.08272
1255.307, 16.48507
1255.789, 14.83493
1256.271, 14.25757
1256.754, 15.45076
1257.236, 17.33306
1257.718, 18.02218
1258.200, 17.86023
1258.682, 17.33413
1259.164, 16.47719
1259.646, 15.95275
1260.128, 15.74191
1260.610, 16.18543
1261.093, 17.67981
1261.575, 19.19428
1262.057, 19.05091
1262.539, 17.95246
1263.021, 16.59503
1263.503, 15.03344
1263.985, 15.05729
1264.467, 17.32406
1264.950, 18.95924
1265.432, 19.00804
1265.914, 18.44182
1266.396, 18.43631
1266.878, 18.55456
1267.360, 18.01773
1267.842, 16.78565
1268.324, 17.31978
1268.807, 20.02680
1269.289, 20.88462
1269.771, 18.21425
1270.253, 15.29988
1270.735, 15.58066
1271.217, 16.97573
1271.699, 17.66274
1272.181, 17.64990
1272.663, 17.31782
1273.146, 16.67518
1273.628, 15.91600
1274.110, 14.89846
1274.592, 14.69631
1275.074, 17.40196
1275.556, 19.93271
1276.038, 20.18261
1276.520, 18.67258
1277.002, 17.01078
1277.485, 15.33604
1277.967, 14.52353
1278.449, 14.93711
1278.931, 15.36649
1279.413, 14.68819
1279.895, 14.55065
1280.377, 16.23696
1280.859, 18.44090
1281.342, 16.78024
1281.824, 12.91248
1282.306, 12.18178
1282.788, 16.30039
1283.270, 18.76758
1283.752, 16.14582
1284.234, 14.06788
1284.716, 14.51457
1285.198, 16.22899
1285.681, 17.35124
1286.163, 17.91031
1286.645, 17.96873
1287.127, 17.52193
1287.609, 16.58990
1288.091, 14.93338
1288.573, 13.54767
1289.055, 12.59793
1289.537, 12.40905
1290.020, 14.72780
1290.502, 17.21593
1290.984, 16.31934
1291.466, 11.78934
1291.948, 10.56147
1292.430, 13.13421
1292.912, 15.41576
1293.394, 16.36532
1293.877, 16.63553
1294.359, 16.60579
1294.841, 16.35766
1295.323, 15.70721
1295.805, 14.89628
1296.287, 15.03657
1296.769, 16.05476
1297.251, 16.71833
1297.734, 16.76905
1298.216, 16.50018
1298.698, 16.03491
1299.180, 15.31994
1299.662, 14.03937
1300.144, 12.76223
1300.626, 13.17375
1301.108, 14.74634
1301.590, 15.43085
1302.073, 14.84927
1302.555, 14.72803
1303.037, 16.52045
1303.519, 17.85527
1304.001, 18.11076
1304.483, 17.63739
1304.965, 16.88154
##END=



