##NAMES=Spencerite
##RRUFFID=R050581
##IDEAL CHEMISTRY=Zn^2+^_4_(P^5+^O_4_)_2_(OH)_2_&#183;3H_2_O
##LOCALITY=Salmo, British Columbia, Canada
##OWNER=RRUFF
##SOURCE=University of Arizona Mineral Museum
##DESCRIPTION=White aggregate of parallel bladed crystals
##STATUS=The identification of this mineral has been confirmed by X-ray diffraction.
##URL=rruff.info/R050581
92.06543, 10652.56
92.54755, 10529.06
93.02966, 10550.32
93.51178, 10705.49
93.99390, 10822.67
94.47601, 10909.43
94.95813, 10970.57
95.44025, 11006.42
95.92236, 11018.33
96.40448, 11002.73
96.88660, 10954.89
97.36871, 10875.30
97.85082, 10781.22
98.33294, 10681.62
98.81506, 10572.05
99.29717, 10439.13
99.77929, 10310.65
100.2614, 10188.81
100.7435, 10084.12
101.2256, 9999.632
101.7078, 9930.694
102.1899, 9869.941
102.6720, 9813.903
103.1541, 9767.556
103.6362, 9733.993
104.1183, 9712.436
104.6005, 9693.795
105.0826, 9670.045
105.5647, 9639.760
106.0468, 9611.681
106.5289, 9582.192
107.0110, 9555.142
107.4931, 9534.109
107.9753, 9519.771
108.4574, 9508.988
108.9395, 9495.313
109.4216, 9473.432
109.9037, 9456.358
110.3858, 9445.469
110.8680, 9439.031
111.3501, 9435.899
111.8322, 9435.529
112.3143, 9437.272
112.7964, 9437.374
113.2785, 9434.307
113.7607, 9431.249
114.2428, 9429.231
114.7249, 9427.837
115.2070, 9425.454
115.6891, 9420.024
116.1712, 9412.098
116.6534, 9410.697
117.1355, 9422.875
117.6176, 9436.306
118.0997, 9440.208
118.5818, 9433.270
119.0639, 9424.837
119.5461, 9424.439
120.0282, 9429.681
120.5103, 9433.824
120.9924, 9431.824
121.4745, 9427.405
121.9566, 9430.517
122.4388, 9447.266
122.9209, 9463.454
123.4030, 9468.314
123.8851, 9464.192
124.3672, 9459.375
124.8493, 9460.350
125.3315, 9467.480
125.8136, 9474.365
126.2957, 9479.337
126.7778, 9484.813
127.2599, 9493.631
127.7420, 9505.125
128.2242, 9515.105
128.7063, 9516.660
129.1884, 9501.938
129.6705, 9495.058
130.1526, 9499.554
130.6347, 9508.310
131.1169, 9516.385
131.5990, 9522.062
132.0811, 9526.520
132.5632, 9532.369
133.0453, 9544.423
133.5274, 9551.982
134.0096, 9550.450
134.4917, 9544.943
134.9738, 9543.317
135.4559, 9549.841
135.9380, 9561.427
136.4201, 9567.291
136.9023, 9565.686
137.3844, 9562.447
137.8665, 9559.792
138.3486, 9557.601
138.8307, 9555.153
139.3128, 9552.299
139.7950, 9548.816
140.2771, 9544.411
140.7592, 9538.536
141.2413, 9532.269
141.7234, 9525.886
142.2055, 9518.866
142.6877, 9514.504
143.1698, 9515.795
143.6519, 9520.396
144.1340, 9526.319
144.6161, 9533.590
145.0982, 9541.187
145.5803, 9546.840
146.0625, 9551.483
146.5446, 9551.899
147.0267, 9546.127
147.5088, 9536.223
147.9909, 9525.330
148.4730, 9515.631
148.9552, 9506.942
149.4373, 9496.125
149.9194, 9477.304
150.4015, 9461.638
150.8836, 9453.578
151.3657, 9451.382
151.8479, 9450.269
152.3300, 9445.812
152.8121, 9436.874
153.2942, 9431.536
153.7763, 9431.170
154.2584, 9432.214
154.7406, 9433.206
155.2227, 9433.881
155.7048, 9434.563
156.1869, 9435.751
156.6690, 9437.871
157.1511, 9438.417
157.6333, 9436.255
158.1154, 9433.177
158.5975, 9431.193
159.0796, 9430.784
159.5617, 9429.984
160.0438, 9425.156
160.5260, 9415.951
161.0081, 9409.346
161.4902, 9408.950
161.9723, 9411.975
162.4544, 9413.065
162.9365, 9410.346
163.4187, 9406.896
163.9008, 9406.382
164.3829, 9408.654
164.8650, 9411.446
165.3471, 9412.766
165.8292, 9413.119
166.3113, 9415.905
166.7935, 9422.929
167.2756, 9431.837
167.7577, 9441.028
168.2398, 9450.381
168.7219, 9459.592
169.2040, 9467.721
169.6862, 9474.245
170.1683, 9482.862
170.6504, 9495.583
171.1325, 9509.509
171.6146, 9524.308
172.0967, 9539.519
172.5789, 9553.215
173.0610, 9562.750
173.5431, 9567.860
174.0252, 9569.453
174.5073, 9566.288
174.9894, 9560.142
175.4716, 9549.663
175.9537, 9534.806
176.4358, 9516.291
176.9179, 9495.449
177.4000, 9470.285
177.8821, 9445.437
178.3643, 9420.707
178.8464, 9396.608
179.3285, 9374.001
179.8106, 9353.182
180.2927, 9333.614
180.7748, 9314.000
181.2570, 9290.151
181.7391, 9271.452
182.2212, 9260.589
182.7033, 9255.269
183.1854, 9253.042
183.6675, 9253.381
184.1497, 9254.713
184.6318, 9251.582
185.1139, 9241.311
185.5960, 9231.744
186.0781, 9225.366
186.5602, 9221.735
187.0423, 9219.796
187.5245, 9219.424
188.0066, 9220.150
188.4887, 9220.884
188.9708, 9222.196
189.4529, 9222.467
189.9350, 9219.396
190.4172, 9213.395
190.8993, 9209.275
191.3814, 9210.543
191.8635, 9214.228
192.3456, 9215.881
192.8277, 9214.396
193.3099, 9212.156
193.7920, 9212.309
194.2741, 9215.465
194.7562, 9216.432
195.2383, 9209.571
195.7204, 9201.030
196.2026, 9196.519
196.6847, 9198.308
197.1668, 9202.247
197.6489, 9201.498
198.1310, 9194.006
198.6131, 9187.900
199.0953, 9187.178
199.5774, 9188.050
200.0595, 9186.658
200.5416, 9181.265
201.0237, 9174.667
201.5058, 9173.322
201.9880, 9180.135
202.4701, 9187.332
202.9522, 9194.891
203.4343, 9201.407
203.9164, 9205.215
204.3985, 9205.504
204.8807, 9203.206
205.3628, 9201.007
205.8449, 9197.489
206.3270, 9196.109
206.8091, 9199.053
207.2912, 9203.582
207.7733, 9206.489
208.2555, 9206.135
208.7376, 9203.495
209.2197, 9202.204
209.7018, 9203.282
210.1839, 9204.693
210.6660, 9206.406
211.1482, 9208.327
211.6303, 9210.476
212.1124, 9212.915
212.5945, 9215.425
213.0766, 9217.085
213.5587, 9215.544
214.0409, 9215.933
214.5230, 9219.854
215.0051, 9226.326
215.4872, 9234.082
215.9693, 9242.841
216.4514, 9251.813
216.9336, 9257.729
217.4157, 9258.963
217.8978, 9260.059
218.3799, 9261.481
218.8620, 9263.775
219.3441, 9268.785
219.8263, 9278.213
220.3084, 9290.050
220.7905, 9298.701
221.2726, 9302.725
221.7547, 9306.595
222.2368, 9312.956
222.7190, 9321.187
223.2011, 9328.588
223.6832, 9333.522
224.1653, 9337.390
224.6474, 9342.990
225.1295, 9350.955
225.6117, 9359.105
226.0938, 9367.097
226.5759, 9374.627
227.0580, 9378.734
227.5401, 9376.968
228.0222, 9371.907
228.5043, 9367.123
228.9865, 9362.938
229.4686, 9358.447
229.9507, 9352.542
230.4328, 9345.256
230.9149, 9338.815
231.3970, 9335.499
231.8792, 9332.163
232.3613, 9326.616
232.8434, 9318.669
233.3255, 9307.917
233.8076, 9292.283
234.2897, 9271.101
234.7719, 9253.175
235.2540, 9243.817
235.7361, 9236.251
236.2182, 9226.618
236.7003, 9214.313
237.1824, 9200.575
237.6646, 9186.221
238.1467, 9170.860
238.6288, 9156.532
239.1109, 9140.353
239.5930, 9127.522
240.0751, 9122.683
240.5573, 9125.599
241.0394, 9130.455
241.5215, 9130.581
242.0036, 9124.929
242.4857, 9118.468
242.9678, 9109.362
243.4500, 9101.065
243.9321, 9096.009
244.4142, 9094.021
244.8963, 9092.619
245.3784, 9088.410
245.8605, 9079.694
246.3427, 9074.681
246.8248, 9077.841
247.3069, 9080.846
247.7890, 9079.094
248.2711, 9072.826
248.7532, 9065.752
249.2354, 9062.152
249.7175, 9063.776
250.1996, 9061.452
250.6817, 9048.975
251.1638, 9038.547
251.6459, 9037.519
252.1281, 9044.732
252.6102, 9053.224
253.0923, 9055.856
253.5744, 9050.884
254.0565, 9050.712
254.5386, 9058.168
255.0208, 9066.729
255.5029, 9073.827
255.9850, 9079.340
256.4671, 9084.187
256.9492, 9089.043
257.4313, 9093.767
257.9135, 9099.793
258.3956, 9111.063
258.8777, 9119.609
259.3598, 9119.978
259.8419, 9114.245
260.3240, 9109.428
260.8062, 9111.402
261.2883, 9120.103
261.7704, 9122.090
262.2525, 9114.821
262.7346, 9105.292
263.2167, 9094.931
263.6989, 9084.472
264.1810, 9076.100
264.6631, 9072.188
265.1452, 9071.354
265.6273, 9060.825
266.1094, 9032.356
266.5916, 9005.317
267.0737, 8987.929
267.5558, 8977.459
268.0379, 8966.968
268.5200, 8952.639
269.0021, 8935.537
269.4843, 8920.061
269.9664, 8908.507
270.4485, 8895.438
270.9306, 8877.753
271.4127, 8857.333
271.8948, 8837.971
272.3770, 8821.118
272.8591, 8806.639
273.3412, 8794.342
273.8233, 8785.029
274.3054, 8775.554
274.7875, 8764.253
275.2697, 8752.208
275.7518, 8741.825
276.2339, 8734.276
276.7160, 8727.812
277.1981, 8718.635
277.6802, 8705.891
278.1623, 8694.945
278.6444, 8689.220
279.1266, 8685.864
279.6087, 8679.745
280.0908, 8669.187
280.5729, 8657.187
281.0550, 8647.413
281.5371, 8639.607
282.0193, 8633.818
282.5014, 8630.954
282.9835, 8629.846
283.4656, 8629.082
283.9477, 8628.551
284.4298, 8627.722
284.9120, 8626.380
285.3941, 8624.450
285.8762, 8620.690
286.3583, 8613.640
286.8404, 8605.120
287.3225, 8596.624
287.8047, 8588.042
288.2868, 8581.533
288.7689, 8580.921
289.2510, 8584.150
289.7331, 8583.765
290.2152, 8575.237
290.6974, 8564.585
291.1795, 8558.454
291.6616, 8557.100
292.1437, 8555.835
292.6258, 8551.914
293.1079, 8545.916
293.5901, 8539.208
294.0722, 8530.271
294.5543, 8522.514
295.0364, 8520.329
295.5185, 8523.316
296.0006, 8524.216
296.4828, 8518.377
296.9649, 8509.066
297.4470, 8502.358
297.9291, 8499.130
298.4112, 8496.811
298.8933, 8493.651
299.3755, 8489.812
299.8576, 8486.529
300.3397, 8485.236
300.8218, 8483.432
301.3039, 8477.344
301.7860, 8466.341
302.2682, 8456.022
302.7503, 8450.379
303.2324, 8448.053
303.7145, 8444.385
304.1966, 8438.638
304.6787, 8430.735
305.1609, 8420.184
305.6430, 8407.262
306.1251, 8394.108
306.6072, 8379.553
307.0893, 8365.679
307.5714, 8358.093
308.0536, 8359.289
308.5357, 8361.582
309.0178, 8358.209
309.4999, 8350.752
309.9820, 8342.882
310.4641, 8335.768
310.9463, 8328.938
311.4284, 8321.562
311.9105, 8313.455
312.3926, 8305.865
312.8747, 8300.345
313.3568, 8295.804
313.8390, 8290.173
314.3211, 8281.443
314.8032, 8273.162
315.2853, 8269.900
315.7674, 8271.772
316.2495, 8272.865
316.7317, 8269.966
317.2138, 8264.910
317.6959, 8260.517
318.1780, 8256.923
318.6601, 8254.058
319.1422, 8252.739
319.6243, 8252.527
320.1064, 8250.018
320.5886, 8242.016
321.0707, 8233.729
321.5528, 8232.325
322.0349, 8238.293
322.5170, 8243.450
322.9991, 8243.345
323.4813, 8239.086
323.9634, 8233.247
324.4455, 8225.354
324.9276, 8218.095
325.4097, 8214.913
325.8918, 8215.063
326.3740, 8215.122
326.8561, 8212.802
327.3382, 8210.101
327.8203, 8210.643
328.3024, 8215.243
328.7845, 8220.520
329.2667, 8224.339
329.7488, 8226.911
330.2309, 8228.590
330.7130, 8229.396
331.1951, 8229.324
331.6772, 8227.491
332.1594, 8223.925
332.6415, 8221.943
333.1236, 8223.988
333.6057, 8228.483
334.0878, 8231.845
334.5699, 8233.599
335.0521, 8234.768
335.5342, 8235.808
336.0163, 8236.735
336.4984, 8237.715
336.9805, 8238.880
337.4626, 8240.001
337.9448, 8241.624
338.4269, 8244.560
338.9090, 8243.741
339.3911, 8232.975
339.8732, 8217.859
340.3553, 8210.073
340.8375, 8213.062
341.3196, 8218.937
341.8017, 8218.778
342.2838, 8213.225
342.7659, 8208.191
343.2480, 8204.717
343.7302, 8202.313
344.2123, 8201.132
344.6944, 8201.128
345.1765, 8200.092
345.6586, 8195.504
346.1407, 8188.296
346.6229, 8184.323
347.1050, 8185.072
347.5871, 8187.765
348.0692, 8192.557
348.5513, 8198.373
349.0334, 8201.135
349.5156, 8198.389
349.9977, 8191.709
350.4798, 8185.337
350.9619, 8179.351
351.4440, 8173.517
351.9261, 8168.014
352.4083, 8162.640
352.8904, 8157.010
353.3725, 8151.026
353.8546, 8144.792
354.3367, 8137.868
354.8188, 8129.281
355.3010, 8124.489
355.7831, 8125.662
356.2652, 8129.801
356.7473, 8135.922
357.2294, 8143.331
357.7115, 8148.257
358.1937, 8146.978
358.6758, 8139.107
359.1579, 8132.242
359.6400, 8124.640
360.1221, 8119.525
360.6042, 8120.088
361.0863, 8124.588
361.5685, 8128.420
362.0506, 8128.932
362.5327, 8126.976
363.0148, 8126.050
363.4969, 8128.235
363.9790, 8128.841
364.4612, 8125.280
364.9433, 8120.550
365.4254, 8118.803
365.9075, 8121.325
366.3896, 8125.531
366.8717, 8127.259
367.3539, 8125.167
367.8360, 8123.492
368.3181, 8120.753
368.8002, 8119.511
369.2823, 8123.243
369.7644, 8130.942
370.2466, 8137.174
370.7287, 8136.344
371.2108, 8127.724
371.6929, 8124.606
372.1750, 8132.210
372.6571, 8139.222
373.1393, 8143.666
373.6214, 8144.983
374.1035, 8142.185
374.5856, 8134.470
375.0677, 8123.729
375.5498, 8116.087
376.0320, 8113.394
376.5141, 8111.295
376.9962, 8112.390
377.4783, 8112.146
377.9604, 8106.274
378.4425, 8093.873
378.9247, 8077.741
379.4068, 8061.381
379.8889, 8044.839
380.3710, 8027.932
380.8531, 8009.219
381.3352, 7991.427
381.8174, 7976.686
382.2995, 7964.091
382.7816, 7950.816
383.2637, 7934.519
383.7458, 7915.740
384.2279, 7898.330
384.7101, 7882.064
385.1922, 7867.744
385.6743, 7856.237
386.1564, 7846.258
386.6385, 7836.469
387.1206, 7826.619
387.6028, 7815.817
388.0849, 7801.236
388.5670, 7781.204
389.0491, 7765.619
389.5312, 7760.140
390.0133, 7757.599
390.4955, 7754.375
390.9776, 7749.931
391.4597, 7743.825
391.9418, 7734.532
392.4239, 7722.795
392.9060, 7713.359
393.3882, 7707.232
393.8703, 7702.289
394.3524, 7698.198
394.8345, 7694.175
395.3166, 7688.213
395.7987, 7677.789
396.2809, 7666.505
396.7630, 7660.713
397.2451, 7660.882
397.7272, 7658.512
398.2093, 7648.204
398.6914, 7633.952
399.1736, 7622.083
399.6557, 7612.888
400.1378, 7605.497
400.6199, 7600.512
401.1020, 7596.942
401.5841, 7591.822
402.0662, 7584.072
402.5483, 7575.828
403.0305, 7568.989
403.5126, 7563.449
403.9947, 7560.942
404.4768, 7566.510
404.9589, 7572.085
405.4410, 7568.844
405.9232, 7557.104
406.4053, 7544.445
406.8874, 7535.717
407.3695, 7530.167
407.8516, 7523.388
408.3337, 7512.683
408.8159, 7504.058
409.2980, 7500.037
409.7801, 7499.121
410.2622, 7499.542
410.7443, 7500.763
411.2264, 7501.438
411.7086, 7499.133
412.1907, 7491.490
412.6728, 7486.848
413.1549, 7488.910
413.6370, 7490.929
414.1191, 7487.071
414.6013, 7478.288
415.0834, 7470.470
415.5655, 7468.634
416.0476, 7472.263
416.5297, 7472.644
417.0118, 7467.552
417.4940, 7461.582
417.9761, 7453.785
418.4582, 7446.116
418.9403, 7441.505
419.4224, 7440.952
419.9045, 7442.054
420.3867, 7440.303
420.8688, 7434.015
421.3509, 7429.481
421.8330, 7428.979
422.3151, 7428.556
422.7972, 7426.542
423.2794, 7422.748
423.7615, 7417.434
424.2436, 7410.450
424.7257, 7402.070
425.2078, 7393.938
425.6899, 7385.423
426.1721, 7378.347
426.6542, 7372.856
427.1363, 7369.088
427.6184, 7367.838
428.1005, 7369.793
428.5826, 7372.020
429.0648, 7371.158
429.5469, 7367.183
430.0290, 7361.005
430.5111, 7349.948
430.9932, 7340.086
431.4753, 7337.780
431.9575, 7342.091
432.4396, 7345.296
432.9217, 7342.755
433.4038, 7337.141
433.8859, 7333.370
434.3680, 7332.000
434.8502, 7329.403
435.3323, 7321.655
435.8144, 7311.423
436.2965, 7306.117
436.7786, 7308.762
437.2607, 7312.116
437.7429, 7312.655
438.2250, 7310.999
438.7071, 7308.171
439.1892, 7304.269
439.6713, 7300.437
440.1534, 7298.412
440.6356, 7298.630
441.1177, 7298.823
441.5998, 7297.661
442.0819, 7297.406
442.5640, 7301.192
443.0461, 7307.875
443.5282, 7312.585
444.0103, 7311.777
444.4925, 7306.590
444.9746, 7303.331
445.4567, 7302.195
445.9388, 7302.874
446.4209, 7305.971
446.9030, 7310.541
447.3852, 7316.489
447.8673, 7323.405
448.3494, 7329.423
448.8315, 7331.648
449.3136, 7328.778
449.7957, 7328.508
450.2779, 7332.433
450.7600, 7337.394
451.2421, 7342.247
451.7242, 7347.354
452.2063, 7353.757
452.6884, 7362.167
453.1706, 7371.680
453.6527, 7380.833
454.1348, 7390.932
454.6169, 7396.454
455.0990, 7391.228
455.5811, 7384.064
456.0633, 7380.628
456.5454, 7381.550
457.0275, 7384.450
457.5096, 7391.038
457.9917, 7398.611
458.4738, 7395.656
458.9560, 7377.807
459.4381, 7359.896
459.9202, 7355.325
460.4023, 7357.134
460.8844, 7351.731
461.3665, 7332.068
461.8487, 7311.450
462.3308, 7301.950
462.8129, 7300.138
463.2950, 7293.508
463.7771, 7277.127
464.2592, 7256.746
464.7414, 7240.815
465.2235, 7230.255
465.7056, 7216.865
466.1877, 7195.760
466.6698, 7174.341
467.1519, 7158.982
467.6341, 7149.119
468.1162, 7140.557
468.5983, 7130.767
469.0804, 7119.993
469.5625, 7109.670
470.0446, 7100.849
470.5268, 7091.255
471.0089, 7080.077
471.4910, 7068.502
471.9731, 7057.913
472.4552, 7048.437
472.9373, 7038.820
473.4195, 7027.089
473.9016, 7012.762
474.3837, 7002.835
474.8658, 7001.034
475.3479, 6999.724
475.8300, 6998.161
476.3122, 6995.296
476.7943, 6989.321
477.2764, 6979.185
477.7585, 6967.601
478.2406, 6958.769
478.7227, 6953.013
479.2049, 6947.233
479.6870, 6940.352
480.1691, 6933.923
480.6512, 6929.519
481.1333, 6926.755
481.6154, 6923.616
482.0976, 6919.470
482.5797, 6914.289
483.0618, 6907.396
483.5439, 6898.752
484.0260, 6891.045
484.5081, 6885.717
484.9902, 6882.096
485.4724, 6878.317
485.9545, 6873.678
486.4366, 6870.831
486.9187, 6872.592
487.4008, 6875.788
487.8829, 6875.453
488.3651, 6871.032
488.8472, 6866.943
489.3293, 6867.681
489.8114, 6873.162
490.2935, 6873.384
490.7756, 6863.801
491.2578, 6855.269
491.7399, 6851.522
492.2220, 6850.368
492.7041, 6849.099
493.1862, 6846.731
493.6683, 6843.401
494.1505, 6838.729
494.6326, 6831.399
495.1147, 6828.071
495.5968, 6832.820
496.0789, 6837.717
496.5610, 6840.333
497.0432, 6840.909
497.5253, 6840.095
498.0074, 6837.896
498.4895, 6835.399
498.9716, 6835.155
499.4537, 6837.757
499.9359, 6838.736
500.4180, 6835.723
500.9001, 6831.856
501.3822, 6830.261
501.8643, 6830.648
502.3464, 6829.792
502.8286, 6823.802
503.3107, 6816.723
503.7928, 6815.425
504.2749, 6820.133
504.7570, 6825.216
505.2391, 6827.984
505.7213, 6828.964
506.2034, 6829.714
506.6855, 6831.076
507.1676, 6830.420
507.6497, 6824.826
508.1318, 6818.028
508.6140, 6814.457
509.0961, 6814.555
509.5782, 6815.890
510.0603, 6816.562
510.5424, 6816.542
511.0245, 6815.242
511.5067, 6811.388
511.9888, 6807.788
512.4709, 6805.583
512.9530, 6803.525
513.4351, 6799.875
513.9172, 6794.347
514.3994, 6788.675
514.8815, 6785.542
515.3636, 6785.352
515.8457, 6782.279
516.3278, 6774.423
516.8099, 6766.150
517.2921, 6758.945
517.7742, 6752.646
518.2563, 6746.830
518.7384, 6741.128
519.2205, 6736.529
519.7026, 6735.300
520.1848, 6736.753
520.6669, 6735.322
521.1490, 6728.985
521.6311, 6721.137
522.1132, 6714.414
522.5953, 6708.825
523.0775, 6705.545
523.5596, 6707.666
524.0417, 6709.555
524.5238, 6706.631
525.0059, 6700.198
525.4880, 6693.778
525.9702, 6688.710
526.4523, 6685.150
526.9344, 6683.553
527.4165, 6685.388
527.8986, 6685.457
528.3807, 6682.197
528.8629, 6678.858
529.3450, 6678.900
529.8271, 6680.297
530.3092, 6677.509
530.7913, 6666.990
531.2734, 6652.922
531.7556, 6645.878
532.2377, 6648.425
532.7198, 6650.830
533.2019, 6652.897
533.6840, 6653.480
534.1661, 6651.116
534.6483, 6646.382
535.1304, 6641.743
535.6125, 6638.486
536.0946, 6636.213
536.5767, 6634.010
537.0588, 6631.811
537.5410, 6630.967
538.0231, 6633.063
538.5052, 6635.736
538.9873, 6634.433
539.4694, 6628.287
539.9515, 6625.100
540.4337, 6630.641
540.9158, 6637.739
541.3979, 6639.254
541.8800, 6635.278
542.3621, 6629.156
542.8442, 6622.600
543.3264, 6616.125
543.8085, 6611.462
544.2906, 6609.514
544.7726, 6608.347
545.2548, 6608.370
545.7369, 6608.820
546.2190, 6609.757
546.7011, 6610.705
547.1832, 6610.209
547.6653, 6606.648
548.1475, 6601.270
548.6296, 6599.623
549.1117, 6603.644
549.5938, 6606.259
550.0759, 6602.774
550.5580, 6598.834
551.0402, 6599.909
551.5223, 6606.017
552.0044, 6610.210
552.4865, 6606.929
552.9686, 6599.670
553.4507, 6593.943
553.9329, 6589.975
554.4150, 6588.597
554.8971, 6591.228
555.3792, 6595.948
555.8613, 6597.579
556.3434, 6594.662
556.8256, 6592.927
557.3077, 6594.568
557.7898, 6597.082
558.2719, 6598.784
558.7540, 6599.233
559.2361, 6597.744
559.7183, 6593.566
560.2004, 6587.636
560.6825, 6583.869
561.1646, 6583.686
561.6467, 6583.375
562.1288, 6582.544
562.6110, 6581.527
563.0931, 6580.790
563.5752, 6580.190
564.0573, 6578.888
564.5394, 6575.683
565.0215, 6571.714
565.5037, 6569.842
565.9858, 6570.174
566.4679, 6572.237
566.9500, 6577.870
567.4321, 6583.428
567.9142, 6583.345
568.3964, 6577.112
568.8785, 6572.659
569.3606, 6573.992
569.8427, 6577.413
570.3248, 6579.558
570.8069, 6580.259
571.2891, 6579.834
571.7712, 6578.137
572.2533, 6576.345
572.7354, 6577.661
573.2175, 6586.828
573.6996, 6590.464
574.1818, 6583.328
574.6639, 6575.646
575.1460, 6573.967
575.6281, 6577.105
576.1102, 6580.573
576.5923, 6581.823
577.0745, 6581.583
577.5566, 6581.687
578.0387, 6582.548
578.5208, 6581.450
579.0029, 6576.346
579.4850, 6570.720
579.9672, 6566.852
580.4493, 6564.667
580.9314, 6563.736
581.4135, 6565.909
581.8956, 6567.604
582.3777, 6563.311
582.8599, 6555.125
583.3420, 6551.862
583.8241, 6557.224
584.3062, 6565.197
584.7883, 6567.337
585.2704, 6561.791
585.7526, 6559.677
586.2347, 6565.822
586.7168, 6570.038
587.1989, 6566.741
587.6810, 6558.975
588.1631, 6551.481
588.6453, 6546.084
589.1274, 6542.020
589.6095, 6538.528
590.0916, 6535.713
590.5737, 6532.315
591.0558, 6528.202
591.5380, 6523.592
592.0201, 6519.101
592.5022, 6514.099
592.9843, 6507.157
593.4664, 6497.263
593.9485, 6488.070
594.4307, 6483.521
594.9128, 6481.701
595.3949, 6477.508
595.8770, 6470.053
596.3591, 6463.465
596.8412, 6461.322
597.3234, 6462.844
597.8055, 6462.308
598.2876, 6459.097
598.7697, 6455.045
599.2518, 6450.129
599.7339, 6444.701
600.2161, 6438.638
600.6982, 6432.213
601.1803, 6426.575
601.6624, 6422.888
602.1445, 6420.423
602.6266, 6415.882
603.1088, 6408.636
603.5909, 6400.797
604.0730, 6390.953
604.5551, 6382.085
605.0372, 6377.398
605.5193, 6376.467
606.0015, 6374.952
606.4836, 6371.444
606.9657, 6365.787
607.4478, 6356.610
607.9299, 6344.651
608.4120, 6334.208
608.8942, 6327.244
609.3763, 6321.912
609.8584, 6315.462
610.3405, 6307.792
610.8226, 6299.472
611.3047, 6289.467
611.7869, 6280.080
612.2690, 6273.262
612.7511, 6267.610
613.2332, 6260.548
613.7153, 6251.144
614.1974, 6241.167
614.6796, 6232.589
615.1617, 6225.334
615.6438, 6220.765
616.1259, 6221.432
616.6080, 6220.352
617.0901, 6210.601
617.5723, 6197.963
618.0544, 6191.844
618.5365, 6195.912
619.0186, 6198.332
619.5007, 6189.750
619.9828, 6176.091
620.4650, 6166.945
620.9471, 6163.169
621.4292, 6160.405
621.9113, 6155.803
622.3934, 6149.848
622.8755, 6144.514
623.3577, 6139.880
623.8398, 6135.849
624.3219, 6134.328
624.8040, 6131.860
625.2861, 6124.039
625.7682, 6113.195
626.2504, 6106.780
626.7325, 6110.489
627.2145, 6117.372
627.6967, 6112.994
628.1788, 6096.747
628.6609, 6084.232
629.1430, 6080.002
629.6251, 6077.851
630.1072, 6071.869
630.5894, 6063.157
631.0715, 6055.665
631.5536, 6050.812
632.0357, 6046.313
632.5178, 6041.147
632.9999, 6035.479
633.4821, 6029.445
633.9642, 6023.138
634.4463, 6016.794
634.9284, 6010.688
635.4105, 6004.769
635.8926, 5998.508
636.3748, 5990.735
636.8569, 5984.641
637.3390, 5980.768
637.8211, 5978.611
638.3032, 5979.326
638.7853, 5982.058
639.2675, 5982.154
639.7496, 5974.641
640.2317, 5964.045
640.7138, 5957.733
641.1959, 5955.458
641.6780, 5953.712
642.1602, 5951.561
642.6423, 5948.757
643.1244, 5944.508
643.6065, 5938.272
644.0886, 5934.511
644.5707, 5936.148
645.0529, 5936.998
645.5350, 5933.491
646.0171, 5928.019
646.4992, 5924.271
646.9813, 5923.147
647.4634, 5922.391
647.9456, 5919.342
648.4277, 5914.243
648.9098, 5910.292
649.3919, 5908.252
649.8740, 5905.347
650.3561, 5899.635
650.8383, 5893.033
651.3204, 5887.907
651.8025, 5884.464
652.2846, 5880.604
652.7667, 5875.015
653.2488, 5869.048
653.7310, 5863.912
654.2131, 5859.589
654.6952, 5855.682
655.1773, 5852.011
655.6594, 5849.098
656.1415, 5848.286
656.6237, 5851.060
657.1058, 5849.104
657.5879, 5837.202
658.0700, 5826.214
658.5521, 5818.198
659.0342, 5813.101
659.5164, 5811.846
659.9985, 5814.533
660.4806, 5816.417
660.9627, 5813.443
661.4448, 5806.878
661.9269, 5799.131
662.4091, 5790.313
662.8912, 5781.708
663.3733, 5773.743
663.8554, 5766.539
664.3375, 5760.375
664.8196, 5755.277
665.3018, 5751.286
665.7839, 5748.426
666.2660, 5746.658
666.7481, 5746.393
667.2302, 5747.111
667.7123, 5748.843
668.1945, 5751.475
668.6766, 5752.166
669.1587, 5745.934
669.6408, 5733.396
670.1229, 5723.753
670.6050, 5717.263
671.0872, 5713.930
671.5693, 5717.161
672.0514, 5721.773
672.5335, 5718.205
673.0156, 5704.229
673.4977, 5692.387
673.9799, 5688.283
674.4620, 5686.217
674.9441, 5680.106
675.4262, 5671.847
675.9083, 5668.733
676.3904, 5674.005
676.8726, 5680.720
677.3547, 5676.541
677.8368, 5659.086
678.3189, 5646.670
678.8010, 5641.482
679.2831, 5638.289
679.7653, 5635.881
680.2474, 5633.797
680.7295, 5632.339
681.2116, 5631.891
681.6937, 5628.023
682.1758, 5613.648
682.6580, 5597.290
683.1401, 5590.988
683.6222, 5593.713
684.1043, 5597.192
684.5864, 5597.793
685.0685, 5596.092
685.5507, 5592.953
686.0328, 5588.072
686.5149, 5582.919
686.9970, 5577.875
687.4791, 5572.077
687.9612, 5563.401
688.4434, 5554.686
688.9255, 5550.714
689.4076, 5552.391
689.8897, 5552.258
690.3718, 5541.321
690.8539, 5525.781
691.3361, 5518.477
691.8182, 5519.431
692.3003, 5521.856
692.7824, 5523.438
693.2645, 5523.500
693.7466, 5520.839
694.2288, 5514.970
694.7109, 5508.309
695.1930, 5499.529
695.6751, 5491.630
696.1572, 5485.907
696.6393, 5481.516
697.1215, 5477.559
697.6036, 5473.733
698.0857, 5469.860
698.5678, 5465.865
699.0499, 5461.659
699.5320, 5456.188
700.0142, 5449.302
700.4963, 5445.554
700.9784, 5448.272
701.4605, 5451.900
701.9426, 5448.306
702.4247, 5436.258
702.9069, 5426.397
703.3890, 5419.460
703.8711, 5414.079
704.3532, 5411.078
704.8353, 5408.703
705.3174, 5404.495
705.7996, 5398.286
706.2817, 5392.266
706.7638, 5388.870
707.2459, 5383.027
707.7280, 5382.161
708.2101, 5374.089
708.6923, 5367.509
709.1743, 5364.234
709.6564, 5362.157
710.1385, 5359.140
710.6207, 5355.231
711.1028, 5351.224
711.5849, 5346.683
712.0670, 5342.516
712.5491, 5340.551
713.0313, 5338.243
713.5134, 5331.349
713.9955, 5320.352
714.4776, 5310.837
714.9597, 5307.235
715.4418, 5307.472
715.9240, 5305.786
716.4061, 5301.850
716.8882, 5299.021
717.3703, 5298.627
717.8524, 5298.453
718.3345, 5297.205
718.8167, 5294.767
719.2988, 5290.413
719.7809, 5282.263
720.2630, 5275.103
720.7451, 5270.837
721.2272, 5268.205
721.7094, 5266.917
722.1915, 5266.159
722.6736, 5263.792
723.1557, 5258.463
723.6378, 5251.297
724.1199, 5243.572
724.6021, 5234.818
725.0842, 5231.345
725.5663, 5236.517
726.0484, 5241.430
726.5305, 5240.418
727.0126, 5235.409
727.4948, 5229.897
727.9769, 5222.980
728.4590, 5218.624
728.9411, 5220.648
729.4232, 5223.453
729.9053, 5221.899
730.3875, 5217.184
730.8696, 5213.204
731.3517, 5211.615
731.8338, 5210.827
732.3159, 5208.670
732.7980, 5205.167
733.2802, 5201.276
733.7623, 5196.860
734.2444, 5192.573
734.7265, 5189.177
735.2086, 5185.729
735.6907, 5180.248
736.1729, 5172.444
736.6550, 5167.073
737.1371, 5166.344
737.6192, 5166.999
738.1013, 5167.591
738.5834, 5168.028
739.0656, 5169.167
739.5477, 5170.756
740.0298, 5169.717
740.5119, 5161.856
740.9940, 5149.616
741.4761, 5144.143
741.9583, 5146.831
742.4404, 5148.156
742.9225, 5145.143
743.4046, 5140.680
743.8867, 5137.138
744.3688, 5134.492
744.8510, 5132.770
745.3331, 5134.321
745.8152, 5133.914
746.2973, 5128.212
746.7794, 5120.897
747.2615, 5115.396
747.7437, 5112.078
748.2258, 5110.102
748.7079, 5109.197
749.1900, 5108.437
749.6721, 5105.461
750.1542, 5100.356
750.6364, 5097.825
751.1185, 5099.143
751.6006, 5100.722
752.0827, 5100.428
752.5648, 5098.724
753.0469, 5096.984
753.5291, 5095.602
754.0112, 5093.062
754.4933, 5086.698
754.9754, 5081.443
755.4575, 5081.176
755.9396, 5083.921
756.4218, 5086.119
756.9039, 5086.569
757.3860, 5086.147
757.8681, 5086.127
758.3502, 5085.998
758.8323, 5083.432
759.3145, 5078.319
759.7966, 5073.734
760.2787, 5070.642
760.7608, 5069.041
761.2429, 5069.356
761.7250, 5071.911
762.2072, 5072.773
762.6893, 5071.595
763.1714, 5069.362
763.6535, 5065.225
764.1356, 5060.918
764.6177, 5057.786
765.0999, 5055.986
765.5820, 5055.248
766.0641, 5055.809
766.5462, 5056.573
767.0283, 5056.123
767.5104, 5054.611
767.9926, 5052.381
768.4747, 5049.430
768.9568, 5047.067
769.4389, 5046.159
769.9210, 5046.581
770.4031, 5048.131
770.8853, 5052.229
771.3674, 5054.667
771.8495, 5052.712
772.3316, 5052.167
772.8137, 5058.653
773.2958, 5066.949
773.7780, 5068.202
774.2601, 5060.102
774.7422, 5051.659
775.2243, 5049.022
775.7064, 5048.985
776.1885, 5048.061
776.6707, 5046.107
777.1528, 5042.736
777.6349, 5037.818
778.1170, 5033.922
778.5991, 5034.819
779.0812, 5040.041
779.5634, 5039.437
780.0455, 5028.539
780.5276, 5021.793
781.0097, 5025.521
781.4918, 5031.869
781.9739, 5035.538
782.4561, 5036.704
782.9382, 5036.454
783.4203, 5034.234
783.9024, 5031.812
784.3845, 5029.115
784.8666, 5027.236
785.3488, 5028.212
785.8309, 5031.411
786.3130, 5033.856
786.7951, 5033.846
787.2772, 5033.192
787.7593, 5036.287
788.2415, 5042.929
788.7236, 5042.994
789.2057, 5034.071
789.6878, 5025.883
790.1699, 5023.296
790.6520, 5023.993
791.1342, 5024.070
791.6162, 5023.206
792.0983, 5023.627
792.5804, 5026.850
793.0626, 5029.710
793.5447, 5031.533
794.0268, 5031.968
794.5089, 5029.769
794.9910, 5025.458
795.4731, 5022.327
795.9553, 5023.385
796.4374, 5025.615
796.9195, 5024.269
797.4016, 5019.977
797.8837, 5015.172
798.3658, 5010.234
798.8480, 5006.767
799.3301, 5006.283
799.8122, 5007.693
800.2943, 5007.351
800.7764, 5004.408
801.2585, 5001.575
801.7407, 4998.220
802.2228, 4995.747
802.7049, 4995.350
803.1870, 4995.927
803.6691, 4995.673
804.1512, 4994.222
804.6334, 4993.812
805.1155, 4996.997
805.5976, 5000.500
806.0797, 5000.296
806.5618, 4998.231
807.0439, 4999.241
807.5261, 5004.232
808.0082, 5008.307
808.4903, 5006.294
808.9724, 5000.343
809.4545, 4999.108
809.9366, 5003.424
810.4188, 5006.917
810.9009, 5009.041
811.3830, 5008.841
811.8651, 5004.076
812.3472, 4996.499
812.8293, 4992.642
813.3115, 4995.116
813.7936, 4995.699
814.2757, 4990.064
814.7578, 4985.369
815.2399, 4987.436
815.7220, 4993.071
816.2042, 4996.896
816.6863, 4997.321
817.1684, 4995.656
817.6505, 4990.936
818.1326, 4985.857
818.6147, 4986.920
819.0969, 4992.752
819.5790, 4995.400
820.0611, 4992.501
820.5432, 4988.267
821.0253, 4987.086
821.5074, 4987.982
821.9896, 4984.135
822.4717, 4971.782
822.9538, 4963.191
823.4359, 4961.853
823.9180, 4962.284
824.4001, 4961.864
824.8823, 4961.002
825.3644, 4960.728
825.8465, 4961.549
826.3286, 4961.596
826.8107, 4958.398
827.2928, 4955.787
827.7750, 4958.909
828.2571, 4964.503
828.7392, 4965.181
829.2213, 4959.327
829.7034, 4953.149
830.1855, 4953.268
830.6677, 4956.954
831.1498, 4955.999
831.6319, 4950.536
832.1140, 4945.407
832.5961, 4941.541
833.0782, 4938.835
833.5604, 4937.255
834.0425, 4936.690
834.5246, 4936.785
835.0067, 4938.357
835.4888, 4939.096
835.9709, 4938.741
836.4531, 4937.854
836.9352, 4936.548
837.4173, 4934.930
837.8994, 4932.849
838.3815, 4930.279
838.8636, 4928.645
839.3458, 4929.709
839.8279, 4931.117
840.3100, 4930.756
840.7921, 4929.142
841.2742, 4927.341
841.7563, 4925.611
842.2385, 4923.692
842.7206, 4921.477
843.2027, 4918.769
843.6848, 4914.580
844.1669, 4908.880
844.6490, 4904.639
845.1312, 4902.330
845.6133, 4901.304
846.0954, 4901.856
846.5775, 4902.802
847.0596, 4901.275
847.5417, 4895.616
848.0239, 4892.601
848.5060, 4894.087
848.9881, 4895.794
849.4702, 4897.020
849.9523, 4897.299
850.4344, 4895.667
850.9166, 4892.438
851.3987, 4889.834
851.8808, 4889.565
852.3629, 4889.318
852.8450, 4886.463
853.3271, 4882.699
853.8093, 4881.743
854.2914, 4883.060
854.7735, 4881.525
855.2556, 4874.150
855.7377, 4865.521
856.2198, 4864.021
856.7020, 4869.284
857.1841, 4871.911
857.6662, 4871.351
858.1483, 4870.476
858.6304, 4870.604
859.1125, 4870.298
859.5947, 4867.400
860.0768, 4861.873
860.5589, 4858.174
861.0410, 4857.830
861.5231, 4857.016
862.0052, 4854.062
862.4874, 4851.586
862.9695, 4851.569
863.4516, 4853.360
863.9337, 4855.826
864.4158, 4859.167
864.8979, 4860.159
865.3801, 4854.734
865.8622, 4847.636
866.3443, 4845.457
866.8264, 4845.693
867.3085, 4840.773
867.7906, 4829.146
868.2728, 4817.529
868.7549, 4812.370
869.2370, 4811.774
869.7191, 4810.317
870.2012, 4808.019
870.6833, 4806.799
871.1655, 4807.195
871.6476, 4807.549
872.1297, 4806.653
872.6118, 4805.060
873.0939, 4804.281
873.5760, 4805.128
874.0581, 4804.335
874.5402, 4799.993
875.0223, 4796.261
875.5045, 4795.446
875.9866, 4794.958
876.4687, 4791.450
876.9508, 4785.265
877.4329, 4780.751
877.9150, 4781.442
878.3972, 4781.441
878.8793, 4775.519
879.3614, 4768.717
879.8435, 4767.975
880.3256, 4771.671
880.8077, 4772.846
881.2899, 4768.331
881.7720, 4762.663
882.2541, 4761.494
882.7362, 4763.306
883.2183, 4764.078
883.7004, 4763.689
884.1826, 4761.382
884.6647, 4756.719
885.1468, 4752.586
885.6289, 4752.255
886.1110, 4754.569
886.5931, 4753.028
887.0753, 4745.954
887.5574, 4740.134
888.0395, 4737.155
888.5216, 4734.023
889.0037, 4727.188
889.4858, 4719.979
889.9680, 4719.032
890.4501, 4726.087
890.9322, 4729.113
891.4143, 4723.289
891.8964, 4716.908
892.3785, 4712.773
892.8607, 4710.249
893.3428, 4708.622
893.8249, 4707.791
894.3070, 4708.390
894.7891, 4711.737
895.2712, 4713.458
895.7534, 4707.769
896.2355, 4698.939
896.7176, 4693.505
897.1997, 4691.422
897.6818, 4690.335
898.1639, 4689.313
898.6461, 4688.409
899.1282, 4687.972
899.6103, 4687.576
900.0924, 4684.705
900.5745, 4679.183
901.0566, 4675.510
901.5388, 4674.746
902.0209, 4675.320
902.5030, 4676.548
902.9851, 4677.834
903.4672, 4677.518
903.9493, 4675.431
904.4315, 4672.063
904.9136, 4665.583
905.3957, 4660.094
905.8778, 4656.292
906.3599, 4654.362
906.8420, 4655.522
907.3242, 4659.240
907.8063, 4661.376
908.2884, 4660.199
908.7705, 4658.323
909.2526, 4656.580
909.7347, 4654.731
910.2169, 4651.958
910.6990, 4649.079
911.1811, 4648.231
911.6632, 4650.102
912.1453, 4651.713
912.6274, 4650.907
913.1096, 4648.146
913.5917, 4642.596
914.0738, 4635.832
914.5559, 4632.851
915.0380, 4634.310
915.5201, 4635.999
916.0023, 4634.867
916.4844, 4632.117
916.9665, 4630.039
917.4486, 4628.622
917.9307, 4629.103
918.4128, 4632.190
918.8950, 4633.029
919.3771, 4629.157
919.8592, 4623.254
920.3413, 4618.346
920.8234, 4614.419
921.3055, 4612.058
921.7877, 4613.587
922.2698, 4612.616
922.7519, 4605.014
923.2340, 4598.360
923.7161, 4598.477
924.1982, 4601.597
924.6804, 4600.335
925.1625, 4593.015
925.6446, 4587.760
926.1267, 4588.714
926.6088, 4589.667
927.0909, 4587.093
927.5731, 4583.118
928.0552, 4578.497
928.5373, 4574.753
929.0194, 4576.758
929.5015, 4588.848
929.9836, 4599.351
930.4658, 4595.528
930.9479, 4585.794
931.4300, 4581.740
931.9121, 4582.780
932.3942, 4585.767
932.8763, 4589.200
933.3585, 4589.688
933.8406, 4583.164
934.3227, 4572.913
934.8048, 4567.400
935.2869, 4566.067
935.7690, 4562.880
936.2512, 4556.867
936.7333, 4554.082
937.2154, 4558.601
937.6975, 4565.188
938.1796, 4564.479
938.6617, 4555.943
939.1439, 4552.067
939.6260, 4554.598
940.1081, 4556.964
940.5902, 4558.070
941.0723, 4558.039
941.5544, 4556.313
942.0366, 4553.581
942.5187, 4552.424
943.0008, 4554.281
943.4829, 4554.177
943.9650, 4551.765
944.4471, 4547.578
944.9293, 4539.389
945.4114, 4531.223
945.8935, 4528.281
946.3756, 4529.916
946.8577, 4529.917
947.3398, 4524.932
947.8220, 4520.615
948.3041, 4520.655
948.7862, 4521.741
949.2683, 4520.420
949.7504, 4517.958
950.2325, 4518.022
950.7147, 4521.211
951.1968, 4522.876
951.6789, 4518.442
952.1610, 4511.917
952.6431, 4507.971
953.1252, 4505.840
953.6074, 4503.977
954.0895, 4502.188
954.5716, 4501.128
955.0537, 4501.132
955.5358, 4500.871
956.0179, 4497.765
956.5000, 4497.731
956.9821, 4491.654
957.4642, 4493.977
957.9464, 4493.528
958.4285, 4488.572
958.9106, 4483.758
959.3927, 4482.854
959.8748, 4484.114
960.3569, 4482.981
960.8391, 4479.187
961.3212, 4474.368
961.8033, 4467.723
962.2854, 4462.579
962.7675, 4460.649
963.2496, 4459.947
963.7318, 4458.411
964.2139, 4456.270
964.6960, 4455.153
965.1781, 4456.023
965.6602, 4456.346
966.1423, 4455.433
966.6245, 4454.698
967.1066, 4455.001
967.5887, 4455.568
968.0708, 4455.334
968.5529, 4454.256
969.0350, 4453.303
969.5172, 4453.100
969.9993, 4452.405
970.4814, 4449.661
970.9635, 4447.317
971.4456, 4448.150
971.9277, 4450.546
972.4099, 4450.856
972.8920, 4448.273
973.3741, 4446.784
973.8562, 4450.365
974.3383, 4454.112
974.8204, 4454.208
975.3026, 4452.031
975.7847, 4448.601
976.2668, 4444.834
976.7489, 4442.205
977.2310, 4441.358
977.7131, 4442.785
978.1953, 4447.716
978.6774, 4454.803
979.1595, 4462.795
979.6416, 4470.903
980.1237, 4475.716
980.6058, 4477.276
981.0880, 4480.619
981.5701, 4488.956
982.0522, 4500.795
982.5343, 4513.794
983.0164, 4527.951
983.4985, 4543.969
983.9807, 4561.705
984.4628, 4578.116
984.9449, 4591.966
985.4270, 4608.258
985.9091, 4631.365
986.3912, 4660.027
986.8734, 4691.461
987.3555, 4726.218
987.8376, 4758.731
988.3197, 4788.181
988.8018, 4818.353
989.2839, 4851.009
989.7661, 4884.084
990.2482, 4914.630
990.7303, 4943.489
991.2124, 4977.636
991.6945, 5018.028
992.1766, 5061.492
992.6588, 5106.787
993.1409, 5157.189
993.6230, 5216.260
994.1051, 5279.546
994.5872, 5340.188
995.0693, 5406.133
995.5515, 5462.996
996.0336, 5541.856
996.5157, 5617.271
996.9978, 5690.809
997.4799, 5756.239
997.9620, 5816.484
998.4442, 5863.420
998.9263, 5887.531
999.4084, 5887.564
999.8905, 5857.702
1000.373, 5790.053
1000.855, 5701.019
1001.337, 5585.264
1001.819, 5461.040
1002.301, 5339.614
1002.783, 5222.481
1003.265, 5108.531
1003.747, 4997.856
1004.230, 4896.492
1004.712, 4807.290
1005.194, 4728.755
1005.676, 4658.333
1006.158, 4598.313
1006.640, 4553.581
1007.122, 4520.545
1007.604, 4490.098
1008.086, 4458.908
1008.569, 4430.466
1009.051, 4408.244
1009.533, 4389.538
1010.015, 4372.604
1010.497, 4356.593
1010.979, 4339.443
1011.461, 4321.750
1011.943, 4306.137
1012.426, 4293.913
1012.908, 4284.413
1013.390, 4278.972
1013.872, 4274.647
1014.354, 4264.385
1014.836, 4250.794
1015.318, 4242.295
1015.800, 4239.480
1016.282, 4235.589
1016.765, 4226.625
1017.247, 4217.476
1017.729, 4216.062
1018.211, 4219.998
1018.693, 4221.163
1019.175, 4219.764
1019.657, 4217.224
1020.139, 4213.911
1020.622, 4211.039
1021.104, 4209.466
1021.586, 4208.412
1022.068, 4207.159
1022.550, 4205.438
1023.032, 4199.523
1023.514, 4189.349
1023.996, 4179.335
1024.478, 4170.460
1024.961, 4163.224
1025.443, 4158.332
1025.925, 4154.241
1026.407, 4146.855
1026.889, 4135.879
1027.371, 4129.053
1027.853, 4127.086
1028.335, 4125.108
1028.818, 4122.043
1029.300, 4117.893
1029.782, 4112.380
1030.264, 4106.176
1030.746, 4101.273
1031.228, 4097.908
1031.710, 4094.032
1032.192, 4089.023
1032.674, 4085.394
1033.156, 4084.429
1033.639, 4083.802
1034.121, 4081.418
1034.603, 4078.147
1035.085, 4076.565
1035.567, 4077.226
1036.049, 4077.691
1036.531, 4078.792
1037.013, 4078.126
1037.496, 4074.726
1037.978, 4069.779
1038.460, 4063.405
1038.942, 4056.414
1039.424, 4051.298
1039.906, 4048.385
1040.388, 4046.434
1040.870, 4046.989
1041.353, 4046.219
1041.835, 4040.836
1042.317, 4035.939
1042.799, 4037.059
1043.281, 4041.668
1043.763, 4042.105
1044.245, 4036.532
1044.727, 4032.109
1045.209, 4032.425
1045.692, 4029.589
1046.174, 4016.543
1046.656, 4004.043
1047.138, 4001.888
1047.620, 4006.944
1048.102, 4010.043
1048.584, 4009.857
1049.066, 4009.997
1049.548, 4013.088
1050.031, 4013.724
1050.513, 4007.772
1050.995, 4000.816
1051.477, 3997.241
1051.959, 3996.288
1052.441, 3995.232
1052.923, 3993.376
1053.405, 3992.973
1053.888, 3995.064
1054.370, 3997.907
1054.852, 4003.081
1055.334, 4006.756
1055.816, 4004.706
1056.298, 3998.893
1056.780, 3994.414
1057.262, 3992.513
1057.745, 3989.203
1058.227, 3981.587
1058.709, 3974.694
1059.191, 3970.188
1059.673, 3967.706
1060.155, 3968.789
1060.637, 3971.043
1061.119, 3968.560
1061.601, 3959.698
1062.083, 3954.514
1062.566, 3960.388
1063.048, 3965.525
1063.530, 3963.192
1064.012, 3959.274
1064.494, 3960.635
1064.976, 3963.810
1065.458, 3959.668
1065.940, 3946.425
1066.423, 3937.397
1066.905, 3941.069
1067.387, 3945.715
1067.869, 3947.167
1068.351, 3946.247
1068.833, 3941.832
1069.315, 3936.356
1069.797, 3934.467
1070.280, 3936.778
1070.762, 3938.060
1071.244, 3934.824
1071.726, 3931.864
1072.208, 3931.332
1072.690, 3932.001
1073.172, 3934.140
1073.654, 3936.162
1074.136, 3934.388
1074.619, 3929.065
1075.101, 3927.427
1075.583, 3936.477
1076.065, 3942.868
1076.547, 3936.891
1077.029, 3929.103
1077.511, 3927.765
1077.993, 3930.061
1078.475, 3930.803
1078.958, 3929.646
1079.440, 3930.005
1079.922, 3933.978
1080.404, 3937.778
1080.886, 3939.493
1081.368, 3940.530
1081.850, 3940.899
1082.332, 3941.850
1082.814, 3945.273
1083.297, 3950.875
1083.779, 3956.149
1084.261, 3959.366
1084.743, 3965.216
1085.225, 3978.711
1085.707, 3992.300
1086.189, 4001.957
1086.671, 4008.371
1087.154, 4010.270
1087.636, 4010.089
1088.118, 4015.027
1088.600, 4027.991
1089.082, 4041.341
1089.564, 4051.424
1090.046, 4061.779
1090.528, 4075.911
1091.010, 4089.996
1091.493, 4097.964
1091.975, 4103.051
1092.457, 4114.391
1092.939, 4134.697
1093.421, 4152.801
1093.903, 4164.373
1094.385, 4173.082
1094.867, 4181.349
1095.349, 4186.525
1095.832, 4187.637
1096.314, 4183.466
1096.796, 4171.511
1097.278, 4151.469
1097.760, 4128.275
1098.242, 4101.355
1098.724, 4074.511
1099.206, 4046.999
1099.689, 4021.810
1100.171, 4001.468
1100.653, 3984.490
1101.135, 3969.092
1101.617, 3954.850
1102.099, 3940.216
1102.581, 3923.670
1103.063, 3908.827
1103.546, 3896.540
1104.028, 3886.056
1104.510, 3876.995
1104.992, 3869.542
1105.474, 3865.123
1105.956, 3862.694
1106.438, 3857.226
1106.920, 3844.882
1107.402, 3837.286
1107.885, 3839.810
1108.367, 3842.678
1108.849, 3844.026
1109.331, 3842.778
1109.813, 3835.797
1110.295, 3825.891
1110.777, 3821.371
1111.259, 3824.857
1111.741, 3825.022
1112.224, 3817.924
1112.706, 3811.992
1113.188, 3810.386
1113.670, 3809.074
1114.152, 3804.805
1114.634, 3799.474
1115.116, 3796.493
1115.598, 3796.067
1116.081, 3795.881
1116.563, 3796.938
1117.045, 3796.444
1117.527, 3792.484
1118.009, 3789.278
1118.491, 3789.288
1118.973, 3790.480
1119.455, 3790.251
1119.938, 3788.776
1120.420, 3788.110
1120.902, 3789.083
1121.384, 3788.333
1121.866, 3783.716
1122.348, 3781.977
1122.830, 3786.971
1123.312, 3792.770
1123.794, 3793.554
1124.276, 3791.197
1124.759, 3792.329
1125.241, 3790.061
1125.723, 3785.188
1126.205, 3785.221
1126.687, 3775.292
1127.169, 3770.449
1127.651, 3768.914
1128.133, 3770.457
1128.616, 3772.425
1129.098, 3769.438
1129.580, 3761.986
1130.062, 3758.421
1130.544, 3759.043
1131.026, 3760.816
1131.508, 3763.642
1131.990, 3763.587
1132.473, 3758.392
1132.955, 3752.352
1133.437, 3750.580
1133.919, 3751.945
1134.401, 3752.874
1134.883, 3753.378
1135.365, 3753.468
1135.847, 3753.174
1136.329, 3753.480
1136.812, 3754.626
1137.294, 3752.911
1137.776, 3744.781
1138.258, 3735.446
1138.740, 3735.342
1139.222, 3741.463
1139.704, 3743.912
1140.186, 3743.278
1140.668, 3743.082
1141.151, 3743.841
1141.633, 3744.046
1142.115, 3742.910
1142.597, 3741.028
1143.079, 3738.599
1143.561, 3736.231
1144.043, 3735.028
1144.525, 3734.607
1145.008, 3734.255
1145.490, 3733.936
1145.972, 3734.167
1146.454, 3734.930
1146.936, 3734.735
1147.418, 3731.967
1147.900, 3729.187
1148.382, 3729.540
1148.865, 3730.666
1149.347, 3730.056
1149.829, 3728.094
1150.311, 3724.954
1150.793, 3721.437
1151.275, 3720.163
1151.757, 3722.620
1152.239, 3725.085
1152.721, 3726.021
1153.203, 3725.611
1153.686, 3722.685
1154.168, 3719.530
1154.650, 3718.609
1155.132, 3719.298
1155.614, 3719.807
1156.096, 3719.791
1156.578, 3720.012
1157.060, 3719.640
1157.543, 3721.032
1158.025, 3728.489
1158.507, 3733.808
1158.989, 3730.287
1159.471, 3723.255
1159.953, 3719.001
1160.435, 3717.583
1160.917, 3717.265
1161.400, 3717.958
1161.882, 3719.751
1162.364, 3724.236
1162.846, 3727.281
1163.328, 3726.695
1163.810, 3725.821
1164.292, 3727.169
1164.774, 3729.774
1165.256, 3731.774
1165.739, 3733.186
1166.221, 3733.364
1166.703, 3732.065
1167.185, 3730.320
1167.667, 3728.013
1168.149, 3726.222
1168.631, 3725.543
1169.113, 3725.320
1169.595, 3724.927
1170.078, 3724.247
1170.560, 3722.676
1171.042, 3720.267
1171.524, 3717.952
1172.006, 3715.803
1172.488, 3713.974
1172.970, 3712.539
1173.452, 3713.172
1173.934, 3717.213
1174.417, 3721.116
1174.899, 3718.646
1175.381, 3712.676
1175.863, 3710.755
1176.345, 3711.921
1176.827, 3713.984
1177.309, 3716.290
1177.791, 3717.642
1178.274, 3717.735
1178.756, 3717.794
1179.238, 3718.742
1179.720, 3720.046
1180.202, 3721.823
1180.684, 3723.062
1181.166, 3722.433
1181.648, 3720.375
1182.130, 3716.825
1182.613, 3712.719
1183.095, 3710.898
1183.577, 3712.567
1184.059, 3714.923
1184.541, 3717.062
1185.023, 3718.786
1185.505, 3720.831
1185.987, 3721.592
1186.469, 3717.984
1186.952, 3712.990
1187.434, 3712.191
1187.916, 3715.790
1188.398, 3718.039
1188.880, 3717.321
1189.362, 3716.469
1189.844, 3715.869
1190.326, 3715.050
1190.809, 3713.685
1191.291, 3712.240
1191.773, 3710.690
1192.255, 3709.582
1192.737, 3710.488
1193.219, 3713.728
1193.701, 3715.493
1194.183, 3715.899
1194.666, 3713.655
1195.148, 3707.318
1195.630, 3703.984
1196.112, 3707.380
1196.594, 3713.207
1197.076, 3717.375
1197.558, 3719.135
1198.040, 3714.246
1198.522, 3715.328
1199.005, 3713.263
1199.487, 3708.801
1199.969, 3709.212
1200.451, 3701.896
1200.933, 3698.051
1201.415, 3703.923
1201.897, 3710.706
1202.379, 3707.220
1202.861, 3699.988
1203.344, 3700.159
1203.826, 3697.611
1204.308, 3702.411
1204.790, 3698.250
1205.272, 3697.841
1205.754, 3701.517
1206.236, 3701.325
1206.718, 3691.667
1207.201, 3683.912
1207.683, 3687.452
1208.165, 3692.472
1208.647, 3692.703
1209.129, 3690.806
1209.611, 3689.540
1210.093, 3688.624
1210.575, 3686.602
1211.057, 3683.276
1211.540, 3680.782
1212.022, 3680.124
1212.504, 3679.301
1212.986, 3678.472
1213.468, 3676.942
1213.950, 3673.684
1214.432, 3670.651
1214.914, 3670.050
1215.396, 3667.107
1215.879, 3668.887
1216.361, 3664.319
1216.843, 3662.375
1217.325, 3663.388
1217.807, 3665.164
1218.289, 3667.762
1218.771, 3665.856
1219.253, 3656.529
1219.736, 3647.552
1220.218, 3647.331
1220.700, 3652.008
1221.182, 3653.219
1221.664, 3652.241
1222.146, 3654.392
1222.628, 3652.745
1223.110, 3656.491
1223.593, 3649.582
1224.075, 3643.212
1224.557, 3640.006
1225.039, 3639.090
1225.521, 3641.088
1226.003, 3643.355
1226.485, 3643.117
1226.967, 3642.303
1227.449, 3643.973
1227.932, 3645.825
1228.414, 3642.839
1228.896, 3636.040
1229.378, 3632.753
1229.860, 3635.895
1230.342, 3637.857
1230.824, 3634.960
1231.306, 3633.304
1231.788, 3635.914
1232.271, 3638.772
1232.753, 3639.594
1233.235, 3639.345
1233.717, 3639.467
1234.199, 3639.696
1234.681, 3637.505
1235.163, 3639.777
1235.645, 3643.254
1236.128, 3643.191
1236.610, 3651.306
1237.092, 3653.705
1237.574, 3653.167
1238.056, 3651.137
1238.538, 3648.730
1239.020, 3647.292
1239.502, 3646.688
1239.984, 3647.236
1240.467, 3648.117
1240.949, 3646.624
1241.431, 3643.338
1241.913, 3641.654
1242.395, 3641.314
1242.877, 3636.216
1243.359, 3622.616
1243.841, 3611.323
1244.323, 3612.381
1244.806, 3616.199
1245.288, 3616.991
1245.770, 3616.019
1246.252, 3613.442
1246.734, 3610.742
1247.216, 3610.860
1247.698, 3613.385
1248.180, 3613.151
1248.662, 3607.231
1249.145, 3604.135
1249.627, 3606.687
1250.109, 3608.238
1250.591, 3607.575
1251.073, 3605.208
1251.555, 3600.396
1252.037, 3595.853
1252.519, 3595.531
1253.002, 3598.437
1253.484, 3599.956
1253.966, 3600.106
1254.448, 3601.410
1254.930, 3603.839
1255.412, 3606.117
1255.894, 3607.812
1256.376, 3607.774
1256.859, 3605.391
1257.341, 3602.584
1257.823, 3601.609
1258.305, 3600.957
1258.787, 3597.570
1259.269, 3594.181
1259.751, 3594.639
1260.233, 3597.832
1260.715, 3602.515
1261.198, 3607.469
1261.680, 3609.754
1262.162, 3608.301
1262.644, 3605.868
1263.126, 3602.281
1263.608, 3599.315
1264.090, 3597.203
1264.572, 3596.164
1265.054, 3597.008
1265.537, 3598.227
1266.019, 3598.237
1266.501, 3597.343
1266.983, 3596.453
1267.465, 3595.473
1267.947, 3595.747
1268.429, 3597.428
1268.911, 3598.456
1269.394, 3598.511
1269.876, 3599.154
1270.358, 3601.039
1270.840, 3601.777
1271.322, 3598.771
1271.804, 3601.057
1272.286, 3597.457
1272.768, 3601.834
1273.250, 3603.107
1273.733, 3602.137
1274.215, 3600.297
1274.697, 3598.093
1275.179, 3595.768
1275.661, 3593.464
1276.143, 3592.268
1276.625, 3592.484
1277.107, 3594.086
1277.589, 3600.106
1278.072, 3603.561
1278.554, 3599.853
1279.036, 3593.836
1279.518, 3588.312
1280.000, 3583.704
1280.482, 3580.716
1280.964, 3579.549
1281.446, 3581.256
1281.929, 3586.011
1282.411, 3589.782
1282.893, 3592.549
1283.375, 3590.994
1283.857, 3584.403
1284.339, 3579.636
1284.821, 3580.942
1285.303, 3585.754
1285.786, 3592.074
1286.268, 3599.269
##END=



