##NAMES=Spencerite
##RRUFFID=R050581
##IDEAL CHEMISTRY=Zn^2+^_4_(P^5+^O_4_)_2_(OH)_2_&#183;3H_2_O
##LOCALITY=Salmo, British Columbia, Canada
##OWNER=RRUFF
##SOURCE=University of Arizona Mineral Museum
##DESCRIPTION=White aggregate of parallel bladed crystals
##STATUS=The identification of this mineral has been confirmed by X-ray diffraction.
##URL=rruff.info/R050581
91.11523, 329.2085
91.59735, 331.0981
92.07947, 330.0928
92.56158, 326.8183
93.04370, 323.2264
93.52582, 319.0375
94.00793, 315.3970
94.49006, 315.6563
94.97218, 321.2144
95.45429, 328.3332
95.93641, 330.6408
96.41853, 328.2500
96.90064, 325.7762
97.38276, 327.0997
97.86488, 331.7933
98.34699, 334.9866
98.82911, 335.3309
99.31123, 333.9455
99.79334, 334.6422
100.2755, 337.7464
100.7576, 341.7867
101.2397, 346.2782
101.7218, 352.0372
102.2039, 354.0937
102.6861, 349.1987
103.1682, 337.4645
103.6503, 334.7889
104.1324, 344.5335
104.6145, 359.5786
105.0966, 371.9045
105.5788, 381.2169
106.0609, 388.0191
106.5430, 391.0972
107.0251, 387.6264
107.5072, 390.7993
107.9893, 404.0824
108.4715, 423.1953
108.9536, 440.4197
109.4357, 451.6428
109.9178, 464.7950
110.3999, 482.4955
110.8820, 504.8651
111.3642, 531.2880
111.8463, 560.8793
112.3284, 594.4904
112.8105, 634.5282
113.2926, 686.0750
113.7747, 741.5365
114.2569, 796.3983
114.7390, 840.9176
115.2211, 895.6265
115.7032, 964.7279
116.1853, 1047.617
116.6674, 1140.804
117.1496, 1240.974
117.6317, 1353.344
118.1138, 1481.132
118.5959, 1625.974
119.0780, 1786.985
119.5602, 1966.875
120.0423, 2166.497
120.5244, 2372.463
121.0065, 2580.089
121.4886, 2789.312
121.9707, 3000.961
122.4529, 3219.735
122.9350, 3436.125
123.4171, 3642.192
123.8992, 3837.569
124.3813, 4022.960
124.8634, 4197.729
125.3456, 4362.836
125.8277, 4521.125
126.3098, 4661.154
126.7919, 4797.552
127.2740, 4948.632
127.7561, 5114.751
128.2383, 5300.120
128.7204, 5512.457
129.2025, 5749.890
129.6846, 6002.575
130.1667, 6269.220
130.6488, 6544.553
131.1310, 6829.602
131.6131, 7125.664
132.0952, 7428.779
132.5773, 7733.526
133.0594, 8041.261
133.5415, 8346.736
134.0237, 8650.160
134.5058, 8952.724
134.9879, 9251.841
135.4700, 9553.926
135.9521, 9850.343
136.4343, 10123.33
136.9164, 10372.76
137.3985, 10602.31
137.8806, 10815.83
138.3627, 11013.95
138.8448, 11201.23
139.3270, 11379.80
139.8091, 11550.85
140.2912, 11715.75
140.7733, 11872.33
141.2554, 12029.24
141.7375, 12191.61
142.2197, 12358.39
142.7018, 12538.11
143.1839, 12733.80
143.6660, 12945.10
144.1481, 13165.12
144.6302, 13392.78
145.1124, 13628.53
145.5945, 13869.48
146.0766, 14124.02
146.5587, 14375.27
147.0408, 14620.17
147.5230, 14858.71
148.0051, 15083.53
148.4872, 15219.49
148.9693, 15254.42
149.4514, 15296.47
149.9335, 15362.11
150.4157, 15419.37
150.8978, 15456.28
151.3799, 15456.44
151.8620, 15474.46
152.3441, 15519.78
152.8262, 15582.06
153.3084, 15640.96
153.7905, 15702.39
154.2726, 15754.77
154.7547, 15793.70
155.2368, 15808.98
155.7189, 15826.09
156.2011, 15845.38
156.6832, 15867.94
157.1653, 15896.50
157.6474, 15936.06
158.1295, 15977.85
158.6116, 16017.33
159.0938, 16052.32
159.5759, 16086.35
160.0580, 16119.97
160.5401, 16152.98
161.0222, 16185.11
161.5044, 16218.20
161.9865, 16248.97
162.4686, 16274.75
162.9507, 16285.39
163.4328, 16301.47
163.9149, 16334.44
164.3971, 16381.53
164.8792, 16427.76
165.3613, 16465.37
165.8434, 16499.50
166.3255, 16534.97
166.8076, 16573.12
167.2898, 16612.92
167.7719, 16653.72
168.2540, 16695.78
168.7361, 16740.59
169.2182, 16783.07
169.7003, 16830.56
170.1825, 16891.78
170.6646, 16985.26
171.1467, 17083.10
171.6288, 17164.40
172.1109, 17228.72
172.5931, 17286.13
173.0752, 17340.78
173.5573, 17393.21
174.0394, 17444.69
174.5215, 17508.41
175.0036, 17564.43
175.4858, 17589.71
175.9679, 17584.10
176.4500, 17556.68
176.9321, 17505.35
177.4142, 17437.29
177.8963, 17369.94
178.3785, 17308.02
178.8606, 17251.18
179.3427, 17201.72
179.8248, 17159.55
180.3069, 17120.31
180.7890, 17075.35
181.2712, 17028.70
181.7533, 16993.90
182.2354, 16986.08
182.7175, 16993.50
183.1996, 16988.95
183.6818, 16969.46
184.1639, 16949.41
184.6460, 16948.06
185.1281, 16962.18
185.6102, 16974.80
186.0923, 16976.31
186.5745, 16969.73
187.0566, 16963.21
187.5387, 16956.25
188.0208, 16952.65
188.5029, 16959.82
188.9850, 16977.01
189.4672, 16993.95
189.9493, 17004.64
190.4314, 17010.58
190.9135, 17019.41
191.3956, 17031.80
191.8777, 17046.75
192.3599, 17064.18
192.8420, 17084.03
193.3241, 17102.63
193.8062, 17116.56
194.2883, 17126.40
194.7704, 17138.18
195.2526, 17151.35
195.7347, 17167.19
196.2168, 17188.66
196.6989, 17215.66
197.1810, 17245.25
197.6632, 17279.52
198.1453, 17318.54
198.6274, 17342.04
199.1095, 17343.77
199.5916, 17336.71
200.0737, 17349.82
200.5559, 17386.20
201.0380, 17424.35
201.5201, 17452.57
202.0022, 17470.72
202.4843, 17488.69
202.9664, 17506.48
203.4486, 17525.76
203.9307, 17550.53
204.4128, 17581.46
204.8949, 17615.26
205.3770, 17651.93
205.8591, 17692.69
206.3413, 17726.67
206.8234, 17751.50
207.3055, 17770.09
207.7876, 17790.46
208.2697, 17813.20
208.7519, 17834.21
209.2340, 17849.70
209.7161, 17857.18
210.1982, 17870.32
210.6803, 17890.10
211.1624, 17915.71
211.6446, 17946.50
212.1267, 17985.02
212.6088, 18022.57
213.0909, 18054.15
213.5730, 18077.76
214.0551, 18104.76
214.5373, 18137.32
215.0194, 18173.42
215.5015, 18207.29
215.9836, 18237.62
216.4657, 18269.32
216.9478, 18306.44
217.4300, 18351.80
217.9121, 18392.47
218.3942, 18424.04
218.8763, 18451.07
219.3584, 18488.10
219.8405, 18539.08
220.3227, 18591.15
220.8048, 18636.87
221.2869, 18672.79
221.7690, 18712.51
222.2511, 18757.77
222.7333, 18806.54
223.2154, 18851.49
223.6975, 18892.43
224.1796, 18931.42
224.6617, 18969.70
225.1438, 19007.63
225.6260, 19044.90
226.1081, 19080.78
226.5902, 19116.83
227.0723, 19155.96
227.5544, 19200.61
228.0365, 19245.85
228.5187, 19290.14
229.0008, 19335.62
229.4829, 19374.55
229.9650, 19406.99
230.4471, 19432.41
230.9292, 19449.40
231.4114, 19453.19
231.8935, 19454.78
232.3756, 19458.81
232.8577, 19466.70
233.3398, 19472.79
233.8220, 19478.60
234.3041, 19481.79
234.7862, 19476.07
235.2683, 19457.50
235.7504, 19436.54
236.2325, 19416.94
236.7147, 19398.70
237.1968, 19384.29
237.6789, 19375.15
238.1610, 19370.31
238.6431, 19366.98
239.1252, 19364.61
239.6074, 19365.82
240.0895, 19371.99
240.5716, 19384.20
241.0537, 19398.88
241.5358, 19416.90
242.0179, 19436.87
242.5001, 19455.19
242.9822, 19466.38
243.4643, 19483.81
243.9464, 19512.46
244.4285, 19554.69
244.9106, 19598.69
245.3928, 19644.26
245.8749, 19691.01
246.3570, 19738.40
246.8391, 19785.43
247.3212, 19834.00
247.8034, 19885.27
248.2855, 19940.57
248.7676, 19993.79
249.2497, 20045.77
249.7318, 20095.94
250.2139, 20142.16
250.6961, 20179.18
251.1782, 20223.19
251.6603, 20281.74
252.1424, 20359.01
252.6245, 20427.99
253.1066, 20482.60
253.5888, 20535.40
254.0709, 20605.76
254.5530, 20704.80
255.0351, 20798.90
255.5172, 20876.78
255.9993, 20936.95
256.4815, 21000.27
256.9636, 21065.76
257.4457, 21134.36
257.9278, 21208.73
258.4099, 21292.34
258.8921, 21374.13
259.3742, 21453.47
259.8563, 21529.78
260.3384, 21599.46
260.8205, 21662.90
261.3026, 21718.34
261.7848, 21764.93
262.2669, 21802.63
262.7490, 21830.54
263.2311, 21847.70
263.7132, 21854.45
264.1953, 21854.79
264.6775, 21850.95
265.1596, 21836.81
265.6417, 21806.22
266.1238, 21757.17
266.6059, 21698.76
267.0880, 21631.93
267.5702, 21556.78
268.0523, 21478.45
268.5344, 21396.40
269.0165, 21310.18
269.4986, 21215.51
269.9807, 21107.06
270.4629, 21010.53
270.9450, 20932.00
271.4271, 20866.81
271.9092, 20799.30
272.3913, 20728.51
272.8734, 20657.89
273.3556, 20588.69
273.8377, 20520.22
274.3198, 20457.35
274.8019, 20399.97
275.2840, 20348.01
275.7661, 20300.06
276.2483, 20255.64
276.7304, 20217.31
277.2125, 20189.63
277.6946, 20173.42
278.1768, 20153.96
278.6589, 20128.76
279.1410, 20102.36
279.6231, 20084.97
280.1052, 20077.74
280.5873, 20071.88
281.0695, 20064.57
281.5516, 20055.86
282.0337, 20040.24
282.5158, 20015.06
282.9979, 19988.45
283.4800, 19974.18
283.9622, 19972.55
284.4443, 19973.26
284.9264, 19971.03
285.4085, 19966.40
285.8906, 19965.88
286.3727, 19969.89
286.8549, 19975.50
287.3370, 19980.20
287.8191, 19983.76
288.3012, 19983.57
288.7833, 19977.50
289.2654, 19967.01
289.7476, 19957.43
290.2297, 19949.11
290.7118, 19940.18
291.1939, 19927.35
291.6760, 19911.81
292.1581, 19899.57
292.6403, 19895.63
293.1224, 19894.89
293.6045, 19881.17
294.0866, 19854.59
294.5687, 19831.77
295.0508, 19832.46
295.5330, 19849.85
296.0151, 19859.84
296.4972, 19854.25
296.9793, 19841.59
297.4614, 19835.32
297.9435, 19834.96
298.4257, 19837.79
298.9078, 19845.67
299.3899, 19854.99
299.8720, 19856.85
300.3541, 19847.41
300.8362, 19835.01
301.3184, 19829.83
301.8005, 19830.66
302.2826, 19832.67
302.7647, 19837.47
303.2469, 19840.25
303.7290, 19831.29
304.2111, 19806.58
304.6932, 19781.74
305.1753, 19775.81
305.6574, 19781.97
306.1396, 19784.44
306.6217, 19769.17
307.1038, 19749.28
307.5859, 19741.78
308.0680, 19749.21
308.5501, 19752.01
309.0323, 19727.94
309.5144, 19690.59
309.9965, 19661.69
310.4786, 19654.94
310.9607, 19656.33
311.4428, 19658.16
311.9250, 19660.13
312.4071, 19658.10
312.8892, 19644.29
313.3713, 19627.47
313.8534, 19616.81
314.3355, 19621.35
314.8177, 19627.51
315.2998, 19625.66
315.7819, 19618.07
316.2640, 19616.97
316.7461, 19635.84
317.2282, 19658.62
317.7104, 19672.78
318.1925, 19669.38
318.6746, 19665.96
319.1567, 19671.31
319.6388, 19681.40
320.1209, 19685.45
320.6031, 19669.56
321.0852, 19654.60
321.5673, 19651.83
322.0494, 19667.24
322.5315, 19684.59
323.0136, 19702.55
323.4958, 19720.38
323.9779, 19736.78
324.4600, 19749.23
324.9421, 19762.88
325.4242, 19778.69
325.9064, 19796.31
326.3885, 19819.32
326.8706, 19856.44
327.3527, 19895.82
327.8348, 19925.41
328.3170, 19929.11
328.7991, 19939.78
329.2812, 19963.67
329.7633, 20000.97
330.2454, 20038.51
330.7275, 20077.24
331.2097, 20114.18
331.6918, 20146.38
332.1739, 20166.25
332.6560, 20193.20
333.1381, 20231.87
333.6202, 20278.86
334.1024, 20317.23
334.5845, 20342.50
335.0666, 20364.78
335.5487, 20390.39
336.0308, 20423.45
336.5129, 20447.41
336.9951, 20459.59
337.4772, 20464.88
337.9593, 20474.33
338.4414, 20491.01
338.9235, 20505.03
339.4056, 20510.99
339.8878, 20508.16
340.3699, 20512.70
340.8520, 20526.15
341.3341, 20544.81
341.8162, 20565.14
342.2983, 20587.06
342.7805, 20608.35
343.2626, 20627.33
343.7447, 20644.52
344.2268, 20662.89
344.7089, 20682.37
345.1910, 20701.61
345.6732, 20716.86
346.1553, 20729.07
346.6374, 20747.82
347.1195, 20777.99
347.6016, 20812.31
348.0837, 20836.76
348.5659, 20851.96
349.0480, 20862.37
349.5301, 20870.72
350.0122, 20877.15
350.4944, 20881.31
350.9765, 20883.66
351.4586, 20883.75
351.9407, 20878.93
352.4228, 20871.04
352.9049, 20865.68
353.3871, 20864.69
353.8692, 20868.37
354.3513, 20878.48
354.8334, 20895.21
355.3155, 20912.41
355.7976, 20925.30
356.2798, 20934.98
356.7619, 20943.50
357.2440, 20947.66
357.7261, 20953.28
358.2082, 20964.62
358.6903, 20981.03
359.1725, 20999.52
359.6546, 21020.13
360.1367, 21041.00
360.6188, 21060.37
361.1009, 21077.61
361.5830, 21093.27
362.0652, 21106.56
362.5473, 21118.50
363.0294, 21131.50
363.5115, 21150.31
363.9936, 21167.81
364.4757, 21179.59
364.9579, 21183.38
365.4400, 21188.86
365.9221, 21200.22
366.4042, 21214.13
366.8863, 21226.29
367.3684, 21230.02
367.8506, 21238.66
368.3327, 21259.88
368.8148, 21295.67
369.2969, 21319.32
369.7790, 21318.43
370.2611, 21314.19
370.7433, 21321.44
371.2254, 21347.27
371.7075, 21373.16
372.1896, 21399.32
372.6717, 21424.45
373.1538, 21442.48
373.6360, 21449.65
374.1181, 21455.19
374.6002, 21463.94
375.0823, 21478.13
375.5645, 21486.71
376.0466, 21488.16
376.5287, 21485.51
377.0108, 21484.61
377.4929, 21486.88
377.9750, 21484.98
378.4572, 21477.63
378.9393, 21464.71
379.4214, 21440.48
379.9035, 21403.04
380.3856, 21363.96
380.8677, 21338.84
381.3499, 21326.02
381.8320, 21303.05
382.3141, 21261.95
382.7962, 21211.02
383.2783, 21163.46
383.7604, 21119.53
384.2426, 21083.21
384.7247, 21062.02
385.2068, 21049.62
385.6889, 21028.77
386.1710, 20995.79
386.6531, 20962.10
387.1353, 20939.07
387.6174, 20924.93
388.0995, 20914.72
388.5816, 20907.99
389.0637, 20903.24
389.5458, 20898.51
390.0280, 20893.99
390.5101, 20891.92
390.9922, 20895.43
391.4743, 20901.76
391.9564, 20908.21
392.4385, 20917.46
392.9207, 20922.32
393.4028, 20914.88
393.8849, 20899.23
394.3670, 20887.79
394.8491, 20887.45
395.3312, 20890.79
395.8134, 20894.02
396.2955, 20896.90
396.7776, 20898.49
397.2597, 20900.30
397.7418, 20900.17
398.2239, 20895.27
398.7061, 20879.31
399.1882, 20864.75
399.6703, 20855.26
400.1524, 20851.18
400.6346, 20846.24
401.1167, 20844.71
401.5988, 20838.84
402.0809, 20822.24
402.5630, 20785.62
403.0451, 20755.88
403.5273, 20735.01
404.0094, 20721.90
404.4915, 20715.79
404.9736, 20720.78
405.4557, 20721.95
405.9378, 20710.99
406.4200, 20686.37
406.9021, 20665.90
407.3842, 20649.96
407.8663, 20637.94
408.3484, 20632.37
408.8305, 20633.65
409.3127, 20627.82
409.7948, 20608.59
410.2769, 20581.76
410.7590, 20562.35
411.2411, 20550.66
411.7232, 20544.05
412.2054, 20541.25
412.6875, 20542.09
413.1696, 20547.18
413.6517, 20558.35
414.1338, 20568.03
414.6159, 20560.94
415.0981, 20543.98
415.5802, 20536.40
416.0623, 20559.25
416.5444, 20589.09
417.0265, 20599.17
417.5086, 20588.72
417.9908, 20578.30
418.4729, 20579.24
418.9550, 20587.48
419.4371, 20599.07
419.9192, 20617.43
420.4013, 20633.39
420.8835, 20641.99
421.3656, 20645.14
421.8477, 20648.57
422.3298, 20658.51
422.8119, 20665.83
423.2940, 20664.51
423.7762, 20648.59
424.2583, 20641.34
424.7404, 20652.76
425.2225, 20671.47
425.7047, 20684.69
426.1868, 20690.27
426.6689, 20693.02
427.1510, 20690.82
427.6331, 20684.84
428.1152, 20688.63
428.5974, 20707.42
429.0795, 20728.29
429.5616, 20744.60
430.0437, 20756.59
430.5258, 20760.98
431.0079, 20753.95
431.4901, 20743.42
431.9722, 20745.43
432.4543, 20761.21
432.9364, 20775.44
433.4185, 20781.03
433.9006, 20779.94
434.3828, 20781.12
434.8649, 20784.71
435.3470, 20789.38
435.8291, 20795.91
436.3112, 20803.06
436.7933, 20804.82
437.2755, 20796.69
437.7576, 20790.68
438.2397, 20809.24
438.7218, 20844.84
439.2039, 20871.71
439.6860, 20863.03
440.1682, 20845.82
440.6503, 20848.60
441.1324, 20873.41
441.6145, 20904.35
442.0966, 20938.71
442.5787, 20970.79
443.0609, 20994.38
443.5430, 20998.24
444.0251, 21002.26
444.5072, 21013.46
444.9893, 21030.08
445.4714, 21046.51
445.9536, 21057.18
446.4357, 21071.24
446.9178, 21094.65
447.3999, 21134.86
447.8820, 21166.28
448.3641, 21181.22
448.8463, 21192.36
449.3284, 21213.83
449.8105, 21250.89
450.2926, 21289.54
450.7747, 21328.02
451.2569, 21366.53
451.7390, 21404.39
452.2211, 21440.91
452.7032, 21478.55
453.1853, 21518.73
453.6674, 21561.56
454.1496, 21603.98
454.6317, 21646.04
455.1138, 21686.54
455.5959, 21723.38
456.0780, 21756.81
456.5602, 21788.03
457.0423, 21821.82
457.5244, 21851.13
458.0065, 21857.60
458.4886, 21843.17
458.9707, 21827.71
459.4529, 21833.20
459.9350, 21845.35
460.4171, 21841.37
460.8992, 21815.53
461.3813, 21782.77
461.8634, 21752.60
462.3456, 21723.65
462.8277, 21694.13
463.3098, 21661.42
463.7919, 21629.00
464.2740, 21598.09
464.7561, 21568.55
465.2383, 21540.31
465.7204, 21515.28
466.2025, 21489.52
466.6846, 21460.30
467.1667, 21421.80
467.6488, 21388.18
468.1310, 21363.97
468.6131, 21343.55
469.0952, 21317.12
469.5773, 21279.97
470.0594, 21244.55
470.5415, 21215.28
471.0237, 21191.92
471.5058, 21159.77
471.9879, 21114.09
472.4700, 21070.57
472.9521, 21043.41
473.4342, 21033.51
473.9164, 21021.93
474.3985, 21007.57
474.8806, 20989.53
475.3627, 20961.62
475.8448, 20925.45
476.3270, 20897.71
476.8091, 20890.98
477.2912, 20895.43
477.7733, 20890.96
478.2554, 20878.21
478.7375, 20866.51
479.2197, 20864.93
479.7018, 20868.05
480.1839, 20867.73
480.6660, 20860.36
481.1481, 20855.01
481.6302, 20859.71
482.1124, 20870.16
482.5945, 20879.12
483.0766, 20886.71
483.5587, 20889.69
484.0408, 20881.78
484.5229, 20863.69
485.0051, 20856.44
485.4872, 20874.97
485.9693, 20897.59
486.4514, 20911.13
486.9335, 20907.06
487.4156, 20908.90
487.8978, 20920.01
488.3799, 20935.45
488.8620, 20947.86
489.3441, 20957.07
489.8262, 20964.02
490.3083, 20967.79
490.7905, 20969.41
491.2726, 20976.68
491.7547, 20990.58
492.2368, 21005.75
492.7189, 21016.49
493.2010, 21024.05
493.6832, 21036.92
494.1653, 21056.64
494.6474, 21078.49
495.1295, 21098.52
495.6116, 21115.98
496.0938, 21129.17
496.5759, 21132.58
497.0580, 21135.02
497.5401, 21146.54
498.0222, 21165.97
498.5044, 21186.83
498.9865, 21206.43
499.4686, 21225.73
499.9507, 21246.94
500.4328, 21272.50
500.9149, 21291.99
501.3971, 21294.84
501.8792, 21292.75
502.3613, 21299.21
502.8434, 21326.46
503.3255, 21351.06
503.8076, 21366.22
504.2898, 21374.61
504.7719, 21389.75
505.2540, 21416.81
505.7361, 21442.25
506.2182, 21459.42
506.7003, 21466.20
507.1825, 21477.94
507.6646, 21496.55
508.1467, 21516.27
508.6288, 21530.22
509.1109, 21538.62
509.5930, 21548.21
510.0752, 21560.98
510.5573, 21575.45
511.0394, 21591.26
511.5215, 21607.57
512.0037, 21617.86
512.4858, 21615.55
512.9679, 21606.52
513.4500, 21597.68
513.9321, 21589.28
514.4142, 21583.07
514.8964, 21585.56
515.3785, 21588.21
515.8606, 21581.19
516.3427, 21556.30
516.8248, 21531.30
517.3069, 21508.72
517.7891, 21491.08
518.2712, 21483.01
518.7533, 21498.78
519.2354, 21510.94
519.7175, 21511.61
520.1996, 21501.08
520.6818, 21485.31
521.1639, 21454.46
521.6460, 21430.60
522.1281, 21429.47
522.6102, 21459.06
523.0923, 21480.35
523.5745, 21491.91
524.0566, 21496.00
524.5387, 21493.34
525.0208, 21483.90
525.5029, 21477.96
525.9850, 21478.84
526.4672, 21484.72
526.9493, 21494.96
527.4314, 21508.54
527.9135, 21516.32
528.3956, 21513.56
528.8777, 21501.35
529.3599, 21475.87
529.8420, 21435.25
530.3241, 21403.69
530.8062, 21407.12
531.2883, 21424.21
531.7704, 21430.77
532.2526, 21410.52
532.7347, 21392.17
533.2168, 21384.19
533.6989, 21384.58
534.1810, 21388.26
534.6631, 21400.82
535.1453, 21410.23
535.6274, 21410.31
536.1095, 21400.61
536.5916, 21403.29
537.0737, 21424.41
537.5558, 21448.67
538.0380, 21465.42
538.5201, 21473.50
539.0022, 21481.13
539.4843, 21486.79
539.9664, 21495.96
540.4485, 21520.38
540.9307, 21557.68
541.4128, 21589.64
541.8949, 21606.50
542.3770, 21617.38
542.8591, 21637.99
543.3412, 21666.34
543.8234, 21694.41
544.3055, 21720.87
544.7876, 21742.13
545.2697, 21751.00
545.7518, 21745.56
546.2339, 21744.34
546.7161, 21761.14
547.1982, 21783.91
547.6803, 21802.37
548.1624, 21811.15
548.6445, 21820.18
549.1266, 21833.95
549.6088, 21849.14
550.0909, 21858.33
550.5730, 21857.20
551.0551, 21858.58
551.5372, 21866.47
552.0193, 21880.55
552.5015, 21895.75
552.9836, 21912.79
553.4657, 21928.76
553.9478, 21939.49
554.4299, 21945.79
554.9120, 21958.88
555.3942, 21979.74
555.8763, 22002.46
556.3584, 22017.92
556.8405, 22029.46
557.3226, 22046.56
557.8047, 22074.43
558.2869, 22104.83
558.7690, 22134.64
559.2511, 22161.34
559.7332, 22178.25
560.2154, 22173.63
560.6975, 22166.38
561.1796, 22166.35
561.6617, 22174.47
562.1439, 22184.14
562.6260, 22197.29
563.1081, 22209.70
563.5902, 22218.78
564.0723, 22220.72
564.5544, 22227.76
565.0366, 22240.33
565.5187, 22257.44
566.0008, 22277.83
566.4829, 22301.83
566.9650, 22327.43
567.4471, 22355.12
567.9293, 22382.70
568.4114, 22402.74
568.8935, 22415.63
569.3756, 22428.57
569.8577, 22446.23
570.3398, 22466.15
570.8220, 22483.50
571.3041, 22498.44
571.7862, 22512.58
572.2683, 22526.60
572.7504, 22541.01
573.2325, 22555.87
573.7147, 22569.42
574.1968, 22588.77
574.6789, 22624.07
575.1610, 22664.37
575.6431, 22695.92
576.1252, 22702.77
576.6074, 22717.43
577.0895, 22747.40
577.5716, 22788.88
578.0537, 22827.09
578.5358, 22859.70
579.0179, 22894.61
579.5001, 22935.20
579.9822, 22981.40
580.4643, 23026.81
580.9464, 23070.69
581.4285, 23117.59
581.9106, 23176.63
582.3928, 23242.75
582.8749, 23298.26
583.3570, 23340.18
583.8391, 23375.81
584.3212, 23405.60
584.8033, 23435.58
585.2855, 23476.33
585.7676, 23537.01
586.2497, 23603.66
586.7318, 23685.65
587.2139, 23770.18
587.6960, 23820.64
588.1782, 23800.33
588.6603, 23770.88
589.1424, 23752.16
589.6245, 23744.53
590.1066, 23736.49
590.5887, 23730.21
591.0709, 23719.80
591.5530, 23702.69
592.0351, 23679.44
592.5172, 23640.19
592.9993, 23579.29
593.4814, 23517.99
593.9636, 23487.78
594.4457, 23483.23
594.9278, 23472.62
595.4099, 23445.39
595.8920, 23414.32
596.3741, 23396.23
596.8563, 23388.03
597.3384, 23381.39
597.8205, 23371.45
598.3026, 23363.06
598.7847, 23361.99
599.2668, 23367.10
599.7490, 23367.26
600.2311, 23353.34
600.7132, 23337.82
601.1953, 23327.06
601.6774, 23322.27
602.1595, 23316.24
602.6417, 23308.03
603.1238, 23298.31
603.6059, 23287.49
604.0880, 23274.96
604.5701, 23263.86
605.0522, 23256.93
605.5344, 23246.85
606.0165, 23216.08
606.4986, 23168.49
606.9807, 23130.22
607.4628, 23117.50
607.9449, 23114.08
608.4271, 23096.22
608.9092, 23067.88
609.3913, 23044.15
609.8735, 23042.04
610.3556, 23041.33
610.8377, 23023.77
611.3198, 22987.51
611.8019, 22962.94
612.2841, 22969.60
612.7662, 22981.91
613.2483, 22982.76
613.7304, 22964.04
614.2125, 22951.16
614.6946, 22946.27
615.1768, 22944.00
615.6589, 22937.35
616.1410, 22925.10
616.6231, 22914.91
617.1052, 22907.86
617.5873, 22903.85
618.0695, 22906.76
618.5516, 22914.63
619.0337, 22915.58
619.5158, 22895.53
619.9979, 22871.74
620.4800, 22869.34
620.9622, 22884.41
621.4443, 22896.00
621.9264, 22887.97
622.4085, 22876.91
622.8906, 22874.10
623.3727, 22882.09
623.8549, 22886.49
624.3370, 22877.67
624.8191, 22868.78
625.3012, 22868.98
625.7833, 22884.75
626.2654, 22892.59
626.7476, 22889.63
627.2297, 22881.65
627.7118, 22874.43
628.1939, 22867.80
628.6760, 22870.62
629.1581, 22888.94
629.6403, 22911.73
630.1224, 22923.34
630.6045, 22924.30
631.0866, 22915.39
631.5687, 22882.42
632.0508, 22851.21
632.5330, 22847.87
633.0151, 22869.04
633.4972, 22894.49
633.9793, 22923.51
634.4614, 22948.40
634.9435, 22961.85
635.4257, 22958.70
635.9078, 22967.84
636.3899, 22995.62
636.8720, 23029.54
637.3541, 23060.58
637.8362, 23088.10
638.3184, 23115.46
638.8005, 23142.03
639.2826, 23168.88
639.7647, 23199.64
640.2468, 23233.02
640.7289, 23257.93
641.2111, 23267.42
641.6932, 23276.22
642.1753, 23307.41
642.6574, 23352.49
643.1395, 23390.29
643.6216, 23406.40
644.1038, 23417.46
644.5859, 23432.38
645.0680, 23450.21
645.5501, 23466.26
646.0322, 23480.01
646.5143, 23491.03
646.9965, 23497.52
647.4786, 23499.07
647.9607, 23508.80
648.4428, 23534.03
648.9249, 23552.88
649.4070, 23544.70
649.8892, 23510.50
650.3713, 23496.09
650.8534, 23505.41
651.3355, 23521.23
651.8176, 23525.31
652.2997, 23522.06
652.7819, 23520.58
653.2640, 23522.36
653.7461, 23527.87
654.2282, 23542.66
654.7103, 23560.05
655.1924, 23570.04
655.6746, 23561.63
656.1567, 23554.63
656.6388, 23554.72
657.1209, 23560.22
657.6030, 23566.24
658.0851, 23573.61
658.5673, 23580.25
659.0494, 23584.39
659.5316, 23587.26
660.0137, 23597.89
660.4958, 23617.02
660.9779, 23635.12
661.4600, 23642.99
661.9421, 23645.90
662.4243, 23658.45
662.9064, 23680.72
663.3885, 23705.61
663.8706, 23728.21
664.3527, 23750.03
664.8348, 23773.47
665.3170, 23800.34
665.7991, 23822.11
666.2812, 23824.69
666.7633, 23826.76
667.2454, 23847.06
667.7275, 23899.00
668.2097, 23946.68
668.6918, 23992.23
669.1739, 24030.56
669.6560, 24051.29
670.1381, 24052.90
670.6202, 24053.44
671.1024, 24055.90
671.5845, 24061.70
672.0666, 24073.68
672.5487, 24091.33
673.0308, 24112.65
673.5129, 24142.21
673.9951, 24170.45
674.4772, 24186.49
674.9593, 24193.13
675.4414, 24202.46
675.9235, 24222.18
676.4056, 24242.86
676.8878, 24261.70
677.3699, 24278.88
677.8520, 24287.94
678.3341, 24284.52
678.8162, 24279.35
679.2983, 24276.84
679.7805, 24276.56
680.2626, 24287.44
680.7447, 24311.44
681.2268, 24334.85
681.7089, 24341.10
682.1910, 24336.19
682.6732, 24336.74
683.1553, 24346.76
683.6374, 24354.49
684.1195, 24348.29
684.6016, 24335.28
685.0837, 24324.27
685.5659, 24320.00
686.0480, 24315.24
686.5301, 24305.29
687.0122, 24294.99
687.4943, 24291.97
687.9764, 24297.50
688.4586, 24309.22
688.9407, 24331.19
689.4228, 24356.23
689.9049, 24362.81
690.3870, 24350.49
690.8691, 24338.18
691.3513, 24333.40
691.8334, 24333.38
692.3155, 24335.33
692.7976, 24338.33
693.2797, 24338.63
693.7618, 24328.98
694.2440, 24319.96
694.7261, 24319.73
695.2082, 24328.63
695.6903, 24338.79
696.1724, 24349.35
696.6545, 24360.78
697.1367, 24373.80
697.6188, 24389.09
698.1009, 24403.99
698.5830, 24419.32
699.0651, 24433.01
699.5472, 24442.43
700.0294, 24448.11
700.5115, 24454.79
700.9936, 24462.32
701.4757, 24471.96
701.9578, 24485.20
702.4399, 24500.76
702.9221, 24517.16
703.4042, 24533.90
703.8863, 24550.24
704.3684, 24567.05
704.8505, 24582.04
705.3326, 24592.55
705.8148, 24593.13
706.2969, 24595.88
706.7790, 24603.40
707.2611, 24612.67
707.7432, 24618.71
708.2253, 24622.04
708.7075, 24621.31
709.1896, 24615.43
709.6718, 24607.29
710.1539, 24602.21
710.6360, 24600.12
711.1181, 24599.68
711.6002, 24598.68
712.0823, 24600.72
712.5645, 24613.48
713.0466, 24633.01
713.5287, 24644.39
714.0108, 24632.98
714.4929, 24621.22
714.9750, 24617.07
715.4572, 24619.98
715.9393, 24629.16
716.4214, 24650.39
716.9035, 24664.74
717.3856, 24659.24
717.8677, 24636.04
718.3499, 24623.07
718.8320, 24620.29
719.3141, 24619.24
719.7962, 24614.39
720.2783, 24606.80
720.7604, 24595.85
721.2426, 24581.41
721.7247, 24572.87
722.2068, 24584.93
722.6889, 24599.17
723.1710, 24600.85
723.6531, 24582.65
724.1353, 24566.32
724.6174, 24550.12
725.0995, 24539.17
725.5816, 24538.78
726.0637, 24550.38
726.5458, 24562.72
727.0280, 24575.04
727.5101, 24587.43
727.9922, 24600.92
728.4743, 24614.38
728.9564, 24625.63
729.4385, 24634.69
729.9207, 24638.48
730.4028, 24627.49
730.8849, 24611.61
731.3670, 24604.88
731.8491, 24624.84
732.3312, 24637.98
732.8134, 24631.73
733.2955, 24617.22
733.7776, 24612.25
734.2597, 24619.37
734.7418, 24629.88
735.2239, 24645.30
735.7061, 24659.79
736.1882, 24653.96
736.6703, 24631.56
737.1524, 24620.54
737.6345, 24639.06
738.1166, 24667.68
738.5988, 24689.52
739.0809, 24704.10
739.5630, 24709.86
740.0451, 24696.73
740.5272, 24683.71
741.0093, 24675.53
741.4915, 24673.22
741.9736, 24683.72
742.4557, 24716.69
742.9378, 24742.71
743.4199, 24748.77
743.9020, 24738.66
744.3842, 24735.08
744.8663, 24737.95
745.3484, 24742.04
745.8305, 24744.31
746.3126, 24745.90
746.7947, 24749.54
747.2769, 24754.96
747.7590, 24758.14
748.2411, 24756.48
748.7232, 24752.78
749.2053, 24748.02
749.6874, 24742.09
750.1696, 24738.07
750.6517, 24729.53
751.1338, 24731.94
751.6159, 24760.55
752.0980, 24817.53
752.5801, 24843.50
753.0623, 24835.37
753.5444, 24819.18
754.0265, 24812.82
754.5086, 24814.63
754.9907, 24824.34
755.4728, 24842.28
755.9550, 24856.63
756.4371, 24855.04
756.9192, 24849.84
757.4013, 24852.91
757.8835, 24873.79
758.3656, 24880.28
758.8477, 24860.22
759.3298, 24837.72
759.8120, 24835.28
760.2941, 24857.03
760.7762, 24863.18
761.2583, 24848.83
761.7404, 24833.12
762.2225, 24842.60
762.7047, 24866.61
763.1868, 24879.59
763.6689, 24875.44
764.1510, 24867.03
764.6331, 24858.76
765.1152, 24853.02
765.5974, 24852.18
766.0795, 24855.03
766.5616, 24865.71
767.0437, 24889.56
767.5258, 24915.85
768.0079, 24931.42
768.4901, 24934.72
768.9722, 24935.36
769.4543, 24933.01
769.9364, 24930.57
770.4185, 24929.91
770.9006, 24932.13
771.3828, 24942.82
771.8649, 24970.35
772.3470, 24990.91
772.8291, 24983.34
773.3112, 24961.33
773.7933, 24943.79
774.2755, 24941.35
774.7576, 24936.24
775.2397, 24926.28
775.7218, 24914.62
776.2039, 24905.70
776.6860, 24899.96
777.1682, 24896.77
777.6503, 24897.48
778.1324, 24897.54
778.6145, 24884.34
779.0966, 24864.33
779.5787, 24855.52
780.0609, 24872.50
780.5430, 24889.59
781.0251, 24885.56
781.5072, 24871.97
781.9893, 24870.05
782.4714, 24897.56
782.9536, 24919.28
783.4357, 24929.75
783.9178, 24933.68
784.3999, 24938.70
784.8820, 24944.57
785.3641, 24960.66
785.8463, 24996.21
786.3284, 25032.19
786.8105, 25028.32
787.2926, 24999.40
787.7747, 24982.09
788.2568, 25002.06
788.7390, 25026.71
789.2211, 25039.96
789.7032, 25045.69
790.1853, 25053.94
790.6674, 25064.60
791.1495, 25079.10
791.6317, 25100.44
792.1138, 25123.77
792.5959, 25135.65
793.0780, 25136.46
793.5601, 25136.35
794.0422, 25139.36
794.5244, 25143.37
795.0065, 25147.24
795.4886, 25150.00
795.9707, 25148.71
796.4528, 25134.21
796.9349, 25124.49
797.4171, 25130.78
797.8992, 25147.40
798.3813, 25157.68
798.8634, 25158.00
799.3455, 25158.35
799.8276, 25159.13
800.3098, 25162.16
800.7919, 25174.32
801.2740, 25194.40
801.7561, 25212.13
802.2382, 25224.18
802.7203, 25230.71
803.2025, 25228.44
803.6846, 25221.00
804.1667, 25216.71
804.6488, 25218.86
805.1309, 25224.50
805.6130, 25239.76
806.0952, 25256.82
806.5773, 25255.41
807.0594, 25226.25
807.5416, 25211.82
808.0237, 25227.59
808.5058, 25257.95
808.9879, 25271.86
809.4700, 25271.06
809.9521, 25262.29
810.4343, 25239.76
810.9164, 25220.63
811.3985, 25223.62
811.8806, 25239.01
812.3627, 25246.49
812.8448, 25225.26
813.3270, 25215.73
813.8091, 25229.58
814.2912, 25255.98
814.7733, 25271.45
815.2554, 25275.02
815.7375, 25277.35
816.2197, 25281.73
816.7018, 25285.42
817.1839, 25280.84
817.6660, 25272.12
818.1481, 25269.28
818.6302, 25283.75
819.1124, 25296.00
819.5945, 25290.25
820.0766, 25277.80
820.5587, 25281.64
821.0408, 25313.95
821.5229, 25341.96
822.0051, 25363.38
822.4872, 25376.78
822.9693, 25375.56
823.4514, 25361.42
823.9335, 25353.07
824.4156, 25356.31
824.8978, 25364.67
825.3799, 25368.21
825.8620, 25372.56
826.3441, 25387.10
826.8262, 25431.12
827.3083, 25463.67
827.7905, 25464.82
828.2726, 25454.64
828.7547, 25458.15
829.2368, 25478.55
829.7189, 25499.55
830.2010, 25520.44
830.6832, 25537.59
831.1653, 25545.34
831.6474, 25545.47
832.1295, 25542.60
832.6116, 25537.69
833.0938, 25531.51
833.5759, 25522.32
834.0580, 25513.58
834.5401, 25509.24
835.0222, 25517.96
835.5043, 25518.79
835.9865, 25507.00
836.4686, 25493.77
836.9507, 25492.03
837.4328, 25501.40
837.9149, 25511.31
838.3970, 25520.76
838.8792, 25529.85
839.3613, 25539.19
839.8434, 25547.91
840.3255, 25554.20
840.8076, 25556.65
841.2897, 25560.18
841.7719, 25571.47
842.2540, 25579.84
842.7361, 25576.22
843.2182, 25555.77
843.7003, 25541.69
844.1824, 25534.70
844.6646, 25531.34
845.1467, 25529.68
845.6288, 25529.10
846.1109, 25528.30
846.5930, 25527.17
847.0751, 25524.93
847.5573, 25522.21
848.0394, 25517.44
848.5215, 25508.24
849.0036, 25493.12
849.4857, 25483.14
849.9678, 25481.35
850.4500, 25480.35
850.9321, 25473.78
851.4142, 25463.18
851.8963, 25469.87
852.3784, 25493.46
852.8605, 25511.41
853.3427, 25500.25
853.8248, 25480.50
854.3069, 25472.15
854.7890, 25475.66
855.2711, 25484.13
855.7532, 25497.15
856.2354, 25512.83
856.7175, 25532.40
857.1996, 25554.06
857.6818, 25565.51
858.1639, 25564.83
858.6460, 25565.45
859.1281, 25573.24
859.6102, 25586.17
860.0923, 25604.53
860.5745, 25625.52
861.0566, 25639.26
861.5387, 25632.88
862.0208, 25627.28
862.5029, 25634.07
862.9850, 25649.72
863.4672, 25660.90
863.9493, 25666.93
864.4314, 25671.63
864.9135, 25675.12
865.3956, 25679.53
865.8777, 25691.16
866.3599, 25708.17
866.8420, 25721.65
867.3241, 25727.71
867.8062, 25730.84
868.2883, 25726.79
868.7704, 25723.83
869.2526, 25734.48
869.7347, 25782.00
870.2168, 25812.06
870.6989, 25815.20
871.1810, 25806.83
871.6631, 25806.83
872.1453, 25814.58
872.6274, 25820.74
873.1095, 25824.48
873.5916, 25823.79
874.0737, 25812.81
874.5558, 25798.22
875.0380, 25789.41
875.5201, 25792.17
876.0022, 25788.85
876.4843, 25774.10
876.9664, 25753.51
877.4485, 25727.54
877.9307, 25693.45
878.4128, 25677.77
878.8949, 25682.40
879.3770, 25690.70
879.8591, 25685.05
880.3412, 25675.53
880.8234, 25681.71
881.3055, 25703.95
881.7876, 25719.65
882.2697, 25714.61
882.7518, 25703.58
883.2339, 25691.81
883.7161, 25679.58
884.1982, 25675.25
884.6803, 25681.13
885.1624, 25684.46
885.6445, 25676.28
886.1266, 25662.71
886.6088, 25657.34
887.0909, 25659.50
887.5730, 25666.11
888.0551, 25680.20
888.5372, 25694.03
889.0193, 25706.76
889.5015, 25716.18
889.9836, 25715.28
890.4657, 25697.44
890.9478, 25686.02
891.4299, 25687.04
891.9120, 25695.00
892.3942, 25700.71
892.8763, 25704.26
893.3584, 25704.60
893.8405, 25696.16
894.3226, 25696.00
894.8047, 25729.97
895.2869, 25773.49
895.7690, 25795.84
896.2511, 25771.16
896.7332, 25757.65
897.2153, 25758.46
897.6974, 25765.96
898.1796, 25774.76
898.6617, 25784.16
899.1438, 25787.42
899.6259, 25783.90
900.1080, 25778.43
900.5901, 25774.00
901.0723, 25770.66
901.5544, 25768.18
902.0365, 25766.54
902.5186, 25768.37
903.0007, 25781.36
903.4828, 25787.14
903.9650, 25772.65
904.4471, 25741.36
904.9292, 25726.16
905.4113, 25726.36
905.8935, 25731.29
906.3756, 25736.15
906.8577, 25740.96
907.3398, 25743.44
907.8220, 25745.21
908.3041, 25752.60
908.7862, 25777.26
909.2683, 25794.68
909.7504, 25798.17
910.2325, 25791.85
910.7147, 25784.15
911.1968, 25774.98
911.6789, 25771.01
912.1610, 25776.58
912.6431, 25782.05
913.1252, 25776.45
913.6074, 25763.45
914.0895, 25748.20
914.5716, 25724.80
915.0537, 25712.08
915.5358, 25718.53
916.0179, 25730.80
916.5001, 25738.00
916.9822, 25740.23
917.4643, 25736.64
917.9464, 25727.12
918.4285, 25713.13
918.9106, 25694.21
919.3928, 25673.13
919.8749, 25653.03
920.3570, 25634.49
920.8391, 25616.47
921.3212, 25594.65
921.8033, 25578.50
922.2855, 25573.38
922.7676, 25578.34
923.2497, 25581.63
923.7318, 25583.24
924.2139, 25586.79
924.6960, 25598.95
925.1782, 25610.10
925.6603, 25600.93
926.1424, 25580.07
926.6245, 25570.91
927.1066, 25589.71
927.5887, 25611.04
928.0709, 25631.46
928.5530, 25649.19
929.0351, 25660.57
929.5172, 25665.28
929.9993, 25667.75
930.4814, 25668.62
930.9636, 25668.15
931.4457, 25667.03
931.9278, 25664.79
932.4099, 25658.69
932.8920, 25643.13
933.3741, 25641.12
933.8563, 25674.89
934.3384, 25708.17
934.8205, 25715.33
935.3026, 25695.08
935.7847, 25682.97
936.2668, 25678.96
936.7490, 25680.98
937.2311, 25693.13
937.7132, 25706.41
938.1953, 25707.03
938.6774, 25697.07
939.1595, 25692.41
939.6417, 25705.92
940.1238, 25714.89
940.6059, 25710.73
941.0880, 25699.16
941.5701, 25700.47
942.0522, 25714.19
942.5344, 25716.64
943.0165, 25696.87
943.4986, 25671.26
943.9807, 25653.84
944.4628, 25643.78
944.9449, 25640.26
945.4271, 25653.14
945.9092, 25655.66
946.3913, 25641.52
946.8734, 25622.86
947.3555, 25611.45
947.8376, 25606.82
948.3198, 25598.40
948.8019, 25585.44
949.2840, 25575.53
949.7661, 25576.99
950.2482, 25583.01
950.7303, 25585.18
951.2125, 25583.19
951.6946, 25593.15
952.1767, 25624.98
952.6588, 25654.56
953.1409, 25673.92
953.6230, 25684.72
954.1052, 25693.92
954.5873, 25700.70
955.0695, 25699.74
955.5516, 25682.49
956.0337, 25665.55
956.5158, 25658.80
956.9979, 25661.59
957.4800, 25674.24
957.9622, 25713.21
958.4443, 25726.80
958.9264, 25702.35
959.4085, 25671.99
959.8906, 25678.17
960.3727, 25709.05
960.8549, 25718.35
961.3370, 25701.12
961.8191, 25683.36
962.3012, 25686.64
962.7833, 25691.80
963.2654, 25681.46
963.7476, 25654.98
964.2297, 25648.12
964.7118, 25669.30
965.1939, 25682.26
965.6760, 25667.29
966.1581, 25638.26
966.6403, 25619.75
967.1224, 25612.51
967.6045, 25617.78
968.0866, 25659.95
968.5687, 25687.35
969.0508, 25665.48
969.5330, 25625.67
970.0151, 25611.21
970.4972, 25627.48
970.9793, 25640.67
971.4614, 25645.45
971.9435, 25656.45
972.4257, 25696.93
972.9078, 25749.88
973.3899, 25790.06
973.8720, 25813.53
974.3541, 25833.69
974.8362, 25845.15
975.3184, 25865.05
975.8005, 25902.32
976.2826, 25954.42
976.7647, 26001.53
977.2468, 26043.51
977.7289, 26087.34
978.2111, 26133.82
978.6932, 26186.60
979.1753, 26258.69
979.6574, 26338.67
980.1395, 26404.63
980.6216, 26431.52
981.1038, 26472.55
981.5859, 26531.06
982.0680, 26605.47
982.5501, 26693.31
983.0322, 26795.26
983.5143, 26910.07
983.9965, 27037.99
984.4786, 27183.68
984.9607, 27346.25
985.4428, 27531.23
985.9249, 27744.29
986.4070, 27986.99
986.8892, 28247.15
987.3713, 28522.85
987.8534, 28811.86
988.3355, 29111.56
988.8176, 29424.59
989.2997, 29758.76
989.7819, 30111.46
990.2640, 30476.26
990.7461, 30838.06
991.2282, 31223.62
991.7103, 31642.55
992.1924, 32094.81
992.6746, 32568.19
993.1567, 33058.53
993.6388, 33608.32
994.1209, 34226.00
994.6030, 34878.68
995.0851, 35547.48
995.5673, 36228.03
996.0494, 36929.59
996.5315, 37649.13
997.0136, 38309.57
997.4957, 38945.33
997.9778, 39458.16
998.4600, 39839.60
998.9421, 40061.15
999.4242, 40027.64
999.9063, 39740.75
1000.388, 39203.10
1000.871, 38371.79
1001.353, 37383.95
1001.835, 36264.90
1002.317, 35107.20
1002.799, 34008.20
1003.281, 32953.88
1003.763, 32027.25
1004.245, 31231.01
1004.728, 30539.59
1005.210, 29931.67
1005.692, 29405.70
1006.174, 28956.04
1006.656, 28579.16
1007.138, 28252.70
1007.620, 27970.07
1008.102, 27726.18
1008.584, 27520.19
1009.067, 27348.70
1009.549, 27215.29
1010.031, 27122.63
1010.513, 27029.46
1010.995, 26925.30
1011.477, 26825.00
1011.959, 26745.93
1012.441, 26683.66
1012.924, 26634.40
1013.406, 26600.13
1013.888, 26564.82
1014.370, 26521.25
1014.852, 26482.07
1015.334, 26453.42
1015.816, 26434.63
1016.298, 26424.22
1016.780, 26420.80
1017.263, 26412.41
1017.745, 26381.26
1018.227, 26354.91
1018.709, 26358.71
1019.191, 26378.05
1019.673, 26383.40
1020.155, 26367.16
1020.637, 26357.47
1021.120, 26358.94
1021.602, 26359.29
1022.084, 26345.05
1022.566, 26320.16
1023.048, 26291.19
1023.530, 26258.94
1024.012, 26223.23
1024.494, 26174.91
1024.976, 26134.07
1025.458, 26108.76
1025.941, 26096.91
1026.423, 26092.17
1026.905, 26094.10
1027.387, 26096.22
1027.869, 26096.55
1028.351, 26094.86
1028.833, 26092.85
1029.316, 26087.38
1029.798, 26073.81
1030.280, 26045.85
1030.762, 26021.16
1031.244, 25998.67
1031.726, 25981.96
1032.208, 25975.54
1032.690, 25976.38
1033.172, 25978.94
1033.655, 25982.08
1034.137, 25980.23
1034.619, 25971.97
1035.101, 25956.79
1035.583, 25930.74
1036.065, 25900.38
1036.547, 25877.40
1037.029, 25862.26
1037.511, 25849.79
1037.994, 25839.62
1038.476, 25830.43
1038.958, 25823.50
1039.440, 25815.57
1039.922, 25799.70
1040.404, 25772.79
1040.886, 25765.91
1041.368, 25791.71
1041.851, 25811.61
1042.333, 25805.24
1042.815, 25785.50
1043.297, 25788.30
1043.779, 25806.69
1044.261, 25819.22
1044.743, 25807.07
1045.225, 25804.22
1045.708, 25835.68
1046.190, 25874.01
1046.672, 25890.74
1047.154, 25882.40
1047.636, 25887.13
1048.118, 25905.90
1048.600, 25929.43
1049.082, 25956.47
1049.564, 25979.87
1050.047, 25991.14
1050.529, 25991.92
1051.011, 25989.85
1051.493, 25982.23
1051.975, 25979.95
1052.457, 25985.99
1052.939, 25996.11
1053.421, 26009.25
1053.903, 26020.46
1054.386, 26015.35
1054.868, 25989.22
1055.350, 25966.55
1055.832, 25957.38
1056.314, 25957.33
1056.796, 25967.97
1057.278, 25986.55
1057.760, 25986.09
1058.243, 25967.56
1058.725, 25951.96
1059.207, 25952.17
1059.689, 25952.86
1060.171, 25935.94
1060.653, 25912.34
1061.135, 25897.82
1061.617, 25894.29
1062.099, 25900.35
1062.582, 25918.49
1063.064, 25937.61
1063.546, 25953.48
1064.028, 25962.05
1064.510, 25950.77
1064.992, 25922.92
1065.474, 25896.93
1065.956, 25872.71
1066.438, 25861.95
1066.921, 25873.32
1067.403, 25893.21
1067.885, 25894.23
1068.367, 25879.89
1068.849, 25883.59
1069.331, 25911.68
1069.813, 25943.06
1070.295, 25963.15
1070.778, 25979.96
1071.260, 26005.07
1071.742, 26036.80
1072.224, 26034.50
1072.706, 25989.46
1073.188, 25963.54
1073.670, 25983.26
1074.152, 26024.00
1074.635, 26058.13
1075.117, 26087.49
1075.599, 26115.91
1076.081, 26144.08
1076.563, 26170.06
1077.045, 26194.86
1077.527, 26214.81
1078.009, 26221.28
1078.491, 26220.81
1078.974, 26243.82
1079.456, 26285.98
1079.938, 26325.02
1080.420, 26342.82
1080.902, 26364.56
1081.384, 26406.42
1081.866, 26454.13
1082.348, 26485.71
1082.831, 26499.55
1083.313, 26543.71
1083.795, 26622.94
1084.277, 26705.10
1084.759, 26756.92
1085.241, 26804.13
1085.723, 26872.08
1086.205, 26930.38
1086.688, 27029.51
1087.170, 27074.13
1087.652, 27138.33
1088.134, 27235.91
1088.616, 27350.29
1089.098, 27455.88
1089.580, 27562.16
1090.062, 27683.53
1090.544, 27822.62
1091.026, 27981.25
1091.509, 28171.34
1091.991, 28365.05
1092.473, 28553.60
1092.955, 28734.86
1093.437, 28907.02
1093.919, 29066.80
1094.401, 29198.47
1094.883, 29308.22
1095.366, 29370.12
1095.848, 29377.90
1096.330, 29325.69
1096.812, 29205.13
1097.294, 29011.04
1097.776, 28793.57
1098.258, 28553.22
1098.740, 28308.12
1099.223, 28046.37
1099.705, 27802.99
1100.187, 27620.46
1100.669, 27479.69
1101.151, 27328.87
1101.633, 27150.04
1102.115, 27004.55
1102.597, 26899.34
1103.079, 26815.29
1103.562, 26735.45
1104.044, 26663.00
1104.526, 26604.46
1105.008, 26559.90
1105.490, 26525.63
1105.972, 26515.25
1106.454, 26492.79
1106.936, 26445.57
1107.418, 26389.29
1107.901, 26352.58
1108.383, 26332.31
1108.865, 26320.91
1109.347, 26317.28
1109.829, 26319.57
1110.311, 26330.71
1110.793, 26344.04
1111.275, 26360.63
1111.758, 26376.18
1112.240, 26357.94
1112.722, 26310.36
1113.204, 26280.81
1113.686, 26294.28
1114.168, 26315.99
1114.650, 26326.58
1115.132, 26329.54
1115.615, 26328.59
1116.097, 26323.58
1116.579, 26316.07
1117.061, 26305.72
1117.543, 26299.63
1118.025, 26304.22
1118.507, 26314.17
1118.989, 26330.47
1119.471, 26346.79
1119.953, 26347.34
1120.436, 26319.83
1120.918, 26300.43
1121.400, 26291.34
1121.882, 26288.73
1122.364, 26297.17
1122.846, 26305.56
1123.328, 26290.14
1123.810, 26254.37
1124.293, 26225.34
1124.775, 26210.34
1125.257, 26204.85
1125.739, 26209.28
1126.221, 26221.58
1126.703, 26243.46
1127.185, 26270.46
1127.667, 26287.65
1128.150, 26293.05
1128.632, 26297.31
1129.114, 26302.72
1129.596, 26311.70
1130.078, 26327.91
1130.560, 26346.75
1131.042, 26349.12
1131.524, 26338.79
1132.006, 26342.36
1132.489, 26369.70
1132.971, 26398.45
1133.453, 26405.97
1133.935, 26414.95
1134.417, 26447.78
1134.899, 26502.42
1135.381, 26528.13
1135.863, 26525.04
1136.346, 26524.15
1136.828, 26538.13
1137.310, 26559.56
1137.792, 26588.51
1138.274, 26617.46
1138.756, 26635.80
1139.238, 26641.73
1139.720, 26644.87
1140.203, 26644.38
1140.685, 26648.25
1141.167, 26667.17
1141.649, 26689.33
1142.131, 26702.73
1142.613, 26707.82
1143.095, 26705.08
1143.577, 26684.66
1144.059, 26676.64
1144.542, 26682.99
1145.024, 26698.72
1145.506, 26725.67
1145.988, 26755.24
1146.470, 26773.29
1146.952, 26780.35
1147.434, 26782.52
1147.916, 26771.27
1148.398, 26771.43
1148.881, 26792.47
1149.363, 26813.91
1149.845, 26802.37
1150.327, 26771.99
1150.809, 26757.93
1151.291, 26762.95
1151.773, 26773.09
1152.255, 26793.67
1152.738, 26804.34
1153.220, 26796.71
1153.702, 26779.63
1154.184, 26767.69
1154.666, 26761.01
1155.148, 26762.25
1155.630, 26772.59
1156.112, 26777.90
1156.594, 26761.49
1157.077, 26747.18
1157.559, 26749.35
1158.041, 26760.97
1158.523, 26751.85
1159.005, 26726.19
1159.487, 26720.89
1159.969, 26751.90
1160.451, 26781.26
1160.933, 26781.92
1161.416, 26771.80
1161.898, 26760.19
1162.380, 26749.41
1162.862, 26766.42
1163.344, 26810.05
1163.826, 26838.99
1164.308, 26831.10
1164.790, 26815.81
1165.273, 26809.18
1165.755, 26811.87
1166.237, 26825.20
1166.719, 26849.37
1167.201, 26876.41
1167.683, 26906.71
1168.165, 26928.24
1168.647, 26927.54
1169.130, 26923.91
1169.612, 26935.40
1170.094, 26955.36
1170.576, 26974.03
1171.058, 26989.93
1171.540, 27006.49
1172.022, 27023.79
1172.504, 27042.10
1172.986, 27063.58
1173.469, 27085.24
1173.951, 27106.94
1174.433, 27126.04
1174.915, 27133.54
1175.397, 27120.66
1175.879, 27124.08
1176.361, 27149.74
1176.843, 27171.79
1177.326, 27155.91
1177.808, 27131.41
1178.290, 27142.12
1178.772, 27136.44
1179.254, 27140.05
1179.736, 27168.18
1180.218, 27172.96
1180.700, 27227.20
1181.182, 27282.00
1181.665, 27278.41
1182.147, 27245.60
1182.629, 27225.06
1183.111, 27217.71
1183.593, 27207.94
1184.075, 27186.45
1184.557, 27179.72
1185.039, 27197.85
1185.521, 27218.08
1186.004, 27201.03
1186.486, 27169.23
1186.968, 27162.44
1187.450, 27183.36
1187.932, 27196.78
1188.414, 27192.84
1188.896, 27185.04
1189.378, 27174.06
1189.861, 27164.90
1190.343, 27165.79
1190.825, 27174.34
1191.307, 27188.12
1191.789, 27207.27
1192.271, 27222.97
1192.753, 27234.61
1193.235, 27240.16
1193.718, 27235.86
1194.200, 27230.50
1194.682, 27244.86
1195.164, 27269.59
1195.646, 27283.81
1196.128, 27280.74
1196.610, 27284.22
1197.092, 27304.43
1197.574, 27322.62
1198.057, 27330.44
1198.539, 27332.74
1199.021, 27339.70
1199.503, 27350.02
1199.985, 27361.60
1200.467, 27375.18
1200.949, 27384.63
1201.431, 27387.70
1201.913, 27388.79
1202.396, 27389.01
1202.878, 27389.69
1203.360, 27395.05
1203.842, 27403.68
1204.324, 27411.32
1204.806, 27415.43
1205.288, 27422.88
1205.770, 27439.25
1206.253, 27451.07
1206.735, 27448.84
1207.217, 27437.34
1207.699, 27430.54
1208.181, 27426.11
1208.663, 27416.67
1209.145, 27390.60
1209.627, 27378.95
1210.109, 27393.24
1210.592, 27408.50
1211.074, 27405.06
1211.556, 27390.84
1212.038, 27388.69
1212.520, 27396.49
1213.002, 27408.40
1213.484, 27430.29
1213.966, 27442.67
1214.448, 27439.85
1214.931, 27434.89
1215.413, 27439.26
1215.895, 27449.00
1216.377, 27453.19
1216.859, 27452.88
1217.341, 27451.57
1217.823, 27446.79
1218.305, 27447.00
1218.788, 27454.40
1219.270, 27463.25
1219.752, 27465.50
1220.234, 27466.50
1220.716, 27484.62
1221.198, 27514.07
1221.680, 27534.24
1222.162, 27526.59
1222.645, 27525.76
1223.127, 27535.70
1223.609, 27551.01
1224.091, 27569.75
1224.573, 27589.01
1225.055, 27600.14
1225.537, 27605.73
1226.019, 27616.00
1226.501, 27647.39
1226.984, 27661.31
1227.466, 27648.78
1227.948, 27633.24
1228.430, 27642.95
1228.912, 27663.46
1229.394, 27664.01
1229.876, 27649.76
1230.358, 27648.50
1230.841, 27674.70
1231.323, 27700.36
1231.805, 27725.29
1232.287, 27741.52
1232.769, 27733.22
1233.251, 27715.29
1233.733, 27714.83
1234.215, 27727.86
1234.698, 27729.43
1235.180, 27711.57
1235.662, 27691.41
1236.144, 27667.73
1236.626, 27654.84
1237.108, 27684.66
1237.590, 27722.70
1238.072, 27715.59
1238.554, 27673.33
1239.036, 27661.84
1239.519, 27698.36
1240.001, 27722.49
1240.483, 27724.90
1240.965, 27722.72
1241.447, 27735.29
1241.929, 27750.57
1242.411, 27754.96
1242.893, 27749.62
1243.376, 27743.99
1243.858, 27736.66
1244.340, 27739.35
1244.822, 27755.35
1245.304, 27769.78
1245.786, 27757.71
1246.268, 27747.37
1246.750, 27770.20
1247.233, 27818.96
1247.715, 27854.78
1248.197, 27876.28
1248.679, 27898.03
1249.161, 27922.23
1249.643, 27944.32
1250.125, 27955.94
1250.607, 27967.51
1251.089, 27989.88
1251.572, 28017.82
1252.054, 28034.94
1252.536, 28041.08
1253.018, 28050.51
1253.500, 28065.32
1253.982, 28078.98
1254.464, 28083.05
1254.946, 28087.97
1255.428, 28101.78
1255.911, 28110.52
1256.393, 28122.26
1256.875, 28138.14
1257.357, 28149.63
1257.839, 28167.62
1258.321, 28186.48
1258.803, 28215.21
1259.285, 28228.39
1259.768, 28209.04
1260.250, 28177.21
1260.732, 28169.29
1261.214, 28182.41
1261.696, 28211.73
1262.178, 28256.22
1262.660, 28280.79
1263.142, 28241.25
1263.625, 28217.16
1264.107, 28236.93
1264.589, 28273.79
1265.071, 28281.05
1265.553, 28271.42
1266.035, 28281.09
1266.517, 28312.04
1266.999, 28327.88
1267.481, 28292.27
1267.964, 28284.67
1268.446, 28330.73
1268.928, 28388.49
1269.410, 28394.41
1269.892, 28373.72
1270.374, 28367.37
1270.856, 28378.01
1271.338, 28380.49
1271.820, 28369.06
1272.303, 28359.63
1272.785, 28355.56
1273.267, 28353.77
1273.749, 28349.19
1274.231, 28345.89
1274.713, 28352.02
1275.195, 28365.07
1275.677, 28364.54
1276.160, 28345.30
1276.642, 28339.74
1277.124, 28355.22
1277.606, 28369.18
1278.088, 28358.97
1278.570, 28339.54
1279.052, 28313.74
1279.534, 28290.71
1280.016, 28300.00
1280.499, 28342.89
1280.981, 28372.80
1281.463, 28383.75
1281.945, 28386.95
1282.427, 28382.82
1282.909, 28381.99
1283.391, 28393.78
1283.873, 28410.28
1284.356, 28414.35
1284.838, 28409.14
1285.320, 28416.83
1285.802, 28439.15
1286.284, 28461.99
1286.766, 28479.13
1287.248, 28493.60
1287.730, 28508.75
1288.213, 28518.88
1288.695, 28509.26
1289.177, 28489.85
1289.659, 28488.72
1290.141, 28506.34
1290.623, 28524.88
1291.105, 28546.21
1291.587, 28553.29
1292.069, 28539.13
1292.552, 28523.38
1293.034, 28532.29
1293.516, 28551.96
1293.998, 28562.71
1294.480, 28564.92
1294.962, 28566.99
1295.444, 28570.50
1295.926, 28571.50
1296.408, 28569.05
1296.891, 28568.50
1297.373, 28576.06
1297.855, 28585.08
1298.337, 28590.73
1298.819, 28596.01
1299.301, 28603.16
1299.783, 28612.87
1300.265, 28614.59
1300.748, 28607.83
1301.230, 28602.75
1301.712, 28610.34
1302.194, 28620.49
1302.676, 28635.49
##END=



