##NAMES=Spessartine
##RRUFFID=R050063
##IDEAL CHEMISTRY=Mn^2+^_3_Al_2_(SiO_4_)_3_
##LOCALITY=Fujian Province, China
##OWNER=RRUFF
##SOURCE=Rock Currier
##DESCRIPTION=Reddish brown crystals
##STATUS=The identification of this mineral has been confirmed by X-ray diffraction and chemical analysis
##URL=rruff.info/R050063
##MEASURED CHEMISTRY=(Mn_2.72_Fe_0.24_Ca_0.04_)_Σ=3_(Al_1.95_Fe^3+^_0.05_)_Σ=2_(Si_1.00_O_4_)_2.75_(F_0.58_(OH)_0.42_)_Σ=1_; trace amounts of Mg; OH estimated by charge balance
128.2512, 365.8989
128.7333, 387.5712
129.2154, 419.7300
129.6975, 457.7639
130.1796, 504.6138
130.6617, 555.6703
131.1439, 604.5631
131.6260, 647.3633
132.1081, 684.8359
132.5902, 722.9363
133.0723, 767.8602
133.5544, 806.8796
134.0366, 843.3283
134.5187, 871.6561
135.0008, 881.3378
135.4829, 863.5836
135.9650, 820.0216
136.4471, 784.6899
136.9293, 760.1686
137.4114, 740.3249
137.8935, 725.3067
138.3756, 713.7125
138.8577, 702.5470
139.3398, 689.3288
139.8220, 673.9915
140.3041, 663.7733
140.7862, 660.0110
141.2683, 658.7347
141.7504, 656.7297
142.2325, 655.2357
142.7147, 658.7515
143.1968, 670.9236
143.6789, 692.2242
144.1610, 717.2886
144.6431, 744.2164
145.1252, 775.8005
145.6074, 814.2495
146.0895, 859.2554
146.5716, 908.9139
147.0537, 963.5054
147.5358, 1022.730
148.0179, 1074.891
148.5001, 1115.646
148.9822, 1152.674
149.4643, 1190.656
149.9464, 1230.218
150.4285, 1271.822
150.9106, 1320.723
151.3928, 1373.899
151.8749, 1408.449
152.3570, 1416.619
152.8391, 1409.432
153.3212, 1394.387
153.8033, 1371.821
154.2855, 1345.746
154.7676, 1314.747
155.2497, 1281.798
155.7318, 1260.100
156.2139, 1255.394
156.6960, 1261.181
157.1782, 1271.054
157.6603, 1284.885
158.1424, 1301.532
158.6245, 1319.513
159.1066, 1339.570
159.5887, 1364.510
160.0709, 1400.441
160.5530, 1439.607
161.0351, 1471.812
161.5172, 1497.176
161.9993, 1513.622
162.4814, 1515.341
162.9636, 1507.207
163.4457, 1496.648
163.9278, 1484.793
164.4099, 1472.460
164.8920, 1460.422
165.3741, 1447.517
165.8563, 1438.386
166.3384, 1438.236
166.8205, 1443.436
167.3026, 1447.835
167.7847, 1443.729
168.2668, 1438.911
168.7490, 1453.913
169.2311, 1499.314
169.7132, 1540.644
170.1953, 1555.421
170.6774, 1555.216
171.1595, 1557.576
171.6417, 1571.442
172.1238, 1592.612
172.6059, 1611.762
173.0880, 1631.320
173.5701, 1643.264
174.0522, 1640.610
174.5344, 1629.853
175.0165, 1620.431
175.4986, 1618.341
175.9807, 1619.665
176.4628, 1613.339
176.9449, 1596.911
177.4271, 1576.681
177.9092, 1553.644
178.3913, 1529.321
178.8734, 1505.672
179.3555, 1483.144
179.8376, 1462.052
180.3197, 1443.085
180.8019, 1426.558
181.2840, 1411.883
181.7661, 1399.415
182.2482, 1388.124
182.7303, 1376.556
183.2124, 1363.613
183.6946, 1350.548
184.1767, 1341.219
184.6588, 1337.790
185.1409, 1334.620
185.6230, 1330.111
186.1051, 1325.021
186.5873, 1320.208
187.0694, 1316.093
187.5515, 1312.429
188.0336, 1308.705
188.5157, 1306.110
188.9978, 1301.195
189.4800, 1287.922
189.9621, 1274.497
190.4442, 1271.640
190.9263, 1285.091
191.4084, 1305.646
191.8905, 1309.595
192.3727, 1283.832
192.8548, 1264.445
193.3369, 1259.279
193.8190, 1261.382
194.3011, 1265.002
194.7832, 1267.917
195.2654, 1269.767
195.7475, 1269.844
196.2296, 1268.344
196.7117, 1264.358
197.1938, 1252.707
197.6759, 1241.621
198.1581, 1238.934
198.6402, 1247.154
199.1223, 1261.827
199.6044, 1275.468
200.0865, 1290.047
200.5686, 1299.110
201.0508, 1302.141
201.5329, 1300.680
202.0150, 1293.123
202.4971, 1279.832
202.9792, 1267.040
203.4613, 1266.108
203.9435, 1285.232
204.4256, 1297.797
204.9077, 1296.675
205.3898, 1293.729
205.8719, 1296.563
206.3540, 1306.836
206.8362, 1321.649
207.3183, 1338.693
207.8004, 1362.171
208.2825, 1376.226
208.7646, 1369.626
209.2467, 1363.345
209.7289, 1370.762
210.2110, 1392.579
210.6931, 1419.622
211.1752, 1441.728
211.6573, 1457.977
212.1395, 1471.998
212.6216, 1482.189
213.1037, 1491.627
213.5858, 1501.480
214.0679, 1511.889
214.5500, 1522.409
215.0322, 1531.928
215.5143, 1539.462
215.9964, 1552.654
216.4785, 1578.295
216.9606, 1603.287
217.4427, 1622.925
217.9249, 1637.600
218.4070, 1650.209
218.8891, 1663.303
219.3712, 1676.977
219.8533, 1687.570
220.3354, 1695.090
220.8176, 1699.227
221.2997, 1696.445
221.7818, 1690.155
222.2639, 1687.789
222.7460, 1696.100
223.2281, 1713.046
223.7103, 1715.854
224.1924, 1689.424
224.6745, 1664.248
225.1566, 1646.203
225.6387, 1633.429
226.1208, 1622.675
226.6030, 1612.224
227.0851, 1602.171
227.5672, 1593.315
228.0493, 1590.839
228.5314, 1581.979
229.0135, 1559.693
229.4957, 1532.167
229.9778, 1509.062
230.4599, 1494.836
230.9420, 1485.844
231.4241, 1472.950
231.9062, 1453.982
232.3884, 1434.621
232.8705, 1414.105
233.3526, 1394.431
233.8347, 1377.659
234.3168, 1364.440
234.7989, 1352.677
235.2811, 1338.594
235.7632, 1320.367
236.2453, 1304.096
236.7274, 1289.818
237.2095, 1277.556
237.6916, 1267.578
238.1738, 1259.835
238.6559, 1253.537
239.1380, 1248.224
239.6201, 1244.710
240.1022, 1239.044
240.5843, 1225.945
241.0665, 1214.877
241.5486, 1213.391
242.0307, 1219.850
242.5128, 1224.739
242.9949, 1217.193
243.4770, 1195.700
243.9592, 1179.751
244.4413, 1171.028
244.9234, 1166.822
245.4055, 1171.514
245.8876, 1180.536
246.3697, 1182.908
246.8519, 1168.228
247.3340, 1138.923
247.8161, 1117.587
248.2982, 1106.047
248.7803, 1101.012
249.2624, 1105.268
249.7446, 1113.841
250.2267, 1118.735
250.7088, 1115.068
251.1909, 1105.637
251.6730, 1098.055
252.1551, 1091.669
252.6373, 1088.707
253.1194, 1093.373
253.6015, 1100.000
254.0836, 1102.127
254.5657, 1096.986
255.0478, 1088.248
255.5300, 1081.611
256.0121, 1077.643
256.4942, 1073.708
256.9763, 1069.023
257.4584, 1064.120
257.9406, 1058.686
258.4227, 1052.587
258.9048, 1048.034
259.3869, 1049.277
259.8690, 1056.772
260.3511, 1059.016
260.8333, 1048.939
261.3154, 1037.138
261.7975, 1031.067
262.2796, 1030.889
262.7617, 1032.738
263.2438, 1034.915
263.7260, 1037.145
264.2081, 1038.063
264.6902, 1038.405
265.1723, 1035.805
265.6544, 1025.936
266.1365, 1011.330
266.6187, 1000.760
267.1008, 999.6692
267.5829, 1005.162
268.0650, 1012.950
268.5471, 1024.988
269.0292, 1032.572
269.5114, 1021.770
269.9935, 1002.929
270.4756, 994.5798
270.9577, 1008.681
271.4398, 1029.325
271.9219, 1038.155
272.4041, 1034.862
272.8862, 1030.433
273.3683, 1029.225
273.8504, 1030.895
274.3325, 1034.312
274.8146, 1039.819
275.2968, 1046.397
275.7789, 1054.247
276.2610, 1062.849
276.7431, 1070.208
277.2252, 1075.765
277.7073, 1079.486
278.1895, 1080.874
278.6716, 1079.328
279.1537, 1078.702
279.6358, 1080.145
280.1179, 1083.464
280.6000, 1088.449
281.0822, 1095.129
281.5643, 1103.081
282.0464, 1112.370
282.5285, 1123.132
283.0106, 1132.855
283.4927, 1139.487
283.9749, 1146.075
284.4570, 1155.571
284.9391, 1168.124
285.4212, 1182.228
285.9033, 1197.563
286.3854, 1213.799
286.8676, 1224.667
287.3497, 1225.252
287.8318, 1225.773
288.3139, 1231.120
288.7960, 1240.442
289.2781, 1250.507
289.7603, 1259.231
290.2424, 1267.828
290.7245, 1281.451
291.2066, 1307.629
291.6887, 1329.227
292.1708, 1337.884
292.6530, 1342.625
293.1351, 1356.060
293.6172, 1382.460
294.0993, 1414.438
294.5814, 1438.924
295.0635, 1453.305
295.5457, 1464.237
296.0278, 1470.107
296.5099, 1473.923
296.9920, 1474.674
297.4741, 1474.100
297.9562, 1479.069
298.4384, 1498.657
298.9205, 1536.767
299.4026, 1562.293
299.8847, 1563.849
300.3668, 1564.602
300.8489, 1571.740
301.3311, 1584.367
301.8131, 1599.171
302.2953, 1614.333
302.7774, 1629.544
303.2595, 1642.906
303.7416, 1651.216
304.2237, 1662.573
304.7058, 1683.693
305.1880, 1706.192
305.6701, 1720.803
306.1522, 1724.006
306.6343, 1720.180
307.1164, 1714.265
307.5985, 1703.498
308.0807, 1701.104
308.5628, 1720.237
309.0449, 1741.055
309.5270, 1751.563
310.0091, 1750.846
310.4912, 1745.975
310.9734, 1744.009
311.4555, 1744.188
311.9376, 1736.222
312.4197, 1709.778
312.9018, 1689.526
313.3839, 1694.481
313.8661, 1717.093
314.3482, 1737.848
314.8303, 1746.576
315.3124, 1748.699
315.7945, 1754.496
316.2766, 1765.049
316.7588, 1772.681
317.2409, 1769.067
317.7230, 1761.262
318.2051, 1761.451
318.6872, 1774.479
319.1693, 1789.645
319.6515, 1798.908
320.1336, 1803.396
320.6157, 1808.020
321.0978, 1813.797
321.5799, 1821.368
322.0620, 1831.837
322.5442, 1844.815
323.0263, 1860.747
323.5084, 1880.872
323.9905, 1903.618
324.4726, 1927.519
324.9547, 1952.411
325.4369, 1976.794
325.9190, 1997.981
326.4011, 2015.436
326.8832, 2041.641
327.3653, 2084.593
327.8474, 2128.718
328.3296, 2165.183
328.8117, 2195.483
329.2938, 2225.335
329.7759, 2258.298
330.2580, 2293.407
330.7401, 2325.232
331.2223, 2344.909
331.7044, 2372.531
332.1865, 2413.803
332.6686, 2462.474
333.1507, 2514.800
333.6328, 2568.651
334.1150, 2618.727
334.5971, 2656.537
335.0792, 2676.649
335.5613, 2698.500
336.0434, 2722.081
336.5255, 2747.115
337.0077, 2773.904
337.4898, 2801.999
337.9719, 2830.896
338.4540, 2861.140
338.9361, 2891.865
339.4182, 2915.496
339.9004, 2932.334
340.3825, 2940.388
340.8646, 2935.574
341.3467, 2924.165
341.8288, 2914.500
342.3109, 2910.178
342.7931, 2906.258
343.2752, 2894.513
343.7573, 2873.738
344.2394, 2853.659
344.7215, 2839.056
345.2036, 2823.747
345.6858, 2800.169
346.1679, 2768.372
346.6500, 2741.010
347.1321, 2732.657
347.6142, 2734.765
348.0963, 2721.245
348.5785, 2685.288
349.0606, 2646.870
349.5427, 2623.112
350.0248, 2609.644
350.5069, 2594.046
350.9890, 2574.036
351.4712, 2551.125
351.9533, 2524.973
352.4354, 2496.313
352.9175, 2468.205
353.3996, 2440.897
353.8817, 2416.410
354.3639, 2401.732
354.8460, 2402.725
355.3281, 2399.144
355.8102, 2381.291
356.2923, 2358.874
356.7744, 2342.775
357.2566, 2335.401
357.7387, 2334.898
358.2208, 2340.533
358.7029, 2354.979
359.1850, 2359.987
359.6671, 2344.845
360.1493, 2332.309
360.6314, 2334.089
361.1135, 2346.425
361.5956, 2359.859
362.0777, 2368.894
362.5598, 2374.879
363.0420, 2383.389
363.5241, 2400.903
364.0062, 2409.982
364.4883, 2402.614
364.9704, 2390.729
365.4525, 2383.592
365.9347, 2383.422
366.4168, 2387.413
366.8989, 2393.233
367.3810, 2401.061
367.8631, 2408.360
368.3452, 2413.769
368.8274, 2420.282
369.3095, 2433.522
369.7916, 2449.080
370.2737, 2456.146
370.7558, 2446.601
371.2379, 2428.223
371.7201, 2414.299
372.2022, 2405.463
372.6843, 2395.662
373.1664, 2386.157
373.6485, 2371.403
374.1306, 2341.773
374.6128, 2291.867
375.0949, 2245.589
375.5770, 2221.385
376.0591, 2208.823
376.5412, 2186.916
377.0233, 2150.964
377.5055, 2109.002
377.9876, 2068.880
378.4697, 2031.017
378.9518, 1989.930
379.4339, 1940.501
379.9160, 1892.508
380.3982, 1852.834
380.8803, 1819.776
381.3624, 1788.784
381.8445, 1757.600
382.3266, 1726.037
382.8087, 1692.835
383.2909, 1653.887
383.7730, 1619.185
384.2551, 1593.024
384.7372, 1568.550
385.2193, 1538.220
385.7014, 1502.031
386.1836, 1467.557
386.6657, 1443.729
387.1478, 1431.385
387.6299, 1415.338
388.1120, 1393.037
388.5941, 1369.563
389.0763, 1344.616
389.5584, 1320.116
390.0405, 1299.355
390.5226, 1283.891
391.0047, 1271.611
391.4868, 1259.569
391.9690, 1247.953
392.4511, 1235.209
392.9332, 1220.732
393.4153, 1205.110
393.8974, 1188.118
394.3795, 1169.779
394.8617, 1153.896
395.3438, 1143.307
395.8259, 1136.025
396.3080, 1129.136
396.7901, 1122.469
397.2722, 1115.280
397.7544, 1106.954
398.2365, 1097.646
398.7186, 1088.299
399.2007, 1078.360
399.6828, 1069.088
400.1649, 1059.111
400.6471, 1050.566
401.1292, 1049.024
401.6113, 1056.370
402.0934, 1064.618
402.5755, 1061.375
403.0576, 1041.108
403.5398, 1026.000
404.0219, 1019.316
404.5040, 1013.855
404.9861, 1007.034
405.4682, 998.2932
405.9503, 987.1343
406.4325, 972.8996
406.9146, 956.8002
407.3967, 942.9719
407.8788, 930.3284
408.3609, 922.4858
408.8430, 924.5095
409.3252, 928.2716
409.8073, 926.9476
410.2894, 919.6734
410.7715, 911.3513
411.2536, 906.4156
411.7357, 904.1294
412.2179, 900.4805
412.7000, 894.2457
413.1821, 889.0170
413.6642, 889.1954
414.1463, 892.0447
414.6284, 891.9790
415.1106, 886.1608
415.5927, 879.3596
416.0748, 876.1115
416.5569, 874.8606
417.0390, 870.4888
417.5211, 860.9745
418.0033, 848.7850
418.4854, 837.3723
418.9675, 826.8664
419.4496, 816.9129
419.9317, 805.2679
420.4138, 796.1072
420.8960, 793.2028
421.3781, 795.4453
421.8602, 799.5564
422.3423, 803.9656
422.8244, 807.4069
423.3065, 804.0696
423.7887, 787.0909
424.2708, 773.9484
424.7529, 766.6937
425.2350, 763.4084
425.7171, 764.8741
426.1992, 769.9907
426.6814, 772.9646
427.1635, 766.7977
427.6456, 752.3693
428.1277, 740.4558
428.6098, 730.4486
429.0919, 724.2711
429.5741, 727.0953
430.0562, 733.1342
430.5383, 733.0008
431.0204, 721.9242
431.5025, 709.8285
431.9846, 703.8049
432.4668, 703.3959
432.9489, 708.7962
433.4310, 722.0097
433.9131, 734.3188
434.3952, 734.3318
434.8773, 720.6074
435.3595, 708.7665
435.8416, 697.3676
436.3237, 690.1208
436.8058, 691.3032
437.2879, 698.5197
437.7701, 706.0951
438.2522, 711.2311
438.7343, 714.2470
439.2164, 715.7495
439.6985, 714.1098
440.1806, 713.8730
440.6628, 719.2717
441.1449, 722.5735
441.6270, 716.5312
442.1091, 703.0531
442.5912, 690.5215
443.0733, 684.6189
443.5555, 684.8669
444.0376, 691.0769
444.5197, 706.9082
445.0018, 718.4261
445.4839, 716.2296
445.9660, 709.1431
446.4482, 705.5202
446.9303, 706.6828
447.4124, 708.9442
447.8945, 710.3857
448.3766, 711.2699
448.8587, 712.0378
449.3409, 712.7304
449.8230, 713.5850
450.3051, 714.8195
450.7872, 716.4107
451.2693, 718.0034
451.7514, 717.4877
452.2336, 719.3907
452.7157, 728.0721
453.1978, 739.0305
453.6799, 744.5404
454.1620, 742.8350
454.6441, 740.8911
455.1263, 749.0138
455.6084, 770.5706
456.0905, 783.0316
456.5726, 775.1213
457.0547, 769.2726
457.5368, 773.8027
458.0190, 784.5098
458.5011, 794.1796
458.9832, 799.7133
459.4653, 803.5275
459.9474, 808.5830
460.4295, 814.8506
460.9117, 823.0239
461.3938, 833.3223
461.8759, 845.5430
462.3580, 861.0466
462.8401, 878.8986
463.3222, 894.0052
463.8044, 903.3824
464.2865, 910.7794
464.7686, 918.6786
465.2507, 927.3003
465.7328, 937.4433
466.2149, 949.6775
466.6971, 962.7947
467.1792, 974.2474
467.6613, 983.2083
468.1434, 992.1713
468.6255, 997.6761
469.1076, 1006.160
469.5898, 1025.072
470.0719, 1050.733
470.5540, 1072.580
471.0361, 1083.962
471.5182, 1087.341
472.0003, 1089.721
472.4825, 1090.819
472.9646, 1091.643
473.4467, 1097.173
473.9288, 1098.859
474.4109, 1087.455
474.8930, 1064.313
475.3752, 1044.035
475.8573, 1036.314
476.3394, 1036.254
476.8215, 1038.451
477.3036, 1042.809
477.7857, 1038.841
478.2679, 1017.954
478.7500, 988.1857
479.2321, 969.0624
479.7142, 963.0437
480.1963, 959.5599
480.6784, 957.0162
481.1606, 955.8918
481.6427, 957.8404
482.1248, 962.1065
482.6069, 965.2629
483.0890, 964.7897
483.5711, 961.0363
484.0533, 955.6712
484.5354, 946.3847
485.0175, 939.3475
485.4996, 935.3179
485.9817, 933.6338
486.4638, 934.6365
486.9460, 937.9277
487.4281, 941.2188
487.9102, 940.4702
488.3923, 938.4447
488.8744, 945.7291
489.3565, 964.5482
489.8387, 979.9359
490.3208, 982.5187
490.8029, 977.6682
491.2850, 976.4589
491.7671, 978.5123
492.2492, 985.0764
492.7314, 1000.686
493.2135, 1018.698
493.6956, 1031.363
494.1777, 1038.142
494.6598, 1043.228
495.1419, 1049.764
495.6241, 1057.346
496.1062, 1063.510
496.5883, 1067.270
497.0704, 1070.872
497.5525, 1075.675
498.0346, 1079.667
498.5168, 1080.982
498.9989, 1079.552
499.4810, 1076.829
499.9631, 1073.573
500.4452, 1069.988
500.9273, 1067.063
501.4095, 1065.043
501.8916, 1062.571
502.3737, 1058.376
502.8558, 1053.790
503.3379, 1052.120
503.8200, 1055.404
504.3022, 1053.158
504.7843, 1034.877
505.2664, 1012.774
505.7485, 1003.541
506.2306, 1006.594
506.7127, 1007.235
507.1949, 994.7217
507.6770, 973.2064
508.1591, 961.1423
508.6412, 968.2693
509.1233, 970.7476
509.6054, 961.9996
510.0876, 952.4525
510.5697, 951.6620
511.0518, 958.3433
511.5339, 962.8383
512.0161, 957.4897
512.4982, 945.4531
512.9803, 934.2946
513.4624, 923.6490
513.9445, 916.7994
514.4266, 916.8735
514.9088, 919.7184
515.3909, 919.7341
515.8730, 916.6960
516.3551, 913.9258
516.8372, 911.8750
517.3193, 910.9288
517.8015, 912.5869
518.2836, 915.9390
518.7657, 916.8738
519.2478, 912.7701
519.7299, 906.9435
520.2120, 907.9651
520.6942, 923.8738
521.1763, 931.1089
521.6584, 921.6075
522.1405, 912.0237
522.6226, 911.6428
523.1047, 918.6293
523.5869, 926.2495
524.0690, 930.4814
524.5511, 934.7056
525.0332, 946.6102
525.5153, 966.1120
525.9974, 978.7884
526.4796, 977.3829
526.9617, 974.4022
527.4438, 985.1152
527.9259, 1007.698
528.4080, 1026.874
528.8901, 1034.423
529.3723, 1044.075
529.8544, 1067.232
530.3365, 1097.777
530.8186, 1122.760
531.3007, 1137.982
531.7828, 1149.805
532.2650, 1166.432
532.7471, 1187.843
533.2292, 1214.749
533.7113, 1253.820
534.1934, 1291.003
534.6755, 1319.035
535.1577, 1343.794
535.6398, 1373.764
536.1219, 1411.750
536.6040, 1452.650
537.0861, 1491.886
537.5682, 1530.150
538.0504, 1569.491
538.5325, 1609.934
539.0146, 1651.082
539.4967, 1690.810
539.9788, 1730.906
540.4609, 1779.094
540.9431, 1844.334
541.4252, 1905.067
541.9073, 1961.746
542.3894, 2008.887
542.8715, 2036.303
543.3536, 2046.850
543.8358, 2058.043
544.3179, 2085.829
544.8000, 2123.636
545.2821, 2141.703
545.7642, 2134.747
546.2463, 2122.589
546.7285, 2113.888
547.2106, 2098.494
547.6927, 2067.960
548.1748, 2022.579
548.6569, 1968.882
549.1390, 1900.862
549.6211, 1832.512
550.1032, 1783.227
550.5853, 1748.650
551.0674, 1710.313
551.5496, 1660.500
552.0317, 1602.981
552.5138, 1543.118
552.9959, 1479.283
553.4780, 1417.963
553.9601, 1343.994
554.4423, 1287.902
554.9244, 1280.913
555.4065, 1293.976
555.8886, 1278.637
556.3707, 1216.372
556.8528, 1141.581
557.3350, 1095.925
557.8171, 1076.011
558.2992, 1054.075
558.7813, 1026.831
559.2634, 1000.007
559.7455, 977.3411
560.2277, 958.0371
560.7098, 938.9878
561.1919, 917.7454
561.6740, 900.8885
562.1561, 892.4538
562.6382, 888.2276
563.1204, 885.5458
563.6025, 882.9373
564.0846, 877.1799
564.5667, 865.5497
565.0488, 849.4249
565.5309, 833.3143
566.0131, 814.9268
566.4952, 802.3774
566.9773, 801.2159
567.4594, 803.1263
567.9415, 805.1497
568.4236, 806.1924
568.9058, 802.9239
569.3879, 790.7478
569.8700, 776.4913
570.3521, 765.6937
570.8342, 758.4406
571.3163, 756.2061
571.7985, 759.8716
572.2806, 764.3439
572.7627, 763.3292
573.2448, 756.1456
573.7269, 749.8350
574.2090, 746.4973
574.6912, 741.3985
575.1733, 729.6912
575.6554, 717.5330
576.1375, 713.5708
576.6196, 718.9268
577.1017, 723.8616
577.5839, 715.8316
578.0660, 700.3461
578.5481, 698.8546
579.0302, 713.7338
579.5123, 723.5401
579.9944, 715.7174
580.4766, 699.5857
580.9587, 693.1691
581.4408, 697.5901
581.9229, 704.2163
582.4050, 717.0488
582.8871, 727.0538
583.3693, 726.7737
583.8514, 719.0404
584.3335, 710.0467
584.8156, 702.6261
585.2977, 696.9464
585.7798, 693.7150
586.2620, 693.1991
586.7441, 691.9971
587.2262, 689.2825
587.7083, 686.9510
588.1904, 686.8610
588.6725, 687.6530
589.1547, 686.6504
589.6368, 682.0212
590.1189, 679.5172
590.6010, 685.5033
591.0831, 693.2226
591.5652, 692.8748
592.0474, 684.7499
592.5295, 676.1174
593.0116, 671.5438
593.4937, 670.6434
593.9758, 672.6220
594.4579, 679.3830
594.9401, 684.4695
595.4222, 688.7614
595.9043, 689.8433
596.3864, 683.9063
596.8685, 673.7774
597.3506, 666.7513
597.8328, 667.0936
598.3149, 668.3223
598.7970, 663.2357
599.2791, 654.5682
599.7612, 650.0002
600.2433, 651.0076
600.7255, 652.3190
601.2076, 648.7314
601.6897, 641.5032
602.1718, 641.0662
602.6539, 659.8582
603.1360, 668.2416
603.6182, 653.5260
604.1003, 636.0509
604.5824, 632.0518
605.0645, 640.1960
605.5466, 648.4067
606.0287, 649.9230
606.5109, 647.5562
606.9930, 644.6519
607.4751, 641.3894
607.9572, 639.5353
608.4393, 639.8770
608.9214, 640.3495
609.4036, 638.9851
609.8857, 635.7628
610.3678, 631.6553
610.8499, 622.0822
611.3320, 617.4825
611.8141, 625.5019
612.2963, 636.3638
612.7784, 638.0807
613.2605, 631.0266
613.7426, 627.0367
614.2247, 636.5939
614.7068, 654.2630
615.1890, 667.0886
615.6711, 674.9517
616.1532, 680.1241
616.6353, 681.7943
617.1174, 683.6046
617.5995, 691.0231
618.0817, 704.2061
618.5638, 711.9695
619.0459, 707.5874
619.5280, 704.9916
620.0101, 711.3136
620.4922, 721.5768
620.9744, 729.4757
621.4565, 733.8303
621.9386, 737.3996
622.4207, 742.3364
622.9028, 748.6161
623.3849, 756.1514
623.8671, 765.0246
624.3492, 774.8920
624.8313, 786.8040
625.3134, 798.3680
625.7955, 807.4059
626.2776, 814.0646
626.7598, 815.9066
627.2419, 807.9576
627.7240, 800.1068
628.2061, 800.0138
628.6882, 802.1114
629.1703, 796.7552
629.6525, 782.5706
630.1346, 767.9167
630.6167, 762.1545
631.0988, 762.7813
631.5809, 754.4181
632.0630, 733.9951
632.5452, 716.7161
633.0273, 709.9530
633.5094, 705.4897
633.9915, 692.8032
634.4736, 672.4838
634.9557, 655.9100
635.4379, 645.9901
635.9200, 639.8201
636.4021, 639.3936
636.8842, 640.3307
637.3663, 635.4758
637.8484, 623.4719
638.3306, 608.7570
638.8127, 594.7875
639.2948, 582.1439
639.7769, 575.1331
640.2590, 574.8287
640.7411, 576.6617
641.2233, 583.1527
641.7054, 587.5210
642.1875, 579.8479
642.6696, 561.4880
643.1517, 549.9880
643.6339, 558.3705
644.1160, 564.4411
644.5981, 551.7263
645.0802, 530.5073
645.5623, 516.3585
646.0444, 512.6329
646.5266, 513.2968
647.0087, 512.8930
647.4908, 512.1238
647.9729, 515.8079
648.4550, 526.6199
648.9371, 530.6642
649.4193, 520.7405
649.9014, 506.7540
650.3835, 496.2515
650.8656, 489.4135
651.3477, 488.1653
651.8298, 499.3446
652.3120, 508.7626
652.7941, 508.7670
653.2762, 503.5570
653.7583, 497.2490
654.2404, 491.4595
654.7225, 488.7779
655.2047, 492.3753
655.6868, 499.2143
656.1689, 497.6972
656.6510, 485.7198
657.1331, 478.7924
657.6152, 482.7461
658.0974, 488.8839
658.5795, 488.9527
659.0616, 484.3634
659.5437, 481.3153
660.0258, 481.6913
660.5079, 482.0250
660.9901, 480.7072
661.4722, 479.0449
661.9543, 479.1939
662.4364, 480.6250
662.9185, 480.1082
663.4006, 475.0470
663.8828, 468.0184
664.3649, 464.9647
664.8470, 466.0351
665.3291, 465.9208
665.8112, 463.0448
666.2933, 460.6876
666.7755, 461.3461
667.2576, 464.5801
667.7397, 468.3069
668.2218, 475.0750
668.7039, 478.2090
669.1860, 472.5392
669.6682, 465.9538
670.1503, 465.5869
670.6324, 469.7990
671.1145, 472.6025
671.5966, 471.0342
672.0787, 466.9170
672.5609, 461.5444
673.0430, 455.4471
673.5251, 452.9627
674.0072, 454.9925
674.4893, 457.8153
674.9714, 459.7018
675.4536, 460.5191
675.9357, 459.7111
676.4178, 455.7091
676.8999, 453.5320
677.3820, 454.2834
677.8641, 455.8918
678.3463, 459.2805
678.8284, 462.1191
679.3105, 459.8306
679.7926, 450.9772
680.2747, 441.9813
680.7568, 438.5169
681.2390, 439.5217
681.7211, 444.3339
682.2032, 452.4879
682.6853, 456.4578
683.1674, 452.0906
683.6495, 444.9997
684.1317, 444.2340
684.6138, 451.4901
685.0959, 456.0974
685.5780, 455.9363
686.0601, 455.6902
686.5422, 457.9192
687.0244, 459.7268
687.5065, 456.9569
687.9886, 449.6335
688.4707, 443.7070
688.9528, 442.3204
689.4349, 444.2170
689.9171, 450.1100
690.3992, 458.0861
690.8813, 462.6493
691.3634, 462.3039
691.8455, 458.4148
692.3276, 451.2449
692.8098, 441.9409
693.2919, 441.8804
693.7740, 457.4531
694.2561, 468.0734
694.7382, 465.9005
695.2203, 461.2341
695.7025, 461.0292
696.1846, 464.3480
696.6667, 467.0469
697.1488, 467.3958
697.6309, 467.9802
698.1130, 470.8266
698.5952, 474.3071
699.0773, 476.3829
699.5594, 476.9673
700.0415, 476.9041
700.5236, 476.6122
701.0057, 476.5385
701.4879, 478.5118
701.9700, 482.8242
702.4521, 482.0551
702.9342, 472.3532
703.4163, 465.9752
703.8984, 472.7788
704.3806, 486.8304
704.8627, 493.6971
705.3448, 491.1273
705.8269, 488.4569
706.3090, 484.7622
706.7911, 483.4881
707.2733, 488.4395
707.7554, 496.6479
708.2375, 503.4760
708.7196, 507.4605
709.2017, 509.4089
709.6838, 509.5060
710.1660, 508.2998
710.6481, 505.8614
711.1302, 502.5156
711.6123, 504.2624
712.0944, 514.0062
712.5765, 526.5233
713.0587, 536.0373
713.5408, 542.6546
714.0229, 543.8217
714.5050, 532.1778
714.9871, 525.1763
715.4692, 529.1758
715.9514, 535.8848
716.4335, 539.1907
716.9156, 538.9496
717.3977, 537.4342
717.8798, 534.6730
718.3619, 532.2106
718.8441, 530.1793
719.3262, 529.7012
719.8083, 534.1579
720.2904, 542.9839
720.7725, 550.2618
721.2546, 551.7596
721.7368, 550.1185
722.2189, 552.3738
722.7010, 559.6116
723.1831, 562.9119
723.6652, 559.8807
724.1473, 556.2759
724.6295, 555.3643
725.1116, 556.0170
725.5937, 556.3907
726.0758, 557.4484
726.5579, 554.7493
727.0400, 541.2353
727.5222, 530.0820
728.0043, 532.2973
728.4864, 540.9911
728.9685, 544.9224
729.4506, 541.0564
729.9327, 533.7851
730.4149, 524.0885
730.8970, 515.0311
731.3791, 516.5222
731.8612, 527.0049
732.3433, 530.6760
732.8254, 522.1874
733.3076, 510.4384
733.7897, 503.8284
734.2718, 502.3152
734.7539, 505.5642
735.2360, 520.7408
735.7181, 528.6086
736.2003, 524.0818
736.6824, 514.6894
737.1645, 501.1614
737.6466, 486.6613
738.1287, 479.0909
738.6108, 482.3761
739.0930, 488.2854
739.5751, 494.2681
740.0572, 499.0155
740.5393, 499.8354
741.0214, 497.8778
741.5035, 497.7367
741.9857, 501.5892
742.4678, 505.4331
742.9499, 501.7633
743.4320, 491.5072
743.9141, 489.0689
744.3962, 496.5752
744.8784, 500.6970
745.3605, 494.7861
745.8426, 485.3417
746.3247, 481.4015
746.8068, 483.7857
747.2889, 483.9446
747.7711, 479.7641
748.2532, 476.2295
748.7353, 475.2330
749.2174, 474.8233
749.6995, 471.7119
750.1816, 467.1749
750.6638, 467.5546
751.1459, 479.5339
751.6280, 490.4183
752.1101, 484.1913
752.5922, 470.0653
753.0743, 466.6292
753.5565, 474.7126
754.0386, 483.4638
754.5207, 486.7546
755.0028, 485.3850
755.4849, 479.5336
755.9670, 468.2862
756.4492, 461.3356
756.9313, 459.5700
757.4134, 460.4125
757.8955, 464.1924
758.3776, 468.9028
758.8597, 471.2114
759.3419, 470.8376
759.8240, 471.3757
760.3061, 475.2388
760.7882, 477.5128
761.2703, 474.0602
761.7524, 469.5919
762.2346, 469.8982
762.7167, 474.6955
763.1988, 478.8159
763.6809, 479.6149
764.1630, 477.9639
764.6451, 473.1057
765.1273, 466.8910
765.6094, 465.3910
766.0915, 468.6885
766.5736, 468.4098
767.0557, 458.6762
767.5378, 445.5225
768.0200, 443.3538
768.5021, 454.8764
768.9842, 460.5466
769.4663, 456.9590
769.9484, 454.2340
770.4305, 457.6590
770.9127, 463.7116
771.3948, 467.0747
771.8769, 467.4608
772.3590, 469.0272
772.8411, 473.2690
773.3232, 477.5185
773.8054, 482.5477
774.2875, 485.8798
774.7696, 484.1173
775.2517, 477.8279
775.7338, 470.6851
776.2159, 463.5574
776.6981, 458.8391
777.1802, 460.0854
777.6623, 465.5812
778.1444, 472.1612
778.6265, 479.1149
779.1086, 485.4401
779.5908, 490.6764
780.0729, 493.9980
780.5550, 492.6199
781.0371, 485.5334
781.5192, 484.5804
782.0013, 492.2795
782.4835, 499.4874
782.9656, 503.1121
783.4477, 504.2213
783.9298, 503.5894
784.4119, 501.1688
784.8940, 499.4193
785.3762, 497.6560
785.8583, 497.6042
786.3404, 500.4087
786.8225, 504.5717
787.3046, 510.4712
787.7867, 516.6035
788.2689, 518.6000
788.7510, 513.3978
789.2331, 507.7241
789.7152, 506.9633
790.1973, 509.5426
790.6794, 514.1568
791.1616, 519.8552
791.6437, 523.7245
792.1258, 524.5360
792.6079, 524.1935
793.0900, 525.2374
793.5721, 527.5205
794.0543, 529.3428
794.5364, 530.4345
795.0185, 533.1626
795.5006, 539.2340
795.9827, 544.8004
796.4648, 544.7999
796.9470, 540.2459
797.4291, 542.0237
797.9112, 558.0571
798.3933, 569.0518
798.8754, 572.1557
799.3575, 572.0139
799.8397, 568.4177
800.3218, 564.3237
800.8039, 565.5726
801.2860, 574.3807
801.7681, 582.1315
802.2502, 583.6953
802.7324, 583.0257
803.2145, 582.8716
803.6966, 583.4623
804.1787, 584.7988
804.6608, 586.8812
805.1429, 589.5565
805.6251, 592.1019
806.1072, 595.9649
806.5893, 606.7464
807.0714, 622.8753
807.5535, 631.1003
808.0356, 628.7953
808.5178, 624.9789
808.9999, 625.6848
809.4820, 628.8094
809.9641, 628.5180
810.4462, 622.5233
810.9283, 621.5881
811.4105, 627.4854
811.8926, 635.6522
812.3747, 649.2249
812.8568, 660.9135
813.3389, 659.7642
813.8210, 645.8344
814.3032, 637.5422
814.7853, 641.0286
815.2674, 646.1564
815.7495, 649.4687
816.2316, 652.9252
816.7137, 659.5531
817.1959, 668.0239
817.6780, 673.8740
818.1601, 674.8707
818.6422, 674.6169
819.1243, 675.3539
819.6064, 677.2994
820.0886, 682.2654
820.5707, 688.8611
821.0528, 691.5788
821.5349, 688.6447
822.0170, 684.6542
822.4991, 684.2651
822.9813, 687.2577
823.4634, 692.8167
823.9455, 701.0226
824.4276, 711.5019
824.9097, 724.8427
825.3918, 737.7874
825.8740, 747.6634
826.3561, 755.4384
826.8382, 764.3698
827.3203, 776.0253
827.8024, 785.1393
828.2845, 787.3359
828.7667, 792.4038
829.2488, 806.3536
829.7309, 823.5281
830.2130, 835.6083
830.6951, 842.2496
831.1772, 855.0770
831.6594, 882.1456
832.1415, 909.4894
832.6236, 931.6186
833.1057, 950.7794
833.5878, 966.9320
834.0699, 982.5354
834.5521, 1004.840
835.0342, 1038.716
835.5163, 1070.745
835.9984, 1083.694
836.4805, 1089.428
836.9626, 1107.805
837.4448, 1137.289
837.9269, 1167.488
838.4090, 1194.908
838.8911, 1224.896
839.3732, 1265.655
839.8553, 1310.985
840.3375, 1334.771
840.8196, 1336.441
841.3017, 1347.046
841.7838, 1373.171
842.2659, 1404.322
842.7480, 1436.400
843.2302, 1464.836
843.7123, 1475.942
844.1944, 1458.095
844.6765, 1462.843
845.1586, 1508.176
845.6407, 1549.248
846.1229, 1568.728
846.6050, 1578.758
847.0871, 1590.172
847.5692, 1602.972
848.0513, 1614.100
848.5334, 1626.238
849.0156, 1632.531
849.4977, 1624.715
849.9798, 1616.091
850.4619, 1619.633
850.9440, 1629.987
851.4261, 1632.103
851.9083, 1620.531
852.3904, 1614.008
852.8725, 1640.166
853.3546, 1664.579
853.8367, 1642.490
854.3188, 1592.894
854.8010, 1554.301
855.2831, 1534.971
855.7652, 1525.204
856.2473, 1520.027
856.7294, 1514.416
857.2115, 1496.733
857.6937, 1470.503
858.1758, 1452.046
858.6579, 1442.716
859.1400, 1433.713
859.6221, 1420.661
860.1042, 1407.985
860.5864, 1402.916
861.0685, 1405.005
861.5506, 1399.957
862.0327, 1384.896
862.5148, 1374.112
862.9969, 1371.772
863.4791, 1372.281
863.9612, 1371.702
864.4433, 1370.344
864.9254, 1369.061
865.4075, 1364.718
865.8896, 1367.085
866.3718, 1381.382
866.8539, 1395.894
867.3360, 1408.052
867.8181, 1417.374
868.3002, 1422.002
868.7823, 1422.381
869.2645, 1424.843
869.7466, 1428.665
870.2287, 1437.838
870.7108, 1460.295
871.1929, 1483.429
871.6750, 1491.901
872.1572, 1492.406
872.6393, 1502.851
873.1214, 1529.523
873.6035, 1558.747
874.0856, 1582.275
874.5677, 1601.977
875.0499, 1617.155
875.5320, 1631.173
876.0141, 1652.146
876.4962, 1680.294
876.9783, 1706.828
877.4604, 1725.304
877.9426, 1741.056
878.4247, 1760.790
878.9068, 1785.022
879.3889, 1818.754
879.8710, 1860.975
880.3531, 1895.565
880.8353, 1915.088
881.3174, 1935.858
881.7995, 1978.876
882.2816, 2039.671
882.7637, 2088.132
883.2458, 2121.371
883.7280, 2163.768
884.2101, 2221.801
884.6922, 2279.891
885.1743, 2326.182
885.6564, 2367.227
886.1385, 2418.009
886.6207, 2480.535
887.1028, 2542.491
887.5849, 2596.615
888.0670, 2661.695
888.5491, 2745.573
889.0313, 2839.752
889.5134, 2938.333
889.9955, 3041.073
890.4776, 3147.527
890.9597, 3253.630
891.4418, 3369.694
891.9240, 3492.907
892.4061, 3631.681
892.8882, 3800.674
893.3703, 3983.420
893.8524, 4148.494
894.3345, 4296.001
894.8167, 4475.753
895.2988, 4722.743
895.7809, 4987.354
896.2630, 5247.714
896.7451, 5510.395
897.2272, 5775.611
897.7094, 6049.317
898.1915, 6346.364
898.6736, 6671.664
899.1557, 7004.206
899.6378, 7323.030
900.1199, 7641.021
900.6021, 7974.570
901.0842, 8319.563
901.5663, 8675.161
902.0484, 9034.934
902.5305, 9373.573
903.0126, 9673.216
903.4948, 9947.800
903.9769, 10222.00
904.4590, 10485.88
904.9411, 10709.97
905.4232, 10889.86
905.9053, 11000.76
906.3875, 11034.82
906.8696, 11006.98
907.3517, 10930.78
907.8338, 10804.13
908.3159, 10615.27
908.7980, 10364.41
909.2802, 10083.84
909.7623, 9777.447
910.2444, 9438.167
910.7265, 9060.831
911.2086, 8659.111
911.6907, 8246.610
912.1729, 7823.826
912.6550, 7427.786
913.1371, 7061.957
913.6192, 6709.438
914.1013, 6369.083
914.5834, 6037.441
915.0656, 5706.973
915.5477, 5385.063
916.0298, 5084.292
916.5119, 4801.544
916.9940, 4550.563
917.4761, 4351.416
917.9583, 4156.152
918.4404, 3951.350
918.9225, 3747.006
919.4046, 3543.322
919.8867, 3345.869
920.3688, 3175.382
920.8510, 3040.546
921.3331, 2915.070
921.8152, 2803.341
922.2973, 2690.749
922.7794, 2560.463
923.2615, 2431.354
923.7437, 2328.160
924.2258, 2250.252
924.7079, 2179.105
925.1900, 2115.559
925.6721, 2046.640
926.1542, 1957.042
926.6364, 1869.703
927.1185, 1806.165
927.6006, 1757.419
928.0827, 1703.991
928.5648, 1642.698
929.0469, 1589.380
929.5291, 1561.380
930.0112, 1534.777
930.4933, 1487.863
930.9754, 1434.421
931.4575, 1390.574
931.9396, 1356.083
932.4218, 1324.697
932.9039, 1293.884
933.3860, 1265.839
933.8681, 1241.786
934.3502, 1222.166
934.8323, 1211.251
935.3145, 1204.065
935.7966, 1190.534
936.2787, 1169.958
936.7608, 1147.278
937.2429, 1125.126
937.7250, 1102.574
938.2072, 1072.878
938.6893, 1044.078
939.1714, 1039.221
939.6535, 1052.461
940.1356, 1062.224
940.6177, 1062.748
941.0999, 1050.383
941.5820, 1020.641
942.0641, 986.8478
942.5462, 976.2368
943.0283, 983.5472
943.5104, 981.3510
943.9926, 969.0797
944.4747, 953.9308
944.9568, 938.0248
945.4389, 923.0107
945.9210, 909.9944
946.4031, 900.0104
946.8853, 898.2164
947.3674, 904.5255
947.8495, 902.8152
948.3316, 891.7438
948.8137, 875.3176
949.2958, 854.0532
949.7780, 833.0721
950.2601, 817.9531
950.7422, 808.3387
951.2243, 803.3277
951.7064, 804.1010
952.1885, 801.3522
952.6707, 793.0721
953.1528, 786.0095
953.6349, 784.3446
954.1170, 782.9991
954.5991, 773.7437
955.0812, 757.3668
955.5634, 750.7854
956.0455, 757.1197
956.5276, 764.4448
957.0097, 774.6383
957.4918, 778.4144
957.9739, 767.4351
958.4561, 750.7875
958.9382, 744.2065
959.4203, 748.8409
959.9024, 746.5566
960.3845, 733.5834
960.8666, 721.1193
961.3488, 709.7479
961.8309, 700.6677
962.3130, 694.8582
962.7951, 691.7913
963.2772, 691.1705
963.7593, 694.2587
964.2415, 692.9914
964.7236, 683.2695
965.2057, 675.1504
965.6878, 671.6831
966.1699, 668.9568
966.6520, 664.1662
967.1342, 658.3217
967.6163, 653.2315
968.0984, 647.9443
968.5805, 647.4476
969.0626, 660.5543
969.5447, 666.9792
970.0269, 656.5509
970.5090, 642.2496
970.9911, 633.3786
971.4732, 628.6063
971.9553, 623.6804
972.4374, 618.1698
972.9196, 612.6311
973.4017, 604.9429
973.8838, 599.9733
974.3659, 601.9325
974.8480, 605.2523
975.3301, 605.6755
975.8123, 603.2302
976.2944, 598.2359
976.7765, 588.5001
977.2586, 583.7752
977.7407, 591.8085
978.2228, 598.5278
978.7050, 596.4754
979.1871, 591.1702
979.6692, 586.4489
980.1513, 583.5804
980.6334, 585.3351
981.1155, 594.1882
981.5977, 601.7582
982.0798, 609.3423
982.5619, 610.6127
983.0440, 593.8572
983.5261, 575.2614
984.0082, 575.0198
984.4904, 589.7552
984.9725, 600.3533
985.4546, 601.5473
985.9367, 599.0797
986.4188, 589.1050
986.9009, 582.7243
987.3831, 591.2158
987.8652, 603.6204
988.3473, 604.8113
988.8294, 596.9053
989.3115, 595.7181
989.7936, 609.3690
990.2758, 620.0536
990.7579, 619.8940
991.2400, 615.0237
991.7221, 604.4238
992.2042, 594.6808
992.6863, 593.8733
993.1685, 601.4967
993.6506, 611.7696
994.1327, 625.2353
994.6148, 633.8413
995.0969, 628.8915
995.5790, 623.3522
996.0612, 627.4975
996.5433, 635.3488
997.0254, 637.5545
997.5075, 635.1496
997.9896, 638.0181
998.4717, 651.8196
998.9539, 664.2582
999.4360, 671.6713
999.9181, 673.6588
1000.400, 666.0131
1000.882, 655.2606
1001.364, 647.8372
1001.847, 645.1918
1002.329, 648.8640
1002.811, 661.8043
1003.293, 673.4771
1003.775, 676.4894
1004.257, 679.2512
1004.739, 688.8105
1005.221, 700.6541
1005.703, 708.0661
1006.186, 711.6967
1006.668, 717.8694
1007.150, 729.9229
1007.632, 740.3146
1008.114, 745.1323
1008.596, 747.6768
1009.078, 746.3669
1009.560, 746.5422
1010.043, 756.6495
1010.525, 774.3442
1011.007, 788.3376
1011.489, 794.4957
1011.971, 799.5297
1012.453, 802.7195
1012.935, 809.8281
1013.417, 827.2219
1013.899, 848.3152
1014.382, 866.3233
1014.864, 880.9236
1015.346, 894.7458
1015.828, 908.9394
1016.310, 920.1813
1016.792, 920.8613
1017.274, 925.7594
1017.756, 949.3323
1018.239, 976.1011
1018.721, 987.8107
1019.203, 988.5889
1019.685, 995.1077
1020.167, 1012.015
1020.649, 1030.537
1021.131, 1052.421
1021.613, 1069.686
1022.095, 1073.758
1022.578, 1075.811
1023.060, 1088.165
1023.542, 1106.711
1024.024, 1118.741
1024.506, 1120.745
1024.988, 1123.895
1025.470, 1138.922
1025.952, 1145.265
1026.435, 1127.866
1026.917, 1105.544
1027.399, 1095.128
1027.881, 1091.086
1028.363, 1079.309
1028.845, 1057.170
1029.327, 1034.735
1029.809, 1013.506
1030.292, 992.6691
1030.774, 972.9218
1031.256, 952.4579
1031.738, 930.6584
1032.220, 907.0283
1032.702, 879.8523
1033.184, 848.5754
1033.666, 820.2313
1034.148, 797.4700
1034.630, 775.0247
1035.113, 750.4940
1035.595, 727.7352
1036.077, 708.0740
1036.559, 691.9821
1037.041, 681.9918
1037.523, 678.3504
1038.005, 669.8068
1038.487, 655.4445
1038.970, 637.3915
1039.452, 605.8736
1039.934, 583.6967
1040.416, 589.3360
1040.898, 602.2585
1041.380, 595.4920
1041.862, 571.5991
1042.344, 559.6119
1042.826, 568.5436
1043.309, 569.4521
1043.791, 557.4536
1044.273, 544.5352
1044.755, 533.7155
1045.237, 525.5391
1045.719, 520.6140
1046.201, 518.7151
1046.683, 519.2039
1047.166, 523.8757
1047.648, 524.7415
1048.130, 521.1447
1048.612, 515.0024
1049.094, 505.3599
1049.576, 497.3771
1050.058, 496.0050
1050.540, 498.8030
1051.022, 499.4707
1051.505, 498.0387
1051.987, 493.7289
1052.469, 485.9745
1052.951, 478.8997
1053.433, 473.3332
1053.915, 469.0505
1054.397, 465.5034
1054.879, 464.4890
1055.361, 471.5262
1055.844, 485.0000
1056.326, 483.2704
1056.808, 466.4109
1057.290, 456.0432
1057.772, 455.8805
1058.254, 459.7248
1058.736, 464.6006
1059.218, 468.7032
1059.701, 468.9930
1060.183, 467.1009
1060.665, 469.0576
1061.147, 474.0374
1061.629, 477.6779
1062.111, 479.4950
1062.593, 480.3123
1063.075, 480.4383
1063.557, 479.0678
1064.040, 475.1470
1064.522, 469.8413
1065.004, 463.4986
1065.486, 458.1120
1065.968, 461.0887
1066.450, 469.6760
1066.932, 473.1706
1067.414, 468.9686
1067.896, 461.1404
1068.379, 451.2488
1068.861, 443.5178
1069.343, 444.5606
1069.825, 449.3239
1070.307, 452.0007
1070.789, 452.3285
1071.271, 449.6475
1071.753, 444.8403
1072.236, 441.5233
1072.718, 441.6382
1073.200, 441.0618
1073.682, 433.8192
1074.164, 427.8124
1074.646, 432.0030
1075.128, 439.5582
1075.610, 442.3550
1076.093, 440.8031
1076.575, 438.6718
1077.057, 436.9505
1077.539, 434.8050
1078.021, 428.0469
1078.503, 425.8616
1078.985, 439.1184
1079.467, 451.9174
1079.949, 450.5583
1080.432, 440.9115
1080.914, 432.4965
1081.396, 426.6302
1081.878, 423.9893
1082.360, 425.7544
1082.842, 429.1125
1083.324, 435.8661
1083.806, 441.4631
1084.288, 445.3844
1084.771, 445.9426
1085.253, 438.7672
1085.735, 426.2324
1086.217, 419.9566
1086.699, 422.0812
1087.181, 424.9708
1087.663, 429.5267
1088.145, 433.0996
1088.628, 435.5233
1089.110, 435.6077
1089.592, 431.3400
1090.074, 425.5520
1090.556, 425.0830
1091.038, 430.3065
1091.520, 429.2292
1092.002, 420.3033
1092.484, 415.3306
1092.967, 416.6075
1093.449, 419.1940
1093.931, 420.5876
1094.413, 422.3460
1094.895, 426.9599
1095.377, 432.9773
1095.859, 434.7073
1096.341, 432.6353
1096.823, 430.0515
1097.306, 427.3757
1097.788, 425.5363
1098.270, 424.7868
1098.752, 423.9632
1099.234, 421.8390
1099.716, 420.4647
1100.198, 424.4819
1100.680, 430.7350
1101.163, 431.8342
1101.645, 429.8832
1102.127, 432.2193
1102.609, 438.3389
1103.091, 439.3595
1103.573, 430.7631
1104.055, 422.9753
1104.537, 426.8265
1105.020, 433.0265
1105.502, 433.9152
1105.984, 431.5056
1106.466, 424.2913
1106.948, 417.3139
1107.430, 423.7647
1107.912, 445.1076
1108.394, 458.2578
1108.876, 448.2422
1109.359, 436.8351
1109.841, 432.4553
1110.323, 428.7759
1110.805, 419.2802
1111.287, 410.1826
1111.769, 411.3139
1112.251, 420.5507
1112.733, 424.2823
1113.215, 416.7757
1113.698, 415.2199
1114.180, 426.5330
1114.662, 433.3654
1115.144, 427.8031
1115.626, 422.7092
1116.108, 428.1625
1116.590, 438.1731
1117.072, 440.9934
1117.555, 436.5735
1118.037, 438.6759
1118.519, 450.5858
1119.001, 447.4101
1119.483, 422.6310
1119.965, 408.0998
1120.447, 418.6001
1120.929, 434.5935
1121.411, 435.8111
1121.894, 427.9906
1122.376, 425.7556
1122.858, 427.9273
1123.340, 428.2872
1123.822, 426.9507
1124.304, 426.0460
1124.786, 426.0936
1125.268, 425.8860
1125.750, 424.4492
1126.233, 427.1371
1126.715, 446.2954
1127.197, 467.7011
1127.679, 470.1757
1128.161, 462.1198
1128.643, 454.1160
1129.125, 448.7078
1129.607, 448.7315
1130.090, 454.2029
1130.572, 457.8616
1131.054, 453.3504
1131.536, 451.0407
1132.018, 461.4639
1132.500, 470.2442
1132.982, 464.2815
1133.464, 453.4374
1133.947, 449.8964
1134.429, 452.8240
1134.911, 454.6120
1135.393, 453.8015
1135.875, 453.7445
1136.357, 454.7455
1136.839, 456.5038
1137.321, 459.6364
1137.803, 462.5769
1138.286, 464.6797
1138.768, 465.7461
1139.250, 465.0883
1139.732, 463.0769
1140.214, 463.4783
1140.696, 466.7140
1141.178, 469.6665
1141.660, 472.4175
1142.142, 470.4948
1142.625, 462.0293
1143.107, 456.5070
1143.589, 461.7910
1144.071, 471.8117
1144.553, 476.6113
1145.035, 477.3603
1145.517, 476.9188
1145.999, 475.6028
1146.482, 472.6535
1146.964, 469.5311
1147.446, 473.3047
1147.928, 485.9666
1148.410, 496.6137
1148.892, 497.0953
1149.374, 492.4615
1149.856, 481.7882
1150.339, 473.2514
1150.821, 479.7584
1151.303, 491.0972
1151.785, 490.2776
1152.267, 478.4859
1152.749, 470.0447
1153.231, 468.5658
1153.713, 469.9799
1154.195, 476.8922
1154.677, 481.6502
1155.160, 479.0796
1155.642, 476.9214
1156.124, 481.9277
1156.606, 488.5736
1157.088, 488.5110
1157.570, 482.3267
1158.052, 476.5950
1158.534, 470.7284
1159.017, 468.4647
1159.499, 470.6636
1159.981, 472.4252
1160.463, 472.1930
1160.945, 472.1507
1161.427, 473.9674
1161.909, 476.5153
1162.391, 478.3093
1162.874, 479.1273
1163.356, 477.4031
1163.838, 474.2112
1164.320, 473.1841
1164.802, 474.2772
1165.284, 476.1772
1165.766, 478.0567
1166.248, 476.7516
1166.730, 467.9582
1167.213, 460.9938
1167.695, 466.2950
1168.177, 473.9799
1168.659, 474.8320
1169.141, 473.0539
1169.623, 475.0938
1170.105, 479.6352
1170.587, 480.9987
1171.069, 477.8399
1171.552, 474.4612
1172.034, 468.2917
1172.516, 467.1494
1172.998, 477.3330
1173.480, 485.3189
1173.962, 484.8769
1174.444, 480.1442
1174.926, 473.7911
1175.409, 467.9180
1175.891, 471.8472
1176.373, 487.0135
1176.855, 489.9803
1177.337, 480.4347
1177.819, 471.9997
1178.301, 467.3622
1178.783, 470.6641
1179.266, 483.9586
1179.748, 495.1296
1180.230, 489.1450
1180.712, 477.3992
1181.194, 480.5712
1181.676, 489.4344
1182.158, 487.5856
1182.640, 478.8159
1183.122, 471.3677
1183.604, 467.6250
1184.087, 469.9478
1184.569, 480.3084
1185.051, 488.0544
1185.533, 487.6686
1186.015, 484.5337
1186.497, 478.8732
1186.979, 473.4222
1187.461, 469.9661
1187.944, 467.8838
1188.426, 465.5878
1188.908, 463.5919
1189.390, 465.6038
1189.872, 473.7349
1190.354, 478.4081
1190.836, 479.2912
1191.318, 477.7800
1191.801, 473.7383
1192.283, 470.2572
1192.765, 469.0397
1193.247, 469.8826
1193.729, 473.4678
1194.211, 477.4681
1194.693, 475.7487
1195.175, 470.0043
1195.657, 462.7083
1196.140, 455.9459
1196.622, 456.8492
1197.104, 464.1298
1197.586, 464.9604
1198.068, 452.8885
1198.550, 442.3646
1199.032, 442.9038
1199.514, 446.9821
1199.996, 453.5734
1200.479, 458.6322
1200.961, 457.7191
1201.443, 454.1079
1201.925, 453.0080
1202.407, 454.1423
1202.889, 453.1862
1203.371, 449.0953
1203.853, 446.0838
1204.336, 443.7514
1204.818, 444.0552
1205.300, 447.8563
1205.782, 452.3587
1206.264, 456.1945
1206.746, 459.3360
1207.228, 462.0914
1207.710, 463.4500
1208.193, 459.1797
1208.675, 452.0168
1209.157, 448.8050
1209.639, 450.1166
1210.121, 461.7974
1210.603, 479.0110
1211.085, 477.2368
1211.567, 446.2657
1212.049, 420.8320
1212.531, 426.6143
1213.014, 437.6570
1213.496, 442.0569
1213.978, 444.8802
1214.460, 451.8510
1214.942, 457.7027
1215.424, 453.8947
1215.906, 443.2257
1216.388, 436.2237
1216.871, 432.6924
1217.353, 434.8170
1217.835, 444.2584
1218.317, 453.3101
1218.799, 461.8315
1219.281, 461.6951
1219.763, 448.7120
1220.245, 437.2621
1220.728, 441.1469
1221.210, 451.4331
1221.692, 453.1694
1222.174, 449.3275
1222.656, 443.5077
1223.138, 438.1938
1223.620, 438.4995
1224.102, 443.6059
1224.584, 450.7511
1225.067, 458.6209
1225.549, 462.3599
1226.031, 457.0435
1226.513, 452.8642
1226.995, 454.6839
1227.477, 456.4525
1227.959, 454.7406
1228.441, 452.8704
1228.923, 454.5492
1229.406, 456.4803
1229.888, 452.0729
1230.370, 442.3466
1230.852, 438.8861
1231.334, 441.8418
1231.816, 448.8090
1232.298, 459.2535
1232.780, 465.2274
1233.263, 464.8359
1233.745, 460.3407
1234.227, 452.7583
1234.709, 448.7058
1235.191, 459.9669
1235.673, 472.5813
1236.155, 471.3661
##END=



