##NAMES=Spessartine
##RRUFFID=R060177
##IDEAL CHEMISTRY=Mn^2+^_3_Al_2_(SiO_4_)_3_
##LOCALITY=Fujian Province, China
##OWNER=RRUFF
##SOURCE=Rock Currier
##DESCRIPTION=Orange trapezohedral crystals
##STATUS=The identification of this mineral has been confirmed by X-ray diffraction and chemical analysis
##URL=rruff.info/R060177
##MEASURED CHEMISTRY=(Mn_2.86_Fe^2+^_0.10_Ca_0.04_)_Î£=3_Al_2.00_(Si_1.00_O_4_)_3_
92.10938, 4.173716
92.59149, 3.970664
93.07361, 4.055634
93.55573, 4.404809
94.03784, 4.720156
94.51996, 4.673581
95.00208, 4.363814
95.48419, 4.144975
95.96631, 4.193853
96.44843, 4.397814
96.93054, 4.404150
97.41266, 4.184459
97.89478, 3.919212
98.37689, 3.849247
98.85901, 3.978388
99.34113, 4.087091
99.82324, 4.046559
100.3054, 3.857199
100.7875, 3.843741
101.2696, 4.078686
101.7517, 4.395904
102.2338, 4.465985
102.7159, 4.213193
103.1981, 3.927384
103.6802, 3.723564
104.1623, 3.583814
104.6444, 3.587559
105.1265, 3.783558
105.6086, 4.121329
106.0908, 4.419097
106.5729, 4.656173
107.0550, 4.874496
107.5371, 5.090731
108.0192, 5.248702
108.5013, 5.494254
108.9835, 5.914290
109.4656, 6.497308
109.9477, 6.909507
110.4298, 6.875264
110.9119, 6.823078
111.3940, 7.047297
111.8762, 7.832313
112.3583, 8.610691
112.8404, 9.249559
113.3225, 9.715558
113.8046, 10.32839
114.2867, 11.17517
114.7689, 12.18756
115.2510, 13.28128
115.7331, 14.59060
116.2152, 15.86069
116.6973, 16.96514
117.1794, 17.85684
117.6616, 18.74070
118.1437, 19.63429
118.6258, 20.58105
119.1079, 21.62144
119.5900, 22.87643
120.0721, 24.17666
120.5543, 25.45197
121.0364, 26.76578
121.5185, 27.86085
122.0006, 28.36133
122.4827, 28.47303
122.9648, 28.79338
123.4470, 29.78069
123.9291, 31.11399
124.4112, 32.42878
124.8933, 33.61195
125.3754, 34.79894
125.8575, 36.10106
126.3397, 37.51832
126.8218, 39.05757
127.3039, 40.67843
127.7860, 42.41517
128.2681, 44.35144
128.7502, 46.66631
129.2324, 49.08863
129.7145, 51.08265
130.1966, 52.65729
130.6787, 54.10670
131.1608, 55.72817
131.6429, 57.46663
132.1251, 59.13403
132.6072, 60.74700
133.0893, 62.23004
133.5714, 63.30295
134.0535, 63.90865
134.5356, 64.36628
135.0178, 65.02725
135.4999, 65.89079
135.9820, 66.90522
136.4641, 68.11346
136.9462, 69.51387
137.4283, 70.80696
137.9105, 71.94804
138.3926, 73.08167
138.8747, 74.46712
139.3568, 76.18244
139.8389, 77.88348
140.3210, 79.39135
140.8032, 80.65938
141.2853, 82.04401
141.7674, 83.59319
142.2495, 85.22500
142.7316, 86.59012
143.2137, 87.20308
143.6959, 87.48268
144.1780, 88.12790
144.6601, 89.16004
145.1422, 90.53179
145.6243, 92.53075
146.1064, 94.86903
146.5886, 96.45773
147.0707, 96.72605
147.5528, 96.90659
148.0349, 97.65727
148.5170, 99.34878
148.9991, 101.0067
149.4813, 102.5307
149.9634, 103.9536
150.4455, 105.4520
150.9276, 107.2085
151.4097, 108.9238
151.8918, 110.3726
152.3740, 110.6163
152.8561, 111.6696
153.3382, 114.0224
153.8203, 117.6227
154.3024, 120.9983
154.7845, 123.7380
155.2667, 126.3450
155.7488, 129.2423
156.2309, 132.8840
156.7130, 136.3544
157.1951, 139.5580
157.6772, 142.4929
158.1594, 144.8950
158.6415, 146.7114
159.1236, 147.9596
159.6057, 148.6590
160.0878, 148.6016
160.5699, 148.1911
161.0521, 147.6672
161.5342, 147.1039
162.0163, 145.9119
162.4984, 143.5198
162.9805, 140.4825
163.4626, 137.5005
163.9448, 134.6065
164.4269, 131.9931
164.9090, 129.7651
165.3911, 127.9625
165.8732, 126.3633
166.3553, 124.6638
166.8375, 123.1096
167.3196, 122.1091
167.8017, 122.1563
168.2838, 122.6243
168.7659, 123.1167
169.2480, 123.6213
169.7302, 124.0028
170.2123, 123.9796
170.6944, 123.7496
171.1765, 123.7579
171.6586, 124.3302
172.1407, 125.1992
172.6229, 126.1690
173.1050, 127.2847
173.5871, 128.2775
174.0692, 129.0333
174.5513, 129.5012
175.0334, 129.5096
175.5156, 128.6738
175.9977, 127.3911
176.4798, 126.2518
176.9619, 125.3694
177.4440, 124.5732
177.9261, 123.6891
178.4083, 122.7338
178.8904, 121.7893
179.3725, 120.8378
179.8546, 119.9460
180.3367, 119.3035
180.8188, 119.0465
181.3010, 118.8769
181.7831, 118.3072
182.2652, 117.3940
182.7473, 116.5401
183.2294, 116.1400
183.7115, 116.0403
184.1937, 115.8162
184.6758, 115.3312
185.1579, 114.7418
185.6400, 114.3088
186.1221, 114.0304
186.6042, 113.7739
187.0864, 113.4056
187.5685, 112.9602
188.0506, 112.6218
188.5327, 112.4757
189.0148, 112.4159
189.4969, 112.1816
189.9791, 111.7684
190.4612, 111.3176
190.9433, 110.9290
191.4254, 110.6033
191.9075, 110.3164
192.3896, 110.0861
192.8718, 109.8833
193.3539, 109.5748
193.8360, 109.1366
194.3181, 108.7592
194.8002, 108.6280
195.2823, 108.7370
195.7645, 108.9324
196.2466, 109.2594
196.7287, 109.6281
197.2108, 109.6161
197.6929, 109.1596
198.1750, 108.6053
198.6572, 108.2787
199.1393, 108.1883
199.6214, 108.1202
200.1035, 108.0290
200.5856, 107.9178
201.0677, 107.7804
201.5499, 107.5787
202.0320, 107.4680
202.5141, 107.6571
202.9962, 108.1910
203.4783, 108.6843
203.9604, 109.0991
204.4426, 109.4167
204.9247, 109.3824
205.4068, 108.8737
205.8889, 108.3273
206.3710, 108.2239
206.8531, 108.6553
207.3353, 109.0637
207.8174, 109.3082
208.2995, 109.4053
208.7816, 109.5439
209.2637, 109.6806
209.7458, 109.9372
210.2280, 110.5397
210.7101, 111.6625
211.1922, 112.4623
211.6743, 112.6045
212.1564, 112.1226
212.6385, 112.1434
213.1207, 112.8408
213.6028, 113.7554
214.0849, 114.4287
214.5670, 114.8147
215.0491, 115.0692
215.5313, 115.1551
216.0134, 115.0762
216.4955, 115.2724
216.9776, 115.8867
217.4597, 116.5818
217.9418, 116.9603
218.4239, 116.8080
218.9061, 116.9123
219.3882, 117.6292
219.8703, 118.9620
220.3524, 119.4793
220.8345, 118.7643
221.3166, 117.7425
221.7988, 117.4100
222.2809, 118.1879
222.7630, 118.6683
223.2451, 118.4603
223.7272, 117.5494
224.2093, 116.9421
224.6915, 116.8174
225.1736, 116.7854
225.6557, 116.4148
226.1378, 115.4263
226.6199, 114.6980
227.1020, 114.5085
227.5842, 114.8602
228.0663, 114.8725
228.5484, 114.3943
229.0305, 113.7398
229.5126, 113.1881
229.9947, 112.7466
230.4769, 112.4049
230.9590, 112.2544
231.4411, 112.2938
231.9232, 111.9052
232.4053, 110.7436
232.8874, 109.5161
233.3696, 108.8896
233.8517, 109.2442
234.3338, 109.4478
234.8159, 109.2521
235.2980, 108.6675
235.7801, 108.3157
236.2623, 108.3676
236.7444, 108.4691
237.2265, 108.3244
237.7086, 107.8423
238.1907, 107.2868
238.6728, 106.6413
239.1550, 105.9199
239.6371, 105.3693
240.1192, 105.0260
240.6013, 104.8110
241.0834, 104.6811
241.5655, 104.6991
242.0477, 104.6726
242.5298, 104.5417
243.0119, 104.3244
243.4940, 104.2232
243.9761, 104.2927
244.4582, 104.4116
244.9404, 104.5216
245.4225, 104.7411
245.9046, 104.6849
246.3867, 104.1321
246.8688, 103.2082
247.3509, 102.8416
247.8331, 103.4251
248.3152, 104.0634
248.7973, 104.1506
249.2794, 103.3731
249.7615, 102.6936
250.2436, 102.1300
250.7258, 101.7164
251.2079, 101.6650
251.6900, 102.1653
252.1721, 102.7598
252.6542, 103.2065
253.1363, 103.5170
253.6185, 103.6319
254.1006, 103.4721
254.5827, 103.1212
255.0648, 102.8739
255.5469, 102.7478
256.0291, 102.7018
256.5112, 102.7456
256.9933, 102.9825
257.4754, 103.0134
257.9575, 102.6461
258.4396, 102.1210
258.9218, 102.2064
259.4039, 103.2664
259.8860, 104.2732
260.3681, 104.6852
260.8502, 104.1871
261.3323, 104.0486
261.8145, 104.4384
262.2966, 105.0993
262.7787, 105.4749
263.2608, 105.4858
263.7429, 105.3715
264.2250, 105.1904
264.7072, 104.8887
265.1893, 104.7275
265.6714, 104.7001
266.1535, 104.8170
266.6356, 105.1446
267.1177, 105.7937
267.5999, 106.3622
268.0820, 106.6605
268.5641, 106.6384
269.0462, 106.7399
269.5283, 106.9707
270.0104, 107.3245
270.4926, 107.8466
270.9747, 108.6248
271.4568, 109.2902
271.9389, 109.7000
272.4210, 109.8521
272.9031, 110.0119
273.3853, 110.1515
273.8674, 110.3523
274.3495, 110.7226
274.8316, 111.2845
275.3137, 111.9015
275.7958, 112.5468
276.2780, 113.2170
276.7601, 113.9390
277.2422, 114.7457
277.7243, 115.5139
278.2064, 116.0190
278.6885, 116.1986
279.1707, 116.6807
279.6528, 117.7447
280.1349, 119.2295
280.6170, 120.2386
281.0991, 120.6839
281.5812, 121.0178
282.0634, 121.6441
282.5455, 122.5793
283.0276, 123.4983
283.5097, 124.3305
283.9918, 125.1150
284.4739, 125.9505
284.9561, 126.8313
285.4382, 127.8092
285.9203, 128.9625
286.4024, 130.2707
286.8845, 131.5750
287.3666, 132.8331
287.8488, 134.0750
288.3309, 135.4596
288.8130, 136.9953
289.2951, 138.2706
289.7772, 138.6689
290.2593, 138.4238
290.7415, 139.0668
291.2236, 140.9337
291.7057, 143.2628
292.1878, 144.8190
292.6699, 145.6537
293.1520, 146.3899
293.6342, 147.4124
294.1163, 148.6181
294.5984, 149.5814
295.0805, 150.2478
295.5626, 150.8586
296.0447, 151.7117
296.5269, 152.7822
297.0090, 153.9514
297.4911, 155.2534
297.9732, 156.5975
298.4553, 157.7322
298.9374, 158.6373
299.4196, 159.4660
299.9017, 160.3910
300.3838, 161.3565
300.8659, 162.2020
301.3480, 162.7884
301.8301, 163.2469
302.3123, 163.8066
302.7944, 164.4651
303.2765, 165.0254
303.7586, 165.3618
304.2407, 165.4899
304.7228, 165.4110
305.2050, 164.8744
305.6871, 164.3853
306.1692, 164.7197
306.6513, 165.7305
307.1334, 166.5422
307.6155, 166.2156
308.0977, 165.4760
308.5798, 165.3277
309.0619, 166.3521
309.5440, 167.3953
310.0261, 167.3679
310.5082, 166.5573
310.9904, 165.8404
311.4725, 165.6251
311.9546, 165.7439
312.4367, 166.1156
312.9188, 166.8268
313.4009, 167.4617
313.8831, 167.7024
314.3652, 167.6852
314.8473, 167.6736
315.3294, 167.5989
315.8115, 167.6961
316.2936, 168.1463
316.7758, 169.0005
317.2579, 169.9741
317.7400, 171.1488
318.2221, 172.3198
318.7042, 173.2512
319.1863, 173.6619
319.6685, 174.0031
320.1506, 174.4542
320.6327, 175.0251
321.1148, 175.5934
321.5969, 175.7450
322.0790, 176.0627
322.5612, 177.0395
323.0433, 179.8094
323.5254, 182.1647
324.0075, 183.4090
324.4896, 183.6796
324.9717, 184.0399
325.4539, 184.7905
325.9360, 185.5979
326.4181, 186.2599
326.9002, 186.2576
327.3823, 186.7529
327.8644, 188.0814
328.3466, 189.9959
328.8287, 191.7400
329.3108, 193.2529
329.7929, 194.6462
330.2750, 195.9748
330.7571, 197.4702
331.2393, 198.4037
331.7214, 198.4612
332.2035, 198.0710
332.6856, 197.9184
333.1677, 198.0999
333.6498, 198.3719
334.1320, 198.6560
334.6141, 198.9248
335.0962, 199.3883
335.5783, 200.1675
336.0604, 201.0163
336.5425, 201.7320
337.0247, 202.4090
337.5068, 202.7072
337.9889, 202.4878
338.4710, 201.8083
338.9531, 201.1107
339.4352, 200.3216
339.9173, 199.6714
340.3994, 199.4513
340.8816, 199.7744
341.3637, 199.7773
341.8458, 199.2745
342.3279, 198.4591
342.8100, 197.8130
343.2921, 197.3648
343.7743, 196.9334
344.2564, 196.4115
344.7385, 195.8000
345.2206, 195.2146
345.7027, 194.6534
346.1848, 194.1214
346.6670, 193.5883
347.1491, 193.0611
347.6312, 192.6625
348.1133, 192.7262
348.5954, 192.9698
349.0775, 192.1793
349.5597, 190.2401
350.0418, 188.3844
350.5239, 188.0582
351.0060, 188.8855
351.4881, 189.7423
351.9702, 190.3573
352.4524, 190.7380
352.9345, 190.8266
353.4166, 190.6434
353.8987, 190.3605
354.3808, 189.9762
354.8629, 189.6092
355.3451, 189.4462
355.8272, 189.5368
356.3093, 189.8207
356.7914, 190.3298
357.2735, 191.0044
357.7556, 191.6699
358.2378, 192.2396
358.7199, 192.7478
359.2020, 193.1694
359.6841, 193.4635
360.1662, 193.8935
360.6483, 194.8540
361.1305, 195.9856
361.6126, 196.7844
362.0947, 196.4050
362.5768, 196.2277
363.0589, 197.0819
363.5410, 198.9740
364.0232, 200.7001
364.5053, 201.8087
364.9874, 202.6252
365.4695, 203.4023
365.9516, 204.0598
366.4337, 204.8315
366.9159, 205.9301
367.3980, 207.2290
367.8801, 208.2261
368.3622, 208.8328
368.8443, 209.1308
369.3264, 209.1284
369.8086, 208.6450
370.2907, 208.1732
370.7728, 207.6871
371.2549, 207.2174
371.7370, 206.8348
372.2191, 206.7238
372.7013, 206.4406
373.1834, 205.8580
373.6655, 204.9534
374.1476, 203.9146
374.6297, 202.5938
375.1118, 201.3530
375.5940, 200.6505
376.0761, 200.7788
376.5582, 200.6063
377.0403, 200.1973
377.5224, 199.3223
378.0045, 196.5426
378.4867, 191.4256
378.9688, 186.2122
379.4509, 182.4200
379.9330, 180.1033
380.4151, 177.8698
380.8972, 175.6588
381.3794, 173.4441
381.8615, 171.1856
382.3436, 168.8581
382.8257, 166.6772
383.3078, 164.8212
383.7899, 163.1708
384.2721, 161.1850
384.7542, 158.8418
385.2363, 156.5024
385.7184, 154.5337
386.2005, 152.8586
386.6826, 151.1358
387.1648, 149.1872
387.6469, 147.2546
388.1290, 145.6268
388.6111, 144.2863
389.0932, 143.0872
389.5753, 142.0297
390.0575, 141.0133
390.5396, 139.9131
391.0217, 138.7070
391.5038, 137.3857
391.9859, 135.7502
392.4680, 134.0136
392.9502, 132.5409
393.4323, 131.6384
393.9144, 130.9429
394.3965, 130.3098
394.8786, 129.7291
395.3607, 129.0741
395.8429, 128.2326
396.3250, 127.3208
396.8071, 126.4395
397.2892, 125.6106
397.7713, 124.8111
398.2534, 123.9994
398.7356, 123.2010
399.2177, 122.5578
399.6998, 122.2745
400.1819, 121.9960
400.6640, 121.5664
401.1461, 120.9132
401.6283, 120.2684
402.1104, 119.7557
402.5925, 119.1958
403.0746, 118.2408
403.5567, 116.4839
404.0388, 115.0749
404.5210, 114.4037
405.0031, 114.4711
405.4852, 114.3711
405.9673, 114.1081
406.4494, 113.6648
406.9315, 112.9402
407.4137, 111.8662
407.8958, 111.0354
408.3779, 110.5848
408.8600, 110.3744
409.3421, 110.1145
409.8242, 109.8138
410.3064, 109.3431
410.7885, 108.4338
411.2706, 107.2339
411.7527, 106.5746
412.2348, 106.5547
412.7169, 106.6509
413.1991, 106.1981
413.6812, 105.3389
414.1633, 104.5634
414.6454, 104.1204
415.1275, 103.8014
415.6096, 103.4010
416.0918, 102.9089
416.5739, 102.2301
417.0560, 100.9366
417.5381, 99.56735
418.0202, 98.85365
418.5023, 99.21523
418.9845, 99.53084
419.4666, 98.97399
419.9487, 97.88037
420.4308, 96.89400
420.9129, 96.47820
421.3951, 96.04778
421.8772, 95.13338
422.3593, 93.66169
422.8414, 92.66222
423.3235, 92.85364
423.8056, 93.40224
424.2878, 93.63980
424.7699, 93.31280
425.2520, 92.85728
425.7341, 92.24939
426.2162, 91.54153
426.6983, 90.88165
427.1805, 90.19881
427.6626, 89.65578
428.1447, 89.36205
428.6268, 89.45423
429.1089, 89.27335
429.5910, 88.65691
430.0732, 87.93425
430.5553, 87.53788
431.0374, 87.56047
431.5195, 87.54926
432.0016, 87.43095
432.4837, 87.19260
432.9659, 86.66470
433.4480, 85.77312
433.9301, 85.05340
434.4122, 85.06710
434.8943, 85.68490
435.3764, 85.94652
435.8586, 85.70870
436.3407, 85.25237
436.8228, 84.94528
437.3049, 84.75407
437.7870, 84.54179
438.2691, 84.13747
438.7513, 83.72410
439.2334, 83.62299
439.7155, 83.81704
440.1976, 84.00384
440.6797, 83.90831
441.1618, 83.70261
441.6440, 83.61244
442.1261, 83.78652
442.6082, 83.91250
443.0903, 83.74920
443.5724, 83.40478
444.0545, 83.11292
444.5367, 83.03654
445.0188, 82.96778
445.5009, 82.72585
445.9830, 82.24418
446.4651, 82.05366
446.9472, 82.57394
447.4294, 83.25603
447.9115, 83.63286
448.3936, 83.34667
448.8757, 83.16479
449.3578, 83.19798
449.8399, 83.37395
450.3221, 83.42693
450.8042, 83.20901
451.2863, 83.10983
451.7684, 83.35064
452.2505, 84.02785
452.7326, 84.39446
453.2148, 84.32214
453.6969, 84.17226
454.1790, 84.42916
454.6611, 85.12276
455.1432, 85.72742
455.6253, 86.11816
456.1075, 86.33945
456.5896, 86.42744
457.0717, 86.38716
457.5538, 86.43223
458.0359, 86.80791
458.5180, 87.35886
459.0002, 87.68449
459.4823, 87.71362
459.9644, 87.75293
460.4465, 88.19258
460.9286, 88.85230
461.4107, 89.38206
461.8929, 89.65308
462.3750, 89.74035
462.8571, 89.50867
463.3392, 89.06856
463.8213, 88.94301
464.3034, 89.59483
464.7856, 90.50173
465.2677, 91.37731
465.7498, 92.29353
466.2319, 92.85267
466.7140, 92.59417
467.1961, 92.04224
467.6783, 91.86641
468.1604, 92.52869
468.6425, 93.15184
469.1246, 93.57755
469.6067, 93.82038
470.0888, 94.05914
470.5710, 94.28623
471.0531, 94.51785
471.5352, 94.75349
472.0173, 94.97843
472.4994, 95.31181
472.9815, 95.86668
473.4637, 96.37353
473.9458, 96.38895
474.4279, 95.89666
474.9100, 95.17526
475.3921, 94.12347
475.8742, 92.98781
476.3564, 92.68507
476.8385, 93.20654
477.3206, 93.71722
477.8027, 93.49822
478.2848, 92.82045
478.7669, 92.18260
479.2491, 91.60530
479.7312, 91.27468
480.2133, 91.68118
480.6954, 92.43107
481.1775, 92.79200
481.6596, 91.98128
482.1418, 91.07155
482.6239, 90.76662
483.1060, 90.99891
483.5881, 91.25000
484.0702, 91.36501
484.5523, 91.39985
485.0345, 91.37390
485.5166, 91.23488
485.9987, 91.16140
486.4808, 91.29208
486.9629, 91.46572
487.4450, 91.45434
487.9272, 91.02288
488.4093, 90.74684
488.8914, 90.79420
489.3735, 91.11702
489.8556, 91.25603
490.3377, 91.13853
490.8199, 91.00925
491.3020, 91.05502
491.7841, 91.30317
492.2662, 91.31468
492.7483, 90.97988
493.2304, 90.66429
493.7126, 90.96891
494.1947, 91.81471
494.6768, 92.59948
495.1589, 93.12714
495.6410, 93.47678
496.1231, 93.73424
496.6053, 93.91249
497.0874, 94.07898
497.5695, 94.32621
498.0516, 94.56445
498.5337, 94.70377
499.0158, 94.73354
499.4980, 94.64609
499.9801, 94.14929
500.4622, 93.63483
500.9443, 93.55924
501.4264, 94.77174
501.9085, 95.69998
502.3907, 95.64362
502.8728, 94.85870
503.3549, 94.42077
503.8370, 94.79268
504.3191, 95.24239
504.8012, 95.53983
505.2834, 95.69714
505.7655, 95.63645
506.2476, 95.25289
506.7297, 94.77169
507.2118, 94.36540
507.6939, 93.99398
508.1761, 93.91973
508.6582, 94.31374
509.1403, 94.89380
509.6224, 94.85216
510.1045, 94.16801
510.5866, 93.65560
511.0688, 94.00645
511.5509, 94.83791
512.0330, 94.82626
512.5151, 93.94751
512.9973, 93.15058
513.4794, 93.38340
513.9615, 94.18974
514.4436, 94.87080
514.9257, 95.28452
515.4078, 95.50058
515.8900, 95.41898
516.3721, 95.18420
516.8542, 95.07295
517.3363, 95.29195
517.8184, 95.55854
518.3005, 95.77743
518.7827, 95.94312
519.2648, 96.04328
519.7469, 95.76491
520.2290, 95.65961
520.7111, 96.05185
521.1932, 97.22513
521.6754, 98.31522
522.1575, 99.37769
522.6396, 100.3196
523.1217, 100.9468
523.6038, 101.1371
524.0859, 101.4567
524.5681, 102.0154
525.0502, 102.8055
525.5323, 103.8685
526.0144, 105.2204
526.4965, 106.6367
526.9786, 108.0340
527.4608, 109.4002
527.9429, 110.6578
528.4250, 111.8086
528.9071, 112.9222
529.3892, 113.9253
529.8713, 114.9737
530.3535, 116.2996
530.8356, 118.0099
531.3177, 119.9838
531.7998, 122.3496
532.2819, 124.9348
532.7640, 127.2173
533.2462, 128.9060
533.7283, 130.4066
534.2104, 131.8276
534.6925, 133.1415
535.1746, 134.6552
535.6567, 136.1735
536.1389, 138.0756
536.6210, 140.6716
537.1031, 144.8181
537.5852, 147.7224
538.0673, 148.8866
538.5494, 149.2434
539.0316, 150.3872
539.5137, 152.4642
539.9958, 154.4254
540.4779, 156.0400
540.9600, 157.2828
541.4421, 157.9771
541.9243, 158.1380
542.4064, 158.1398
542.8885, 158.3461
543.3706, 158.5334
543.8527, 158.2876
544.3348, 157.5652
544.8170, 156.5178
545.2991, 155.3390
545.7812, 153.8850
546.2633, 151.9529
546.7454, 149.4214
547.2275, 146.5001
547.7097, 142.8898
548.1918, 138.9406
548.6739, 135.5289
549.1560, 133.2017
549.6381, 131.0362
550.1202, 128.8275
550.6024, 126.5774
551.0845, 124.1785
551.5666, 121.4844
552.0487, 118.8285
552.5308, 116.4456
553.0129, 114.3431
553.4951, 112.4187
553.9772, 110.6971
554.4593, 109.0886
554.9414, 107.4763
555.4235, 105.8629
555.9056, 104.2445
556.3878, 102.5196
556.8699, 100.9277
557.3520, 100.0799
557.8341, 99.81258
558.3162, 99.43499
558.7983, 98.48106
559.2805, 97.26472
559.7626, 95.96725
560.2447, 94.60618
560.7268, 93.51724
561.2089, 92.94901
561.6910, 92.65505
562.1732, 92.46053
562.6553, 92.56898
563.1374, 92.41024
563.6195, 91.63644
564.1016, 90.63979
564.5837, 90.01907
565.0659, 90.02396
565.5480, 89.94069
566.0301, 89.63737
566.5122, 89.12983
566.9943, 88.37484
567.4764, 87.26344
567.9586, 86.45840
568.4407, 86.65639
568.9228, 87.60172
569.4049, 87.75211
569.8870, 87.02784
570.3691, 86.08123
570.8513, 85.47478
571.3334, 85.11286
571.8155, 84.85255
572.2976, 84.70056
572.7797, 84.52914
573.2618, 84.19746
573.7440, 83.78378
574.2261, 83.42185
574.7082, 83.07752
575.1903, 82.87947
575.6724, 83.01940
576.1545, 83.43467
576.6367, 83.57339
577.1188, 83.03948
577.6009, 82.57532
578.0830, 82.54733
578.5651, 83.12158
579.0472, 83.20499
579.5294, 82.57104
580.0115, 81.85265
580.4936, 81.74155
580.9757, 82.25330
581.4578, 82.56857
581.9399, 82.56956
582.4221, 82.33425
582.9042, 81.76122
583.3863, 80.99580
583.8684, 80.60494
584.3505, 81.22595
584.8326, 82.03707
585.3148, 82.08628
585.7969, 81.51203
586.2789, 80.94850
586.7610, 80.62560
587.2432, 80.49841
587.7253, 80.59480
588.2074, 80.95996
588.6895, 81.25553
589.1716, 81.44427
589.6537, 81.51763
590.1359, 81.45576
590.6180, 81.08231
591.1001, 80.92436
591.5822, 81.08217
592.0643, 81.39002
592.5464, 81.61975
593.0286, 81.79112
593.5107, 81.70823
593.9928, 81.18308
594.4749, 80.47463
594.9570, 80.31515
595.4391, 80.66048
595.9213, 81.02982
596.4034, 81.24213
596.8855, 81.26085
597.3676, 80.93607
597.8497, 80.27026
598.3318, 79.67214
598.8140, 79.40925
599.2961, 79.32927
599.7782, 79.30649
600.2603, 79.32718
600.7424, 79.37951
601.2245, 79.51453
601.7067, 79.65660
602.1888, 79.70090
602.6709, 79.54190
603.1530, 79.46403
603.6351, 79.55234
604.1172, 79.72578
604.5994, 79.76595
605.0815, 79.67873
605.5636, 79.40694
606.0457, 78.71703
606.5278, 77.83923
607.0099, 77.83901
607.4921, 78.69641
607.9742, 79.51850
608.4563, 79.57362
608.9384, 79.18241
609.4205, 78.71779
609.9026, 78.18224
610.3848, 77.90160
610.8669, 78.25075
611.3490, 78.88368
611.8311, 79.45006
612.3132, 79.91106
612.7953, 80.22764
613.2775, 80.29611
613.7596, 80.22681
614.2417, 80.21851
614.7238, 80.21467
615.2059, 80.38512
615.6880, 80.88155
616.1702, 81.57696
616.6523, 81.79601
617.1344, 81.46390
617.6165, 81.12798
618.0986, 81.07336
618.5807, 81.26404
619.0629, 81.61720
619.5450, 82.13384
620.0271, 82.63306
620.5092, 82.93889
620.9913, 83.14819
621.4734, 83.40933
621.9556, 83.78871
622.4377, 84.06655
622.9198, 84.02073
623.4019, 83.85183
623.8840, 83.79220
624.3661, 83.99276
624.8483, 84.18347
625.3304, 84.41866
625.8125, 84.60263
626.2946, 84.48530
626.7767, 83.91615
627.2589, 83.39721
627.7410, 83.09132
628.2231, 82.95204
628.7052, 82.71227
629.1873, 82.36211
629.6694, 82.07376
630.1516, 82.09252
630.6337, 82.23327
631.1158, 82.03764
631.5979, 81.49039
632.0800, 80.78533
632.5621, 79.90238
633.0443, 79.02225
633.5264, 78.37724
634.0085, 78.12369
634.4906, 77.79070
634.9727, 77.01828
635.4548, 76.14827
635.9370, 75.59083
636.4191, 75.64078
636.9012, 75.66005
637.3833, 75.67414
637.8654, 75.59336
638.3475, 75.09618
638.8297, 74.02820
639.3118, 73.30049
639.7939, 73.38708
640.2760, 73.95965
640.7581, 73.86582
641.2402, 73.14207
641.7224, 72.41177
642.2045, 72.02430
642.6866, 71.87193
643.1687, 71.88988
643.6508, 72.06728
644.1329, 72.14751
644.6151, 71.87292
645.0972, 71.50948
645.5793, 71.30227
646.0614, 71.43583
646.5435, 71.35347
647.0256, 70.74235
647.5078, 70.01400
647.9899, 69.53334
648.4720, 69.32460
648.9541, 69.33372
649.4362, 69.68236
649.9183, 70.09623
650.4005, 69.96217
650.8826, 69.29324
651.3647, 68.82382
651.8468, 68.87432
652.3289, 69.18130
652.8110, 69.39506
653.2932, 69.49417
653.7753, 69.38402
654.2574, 68.77137
654.7395, 68.11585
655.2216, 67.78345
655.7037, 67.77316
656.1859, 67.79442
656.6680, 67.70148
657.1501, 67.66306
657.6322, 67.82489
658.1143, 68.29441
658.5964, 68.48008
659.0786, 68.30605
659.5607, 67.96465
660.0428, 67.57138
660.5249, 67.11768
661.0070, 66.80671
661.4891, 66.67949
661.9713, 66.63313
662.4534, 66.51086
662.9355, 66.36195
663.4176, 66.35738
663.8997, 66.68895
664.3818, 66.92647
664.8640, 66.57774
665.3461, 65.88398
665.8282, 65.31385
666.3103, 65.01326
666.7924, 64.87923
667.2745, 64.91936
667.7567, 65.11556
668.2388, 65.35877
668.7209, 65.73642
669.2030, 66.02158
669.6851, 66.13359
670.1672, 66.07903
670.6494, 65.92646
671.1315, 65.66092
671.6136, 65.40742
672.0957, 65.20900
672.5778, 65.09468
673.0599, 65.18796
673.5421, 65.49937
674.0242, 65.83583
674.5063, 66.20361
674.9884, 66.43627
675.4705, 66.27399
675.9526, 65.44807
676.4348, 64.84209
676.9169, 64.93130
677.3990, 65.31152
677.8811, 65.54404
678.3632, 65.58578
678.8453, 65.52560
679.3275, 65.35046
679.8096, 65.09586
680.2917, 64.73389
680.7738, 64.24249
681.2559, 64.12395
681.7380, 64.68018
682.2202, 65.49407
682.7023, 65.76442
683.1844, 65.58331
683.6665, 65.30691
684.1486, 65.01752
684.6307, 64.78824
685.1129, 64.66074
685.5950, 64.63715
686.0771, 64.71632
686.5592, 65.06734
687.0413, 65.36967
687.5234, 65.39149
688.0056, 65.09328
688.4877, 65.12347
688.9698, 65.69198
689.4519, 66.21336
689.9340, 66.20901
690.4161, 65.66861
690.8983, 65.57008
691.3804, 65.98410
691.8625, 66.48708
692.3446, 66.62254
692.8267, 66.54305
693.3088, 66.56912
693.7910, 66.79414
694.2731, 66.97316
694.7552, 66.79440
695.2373, 66.53179
695.7194, 66.50396
696.2015, 67.00735
696.6837, 67.47356
697.1658, 67.88376
697.6479, 68.18945
698.1300, 68.28572
698.6121, 68.08024
699.0942, 67.93388
699.5764, 67.94099
700.0585, 68.02261
700.5406, 67.94979
701.0227, 67.74454
701.5048, 67.64594
701.9869, 67.80779
702.4691, 68.09521
702.9512, 68.37641
703.4333, 68.63973
703.9154, 68.83394
704.3975, 68.74086
704.8796, 68.74793
705.3618, 69.19689
705.8439, 70.08996
706.3260, 70.61915
706.8081, 70.46888
707.2902, 70.25668
707.7723, 70.26311
708.2545, 70.50211
708.7366, 70.60684
709.2187, 70.54782
709.7008, 70.48351
710.1829, 70.54501
710.6650, 70.70512
711.1472, 70.89517
711.6293, 71.11075
712.1114, 71.31117
712.5935, 71.35180
713.0756, 71.41587
713.5577, 71.75008
714.0399, 72.55679
714.5220, 73.22886
715.0041, 73.61715
715.4862, 73.75926
715.9683, 73.67908
716.4504, 73.15246
716.9326, 72.91146
717.4147, 73.05759
717.8968, 73.44263
718.3789, 73.91949
718.8610, 74.47857
719.3431, 74.82204
719.8253, 74.84785
720.3074, 74.68291
720.7895, 74.30067
721.2716, 73.86389
721.7537, 73.74116
722.2358, 74.56204
722.7180, 75.27402
723.2001, 75.17605
723.6822, 74.53098
724.1643, 74.12613
724.6464, 74.24175
725.1285, 74.40649
725.6107, 74.57469
726.0928, 74.71263
726.5749, 74.60992
727.0570, 74.22905
727.5391, 73.85648
728.0212, 73.54907
728.5034, 73.37305
728.9855, 73.65105
729.4676, 74.30914
729.9497, 74.80397
730.4318, 74.65749
730.9139, 74.27351
731.3961, 73.95874
731.8782, 73.73628
732.3603, 73.54519
732.8424, 73.43159
733.3245, 73.28847
733.8066, 73.02542
734.2888, 72.58940
734.7709, 72.40341
735.2530, 72.55277
735.7351, 72.72836
736.2172, 72.64091
736.6993, 72.34488
737.1815, 72.21545
737.6636, 72.28781
738.1457, 72.37638
738.6278, 72.22961
739.1099, 72.03203
739.5920, 72.05000
740.0742, 72.40044
740.5563, 72.71011
741.0384, 72.91994
741.5205, 72.97278
742.0026, 72.78767
742.4847, 72.16248
742.9669, 71.71362
743.4490, 71.50484
743.9311, 71.40466
744.4132, 71.22669
744.8953, 70.97495
745.3774, 70.82430
745.8596, 70.83728
746.3417, 70.86784
746.8238, 70.63118
747.3059, 70.28901
747.7880, 70.16756
748.2701, 70.51075
748.7523, 70.90063
749.2344, 71.16825
749.7165, 71.34696
750.1986, 71.48968
750.6807, 71.65055
751.1628, 71.70718
751.6450, 71.60262
752.1271, 71.40800
752.6092, 71.28083
753.0913, 71.21970
753.5734, 71.23784
754.0555, 71.36752
754.5377, 71.54073
755.0198, 71.66464
755.5019, 71.73431
755.9840, 71.73254
756.4661, 71.61247
756.9482, 71.45336
757.4304, 71.25359
757.9125, 71.04408
758.3946, 70.92915
758.8767, 71.08012
759.3588, 71.13273
759.8409, 70.91746
760.3231, 70.52415
760.8052, 70.50235
761.2873, 70.91621
761.7694, 71.24367
762.2515, 71.18405
762.7336, 70.89273
763.2158, 70.64888
763.6979, 70.46960
764.1800, 70.46229
764.6621, 70.93247
765.1442, 71.39846
765.6263, 71.45419
766.1085, 71.10704
766.5906, 70.89310
767.0727, 70.91214
767.5548, 71.08015
768.0369, 71.46721
768.5190, 72.06136
769.0012, 72.17393
769.4833, 71.73341
769.9654, 71.24229
770.4475, 71.02741
770.9296, 71.01060
771.4117, 70.95054
771.8939, 70.85497
772.3760, 70.92461
772.8581, 71.43253
773.3402, 72.05862
773.8223, 72.56613
774.3044, 72.92199
774.7866, 73.24553
775.2687, 73.57516
775.7508, 73.85374
776.2329, 74.03526
776.7150, 74.10527
777.1971, 74.23200
777.6793, 74.42947
778.1614, 74.60527
778.6435, 74.65443
779.1256, 74.62715
779.6077, 74.63073
780.0898, 74.67381
780.5720, 74.75632
781.0541, 74.88139
781.5362, 75.04568
782.0183, 75.27509
782.5004, 75.63300
782.9825, 75.81828
783.4647, 75.65081
783.9468, 75.48306
784.4289, 75.59839
784.9110, 76.05346
785.3931, 76.28461
785.8752, 76.25253
786.3574, 76.14580
786.8395, 76.07265
787.3216, 76.07523
787.8037, 76.28495
788.2858, 76.73914
788.7679, 77.17254
789.2501, 77.38382
789.7322, 77.52258
790.2143, 77.75218
790.6964, 78.28033
791.1785, 78.40495
791.6606, 77.81030
792.1428, 77.18559
792.6249, 77.22604
793.1070, 77.96601
793.5891, 78.25952
794.0712, 77.96323
794.5533, 77.67797
795.0355, 78.16244
795.5176, 79.04227
795.9997, 79.68175
796.4818, 79.94209
796.9639, 80.07941
797.4460, 80.09981
797.9282, 80.12718
798.4103, 80.26876
798.8924, 80.48765
799.3745, 80.96851
799.8566, 81.90132
800.3387, 82.77757
800.8209, 82.91274
801.3030, 82.39114
801.7851, 82.29632
802.2672, 82.77258
802.7493, 83.46871
803.2314, 84.23463
803.7136, 84.90971
804.1957, 85.19711
804.6778, 84.86462
805.1599, 84.74277
805.6420, 85.32760
806.1241, 86.11516
806.6063, 86.67088
807.0884, 86.95316
807.5705, 87.07549
808.0526, 86.97832
808.5347, 86.87181
809.0168, 87.03067
809.4990, 87.38404
809.9811, 87.60959
810.4632, 87.64999
810.9453, 87.67953
811.4274, 87.96422
811.9095, 88.25772
812.3917, 88.23116
812.8738, 87.58006
813.3559, 87.27782
813.8380, 87.64332
814.3201, 88.26633
814.8022, 88.92341
815.2844, 89.68319
815.7665, 89.90898
816.2486, 89.44759
816.7307, 89.01644
817.2128, 89.52004
817.6949, 90.57260
818.1771, 91.39573
818.6592, 91.87793
819.1413, 92.04573
819.6234, 91.56403
820.1055, 91.00090
820.5876, 90.85145
821.0698, 91.36068
821.5519, 91.85809
822.0340, 92.32251
822.5161, 92.81022
822.9982, 93.42818
823.4803, 94.16685
823.9625, 94.70535
824.4446, 95.02335
824.9267, 95.22761
825.4088, 95.24709
825.8909, 95.28883
826.3730, 95.64449
826.8552, 96.38426
827.3373, 97.18996
827.8194, 98.06695
828.3015, 98.87709
828.7836, 99.50483
829.2657, 99.86681
829.7479, 100.4738
830.2300, 101.3341
830.7121, 102.3788
831.1942, 103.6063
831.6763, 104.9693
832.1584, 106.3163
832.6406, 107.6333
833.1227, 108.8228
833.6048, 109.7567
834.0869, 110.5581
834.5690, 111.2748
835.0511, 111.8722
835.5333, 112.7232
836.0154, 113.8327
836.4975, 115.2317
836.9796, 117.1118
837.4617, 119.4631
837.9438, 120.9281
838.4260, 121.4838
838.9081, 121.9196
839.3902, 122.6016
839.8723, 123.6064
840.3544, 125.3462
840.8365, 127.7066
841.3187, 129.4795
841.8008, 129.2474
842.2829, 129.1156
842.7650, 130.3364
843.2471, 132.7932
843.7292, 134.4917
844.2114, 135.3068
844.6935, 135.7723
845.1756, 136.0354
845.6577, 136.1806
846.1398, 136.4929
846.6219, 136.9405
847.1041, 137.3429
847.5862, 137.5068
848.0683, 137.6647
848.5504, 138.0154
849.0325, 138.5141
849.5146, 138.9222
849.9968, 139.1513
850.4789, 139.3809
850.9610, 139.7209
851.4431, 140.0673
851.9252, 139.9809
852.4073, 139.4766
852.8895, 139.0407
853.3716, 138.9333
853.8537, 138.9453
854.3358, 138.8257
854.8179, 138.6297
855.3000, 138.4890
855.7822, 138.6073
856.2643, 138.6025
856.7464, 138.3019
857.2285, 137.8332
857.7106, 137.4126
858.1927, 137.0435
858.6749, 136.6841
859.1570, 136.2935
859.6391, 135.9691
860.1212, 135.8587
860.6033, 135.9459
861.0854, 136.2084
861.5676, 136.7510
862.0497, 137.2631
862.5318, 137.5640
863.0139, 137.7400
863.4960, 137.8888
863.9781, 137.9040
864.4603, 138.1793
864.9424, 138.8980
865.4245, 139.5999
865.9066, 139.5042
866.3887, 138.8122
866.8708, 138.5937
867.3530, 139.0238
867.8351, 139.9009
868.3172, 141.4680
868.7993, 143.1778
869.2814, 144.4295
869.7635, 144.9752
870.2457, 145.4935
870.7278, 145.8305
871.2099, 146.4210
871.6920, 147.7135
872.1741, 149.7238
872.6563, 151.3108
873.1384, 152.4202
873.6205, 153.5203
874.1026, 155.0236
874.5847, 156.7419
875.0668, 158.3788
875.5490, 159.9025
876.0311, 161.6236
876.5132, 164.1283
876.9953, 166.3636
877.4774, 167.5584
877.9595, 167.7822
878.4417, 169.5517
878.9238, 173.0935
879.4059, 176.8600
879.8880, 179.9946
880.3701, 182.7368
880.8522, 185.3828
881.3344, 187.9986
881.8165, 190.8671
882.2986, 194.1270
882.7807, 197.6892
883.2628, 201.4964
883.7449, 205.5649
884.2271, 209.9040
884.7092, 214.6309
885.1913, 219.2392
885.6734, 223.4354
886.1555, 227.6480
886.6376, 232.8525
887.1198, 238.8327
887.6019, 245.1537
888.0840, 251.5991
888.5661, 258.4051
889.0482, 265.6519
889.5303, 273.4109
890.0125, 281.7054
890.4946, 290.6779
890.9767, 300.0257
891.4588, 309.7358
891.9409, 319.9431
892.4230, 331.0562
892.9052, 343.0388
893.3873, 355.1960
893.8694, 367.4636
894.3515, 380.4077
894.8336, 394.8017
895.3157, 409.9539
895.7979, 425.1223
896.2800, 439.8104
896.7621, 455.3144
897.2442, 471.3836
897.7263, 488.4640
898.2084, 507.2292
898.6906, 527.5056
899.1727, 545.8180
899.6548, 562.0069
900.1369, 578.5009
900.6190, 597.3428
901.1011, 617.0676
901.5833, 636.4963
902.0654, 655.2166
902.5475, 672.5045
903.0296, 686.9130
903.5117, 701.0653
903.9938, 716.2834
904.4760, 731.6719
904.9581, 743.6375
905.4402, 752.1347
905.9223, 757.4019
906.4044, 759.8041
906.8865, 758.9057
907.3687, 753.5902
907.8508, 744.6130
908.3329, 733.7567
908.8150, 722.4918
909.2971, 708.1966
909.7792, 689.3961
910.2614, 668.0524
910.7435, 647.1529
911.2256, 626.8669
911.7077, 604.8143
912.1898, 580.0861
912.6719, 554.6391
913.1541, 530.6577
913.6362, 507.7579
914.1183, 485.4321
914.6004, 463.3863
915.0825, 442.5773
915.5646, 423.3059
916.0468, 405.4438
916.5289, 389.0532
917.0110, 374.2231
917.4931, 359.7053
917.9752, 345.3922
918.4573, 331.7076
918.9395, 318.9647
919.4216, 307.0697
919.9037, 296.0547
920.3858, 285.8075
920.8679, 275.8291
921.3500, 265.2983
921.8322, 255.5479
922.3143, 247.2547
922.7964, 240.2073
923.2785, 233.0750
923.7606, 225.7972
924.2427, 218.8878
924.7249, 212.5993
925.2070, 206.7953
925.6891, 201.4640
926.1712, 196.5240
926.6533, 191.8456
927.1354, 187.4829
927.6176, 183.2422
928.0997, 178.9698
928.5818, 174.7993
929.0639, 170.8496
929.5460, 167.0511
930.0281, 163.8510
930.5103, 161.4225
930.9924, 159.1521
931.4745, 156.3053
931.9566, 153.2112
932.4387, 150.1893
932.9208, 147.2275
933.4030, 145.1257
933.8851, 145.4781
934.3672, 145.6602
934.8493, 143.9306
935.3314, 140.1867
935.8135, 137.6427
936.2957, 136.4101
936.7778, 135.3944
937.2599, 133.7828
937.7420, 132.0374
938.2241, 130.9151
938.7062, 130.2959
939.1884, 129.6748
939.6705, 128.9146
940.1526, 128.0338
940.6347, 126.9496
941.1168, 125.7849
941.5989, 124.8808
942.0811, 124.2719
942.5632, 123.5282
943.0453, 122.5254
943.5274, 121.4301
944.0095, 120.2318
944.4916, 119.1298
944.9738, 118.4958
945.4559, 118.7082
945.9380, 118.6903
946.4201, 118.0824
946.9022, 117.2218
947.3843, 116.2990
947.8665, 115.2952
948.3486, 114.4143
948.8307, 113.6619
949.3128, 112.9487
949.7949, 112.1382
950.2770, 111.3645
950.7592, 110.9191
951.2413, 110.7486
951.7234, 110.3327
952.2055, 109.1400
952.6876, 108.1442
953.1697, 107.7096
953.6519, 107.6383
954.1340, 107.1864
954.6161, 106.3762
955.0982, 105.7711
955.5803, 105.6856
956.0624, 105.6642
956.5446, 105.2624
957.0267, 104.6158
957.5088, 103.9247
957.9909, 102.9745
958.4730, 102.4203
958.9551, 102.4863
959.4373, 102.6577
959.9194, 102.3756
960.4015, 101.6983
960.8836, 101.1659
961.3657, 100.8211
961.8478, 100.4335
962.3300, 99.70559
962.8121, 98.95394
963.2942, 98.40872
963.7763, 98.09288
964.2584, 98.07531
964.7405, 98.67085
965.2227, 98.87710
965.7048, 98.17036
966.1869, 96.94337
966.6690, 96.23495
967.1511, 95.95179
967.6332, 95.70472
968.1154, 95.26205
968.5975, 94.89782
969.0796, 94.99915
969.5617, 95.18786
970.0438, 94.81429
970.5259, 93.47648
971.0081, 92.71284
971.4902, 92.75134
971.9723, 92.97122
972.4544, 92.57839
972.9365, 91.87167
973.4186, 91.63560
973.9008, 91.94743
974.3829, 92.16879
974.8650, 92.04564
975.3471, 91.65699
975.8292, 90.86523
976.3113, 89.76451
976.7935, 89.33975
977.2756, 89.66679
977.7577, 90.09307
978.2398, 90.40343
978.7219, 90.58134
979.2040, 90.58706
979.6862, 90.43792
980.1683, 90.17152
980.6504, 89.50902
981.1325, 89.12712
981.6146, 89.34908
982.0967, 89.70525
982.5789, 89.54976
983.0610, 88.87772
983.5431, 88.79937
984.0252, 89.45866
984.5073, 90.11112
984.9894, 89.89123
985.4716, 89.47463
985.9537, 89.65452
986.4358, 90.52373
986.9179, 90.98771
987.4000, 90.72259
987.8821, 90.42215
988.3643, 90.36923
988.8464, 90.45248
989.3285, 90.20547
989.8106, 89.73402
990.2927, 89.57229
990.7748, 90.17182
991.2570, 90.81209
991.7391, 90.97470
992.2212, 90.91474
992.7033, 91.02251
993.1854, 91.38420
993.6675, 91.70717
994.1497, 91.95390
994.6318, 92.24321
995.1139, 92.75292
995.5960, 93.36985
996.0781, 93.85172
996.5602, 94.18650
997.0424, 94.52982
997.5245, 95.13174
998.0066, 95.56898
998.4887, 95.55296
998.9708, 95.21865
999.4529, 95.18874
999.9351, 95.47971
1000.417, 95.82205
1000.899, 96.18513
1001.381, 96.44951
1001.864, 96.31677
1002.346, 96.04222
1002.828, 96.03372
1003.310, 96.51191
1003.792, 97.07825
1004.274, 97.81101
1004.756, 98.46583
1005.238, 98.71756
1005.720, 98.65916
1006.203, 99.09464
1006.685, 100.0159
1007.167, 100.9608
1007.649, 101.6477
1008.131, 102.2112
1008.613, 102.7531
1009.095, 103.2427
1009.577, 103.5052
1010.060, 103.3775
1010.542, 103.5245
1011.024, 104.1419
1011.506, 105.0126
1011.988, 105.9105
1012.470, 106.7748
1012.952, 107.4249
1013.434, 107.7272
1013.916, 108.1136
1014.399, 108.7494
1014.881, 109.5256
1015.363, 110.4917
1015.845, 111.6590
1016.327, 111.9428
1016.809, 111.3215
1017.291, 111.0444
1017.773, 112.3108
1018.255, 113.9800
1018.738, 115.1048
1019.220, 115.7222
1019.702, 115.9492
1020.184, 115.1793
1020.666, 115.1709
1021.148, 116.4481
1021.630, 118.0482
1022.112, 118.3881
1022.595, 117.8453
1023.077, 117.7948
1023.559, 118.5118
1024.041, 118.8980
1024.523, 117.7540
1025.005, 116.4990
1025.487, 116.3165
1025.969, 117.0978
1026.452, 117.0395
1026.934, 116.0565
1027.416, 114.9297
1027.898, 113.9993
1028.380, 113.1098
1028.862, 112.0782
1029.344, 110.9298
1029.826, 109.6998
1030.308, 108.5396
1030.791, 107.0364
1031.273, 104.8922
1031.755, 102.8075
1032.237, 101.5914
1032.719, 101.1047
1033.201, 100.4181
1033.683, 99.48316
1034.165, 98.40543
1034.647, 97.01674
1035.130, 95.74439
1035.612, 95.02664
1036.094, 94.71679
1036.576, 93.91774
1037.058, 92.46041
1037.540, 91.35320
1038.022, 90.94051
1038.504, 90.74986
1038.987, 90.05196
1039.469, 89.13450
1039.951, 88.48698
1040.433, 88.31297
1040.915, 88.10970
1041.397, 87.77294
1041.879, 87.37357
1042.361, 86.91503
1042.844, 86.41906
1043.326, 85.98366
1043.808, 85.62300
1044.290, 85.45112
1044.772, 85.87976
1045.254, 86.15223
1045.736, 85.63708
1046.218, 84.66971
1046.700, 83.89426
1047.182, 83.27889
1047.665, 83.08385
1048.147, 83.41357
1048.629, 83.84612
1049.111, 83.92078
1049.593, 83.81401
1050.075, 83.81300
1050.557, 83.93884
1051.039, 84.03226
1051.522, 84.23754
1052.004, 84.11607
1052.486, 83.34264
1052.968, 82.27662
1053.450, 82.07590
1053.932, 82.58934
1054.414, 82.89090
1054.896, 82.62007
1055.379, 82.30872
1055.861, 82.38472
1056.343, 82.56321
1056.825, 82.52827
1057.307, 82.20690
1057.789, 82.12956
1058.271, 82.35590
1058.753, 82.47829
1059.235, 82.14836
1059.718, 81.60510
1060.200, 81.05090
1060.682, 80.57266
1061.164, 80.40954
1061.646, 80.94308
1062.128, 81.40119
1062.610, 81.77212
1063.092, 81.90798
1063.574, 81.40160
1064.057, 80.46598
1064.539, 80.14931
1065.021, 80.55849
1065.503, 80.93666
1065.985, 80.66671
1066.467, 80.35699
1066.949, 80.48435
1067.431, 80.89652
1067.914, 80.88219
1068.396, 80.39391
1068.878, 79.98727
1069.360, 79.79683
1069.842, 79.81171
1070.324, 80.22598
1070.806, 80.73743
1071.288, 80.90544
1071.771, 80.45210
1072.253, 80.29566
1072.735, 80.56470
1073.217, 80.92020
1073.699, 81.27020
1074.181, 81.50472
1074.663, 81.05040
1075.145, 80.15742
1075.627, 79.72543
1076.109, 80.81016
1076.592, 81.60017
1077.074, 81.34353
1077.556, 80.66592
1078.038, 80.19913
1078.520, 79.93945
1079.002, 79.84880
1079.484, 79.92594
1079.966, 80.07524
1080.448, 80.17447
1080.931, 80.35674
1081.413, 80.90293
1081.895, 81.68269
1082.377, 81.85696
1082.859, 81.25384
1083.341, 80.70329
1083.823, 80.40976
1084.305, 80.21262
1084.788, 79.80717
1085.270, 79.38670
1085.752, 79.28282
1086.234, 79.60500
1086.716, 79.96803
1087.198, 80.44007
1087.680, 80.71349
1088.162, 80.52796
1088.645, 80.09732
1089.127, 80.29488
1089.609, 80.91428
1090.091, 81.12009
1090.573, 80.14133
1091.055, 79.37294
1091.537, 79.70316
1092.019, 80.35413
1092.501, 80.52691
1092.984, 80.16072
1093.466, 80.13412
1093.948, 80.46375
1094.430, 80.64461
1094.912, 79.99584
1095.394, 79.33934
1095.876, 79.51474
1096.358, 80.24913
1096.840, 80.62998
1097.323, 80.45724
1097.805, 80.43355
1098.287, 80.68333
1098.769, 80.96886
1099.251, 81.05771
1099.733, 80.98003
1100.215, 80.70060
1100.697, 80.22440
1101.180, 79.95010
1101.662, 80.10982
1102.144, 80.29800
1102.626, 80.45525
1103.108, 80.51328
1103.590, 80.11478
1104.072, 79.47719
1104.554, 79.35136
1105.036, 80.06984
1105.519, 80.81693
1106.001, 81.42023
1106.483, 81.68501
1106.965, 81.37727
1107.447, 80.56519
1107.929, 80.20656
1108.411, 80.28367
1108.893, 80.45022
1109.375, 80.57102
1109.858, 80.67330
1110.340, 80.83070
1110.822, 80.95478
1111.304, 80.91366
1111.786, 80.65887
1112.268, 80.37473
1112.750, 80.03674
1113.232, 79.84648
1113.715, 80.12576
1114.197, 80.52178
1114.679, 80.53020
1115.161, 80.26872
1115.643, 80.21932
1116.125, 80.59711
1116.607, 80.97987
1117.089, 81.39287
1117.572, 81.62212
1118.054, 81.19245
1118.536, 80.43971
1119.018, 80.10867
1119.500, 80.26192
1119.982, 80.43094
1120.464, 80.29476
1120.946, 80.34297
1121.428, 80.82381
1121.911, 81.49184
1122.393, 81.72976
1122.875, 81.63074
1123.357, 81.60168
1123.839, 81.73856
1124.321, 81.94351
1124.803, 82.24521
1125.285, 82.51735
1125.767, 82.71614
1126.250, 82.82867
1126.732, 82.65313
1127.214, 82.20400
1127.696, 81.85856
1128.178, 81.84142
1128.660, 81.86307
1129.142, 81.56741
1129.624, 81.23608
1130.107, 81.25896
1130.589, 81.75102
1131.071, 82.07373
1131.553, 82.21123
1132.035, 82.31873
1132.517, 82.60786
1132.999, 82.83559
1133.481, 82.59351
1133.964, 82.07809
1134.446, 81.73990
1134.928, 81.64455
1135.410, 81.77895
1135.892, 82.20530
1136.374, 82.67417
1136.856, 82.92738
1137.338, 83.05356
1137.820, 83.22618
1138.302, 83.42696
1138.785, 83.50463
1139.267, 83.29700
1139.749, 83.12260
1140.231, 83.07854
1140.713, 83.02358
1141.195, 82.60843
1141.677, 82.02930
1142.159, 81.84276
1142.642, 82.12348
1143.124, 82.57881
1143.606, 83.25566
1144.088, 83.87579
1144.570, 84.39688
1145.052, 84.75169
1145.534, 84.70345
1146.016, 84.29690
1146.499, 83.68620
1146.981, 82.79317
1147.463, 82.26957
1147.945, 82.91509
1148.427, 83.70522
1148.909, 83.93959
1149.391, 83.68336
1149.873, 83.40688
1150.355, 83.12602
1150.838, 83.22279
1151.320, 84.03664
1151.802, 84.86922
1152.284, 85.22004
1152.766, 85.26444
1153.248, 85.17946
1153.730, 84.97153
1154.212, 84.67867
1154.694, 84.28728
1155.177, 84.00288
1155.659, 84.03791
1156.141, 84.13235
1156.623, 83.95210
1157.105, 84.06847
1157.587, 84.13129
1158.069, 84.09346
1158.551, 84.29232
1159.034, 84.21207
1159.516, 84.14232
1159.998, 84.35052
1160.480, 84.67271
1160.962, 84.96236
1161.444, 85.19398
1161.926, 85.27916
1162.408, 85.05117
1162.891, 85.07358
1163.373, 85.47742
1163.855, 85.88696
1164.337, 85.97286
1164.819, 85.75996
1165.301, 85.02337
1165.783, 83.90648
1166.265, 83.43633
1166.747, 84.40898
1167.229, 85.08910
1167.712, 85.14619
1168.194, 84.85059
1168.676, 84.37463
1169.158, 83.91222
1169.640, 83.96101
1170.122, 84.57932
1170.604, 85.05045
1171.086, 84.95446
1171.569, 84.94608
1172.051, 85.26591
1172.533, 85.68761
1173.015, 85.65602
1173.497, 85.35291
1173.979, 85.33987
1174.461, 85.80102
1174.943, 86.07851
1175.426, 85.82137
1175.908, 85.39986
1176.390, 84.79269
1176.872, 84.22462
1177.354, 84.67646
1177.836, 85.82191
1178.318, 86.49138
1178.800, 86.21402
1179.282, 85.76875
1179.765, 85.23804
1180.247, 84.91540
1180.729, 85.07348
1181.211, 85.58428
1181.693, 85.59209
1182.175, 85.22713
1182.657, 85.22348
1183.139, 86.31501
1183.621, 87.04272
1184.104, 86.28609
1184.586, 85.22253
1185.068, 84.74916
1185.550, 84.84160
1186.032, 85.09505
1186.514, 85.47807
1186.996, 85.70940
1187.478, 85.42520
1187.961, 85.19820
1188.443, 85.37901
1188.925, 85.71123
1189.407, 86.00991
1189.889, 86.28335
1190.371, 85.86608
1190.853, 84.79989
1191.335, 84.16663
1191.818, 85.31062
1192.300, 86.34865
1192.782, 85.86087
1193.264, 84.77103
1193.746, 84.47649
1194.228, 85.01657
1194.710, 85.30344
1195.192, 85.27395
1195.674, 85.37255
1196.156, 86.24583
1196.639, 87.01942
1197.121, 86.99277
1197.603, 86.49944
1198.085, 86.22563
1198.567, 86.17693
1199.049, 86.23929
1199.531, 86.40935
1200.013, 86.50321
1200.496, 86.30332
1200.978, 86.04342
1201.460, 85.82148
1201.942, 85.68363
1202.424, 85.82684
1202.906, 86.27405
1203.388, 86.34356
1203.870, 85.89066
1204.353, 85.44068
1204.835, 85.50123
1205.317, 85.69294
1205.799, 85.66487
1206.281, 85.50916
1206.763, 85.68972
1207.245, 86.22688
1207.727, 86.49220
1208.209, 86.32899
1208.692, 86.00610
1209.174, 85.52114
1209.656, 85.16853
1210.138, 85.36519
1210.620, 85.95451
1211.102, 85.95375
1211.584, 85.33923
1212.066, 85.01574
1212.548, 85.30331
1213.031, 85.66554
1213.513, 85.54835
1213.995, 85.37542
1214.477, 85.55901
1214.959, 86.05593
1215.441, 86.56608
1215.923, 87.09689
1216.405, 87.23732
1216.888, 86.73701
1217.370, 86.17345
1217.852, 86.14424
1218.334, 86.19359
1218.816, 85.73656
1219.298, 85.94991
1219.780, 86.28724
1220.262, 86.14103
1220.745, 87.09655
1221.227, 87.36350
1221.709, 87.26494
1222.191, 86.62939
1222.673, 86.07851
1223.155, 86.33184
1223.637, 87.37144
1224.119, 87.85793
1224.601, 87.80392
1225.083, 87.30843
1225.566, 85.98605
1226.048, 85.03520
1226.530, 85.80418
1227.012, 86.99956
1227.494, 87.26582
1227.976, 86.59652
1228.458, 86.21680
1228.940, 86.12228
1229.423, 86.26788
1229.905, 86.85593
1230.387, 87.33330
1230.869, 87.22095
1231.351, 86.94437
1231.833, 86.95039
1232.315, 87.23477
1232.797, 87.20372
1233.280, 86.90586
1233.762, 86.78598
1234.244, 87.29591
1234.726, 87.76039
1235.208, 87.85320
1235.690, 87.72243
1236.172, 87.40611
1236.654, 86.92393
1237.136, 86.86020
1237.619, 87.17277
1238.101, 87.54564
1238.583, 88.20192
1239.065, 88.38163
1239.547, 87.20152
1240.029, 85.93459
1240.511, 85.82187
1240.993, 86.71239
1241.475, 87.43333
1241.958, 87.96889
1242.440, 88.34673
1242.922, 88.51134
1243.404, 88.60962
1243.886, 88.68335
1244.368, 88.70676
1244.850, 88.59666
1245.332, 88.40876
1245.815, 88.48446
1246.297, 88.75297
1246.779, 88.82822
1247.261, 88.19619
1247.743, 87.84281
1248.225, 88.03675
1248.707, 88.40334
1249.189, 88.66455
1249.672, 88.77259
1250.154, 88.50430
1250.636, 87.93823
1251.118, 87.45260
1251.600, 87.05739
1252.082, 87.01282
1252.564, 87.46395
1253.046, 88.00900
1253.528, 88.21190
1254.010, 88.21536
1254.493, 88.28878
1254.975, 88.42089
1255.457, 88.51137
1255.939, 88.52395
1256.421, 88.51122
1256.903, 88.49020
1257.385, 88.40086
1257.867, 88.08549
1258.350, 87.72341
1258.832, 87.50865
1259.314, 87.47766
1259.796, 87.79820
1260.278, 88.77701
1260.760, 89.21400
1261.242, 88.92590
1261.724, 88.45419
1262.207, 88.11828
1262.689, 88.02256
1263.171, 88.50208
1263.653, 89.32474
1264.135, 89.63857
1264.617, 89.25766
1265.099, 89.20313
1265.581, 89.60738
1266.063, 89.95731
1266.546, 89.69744
1267.028, 89.29817
1267.510, 89.19275
1267.992, 89.24586
1268.474, 89.03576
1268.956, 88.51987
1269.438, 88.30677
1269.920, 88.45033
1270.402, 88.72874
1270.885, 89.07763
1271.367, 89.40054
1271.849, 89.84084
1272.331, 90.10495
1272.813, 89.42901
1273.295, 87.93445
1273.777, 87.60804
1274.259, 88.54924
1274.742, 89.35303
1275.224, 88.77853
1275.706, 88.40403
1276.188, 89.05360
1276.670, 89.96249
1277.152, 89.91668
1277.634, 89.17601
1278.116, 88.82263
1278.599, 88.89542
1279.081, 89.01563
1279.563, 89.10109
1280.045, 89.08212
1280.527, 88.90394
1281.009, 88.70576
1281.491, 88.76103
1281.973, 88.89389
1282.455, 88.58749
1282.938, 87.92998
1283.420, 87.61210
1283.902, 87.97196
1284.384, 88.43894
1284.866, 89.00324
1285.348, 89.47768
1285.830, 89.67686
1286.312, 89.63390
1286.794, 89.28098
1287.277, 88.70370
1287.759, 88.27898
1288.241, 88.05676
1288.723, 87.87110
1289.205, 87.69048
1289.687, 87.64993
1290.169, 88.05269
1290.651, 88.48254
1291.134, 88.55307
1291.616, 88.34185
1292.098, 88.11337
1292.580, 87.85793
1293.062, 87.67307
1293.544, 87.56541
1294.026, 87.61588
1294.508, 88.02988
1294.990, 88.46165
1295.473, 88.89461
1295.955, 89.10154
1296.437, 88.49913
1296.919, 87.26023
1297.401, 86.94676
1297.883, 87.58257
1298.365, 88.34037
1298.847, 89.22635
1299.329, 89.51320
1299.812, 88.78593
1300.294, 87.82204
1300.776, 87.40168
1301.258, 87.48372
1301.740, 88.24141
1302.222, 89.45930
1302.704, 90.16695
1303.186, 89.50047
1303.669, 89.02565
1304.151, 88.82494
1304.633, 88.90761
##END=



