##NAMES=Spessartine
##RRUFFID=R060279
##IDEAL CHEMISTRY=Mn^2+^_3_Al_2_(SiO_4_)_3_
##LOCALITY=Shigar Valley, northeast of Skardu, Baltistan, Pakistan
##OWNER=RRUFF
##SOURCE=Herb Obodda
##DESCRIPTION=Reddish-brown fine grained fragment
##STATUS=The identification of this mineral has been confirmed by X-ray diffraction and chemical analysis
##URL=rruff.info/R060279
##MEASURED CHEMISTRY=(Mn^2+^_1.64_Ca_0.82_Fe^2+^_0.46_Mg_0.08_)_Σ=3_(Al_1.98_Fe^3+^_0.02_)_Σ=2_(Si_1.00_O_4_)_3_
92.10938, 10.37815
92.59149, 9.838978
93.07361, 10.07377
93.55573, 11.01731
94.03784, 11.85190
94.51996, 11.68364
95.00208, 10.77867
95.48419, 10.08977
95.96631, 10.07211
96.44843, 10.44644
96.93054, 10.33069
97.41266, 9.651666
97.89478, 8.881143
98.37689, 8.645754
98.85901, 8.956152
99.34113, 9.252455
99.82324, 9.280832
100.3054, 9.041229
100.7875, 8.923623
101.2696, 8.960968
101.7517, 9.077903
102.2338, 9.159758
102.7159, 9.230664
103.1981, 9.193987
103.6802, 8.930071
104.1623, 8.259647
104.6444, 7.964993
105.1265, 8.235698
105.6086, 8.888022
106.0908, 9.179873
106.5729, 8.680208
107.0550, 8.324084
107.5371, 8.698973
108.0192, 10.65653
108.5013, 12.07658
108.9835, 12.70658
109.4656, 12.56005
109.9477, 12.27108
110.4298, 11.19100
110.9119, 10.32788
111.3940, 10.35144
111.8762, 12.67503
112.3583, 14.47450
112.8404, 14.96229
113.3225, 13.93427
113.8046, 13.53654
114.2867, 14.37403
114.7689, 15.90343
115.2510, 17.51716
115.7331, 19.39886
116.2152, 21.08944
116.6973, 22.30486
117.1794, 22.88996
117.6616, 23.57585
118.1437, 24.65564
118.6258, 26.01540
119.1079, 27.42822
119.5900, 28.96815
120.0721, 30.44215
120.5543, 31.72659
121.0364, 32.79636
121.5185, 33.68401
122.0006, 34.22988
122.4827, 34.57505
122.9648, 35.13158
123.4470, 36.21156
123.9291, 37.59576
124.4112, 39.04560
124.8933, 40.52641
125.3754, 42.02830
125.8575, 43.57464
126.3397, 45.15180
126.8218, 46.68237
127.3039, 47.78481
127.7860, 48.79743
128.2681, 50.45726
128.7502, 53.33890
129.2324, 56.72164
129.7145, 59.25940
130.1966, 60.96305
130.6787, 62.51095
131.1608, 64.89171
131.6429, 67.81115
132.1251, 69.88364
132.6072, 70.06960
133.0893, 69.07102
133.5714, 69.49715
134.0535, 71.55723
134.5356, 74.08113
135.0178, 75.54005
135.4999, 75.90053
135.9820, 76.35445
136.4641, 77.36392
136.9462, 78.92372
137.4283, 80.59972
137.9105, 82.40485
138.3926, 84.33022
138.8747, 86.46648
139.3568, 88.97801
139.8389, 91.10423
140.3210, 92.27856
140.8032, 92.17907
141.2853, 92.91981
141.7674, 94.74076
142.2495, 97.27053
142.7316, 99.47326
143.2137, 100.8024
143.6959, 101.7023
144.1780, 103.0513
144.6601, 105.2541
145.1422, 106.8961
145.6243, 107.5922
146.1064, 107.7160
146.5886, 108.7913
147.0707, 111.5598
147.5528, 114.4181
148.0349, 116.4226
148.5170, 116.7588
148.9991, 117.5730
149.4813, 119.1796
149.9634, 121.4851
150.4455, 123.5190
150.9276, 125.1610
151.4097, 126.6301
151.8918, 128.0202
152.3740, 129.1895
152.8561, 130.4681
153.3382, 131.8912
153.8203, 133.4483
154.3024, 135.0904
154.7845, 137.1611
155.2667, 139.1156
155.7488, 140.5741
156.2309, 140.7145
156.7130, 141.0950
157.1951, 142.1950
157.6772, 144.0557
158.1594, 145.7506
158.6415, 146.6596
159.1236, 147.4693
159.6057, 148.8568
160.0878, 151.2469
160.5699, 153.9699
161.0521, 156.8000
161.5342, 159.6866
162.0163, 162.8635
162.4984, 166.4364
162.9805, 170.3359
163.4626, 174.4750
163.9448, 178.7113
164.4269, 183.2575
164.9090, 188.6225
165.3911, 195.1457
165.8732, 200.8191
166.3553, 205.0402
166.8375, 207.7330
167.3196, 208.7606
167.8017, 208.4165
168.2838, 206.1881
168.7659, 201.2365
169.2480, 192.9218
169.7302, 184.0944
170.2123, 176.4843
170.6944, 169.7438
171.1765, 163.2299
171.6586, 155.8780
172.1407, 148.8699
172.6229, 143.3426
173.1050, 139.6229
173.5871, 136.8975
174.0692, 134.9008
174.5513, 133.4322
175.0334, 131.9277
175.5156, 129.7403
175.9977, 127.3878
176.4798, 125.6472
176.9619, 124.6337
177.4440, 124.1953
177.9261, 124.3545
178.4083, 125.0207
178.8904, 125.8100
179.3725, 126.7250
179.8546, 127.5584
180.3367, 127.7950
180.8188, 127.1046
181.3010, 126.1981
181.7831, 125.9552
182.2652, 126.3530
182.7473, 127.2140
183.2294, 128.7581
183.7115, 130.7019
184.1937, 132.1767
184.6758, 132.9134
185.1579, 133.2424
185.6400, 133.8346
186.1221, 134.6676
186.6042, 135.3078
187.0864, 135.1427
187.5685, 134.3981
188.0506, 134.0922
188.5327, 134.5209
189.0148, 135.4374
189.4969, 136.4515
189.9791, 137.5721
190.4612, 138.5097
190.9433, 138.8160
191.4254, 138.5945
191.9075, 138.7806
192.3896, 139.7242
192.8718, 141.1410
193.3539, 142.2378
193.8360, 143.0026
194.3181, 143.6251
194.8002, 144.2469
195.2823, 144.8726
195.7645, 145.4996
196.2466, 146.1040
196.7287, 146.7105
197.2108, 147.4604
197.6929, 148.3832
198.1750, 149.2987
198.6572, 149.9292
199.1393, 150.2407
199.6214, 150.8813
200.1035, 152.1500
200.5856, 153.8889
201.0677, 155.0925
201.5499, 155.6781
202.0320, 156.0269
202.5141, 156.3488
202.9962, 156.5701
203.4783, 157.4188
203.9604, 159.3745
204.4426, 162.2156
204.9247, 163.9877
205.4068, 164.4973
205.8889, 164.4007
206.3710, 164.1446
206.8531, 163.5930
207.3353, 163.5972
207.8174, 164.4336
208.2995, 166.0519
208.7816, 167.8131
209.2637, 169.7371
209.7458, 171.7276
210.2280, 173.7740
210.7101, 176.0121
211.1922, 177.7767
211.6743, 178.7612
212.1564, 178.9931
212.6385, 179.6078
213.1207, 180.6577
213.6028, 181.9883
214.0849, 183.4592
214.5670, 185.0639
215.0491, 186.8043
215.5313, 188.8156
216.0134, 191.0991
216.4955, 192.7552
216.9776, 193.6464
217.4597, 194.1225
217.9418, 194.4794
218.4239, 194.5718
218.9061, 194.9062
219.3882, 195.5698
219.8703, 196.5551
220.3524, 197.9693
220.8345, 200.0506
221.3166, 202.2443
221.7988, 204.0653
222.2809, 205.5447
222.7630, 206.5128
223.2451, 206.7219
223.7272, 206.1572
224.2093, 206.2141
224.6915, 207.2455
225.1736, 208.5056
225.6557, 209.2336
226.1378, 209.2998
226.6199, 209.1326
227.1020, 208.7457
227.5842, 208.1345
228.0663, 207.6677
228.5484, 207.4790
229.0305, 207.2820
229.5126, 206.8020
229.9947, 205.9485
230.4769, 205.0041
230.9590, 204.0588
231.4411, 203.1141
231.9232, 201.7800
232.4053, 199.7638
232.8874, 197.6510
233.3696, 196.0300
233.8517, 195.4071
234.3338, 194.2625
234.8159, 192.1699
235.2980, 189.1389
235.7801, 186.5672
236.2623, 184.5970
236.7444, 182.9346
237.2265, 181.4038
237.7086, 180.2778
238.1907, 178.7124
238.6728, 176.2454
239.1550, 172.9866
239.6371, 170.9595
240.1192, 171.0025
240.6013, 171.3335
241.0834, 170.4662
241.5655, 167.6085
242.0477, 165.1508
242.5298, 163.5078
243.0119, 162.5912
243.4940, 161.5090
243.9761, 160.2114
244.4582, 158.8036
244.9404, 157.3225
245.4225, 155.5911
245.9046, 154.1470
246.3867, 153.1170
246.8688, 152.4405
247.3509, 151.7051
247.8331, 150.9172
248.3152, 150.0640
248.7973, 149.0747
249.2794, 147.6452
249.7615, 146.7766
250.2436, 146.9045
250.7258, 147.6946
251.2079, 147.4544
251.6900, 145.4946
252.1721, 143.4854
252.6542, 142.4841
253.1363, 143.1309
253.6185, 143.2605
254.1006, 142.4777
254.5827, 141.1162
255.0648, 140.4529
255.5469, 140.9240
256.0291, 141.4031
256.5112, 141.2591
256.9933, 140.1642
257.4754, 139.2739
257.9575, 138.6676
258.4396, 138.2758
258.9218, 137.9153
259.4039, 137.5509
259.8860, 137.2778
260.3681, 137.1564
260.8502, 137.2511
261.3323, 137.2751
261.8145, 137.0760
262.2966, 136.8909
262.7787, 137.3985
263.2608, 139.1219
263.7429, 140.4149
264.2250, 140.3956
264.7072, 138.5583
265.1893, 137.4894
265.6714, 137.4494
266.1535, 137.9609
266.6356, 138.1835
267.1177, 138.0434
267.5999, 137.8013
268.0820, 137.4525
268.5641, 136.9134
269.0462, 137.0054
269.5283, 138.1130
270.0104, 139.3807
270.4926, 139.3901
270.9747, 137.7231
271.4568, 136.2843
271.9389, 135.7534
272.4210, 136.1559
272.9031, 136.4460
273.3853, 136.5640
273.8674, 136.6819
274.3495, 137.0752
274.8316, 137.8298
275.3137, 138.4184
275.7958, 138.6965
276.2780, 138.6725
276.7601, 138.4095
277.2422, 137.7695
277.7243, 137.2358
278.2064, 137.4123
278.6885, 138.3846
279.1707, 139.3235
279.6528, 140.1075
280.1349, 140.7029
280.6170, 140.8754
281.0991, 140.5644
281.5812, 140.0814
282.0634, 139.6510
282.5455, 139.2668
283.0276, 139.0095
283.5097, 138.8652
283.9918, 138.8764
284.4739, 139.2841
284.9561, 140.1484
285.4382, 140.9686
285.9203, 141.3519
286.4024, 141.3136
286.8845, 141.0999
287.3666, 140.6024
287.8488, 140.1330
288.3309, 140.6065
288.8130, 142.0489
289.2951, 143.3022
289.7772, 143.3396
290.2593, 142.4097
290.7415, 142.0495
291.2236, 142.5302
291.7057, 143.3370
292.1878, 143.6664
292.6699, 143.5466
293.1520, 143.3092
293.6342, 143.0184
294.1163, 142.7445
294.5984, 142.7969
295.0805, 143.2516
295.5626, 143.7771
296.0447, 143.8465
296.5269, 143.5720
297.0090, 143.4984
297.4911, 144.0310
297.9732, 144.9244
298.4553, 145.6249
298.9374, 146.1088
299.4196, 146.5420
299.9017, 147.1659
300.3838, 147.8782
300.8659, 148.3895
301.3480, 148.3903
301.8301, 148.2160
302.3123, 148.4268
302.7944, 149.0099
303.2765, 149.5694
303.7586, 149.6493
304.2407, 149.4998
304.7228, 149.5967
305.2050, 150.2638
305.6871, 151.0660
306.1692, 151.3462
306.6513, 151.2296
307.1334, 151.4105
307.6155, 152.7954
308.0977, 154.6047
308.5798, 155.7848
309.0619, 155.8154
309.5440, 155.6803
310.0261, 156.0599
310.5082, 156.9053
310.9904, 158.0638
311.4725, 159.8671
311.9546, 161.7349
312.4367, 163.1078
312.9188, 163.7731
313.4009, 164.3244
313.8831, 164.9321
314.3652, 165.6801
314.8473, 166.7330
315.3294, 168.2911
315.8115, 170.0938
316.2936, 172.0285
316.7758, 174.1040
317.2579, 176.1677
317.7400, 178.3631
318.2221, 180.4615
318.7042, 182.2193
319.1863, 183.1084
319.6685, 184.0440
320.1506, 185.4848
320.6327, 187.4568
321.1148, 189.3115
321.5969, 190.6526
322.0790, 191.8861
322.5612, 193.3833
323.0433, 195.2541
323.5254, 197.3443
324.0075, 199.7459
324.4896, 202.4141
324.9717, 204.9282
325.4539, 207.1949
325.9360, 209.3362
326.4181, 211.3932
326.9002, 213.2316
327.3823, 215.1847
327.8644, 217.3913
328.3466, 219.7446
328.8287, 221.9140
329.3108, 223.3794
329.7929, 225.1354
330.2750, 227.5477
330.7571, 231.0403
331.2393, 234.2882
331.7214, 237.2331
332.2035, 239.9642
332.6856, 242.5444
333.1677, 244.6567
333.6498, 247.0925
334.1320, 250.0615
334.6141, 253.5111
335.0962, 257.4431
335.5783, 261.8550
336.0604, 266.7525
336.5425, 272.3329
337.0247, 279.0336
337.5068, 285.3481
337.9889, 290.9909
338.4710, 296.0107
338.9531, 300.7996
339.4352, 304.9690
339.9173, 309.8734
340.3994, 316.8001
340.8816, 326.1868
341.3637, 335.1293
341.8458, 343.2020
342.3279, 350.7540
342.8100, 359.1619
343.2921, 368.4077
343.7743, 378.1637
344.2564, 388.0908
344.7385, 398.2872
345.2206, 408.9095
345.7027, 420.0249
346.1848, 431.7057
346.6670, 444.1756
347.1491, 457.4174
347.6312, 471.1219
348.1133, 485.2106
348.5954, 499.7263
349.0775, 515.1033
349.5597, 531.5268
350.0418, 548.3146
350.5239, 565.1044
351.0060, 581.7761
351.4881, 597.2187
351.9702, 611.0395
352.4524, 623.5222
352.9345, 635.1102
353.4166, 645.7102
353.8987, 654.4921
354.3808, 660.4833
354.8629, 664.3184
355.3451, 666.9701
355.8272, 669.1672
356.3093, 669.1427
356.7914, 665.0248
357.2735, 657.3522
357.7556, 647.6433
358.2378, 636.3061
358.7199, 623.6324
359.2020, 609.4373
359.6841, 593.3635
360.1662, 577.7711
360.6483, 564.5491
361.1305, 552.5042
361.6126, 539.9633
362.0947, 525.6915
362.5768, 511.3366
363.0589, 497.0844
363.5410, 482.9884
364.0232, 470.4185
364.5053, 460.7549
364.9874, 452.3017
365.4695, 443.7419
365.9516, 434.0266
366.4337, 425.0422
366.9159, 417.4712
367.3980, 410.9702
367.8801, 404.1418
368.3622, 396.4307
368.8443, 388.7286
369.3264, 381.4098
369.8086, 374.4565
370.2907, 367.8929
370.7728, 361.6979
371.2549, 355.9012
371.7370, 350.6200
372.2191, 346.1201
372.7013, 341.7573
373.1834, 337.5001
373.6655, 333.3793
374.1476, 328.7651
374.6297, 323.3528
375.1118, 317.9616
375.5940, 313.4720
376.0761, 310.2167
376.5582, 306.9707
377.0403, 303.6086
377.5224, 300.1131
378.0045, 296.1445
378.4867, 291.6640
378.9688, 287.1399
379.4509, 282.9185
379.9330, 279.0418
380.4151, 274.9591
380.8972, 270.5362
381.3794, 266.1496
381.8615, 262.7580
382.3436, 260.2872
382.8257, 257.6102
383.3078, 254.0829
383.7899, 249.9120
384.2721, 245.5477
384.7542, 240.9787
385.2363, 236.5733
385.7184, 232.5242
386.2005, 228.9215
386.6826, 225.8476
387.1648, 223.7665
387.6469, 221.8298
388.1290, 218.8491
388.6111, 214.9621
389.0932, 210.8983
389.5753, 206.9525
390.0575, 203.1424
390.5396, 199.3930
391.0217, 195.6024
391.5038, 192.0393
391.9859, 188.9927
392.4680, 186.2999
392.9502, 183.6169
393.4323, 180.7370
393.9144, 177.8863
394.3965, 175.2383
394.8786, 172.7945
395.3607, 170.4184
395.8429, 167.9969
396.3250, 165.6268
396.8071, 163.3850
397.2892, 161.5643
397.7713, 159.5661
398.2534, 156.9299
398.7356, 153.8886
399.2177, 151.6311
399.6998, 151.3293
400.1819, 150.9788
400.6640, 149.6745
401.1461, 146.8261
401.6283, 144.2266
402.1104, 141.8050
402.5925, 139.6700
403.0746, 137.9700
403.5567, 136.8473
404.0388, 135.9124
404.5210, 135.1577
405.0031, 134.5831
405.4852, 133.6469
405.9673, 132.1672
406.4494, 130.6579
406.9315, 129.6454
407.4137, 129.2205
407.8958, 128.4933
408.3779, 127.1893
408.8600, 125.6591
409.3421, 124.9135
409.8242, 125.0111
410.3064, 125.0353
410.7885, 124.4276
411.2706, 123.2932
411.7527, 122.0673
412.2348, 120.7142
412.7169, 119.5375
413.1991, 119.0130
413.6812, 118.9882
414.1633, 118.9828
414.6454, 118.8432
415.1275, 118.6114
415.6096, 118.3461
416.0918, 118.0440
416.5739, 117.6679
417.0560, 117.1600
417.5381, 116.5762
418.0202, 115.9746
418.5023, 115.3619
418.9845, 114.7517
419.4666, 114.1207
419.9487, 113.5044
420.4308, 112.9839
420.9129, 112.5510
421.3951, 112.2495
421.8772, 112.1818
422.3593, 112.3801
422.8414, 112.4117
423.3235, 111.9324
423.8056, 111.3616
424.2878, 111.0404
424.7699, 111.3454
425.2520, 111.5221
425.7341, 111.4843
426.2162, 111.2537
426.6983, 110.8794
427.1805, 110.0641
427.6626, 109.4539
428.1447, 109.3672
428.6268, 110.0378
429.1089, 110.3648
429.5910, 110.2349
430.0732, 109.8821
430.5553, 109.5627
431.0374, 109.2531
431.5195, 109.0792
432.0016, 109.1216
432.4837, 109.3143
432.9659, 109.3177
433.4480, 109.1012
433.9301, 108.8838
434.4122, 108.7943
434.8943, 108.8327
435.3764, 109.0551
435.8586, 109.5291
436.3407, 109.9917
436.8228, 109.8844
437.3049, 109.3792
437.7870, 109.2095
438.2691, 110.0253
438.7513, 111.2240
439.2334, 112.0146
439.7155, 112.4024
440.1976, 112.4921
440.6797, 112.0510
441.1618, 111.4725
441.6440, 111.2621
442.1261, 111.7153
442.6082, 112.2406
443.0903, 112.3793
443.5724, 112.3390
444.0545, 112.5676
444.5367, 113.5226
445.0188, 114.5396
445.5009, 115.3485
445.9830, 115.9155
446.4651, 116.2842
446.9472, 116.2727
447.4294, 116.1625
447.9115, 116.1891
448.3936, 116.3822
448.8757, 116.6928
449.3578, 117.1261
449.8399, 117.6714
450.3221, 118.3429
450.8042, 119.2563
451.2863, 120.1170
451.7684, 120.8334
452.2505, 121.4145
452.7326, 121.7587
453.2148, 121.7534
453.6969, 121.7179
454.1790, 122.0867
454.6611, 122.8901
455.1432, 123.6013
455.6253, 124.0476
456.1075, 124.3575
456.5896, 124.9302
457.0717, 125.7604
457.5538, 126.4552
458.0359, 126.5266
458.5180, 126.2943
459.0002, 126.6087
459.4823, 127.6107
459.9644, 128.6491
460.4465, 128.8921
460.9286, 128.7184
461.4107, 128.8502
461.8929, 130.0330
462.3750, 131.2237
462.8571, 131.4714
463.3392, 130.9791
463.8213, 130.6736
464.3034, 131.1255
464.7856, 131.8287
465.2677, 132.4925
465.7498, 133.1518
466.2319, 133.5500
466.7140, 133.0214
467.1961, 132.3899
467.6783, 132.7100
468.1604, 135.4943
468.6425, 137.6981
469.1246, 138.4922
469.6067, 138.0336
470.0888, 138.2216
470.5710, 139.2301
471.0531, 140.6447
471.5352, 142.3570
472.0173, 144.6154
472.4994, 146.2508
472.9815, 147.0300
473.4637, 147.4932
473.9458, 148.6639
474.4279, 150.6309
474.9100, 151.9814
475.3921, 152.1170
475.8742, 151.3827
476.3564, 150.8830
476.8385, 150.6125
477.3206, 150.0304
477.8027, 148.4795
478.2848, 146.3609
478.7669, 144.4976
479.2491, 142.9997
479.7312, 141.7571
480.2133, 140.9178
480.6954, 140.2333
481.1775, 139.2371
481.6596, 137.2121
482.1418, 135.2574
482.6239, 134.0623
483.1060, 133.5715
483.5881, 133.3719
484.0702, 133.6526
484.5523, 133.9170
485.0345, 133.7693
485.5166, 132.7120
485.9987, 132.2457
486.4808, 133.0297
486.9629, 134.3736
487.4450, 135.3088
487.9272, 135.2228
488.4093, 135.6042
488.8914, 136.8271
489.3735, 138.8142
489.8556, 140.7750
490.3377, 142.8280
490.8199, 144.6606
491.3020, 145.8493
491.7841, 146.2893
492.2662, 147.6458
492.7483, 150.1453
493.2304, 153.0812
493.7126, 155.4324
494.1947, 157.2777
494.6768, 158.9830
495.1589, 160.2482
495.6410, 161.8035
496.1231, 165.3372
496.6053, 170.6103
497.0874, 175.6921
497.5695, 179.3125
498.0516, 182.1677
498.5337, 185.0530
499.0158, 188.0328
499.4980, 191.1170
499.9801, 194.5284
500.4622, 197.9846
500.9443, 201.2259
501.4264, 204.5893
501.9085, 207.1894
502.3907, 208.8910
502.8728, 209.6549
503.3549, 209.3838
503.8370, 207.9258
504.3191, 205.5391
504.8012, 202.2685
505.2834, 198.0078
505.7655, 193.2839
506.2476, 187.7782
506.7297, 182.1889
507.2118, 177.0866
507.6939, 172.5003
508.1761, 168.4439
508.6582, 165.0609
509.1403, 162.0663
509.6224, 158.5599
510.1045, 154.5111
510.5866, 151.1039
511.0688, 149.3673
511.5509, 148.7206
512.0330, 147.3071
512.5151, 145.0975
512.9973, 142.9741
513.4794, 141.7292
513.9615, 141.0346
514.4436, 140.3609
514.9257, 139.5344
515.4078, 138.8340
515.8900, 138.5944
516.3721, 138.6234
516.8542, 138.5492
517.3363, 138.0587
517.8184, 137.5976
518.3005, 137.3492
518.7827, 137.3188
519.2648, 137.3881
519.7469, 137.8117
520.2290, 138.1198
520.7111, 138.0011
521.1932, 136.9590
521.6754, 136.5414
522.1575, 136.9576
522.6396, 137.8192
523.1217, 138.6313
523.6038, 139.4366
524.0859, 140.0127
524.5681, 140.2316
525.0502, 140.2060
525.5323, 140.3046
526.0144, 140.5272
526.4965, 140.8860
526.9786, 141.3927
527.4608, 142.0462
527.9429, 142.8547
528.4250, 143.8335
528.9071, 144.8786
529.3892, 145.9135
529.8713, 146.9520
530.3535, 147.9617
530.8356, 148.7208
531.3177, 149.7826
531.7998, 151.6759
532.2819, 154.1644
532.7640, 156.5900
533.2462, 158.4643
533.7283, 160.5095
534.2104, 163.0503
534.6925, 166.1030
535.1746, 169.4409
535.6567, 173.4902
536.1389, 177.4583
536.6210, 180.6931
537.1031, 182.5322
537.5852, 185.3006
538.0673, 189.4249
538.5494, 194.1708
539.0316, 198.2392
539.5137, 201.5143
539.9958, 205.1621
540.4779, 209.5742
540.9600, 214.5834
541.4421, 219.6793
541.9243, 224.8476
542.4064, 230.3091
542.8885, 235.9486
543.3706, 241.9976
543.8527, 249.2317
544.3348, 257.8329
544.8170, 266.1056
545.2991, 272.4614
545.7812, 277.7675
546.2633, 283.1904
546.7454, 289.2910
547.2275, 295.2032
547.7097, 300.9605
548.1918, 306.2848
548.6739, 310.4410
549.1560, 312.9166
549.6381, 314.6200
550.1202, 316.0848
550.6024, 317.3852
551.0845, 316.6938
551.5666, 313.5952
552.0487, 309.0461
552.5308, 303.7424
553.0129, 297.7793
553.4951, 290.3120
553.9772, 281.0889
554.4593, 270.8273
554.9414, 260.2059
555.4235, 249.2864
555.9056, 238.7768
556.3878, 229.0773
556.8699, 219.7991
557.3520, 210.2505
557.8341, 200.6084
558.3162, 191.8253
558.7983, 184.6168
559.2805, 178.4331
559.7626, 172.8934
560.2447, 168.0010
560.7268, 163.3338
561.2089, 158.4020
561.6910, 153.7399
562.1732, 149.7850
562.6553, 147.1160
563.1374, 144.4429
563.6195, 141.2260
564.1016, 138.0371
564.5837, 135.7318
565.0659, 134.5522
565.5480, 133.8339
566.0301, 133.7724
566.5122, 134.0721
566.9943, 133.0254
567.4764, 130.3685
567.9586, 127.6801
568.4407, 125.8815
568.9228, 124.8713
569.4049, 124.1195
569.8870, 123.6401
570.3691, 123.2173
570.8513, 122.6527
571.3334, 121.9946
571.8155, 121.3574
572.2976, 120.7551
572.7797, 120.1794
573.2618, 119.6621
573.7440, 119.1572
574.2261, 118.5707
574.7082, 117.6135
575.1903, 116.8218
575.6724, 116.6156
576.1545, 116.8950
576.6367, 116.7452
577.1188, 115.4818
577.6009, 114.3946
578.0830, 114.1131
578.5651, 114.9196
579.0472, 114.9946
579.5294, 114.0455
580.0115, 112.8881
580.4936, 112.4089
580.9757, 112.6246
581.4578, 112.4079
581.9399, 111.4399
582.4221, 110.3543
582.9042, 110.2658
583.3863, 110.9592
583.8684, 111.5530
584.3505, 111.7126
584.8326, 111.5547
585.3148, 110.9556
585.7969, 110.0539
586.2789, 109.5153
586.7610, 110.1474
587.2432, 110.9124
587.7253, 111.0180
588.2074, 110.2350
588.6895, 109.7841
589.1716, 110.3018
589.6537, 110.9790
590.1359, 111.1804
590.6180, 110.4813
591.1001, 110.1593
591.5822, 110.4864
592.0643, 111.0061
592.5464, 110.8615
593.0286, 109.9447
593.5107, 109.1783
593.9928, 108.7992
594.4749, 108.7623
594.9570, 109.1107
595.4391, 109.7966
595.9213, 110.3260
596.4034, 110.6540
596.8855, 110.5394
597.3676, 109.2412
597.8497, 106.7628
598.3318, 104.8462
598.8140, 105.3079
599.2961, 106.4232
599.7782, 106.6357
600.2603, 105.1048
600.7424, 103.8932
601.2245, 103.6071
601.7067, 103.8206
602.1888, 103.9608
602.6709, 103.8265
603.1530, 103.9652
603.6351, 104.6226
604.1172, 105.5306
604.5994, 105.7734
605.0815, 105.1955
605.5636, 104.7961
606.0457, 105.0316
606.5278, 105.7805
607.0099, 106.6892
607.4921, 107.7383
607.9742, 108.6673
608.4563, 109.3161
608.9384, 109.6975
609.4205, 109.6662
609.9026, 109.1213
610.3848, 108.8600
610.8669, 109.5728
611.3490, 110.7476
611.8311, 111.8658
612.3132, 112.7807
612.7953, 113.6403
613.2775, 114.4731
613.7596, 115.2552
614.2417, 115.9331
614.7238, 116.3039
615.2059, 116.9354
615.6880, 118.1382
616.1702, 119.6955
616.6523, 120.4058
617.1344, 120.1054
617.6165, 120.0086
618.0986, 121.0079
618.5807, 122.7877
619.0629, 124.1527
619.5450, 125.0943
620.0271, 125.8276
620.5092, 126.3746
620.9913, 126.8841
621.4734, 127.5639
621.9556, 128.4870
622.4377, 129.4518
622.9198, 130.1951
623.4019, 130.9885
623.8840, 132.1411
624.3661, 134.2243
624.8483, 136.0780
625.3304, 137.4957
625.8125, 138.5846
626.2946, 139.5666
626.7767, 140.4185
627.2589, 141.1984
627.7410, 141.9409
628.2231, 142.6252
628.7052, 143.1697
629.1873, 143.5821
629.6694, 143.7651
630.1516, 143.7800
630.6337, 143.5014
631.1158, 142.4903
631.5979, 140.7413
632.0800, 138.8627
632.5621, 137.3726
633.0443, 135.9763
633.5264, 134.3486
634.0085, 132.3710
634.4906, 130.2841
634.9727, 128.1246
635.4548, 125.9237
635.9370, 123.7250
636.4191, 121.2732
636.9012, 119.1890
637.3833, 117.7305
637.8654, 116.5934
638.3475, 115.0018
638.8297, 112.7923
639.3118, 110.9343
639.7939, 109.8579
640.2760, 109.3184
640.7581, 108.6051
641.2402, 107.7078
641.7224, 106.6351
642.2045, 105.2524
642.6866, 103.7390
643.1687, 102.2697
643.6508, 100.8498
644.1329, 99.73851
644.6151, 99.35778
645.0972, 99.15895
645.5793, 98.67153
646.0614, 97.61805
646.5435, 96.79933
647.0256, 96.60408
647.5078, 96.52883
647.9899, 96.06599
648.4720, 94.91738
648.9541, 94.16380
649.4362, 94.03641
649.9183, 94.19432
650.4005, 93.97273
650.8826, 93.37858
651.3647, 92.80083
651.8468, 92.36083
652.3289, 92.01231
652.8110, 91.66197
653.2932, 91.32182
653.7753, 91.06524
654.2574, 90.96163
654.7395, 90.92654
655.2216, 90.95553
655.7037, 91.03352
656.1859, 90.97473
656.6680, 90.62040
657.1501, 90.19361
657.6322, 89.80513
658.1143, 89.44833
658.5964, 89.15189
659.0786, 88.86131
659.5607, 88.71067
660.0428, 88.95480
660.5249, 89.64198
661.0070, 89.79916
661.4891, 89.26533
661.9713, 88.44478
662.4534, 87.67095
662.9355, 87.02284
663.4176, 86.79659
663.8997, 87.39293
664.3818, 87.87493
664.8640, 86.97780
665.3461, 85.44079
665.8282, 84.70045
666.3103, 86.38510
666.7924, 87.76549
667.2745, 87.60506
667.7567, 86.21731
668.2388, 85.60702
668.7209, 86.35267
669.2030, 86.95031
669.6851, 86.80508
670.1672, 85.98087
670.6494, 85.40115
671.1315, 85.07063
671.6136, 84.92139
672.0957, 85.12740
672.5778, 85.46243
673.0599, 85.06216
673.5421, 83.84990
674.0242, 82.96376
674.5063, 83.77247
674.9884, 85.16458
675.4705, 85.84196
675.9526, 85.23899
676.4348, 84.81104
676.9169, 85.29748
677.3990, 86.08347
677.8811, 86.48241
678.3632, 86.27284
678.8453, 86.04379
679.3275, 85.88042
679.8096, 85.68398
680.2917, 85.11421
680.7738, 84.12513
681.2559, 83.68865
681.7380, 84.31947
682.2202, 85.36754
682.7023, 85.55874
683.1844, 85.05629
683.6665, 84.50340
684.1486, 83.98556
684.6307, 83.74609
685.1129, 84.21175
685.5950, 85.22428
686.0771, 85.89890
686.5592, 85.67612
687.0413, 85.26631
687.5234, 84.96223
688.0056, 84.77348
688.4877, 84.62180
688.9698, 84.49327
689.4519, 84.42503
689.9340, 84.40807
690.4161, 84.44139
690.8983, 84.79130
691.3804, 85.52740
691.8625, 86.16607
692.3446, 86.09061
692.8267, 85.59286
693.3088, 85.25455
693.7910, 85.21748
694.2731, 85.19749
694.7552, 84.99657
695.2373, 84.70158
695.7194, 84.40984
696.2015, 83.80333
696.6837, 83.64631
697.1658, 84.43385
697.6479, 85.57068
698.1300, 86.16386
698.6121, 86.04152
699.0942, 85.85676
699.5764, 85.72007
700.0585, 85.61048
700.5406, 85.43846
701.0227, 85.21870
701.5048, 85.11535
701.9869, 85.28580
702.4691, 85.54434
702.9512, 85.68806
703.4333, 85.71529
703.9154, 85.61776
704.3975, 85.22669
704.8796, 84.85892
705.3618, 84.61760
705.8439, 84.51414
706.3260, 84.75362
706.8081, 85.78872
707.2902, 86.63523
707.7723, 86.78178
708.2545, 86.19067
708.7366, 85.79508
709.2187, 85.59229
709.7008, 85.59297
710.1829, 85.93483
710.6650, 86.48719
711.1472, 86.83862
711.6293, 86.94715
712.1114, 86.92628
712.5935, 86.79428
713.0756, 86.61879
713.5577, 86.44463
714.0399, 86.19165
714.5220, 86.18192
715.0041, 86.88158
715.4862, 87.67641
715.9683, 87.89175
716.4504, 87.11497
716.9326, 86.68395
717.4147, 86.80362
717.8968, 87.15569
718.3789, 87.23256
718.8610, 87.04675
719.3431, 86.85609
719.8253, 86.70525
720.3074, 86.61443
720.7895, 86.58169
721.2716, 86.62858
721.7537, 86.80628
722.2358, 87.33216
722.7180, 87.79864
723.2001, 88.01342
723.6822, 88.00520
724.1643, 87.84209
724.6464, 87.25111
725.1285, 86.87164
725.6107, 86.89353
726.0928, 87.24655
726.5749, 87.64887
727.0570, 88.12697
727.5391, 88.45589
728.0212, 88.43757
728.5034, 88.22290
728.9855, 88.23206
729.4676, 88.44149
729.9497, 88.67859
730.4318, 88.98509
730.9139, 89.15654
731.3961, 88.88098
731.8782, 88.15058
732.3603, 87.70230
732.8424, 87.95869
733.3245, 88.38008
733.8066, 88.69347
734.2888, 88.87926
734.7709, 89.13992
735.2530, 89.59980
735.7351, 89.82028
736.2172, 89.08863
736.6993, 87.67185
737.1815, 87.53597
737.6636, 88.89974
738.1457, 90.31313
738.6278, 90.16924
739.1099, 89.38577
739.5920, 89.20063
740.0742, 90.04711
740.5563, 90.72526
741.0384, 90.53321
741.5205, 90.07630
742.0026, 89.96395
742.4847, 90.51895
742.9669, 90.82612
743.4490, 90.79307
743.9311, 90.60862
744.4132, 90.48979
744.8953, 90.43665
745.3774, 90.50005
745.8596, 90.76383
746.3417, 90.92132
746.8238, 90.31448
747.3059, 89.35464
747.7880, 88.85335
748.2701, 89.26259
748.7523, 89.93102
749.2344, 90.84950
749.7165, 91.77002
750.1986, 92.19912
750.6807, 91.58829
751.1628, 91.26616
751.6450, 91.54945
752.1271, 92.14245
752.6092, 92.27255
753.0913, 91.90386
753.5734, 91.66321
754.0555, 91.76121
754.5377, 92.09764
755.0198, 92.63901
755.5019, 93.29503
755.9840, 93.76760
756.4661, 93.90934
756.9482, 93.83179
757.4304, 93.41844
757.9125, 92.80502
758.3946, 92.48636
758.8767, 92.86405
759.3588, 93.15443
759.8409, 93.08961
760.3231, 92.77406
760.8052, 92.77876
761.2873, 93.13105
761.7694, 93.63873
762.2515, 94.39905
762.7336, 95.17711
763.2158, 95.36018
763.6979, 95.03207
764.1800, 94.65108
764.6621, 94.20944
765.1442, 94.04149
765.6263, 94.59109
766.1085, 95.81743
766.5906, 96.65376
767.0727, 96.71964
767.5548, 96.56551
768.0369, 96.29599
768.5190, 95.91834
769.0012, 95.87470
769.4833, 96.20019
769.9654, 96.64664
770.4475, 97.16434
770.9296, 97.66479
771.4117, 97.84192
771.8939, 97.71497
772.3760, 97.66783
772.8581, 97.94858
773.3402, 98.42011
773.8223, 99.04637
774.3044, 99.85432
774.7866, 100.4894
775.2687, 100.6986
775.7508, 100.9353
776.2329, 101.4662
776.7150, 102.3391
777.1971, 103.0916
777.6793, 103.7644
778.1614, 104.1143
778.6435, 103.5784
779.1256, 102.6298
779.6077, 102.4605
780.0898, 103.1788
780.5720, 104.0181
781.0541, 104.5088
781.5362, 104.8760
782.0183, 105.2956
782.5004, 105.8066
782.9825, 106.3316
783.4647, 106.9569
783.9468, 107.4997
784.4289, 107.8575
784.9110, 108.0397
785.3931, 107.8314
785.8752, 107.1128
786.3574, 106.6432
786.8395, 107.4679
787.3216, 109.0190
787.8037, 110.1809
788.2858, 110.7702
788.7679, 111.0540
789.2501, 110.7197
789.7322, 110.4369
790.2143, 110.8715
790.6964, 112.7225
791.1785, 113.8100
791.6606, 113.6602
792.1428, 113.2630
792.6249, 113.4735
793.1070, 114.3152
793.5891, 115.1764
794.0712, 116.0424
794.5533, 116.8249
795.0355, 117.3361
795.5176, 117.7421
795.9997, 118.3936
796.4818, 119.4350
796.9639, 120.3053
797.4460, 120.4508
797.9282, 120.4684
798.4103, 120.9473
798.8924, 122.3233
799.3745, 123.2488
799.8566, 123.4996
800.3387, 123.6495
800.8209, 124.2606
801.3030, 125.3090
801.7851, 126.4885
802.2672, 127.7772
802.7493, 129.2100
803.2314, 131.0324
803.7136, 132.9210
804.1957, 134.3901
804.6778, 135.2362
805.1599, 136.0700
805.6420, 137.1052
806.1241, 138.2168
806.6063, 139.2660
807.0884, 140.1039
807.5705, 141.3584
808.0526, 143.2041
808.5347, 145.0528
809.0168, 146.1505
809.4990, 146.6908
809.9811, 147.5837
810.4632, 148.9964
810.9453, 150.4417
811.4274, 151.4842
811.9095, 152.3770
812.3917, 153.4246
812.8738, 154.8775
813.3559, 155.9791
813.8380, 156.4308
814.3201, 156.6511
814.8022, 156.8586
815.2844, 156.9593
815.7665, 157.6680
816.2486, 159.0931
816.7307, 160.7818
817.2128, 162.3821
817.6949, 163.8895
818.1771, 165.3055
818.6592, 166.6266
819.1413, 167.8175
819.6234, 168.7747
820.1055, 169.6569
820.5876, 170.5330
821.0698, 171.1195
821.5519, 172.5033
822.0340, 174.9375
822.5161, 177.8173
822.9982, 180.7768
823.4803, 183.8256
823.9625, 186.8663
824.4446, 189.9058
824.9267, 192.9723
825.4088, 196.1607
825.8909, 199.3434
826.3730, 202.1592
826.8552, 204.5268
827.3373, 207.1429
827.8194, 210.4966
828.3015, 214.0114
828.7836, 217.3360
829.2657, 220.3720
829.7479, 223.5084
830.2300, 226.5673
830.7121, 230.1435
831.1942, 235.1055
831.6763, 240.9464
832.1584, 245.8413
832.6406, 249.6960
833.1227, 253.2443
833.6048, 256.6345
834.0869, 260.1350
834.5690, 264.1070
835.0511, 268.6340
835.5333, 273.0174
836.0154, 277.2915
836.4975, 281.3581
836.9796, 285.0912
837.4617, 288.5430
837.9438, 292.2049
838.4260, 296.0995
838.9081, 299.9007
839.3902, 303.6430
839.8723, 307.0150
840.3544, 309.4817
840.8365, 311.0612
841.3187, 312.1641
841.8008, 312.6218
842.2829, 312.9683
842.7650, 313.7266
843.2471, 314.8185
843.7292, 314.5842
844.2114, 312.7369
844.6935, 310.5197
845.1756, 308.4999
845.6577, 306.5724
846.1398, 304.4602
846.6219, 302.1323
847.1041, 299.4181
847.5862, 295.8824
848.0683, 292.2174
848.5504, 288.9247
849.0325, 285.9555
849.5146, 282.8247
849.9968, 279.4485
850.4789, 275.9651
850.9610, 272.2748
851.4431, 268.5591
851.9252, 265.4713
852.4073, 263.0019
852.8895, 260.8088
853.3716, 258.9885
853.8537, 257.1628
854.3358, 254.3994
854.8179, 251.2926
855.3000, 249.2874
855.7822, 250.2050
856.2643, 250.7512
856.7464, 249.6249
857.2285, 247.6692
857.7106, 246.4810
858.1927, 246.2718
858.6749, 245.6746
859.1570, 244.1488
859.6391, 242.6365
860.1212, 242.9235
860.6033, 244.4626
861.0854, 245.8630
861.5676, 246.5307
862.0497, 247.2905
862.5318, 248.8439
863.0139, 250.6556
863.4960, 251.8916
863.9781, 251.8453
864.4603, 252.6741
864.9424, 254.7477
865.4245, 257.2782
865.9066, 259.3458
866.3887, 261.0021
866.8708, 262.4872
867.3530, 263.7316
867.8351, 265.4488
868.3172, 268.7353
868.7993, 272.5803
869.2814, 275.9291
869.7635, 278.5284
870.2457, 280.8706
870.7278, 282.5360
871.2099, 284.5311
871.6920, 287.9011
872.1741, 292.6832
872.6563, 295.9604
873.1384, 297.5439
873.6205, 299.3765
874.1026, 303.5083
874.5847, 308.6325
875.0668, 313.1001
875.5490, 316.7366
876.0311, 320.0719
876.5132, 322.2870
876.9953, 325.2384
877.4774, 329.8860
877.9595, 336.1698
878.4417, 342.6557
878.9238, 349.3282
879.4059, 356.3260
879.8880, 363.6534
880.3701, 371.3205
880.8522, 378.9094
881.3344, 386.6936
881.8165, 395.8422
882.2986, 407.4970
882.7807, 420.1432
883.2628, 432.5001
883.7449, 445.1903
884.2271, 460.2163
884.7092, 477.8820
885.1913, 497.0570
885.6734, 517.5992
886.1555, 539.2836
886.6376, 561.5178
887.1198, 584.2595
887.6019, 608.7875
888.0840, 635.6916
888.5661, 664.2111
889.0482, 694.1696
889.5303, 725.4736
890.0125, 757.5259
890.4946, 789.8605
890.9767, 824.1709
891.4588, 860.9059
891.9409, 899.5850
892.4230, 940.9181
892.9052, 984.5779
893.3873, 1026.935
893.8694, 1067.584
894.3515, 1108.639
894.8336, 1152.409
895.3157, 1197.250
895.7979, 1241.821
896.2800, 1286.045
896.7621, 1328.040
897.2442, 1368.252
897.7263, 1405.078
898.2084, 1437.633
898.6906, 1465.748
899.1727, 1487.705
899.6548, 1503.337
900.1369, 1512.320
900.6190, 1513.747
901.1011, 1508.672
901.5833, 1498.106
902.0654, 1482.211
902.5475, 1460.239
903.0296, 1432.129
903.5117, 1397.365
903.9938, 1354.793
904.4760, 1305.883
904.9581, 1255.439
905.4402, 1203.428
905.9223, 1151.985
906.4044, 1101.179
906.8865, 1050.806
907.3687, 1000.146
907.8508, 949.3538
908.3329, 899.8822
908.8150, 851.0223
909.2971, 805.0950
909.7792, 762.4745
910.2614, 722.8870
910.7435, 686.2939
911.2256, 652.8391
911.7077, 620.6954
912.1898, 589.1886
912.6719, 559.1004
913.1541, 531.6030
913.6362, 506.2404
914.1183, 482.4881
914.6004, 460.1634
915.0825, 439.6914
915.5646, 421.8199
916.0468, 405.4225
916.5289, 389.7896
917.0110, 374.8383
917.4931, 360.8774
917.9752, 347.8437
918.4573, 335.7574
918.9395, 324.9150
919.4216, 314.8944
919.9037, 305.0078
920.3858, 295.2372
920.8679, 286.0967
921.3500, 277.5083
921.8322, 269.8419
922.3143, 263.6217
922.7964, 258.4750
923.2785, 252.1141
923.7606, 244.2652
924.2427, 237.3724
924.7249, 232.6591
925.2070, 229.0665
925.6891, 225.4126
926.1712, 221.5845
926.6533, 217.3588
927.1354, 211.6347
927.6176, 206.7169
928.0997, 203.6839
928.5818, 201.5474
929.0639, 199.1255
929.5460, 196.3208
930.0281, 193.7932
930.5103, 191.6966
930.9924, 189.5957
931.4745, 186.9669
931.9566, 184.0553
932.4387, 181.0592
932.9208, 177.9512
933.4030, 175.5117
933.8851, 174.7768
934.3672, 174.1951
934.8493, 172.8018
935.3314, 170.5498
935.8135, 168.8203
936.2957, 167.6848
936.7778, 166.4464
937.2599, 164.3180
937.7420, 162.0087
938.2241, 160.7233
938.7062, 160.2480
939.1884, 159.6973
939.6705, 158.4589
940.1526, 157.3927
940.6347, 156.8753
941.1168, 156.6487
941.5989, 156.1677
942.0811, 155.4250
942.5632, 154.5371
943.0453, 153.5007
943.5274, 152.4321
944.0095, 151.4167
944.4916, 150.4632
944.9738, 149.5528
945.4559, 148.5818
945.9380, 147.9059
946.4201, 147.9053
946.9022, 147.9732
947.3843, 147.6335
947.8665, 146.8360
948.3486, 146.2755
948.8307, 145.9692
949.3128, 145.6943
949.7949, 145.4462
950.2770, 145.0189
950.7592, 143.9195
951.2413, 142.2612
951.7234, 141.1591
952.2055, 141.4679
952.6876, 141.7656
953.1697, 141.5989
953.6519, 141.1585
954.1340, 141.1651
954.6161, 141.5971
955.0982, 141.8912
955.5803, 141.8427
956.0624, 141.5961
956.5446, 141.1310
957.0267, 140.6158
957.5088, 140.3081
957.9909, 140.5672
958.4730, 140.5752
958.9551, 140.2211
959.4373, 139.7102
959.9194, 139.0992
960.4015, 138.4478
960.8836, 138.4586
961.3657, 139.1906
961.8478, 139.7638
962.3300, 139.5074
962.8121, 138.7820
963.2942, 137.7087
963.7763, 136.3061
964.2584, 135.3577
964.7405, 135.2397
965.2227, 134.8572
965.7048, 133.6705
966.1869, 132.0560
966.6690, 131.0113
967.1511, 130.4268
967.6332, 129.8471
968.1154, 128.9413
968.5975, 128.1673
969.0796, 128.1968
969.5617, 128.3622
970.0438, 127.5374
970.5259, 125.1450
971.0081, 123.2655
971.4902, 121.9996
971.9723, 121.3551
972.4544, 121.8581
972.9365, 122.8930
973.4186, 122.9188
973.9008, 121.7818
974.3829, 120.5267
974.8650, 119.5419
975.3471, 118.7465
975.8292, 118.1155
976.3113, 117.6355
976.7935, 117.1321
977.2756, 116.5684
977.7577, 116.3031
978.2398, 116.6489
978.7219, 117.1925
979.2040, 117.2460
979.6862, 117.0072
980.1683, 116.9029
980.6504, 117.3988
981.1325, 117.6109
981.6146, 117.1563
982.0967, 116.5615
982.5789, 116.4459
983.0610, 116.8103
983.5431, 117.1737
984.0252, 117.5033
984.5073, 117.7803
984.9894, 117.7277
985.4716, 117.7938
985.9537, 118.5718
986.4358, 120.1344
986.9179, 121.4125
987.4000, 122.3459
987.8821, 122.8836
988.3643, 122.8263
988.8464, 122.4657
989.3285, 122.6883
989.8106, 123.4466
990.2927, 124.5106
990.7748, 125.8622
991.2570, 127.3805
991.7391, 129.3398
992.2212, 131.2663
992.7033, 132.4493
993.1854, 132.4035
993.6675, 132.9133
994.1497, 134.1201
994.6318, 135.6431
995.1139, 137.4427
995.5960, 139.1478
996.0781, 139.6878
996.5602, 139.0593
997.0424, 138.9460
997.5245, 140.5579
998.0066, 142.4577
998.4887, 144.2319
998.9708, 145.7411
999.4529, 146.1114
999.9351, 145.2401
1000.417, 145.1484
1000.899, 146.8537
1001.381, 148.9924
1001.864, 149.9986
1002.346, 150.3181
1002.828, 150.6373
1003.310, 151.1181
1003.792, 151.6401
1004.274, 152.2113
1004.756, 152.7996
1005.238, 153.2649
1005.720, 153.6797
1006.203, 154.8259
1006.685, 156.6580
1007.167, 158.3076
1007.649, 158.9303
1008.131, 159.3748
1008.613, 160.2556
1009.095, 160.9692
1009.577, 161.6898
1010.060, 162.8014
1010.542, 163.4747
1011.024, 164.6597
1011.506, 166.0510
1011.988, 167.1097
1012.470, 168.0149
1012.952, 169.1751
1013.434, 170.8232
1013.916, 172.2740
1014.399, 173.0415
1014.881, 173.6788
1015.363, 174.4719
1015.845, 175.4137
1016.327, 176.8313
1016.809, 178.7293
1017.291, 180.6798
1017.773, 182.5576
1018.255, 184.2388
1018.738, 185.3673
1019.220, 186.2150
1019.702, 187.5894
1020.184, 190.3462
1020.666, 192.4284
1021.148, 193.3990
1021.630, 193.9292
1022.112, 195.1132
1022.595, 196.6820
1023.077, 197.8098
1023.559, 198.3911
1024.041, 198.2554
1024.523, 196.6241
1025.005, 194.8038
1025.487, 194.0475
1025.969, 194.2091
1026.452, 192.5864
1026.934, 188.9589
1027.416, 185.3908
1027.898, 183.0058
1028.380, 180.8823
1028.862, 177.6662
1029.344, 173.7829
1029.826, 169.9976
1030.308, 166.4506
1030.791, 163.1837
1031.273, 160.4006
1031.755, 157.6479
1032.237, 154.5025
1032.719, 150.9680
1033.201, 147.1329
1033.683, 143.0084
1034.165, 139.3313
1034.647, 137.0666
1035.130, 135.0377
1035.612, 132.3829
1036.094, 129.2793
1036.576, 126.6060
1037.058, 124.3849
1037.540, 122.7715
1038.022, 121.9991
1038.504, 121.4057
1038.987, 119.9662
1039.469, 118.0892
1039.951, 116.4603
1040.433, 115.3859
1040.915, 114.0910
1041.397, 112.0708
1041.879, 110.2223
1042.361, 109.1282
1042.844, 108.6714
1043.326, 107.7727
1043.808, 106.5013
1044.290, 105.4927
1044.772, 105.4060
1045.254, 105.3482
1045.736, 104.7210
1046.218, 103.7309
1046.700, 102.7728
1047.182, 101.7970
1047.665, 101.0995
1048.147, 100.7552
1048.629, 100.5326
1049.111, 100.2072
1049.593, 99.83128
1050.075, 99.48313
1050.557, 99.16869
1051.039, 98.86132
1051.522, 98.53307
1052.004, 98.24104
1052.486, 98.02695
1052.968, 97.84683
1053.450, 97.62078
1053.932, 97.32928
1054.414, 96.80498
1054.896, 95.86172
1055.379, 95.05915
1055.861, 94.90235
1056.343, 94.99557
1056.825, 94.94405
1057.307, 94.70441
1057.789, 94.50354
1058.271, 94.34746
1058.753, 94.19729
1059.235, 93.97971
1059.718, 93.78463
1060.200, 93.77830
1060.682, 93.90579
1061.164, 94.01355
1061.646, 94.11143
1062.128, 94.10883
1062.610, 94.05733
1063.092, 93.81840
1063.574, 92.93710
1064.057, 91.67343
1064.539, 91.35287
1065.021, 92.11138
1065.503, 92.80828
1065.985, 92.78698
1066.467, 92.43247
1066.949, 91.80211
1067.431, 91.02641
1067.914, 90.61470
1068.396, 90.59717
1068.878, 90.62425
1069.360, 90.60786
1069.842, 90.56075
1070.324, 90.48560
1070.806, 90.39381
1071.288, 90.28280
1071.771, 90.09376
1072.253, 90.10397
1072.735, 90.42968
1073.217, 90.70988
1073.699, 90.73888
1074.181, 90.54882
1074.663, 90.05981
1075.145, 89.40527
1075.627, 89.07394
1076.109, 89.66087
1076.592, 90.13610
1077.074, 90.20986
1077.556, 89.99446
1078.038, 89.47604
1078.520, 88.65854
1079.002, 88.26994
1079.484, 88.36416
1079.966, 88.64311
1080.448, 89.07082
1080.931, 89.42237
1081.413, 89.46967
1081.895, 89.25117
1082.377, 89.16663
1082.859, 89.33822
1083.341, 89.10549
1083.823, 88.16577
1084.305, 87.17668
1084.788, 87.05383
1085.270, 87.49151
1085.752, 88.14250
1086.234, 89.04548
1086.716, 89.53953
1087.198, 89.40076
1087.680, 89.04313
1088.162, 88.61177
1088.645, 88.12401
1089.127, 87.48483
1089.609, 86.79836
1090.091, 86.48449
1090.573, 87.05150
1091.055, 87.48515
1091.537, 86.92092
1092.019, 86.31064
1092.501, 86.78758
1092.984, 88.54125
1093.466, 88.91474
1093.948, 87.85712
1094.430, 86.87968
1094.912, 87.32441
1095.394, 88.04359
1095.876, 88.07710
1096.358, 87.59452
1096.840, 87.19724
1097.323, 86.94718
1097.805, 86.64358
1098.287, 86.18725
1098.769, 85.95029
1099.251, 86.73105
1099.733, 87.84277
1100.215, 88.07402
1100.697, 87.32707
1101.180, 86.92545
1101.662, 87.68035
1102.144, 88.07296
1102.626, 87.54697
1103.108, 86.53380
1103.590, 86.00166
1104.072, 85.85676
1104.554, 85.83706
1105.036, 85.87947
1105.519, 86.02274
1106.001, 86.54385
1106.483, 86.92162
1106.965, 86.70533
1107.447, 85.97135
1107.929, 85.95510
1108.411, 86.59589
1108.893, 86.84508
1109.375, 85.72601
1109.858, 84.62781
1110.340, 84.80101
1110.822, 85.58044
1111.304, 86.00907
1111.786, 85.94836
1112.268, 85.86846
1112.750, 85.76540
1113.232, 85.69955
1113.715, 85.71046
1114.197, 85.78927
1114.679, 86.03059
1115.161, 86.34304
1115.643, 86.38940
1116.125, 85.92822
1116.607, 85.51180
1117.089, 85.12442
1117.572, 84.99265
1118.054, 85.66074
1118.536, 86.72010
1119.018, 87.26869
1119.500, 87.23019
1119.982, 87.15121
1120.464, 87.30687
1120.946, 87.36885
1121.428, 87.24028
1121.911, 86.95242
1122.393, 86.35641
1122.875, 85.62343
1123.357, 85.70006
1123.839, 87.05749
1124.321, 87.97925
1124.803, 86.77881
1125.285, 85.42316
1125.767, 85.23860
1126.250, 86.10356
1126.732, 86.96882
1127.214, 87.81894
1127.696, 88.17216
1128.178, 87.45255
1128.660, 86.84672
1129.142, 87.84795
1129.624, 89.26560
1130.107, 89.40836
1130.589, 87.64572
1131.071, 87.69034
1131.553, 89.82505
1132.035, 91.53922
1132.517, 90.60665
1132.999, 88.76975
1133.481, 87.98257
1133.964, 87.92181
1134.446, 87.84752
1134.928, 87.45470
1135.410, 87.44036
1135.892, 87.94035
1136.374, 88.51646
1136.856, 88.74624
1137.338, 88.74498
1137.820, 88.59711
1138.302, 88.36572
1138.785, 88.35332
1139.267, 88.97343
1139.749, 89.39315
1140.231, 89.45266
1140.713, 89.28898
1141.195, 88.92017
1141.677, 88.51552
1142.159, 88.64582
1142.642, 89.39294
1143.124, 90.03606
1143.606, 90.13347
1144.088, 90.17007
1144.570, 90.29975
1145.052, 90.51816
1145.534, 90.89050
1146.016, 91.36282
1146.499, 91.59251
1146.981, 91.44279
1147.463, 91.30143
1147.945, 91.52280
1148.427, 91.71870
1148.909, 91.57031
1149.391, 91.14463
1149.873, 91.01453
1150.355, 91.17411
1150.838, 91.50115
1151.320, 92.00626
1151.802, 92.54607
1152.284, 93.26126
1152.766, 93.77762
1153.248, 93.51318
1153.730, 92.27445
1154.212, 92.27406
1154.694, 93.63410
1155.177, 94.54385
1155.659, 93.43240
1156.141, 91.93764
1156.623, 91.54830
1157.105, 91.92048
1157.587, 92.52488
1158.069, 93.61118
1158.551, 93.91272
1159.034, 93.29759
1159.516, 92.54176
1159.998, 92.12051
1160.480, 92.01035
1160.962, 92.30009
1161.444, 92.88360
1161.926, 93.43004
1162.408, 94.01345
1162.891, 94.28761
1163.373, 94.20074
1163.855, 93.86449
1164.337, 93.28957
1164.819, 92.60177
1165.301, 91.87692
1165.783, 91.18971
1166.265, 90.93631
1166.747, 91.59399
1167.229, 92.03621
1167.712, 92.05827
1168.194, 91.80620
1168.676, 91.24979
1169.158, 90.65536
1169.640, 90.67636
1170.122, 91.38965
1170.604, 91.97716
1171.086, 92.11335
1171.569, 92.17110
1172.051, 92.27664
1172.533, 92.32104
1173.015, 91.87650
1173.497, 91.20560
1173.979, 91.13419
1174.461, 91.95046
1174.943, 92.54928
1175.426, 92.30663
1175.908, 91.97220
1176.390, 91.82408
1176.872, 91.81052
1177.354, 91.80652
1177.836, 91.79080
1178.318, 91.65665
1178.800, 91.28863
1179.282, 91.06031
1179.765, 91.27305
1180.247, 91.55022
1180.729, 91.68505
1181.211, 91.69723
1181.693, 91.67098
1182.175, 91.61869
1182.657, 91.61793
1183.139, 91.82931
1183.621, 91.86606
1184.104, 91.46956
1184.586, 90.87264
1185.068, 90.15356
1185.550, 89.34117
1186.032, 89.06807
1186.514, 89.29432
1186.996, 89.70651
1187.478, 90.47697
1187.961, 90.97839
1188.443, 90.61420
1188.925, 90.01721
1189.407, 89.91531
1189.889, 90.33175
1190.371, 90.36247
1190.853, 89.99987
1191.335, 89.46908
1191.818, 88.63096
1192.300, 87.96533
1192.782, 87.87460
1193.264, 88.06791
1193.746, 88.11376
1194.228, 88.00175
1194.710, 87.99984
1195.192, 88.12312
1195.674, 88.29263
1196.156, 88.55110
1196.639, 88.73776
1197.121, 88.64462
1197.603, 88.44005
1198.085, 88.55359
1198.567, 89.02042
1199.049, 88.97791
1199.531, 88.31866
1200.013, 87.67263
1200.496, 87.50243
1200.978, 87.56042
1201.460, 87.83067
1201.942, 88.16474
1202.424, 88.06680
1202.906, 87.50529
1203.388, 87.40086
1203.870, 87.94038
1204.353, 88.50429
1204.835, 88.57744
1205.317, 88.44920
1205.799, 88.27083
1206.281, 88.08243
1206.763, 88.05639
1207.245, 88.20715
1207.727, 88.05671
1208.209, 87.43665
1208.692, 86.92293
1209.174, 87.24434
1209.656, 87.70291
1210.138, 87.69504
1210.620, 87.28669
1211.102, 86.82301
1211.584, 86.29707
1212.066, 86.14124
1212.548, 86.58306
1213.031, 86.99736
1213.513, 86.62655
1213.995, 86.16657
1214.477, 86.36697
1214.959, 87.11704
1215.441, 87.38047
1215.923, 87.15580
1216.405, 86.73412
1216.888, 86.06990
1217.370, 85.68819
1217.852, 86.45714
1218.334, 87.40243
1218.816, 87.53141
1219.298, 86.88902
1219.780, 86.63628
1220.262, 86.76843
1220.745, 86.90105
1221.227, 86.88327
1221.709, 86.83646
1222.191, 86.83568
1222.673, 86.86584
1223.155, 86.88206
1223.637, 86.88534
1224.119, 87.16206
1224.601, 87.69109
1225.083, 88.08692
1225.566, 88.08826
1226.048, 88.06299
1226.530, 88.46986
1227.012, 88.81367
1227.494, 88.45134
1227.976, 87.38445
1228.458, 87.58629
1228.940, 88.93333
1229.423, 89.63216
1229.905, 88.22892
1230.387, 86.85155
1230.869, 86.83415
1231.351, 87.43640
1231.833, 87.98161
1232.315, 88.46871
1232.797, 88.76924
1233.280, 88.89309
1233.762, 88.95068
1234.244, 88.86594
1234.726, 88.90060
1235.208, 89.43779
1235.690, 89.95371
1236.172, 89.93631
1236.654, 89.40758
1237.136, 88.83772
1237.619, 88.27354
1238.101, 88.00957
1238.583, 88.45082
1239.065, 88.92642
1239.547, 89.24905
1240.029, 89.43230
1240.511, 89.42734
1240.993, 89.26521
1241.475, 89.19926
1241.958, 89.22624
1242.440, 89.30484
1242.922, 89.48367
1243.404, 89.62106
1243.886, 89.74196
1244.368, 89.72620
1244.850, 89.32024
1245.332, 88.66547
1245.815, 88.37839
1246.297, 88.44873
1246.779, 88.73788
1247.261, 89.61571
1247.743, 90.05984
1248.225, 89.74723
1248.707, 89.21211
1249.189, 88.95457
1249.672, 88.91811
1250.154, 88.99329
1250.636, 89.14022
1251.118, 89.20145
1251.600, 88.96262
1252.082, 88.87058
1252.564, 88.98923
1253.046, 89.24039
1253.528, 89.52010
1254.010, 89.87975
1254.493, 90.66308
1254.975, 91.67409
1255.457, 92.04453
1255.939, 91.08247
1256.421, 90.17751
1256.903, 89.34152
1257.385, 88.93396
1257.867, 89.73374
1258.350, 90.92316
1258.832, 91.20760
1259.314, 90.76319
1259.796, 90.54834
1260.278, 90.83799
1260.760, 90.91685
1261.242, 90.67497
1261.724, 90.44217
1262.207, 90.63647
1262.689, 90.92314
1263.171, 90.88734
1263.653, 90.61989
1264.135, 90.48332
1264.617, 90.47875
1265.099, 90.74741
1265.581, 91.34945
1266.063, 91.73753
1266.546, 91.21613
1267.028, 90.48317
1267.510, 90.11901
1267.992, 90.00455
1268.474, 89.72560
1268.956, 89.24107
1269.438, 89.19219
1269.920, 89.63950
1270.402, 90.12603
1270.885, 90.33694
1271.367, 90.44611
1271.849, 90.65130
1272.331, 90.77254
1272.813, 90.39159
1273.295, 89.56194
1273.777, 89.15775
1274.259, 89.22349
1274.742, 89.19791
1275.224, 88.45069
1275.706, 87.89561
1276.188, 87.72855
1276.670, 88.07082
1277.152, 89.75888
1277.634, 92.15055
1278.116, 91.99561
1278.599, 89.40213
1279.081, 87.43568
1279.563, 88.04012
1280.045, 88.65588
1280.527, 88.79208
1281.009, 88.63897
1281.491, 88.34826
1281.973, 87.98009
1282.455, 87.70322
1282.938, 87.49331
1283.420, 87.12534
1283.902, 86.23858
1284.384, 85.78588
1284.866, 85.94151
1285.348, 86.34298
1285.830, 86.83031
1286.312, 87.15782
1286.794, 86.81109
1287.277, 85.96494
1287.759, 85.50823
1288.241, 85.66702
1288.723, 85.55698
1289.205, 85.04124
1289.687, 84.58518
1290.169, 84.56713
1290.651, 84.81322
1291.134, 85.38937
1291.616, 86.05524
1292.098, 86.20477
1292.580, 85.79424
1293.062, 85.27634
1293.544, 84.68515
1294.026, 84.33604
1294.508, 84.70277
1294.990, 85.11279
1295.473, 85.10139
1295.955, 84.94398
1296.437, 85.13374
1296.919, 85.57194
1297.401, 85.21597
1297.883, 84.10240
1298.365, 83.29575
1298.847, 83.68130
1299.329, 84.01463
1299.812, 83.89454
1300.294, 84.18642
1300.776, 83.86790
1301.258, 84.27241
1301.740, 84.34655
1302.222, 84.13669
1302.704, 83.97686
1303.186, 83.91032
1303.669, 84.01096
1304.151, 84.27795
1304.633, 84.71648
##END=



