##NAMES=Spessartine
##RRUFFID=R080053
##IDEAL CHEMISTRY=Mn^2+^_3_Al_2_(SiO_4_)_3_
##LOCALITY=East Africa
##OWNER=RRUFF
##SOURCE=www.multicolour.com
##DESCRIPTION=Transparent orange fragments
##STATUS=The identification of this mineral has been confirmed by X-ray diffraction and chemical analysis
##URL=rruff.info/R080053
##MEASURED CHEMISTRY=(Mn^2+^_1.32_Mg_0.96_Fe^2+^_0.38_Fe^3+^_0.04_Ca_0.30_)Al_2.00_((Si_0.99_Al_0.01_)O_4_)_3_; Fe^2+^ and Fe^3+^ estimated by charge balance
93.74609, 24.36176
94.22821, 24.12069
94.71033, 24.05497
95.19244, 24.23557
95.67456, 24.92162
96.15668, 26.29652
96.63879, 28.26405
97.12091, 30.57232
97.60303, 33.27078
98.08514, 36.17548
98.56726, 38.95732
99.04938, 41.62111
99.53149, 44.43913
100.0136, 47.53040
100.4957, 50.88213
100.9778, 54.33556
101.4600, 57.73528
101.9421, 61.34864
102.4242, 65.82730
102.9063, 71.44187
103.3884, 77.27707
103.8705, 82.67161
104.3527, 87.45582
104.8348, 92.53181
105.3169, 98.20288
105.7990, 104.3069
106.2811, 110.0671
106.7632, 115.2958
107.2454, 120.3224
107.7275, 125.3200
108.2096, 130.4497
108.6917, 135.4050
109.1738, 139.9964
109.6559, 144.1692
110.1381, 148.8662
110.6202, 154.1470
111.1023, 159.9710
111.5844, 166.2991
112.0665, 173.0387
112.5486, 180.4478
113.0308, 188.8080
113.5129, 198.5406
113.9950, 207.9596
114.4771, 216.6739
114.9592, 224.9393
115.4413, 233.2532
115.9235, 241.8088
116.4056, 250.3337
116.8877, 258.6229
117.3698, 266.8702
117.8519, 274.7282
118.3340, 281.8179
118.8162, 288.4100
119.2983, 295.1213
119.7804, 303.1006
120.2625, 310.9358
120.7446, 317.3989
121.2267, 321.6904
121.7089, 325.3847
122.1910, 329.4619
122.6731, 333.7961
123.1552, 337.7989
123.6373, 340.9150
124.1194, 343.5314
124.6016, 346.1827
125.0837, 349.0388
125.5658, 351.9424
126.0479, 354.5274
126.5300, 356.8231
127.0121, 359.4899
127.4943, 363.0772
127.9764, 367.4416
128.4585, 372.3557
128.9406, 377.7238
129.4227, 383.5424
129.9048, 389.9264
130.3869, 396.9364
130.8691, 404.0280
131.3512, 410.6290
131.8333, 415.4128
132.3154, 417.7894
132.7975, 419.6031
133.2796, 421.3309
133.7618, 422.2974
134.2439, 422.3188
134.7260, 422.1819
135.2081, 423.1210
135.6902, 425.1517
136.1723, 427.5866
136.6545, 430.2982
137.1366, 433.2820
137.6187, 435.8526
138.1008, 438.0784
138.5829, 439.8036
139.0650, 440.6214
139.5472, 440.4096
140.0293, 439.7172
140.5114, 438.8042
140.9935, 437.6141
141.4756, 436.2948
141.9577, 434.6915
142.4399, 432.9296
142.9220, 431.6407
143.4041, 430.6876
143.8862, 430.3626
144.3683, 431.0602
144.8504, 433.5177
145.3326, 435.2890
145.8147, 435.8807
146.2968, 435.3733
146.7789, 434.9703
147.2610, 434.4361
147.7431, 434.2281
148.2253, 434.7608
148.7074, 436.4972
149.1895, 438.3358
149.6716, 439.9823
150.1537, 441.3553
150.6358, 443.2602
151.1180, 446.2285
151.6001, 449.4771
152.0822, 452.1459
152.5643, 453.1571
153.0464, 454.6414
153.5285, 457.2951
154.0107, 461.6067
154.4928, 464.9991
154.9749, 466.7360
155.4570, 467.6686
155.9391, 468.8872
156.4212, 470.6685
156.9034, 472.6398
157.3855, 474.7241
157.8676, 476.9443
158.3497, 479.1442
158.8318, 481.5269
159.3139, 483.8768
159.7961, 485.8376
160.2782, 486.5031
160.7603, 487.3853
161.2424, 489.3213
161.7245, 492.9436
162.2066, 496.4656
162.6888, 498.8660
163.1709, 500.7145
163.6530, 503.2715
164.1351, 507.2151
164.6172, 511.8853
165.0993, 516.9449
165.5815, 522.6887
166.0636, 528.1505
166.5457, 532.3016
167.0278, 535.6714
167.5099, 539.9288
167.9921, 545.9592
168.4742, 553.2054
168.9563, 561.1746
169.4384, 569.7366
169.9205, 579.0435
170.4026, 589.5404
170.8848, 601.0353
171.3669, 612.5263
171.8490, 624.1020
172.3311, 635.1394
172.8132, 645.0771
173.2953, 655.2090
173.7775, 662.7489
174.2596, 664.9985
174.7417, 662.2651
175.2238, 656.3087
175.7059, 647.3370
176.1880, 636.2040
176.6702, 624.2483
177.1523, 611.1259
177.6344, 597.9055
178.1165, 585.5916
178.5986, 574.0870
179.0807, 563.8661
179.5629, 555.2833
180.0450, 548.1307
180.5271, 542.0558
181.0092, 536.6364
181.4913, 532.2493
181.9734, 530.1172
182.4556, 530.2924
182.9377, 530.7836
183.4198, 529.2010
183.9019, 526.2001
184.3840, 524.1375
184.8661, 523.8669
185.3483, 525.1387
185.8304, 527.7251
186.3125, 531.7325
186.7946, 536.0673
187.2767, 539.6103
187.7588, 542.4669
188.2409, 545.0122
188.7231, 546.6701
189.2052, 548.0817
189.6873, 552.0652
190.1694, 559.0585
190.6515, 566.7371
191.1336, 571.9754
191.6158, 574.9521
192.0979, 578.0768
192.5800, 582.6139
193.0621, 588.3043
193.5442, 593.5413
194.0263, 598.3429
194.5085, 602.8203
194.9906, 607.0258
195.4727, 610.9570
195.9548, 614.8403
196.4369, 618.7872
196.9190, 622.7766
197.4012, 626.3286
197.8833, 629.1620
198.3654, 632.1650
198.8475, 637.0652
199.3296, 644.0914
199.8117, 650.6791
200.2939, 655.4688
200.7760, 658.4159
201.2581, 661.7161
201.7402, 665.5329
202.2223, 669.4343
202.7044, 672.5939
203.1866, 674.8708
203.6687, 677.0662
204.1508, 679.5497
204.6329, 682.3578
205.1150, 685.1533
205.5971, 688.0166
206.0793, 690.7789
206.5614, 693.1082
207.0435, 694.9476
207.5256, 696.5176
208.0077, 697.8831
208.4898, 699.0276
208.9720, 700.0714
209.4541, 701.0283
209.9362, 701.8604
210.4183, 702.4711
210.9004, 702.8007
211.3825, 703.0345
211.8647, 703.4411
212.3468, 704.2971
212.8289, 703.9164
213.3110, 701.8970
213.7931, 698.8849
214.2752, 696.3859
214.7574, 694.5322
215.2395, 692.8195
215.7216, 691.1068
216.2037, 689.5728
216.6858, 687.4648
217.1679, 684.7726
217.6501, 681.5046
218.1322, 677.6124
218.6143, 672.7339
219.0964, 667.9128
219.5785, 663.7062
220.0606, 660.1798
220.5428, 656.9040
221.0249, 653.9720
221.5070, 651.2563
221.9891, 648.6143
222.4712, 646.2631
222.9533, 643.5175
223.4355, 639.9618
223.9176, 634.9294
224.3997, 630.9109
224.8818, 628.3201
225.3639, 626.5334
225.8460, 623.8919
226.3282, 619.6367
226.8103, 615.8652
227.2924, 613.8231
227.7745, 614.6953
228.2566, 613.9405
228.7387, 610.9982
229.2209, 606.6686
229.7030, 602.7871
230.1851, 599.1327
230.6672, 596.2350
231.1493, 594.5146
231.6314, 594.7595
232.1136, 593.9890
232.5957, 591.6683
233.0778, 588.5650
233.5599, 586.4615
234.0420, 585.9464
234.5241, 585.4701
235.0063, 584.2568
235.4884, 581.6193
235.9705, 580.3612
236.4526, 581.2971
236.9347, 583.2353
237.4168, 583.6769
237.8990, 582.0021
238.3811, 579.8004
238.8632, 577.5430
239.3453, 574.9927
239.8274, 573.1196
240.3095, 572.2390
240.7917, 571.8588
241.2738, 571.0546
241.7559, 569.6878
242.2380, 568.1356
242.7201, 566.4551
243.2022, 564.4576
243.6844, 563.0538
244.1665, 562.7019
244.6486, 562.6771
245.1307, 561.5673
245.6128, 558.3724
246.0949, 555.7910
246.5771, 554.9552
247.0592, 556.5858
247.5413, 557.0106
248.0234, 555.6871
248.5055, 553.5115
248.9876, 551.8391
249.4697, 550.6518
249.9519, 549.9824
250.4340, 550.0809
250.9161, 551.2878
251.3982, 551.4489
251.8803, 550.3006
252.3624, 548.3243
252.8446, 545.9395
253.3267, 542.1679
253.8088, 539.9598
254.2909, 540.7357
254.7730, 545.1407
255.2551, 547.3278
255.7373, 546.3397
256.2194, 544.1085
256.7015, 542.9904
257.1836, 543.4168
257.6657, 543.9587
258.1479, 544.2413
258.6300, 544.2244
259.1121, 544.5104
259.5942, 545.3558
260.0763, 546.1874
260.5584, 546.2941
261.0406, 545.2505
261.5227, 544.5931
262.0048, 544.9128
262.4869, 546.1746
262.9690, 546.3890
263.4511, 545.1283
263.9333, 543.4614
264.4154, 542.4099
264.8975, 542.1644
265.3796, 541.9399
265.8617, 541.4666
266.3438, 540.8355
266.8260, 540.9813
267.3081, 542.1046
267.7902, 543.6588
268.2723, 545.3325
268.7544, 547.3934
269.2365, 548.5974
269.7187, 548.4777
270.2008, 547.3338
270.6829, 546.8256
271.1650, 547.0339
271.6471, 547.6736
272.1292, 548.6235
272.6114, 549.9605
273.0935, 551.1640
273.5756, 552.2305
274.0577, 553.0665
274.5398, 553.2686
275.0219, 552.6552
275.5041, 551.9280
275.9862, 551.6215
276.4683, 551.8184
276.9504, 551.5204
277.4325, 550.2777
277.9146, 548.8046
278.3968, 549.2745
278.8788, 552.1010
279.3610, 554.7711
279.8431, 555.6251
280.3252, 554.5994
280.8073, 553.7975
281.2894, 553.3387
281.7715, 553.1948
282.2537, 553.4075
282.7358, 554.0251
283.2179, 554.6086
283.7000, 554.7958
284.1821, 554.6245
284.6642, 554.9981
285.1464, 556.0497
285.6285, 557.3493
286.1106, 558.3250
286.5927, 558.9667
287.0748, 559.2634
287.5569, 558.7784
288.0391, 557.7498
288.5212, 557.9983
289.0033, 559.6844
289.4854, 561.9076
289.9675, 563.7495
290.4496, 565.2109
290.9318, 566.2071
291.4139, 566.4281
291.8960, 566.2006
292.3781, 566.7294
292.8602, 568.0943
293.3423, 569.5233
293.8245, 569.9074
294.3066, 569.5569
294.7887, 569.9989
295.2708, 572.2002
295.7529, 575.1917
296.2350, 576.9682
296.7172, 577.5215
297.1993, 577.4641
297.6814, 576.5403
298.1635, 575.3297
298.6456, 575.6223
299.1277, 578.3950
299.6099, 582.2444
300.0920, 585.2916
300.5741, 587.5761
301.0562, 589.0008
301.5383, 588.7308
302.0204, 587.6953
302.5026, 587.6774
302.9847, 589.1885
303.4668, 591.4474
303.9489, 593.7655
304.4310, 596.1107
304.9131, 598.5414
305.3953, 601.3613
305.8774, 604.1512
306.3595, 606.0929
306.8416, 606.7892
307.3237, 607.7071
307.8058, 610.1367
308.2880, 613.7476
308.7701, 617.7897
309.2522, 622.3334
309.7343, 626.9291
310.2164, 631.0758
310.6985, 634.7247
311.1807, 638.4525
311.6628, 642.5941
312.1449, 647.1370
312.6270, 651.9224
313.1091, 657.4372
313.5912, 662.8098
314.0734, 667.3992
314.5555, 671.1757
315.0376, 675.0167
315.5197, 679.2648
316.0018, 683.8829
316.4839, 688.7195
316.9661, 694.7083
317.4482, 700.0370
317.9303, 703.6093
318.4124, 705.6360
318.8945, 707.6301
319.3766, 709.8415
319.8588, 712.3857
320.3409, 715.3004
320.8230, 718.3612
321.3051, 722.1077
321.7872, 727.2257
322.2693, 733.2324
322.7515, 738.6541
323.2336, 742.0327
323.7157, 745.5778
324.1978, 750.3336
324.6799, 756.4406
325.1620, 763.6324
325.6442, 772.7069
326.1263, 782.7390
326.6084, 792.0872
327.0905, 799.4007
327.5726, 807.0994
328.0547, 815.8815
328.5369, 825.7401
329.0190, 836.5815
329.5011, 849.3671
329.9832, 862.6415
330.4653, 874.6927
330.9474, 884.2770
331.4296, 894.2037
331.9117, 905.2166
332.3938, 917.3495
332.8759, 928.9902
333.3580, 940.2416
333.8401, 951.0683
334.3223, 961.2360
334.8044, 970.3417
335.2865, 979.8005
335.7686, 989.8792
336.2507, 1000.470
336.7328, 1010.158
337.2150, 1017.933
337.6971, 1026.713
338.1792, 1038.839
338.6613, 1055.306
339.1434, 1070.451
339.6255, 1083.416
340.1077, 1095.277
340.5898, 1108.732
341.0719, 1123.530
341.5540, 1139.939
342.0361, 1158.027
342.5182, 1177.902
343.0004, 1198.649
343.4825, 1220.015
343.9646, 1242.493
344.4467, 1266.146
344.9288, 1290.665
345.4109, 1317.786
345.8931, 1347.912
346.3752, 1381.075
346.8573, 1416.003
347.3394, 1452.955
347.8215, 1492.156
348.3036, 1533.318
348.7858, 1576.795
349.2679, 1624.585
349.7500, 1677.836
350.2321, 1734.928
350.7142, 1792.651
351.1964, 1850.669
351.6785, 1908.696
352.1606, 1967.363
352.6427, 2024.969
353.1248, 2079.823
353.6069, 2132.982
354.0891, 2181.144
354.5712, 2223.493
355.0533, 2258.504
355.5354, 2282.375
356.0175, 2292.653
356.4996, 2290.538
356.9818, 2277.297
357.4639, 2253.019
357.9460, 2217.954
358.4281, 2169.272
358.9102, 2110.380
359.3923, 2047.000
359.8745, 1977.017
360.3566, 1906.342
360.8387, 1838.568
361.3208, 1773.489
361.8029, 1711.443
362.2850, 1651.801
362.7672, 1595.644
363.2493, 1543.899
363.7314, 1497.821
364.2135, 1454.761
364.6956, 1413.401
365.1777, 1374.474
365.6599, 1340.878
366.1420, 1316.501
366.6241, 1295.081
367.1062, 1273.903
367.5883, 1251.956
368.0704, 1231.534
368.5526, 1212.293
369.0347, 1194.901
369.5168, 1180.059
369.9989, 1169.324
370.4810, 1159.532
370.9631, 1150.373
371.4453, 1142.097
371.9274, 1132.324
372.4095, 1120.279
372.8916, 1107.499
373.3737, 1095.215
373.8558, 1083.744
374.3380, 1072.049
374.8201, 1059.716
375.3022, 1046.916
375.7843, 1035.128
376.2664, 1024.794
376.7485, 1014.319
377.2307, 1002.810
377.7128, 990.1526
378.1949, 976.8568
378.6770, 963.0068
379.1591, 948.6467
379.6412, 934.0559
380.1234, 919.0740
380.6055, 904.2751
381.0876, 889.8308
381.5697, 875.8058
382.0518, 862.1847
382.5339, 849.1190
383.0161, 836.2167
383.4982, 823.2249
383.9803, 810.0868
384.4624, 797.1542
384.9445, 784.3787
385.4266, 772.0025
385.9088, 760.2980
386.3909, 749.2859
386.8730, 738.7783
387.3551, 728.7608
387.8372, 719.0296
388.3193, 709.0599
388.8015, 698.5920
389.2836, 688.3940
389.7657, 679.1266
390.2478, 670.6432
390.7299, 662.8215
391.2120, 656.0508
391.6942, 649.6024
392.1763, 643.0131
392.6584, 636.3135
393.1405, 629.4305
393.6226, 621.5124
394.1047, 613.6990
394.5869, 607.3146
395.0690, 604.0967
395.5511, 601.0540
396.0332, 597.2130
396.5153, 592.6558
396.9974, 587.8641
397.4796, 582.4525
397.9617, 577.2098
398.4438, 572.5488
398.9259, 568.5598
399.4080, 565.0709
399.8901, 562.3842
400.3723, 560.1383
400.8544, 557.6727
401.3365, 554.1659
401.8186, 551.4074
402.3007, 550.2489
402.7828, 551.0315
403.2649, 550.2965
403.7470, 547.1191
404.2292, 543.4009
404.7113, 540.8558
405.1934, 539.6852
405.6755, 539.1169
406.1576, 539.3947
406.6397, 540.0862
407.1219, 539.3427
407.6040, 536.6992
408.0861, 534.3997
408.5682, 534.4335
409.0503, 536.7288
409.5324, 536.5226
410.0146, 533.0812
410.4967, 528.6414
410.9788, 526.4663
411.4609, 526.3710
411.9430, 526.3862
412.4251, 525.6834
412.9073, 524.6183
413.3894, 524.1017
413.8715, 524.1172
414.3536, 523.9107
414.8357, 522.7389
415.3178, 520.9285
415.8000, 519.0048
416.2821, 516.8050
416.7642, 515.0528
417.2463, 514.9542
417.7284, 515.9163
418.2105, 516.3602
418.6927, 515.0882
419.1748, 513.2559
419.6569, 511.5949
420.1390, 510.1411
420.6211, 509.1205
421.1032, 508.9602
421.5854, 509.1398
422.0675, 509.0939
422.5496, 508.5030
423.0317, 507.8485
423.5138, 507.0874
423.9959, 506.3030
424.4781, 505.9489
424.9602, 506.6665
425.4423, 507.3942
425.9244, 507.5523
426.4065, 506.4051
426.8886, 506.0744
427.3708, 507.3279
427.8529, 509.0616
428.3350, 509.4713
428.8171, 507.7348
429.2992, 506.1552
429.7813, 505.2691
430.2635, 505.0666
430.7456, 505.3952
431.2277, 506.5694
431.7098, 507.5828
432.1919, 507.4173
432.6740, 505.9501
433.1562, 504.8543
433.6383, 504.3177
434.1204, 504.2812
434.6025, 504.8014
435.0846, 505.8637
435.5667, 506.8522
436.0489, 507.6274
436.5310, 508.0887
437.0131, 507.7430
437.4952, 506.5308
437.9773, 505.2772
438.4594, 505.0309
438.9416, 505.3254
439.4237, 505.0852
439.9058, 503.3673
440.3879, 501.7613
440.8700, 502.1626
441.3521, 504.0704
441.8343, 505.7097
442.3164, 505.9865
442.7985, 505.6977
443.2806, 505.3522
443.7627, 504.9513
444.2448, 504.8143
444.7270, 505.0202
445.2091, 505.5734
445.6912, 506.4812
446.1733, 508.4875
446.6554, 510.0688
447.1375, 510.4487
447.6197, 509.7679
448.1018, 509.7387
448.5839, 511.0358
449.0660, 512.5380
449.5481, 513.7397
450.0302, 514.6411
450.5124, 515.2342
450.9945, 515.2741
451.4766, 515.1784
451.9587, 515.6691
452.4408, 516.9680
452.9229, 518.2526
453.4051, 519.1703
453.8872, 519.8399
454.3693, 521.4822
454.8514, 524.3260
455.3335, 527.1881
455.8156, 529.2196
456.2978, 530.4374
456.7799, 530.8809
457.2620, 530.2057
457.7441, 529.6380
458.2262, 531.4604
458.7083, 535.1713
459.1905, 538.5991
459.6726, 540.2222
460.1547, 541.0832
460.6368, 542.6971
461.1189, 545.0661
461.6010, 547.3995
462.0832, 548.9984
462.5653, 550.3143
463.0474, 551.8215
463.5295, 553.6483
464.0116, 555.7291
464.4937, 558.2647
464.9759, 561.0339
465.4580, 563.4962
465.9401, 565.0524
466.4222, 566.6728
466.9043, 568.7805
467.3864, 571.4681
467.8686, 574.1806
468.3507, 576.6945
468.8328, 579.3164
469.3149, 582.2718
469.7970, 585.7729
470.2791, 589.1902
470.7613, 592.1285
471.2434, 595.0167
471.7255, 599.2140
472.2076, 605.3338
472.6897, 611.1790
473.1718, 615.6160
473.6540, 618.6236
474.1361, 623.4418
474.6182, 630.3904
475.1003, 637.9972
475.5824, 644.6132
476.0645, 650.4324
476.5467, 656.9061
477.0288, 664.5314
477.5109, 672.6957
477.9930, 680.7487
478.4751, 688.5881
478.9572, 695.7115
479.4394, 702.1243
479.9215, 707.5391
480.4036, 711.6677
480.8857, 714.5235
481.3678, 715.6729
481.8499, 715.0880
482.3321, 712.5039
482.8142, 707.5397
483.2963, 698.3041
483.7784, 688.9433
484.2605, 681.2192
484.7426, 674.6276
485.2248, 667.9823
485.7069, 660.5204
486.1890, 653.4975
486.6711, 647.1389
487.1532, 641.2634
487.6353, 637.2418
488.1175, 636.0876
488.5996, 636.0082
489.0817, 635.5611
489.5638, 634.3061
490.0459, 633.7526
490.5280, 633.9633
491.0102, 635.0023
491.4923, 637.2203
491.9744, 640.8183
492.4565, 644.6383
492.9386, 648.1016
493.4207, 651.3640
493.9029, 655.0934
494.3850, 659.2405
494.8671, 664.6288
495.3492, 672.4168
495.8313, 682.1354
496.3134, 692.6403
496.7956, 703.8578
497.2777, 715.3541
497.7598, 725.8584
498.2419, 736.1453
498.7240, 747.8381
499.2061, 761.8941
499.6883, 777.7138
500.1704, 795.4161
500.6525, 814.9428
501.1346, 834.3958
501.6167, 854.3098
502.0988, 873.2695
502.5810, 890.3051
503.0631, 906.0516
503.5452, 918.9972
504.0273, 929.6409
504.5094, 937.1295
504.9915, 939.7101
505.4737, 937.0404
505.9558, 929.8939
506.4379, 917.8360
506.9200, 901.0439
507.4021, 882.7055
507.8842, 862.1847
508.3664, 841.0342
508.8485, 819.5564
509.3306, 797.7087
509.8127, 777.6078
510.2948, 759.4651
510.7769, 743.0342
511.2591, 728.3451
511.7412, 715.3087
512.2233, 703.8179
512.7054, 693.7513
513.1875, 685.1235
513.6696, 678.2528
514.1517, 672.9837
514.6339, 668.4448
515.1160, 664.1974
515.5981, 660.3717
516.0802, 656.9728
516.5623, 653.9523
517.0444, 651.6658
517.5266, 650.8947
518.0087, 650.6992
518.4908, 650.0538
518.9729, 648.2496
519.4550, 646.5029
519.9371, 644.7580
520.4193, 643.2042
520.9014, 642.6410
521.3835, 643.6162
521.8656, 644.8795
522.3477, 646.0859
522.8298, 647.2795
523.3120, 648.0277
523.7941, 648.1908
524.2762, 648.1650
524.7583, 648.1748
525.2404, 648.2032
525.7225, 648.9324
526.2047, 650.7443
526.6868, 652.7712
527.1689, 653.0539
527.6510, 651.9113
528.1331, 651.3851
528.6152, 653.1414
529.0974, 655.7678
529.5795, 657.3433
530.0616, 657.9000
530.5437, 657.9442
531.0258, 656.8680
531.5079, 655.9615
531.9901, 656.5864
532.4722, 659.5320
532.9543, 662.5570
533.4364, 664.4184
533.9185, 665.9796
534.4006, 668.4464
534.8828, 672.3788
535.3649, 676.8751
535.8470, 681.5005
536.3291, 686.4444
536.8112, 692.6261
537.2933, 700.7238
537.7755, 708.9639
538.2576, 716.2298
538.7397, 722.3029
539.2218, 729.7885
539.7039, 738.8089
540.1860, 748.6195
540.6682, 758.1378
541.1503, 767.4105
541.6324, 777.6552
542.1145, 789.3255
542.5966, 801.5253
543.0787, 812.4924
543.5609, 822.6776
544.0430, 833.7469
544.5251, 846.5457
545.0072, 860.6700
545.4893, 875.6486
545.9714, 891.4631
546.4536, 908.0510
546.9357, 925.2127
547.4178, 943.2326
547.8999, 962.3038
548.3820, 982.4153
548.8641, 1003.656
549.3463, 1026.100
549.8284, 1049.648
550.3105, 1074.169
550.7926, 1099.343
551.2747, 1125.897
551.7568, 1155.017
552.2390, 1185.840
552.7211, 1215.625
553.2032, 1244.946
553.6853, 1271.502
554.1674, 1294.211
554.6495, 1313.147
555.1317, 1329.856
555.6138, 1344.381
556.0959, 1354.374
556.5780, 1358.022
557.0601, 1355.285
557.5422, 1345.879
558.0244, 1329.525
558.5065, 1307.052
558.9886, 1277.517
559.4707, 1242.631
559.9528, 1206.556
560.4349, 1170.227
560.9171, 1133.510
561.3992, 1096.138
561.8813, 1058.041
562.3634, 1020.190
562.8455, 980.0541
563.3276, 942.1332
563.8098, 908.2664
564.2919, 879.0710
564.7740, 852.6676
565.2561, 829.7731
565.7382, 808.9532
566.2203, 788.3699
566.7025, 767.3334
567.1846, 749.0251
567.6667, 733.9587
568.1488, 721.1584
568.6309, 708.9329
569.1130, 697.2066
569.5952, 686.5290
570.0773, 677.3074
570.5594, 669.1462
571.0415, 660.7491
571.5236, 652.1928
572.0057, 644.4818
572.4879, 638.3366
572.9700, 633.2635
573.4521, 628.8574
573.9342, 625.1019
574.4163, 621.5549
574.8984, 617.9714
575.3806, 614.5165
575.8627, 611.3156
576.3448, 608.5158
576.8269, 605.8586
577.3090, 602.9554
577.7911, 600.1998
578.2733, 598.6299
578.7554, 599.2563
579.2375, 599.0334
579.7196, 596.6766
580.2017, 592.5032
580.6838, 589.6766
581.1660, 588.3165
581.6481, 587.5955
582.1302, 587.0753
582.6123, 586.7327
583.0944, 586.6014
583.5765, 586.7438
584.0587, 586.6198
584.5408, 585.4194
585.0229, 583.6400
585.5050, 582.1458
585.9871, 581.3641
586.4692, 580.6660
586.9514, 579.7365
587.4335, 578.6006
587.9156, 577.3254
588.3977, 574.9695
588.8798, 573.4234
589.3619, 574.0098
589.8441, 576.6875
590.3262, 577.5247
590.8083, 575.1491
591.2904, 572.7011
591.7725, 571.8701
592.2546, 573.0340
592.7368, 573.5128
593.2189, 573.1403
593.7010, 572.5079
594.1831, 572.3317
594.6652, 572.5380
595.1473, 572.4911
595.6295, 572.0007
596.1116, 571.3882
596.5937, 570.8578
597.0758, 570.5356
597.5579, 570.7574
598.0400, 572.5800
598.5222, 574.2482
599.0043, 574.2574
599.4864, 572.8995
599.9685, 571.6696
600.4506, 570.7270
600.9327, 570.3831
601.4149, 571.0192
601.8970, 573.0400
602.3791, 574.3855
602.8612, 575.0706
603.3433, 575.0578
603.8254, 574.1791
604.3076, 572.1312
604.7897, 570.4337
605.2718, 569.2874
605.7539, 568.3174
606.2360, 566.8467
606.7181, 564.9281
607.2003, 563.3332
607.6824, 562.4047
608.1645, 561.7805
608.6466, 560.9320
609.1287, 559.8997
609.6108, 558.8607
610.0930, 557.7457
610.5751, 556.7843
611.0572, 556.0640
611.5393, 555.6011
612.0214, 555.5931
612.5035, 556.6093
612.9857, 557.7234
613.4678, 558.3715
613.9499, 558.3309
614.4320, 558.1358
614.9141, 557.3513
615.3962, 556.8035
615.8784, 557.5121
616.3605, 559.8175
616.8426, 561.8846
617.3247, 563.4582
617.8068, 564.6766
618.2889, 565.3934
618.7711, 565.7531
619.2532, 566.9645
619.7353, 570.1301
620.2174, 573.9992
620.6995, 576.6107
621.1816, 578.2175
621.6638, 579.9838
622.1459, 582.6301
622.6280, 585.6817
623.1101, 588.8055
623.5922, 591.9584
624.0743, 595.3542
624.5565, 599.0903
625.0386, 603.0766
625.5207, 607.1983
626.0028, 611.3486
626.4849, 615.8284
626.9670, 620.5295
627.4492, 625.7323
627.9313, 632.0972
628.4134, 639.8109
628.8955, 646.8648
629.3776, 652.5518
629.8597, 657.7381
630.3419, 664.0726
630.8240, 671.4037
631.3061, 679.0231
631.7882, 686.4539
632.2703, 694.0897
632.7524, 703.2669
633.2346, 713.3602
633.7167, 721.5963
634.1988, 725.5087
634.6809, 727.9451
635.1630, 730.4926
635.6451, 733.4221
636.1273, 735.7296
636.6094, 738.4271
637.0915, 739.5218
637.5736, 737.5753
638.0557, 731.7377
638.5378, 725.4633
639.0200, 718.9381
639.5021, 711.6918
639.9842, 702.5729
640.4663, 691.8068
640.9484, 681.7299
641.4305, 673.0495
641.9127, 665.1268
642.3948, 656.9425
642.8769, 648.7266
643.3590, 640.9108
643.8411, 633.5604
644.3232, 626.8123
644.8054, 620.5079
645.2875, 614.8282
645.7696, 610.0605
646.2517, 607.1212
646.7338, 604.4386
647.2159, 601.4843
647.6981, 598.2482
648.1802, 594.4994
648.6623, 589.7822
649.1444, 585.2042
649.6265, 581.3317
650.1086, 578.1202
650.5908, 576.2380
651.0729, 576.0118
651.5550, 575.7830
652.0371, 573.2394
652.5192, 569.1170
653.0013, 565.7531
653.4835, 563.7960
653.9656, 562.3434
654.4477, 560.7282
654.9298, 559.0674
655.4119, 557.5316
655.8940, 555.8555
656.3762, 554.6708
656.8583, 554.8113
657.3404, 555.7198
657.8225, 555.3050
658.3046, 552.0759
658.7867, 549.5931
659.2689, 549.2697
659.7510, 550.7686
660.2331, 550.5756
660.7152, 548.3738
661.1973, 546.0613
661.6794, 544.8943
662.1616, 544.5990
662.6437, 544.3741
663.1258, 544.2075
663.6079, 543.5160
664.0900, 541.0545
664.5721, 538.1495
665.0543, 536.5396
665.5364, 536.9013
666.0185, 537.2244
666.5006, 536.4148
666.9827, 535.2488
667.4648, 534.5309
667.9470, 534.6053
668.4291, 534.9062
668.9112, 535.8082
669.3933, 536.6947
669.8754, 536.1461
670.3575, 533.6931
670.8397, 532.3240
671.3218, 533.1529
671.8039, 535.1439
672.2860, 535.9459
672.7681, 535.6472
673.2502, 534.9476
673.7324, 533.7762
674.2145, 532.6547
674.6966, 532.0645
675.1787, 532.0164
675.6608, 532.5822
676.1429, 535.2360
676.6251, 537.3153
677.1072, 536.7667
677.5893, 532.7589
678.0714, 530.8602
678.5535, 532.8700
679.0356, 535.2202
679.5178, 535.6249
679.9999, 533.6247
680.4820, 531.9932
680.9641, 530.7121
681.4462, 529.8754
681.9283, 529.4803
682.4105, 529.5939
682.8926, 530.6982
683.3747, 533.2189
683.8568, 535.5961
684.3389, 536.5466
684.8210, 536.3336
685.3032, 535.3539
685.7853, 532.2597
686.2674, 530.1838
686.7495, 531.0388
687.2316, 533.5797
687.7137, 534.9142
688.1959, 534.0886
688.6780, 533.3137
689.1601, 533.0724
689.6422, 533.1904
690.1243, 532.8517
690.6064, 531.9402
691.0886, 531.4358
691.5707, 532.1133
692.0528, 533.4205
692.5349, 533.7746
693.0170, 533.3138
693.4991, 533.2089
693.9813, 535.0632
694.4634, 537.0895
694.9455, 537.2865
695.4276, 535.4328
695.9097, 534.2219
696.3918, 535.1594
696.8740, 536.5618
697.3561, 537.4130
697.8382, 537.5709
698.3203, 537.4823
698.8024, 536.9379
699.2845, 536.4489
699.7667, 536.4850
700.2488, 537.0367
700.7309, 538.0579
701.2130, 539.7038
701.6951, 541.1445
702.1772, 541.1078
702.6594, 540.1259
703.1415, 539.2971
703.6236, 538.7013
704.1057, 538.8002
704.5878, 540.6783
705.0699, 543.2756
705.5521, 544.8771
706.0342, 543.9542
706.5163, 543.3318
706.9984, 543.5295
707.4805, 544.3472
707.9626, 545.4368
708.4448, 547.0500
708.9269, 548.0241
709.4090, 547.8174
709.8911, 546.8088
710.3732, 545.9185
710.8553, 545.1731
711.3374, 544.9113
711.8195, 545.5803
712.3016, 546.6688
712.7838, 547.6519
713.2659, 548.5255
713.7480, 549.4035
714.2301, 550.9645
714.7122, 552.0184
715.1943, 551.6975
715.6765, 549.6819
716.1586, 548.2973
716.6407, 547.8184
717.1228, 547.5887
717.6049, 547.1617
718.0870, 546.4791
718.5692, 546.4288
719.0513, 547.1482
719.5334, 547.6615
720.0155, 546.3009
720.4976, 544.1720
720.9797, 543.9980
721.4619, 546.4295
721.9440, 549.0729
722.4261, 550.7049
722.9082, 551.3409
723.3903, 550.8660
723.8724, 548.0005
724.3546, 546.2161
724.8367, 546.6220
725.3188, 547.9811
725.8009, 549.1371
726.2830, 550.3068
726.7651, 550.3301
727.2473, 548.6840
727.7294, 546.4934
728.2115, 545.5865
728.6936, 545.8368
729.1757, 546.7296
729.6578, 548.6160
730.1400, 550.2337
730.6221, 549.8240
731.1042, 548.2066
731.5863, 547.0949
732.0684, 547.4721
732.5505, 548.1331
733.0327, 548.7635
733.5148, 549.3702
733.9969, 549.9562
734.4790, 550.4000
734.9611, 551.1165
735.4432, 552.4717
735.9254, 554.1319
736.4075, 554.3959
736.8896, 553.2641
737.3717, 552.4307
737.8538, 553.2221
738.3359, 554.7040
738.8181, 555.4977
739.3002, 555.6559
739.7823, 555.5870
740.2644, 554.9150
740.7465, 554.5667
741.2286, 555.5159
741.7108, 557.9173
742.1929, 558.9440
742.6750, 557.4636
743.1571, 555.8894
743.6392, 555.3439
744.1213, 555.8582
744.6035, 556.9376
745.0856, 558.7758
745.5677, 559.9698
746.0498, 558.3942
746.5319, 555.5312
747.0140, 555.0109
747.4962, 557.2179
747.9783, 559.2280
748.4604, 558.4684
748.9425, 556.9743
749.4246, 556.6368
749.9067, 558.2429
750.3889, 559.4386
750.8710, 559.5944
751.3531, 559.5323
751.8352, 559.9496
752.3173, 561.0709
752.7994, 561.4294
753.2816, 560.6902
753.7637, 560.0057
754.2458, 561.2482
754.7279, 563.6447
755.2100, 564.7549
755.6921, 563.9268
756.1743, 562.5004
756.6564, 561.0251
757.1385, 559.8232
757.6206, 559.3286
758.1027, 560.4454
758.5848, 561.0812
759.0670, 560.3906
759.5491, 559.3732
760.0312, 559.2900
760.5133, 560.4921
760.9954, 561.3936
761.4775, 561.7599
761.9597, 561.8099
762.4418, 561.7104
762.9239, 561.5593
763.4060, 561.8400
763.8881, 562.9905
764.3702, 564.0569
764.8524, 563.5784
765.3345, 562.4939
765.8166, 562.4362
766.2987, 565.3359
766.7808, 567.6136
767.2629, 567.9647
767.7451, 567.2944
768.2272, 567.3802
768.7093, 568.4564
769.1914, 569.5567
769.6735, 570.6257
770.1556, 571.3820
770.6378, 570.9899
771.1199, 569.6433
771.6020, 568.2969
772.0841, 567.0441
772.5662, 566.3129
773.0483, 566.7941
773.5305, 568.1146
774.0126, 569.3129
774.4947, 569.9278
774.9768, 570.5347
775.4589, 571.2369
775.9410, 572.0587
776.4232, 573.1895
776.9053, 574.8571
777.3874, 576.0250
777.8695, 576.1900
778.3516, 575.7285
778.8337, 575.5565
779.3159, 575.6696
779.7980, 576.0497
780.2801, 576.6841
780.7622, 577.5826
781.2443, 578.8469
781.7264, 580.4043
782.2086, 581.9399
782.6907, 584.0079
783.1728, 585.3130
783.6549, 585.1442
784.1370, 583.8019
784.6191, 583.0491
785.1013, 582.9320
785.5834, 583.2596
786.0655, 584.0910
786.5476, 585.2615
787.0297, 586.2748
787.5118, 587.1672
787.9940, 588.0665
788.4761, 589.2406
788.9582, 590.3251
789.4403, 590.8099
789.9224, 590.8120
790.4045, 591.2877
790.8867, 593.0386
791.3688, 594.6811
791.8509, 595.6492
792.3330, 596.0299
792.8151, 596.7288
793.2972, 597.8049
793.7794, 598.8222
794.2615, 599.3044
794.7436, 599.6237
795.2257, 600.8391
795.7078, 602.8351
796.1899, 604.8062
796.6721, 606.4141
797.1542, 607.7572
797.6363, 608.8256
798.1184, 609.6524
798.6005, 610.5414
799.0826, 611.4833
799.5648, 612.5663
800.0469, 613.7715
800.5290, 615.1249
801.0111, 617.0582
801.4932, 619.6051
801.9753, 622.1680
802.4575, 624.0859
802.9396, 625.8994
803.4217, 628.7867
803.9038, 632.5703
804.3859, 635.9787
804.8680, 638.4521
805.3502, 640.2433
805.8323, 640.8482
806.3144, 640.2723
806.7965, 642.0034
807.2786, 647.3051
807.7607, 652.4777
808.2429, 655.8268
808.7250, 657.6414
809.2071, 659.4824
809.6892, 661.3690
810.1713, 663.7518
810.6534, 667.4596
811.1356, 671.4554
811.6177, 674.7861
812.0998, 677.3946
812.5819, 679.1240
813.0640, 678.8160
813.5461, 678.7072
814.0283, 679.8101
814.5104, 682.0634
814.9925, 684.7157
815.4746, 687.9785
815.9567, 691.0004
816.4388, 693.2635
816.9210, 695.0176
817.4031, 697.1240
817.8852, 699.5245
818.3673, 701.7994
818.8494, 703.9758
819.3315, 705.6653
819.8137, 705.9500
820.2958, 705.1472
820.7779, 705.6330
821.2600, 709.5460
821.7421, 712.9064
822.2242, 714.2923
822.7064, 714.1199
823.1885, 714.8052
823.6706, 716.4223
824.1527, 717.9037
824.6348, 718.5018
825.1169, 718.7819
825.5991, 719.7948
826.0812, 721.3856
826.5633, 722.9938
827.0454, 723.8084
827.5275, 725.1140
828.0096, 727.7978
828.4918, 731.6359
828.9739, 735.2352
829.4560, 738.5410
829.9381, 741.5809
830.4202, 744.0432
830.9023, 746.4368
831.3845, 750.5836
831.8666, 756.2621
832.3487, 762.1134
832.8308, 767.4827
833.3129, 772.6689
833.7950, 777.5235
834.2772, 782.4179
834.7593, 788.2818
835.2414, 796.1613
835.7235, 804.2402
836.2056, 811.8771
836.6877, 819.5123
837.1699, 828.1451
837.6520, 837.7530
838.1341, 847.9579
838.6162, 858.8987
839.0983, 870.1364
839.5804, 880.6667
840.0626, 890.9203
840.5447, 901.9947
841.0268, 914.5032
841.5089, 927.9002
841.9910, 942.8023
842.4731, 958.3309
842.9553, 972.6752
843.4374, 984.1281
843.9195, 997.8488
844.4016, 1015.072
844.8837, 1034.154
845.3658, 1051.770
845.8480, 1068.350
846.3301, 1086.162
846.8122, 1106.097
847.2943, 1126.603
847.7764, 1146.662
848.2585, 1166.288
848.7407, 1185.193
849.2228, 1202.663
849.7049, 1220.701
850.1870, 1240.500
850.6691, 1260.223
851.1512, 1278.256
851.6334, 1294.755
852.1155, 1308.142
852.5976, 1318.120
853.0797, 1324.995
853.5618, 1328.988
854.0439, 1330.215
854.5261, 1328.985
855.0082, 1325.485
855.4903, 1318.922
855.9724, 1307.531
856.4545, 1293.736
856.9366, 1279.708
857.4188, 1266.005
857.9009, 1250.409
858.3830, 1232.816
858.8651, 1214.065
859.3472, 1194.256
859.8293, 1173.911
860.3115, 1154.535
860.7936, 1136.075
861.2757, 1119.460
861.7578, 1105.870
862.2399, 1093.827
862.7220, 1081.982
863.2042, 1070.251
863.6863, 1059.061
864.1684, 1048.701
864.6505, 1038.661
865.1326, 1028.335
865.6147, 1017.879
866.0969, 1010.909
866.5790, 1007.359
867.0611, 1004.649
867.5432, 1001.198
868.0253, 997.5153
868.5074, 993.4789
868.9896, 989.4353
869.4717, 987.3737
869.9538, 989.9504
870.4359, 992.4885
870.9180, 992.8918
871.4001, 991.8831
871.8823, 993.0299
872.3644, 996.5399
872.8465, 1000.725
873.3286, 1005.259
873.8107, 1009.802
874.2928, 1012.837
874.7750, 1015.346
875.2571, 1020.001
875.7392, 1030.565
876.2213, 1040.743
876.7034, 1046.584
877.1855, 1050.547
877.6677, 1058.028
878.1498, 1070.200
878.6319, 1082.550
879.1140, 1094.368
879.5961, 1105.865
880.0782, 1117.313
880.5604, 1128.887
881.0425, 1141.226
881.5246, 1154.663
882.0067, 1168.431
882.4888, 1181.265
882.9709, 1194.463
883.4531, 1209.795
883.9352, 1229.718
884.4173, 1247.673
884.8994, 1262.810
885.3815, 1277.410
885.8636, 1293.592
886.3458, 1311.213
886.8279, 1328.896
887.3100, 1346.373
887.7921, 1363.994
888.2742, 1381.273
888.7563, 1399.342
889.2385, 1418.992
889.7206, 1440.400
890.2027, 1463.601
890.6848, 1488.146
891.1669, 1514.702
891.6490, 1543.132
892.1312, 1573.590
892.6133, 1606.471
893.0954, 1641.508
893.5775, 1681.118
894.0596, 1727.897
894.5417, 1779.198
895.0239, 1833.269
895.5060, 1890.471
895.9881, 1951.261
896.4702, 2013.367
896.9523, 2083.037
897.4344, 2162.900
897.9166, 2252.045
898.3987, 2343.140
898.8808, 2436.993
899.3629, 2537.395
899.8450, 2646.683
900.3271, 2763.148
900.8093, 2886.117
901.2914, 3015.913
901.7735, 3154.106
902.2556, 3302.417
902.7377, 3457.520
903.2198, 3616.984
903.7020, 3782.122
904.1841, 3956.725
904.6662, 4140.458
905.1483, 4331.157
905.6304, 4531.630
906.1125, 4736.492
906.5947, 4943.569
907.0768, 5153.624
907.5589, 5367.367
908.0410, 5586.347
908.5231, 5793.372
909.0052, 5981.930
909.4874, 6151.083
909.9695, 6306.575
910.4516, 6451.196
910.9337, 6557.879
911.4158, 6626.144
911.8979, 6655.577
912.3801, 6645.245
912.8622, 6595.993
913.3443, 6509.061
913.8264, 6384.719
914.3085, 6228.617
914.7906, 6035.289
915.2728, 5819.278
915.7549, 5579.789
916.2370, 5322.098
916.7191, 5065.065
917.2012, 4809.495
917.6833, 4559.519
918.1655, 4315.202
918.6476, 4079.321
919.1297, 3856.653
919.6118, 3646.756
920.0939, 3448.420
920.5760, 3259.453
921.0582, 3084.171
921.5403, 2923.830
922.0224, 2777.794
922.5045, 2641.684
922.9866, 2515.800
923.4688, 2398.126
923.9509, 2288.373
924.4330, 2186.536
924.9151, 2096.902
925.3972, 2016.336
925.8793, 1939.419
926.3615, 1865.195
926.8436, 1795.214
927.3257, 1729.358
927.8078, 1667.747
928.2899, 1611.690
928.7720, 1561.270
929.2542, 1513.125
929.7363, 1467.053
930.2184, 1423.610
930.7005, 1382.562
931.1826, 1343.967
931.6647, 1308.867
932.1469, 1276.964
932.6290, 1247.097
933.1111, 1219.257
933.5932, 1192.359
934.0753, 1164.894
934.5574, 1137.815
935.0396, 1114.161
935.5217, 1094.423
936.0038, 1075.775
936.4859, 1057.453
936.9680, 1039.708
937.4501, 1023.213
937.9323, 1007.400
938.4144, 991.0508
938.8965, 972.9756
939.3786, 956.6337
939.8607, 944.8434
940.3428, 935.0172
940.8250, 924.9648
941.3071, 914.3690
941.7892, 904.9375
942.2713, 896.9494
942.7534, 889.2170
943.2355, 880.4662
943.7177, 871.3533
944.1998, 863.0227
944.6819, 855.4856
945.1640, 848.1086
945.6461, 840.0977
946.1282, 832.7594
946.6104, 827.0555
947.0925, 822.5466
947.5746, 817.5742
948.0567, 811.9847
948.5388, 806.9398
949.0209, 803.1345
949.5031, 799.4932
949.9852, 794.0066
950.4673, 787.4010
950.9494, 781.2498
951.4315, 775.6905
951.9136, 771.1937
952.3958, 768.9143
952.8779, 767.1143
953.3600, 763.9877
953.8421, 759.1998
954.3242, 755.5897
954.8063, 753.4031
955.2885, 751.7951
955.7706, 750.4423
956.2527, 748.9657
956.7348, 746.7009
957.2169, 743.6127
957.6990, 740.6356
958.1811, 737.7484
958.6632, 735.4250
959.1453, 734.0034
959.6274, 733.2381
960.1096, 731.6969
960.5917, 729.3730
961.0738, 727.4510
961.5559, 726.7776
962.0380, 726.2264
962.5201, 724.2362
963.0023, 721.5212
963.4844, 719.3516
963.9665, 718.7943
964.4486, 717.7917
964.9307, 716.0163
965.4128, 713.9357
965.8950, 711.8530
966.3771, 709.8644
966.8592, 709.0556
967.3413, 709.5991
967.8234, 710.3201
968.3055, 710.7861
968.7877, 710.6048
969.2698, 709.0706
969.7519, 706.0098
970.2340, 703.8425
970.7161, 702.7512
971.1982, 702.4039
971.6804, 702.9272
972.1625, 703.9423
972.6446, 704.3762
973.1267, 704.2416
973.6088, 703.5889
974.0909, 701.5150
974.5731, 700.0506
975.0552, 701.1246
975.5373, 703.2657
976.0194, 703.9336
976.5015, 702.4249
976.9836, 701.1359
977.4658, 700.2463
977.9479, 699.6179
978.4300, 699.2297
978.9121, 698.9658
979.3942, 698.6259
979.8763, 698.1862
980.3585, 697.4918
980.8406, 696.1315
981.3227, 694.8177
981.8048, 694.0674
982.2869, 693.7744
982.7690, 692.6965
983.2512, 690.7551
983.7333, 688.7982
984.2154, 687.2050
984.6975, 685.7900
985.1796, 684.4926
985.6617, 683.1302
986.1439, 681.3488
986.6260, 677.9926
987.1081, 675.7042
987.5902, 675.2800
988.0723, 675.5667
988.5544, 675.3533
989.0366, 674.6629
989.5187, 673.8361
990.0008, 672.9031
990.4829, 671.7599
990.9650, 669.4600
991.4471, 667.5136
991.9293, 667.7480
992.4114, 670.2924
992.8935, 671.6213
993.3756, 671.0280
993.8577, 670.2010
994.3398, 669.6088
994.8220, 669.2799
995.3041, 669.3287
995.7862, 669.7227
996.2683, 670.3931
996.7504, 671.5910
997.2325, 672.5765
997.7147, 672.7903
998.1968, 672.6625
998.6789, 672.6240
999.1610, 672.3765
999.6431, 673.6021
1000.125, 676.6549
1000.607, 679.5825
1001.089, 680.4104
1001.572, 680.0134
1002.054, 679.3479
1002.536, 678.6161
1003.018, 678.8814
1003.500, 681.4730
1003.982, 684.1129
1004.464, 686.0833
1004.946, 687.5452
1005.429, 688.7454
1005.911, 689.7211
1006.393, 691.2498
1006.875, 693.7651
1007.357, 696.4075
1007.839, 698.2527
1008.321, 699.8431
1008.803, 701.9222
1009.285, 705.0056
1009.768, 707.5750
1010.250, 709.3805
1010.732, 711.1989
1011.214, 713.7236
1011.696, 716.7203
1012.178, 719.3655
1012.660, 721.6089
1013.142, 723.2664
1013.625, 723.4849
1014.107, 723.8423
1014.589, 724.8911
1015.071, 726.7155
1015.553, 729.7684
1016.035, 734.4410
1016.517, 737.7910
1016.999, 738.9807
1017.481, 739.9096
1017.964, 743.1649
1018.446, 747.5097
1018.928, 751.1280
1019.410, 753.5294
1019.892, 756.4130
1020.374, 760.5883
1020.856, 764.7206
1021.338, 768.1490
1021.820, 771.0201
1022.303, 773.9260
1022.785, 776.9172
1023.267, 780.3231
1023.749, 784.7780
1024.231, 789.1564
1024.713, 792.2026
1025.195, 794.8202
1025.677, 798.7113
1026.160, 804.4564
1026.642, 809.8148
1027.124, 814.5704
1027.606, 819.2227
1028.088, 824.0837
1028.570, 829.2853
1029.052, 835.3645
1029.534, 842.2659
1030.016, 849.1026
1030.499, 855.2742
1030.981, 861.5967
1031.463, 868.5121
1031.945, 875.7786
1032.427, 882.4441
1032.909, 888.5067
1033.391, 895.2148
1033.873, 903.3109
1034.356, 911.0162
1034.838, 916.4378
1035.320, 920.7847
1035.802, 925.4083
1036.284, 930.6555
1036.766, 936.0346
1037.248, 941.8242
1037.730, 946.9811
1038.213, 950.9117
1038.695, 953.6090
1039.177, 954.6758
1039.659, 954.3401
1040.141, 953.4576
1040.623, 952.6551
1041.105, 951.0994
1041.587, 948.5548
1042.069, 945.1013
1042.552, 940.6116
1043.034, 935.0812
1043.516, 929.4800
1043.998, 923.9791
1044.480, 917.3073
1044.962, 907.0751
1045.444, 895.7682
1045.926, 885.8580
1046.408, 877.5793
1046.891, 868.7089
1047.373, 859.0517
1047.855, 849.1503
1048.337, 839.3375
1048.819, 829.2657
1049.301, 817.5740
1049.783, 805.1203
1050.265, 793.8785
1050.748, 785.1889
1051.230, 776.6733
1051.712, 767.4339
1052.194, 758.1282
1052.676, 749.0670
1053.158, 740.1458
1053.640, 731.9678
1054.122, 724.5274
1054.604, 718.0301
1055.087, 712.7932
1055.569, 708.3902
1056.051, 705.2445
1056.533, 702.6152
1057.015, 697.8895
1057.497, 689.3373
1057.979, 683.1809
1058.461, 680.8154
1058.943, 679.7057
1059.426, 676.7703
1059.908, 672.6411
1060.390, 668.2545
1060.872, 663.7104
1061.354, 659.6892
1061.836, 656.7389
1062.318, 654.1307
1062.800, 651.4968
1063.283, 648.9930
1063.765, 647.4000
1064.247, 646.5826
1064.729, 645.3779
1065.211, 642.8784
1065.693, 640.8750
1066.175, 641.6937
1066.657, 643.2173
1067.140, 642.7318
1067.622, 639.4132
1068.104, 637.2402
1068.586, 636.3970
1069.068, 635.8759
1069.550, 635.1875
1070.032, 634.2607
1070.514, 632.6430
1070.996, 630.6675
1071.479, 629.3651
1071.961, 629.8047
1072.443, 629.9814
1072.925, 629.7324
1073.407, 628.9714
1073.889, 627.0956
1074.371, 624.5641
1074.853, 623.3996
1075.335, 623.8439
1075.818, 624.1252
1076.300, 622.7339
1076.782, 621.2650
1077.264, 620.8234
1077.746, 621.1058
1078.228, 620.7943
1078.710, 619.8725
1079.192, 618.7509
1079.675, 617.3749
1080.157, 616.3558
1080.639, 616.8685
1081.121, 617.8467
1081.603, 617.8373
1082.085, 616.0720
1082.567, 615.3815
1083.049, 616.2438
1083.531, 616.8776
1084.014, 615.9210
1084.496, 614.2435
1084.978, 613.8660
1085.460, 614.4865
1085.942, 615.2281
1086.424, 616.2488
1086.906, 616.6577
1087.388, 615.9141
1087.870, 614.9359
1088.353, 614.9700
1088.835, 615.8082
1089.317, 614.9550
1089.799, 612.3867
1090.281, 610.2021
1090.763, 609.8772
1091.245, 610.2883
1091.727, 611.1832
1092.209, 612.2236
1092.692, 612.3835
1093.174, 611.4677
1093.656, 611.1962
1094.138, 611.9718
1094.620, 613.0033
1095.102, 613.6864
1095.584, 613.9913
1096.066, 613.7054
1096.549, 612.7418
1097.031, 612.3793
1097.513, 613.1127
1097.995, 613.3639
1098.477, 612.3640
1098.959, 610.7782
1099.441, 609.6990
1099.923, 609.1651
1100.406, 609.3730
1100.888, 611.1375
1101.370, 611.7431
1101.852, 608.9393
1102.334, 606.5940
1102.816, 607.9310
1103.298, 612.1821
1103.780, 612.5361
1104.262, 609.5396
1104.745, 607.1250
1105.227, 607.9367
1105.709, 609.2572
1106.191, 610.0715
1106.673, 610.3568
1107.155, 610.0114
1107.637, 608.9034
1108.119, 608.2966
1108.601, 608.2932
1109.084, 608.1640
1109.566, 606.8561
1110.048, 605.5130
1110.530, 605.5313
1111.012, 604.7392
1111.494, 604.1544
1111.976, 604.6722
1112.458, 603.7816
1112.941, 604.5332
1113.423, 605.8250
1113.905, 606.4763
1114.387, 606.5987
1114.869, 606.2432
1115.351, 605.3870
1115.833, 604.7537
1116.315, 604.8528
1116.797, 604.5472
1117.280, 603.1205
1117.762, 601.4034
1118.244, 601.7141
1118.726, 603.4184
1119.208, 604.6979
1119.690, 604.9752
1120.172, 604.9596
1120.654, 604.2328
1121.136, 604.0398
1121.619, 605.5225
1122.101, 608.3680
1122.583, 609.2195
1123.065, 608.2609
1123.547, 607.1136
1124.029, 606.2053
1124.511, 605.8290
1124.993, 606.9765
1125.476, 608.2960
1125.958, 607.8994
1126.440, 605.2783
1126.922, 603.7418
1127.404, 603.3450
1127.886, 603.6899
1128.368, 605.2294
1128.850, 606.7380
1129.333, 606.8403
1129.815, 605.9586
1130.297, 605.4206
1130.779, 605.3878
1131.261, 605.5182
1131.743, 605.8220
1132.225, 606.1305
1132.707, 606.5646
1133.189, 606.7256
1133.672, 605.6932
1134.154, 603.6069
1134.636, 602.3405
1135.118, 602.6812
1135.600, 603.0624
1136.082, 602.9664
1136.564, 603.1251
1137.046, 605.6481
1137.528, 609.1502
1138.011, 610.2248
1138.493, 608.1270
1138.975, 606.0389
1139.457, 604.3599
1139.939, 603.9422
1140.421, 605.6218
1140.903, 608.4494
1141.385, 609.7938
1141.868, 609.8565
1142.350, 609.3602
1142.832, 608.1999
1143.314, 607.5058
1143.796, 607.9075
1144.278, 608.9950
1144.760, 610.7753
1145.242, 613.0944
1145.724, 613.7185
1146.207, 612.8210
1146.689, 612.0253
1147.171, 612.0501
1147.653, 612.4781
1148.135, 613.5331
1148.617, 614.5390
1149.099, 614.6273
1149.581, 613.5524
1150.063, 613.2852
1150.546, 613.8456
1151.028, 614.5928
1151.510, 615.3417
1151.992, 615.8543
1152.474, 615.5590
1152.956, 614.9753
1153.438, 615.1982
1153.920, 616.4384
1154.403, 617.8950
1154.885, 619.5859
1155.367, 621.0107
1155.849, 621.5176
1156.331, 621.6190
1156.813, 621.7377
1157.295, 621.9346
1157.777, 622.3685
1158.260, 622.8835
1158.742, 624.2053
1159.224, 626.7745
1159.706, 628.9496
1160.188, 627.8879
1160.670, 625.6814
1161.152, 625.7381
1161.634, 628.1652
1162.116, 629.6561
1162.599, 629.0560
1163.081, 628.6857
1163.563, 629.2064
1164.045, 629.9446
1164.527, 629.6135
1165.009, 628.7745
1165.491, 628.6566
1165.973, 629.5488
1166.455, 629.9373
1166.938, 628.6865
1167.420, 628.0837
1167.902, 629.1583
1168.384, 631.0330
1168.866, 631.5623
1169.348, 631.2304
1169.830, 631.5239
1170.312, 633.1718
1170.795, 633.8854
1171.277, 631.6365
1171.759, 629.7395
1172.241, 629.8633
1172.723, 631.4525
1173.205, 632.5931
1173.687, 633.3531
1174.169, 634.0203
1174.651, 634.6281
1175.134, 635.3305
1175.616, 636.8945
1176.098, 637.8785
1176.580, 637.0690
1177.062, 634.7724
1177.544, 633.0791
1178.026, 632.0715
1178.508, 632.2363
1178.990, 634.6640
1179.473, 637.1273
1179.955, 639.3303
1180.437, 640.5633
1180.919, 639.7878
1181.401, 637.0490
1181.883, 635.4310
1182.365, 634.8689
1182.847, 634.6434
1183.330, 634.5132
1183.812, 634.4119
1184.294, 634.2053
1184.776, 634.0948
1185.258, 634.4642
1185.740, 635.3433
1186.222, 635.5807
1186.704, 635.1448
1187.187, 634.4627
1187.669, 633.2148
1188.151, 632.4363
1188.633, 633.1838
1189.115, 634.6858
1189.597, 635.7815
1190.079, 636.4945
1190.561, 635.6584
1191.043, 633.0939
1191.526, 631.0736
1192.008, 631.7187
1192.490, 633.2083
1192.972, 634.7896
1193.454, 636.1072
1193.936, 636.1513
1194.418, 634.7804
1194.900, 634.4040
1195.382, 635.4530
1195.865, 636.5568
1196.347, 636.8835
1196.829, 636.5260
1197.311, 635.0158
1197.793, 632.8732
1198.275, 632.2553
1198.757, 633.3262
1199.239, 633.7859
1199.722, 633.1147
1200.204, 632.2205
1200.686, 631.4633
1201.168, 631.2094
1201.650, 632.3531
1202.132, 634.4893
1202.614, 634.4966
1203.096, 632.1456
1203.578, 631.2394
1204.061, 633.1317
1204.543, 635.1557
1205.025, 634.5184
1205.507, 632.9725
1205.989, 632.0067
1206.471, 631.6857
1206.953, 632.2344
1207.435, 633.7465
1207.917, 634.3466
1208.400, 633.1549
1208.882, 631.6901
1209.364, 631.2923
1209.846, 631.4673
1210.328, 631.9852
1210.810, 632.8020
1211.292, 632.4387
1211.774, 630.8145
1212.257, 629.6945
1212.739, 629.9451
1213.221, 630.5006
1213.703, 630.7258
1214.185, 630.4841
1214.667, 629.3896
1215.149, 627.4070
1215.631, 626.2174
1216.114, 625.8239
1216.596, 626.1777
1217.078, 627.7668
1217.560, 629.1483
1218.042, 628.5048
1218.524, 627.3200
1219.006, 627.4332
1219.488, 628.9990
1219.970, 630.0062
1220.453, 630.4364
1220.935, 630.5920
1221.417, 630.5026
1221.899, 630.3636
1222.381, 630.3332
1222.863, 630.3297
1223.345, 630.2256
1223.827, 629.9861
1224.309, 630.0253
1224.792, 630.3433
1225.274, 630.5341
1225.756, 630.1976
1226.238, 629.8909
1226.720, 630.3455
1227.202, 630.8494
1227.684, 630.4793
1228.166, 629.1225
1228.649, 627.9241
1229.131, 626.9050
1229.613, 626.6041
1230.095, 628.3168
1230.577, 629.7545
1231.059, 628.9043
1231.541, 627.3699
1232.023, 627.2139
1232.505, 628.5240
1232.988, 629.4495
1233.470, 629.9363
1233.952, 629.5215
1234.434, 626.3818
1234.916, 624.0214
1235.398, 625.3907
1235.880, 627.8796
1236.362, 628.5475
1236.844, 627.4504
1237.327, 626.6735
1237.809, 626.2519
1238.291, 625.9454
1238.773, 625.1890
1239.255, 625.0446
1239.737, 626.5955
1240.219, 628.5204
1240.701, 629.3890
1241.184, 629.3312
1241.666, 629.5198
1242.148, 629.9786
1242.630, 630.5377
1243.112, 631.6485
1243.594, 632.0740
1244.076, 630.7810
1244.558, 629.3934
1245.041, 630.1165
1245.523, 632.3634
1246.005, 633.2466
1246.487, 632.8278
1246.969, 632.5438
1247.451, 633.3963
1247.933, 633.9512
1248.415, 633.5818
1248.897, 633.2645
1249.380, 634.2996
1249.862, 636.2615
1250.344, 637.9777
1250.826, 639.3539
1251.308, 640.2919
1251.790, 640.2673
1252.272, 640.5115
1252.754, 641.4171
1253.236, 642.2010
1253.719, 641.6526
1254.201, 640.4730
1254.683, 639.9662
1255.165, 640.1699
1255.647, 640.9041
1256.129, 643.0178
1256.611, 644.0412
1257.093, 643.5641
1257.576, 642.4254
1258.058, 640.9730
1258.540, 639.7797
1259.022, 639.9713
1259.504, 641.2802
1259.986, 642.2475
1260.468, 642.4060
1260.950, 643.0575
1261.432, 644.4136
1261.915, 645.8937
1262.397, 647.4547
1262.879, 648.4319
1263.361, 647.3529
1263.843, 645.0029
1264.325, 644.5276
1264.807, 646.6542
1265.289, 647.6215
1265.771, 646.9261
1266.254, 646.2472
1266.736, 647.5946
1267.218, 649.0926
1267.700, 648.8799
1268.182, 649.3863
1268.664, 649.2740
1269.146, 648.4290
1269.628, 648.2335
1270.111, 646.5699
1270.593, 645.4437
1271.075, 647.2620
1271.557, 649.1332
1272.039, 648.7538
1272.521, 647.4952
1273.003, 647.6854
1273.485, 649.1620
1273.968, 649.7646
1274.450, 649.3511
1274.932, 648.8397
1275.414, 648.8255
1275.896, 648.7267
1276.378, 648.1566
1276.860, 647.5585
1277.342, 647.5057
1277.824, 647.9488
1278.307, 648.8710
1278.789, 650.1910
1279.271, 651.3093
1279.753, 652.1402
1280.235, 652.4288
1280.717, 652.0341
1281.199, 651.3303
1281.681, 650.7283
1282.163, 650.1607
1282.646, 649.1310
1283.128, 647.8788
1283.610, 647.7410
1284.092, 650.0224
1284.574, 651.5854
1285.056, 652.0496
1285.538, 651.9299
1286.020, 651.5478
1286.503, 651.0260
1286.985, 650.3497
1287.467, 649.6673
1287.949, 649.5666
1288.431, 650.4181
1288.913, 650.3253
1289.395, 648.9821
1289.877, 648.0248
1290.359, 649.3788
1290.842, 651.2308
1291.324, 652.4727
1291.806, 652.8777
1292.288, 652.0587
1292.770, 649.8827
1293.252, 648.0193
1293.734, 646.6017
1294.216, 646.1938
1294.698, 648.1127
1295.181, 650.0884
1295.663, 650.8391
1296.145, 651.0077
1296.627, 651.3870
1297.109, 651.8495
1297.591, 651.0099
1298.073, 649.0732
1298.555, 647.7190
1299.038, 648.1234
1299.520, 648.8459
1300.002, 649.8226
1300.484, 650.7864
1300.966, 650.9076
1301.448, 650.5053
1301.930, 651.0217
1302.412, 652.2424
1302.895, 653.2473
1303.377, 653.5985
1303.859, 653.8425
1304.341, 653.8168
1304.823, 653.4141
1305.305, 651.5115
##END=



