##NAMES=Spessartine
##RRUFFID=R060451
##IDEAL CHEMISTRY=Mn^2+^_3_Al_2_(SiO_4_)_3_
##LOCALITY=unknown
##OWNER=RRUFF
##SOURCE=Gemological Institute of America
##DESCRIPTION=Reddish orange fragment
##STATUS=The identification of this mineral has been confirmed by X-ray diffraction and chemical analysis
##URL=rruff.info/R060451
##MEASURED CHEMISTRY=(Mn_1.26_Mg_0.98_Fe^2+^_0.39_Ca_0.37_)_Î£=3_Al_2.00_(Si_1.00_O_4_)_3_; trace amounts of Ti
92.35352, 1.529912
92.83563, 1.508071
93.31775, 1.498808
93.79987, 1.506895
94.28198, 1.528197
94.76410, 1.545460
95.24622, 1.540682
95.72833, 1.544983
96.21045, 1.641413
96.69257, 1.835292
97.17468, 2.042442
97.65680, 2.177977
98.13892, 2.244139
98.62103, 2.325536
99.10315, 2.462378
99.58527, 2.637569
100.0674, 2.697893
100.5495, 2.598092
101.0316, 2.481873
101.5137, 2.528006
101.9958, 2.763566
102.4780, 3.069794
102.9601, 3.442252
103.4422, 3.910541
103.9243, 4.230253
104.4064, 4.315252
104.8885, 4.308236
105.3707, 4.484671
105.8528, 4.973618
106.3349, 5.463017
106.8170, 5.829573
107.2991, 5.994482
107.7813, 6.186148
108.2634, 6.425681
108.7455, 6.696089
109.2276, 6.931674
109.7097, 7.150907
110.1918, 7.323380
110.6740, 7.436646
111.1561, 7.214821
111.6382, 7.243234
112.1203, 7.700407
112.6024, 8.513640
113.0845, 9.216093
113.5667, 9.568089
114.0488, 9.874354
114.5309, 10.34491
115.0130, 11.32584
115.4951, 12.18756
115.9772, 12.70309
116.4594, 12.88199
116.9415, 13.03096
117.4236, 13.21839
117.9057, 13.44979
118.3878, 13.72979
118.8699, 14.18283
119.3521, 14.59752
119.8342, 14.79503
120.3163, 14.73787
120.7984, 14.76036
121.2805, 15.07778
121.7626, 15.61206
122.2448, 16.22972
122.7269, 17.17597
123.2090, 18.02667
123.6911, 18.26346
124.1732, 17.71747
124.6553, 17.03636
125.1375, 16.72734
125.6196, 16.75527
126.1017, 17.00886
126.5838, 17.54595
127.0659, 18.24739
127.5480, 18.92306
128.0302, 19.57876
128.5123, 20.14071
128.9944, 20.45082
129.4765, 20.53132
129.9586, 20.59019
130.4407, 20.75159
130.9229, 21.00939
131.4050, 21.35688
131.8871, 21.82713
132.3692, 22.34604
132.8513, 22.70368
133.3334, 22.84992
133.8156, 22.89664
134.2977, 23.04951
134.7798, 23.38012
135.2619, 23.69306
135.7440, 23.95872
136.2261, 24.17291
136.7083, 24.30033
137.1904, 24.30738
137.6725, 24.33694
138.1546, 24.58590
138.6367, 25.11460
139.1188, 25.53247
139.6010, 25.73742
140.0831, 25.73036
140.5652, 25.67658
141.0473, 25.59712
141.5294, 25.44519
142.0115, 25.11475
142.4937, 24.45704
142.9758, 23.95750
143.4579, 23.75578
143.9400, 23.88302
144.4221, 24.16797
144.9042, 24.73941
145.3864, 25.39364
145.8685, 25.76285
146.3506, 25.70710
146.8327, 25.56567
147.3148, 25.43973
147.7969, 25.32963
148.2791, 25.23522
148.7612, 25.15641
149.2433, 25.09339
149.7254, 25.04309
150.2075, 24.85500
150.6896, 24.80967
151.1718, 25.02340
151.6539, 25.80083
152.1360, 26.39118
152.6181, 26.68267
153.1002, 26.76406
153.5823, 26.89821
154.0645, 27.08716
154.5466, 27.34513
155.0287, 27.68281
155.5108, 28.33158
155.9929, 28.78893
156.4750, 28.86261
156.9572, 28.64676
157.4393, 28.52125
157.9214, 28.50257
158.4035, 28.63457
158.8856, 28.94338
159.3677, 29.63872
159.8499, 30.30814
160.3320, 30.77061
160.8141, 31.07009
161.2962, 31.47769
161.7783, 32.32896
162.2604, 33.21399
162.7426, 33.79480
163.2247, 33.55798
163.7068, 33.35953
164.1889, 33.61954
164.6710, 34.31252
165.1531, 35.06413
165.6353, 35.70585
166.1174, 36.30459
166.5995, 36.93235
167.0816, 37.53563
167.5637, 38.23346
168.0458, 39.12428
168.5280, 40.20066
169.0101, 41.36322
169.4922, 42.61865
169.9743, 43.89627
170.4564, 45.08954
170.9385, 46.06574
171.4207, 46.99226
171.9028, 47.97290
172.3849, 49.00233
172.8670, 50.18975
173.3491, 52.04766
173.8312, 54.12380
174.3134, 55.55568
174.7955, 55.84777
175.2776, 55.32478
175.7597, 54.24415
176.2418, 52.56797
176.7239, 50.66352
177.2061, 48.67583
177.6882, 46.66625
178.1703, 44.83955
178.6524, 43.33937
179.1345, 42.04942
179.6166, 40.76660
180.0988, 39.44226
180.5809, 38.25171
181.0630, 37.38145
181.5451, 36.80293
182.0272, 36.44014
182.5093, 36.40477
182.9915, 36.54486
183.4736, 36.43963
183.9557, 36.00085
184.4378, 35.53050
184.9199, 35.43151
185.4020, 35.67412
185.8842, 36.04010
186.3663, 36.42317
186.8484, 36.83537
187.3305, 37.34032
187.8126, 37.98846
188.2947, 38.62506
188.7769, 38.93207
189.2590, 38.92762
189.7411, 38.98582
190.2232, 39.38578
190.7053, 40.06727
191.1874, 40.64616
191.6696, 41.08506
192.1517, 41.43591
192.6338, 41.72681
193.1159, 41.94935
193.5980, 42.33083
194.0801, 43.16517
194.5623, 44.39758
195.0444, 45.26871
195.5265, 45.65444
196.0086, 45.71762
196.4907, 45.67052
196.9728, 45.46756
197.4550, 45.52882
197.9371, 46.29588
198.4192, 47.78547
198.9013, 48.88906
199.3834, 49.46175
199.8655, 49.64662
200.3477, 49.67392
200.8298, 49.45833
201.3119, 49.48031
201.7940, 50.27195
202.2761, 51.96280
202.7582, 52.89339
203.2404, 52.70177
203.7225, 51.82421
204.2046, 51.48510
204.6867, 51.79352
205.1688, 52.26655
205.6509, 52.62360
206.1331, 52.85548
206.6152, 53.05545
207.0973, 53.25179
207.5794, 53.41133
208.0615, 53.39320
208.5436, 53.12256
209.0258, 52.87102
209.5079, 52.85389
209.9900, 53.15491
210.4721, 53.28563
210.9542, 53.16199
211.4363, 52.85657
211.9185, 52.60984
212.4006, 52.43164
212.8827, 52.28823
213.3648, 52.20042
213.8469, 52.23591
214.3290, 52.06349
214.8112, 51.59295
215.2933, 50.91174
215.7754, 50.29111
216.2575, 49.68665
216.7396, 49.22426
217.2217, 49.05797
217.7038, 49.39186
218.1860, 49.37271
218.6681, 48.80757
219.1502, 47.87093
219.6323, 47.21949
220.1144, 46.97301
220.5965, 46.81668
221.0787, 46.60398
221.5608, 46.38465
222.0429, 45.95438
222.5250, 45.17262
223.0071, 44.18496
223.4892, 43.59413
223.9714, 43.62153
224.4535, 43.68905
224.9356, 43.45904
225.4177, 42.76099
225.8998, 42.17149
226.3819, 41.68779
226.8641, 41.33274
227.3462, 41.25299
227.8283, 41.69194
228.3104, 42.03472
228.7925, 41.91509
229.2746, 41.01855
229.7568, 40.37361
230.2389, 40.09978
230.7210, 40.08121
231.2031, 39.95849
231.6852, 39.68367
232.1673, 39.37593
232.6495, 39.09566
233.1316, 38.86401
233.6137, 38.60503
234.0958, 38.27035
234.5779, 37.91991
235.0600, 37.72553
235.5422, 37.70144
236.0243, 37.81072
236.5064, 38.07605
236.9885, 38.68478
237.4706, 39.03323
237.9527, 39.07980
238.4349, 38.87250
238.9170, 38.46967
239.3991, 37.57804
239.8812, 36.93070
240.3633, 36.94584
240.8454, 38.16982
241.3276, 38.66138
241.8097, 38.05941
242.2918, 36.85280
242.7739, 36.12384
243.2560, 36.10379
243.7381, 36.20559
244.2203, 36.24019
244.7024, 36.25301
245.1845, 36.04854
245.6666, 35.47303
246.1487, 34.75466
246.6308, 34.33019
247.1130, 34.31907
247.5951, 34.40753
248.0772, 34.49684
248.5593, 34.58920
249.0414, 34.68032
249.5235, 34.79552
250.0057, 34.89300
250.4878, 34.91056
250.9699, 34.85820
251.4520, 34.70253
251.9341, 34.38683
252.4162, 33.83471
252.8984, 33.50651
253.3805, 33.50212
253.8626, 33.64463
254.3447, 33.67120
254.8268, 33.52825
255.3089, 33.38393
255.7911, 33.32213
256.2732, 33.37678
256.7553, 33.19374
257.2374, 32.60149
257.7195, 31.93974
258.2017, 31.63967
258.6838, 31.82267
259.1659, 32.09044
259.6480, 32.38657
260.1301, 32.71454
260.6122, 32.91972
261.0944, 33.00054
261.5765, 32.96015
262.0586, 32.76069
262.5407, 32.29894
263.0228, 31.96788
263.5049, 31.87683
263.9871, 32.01633
264.4692, 32.17323
264.9513, 32.38121
265.4334, 32.55549
265.9155, 32.60202
266.3976, 32.47412
266.8798, 32.37669
267.3619, 32.36359
267.8440, 32.41798
268.3261, 32.39624
268.8082, 32.27158
269.2903, 32.12728
269.7725, 32.01805
270.2546, 31.93661
270.7367, 31.93719
271.2188, 32.06508
271.7009, 32.27400
272.1830, 32.35828
272.6652, 32.28403
273.1473, 32.17564
273.6294, 32.11095
274.1115, 32.09344
274.5936, 32.08998
275.0757, 32.06852
275.5579, 32.07787
276.0400, 32.34592
276.5221, 32.97555
277.0042, 33.44712
277.4863, 33.32252
277.9684, 32.53570
278.4506, 32.08963
278.9327, 32.12107
279.4148, 32.43848
279.8969, 32.68066
280.3790, 32.85253
280.8611, 32.91692
281.3433, 32.75291
281.8254, 32.36430
282.3075, 32.29689
282.7896, 32.62431
283.2717, 33.14573
283.7538, 33.61643
284.2360, 34.04248
284.7181, 34.27125
285.2002, 34.13020
285.6823, 33.67370
286.1644, 33.39955
286.6465, 33.32735
287.1287, 33.37367
287.6108, 33.46268
288.0929, 33.59145
288.5750, 33.70872
289.0571, 33.77256
289.5392, 33.80923
290.0214, 33.95809
290.5035, 34.23615
290.9856, 34.48278
291.4677, 34.45104
291.9498, 34.19760
292.4319, 34.08014
292.9141, 34.25835
293.3962, 34.61318
293.8783, 34.90392
294.3604, 35.12969
294.8425, 35.25652
295.3246, 35.19033
295.8068, 34.99033
296.2889, 34.85174
296.7710, 34.81499
297.2531, 34.86770
297.7352, 34.99332
298.2173, 35.19039
298.6995, 35.45633
299.1816, 35.89188
299.6637, 36.38589
300.1458, 36.65939
300.6279, 36.59101
301.1100, 36.45016
301.5922, 36.61546
302.0743, 37.01709
302.5564, 37.37280
303.0385, 37.48286
303.5206, 37.45581
304.0027, 37.43392
304.4849, 37.42554
304.9670, 37.46147
305.4491, 37.49432
305.9312, 37.58764
306.4133, 37.89408
306.8954, 38.79082
307.3776, 39.77818
307.8597, 40.23073
308.3418, 40.06411
308.8239, 39.95510
309.3060, 40.58309
309.7881, 41.57623
310.2703, 42.32695
310.7524, 42.12403
311.2345, 41.94042
311.7166, 42.66547
312.1987, 44.27258
312.6808, 45.69785
313.1630, 46.13586
313.6451, 46.16485
314.1272, 46.41212
314.6093, 47.34995
315.0914, 48.29525
315.5735, 48.87914
316.0557, 49.15730
316.5378, 49.42677
317.0199, 49.82998
317.5020, 50.26200
317.9841, 50.63441
318.4662, 50.76049
318.9484, 51.06590
319.4305, 51.79780
319.9126, 52.82582
320.3947, 53.80724
320.8768, 54.74187
321.3589, 55.53041
321.8411, 56.08847
322.3232, 56.27373
322.8053, 56.53957
323.2874, 56.96858
323.7695, 57.53024
324.2516, 58.17631
324.7338, 58.68543
325.2159, 59.47390
325.6980, 60.77116
326.1801, 62.74626
326.6622, 64.52328
327.1443, 65.88276
327.6265, 67.09751
328.1086, 68.44582
328.5907, 69.88836
329.0728, 71.50230
329.5549, 73.46381
330.0370, 75.78802
330.5192, 77.61270
331.0013, 78.52203
331.4834, 79.29881
331.9655, 80.50622
332.4476, 82.44920
332.9297, 84.30716
333.4119, 85.97027
333.8940, 87.48524
334.3761, 89.05266
334.8582, 90.72562
335.3403, 92.31139
335.8224, 93.61584
336.3046, 94.36614
336.7867, 95.71947
337.2688, 97.96943
337.7509, 100.6332
338.2330, 102.6746
338.7151, 103.8000
339.1973, 105.1863
339.6794, 107.4509
340.1615, 110.6320
340.6436, 113.3430
341.1257, 115.3736
341.6078, 117.3359
342.0899, 120.1101
342.5721, 123.7091
343.0542, 127.3111
343.5363, 130.5920
344.0184, 133.6544
344.5005, 136.9829
344.9826, 140.5409
345.4648, 144.4389
345.9469, 148.6300
346.4290, 153.2045
346.9111, 158.4246
347.3932, 164.4887
347.8753, 171.0731
348.3575, 177.4500
348.8396, 183.6121
349.3217, 189.8672
349.8038, 196.1435
350.2859, 202.6182
350.7680, 209.8892
351.2502, 218.1898
351.7323, 226.6398
352.2144, 234.3253
352.6965, 241.3825
353.1786, 247.9969
353.6607, 254.4258
354.1429, 260.4087
354.6250, 265.9188
355.1071, 270.9869
355.5892, 274.6137
356.0713, 275.9209
356.5534, 275.3224
357.0356, 273.4258
357.5177, 270.5328
357.9998, 266.3429
358.4819, 260.5673
358.9640, 253.2852
359.4461, 245.0264
359.9283, 235.1550
360.4104, 224.9104
360.8925, 215.3317
361.3746, 206.8232
361.8567, 198.7014
362.3388, 190.5959
362.8210, 182.7030
363.3031, 175.2801
363.7852, 168.3300
364.2673, 161.9402
364.7494, 156.2165
365.2315, 151.2839
365.7137, 146.5736
366.1958, 141.7212
366.6779, 137.1730
367.1600, 133.4105
367.6421, 131.1569
368.1242, 129.0033
368.6064, 126.5862
369.0885, 123.8663
369.5706, 121.5527
370.0527, 119.9646
370.5348, 118.5235
371.0169, 116.8083
371.4991, 114.4833
371.9812, 112.5040
372.4633, 111.1174
372.9454, 110.1095
373.4275, 108.7674
373.9096, 107.0288
374.3918, 105.0360
374.8739, 102.8581
375.3560, 100.4269
375.8381, 97.99220
376.3202, 95.53459
376.8023, 93.13322
377.2845, 90.86253
377.7666, 88.70028
378.2487, 86.92006
378.7308, 85.90007
379.2129, 85.41959
379.6950, 83.93771
380.1772, 81.29199
380.6593, 78.41599
381.1414, 76.16243
381.6235, 74.48478
382.1056, 72.76340
382.5877, 70.88963
383.0699, 68.90833
383.5520, 66.83584
384.0341, 64.67529
384.5162, 62.65043
384.9983, 60.94542
385.4804, 59.45361
385.9626, 57.94057
386.4447, 56.38592
386.9268, 54.79447
387.4089, 53.15730
387.8910, 51.47945
388.3731, 49.81028
388.8553, 48.05494
389.3374, 46.38536
389.8195, 45.05447
390.3016, 44.05986
390.7837, 43.05816
391.2658, 41.82796
391.7480, 40.49926
392.2301, 39.19275
392.7122, 37.83010
393.1943, 36.65113
393.6764, 35.94410
394.1585, 35.54016
394.6407, 34.97336
395.1228, 33.83169
395.6049, 32.68335
396.0870, 31.83008
396.5691, 31.41514
397.0512, 30.95948
397.5334, 30.35181
398.0155, 29.65819
398.4976, 28.96995
398.9797, 28.23057
399.4618, 27.56033
399.9439, 26.96474
400.4261, 26.44367
400.9082, 26.05350
401.3903, 25.88226
401.8724, 25.75756
402.3545, 25.57693
402.8366, 25.35304
403.3188, 25.04069
403.8009, 24.58924
404.2830, 24.06892
404.7651, 23.65687
405.2472, 23.37337
405.7293, 23.15348
406.2115, 23.00487
406.6936, 22.93409
407.1757, 22.71815
407.6578, 22.30445
408.1399, 21.88716
408.6220, 21.76171
409.1042, 21.91845
409.5863, 21.88830
410.0684, 21.45211
410.5505, 20.82552
411.0326, 20.54340
411.5147, 20.59484
411.9969, 20.66883
412.4790, 20.56544
412.9611, 20.31680
413.4432, 19.96031
413.9253, 19.45614
414.4074, 19.00784
414.8896, 18.91605
415.3717, 19.05226
415.8538, 19.11529
416.3359, 18.86155
416.8180, 18.53431
417.3001, 18.38119
417.7823, 18.39902
418.2644, 18.39039
418.7465, 18.23751
419.2286, 18.00268
419.7107, 17.74209
420.1928, 17.40068
420.6750, 17.12553
421.1571, 17.00861
421.6392, 17.00193
422.1213, 16.98460
422.6034, 16.81664
423.0855, 16.72343
423.5677, 16.85472
424.0498, 17.34420
424.5319, 17.61114
425.0140, 17.42627
425.4961, 17.08820
425.9782, 16.90131
426.4604, 17.01387
426.9425, 17.05939
427.4246, 16.95807
427.9067, 16.73595
428.3888, 16.58238
428.8709, 16.51884
429.3531, 16.48604
429.8352, 16.43349
430.3173, 16.33496
430.7994, 16.37800
431.2815, 16.61921
431.7636, 16.91921
432.2458, 17.05525
432.7279, 17.02242
433.2100, 16.90006
433.6921, 16.68000
434.1742, 16.39611
434.6563, 16.16420
435.1385, 15.98024
435.6206, 15.86607
436.1027, 15.86089
436.5848, 15.94013
437.0669, 16.05135
437.5490, 16.20842
438.0312, 16.33568
438.5133, 16.30085
438.9954, 16.16093
439.4775, 16.07392
439.9596, 16.21714
440.4417, 16.38910
440.9239, 16.36405
441.4060, 16.12909
441.8881, 15.95217
442.3702, 16.05791
442.8523, 16.26454
443.3344, 16.39859
443.8166, 16.39772
444.2987, 16.33653
444.7808, 16.14445
445.2629, 15.89678
445.7450, 15.81401
446.2271, 16.14916
446.7093, 16.47702
447.1914, 16.62063
447.6735, 16.50218
448.1556, 16.43404
448.6377, 16.42408
449.1198, 16.45946
449.6020, 16.53496
450.0841, 16.67976
450.5662, 16.79922
451.0483, 16.87066
451.5304, 16.90662
452.0125, 16.95611
452.4947, 17.01453
452.9768, 17.10193
453.4589, 17.23222
453.9410, 17.40727
454.4231, 17.60928
454.9052, 17.84672
455.3874, 18.08996
455.8695, 18.32243
456.3516, 18.53901
456.8337, 18.68759
457.3158, 18.70182
457.7979, 18.68213
458.2801, 18.84881
458.7622, 19.17419
459.2443, 19.46933
459.7264, 19.56178
460.2085, 19.56169
460.6906, 19.60437
461.1728, 19.70830
461.6549, 19.86023
462.1370, 20.05051
462.6191, 20.28128
463.1012, 20.55191
463.5833, 20.90889
464.0655, 21.26244
464.5476, 21.60672
465.0297, 21.92765
465.5118, 22.13196
465.9939, 22.01235
466.4760, 21.89663
466.9582, 21.96579
467.4403, 22.31527
467.9224, 22.70777
468.4045, 23.13830
468.8866, 23.60478
469.3687, 24.11784
469.8509, 24.69717
470.3330, 25.27611
470.8151, 25.86609
471.2972, 26.45486
471.7793, 26.88715
472.2614, 27.11974
472.7436, 27.32601
473.2257, 27.59428
473.7078, 27.92506
474.1899, 28.42518
474.6720, 29.13485
475.1541, 29.93346
475.6363, 30.65802
476.1184, 31.31526
476.6005, 31.94529
477.0826, 32.52310
477.5647, 33.10666
478.0468, 33.87535
478.5290, 34.79996
479.0111, 35.61484
479.4932, 36.08556
479.9753, 36.36188
480.4574, 36.65487
480.9395, 37.06865
481.4217, 37.27837
481.9038, 37.03800
482.3859, 36.47577
482.8680, 35.77819
483.3501, 35.00209
483.8322, 34.10511
484.3144, 32.95706
484.7965, 31.59861
485.2786, 30.45490
485.7607, 29.61979
486.2428, 29.00719
486.7249, 28.57288
487.2071, 28.33999
487.6892, 28.25536
488.1713, 28.40384
488.6534, 28.64164
489.1355, 28.75464
489.6176, 28.69861
490.0998, 28.63803
490.5819, 28.55996
491.0640, 28.51261
491.5461, 28.76288
492.0282, 29.33443
492.5103, 30.03525
492.9925, 30.78674
493.4746, 31.57388
493.9567, 32.21150
494.4388, 32.65963
494.9209, 33.15131
495.4030, 33.92659
495.8852, 34.95545
496.3673, 36.19618
496.8494, 37.74907
497.3315, 39.38195
497.8136, 40.77993
498.2957, 42.03988
498.7779, 43.50291
499.2600, 45.54798
499.7421, 47.74207
500.2242, 49.78979
500.7063, 51.65625
501.1884, 53.46444
501.6706, 55.25320
502.1527, 56.99235
502.6348, 58.62051
503.1169, 60.39346
503.5990, 61.73824
504.0811, 62.59460
504.5633, 62.97778
505.0454, 62.95376
505.5275, 62.58878
506.0096, 61.69809
506.4917, 60.13092
506.9738, 57.82040
507.4560, 55.46471
507.9381, 53.06749
508.4202, 50.61435
508.9023, 47.96799
509.3844, 45.15833
509.8665, 42.71562
510.3487, 40.75413
510.8308, 39.17278
511.3129, 37.91509
511.7950, 36.92934
512.2772, 35.97391
512.7593, 34.71922
513.2414, 33.53445
513.7235, 32.95284
514.2056, 32.95851
514.6877, 32.99905
515.1699, 32.75116
515.6520, 32.36050
516.1341, 31.93572
516.6162, 31.39273
517.0983, 31.02830
517.5804, 31.09937
518.0626, 31.37569
518.5447, 31.47976
519.0268, 31.11687
519.5089, 30.82761
519.9910, 30.78459
520.4731, 30.96480
520.9553, 30.98630
521.4374, 30.68452
521.9195, 30.46910
522.4016, 30.64698
522.8837, 31.35302
523.3658, 31.70286
523.8480, 31.60968
524.3301, 31.33004
524.8122, 31.15790
525.2943, 31.09435
525.7764, 31.17240
526.2585, 31.46360
526.7407, 31.83007
527.2228, 32.04426
527.7049, 32.11486
528.1870, 32.08931
528.6691, 31.89784
529.1512, 31.67690
529.6334, 31.55654
530.1155, 31.54289
530.5976, 31.69054
531.0797, 32.22379
531.5618, 32.84447
532.0439, 33.23879
532.5261, 33.08591
533.0082, 33.05595
533.4903, 33.36978
533.9724, 33.91660
534.4545, 34.46680
534.9366, 34.85866
535.4188, 35.41447
535.9009, 36.26119
536.3830, 37.39016
536.8651, 38.38611
537.3472, 39.14836
537.8293, 39.97281
538.3115, 41.10656
538.7936, 42.57936
539.2757, 43.83030
539.7578, 44.74912
540.2399, 45.65691
540.7220, 47.04992
541.2042, 48.84597
541.6863, 50.65086
542.1684, 52.27356
542.6505, 53.95356
543.1326, 56.18567
543.6147, 58.81691
544.0969, 61.32598
544.5790, 63.16673
545.0611, 64.85861
545.5432, 66.79312
546.0253, 68.99721
546.5074, 71.38805
546.9896, 73.90485
547.4717, 76.58735
547.9538, 79.46915
548.4359, 82.63483
548.9180, 85.89787
549.4001, 89.24935
549.8823, 92.70691
550.3644, 96.31773
550.8465, 100.2730
551.3286, 104.0941
551.8107, 107.6567
552.2928, 110.9992
552.7750, 114.3290
553.2571, 117.7207
553.7392, 120.8253
554.2213, 123.5305
554.7034, 125.7742
555.1855, 127.3717
555.6677, 128.3302
556.1498, 128.5176
556.6319, 127.7391
557.1140, 126.0935
557.5961, 123.8019
558.0782, 121.0273
558.5604, 117.4400
559.0425, 112.4698
559.5246, 106.5102
560.0067, 100.4513
560.4888, 94.60159
560.9709, 88.83892
561.4531, 83.01543
561.9352, 77.10886
562.4173, 71.87342
562.8994, 67.83372
563.3815, 64.15923
563.8636, 60.36511
564.3458, 56.24977
564.8279, 52.64247
565.3100, 49.59684
565.7921, 46.94260
566.2742, 44.52594
566.7563, 42.34148
567.2385, 40.32737
567.7206, 38.50627
568.2027, 36.82099
568.6848, 35.21701
569.1669, 33.68049
569.6490, 32.27437
570.1312, 31.03941
570.6133, 29.93061
571.0954, 28.86369
571.5775, 27.83400
572.0596, 27.00130
572.5417, 26.59594
573.0239, 26.34185
573.5060, 26.00191
573.9881, 25.49210
574.4702, 25.00245
574.9523, 24.60735
575.4344, 24.25109
575.9166, 23.86963
576.3987, 23.50271
576.8808, 23.02870
577.3629, 22.28344
577.8450, 21.43493
578.3271, 21.09581
578.8093, 21.45968
579.2914, 21.75506
579.7735, 21.61080
580.2556, 21.09909
580.7377, 20.77770
581.2198, 20.66198
581.7020, 20.58625
582.1841, 20.38163
582.6662, 20.11601
583.1483, 19.97349
583.6304, 20.00306
584.1125, 20.03102
584.5947, 19.91035
585.0768, 19.68863
585.5589, 19.43140
586.0410, 18.99474
586.5231, 18.71462
587.0052, 18.89199
587.4873, 19.34613
587.9694, 19.58844
588.4515, 19.33716
588.9337, 19.05886
589.4158, 18.89634
589.8979, 18.85061
590.3800, 18.74473
590.8621, 18.55160
591.3442, 18.34494
591.8264, 18.15282
592.3085, 17.96845
592.7906, 17.89008
593.2727, 17.93006
593.7548, 18.04150
594.2369, 18.22827
594.7191, 18.45243
595.2012, 18.54999
595.6833, 18.43271
596.1654, 18.27221
596.6475, 18.29570
597.1296, 18.42311
597.6118, 18.46949
598.0939, 18.25933
598.5760, 18.02769
599.0581, 17.88561
599.5402, 17.83731
600.0223, 17.85294
600.5045, 17.96314
600.9866, 18.10626
601.4687, 18.28933
601.9508, 18.57090
602.4329, 18.61597
602.9150, 18.31231
603.3972, 17.92701
603.8793, 17.71994
604.3614, 17.71437
604.8435, 17.60799
605.3256, 17.33768
605.8077, 17.02255
606.2899, 16.87132
606.7720, 16.85091
607.2541, 16.81393
607.7362, 16.70435
608.2183, 16.55260
608.7004, 16.39463
609.1826, 16.22538
609.6647, 16.03312
610.1468, 15.76397
610.6289, 15.50550
611.1110, 15.29817
611.5931, 15.14102
612.0753, 15.07294
612.5574, 15.17117
613.0395, 15.30691
613.5216, 15.40448
614.0037, 15.44098
614.4858, 15.50743
614.9680, 15.63274
615.4501, 15.74884
615.9322, 15.73151
616.4143, 15.56629
616.8964, 15.54326
617.3785, 15.73625
617.8607, 16.05888
618.3428, 16.39904
618.8249, 16.74801
619.3070, 17.06925
619.7891, 17.29709
620.2712, 17.52381
620.7534, 17.87433
621.2355, 18.32046
621.7176, 18.71596
622.1997, 18.89723
622.6818, 19.08418
623.1639, 19.41711
623.6461, 19.92976
624.1282, 20.43156
624.6103, 20.84066
625.0924, 21.28775
625.5745, 21.85666
626.0566, 22.58754
626.5388, 23.35327
627.0209, 24.16273
627.5030, 24.97280
627.9851, 25.71703
628.4672, 26.39208
628.9493, 27.04987
629.4315, 27.67371
629.9136, 28.33935
630.3957, 29.15875
630.8778, 30.11143
631.3599, 31.12810
631.8420, 32.33006
632.3242, 33.45803
632.8063, 34.24809
633.2884, 34.75482
633.7705, 35.32633
634.2526, 36.30700
634.7347, 37.18834
635.2169, 37.74459
635.6990, 37.94430
636.1811, 37.90031
636.6632, 37.49641
637.1453, 36.99372
637.6274, 36.64164
638.1096, 36.51225
638.5917, 35.97773
639.0738, 34.94648
639.5559, 33.67745
640.0380, 32.41257
640.5201, 31.15955
641.0023, 29.99109
641.4844, 28.93125
641.9665, 27.92109
642.4486, 26.80493
642.9307, 25.66557
643.4128, 24.70023
643.8950, 24.08127
644.3771, 23.55639
644.8592, 23.02958
645.3413, 22.50115
645.8234, 21.95887
646.3055, 21.37927
646.7877, 20.81927
647.2698, 20.29532
647.7519, 19.80211
648.2340, 19.39430
648.7161, 19.11054
649.1982, 18.80838
649.6804, 18.33422
650.1625, 17.71966
650.6446, 17.30373
651.1267, 17.12684
651.6088, 16.97052
652.0909, 16.57001
652.5731, 16.04562
653.0552, 15.59188
653.5373, 15.23567
654.0194, 15.01813
654.5015, 15.12623
654.9836, 15.33930
655.4658, 15.33420
655.9479, 14.77086
656.4300, 14.27963
656.9121, 14.05077
657.3942, 13.97707
657.8763, 13.74386
658.3585, 13.22220
658.8406, 12.84748
659.3227, 12.81291
659.8048, 13.03377
660.2869, 13.07079
660.7690, 12.91895
661.2512, 12.70738
661.7333, 12.49090
662.2154, 12.28185
662.6975, 12.09391
663.1796, 11.92897
663.6617, 11.82315
664.1439, 11.88490
664.6260, 11.96712
665.1081, 11.93002
665.5902, 11.72005
666.0723, 11.50082
666.5544, 11.28363
667.0366, 11.09203
667.5187, 10.94791
668.0008, 10.87866
668.4829, 10.79467
668.9650, 10.66688
669.4471, 10.55232
669.9293, 10.59312
670.4114, 10.79267
670.8935, 10.83437
671.3756, 10.57835
671.8577, 10.20780
672.3398, 9.983512
672.8220, 9.893510
673.3041, 9.899459
673.7862, 10.09298
674.2683, 10.28091
674.7504, 10.29132
675.2325, 10.15952
675.7147, 10.07109
676.1968, 10.18736
676.6789, 10.26049
677.1610, 10.13249
677.6431, 9.786302
678.1252, 9.638941
678.6074, 9.779946
679.0895, 9.954988
679.5716, 10.00800
680.0537, 9.939374
680.5358, 9.831884
681.0179, 9.682498
681.5001, 9.532990
681.9822, 9.419018
682.4643, 9.337266
682.9464, 9.286077
683.4285, 9.267429
683.9106, 9.266926
684.3928, 9.334771
684.8749, 9.390745
685.3570, 9.339468
685.8391, 8.966251
686.3212, 8.718219
686.8033, 8.718570
687.2855, 8.866342
687.7676, 9.024153
688.2497, 9.233649
688.7318, 9.349684
689.2139, 9.333378
689.6960, 9.215419
690.1782, 9.015891
690.6603, 8.745799
691.1424, 8.623669
691.6245, 8.873076
692.1066, 9.250902
692.5887, 8.978932
693.0709, 9.375955
693.5530, 9.586400
694.0351, 9.620517
694.5172, 8.936847
694.9993, 9.190260
695.4814, 9.074377
695.9636, 8.947619
696.4457, 9.345667
696.9278, 8.789329
697.4099, 9.188036
697.8920, 9.211741
698.3741, 9.413571
698.8563, 9.243800
699.3384, 9.194633
699.8205, 9.526108
700.3026, 9.653744
700.7847, 9.458505
701.2668, 9.698110
701.7490, 9.173211
702.2311, 9.327539
702.7132, 9.777471
703.1953, 9.623423
703.6774, 9.892191
704.1595, 10.00607
704.6417, 9.400329
705.1238, 10.05831
705.6059, 10.17616
706.0880, 9.686244
706.5701, 9.590673
707.0522, 9.625524
707.5344, 9.730664
708.0165, 9.779621
708.4986, 9.768485
708.9807, 9.758434
709.4628, 9.761557
709.9449, 9.783463
710.4271, 9.868225
710.9092, 9.988935
711.3913, 10.04871
711.8734, 9.913565
712.3555, 9.769828
712.8376, 9.766367
713.3198, 9.877630
713.8019, 9.966302
714.2840, 10.01430
714.7661, 10.01157
715.2482, 9.928349
715.7303, 9.770014
716.2125, 9.707682
716.6946, 9.780532
717.1767, 9.840842
717.6588, 9.771578
718.1409, 9.599283
718.6230, 9.555363
719.1052, 9.642618
719.5873, 9.725013
720.0694, 9.641128
720.5515, 9.513530
721.0336, 9.537337
721.5157, 9.759943
721.9979, 9.899569
722.4800, 9.756895
722.9621, 9.520896
723.4442, 9.335094
723.9263, 9.197153
724.4084, 9.152758
724.8906, 9.229671
725.3727, 9.367261
725.8548, 9.526922
726.3369, 9.716357
726.8190, 9.818155
727.3011, 9.804479
727.7833, 9.748974
728.2654, 9.737824
728.7475, 9.759244
729.2296, 9.786178
729.7117, 9.812722
730.1938, 9.839124
730.6760, 9.904035
731.1581, 9.958367
731.6402, 9.927783
732.1223, 9.698175
732.6044, 9.499131
733.0865, 9.324141
733.5687, 9.213806
734.0508, 9.286167
734.5329, 9.602236
735.0150, 9.846734
735.4971, 9.928736
735.9792, 9.901574
736.4614, 9.857394
736.9435, 9.803326
737.4256, 9.776018
737.9077, 9.801290
738.3898, 9.855755
738.8719, 9.902357
739.3541, 9.956370
739.8362, 10.07184
740.3183, 10.46022
740.8004, 10.72202
741.2825, 10.59336
741.7646, 10.14223
742.2468, 9.940824
742.7289, 10.06212
743.2110, 10.25367
743.6931, 10.44278
744.1752, 10.60955
744.6573, 10.58469
745.1395, 10.37532
745.6216, 10.21899
746.1037, 10.40160
746.5858, 10.66681
747.0679, 10.62984
747.5500, 10.29019
748.0322, 10.07640
748.5143, 10.34035
748.9964, 10.66696
749.4785, 10.80010
749.9606, 10.68536
750.4427, 10.57556
750.9249, 10.46241
751.4070, 10.36511
751.8891, 10.29614
752.3712, 10.25496
752.8533, 10.23467
753.3354, 10.23190
753.8176, 10.27943
754.2997, 10.47398
754.7818, 10.71431
755.2639, 10.82743
755.7460, 10.76577
756.2281, 10.70993
756.7103, 10.82109
757.1924, 10.94092
757.6745, 10.91694
758.1566, 10.56053
758.6387, 10.41328
759.1208, 10.57659
759.6030, 10.82482
760.0851, 10.91166
760.5672, 10.83099
761.0493, 10.80631
761.5314, 10.87158
762.0135, 10.95622
762.4957, 10.97739
762.9778, 10.95678
763.4599, 10.93593
763.9420, 10.92937
764.4241, 10.91417
764.9063, 10.85918
765.3884, 10.79597
765.8705, 10.76370
766.3526, 10.79649
766.8347, 10.81536
767.3168, 10.78973
767.7990, 10.77410
768.2811, 10.89129
768.7632, 11.15390
769.2453, 11.26257
769.7274, 11.10584
770.2095, 10.90049
770.6917, 11.03808
771.1738, 11.35561
771.6559, 11.47946
772.1380, 11.07392
772.6201, 10.72757
773.1022, 10.82445
773.5844, 11.17737
774.0665, 11.45665
774.5486, 11.56296
775.0307, 11.68222
775.5128, 11.87074
775.9949, 12.06292
776.4771, 12.09037
776.9592, 11.94749
777.4413, 11.80670
777.9234, 11.70081
778.4055, 11.64966
778.8876, 11.72797
779.3698, 11.88728
779.8519, 12.00328
780.3340, 11.88914
780.8161, 11.85307
781.2982, 12.16745
781.7803, 12.66996
782.2625, 12.90360
782.7446, 12.63178
783.2267, 12.44121
783.7088, 12.47686
784.1909, 12.65309
784.6730, 12.68682
785.1552, 12.58035
785.6373, 12.60756
786.1194, 12.97474
786.6015, 13.42198
787.0836, 13.56838
787.5657, 13.47727
788.0479, 13.31945
788.5300, 12.94999
789.0121, 12.76247
789.4942, 13.07265
789.9763, 13.73539
790.4584, 14.16865
790.9406, 14.30121
791.4227, 14.30758
791.9048, 14.19136
792.3869, 14.00398
792.8690, 13.89611
793.3511, 13.86698
793.8333, 13.91563
794.3154, 14.01048
794.7975, 14.20881
795.2796, 14.70035
795.7617, 15.37507
796.2438, 15.85759
796.7260, 15.80427
797.2081, 15.73763
797.6902, 15.89829
798.1723, 16.21573
798.6544, 16.38909
799.1365, 16.33703
799.6187, 16.36296
800.1008, 16.60695
800.5829, 16.97243
801.0650, 17.09414
801.5471, 17.02640
802.0292, 17.12847
802.5114, 17.80118
802.9935, 18.56573
803.4756, 18.97147
803.9577, 19.09457
804.4398, 19.18885
804.9219, 18.42044
805.4041, 19.46765
805.8862, 20.22819
806.3683, 20.71750
806.8504, 20.12350
807.3325, 20.92843
807.8146, 21.17268
808.2968, 21.39409
808.7789, 22.39586
809.2610, 22.46397
809.7431, 23.39105
810.2252, 24.16654
810.7073, 24.35946
811.1895, 24.46446
811.6716, 24.83738
812.1537, 25.39488
812.6358, 25.80759
813.1179, 25.83867
813.6000, 25.98225
814.0822, 26.37908
814.5643, 26.96123
815.0464, 27.49829
815.5285, 27.98908
816.0106, 28.40706
816.4927, 28.72777
816.9749, 28.98240
817.4570, 29.19280
817.9391, 29.37316
818.4212, 29.57090
818.9033, 29.70885
819.3854, 29.96888
819.8676, 30.58478
820.3497, 31.39032
820.8318, 31.81196
821.3139, 31.66493
821.7960, 31.55660
822.2781, 31.63747
822.7603, 31.84603
823.2424, 32.07037
823.7245, 32.30175
824.2066, 32.47696
824.6887, 32.55354
825.1708, 32.58763
825.6530, 32.56401
826.1351, 32.54365
826.6172, 32.66009
827.0993, 33.07436
827.5814, 33.48183
828.0635, 33.79014
828.5457, 34.06928
829.0278, 34.49438
829.5099, 35.09066
829.9920, 35.65506
830.4741, 36.13744
830.9562, 36.56514
831.4384, 36.93016
831.9205, 37.28061
832.4026, 37.73940
832.8847, 38.35927
833.3668, 39.09475
833.8489, 39.95757
834.3311, 40.91212
834.8132, 41.90559
835.2953, 42.98256
835.7774, 43.98151
836.2595, 44.81800
836.7416, 45.64666
837.2238, 46.74802
837.7059, 48.10637
838.1880, 49.39441
838.6701, 50.46616
839.1522, 51.70640
839.6343, 53.74286
840.1165, 56.12212
840.5986, 58.15189
841.0807, 59.35691
841.5628, 60.68752
842.0449, 62.27548
842.5270, 64.09812
843.0092, 66.18899
843.4913, 68.61215
843.9734, 70.94503
844.4555, 73.14765
844.9376, 75.26646
845.4197, 77.23585
845.9019, 79.17940
846.3840, 81.44315
846.8661, 84.15327
847.3482, 86.87937
847.8303, 89.46266
848.3124, 91.90183
848.7946, 94.18681
849.2767, 96.24951
849.7588, 98.35468
850.2409, 100.6884
850.7230, 102.7119
851.2051, 103.8410
851.6873, 104.1837
852.1694, 104.5742
852.6515, 105.0775
853.1336, 105.2625
853.6157, 104.6289
854.0978, 103.6000
854.5800, 102.6730
855.0621, 101.9812
855.5442, 100.6824
856.0263, 98.25663
856.5084, 95.55125
856.9905, 92.92382
857.4727, 90.38512
857.9548, 87.98823
858.4369, 85.72980
858.9190, 83.57436
859.4011, 81.52027
859.8832, 79.50780
860.3654, 77.35789
860.8475, 75.11926
861.3296, 73.20642
861.8117, 72.12748
862.2938, 71.09958
862.7759, 69.53452
863.2581, 67.57264
863.7402, 66.37066
864.2223, 66.17511
864.7044, 65.91496
865.1865, 65.06512
865.6686, 63.89639
866.1508, 63.04811
866.6329, 62.50239
867.1150, 62.21604
867.5971, 62.53252
868.0792, 62.74286
868.5613, 62.14842
869.0435, 61.08859
869.5256, 60.67078
870.0077, 61.20095
870.4898, 61.97313
870.9719, 63.04573
871.4540, 64.11404
871.9362, 64.29899
872.4183, 63.74392
872.9004, 63.60593
873.3825, 64.35713
873.8646, 65.40791
874.3467, 66.17011
874.8289, 66.86237
875.3110, 67.80743
875.7931, 69.39296
876.2752, 70.80411
876.7573, 71.75699
877.2394, 72.69762
877.7216, 74.28962
878.2037, 76.58259
878.6858, 78.51090
879.1679, 79.92818
879.6500, 81.10783
880.1321, 82.23404
880.6143, 83.38218
881.0964, 84.62463
881.5785, 85.93204
882.0606, 87.54210
882.5427, 89.71095
883.0248, 92.09741
883.5070, 94.45558
883.9891, 96.80228
884.4712, 99.07830
884.9533, 101.2475
885.4354, 103.4277
885.9175, 105.7634
886.3997, 108.1609
886.8818, 110.2794
887.3639, 112.1573
887.8460, 114.3095
888.3281, 117.1424
888.8102, 120.1811
889.2924, 123.0391
889.7745, 125.7604
890.2566, 129.1707
890.7387, 133.3909
891.2208, 137.8611
891.7029, 142.3218
892.1851, 146.9222
892.6672, 152.0393
893.1493, 157.7410
893.6314, 164.1695
894.1135, 171.7001
894.5956, 179.7816
895.0778, 187.8691
895.5599, 196.3301
896.0420, 205.9082
896.5241, 216.7865
897.0062, 228.4916
897.4883, 240.8343
897.9705, 253.9899
898.4526, 268.0040
898.9347, 282.8960
899.4168, 298.6445
899.8989, 315.3014
900.3810, 333.0743
900.8632, 352.4978
901.3453, 373.1230
901.8274, 394.8792
902.3095, 417.7992
902.7916, 441.0321
903.2737, 464.6925
903.7559, 488.8070
904.2380, 513.3135
904.7201, 538.4303
905.2022, 564.5848
905.6843, 591.5013
906.1664, 618.6952
906.6486, 645.8539
907.1307, 672.4676
907.6128, 698.8685
908.0949, 725.0496
908.5770, 748.4650
909.0591, 769.9003
909.5413, 787.2139
910.0234, 799.4765
910.5055, 806.8601
910.9876, 810.4385
911.4697, 810.1913
911.9518, 805.6305
912.4340, 796.9070
912.9161, 783.3499
913.3982, 763.7553
913.8803, 738.9226
914.3624, 711.2194
914.8445, 679.6994
915.3267, 647.1776
915.8088, 613.7974
916.2909, 579.9958
916.7730, 546.3174
917.2551, 512.6617
917.7372, 480.4497
918.2194, 449.7032
918.7015, 420.7078
919.1836, 393.8352
919.6657, 368.8880
920.1478, 345.5840
920.6299, 323.5939
921.1121, 303.7669
921.5942, 286.4185
922.0763, 270.4346
922.5584, 254.9634
923.0405, 239.9888
923.5226, 225.9569
924.0048, 212.9407
924.4869, 200.9626
924.9690, 190.0643
925.4511, 180.0285
925.9332, 170.7989
926.4153, 162.3105
926.8975, 154.3973
927.3796, 147.3470
927.8617, 140.5001
928.3438, 133.4188
928.8259, 126.3290
929.3080, 120.3690
929.7902, 115.4995
930.2723, 110.9835
930.7544, 106.6951
931.2365, 102.4228
931.7186, 97.74998
932.2007, 92.98827
932.6829, 88.79240
933.1650, 85.61377
933.6471, 82.64822
934.1292, 79.89029
934.6113, 77.20608
935.0934, 74.39846
935.5756, 71.44965
936.0577, 68.76792
936.5398, 66.43272
937.0219, 64.40762
937.5040, 62.96184
937.9861, 61.68561
938.4683, 60.06712
938.9504, 57.92506
939.4325, 55.99525
939.9146, 54.45495
940.3967, 53.12113
940.8788, 51.93813
941.3610, 50.89506
941.8431, 49.74416
942.3252, 48.48467
942.8073, 47.35741
943.2894, 46.69427
943.7715, 46.10211
944.2537, 45.14068
944.7358, 43.92472
945.2179, 42.88852
945.7000, 42.26419
946.1821, 41.63972
946.6642, 40.92115
947.1464, 40.17846
947.6285, 39.63863
948.1106, 39.25111
948.5927, 38.57917
949.0748, 37.38853
949.5569, 36.29867
950.0391, 36.01353
950.5212, 36.05741
951.0033, 35.88622
951.4854, 35.28905
951.9675, 34.74095
952.4496, 34.27715
952.9318, 33.81427
953.4139, 33.21071
953.8960, 32.53075
954.3781, 32.26020
954.8602, 32.37693
955.3423, 32.36663
955.8245, 31.61217
956.3066, 30.84737
956.7887, 30.65873
957.2708, 30.98853
957.7529, 31.16737
958.2350, 31.15340
958.7172, 31.03925
959.1993, 30.87350
959.6814, 30.59032
960.1635, 29.87140
960.6456, 28.90307
961.1277, 28.33002
961.6099, 28.58121
962.0920, 28.82392
962.5741, 28.44147
963.0562, 27.87742
963.5383, 27.66060
964.0204, 27.96683
964.5026, 28.15461
964.9847, 28.22400
965.4668, 28.15796
965.9489, 27.83376
966.4310, 27.39568
966.9131, 27.16289
967.3953, 27.14075
967.8774, 27.09925
968.3595, 26.84711
968.8416, 26.62790
969.3237, 26.59509
969.8058, 26.69773
970.2880, 26.69165
970.7701, 26.55931
971.2522, 26.47437
971.7343, 26.53141
972.2164, 26.60143
972.6985, 26.43359
973.1807, 26.15370
973.6628, 26.00760
974.1449, 26.13754
974.6270, 26.29655
975.1091, 26.54889
975.5912, 26.71133
976.0734, 26.56115
976.5555, 26.09089
977.0376, 25.75529
977.5197, 25.58461
978.0018, 25.46278
978.4839, 25.32515
978.9661, 25.16784
979.4482, 24.96048
979.9303, 24.70935
980.4124, 24.54128
980.8945, 24.56276
981.3766, 24.52424
981.8588, 24.34311
982.3409, 24.06049
982.8230, 23.77832
983.3051, 23.49649
983.7872, 23.21005
984.2693, 22.89305
984.7515, 22.61776
985.2336, 22.49140
985.7157, 22.41154
986.1978, 22.22876
986.6799, 21.79197
987.1620, 21.62673
987.6442, 21.84362
988.1263, 22.02186
988.6084, 21.64258
989.0905, 20.96577
989.5726, 20.66804
990.0547, 20.75126
990.5369, 20.85827
991.0190, 20.80006
991.5011, 20.72585
991.9832, 20.69576
992.4653, 20.70790
992.9474, 20.76893
993.4296, 20.88629
993.9117, 20.98253
994.3938, 21.04232
994.8759, 21.05417
995.3580, 21.00141
995.8401, 20.89056
996.3223, 20.72152
996.8044, 20.43832
997.2865, 20.21723
997.7686, 20.03187
998.2507, 19.96884
998.7328, 20.14161
999.2150, 20.53517
999.6971, 20.87726
1000.179, 21.15652
1000.661, 21.28991
1001.143, 21.00335
1001.626, 20.73300
1002.108, 20.85731
1002.590, 21.31351
1003.072, 21.73744
1003.554, 22.11221
1004.036, 22.40658
1004.518, 22.57782
1005.000, 22.72657
1005.482, 23.04820
1005.965, 23.48197
1006.447, 23.83263
1006.929, 24.00559
1007.411, 24.29480
1007.893, 25.08045
1008.375, 25.84554
1008.857, 26.17252
1009.339, 26.01890
1009.822, 26.07006
1010.304, 26.34090
1010.786, 26.64675
1011.268, 26.89694
1011.750, 27.09183
1012.232, 27.16213
1012.714, 27.17485
1013.196, 27.32271
1013.678, 27.68050
1014.161, 28.18721
1014.643, 28.92826
1015.125, 29.68355
1015.607, 30.09341
1016.089, 30.20807
1016.571, 30.31215
1017.053, 30.43480
1017.535, 30.67627
1018.018, 31.32637
1018.500, 31.96185
1018.982, 32.15435
1019.464, 31.87037
1019.946, 31.94941
1020.428, 32.48128
1020.910, 33.04747
1021.392, 33.46286
1021.874, 33.81178
1022.357, 34.22890
1022.839, 34.70710
1023.321, 35.23105
1023.803, 35.92994
1024.285, 36.47332
1024.767, 36.64022
1025.249, 36.73825
1025.731, 37.08899
1026.214, 37.69752
1026.696, 38.10936
1027.178, 38.29908
1027.660, 38.51599
1028.142, 38.80018
1028.624, 39.32528
1029.106, 40.45502
1029.588, 42.07097
1030.070, 43.18715
1030.553, 43.47111
1031.035, 43.95899
1031.517, 44.98300
1031.999, 46.19677
1032.481, 46.97839
1032.963, 47.46241
1033.445, 47.99085
1033.927, 48.64917
1034.410, 49.36268
1034.892, 50.20174
1035.374, 50.98530
1035.856, 51.56309
1036.338, 51.93212
1036.820, 52.41820
1037.302, 53.01990
1037.784, 53.43322
1038.266, 53.38382
1038.749, 53.12450
1039.231, 52.85673
1039.713, 52.58177
1040.195, 52.30914
1040.677, 52.11500
1041.159, 51.78991
1041.641, 51.30421
1042.123, 50.69911
1042.605, 49.94303
1043.088, 49.11287
1043.570, 48.54009
1044.052, 48.25771
1044.534, 47.74512
1045.016, 46.63747
1045.498, 45.30401
1045.980, 43.91084
1046.462, 42.46845
1046.945, 40.98322
1047.427, 39.44029
1047.909, 37.94368
1048.391, 36.54270
1048.873, 35.20370
1049.355, 33.83190
1049.837, 32.51608
1050.319, 31.37445
1050.802, 30.49793
1051.284, 29.66008
1051.766, 28.89378
1052.248, 28.10559
1052.730, 27.24028
1053.212, 26.30846
1053.694, 25.26764
1054.176, 24.16850
1054.658, 23.24354
1055.141, 22.82855
1055.623, 22.34695
1056.105, 21.44106
1056.587, 20.42599
1057.069, 19.81644
1057.551, 19.62736
1058.033, 19.29741
1058.515, 18.74203
1058.997, 18.16982
1059.480, 17.75904
1059.962, 17.42117
1060.444, 17.10070
1060.926, 16.79187
1061.408, 16.36523
1061.890, 15.70362
1062.372, 15.25328
1062.854, 15.25030
1063.337, 15.41834
1063.819, 15.17667
1064.301, 14.70733
1064.783, 14.43998
1065.265, 14.65125
1065.747, 14.69412
1066.229, 14.19102
1066.711, 13.62749
1067.193, 13.29876
1067.676, 13.19747
1068.158, 13.15932
1068.640, 13.17866
1069.122, 13.17526
1069.604, 13.12480
1070.086, 13.01001
1070.568, 12.74772
1071.050, 12.42688
1071.532, 12.25403
1072.015, 12.29031
1072.497, 12.26465
1072.979, 12.14444
1073.461, 11.98556
1073.943, 11.80730
1074.425, 11.64974
1074.907, 11.57647
1075.389, 11.59072
1075.872, 11.62435
1076.354, 11.73099
1076.836, 11.74346
1077.318, 11.57167
1077.800, 11.32376
1078.282, 11.26543
1078.764, 11.34341
1079.246, 11.35159
1079.729, 11.21358
1080.211, 11.08239
1080.693, 11.00088
1081.175, 10.99896
1081.657, 11.14218
1082.139, 11.43051
1082.621, 11.42152
1083.103, 11.10959
1083.585, 10.82511
1084.068, 10.77254
1084.550, 10.80081
1085.032, 10.76571
1085.514, 10.70793
1085.996, 10.70748
1086.478, 10.83174
1086.960, 10.88494
1087.442, 10.86019
1087.924, 10.76678
1088.406, 10.53605
1088.889, 10.27668
1089.371, 10.23558
1089.853, 10.38178
1090.335, 10.45069
1090.817, 10.21736
1091.299, 10.06644
1091.781, 10.13093
1092.263, 10.27761
1092.746, 10.24518
1093.228, 10.07235
1093.710, 9.940008
1094.192, 9.879502
1094.674, 9.857860
1095.156, 9.886523
1095.638, 9.918359
1096.120, 9.936749
1096.603, 9.934797
1097.085, 9.820643
1097.567, 9.586459
1098.049, 9.445336
1098.531, 9.496075
1099.013, 9.626267
1099.495, 9.807831
1099.977, 9.954627
1100.459, 9.939399
1100.942, 9.664512
1101.424, 9.475241
1101.906, 9.381425
1102.388, 9.341027
1102.870, 9.339905
1103.352, 9.365571
1103.834, 9.414074
1104.316, 9.469290
1104.798, 9.484397
1105.281, 9.437142
1105.763, 9.349337
1106.245, 9.199369
1106.727, 9.050216
1107.209, 8.975978
1107.691, 8.964862
1108.173, 8.989724
1108.655, 9.044176
1109.138, 9.069737
1109.620, 9.021753
1110.102, 8.948480
1110.584, 8.835813
1111.066, 8.729367
1111.548, 8.757475
1112.030, 8.916116
1112.512, 8.964536
1112.995, 8.844739
1113.477, 8.713369
1113.959, 8.738216
1114.441, 8.786974
1114.923, 8.715006
1115.405, 8.524867
1115.887, 8.483154
1116.369, 8.625136
1116.851, 8.709313
1117.333, 8.628769
1117.816, 8.496848
1118.298, 8.443510
1118.780, 8.445615
1119.262, 8.475804
1119.744, 8.547795
1120.226, 8.589952
1120.708, 8.601038
1121.190, 8.579199
1121.673, 8.490965
1122.155, 8.388035
1122.637, 8.427877
1123.119, 8.555615
1123.601, 8.619646
1124.083, 8.506495
1124.565, 8.395476
1125.047, 8.279108
1125.530, 8.219851
1126.012, 8.341229
1126.494, 8.583690
1126.976, 8.581423
1127.458, 8.350356
1127.940, 8.123429
1128.422, 7.990526
1128.904, 7.940251
1129.386, 8.010955
1129.869, 8.135103
1130.351, 8.216908
1130.833, 8.256786
1131.315, 8.276281
1131.797, 8.276424
1132.279, 8.282089
1132.761, 8.360982
1133.243, 8.410551
1133.725, 8.300906
1134.208, 8.084013
1134.690, 8.028062
1135.172, 8.154285
1135.654, 8.298209
1136.136, 8.440867
1136.618, 8.519248
1137.100, 8.392932
1137.582, 8.209712
1138.065, 8.128964
1138.547, 8.185205
1139.029, 8.288705
1139.511, 8.474691
1139.993, 8.578208
1140.475, 8.495795
1140.957, 8.358098
1141.439, 8.384069
1141.922, 8.498882
1142.404, 8.574162
1142.886, 8.564133
1143.368, 8.543926
1143.850, 8.496199
1144.332, 8.492353
1144.814, 8.619811
1145.296, 8.800202
1145.778, 8.803455
1146.260, 8.685241
1146.743, 8.608369
1147.225, 8.683840
1147.707, 8.744622
1148.189, 8.771238
1148.671, 8.768754
1149.153, 8.685421
1149.635, 8.570334
1150.117, 8.750180
1150.600, 9.175751
1151.082, 9.460439
1151.564, 9.273577
1152.046, 9.069376
1152.528, 8.982713
1153.010, 8.987597
1153.492, 9.096256
1153.974, 9.290562
1154.457, 9.323910
1154.939, 9.177383
1155.421, 9.094675
1155.903, 9.348435
1156.385, 9.607130
1156.867, 9.614580
1157.349, 9.497334
1157.831, 9.581176
1158.313, 9.871579
1158.796, 9.953045
1159.278, 9.729675
1159.760, 9.519251
1160.242, 9.592848
1160.724, 9.789219
1161.206, 10.04543
1161.688, 10.32497
1162.170, 10.37767
1162.652, 10.17508
1163.135, 10.05209
1163.617, 10.10705
1164.099, 10.25611
1164.581, 10.53032
1165.063, 10.77691
1165.545, 10.78301
1166.027, 10.49770
1166.509, 10.39972
1166.992, 10.52158
1167.474, 10.64580
1167.956, 10.68302
1168.438, 10.68304
1168.920, 10.72175
1169.402, 10.76123
1169.884, 10.73586
1170.366, 10.58720
1170.849, 10.53991
1171.331, 10.61975
1171.813, 10.71003
1172.295, 10.72698
1172.777, 10.73268
1173.259, 10.84854
1173.741, 11.02630
1174.223, 11.16944
1174.705, 11.28737
1175.188, 11.28562
1175.670, 11.11496
1176.152, 10.95309
1176.634, 10.98931
1177.116, 11.09891
1177.598, 10.96442
1178.080, 10.68617
1178.562, 10.57128
1179.044, 10.98535
1179.527, 11.14309
1180.009, 10.89954
1180.491, 10.56923
1180.973, 10.45000
1181.455, 10.47142
1181.937, 10.47844
1182.419, 10.47453
1182.901, 10.51013
1183.384, 10.66658
1183.866, 10.77188
1184.348, 10.77762
1184.830, 10.76094
1185.312, 10.83429
1185.794, 10.95886
1186.276, 11.04549
1186.758, 11.08518
1187.240, 11.05980
1187.723, 10.92504
1188.205, 10.75506
1188.687, 10.50915
1189.169, 10.31786
1189.651, 10.52302
1190.133, 10.95166
1190.615, 11.01478
1191.097, 10.63439
1191.579, 10.27955
1192.062, 10.14745
1192.544, 10.09596
1193.026, 10.09583
1193.508, 10.12453
1193.990, 10.14498
1194.472, 10.15228
1194.954, 10.12521
1195.436, 10.05733
1195.919, 9.980717
1196.401, 9.847326
1196.883, 9.791169
1197.365, 9.913064
1197.847, 10.11580
1198.329, 10.07179
1198.811, 9.853436
1199.293, 9.745443
1199.776, 9.832530
1200.258, 9.963751
1200.740, 10.19846
1201.222, 10.30874
1201.704, 10.12901
1202.186, 9.758051
1202.668, 9.560572
1203.150, 9.525565
1203.632, 9.641937
1204.115, 10.00609
1204.597, 10.22896
1205.079, 9.964862
1205.561, 9.668750
1206.043, 9.630038
1206.525, 9.779445
1207.007, 9.755424
1207.489, 9.593060
1207.971, 9.444733
1208.454, 9.351785
1208.936, 9.320650
1209.418, 9.412562
1209.900, 9.515576
1210.382, 9.562819
1210.864, 9.557750
1211.346, 9.498941
1211.828, 9.401272
1212.311, 9.341966
1212.793, 9.402592
1213.275, 9.434225
1213.757, 9.373759
1214.239, 9.269980
1214.721, 9.122128
1215.203, 8.951567
1215.685, 8.973971
1216.167, 9.146734
1216.650, 9.242794
1217.132, 9.045803
1217.614, 8.890383
1218.096, 8.902045
1218.578, 8.973616
1219.060, 9.021657
1219.542, 9.049174
1220.024, 9.085513
1220.506, 9.125179
1220.989, 9.136380
1221.471, 9.102004
1221.953, 9.034044
1222.435, 8.894738
1222.917, 8.772902
1223.399, 8.798327
1223.881, 8.926273
1224.363, 8.915572
1224.846, 8.780237
1225.328, 8.655614
1225.810, 8.590189
1226.292, 8.573344
1226.774, 8.623478
1227.256, 8.684632
1227.738, 8.676792
1228.220, 8.625232
1228.703, 8.612043
1229.185, 8.643191
1229.667, 8.724085
1230.149, 9.010660
1230.631, 9.121748
1231.113, 8.919447
1231.595, 8.608085
1232.077, 8.416430
1232.559, 8.332145
1233.042, 8.346230
1233.524, 8.447659
1234.006, 8.561299
1234.488, 8.707292
1234.970, 8.784431
1235.452, 8.763189
1235.934, 8.687131
1236.416, 8.580705
1236.898, 8.475129
1237.381, 8.464842
1237.863, 8.544256
1238.345, 8.583241
1238.827, 8.451221
1239.309, 8.423992
1239.791, 8.584126
1240.273, 8.785091
1240.755, 8.792160
1241.238, 8.718057
1241.720, 8.824711
1242.202, 9.106948
1242.684, 9.195872
1243.166, 8.828666
1243.648, 8.697184
1244.130, 9.001499
1244.612, 9.390774
1245.094, 9.369329
1245.577, 9.153277
1246.059, 9.078581
1246.541, 9.161410
1247.023, 9.159986
1247.505, 8.996817
1247.987, 8.918589
1248.469, 8.993652
1248.951, 9.108861
1249.433, 9.125499
1249.916, 9.098516
1250.398, 9.084508
1250.880, 9.090709
1251.362, 9.115907
1251.844, 9.157841
1252.326, 9.231490
1252.808, 9.349306
1253.290, 9.460329
1253.773, 9.506748
1254.255, 9.522073
1254.737, 9.538037
1255.219, 9.555211
1255.701, 9.562236
1256.183, 9.561300
1256.665, 9.521617
1257.147, 9.426886
1257.630, 9.346180
1258.112, 9.368100
1258.594, 9.411624
1259.076, 9.369534
1259.558, 9.284616
1260.040, 9.397754
1260.522, 9.704386
1261.004, 9.890314
1261.486, 9.879913
1261.969, 9.786695
1262.451, 9.603923
1262.933, 9.459596
1263.415, 9.451839
1263.897, 9.542500
1264.379, 9.602736
1264.861, 9.642776
1265.343, 9.775262
1265.825, 10.05027
1266.308, 10.19464
1266.790, 9.873459
1267.272, 9.576339
1267.754, 9.556436
1268.236, 9.711028
1268.718, 9.798798
1269.200, 9.828165
1269.682, 9.817824
1270.165, 9.766097
1270.647, 9.731776
1271.129, 9.793309
1271.611, 9.797045
1272.093, 9.653887
1272.575, 9.478222
1273.057, 9.523440
1273.539, 9.707310
1274.021, 9.865829
1274.504, 9.977400
1274.986, 9.980373
1275.468, 9.784806
1275.950, 9.666399
1276.432, 9.726852
1276.914, 9.858687
1277.396, 9.897932
1277.878, 9.896054
1278.360, 9.960765
1278.843, 10.11042
1279.325, 10.08921
1279.807, 9.840446
1280.289, 9.586658
1280.771, 9.359614
1281.253, 9.239675
1281.735, 9.434266
1282.217, 9.709682
1282.700, 9.778595
1283.182, 9.640285
1283.664, 9.663938
1284.146, 9.878355
1284.628, 9.879221
1285.110, 9.512006
1285.592, 9.173937
1286.074, 9.277269
1286.557, 9.496809
1287.039, 9.596300
1287.521, 9.591500
1288.003, 9.548060
1288.485, 9.468110
1288.967, 9.366927
1289.449, 9.242186
1289.931, 9.152326
1290.413, 9.117960
1290.896, 9.159331
1291.378, 9.341574
1291.860, 9.550171
1292.342, 9.418666
1292.824, 9.065723
1293.306, 8.935767
1293.788, 9.122676
1294.270, 9.240489
1294.752, 9.045290
1295.235, 8.874139
1295.717, 8.812385
1296.199, 8.824781
1296.681, 8.938539
1297.163, 9.047750
1297.645, 8.898777
1298.127, 8.461723
1298.609, 8.195047
1299.092, 8.188519
1299.574, 8.241900
1300.056, 8.326984
1300.538, 8.395600
1301.020, 8.364003
1301.502, 8.302018
1301.984, 8.327089
1302.466, 8.419157
1302.948, 8.318360
1303.431, 7.982224
1303.913, 7.760771
1304.395, 7.712396
1304.877, 7.832976
##END=



