##NAMES=Spessartine
##RRUFFID=R060177
##IDEAL CHEMISTRY=Mn^2+^_3_Al_2_(SiO_4_)_3_
##LOCALITY=Fujian Province, China
##OWNER=RRUFF
##SOURCE=Rock Currier
##DESCRIPTION=Orange trapezohedral crystals
##STATUS=The identification of this mineral has been confirmed by X-ray diffraction and chemical analysis
##URL=rruff.info/R060177
##MEASURED CHEMISTRY=(Mn_2.86_Fe^2+^_0.10_Ca_0.04_)_Î£=3_Al_2.00_(Si_1.00_O_4_)_3_
91.72394, 0.0000000E+00
92.20605, 94.07917
92.68817, 94.76416
93.17029, 95.71060
93.65240, 95.71992
94.13452, 95.44205
94.61664, 94.83801
95.09875, 93.95670
95.58087, 92.99979
96.06299, 92.33692
96.54510, 92.54295
97.02721, 92.17818
97.50933, 90.68141
97.99145, 88.64497
98.47356, 86.83425
98.95568, 85.71391
99.43780, 85.13750
99.91991, 84.77763
100.4020, 84.93934
100.8841, 85.00260
101.3663, 84.66122
101.8484, 83.94726
102.3305, 83.12280
102.8126, 82.43046
103.2947, 81.89077
103.7768, 81.43359
104.2590, 81.00256
104.7411, 80.66347
105.2232, 80.55412
105.7053, 80.74767
106.1874, 80.96529
106.6695, 80.70898
107.1517, 80.00476
107.6338, 79.47480
108.1159, 79.55334
108.5980, 80.10426
109.0801, 80.42624
109.5622, 80.23531
110.0444, 79.83330
110.5265, 79.42290
111.0086, 79.01566
111.4907, 78.69163
111.9728, 78.59511
112.4549, 78.83355
112.9371, 78.92410
113.4192, 78.73096
113.9013, 78.40099
114.3834, 78.00216
114.8655, 77.56287
115.3476, 77.11274
115.8298, 76.73975
116.3119, 76.52077
116.7940, 76.28689
117.2761, 75.89736
117.7582, 75.50764
118.2403, 75.33860
118.7225, 75.53479
119.2046, 76.05789
119.6867, 76.46273
120.1688, 76.75368
120.6509, 76.95311
121.1330, 77.04761
121.6152, 77.04907
122.0973, 76.99724
122.5794, 76.92338
123.0615, 76.81709
123.5436, 76.64772
124.0257, 76.26457
124.5079, 75.90168
124.9900, 75.85323
125.4721, 76.19089
125.9542, 76.52641
126.4363, 76.47980
126.9184, 76.15892
127.4006, 75.74758
127.8827, 75.07327
128.3648, 74.33298
128.8469, 74.22007
129.3290, 75.23624
129.8111, 76.28897
130.2932, 76.68845
130.7754, 76.54857
131.2575, 76.29047
131.7396, 76.21584
132.2217, 76.33192
132.7038, 76.57138
133.1859, 77.27982
133.6681, 77.84831
134.1502, 77.92742
134.6323, 77.52280
135.1144, 76.93699
135.5965, 76.57558
136.0786, 76.60200
136.5608, 76.52823
137.0429, 76.19373
137.5250, 75.87156
138.0071, 75.81065
138.4892, 76.07376
138.9713, 76.49342
139.4535, 76.71924
139.9356, 76.59943
140.4177, 76.48409
140.8998, 76.30400
141.3819, 76.15756
141.8640, 76.21740
142.3462, 76.58871
142.8283, 77.13558
143.3104, 77.44476
143.7925, 77.33224
144.2746, 77.34239
144.7567, 77.83122
145.2388, 78.68137
145.7210, 79.38536
146.2031, 79.63245
146.6852, 79.61172
147.1673, 79.73357
147.6494, 80.06682
148.1315, 80.46342
148.6137, 80.74873
149.0958, 80.89213
149.5779, 81.14593
150.0600, 81.79811
150.5421, 82.57363
151.0242, 83.20185
151.5064, 83.54642
151.9885, 83.75654
152.4706, 84.12307
152.9527, 84.68086
153.4348, 85.35753
153.9169, 86.13704
154.3991, 86.99331
154.8812, 87.91473
155.3633, 88.90248
155.8454, 89.93848
156.3275, 90.90313
156.8096, 91.76770
157.2918, 92.57305
157.7739, 93.48104
158.2560, 94.33189
158.7381, 94.82081
159.2202, 94.68135
159.7023, 93.88967
160.1845, 93.36130
160.6666, 93.34573
161.1487, 93.31373
161.6308, 93.06528
162.1129, 92.61973
162.5950, 92.10983
163.0772, 91.65596
163.5593, 91.26701
164.0414, 90.81450
164.5235, 90.06383
165.0056, 89.42620
165.4877, 89.25820
165.9698, 89.57529
166.4520, 90.02271
166.9341, 90.25358
167.4162, 90.26560
167.8983, 90.31344
168.3804, 90.56538
168.8625, 90.81141
169.3447, 90.70711
169.8268, 90.12220
170.3089, 89.52734
170.7910, 89.45052
171.2731, 89.77232
171.7552, 90.14397
172.2374, 90.43784
172.7195, 90.67901
173.2016, 90.96229
173.6837, 91.38758
174.1658, 91.70368
174.6479, 91.77673
175.1301, 91.62289
175.6122, 91.29707
176.0943, 90.74684
176.5764, 89.98539
177.0585, 89.37247
177.5406, 89.12648
178.0228, 88.85356
178.5049, 88.30843
178.9870, 87.53584
179.4691, 86.77424
179.9512, 86.33195
180.4333, 86.35217
180.9155, 86.01765
181.3976, 84.83293
181.8797, 83.69954
182.3618, 83.02573
182.8439, 82.84489
183.3260, 82.96499
183.8082, 83.20951
184.2903, 83.78658
184.7724, 83.90408
185.2545, 83.36349
185.7366, 82.61558
186.2187, 81.88194
186.7009, 81.23170
187.1830, 80.66513
187.6651, 80.18217
188.1472, 79.76292
188.6293, 79.50597
189.1114, 79.51071
189.5936, 79.61585
190.0757, 79.74377
190.5578, 79.86605
191.0399, 79.87659
191.5220, 79.54781
192.0041, 78.65759
192.4863, 78.05448
192.9684, 77.99178
193.4505, 78.21306
193.9326, 78.44646
194.4147, 78.63940
194.8968, 78.71722
195.3790, 78.43567
195.8611, 77.73534
196.3432, 77.24120
196.8253, 77.24480
197.3074, 77.58439
197.7895, 77.94038
198.2717, 78.28067
198.7538, 78.51176
199.2359, 78.48622
199.7180, 78.20292
200.2001, 77.91433
200.6822, 77.66231
201.1644, 77.48463
201.6465, 77.62778
202.1286, 78.47586
202.6107, 79.28282
203.0928, 79.19865
203.5749, 78.24117
204.0571, 77.45116
204.5392, 77.91219
205.0213, 79.60040
205.5034, 80.67549
205.9855, 80.34512
206.4676, 79.67524
206.9497, 79.22247
207.4319, 79.04390
207.9140, 79.04797
208.3961, 79.16022
208.8782, 79.38344
209.3603, 79.69893
209.8424, 80.31269
210.3246, 80.86585
210.8067, 81.13441
211.2888, 81.11816
211.7709, 81.01114
212.2530, 81.04235
212.7351, 81.25392
213.2173, 81.47303
213.6994, 81.66377
214.1815, 81.88315
214.6636, 82.21111
215.1457, 82.63184
215.6278, 83.02859
216.1100, 83.23486
216.5921, 83.14294
217.0742, 83.12255
217.5563, 83.33044
218.0384, 83.48290
218.5205, 83.37153
219.0027, 82.97964
219.4848, 82.45432
219.9669, 81.97031
220.4490, 81.44163
220.9311, 81.22557
221.4132, 81.53722
221.8954, 81.97798
222.3775, 82.35646
222.8596, 82.60194
223.3417, 82.59315
223.8238, 82.10245
224.3059, 80.72861
224.7881, 80.06063
225.2702, 80.85394
225.7523, 81.89072
226.2344, 82.06309
226.7165, 81.17995
227.1986, 79.89143
227.6807, 78.92403
228.1629, 78.32795
228.6450, 77.91789
229.1271, 77.84659
229.6092, 77.87708
230.0913, 77.78833
230.5734, 77.54195
231.0556, 77.17527
231.5377, 76.64445
232.0198, 75.95152
232.5019, 75.49077
232.9840, 75.66293
233.4661, 75.95914
233.9483, 75.64750
234.4304, 74.55130
234.9125, 73.35571
235.3946, 72.76374
235.8767, 72.65291
236.3588, 72.58554
236.8410, 72.42967
237.3231, 72.26176
237.8052, 72.30895
238.2873, 72.71961
238.7694, 72.87126
239.2515, 71.88670
239.7337, 70.23232
240.2158, 68.92717
240.6979, 68.39419
241.1800, 68.41038
241.6621, 68.68826
242.1442, 69.40210
242.6264, 69.88631
243.1085, 69.40539
243.5906, 68.45434
244.0727, 67.86213
244.5548, 68.23582
245.0369, 69.06316
245.5191, 69.14349
246.0012, 68.10391
246.4833, 67.20219
246.9654, 67.23955
247.4475, 67.72414
247.9296, 68.00948
248.4117, 67.78315
248.8939, 67.23190
249.3760, 66.73756
249.8581, 66.25471
250.3402, 65.94488
250.8223, 66.05356
251.3044, 66.27582
251.7866, 66.23695
252.2687, 65.73265
252.7508, 64.99522
253.2329, 64.55566
253.7150, 64.54721
254.1971, 64.58466
254.6793, 64.50969
255.1614, 64.45198
255.6435, 64.60256
256.1256, 65.05455
256.6077, 65.57798
257.0898, 65.65198
257.5720, 64.99217
258.0541, 64.42625
258.5362, 64.07864
259.0183, 63.86347
259.5004, 63.75387
259.9825, 63.73447
260.4647, 63.71332
260.9468, 63.47681
261.4289, 62.76117
261.9110, 62.36556
262.3931, 62.41685
262.8752, 62.69895
263.3574, 63.17690
263.8395, 63.79493
264.3216, 64.31019
264.8037, 64.24403
265.2858, 62.94053
265.7679, 62.40611
266.2501, 63.35381
266.7322, 64.45433
267.2143, 64.71050
267.6964, 63.99731
268.1785, 62.95420
268.6606, 62.42453
269.1428, 62.58371
269.6249, 62.85109
270.1070, 63.34133
270.5891, 63.82859
271.0712, 64.24473
271.5533, 64.54378
272.0355, 64.61545
272.5176, 64.26113
272.9997, 63.22615
273.4818, 62.91845
273.9639, 63.91420
274.4460, 64.98243
274.9282, 65.44213
275.4103, 65.33318
275.8924, 65.10315
276.3745, 65.15212
276.8566, 65.51189
277.3387, 65.86392
277.8208, 66.27510
278.3029, 66.62037
278.7851, 66.77137
279.2672, 66.79729
279.7493, 66.90379
280.2314, 67.25817
280.7135, 67.84834
281.1956, 68.31485
281.6778, 68.71703
282.1599, 68.96741
282.6420, 68.84774
283.1241, 68.54906
283.6062, 68.49068
284.0883, 68.94035
284.5705, 69.80933
285.0526, 70.56729
285.5347, 71.28091
286.0168, 71.83415
286.4989, 72.13976
286.9810, 72.27386
287.4632, 72.32629
287.9453, 72.32080
288.4274, 72.32755
288.9095, 72.56290
289.3916, 73.15187
289.8737, 73.76003
290.3559, 74.49545
290.8380, 75.17278
291.3201, 75.42673
291.8022, 75.10720
292.2843, 74.62024
292.7664, 74.75014
293.2486, 75.89026
293.7307, 76.69714
294.2128, 76.75907
294.6949, 76.55618
295.1770, 76.64160
295.6591, 77.14380
296.1413, 77.74390
296.6234, 78.03155
297.1055, 77.90903
297.5876, 77.83496
298.0697, 77.71912
298.5518, 77.72388
299.0340, 78.06564
299.5161, 78.74498
299.9982, 79.48343
300.4803, 80.04951
300.9624, 80.41959
301.4445, 80.62667
301.9267, 80.54971
302.4088, 80.41075
302.8909, 80.29797
303.3730, 80.23615
303.8551, 80.30665
304.3372, 80.60605
304.8194, 81.09825
305.3015, 81.44411
305.7836, 81.67961
306.2657, 81.75513
306.7478, 81.49629
307.2299, 81.03134
307.7121, 80.74849
308.1942, 80.87137
308.6763, 81.29346
309.1584, 81.64256
309.6405, 81.83871
310.1227, 82.09560
310.6048, 82.53299
311.0869, 83.07198
311.5690, 83.54247
312.0511, 83.86460
312.5332, 84.14474
313.0154, 84.65433
313.4975, 85.59856
313.9796, 86.14512
314.4617, 85.64670
314.9438, 84.83996
315.4259, 84.73942
315.9081, 85.60800
316.3902, 86.87215
316.8723, 87.86114
317.3544, 88.53179
317.8365, 89.19704
318.3186, 90.11101
318.8007, 90.88777
319.2828, 90.99186
319.7650, 90.42083
320.2471, 89.92277
320.7292, 90.18629
321.2113, 91.23976
321.6934, 92.11604
322.1755, 92.78226
322.6577, 93.31201
323.1398, 93.73558
323.6219, 94.05793
324.1040, 94.25737
324.5861, 94.24745
325.0682, 94.13745
325.5504, 94.46159
326.0325, 95.59020
326.5146, 96.66845
326.9967, 97.41728
327.4788, 97.89986
327.9609, 98.19656
328.4431, 98.29472
328.9252, 98.35467
329.4073, 98.80585
329.8894, 99.90367
330.3715, 100.7786
330.8536, 101.2196
331.3358, 101.3673
331.8179, 101.3539
332.3000, 101.2123
332.7821, 101.0215
333.2642, 100.8930
333.7463, 100.8656
334.2285, 100.7463
334.7106, 100.3367
335.1927, 99.96388
335.6748, 100.0055
336.1569, 100.4432
336.6390, 100.8085
337.1212, 100.6507
337.6033, 99.93993
338.0854, 99.49712
338.5675, 99.65041
339.0496, 99.72121
339.5317, 99.22466
340.0139, 98.34283
340.4960, 97.65228
340.9781, 97.52415
341.4602, 97.82202
341.9423, 97.86414
342.4244, 97.37314
342.9066, 96.99990
343.3887, 97.04729
343.8708, 97.24696
344.3529, 97.21268
344.8350, 96.79649
345.3171, 96.11453
345.7993, 95.37560
346.2814, 94.47988
346.7635, 93.70615
347.2456, 93.05228
347.7277, 92.52932
348.2098, 92.23510
348.6920, 92.14754
349.1741, 92.01453
349.6562, 91.50401
350.1383, 90.43702
350.6204, 89.93643
351.1025, 90.38557
351.5847, 90.94648
352.0668, 91.30595
352.5489, 91.42299
353.0310, 91.29129
353.5131, 90.87040
353.9952, 90.20776
354.4774, 89.79809
354.9595, 89.85854
355.4416, 89.91784
355.9237, 89.85069
356.4058, 89.74016
356.8879, 89.74720
357.3701, 89.94501
357.8522, 90.19109
358.3343, 90.14330
358.8164, 89.49736
359.2985, 89.01940
359.7806, 88.75078
360.2627, 88.62197
360.7448, 88.64970
361.2270, 88.79951
361.7091, 88.92306
362.1912, 88.82715
362.6733, 88.44173
363.1554, 88.14706
363.6375, 88.19876
364.1197, 88.09394
364.6018, 87.45494
365.0839, 86.47019
365.5660, 85.61845
366.0481, 85.24792
366.5302, 85.30974
367.0124, 85.44184
367.4945, 85.85424
367.9766, 86.05106
368.4587, 85.88645
368.9408, 85.48519
369.4229, 85.01054
369.9051, 84.53280
370.3872, 83.95661
370.8693, 82.99493
371.3514, 81.29508
371.8335, 80.14340
372.3156, 80.05324
372.7978, 80.24554
373.2799, 80.34565
373.7620, 80.26134
374.2441, 79.97955
374.7262, 79.46101
375.2083, 78.70060
375.6905, 77.84039
376.1726, 76.72240
376.6547, 75.68426
377.1368, 74.98234
377.6189, 74.45951
378.1010, 73.76830
378.5832, 72.60647
379.0653, 71.22729
379.5474, 70.36311
380.0295, 70.23324
380.5116, 70.04126
380.9937, 69.45766
381.4759, 68.68225
381.9580, 67.87001
382.4401, 67.04977
382.9222, 66.25144
383.4043, 65.50672
383.8864, 64.81400
384.3686, 64.16142
384.8507, 63.46377
385.3328, 62.91078
385.8149, 62.79116
386.2970, 63.03609
386.7791, 63.03617
387.2613, 62.25159
387.7434, 61.00659
388.2255, 60.06786
388.7076, 59.53145
389.1897, 59.14980
389.6718, 58.85264
390.1540, 58.57820
390.6361, 58.18797
391.1182, 57.59553
391.6003, 56.94044
392.0824, 56.28932
392.5645, 55.65524
393.0467, 55.19282
393.5288, 55.02398
394.0109, 55.00898
394.4930, 54.92774
394.9751, 54.83180
395.4572, 54.51000
395.9394, 53.57660
396.4215, 52.44330
396.9036, 51.85030
397.3857, 51.97010
397.8678, 52.39985
398.3499, 52.83822
398.8321, 53.28502
399.3142, 53.30467
399.7963, 52.55197
400.2784, 51.63147
400.7605, 50.90988
401.2426, 50.39091
401.7247, 49.97654
402.2068, 49.61188
402.6890, 49.30310
403.1711, 49.09297
403.6532, 49.08474
404.1353, 49.02983
404.6174, 48.85225
405.0995, 48.61720
405.5817, 48.43299
406.0638, 48.32627
406.5459, 48.18172
407.0280, 47.81094
407.5101, 47.06732
407.9922, 46.58207
408.4744, 46.45613
408.9565, 46.46386
409.4386, 46.57718
409.9207, 46.72547
410.4028, 46.75536
410.8849, 46.53721
411.3671, 46.11885
411.8492, 45.86631
412.3313, 45.99453
412.8134, 46.02625
413.2955, 45.82051
413.7776, 45.52430
414.2598, 45.32871
414.7419, 45.28783
415.2240, 45.24638
415.7061, 44.93380
416.1882, 44.23586
416.6703, 43.66063
417.1525, 43.16568
417.6346, 42.86308
418.1167, 42.93003
418.5988, 43.26408
419.0809, 43.57037
419.5630, 43.68648
420.0452, 43.60199
420.5273, 43.19116
421.0094, 42.17473
421.4915, 41.43465
421.9736, 41.56789
422.4557, 42.02602
422.9379, 42.20008
423.4200, 41.89629
423.9021, 41.47208
424.3842, 41.32954
424.8663, 41.45546
425.3484, 41.51350
425.8306, 41.44344
426.3127, 41.26755
426.7948, 40.94717
427.2769, 40.51571
427.7590, 40.19743
428.2411, 40.24202
428.7233, 40.39174
429.2054, 40.19110
429.6875, 39.59670
430.1696, 39.03351
430.6517, 38.75253
431.1339, 38.70579
431.6160, 38.69342
432.0981, 38.73493
432.5802, 38.77908
433.0623, 38.81252
433.5444, 38.82907
434.0266, 38.80317
434.5087, 38.72123
434.9908, 38.63991
435.4729, 38.67085
435.9550, 38.88554
436.4371, 38.84918
436.9193, 38.17493
437.4014, 37.54616
437.8835, 37.54579
438.3656, 38.06284
438.8477, 38.56030
439.3298, 38.68650
439.8120, 38.50481
440.2941, 38.35107
440.7762, 38.30117
441.2583, 38.18353
441.7404, 37.86613
442.2225, 37.53204
442.7046, 37.35582
443.1867, 37.38593
443.6689, 37.57892
444.1510, 37.91028
444.6331, 38.43539
445.1152, 38.82421
445.5973, 39.02052
446.0794, 39.13224
446.5616, 39.20603
447.0437, 39.21866
447.5258, 39.08326
448.0079, 38.71292
448.4900, 38.27174
448.9721, 38.20244
449.4543, 38.64567
449.9364, 39.05710
450.4185, 39.25707
450.9006, 39.41714
451.3827, 39.70034
451.8648, 40.10816
452.3470, 40.42994
452.8291, 40.41642
453.3112, 40.15870
453.7933, 40.06348
454.2754, 40.18559
454.7575, 40.39221
455.2397, 40.64917
455.7218, 40.92344
456.2039, 41.15315
456.6860, 41.29518
457.1681, 41.42969
457.6502, 41.63552
458.1324, 41.89597
458.6145, 42.12501
459.0966, 42.27040
459.5787, 42.42318
460.0608, 42.78899
460.5429, 43.40729
461.0251, 43.79939
461.5072, 43.65516
461.9893, 43.40342
462.4714, 43.50133
462.9535, 43.91127
463.4356, 44.19042
463.9178, 43.99048
464.3999, 43.45180
464.8820, 43.35332
465.3641, 44.24586
465.8462, 44.84396
466.3283, 44.69787
466.8105, 44.31195
467.2926, 44.27863
467.7747, 44.70862
468.2568, 45.22737
468.7389, 45.37543
469.2210, 45.08033
469.7032, 44.90017
470.1853, 44.89098
470.6674, 44.94180
471.1495, 45.02037
471.6316, 45.13878
472.1137, 45.34937
472.5959, 45.69017
473.0780, 46.04345
473.5601, 46.18554
474.0422, 46.09075
474.5243, 45.89335
475.0064, 45.48426
475.4886, 45.08594
475.9707, 44.82072
476.4528, 44.69151
476.9349, 44.65211
477.4170, 44.78888
477.8991, 44.97388
478.3813, 44.87083
478.8634, 44.43094
479.3455, 43.99503
479.8276, 43.73709
480.3097, 43.59338
480.7918, 43.44288
481.2740, 43.27114
481.7561, 43.12106
482.2382, 42.99256
482.7203, 42.90584
483.2024, 42.93259
483.6845, 43.09339
484.1666, 43.23338
484.6487, 43.18249
485.1309, 42.93307
485.6130, 42.80738
486.0951, 43.00553
486.5772, 43.10755
487.0593, 42.71566
487.5414, 42.14304
488.0236, 42.02028
488.5057, 42.59630
488.9878, 43.49099
489.4699, 44.03579
489.9520, 44.12292
490.4341, 44.11317
490.9163, 43.92255
491.3984, 43.72995
491.8805, 43.57959
492.3626, 43.50370
492.8447, 43.57781
493.3268, 43.88449
493.8090, 44.29716
494.2911, 44.39387
494.7732, 43.99088
495.2553, 43.77240
495.7374, 44.27177
496.2195, 44.75125
496.7017, 44.53996
497.1838, 43.65575
497.6659, 42.88020
498.1480, 42.92022
498.6301, 43.47798
499.1122, 43.71659
499.5944, 43.55774
500.0765, 43.30682
500.5586, 43.02287
501.0407, 42.80497
501.5228, 42.87064
502.0049, 43.38045
502.4871, 43.84563
502.9692, 43.99260
503.4513, 43.93976
503.9334, 43.90471
504.4155, 43.93486
504.8976, 43.94903
505.3798, 43.87478
505.8619, 43.70773
506.3440, 43.45321
506.8261, 42.90180
507.3082, 42.50405
507.7903, 42.54387
508.2725, 42.81055
508.7546, 42.97090
509.2367, 42.90198
509.7188, 42.73267
510.2009, 42.69196
510.6830, 42.88492
511.1652, 42.85009
511.6473, 42.13987
512.1294, 41.64578
512.6115, 41.87359
513.0936, 42.56226
513.5757, 43.18752
514.0579, 43.50071
514.5400, 43.56925
515.0221, 43.44610
515.5042, 43.08575
515.9863, 42.87653
516.4684, 42.93465
516.9506, 43.15631
517.4327, 43.50523
517.9148, 43.95382
518.3969, 44.31635
518.8790, 44.41569
519.3611, 44.44411
519.8433, 44.62852
520.3254, 44.97185
520.8075, 45.46472
521.2896, 46.16653
521.7717, 46.94221
522.2538, 47.42220
522.7360, 47.46138
523.2181, 47.67828
523.7002, 48.36316
524.1823, 49.13650
524.6644, 49.55305
525.1465, 49.67418
525.6287, 49.98505
526.1108, 50.85844
526.5929, 52.18122
527.0750, 53.39408
527.5571, 54.57862
528.0392, 55.49796
528.5214, 56.07836
529.0035, 56.44480
529.4856, 56.47823
529.9677, 56.30230
530.4498, 56.48020
530.9319, 57.68569
531.4141, 59.70343
531.8962, 61.20832
532.3783, 62.03286
532.8604, 62.71901
533.3425, 63.55882
533.8246, 64.34515
534.3068, 64.79366
534.7889, 64.80932
535.2710, 64.86953
535.7531, 65.27938
536.2352, 65.95729
536.7173, 66.80955
537.1995, 67.84493
537.6816, 68.78360
538.1637, 69.43518
538.6458, 69.80135
539.1279, 69.95547
539.6100, 69.88548
540.0922, 69.64304
540.5743, 69.06910
541.0564, 68.41030
541.5385, 67.96022
542.0206, 67.78223
542.5027, 67.80515
542.9849, 68.02808
543.4670, 68.46841
543.9491, 68.33748
544.4312, 67.28967
544.9133, 66.04391
545.3954, 64.63543
545.8775, 63.15432
546.3596, 61.68855
546.8417, 60.26175
547.3239, 58.85547
547.8060, 57.43734
548.2881, 56.01372
548.7702, 54.74971
549.2523, 53.73399
549.7344, 52.70889
550.2166, 51.36253
550.6987, 49.94441
551.1808, 48.87734
551.6629, 48.36822
552.1450, 47.90731
552.6271, 47.17079
553.1093, 46.25291
553.5914, 45.30873
554.0735, 44.36645
554.5556, 43.50780
555.0377, 42.81382
555.5198, 42.28168
556.0020, 41.80384
556.4841, 41.48820
556.9662, 41.08882
557.4483, 40.43850
557.9304, 39.71360
558.4125, 39.08527
558.8947, 38.61402
559.3768, 38.36068
559.8589, 38.47306
560.3410, 38.96656
560.8231, 39.08318
561.3052, 38.59858
561.7874, 38.04504
562.2695, 37.47994
562.7516, 36.99928
563.2337, 36.77782
563.7158, 36.87659
564.1979, 36.92896
564.6801, 36.47975
565.1622, 35.72315
565.6443, 35.37211
566.1264, 35.57673
566.6085, 35.76504
567.0906, 35.45132
567.5728, 34.82164
568.0549, 34.60619
568.5370, 35.18249
569.0191, 35.57710
569.5012, 35.30306
569.9833, 34.74330
570.4655, 34.33280
570.9476, 34.15491
571.4297, 34.11364
571.9118, 34.14573
572.3939, 34.23862
572.8760, 34.22932
573.3582, 34.03893
573.8403, 33.84839
574.3224, 33.67781
574.8045, 33.51982
575.2866, 33.29874
575.7687, 33.04222
576.2509, 32.96540
576.7330, 33.42388
577.2151, 34.20939
577.6972, 34.46622
578.1793, 34.09111
578.6614, 33.62556
579.1436, 33.21739
579.6257, 32.91278
580.1078, 32.79569
580.5899, 32.90405
581.0720, 32.98074
581.5541, 32.85163
582.0363, 32.68935
582.5184, 32.71330
583.0005, 32.91063
583.4826, 33.10006
583.9647, 33.16581
584.4468, 33.17097
584.9290, 33.30769
585.4111, 33.81345
585.8932, 34.07272
586.3753, 34.04652
586.8574, 33.82665
587.3395, 33.27746
587.8217, 32.57906
588.3038, 32.18353
588.7859, 32.40962
589.2680, 32.96137
589.7501, 33.17628
590.2322, 32.99575
590.7144, 32.91563
591.1965, 33.20240
591.6786, 33.42281
592.1607, 33.06969
592.6428, 32.29386
593.1249, 31.80004
593.6071, 31.96961
594.0892, 32.35691
594.5713, 32.72120
595.0534, 33.00958
595.5355, 33.01549
596.0176, 32.65166
596.4998, 32.22456
596.9819, 32.16103
597.4640, 32.57663
597.9461, 32.63208
598.4282, 31.93179
598.9103, 31.37885
599.3925, 31.36675
599.8746, 31.63020
600.3567, 31.81509
600.8388, 31.81148
601.3209, 31.73292
601.8030, 31.71401
602.2852, 31.75021
602.7673, 31.71646
603.2494, 31.54693
603.7315, 31.44808
604.2136, 31.57838
604.6957, 31.82395
605.1779, 32.06131
605.6600, 32.30085
606.1421, 32.43404
606.6242, 32.33677
607.1063, 32.13461
607.5884, 31.98364
608.0706, 31.90492
608.5527, 31.90750
609.0348, 32.01475
609.5169, 32.18200
609.9990, 32.25094
610.4811, 32.04641
610.9633, 32.00506
611.4454, 32.33353
611.9275, 32.64639
612.4096, 32.58900
612.8917, 32.28748
613.3738, 32.16523
613.8560, 32.50469
614.3381, 33.06651
614.8202, 33.43931
615.3023, 33.62823
615.7844, 33.52421
616.2665, 32.85568
616.7487, 32.23893
617.2308, 32.32728
617.7129, 32.94918
618.1950, 33.46011
618.6771, 33.73292
619.1592, 33.85484
619.6414, 33.83600
620.1235, 33.71191
620.6056, 33.50653
621.0877, 33.23588
621.5698, 33.02935
622.0519, 33.03587
622.5341, 33.25724
623.0162, 33.43481
623.4983, 33.60852
623.9804, 33.68059
624.4625, 33.56816
624.9446, 33.39152
625.4268, 33.21214
625.9089, 33.06532
626.3910, 33.05270
626.8730, 33.44212
627.3552, 33.97754
627.8373, 33.86930
628.3194, 33.05441
628.8015, 32.45879
629.2836, 32.55888
629.7657, 32.93050
630.2479, 32.89252
630.7300, 32.42824
631.2121, 31.93363
631.6942, 31.44109
632.1763, 30.95767
632.6584, 30.46558
633.1406, 29.98725
633.6227, 29.53180
634.1048, 29.10916
634.5869, 28.81638
635.0690, 28.86631
635.5511, 29.35183
636.0333, 29.51522
636.5154, 29.17406
636.9975, 28.74994
637.4796, 28.28632
637.9617, 27.88742
638.4438, 27.75438
638.9260, 27.96171
639.4081, 28.07325
639.8902, 27.57923
640.3723, 26.86041
640.8544, 26.72613
641.3365, 27.20741
641.8187, 27.52217
642.3008, 27.17338
642.7829, 26.46208
643.2650, 26.14219
643.7471, 26.49395
644.2292, 26.72241
644.7114, 26.81035
645.1935, 26.79285
645.6756, 26.62124
646.1577, 26.37028
646.6398, 26.17814
647.1219, 26.10997
647.6041, 26.11183
648.0862, 26.13043
648.5683, 26.16422
649.0504, 26.11682
649.5325, 25.94232
650.0146, 25.77099
650.4968, 25.77118
650.9789, 25.81549
651.4610, 25.58453
651.9431, 24.83979
652.4252, 24.30641
652.9073, 24.47195
653.3895, 24.87159
653.8716, 24.94819
654.3537, 24.70800
654.8358, 24.51608
655.3179, 24.61165
655.8000, 24.89135
656.2822, 25.06203
656.7643, 25.06599
657.2464, 25.10748
657.7285, 25.25704
658.2106, 25.39431
658.6927, 25.50415
659.1749, 25.55527
659.6570, 25.46277
660.1391, 25.13672
660.6212, 24.82701
661.1033, 24.86338
661.5854, 25.08432
662.0676, 25.00395
662.5497, 24.53758
663.0318, 24.09058
663.5139, 23.97531
663.9960, 24.11914
664.4781, 24.16509
664.9603, 24.00111
665.4424, 23.89325
665.9245, 23.90959
666.4066, 23.93498
666.8887, 23.90775
667.3708, 23.81821
667.8530, 23.64291
668.3351, 23.33674
668.8172, 23.05201
669.2993, 23.11015
669.7814, 23.49099
670.2635, 23.65080
670.7457, 23.40881
671.2278, 23.18830
671.7099, 23.44046
672.1920, 23.99104
672.6741, 24.09451
673.1563, 23.31112
673.6384, 22.75201
674.1205, 22.88152
674.6026, 23.29705
675.0847, 23.69468
675.5668, 23.99375
676.0490, 24.14560
676.5311, 24.11563
677.0132, 23.93214
677.4953, 23.59174
677.9774, 22.98657
678.4595, 22.76245
678.9417, 23.26448
679.4238, 23.83237
679.9059, 24.07584
680.3880, 24.07042
680.8701, 23.96443
681.3522, 23.73861
681.8344, 23.52084
682.3165, 23.34156
682.7986, 23.23585
683.2807, 23.30372
683.7628, 23.52624
684.2449, 23.72318
684.7271, 23.77306
685.2092, 23.70606
685.6913, 23.61631
686.1734, 23.50428
686.6555, 23.36864
687.1376, 22.97367
687.6198, 22.78868
688.1019, 23.27319
688.5840, 24.08960
689.0661, 24.54560
689.5482, 24.35693
690.0303, 23.95417
690.5125, 23.61823
690.9946, 23.35756
691.4767, 23.20986
691.9588, 23.17580
692.4409, 23.16941
692.9230, 23.11950
693.4052, 23.08300
693.8873, 23.23954
694.3694, 23.81069
694.8515, 24.16859
695.3336, 24.23990
695.8157, 24.18857
696.2979, 24.00774
696.7800, 23.78628
697.2621, 23.68018
697.7442, 23.75497
698.2263, 23.86929
698.7084, 23.86940
699.1906, 23.79084
699.6727, 23.74856
700.1548, 23.75338
700.6369, 23.77304
701.1190, 23.77034
701.6011, 23.79233
702.0833, 23.95061
702.5654, 24.27332
703.0475, 24.67622
703.5296, 25.44549
704.0117, 26.00332
704.4938, 25.90546
704.9760, 25.43262
705.4581, 25.02658
705.9402, 24.84531
706.4223, 24.84144
706.9044, 25.04040
707.3865, 25.38583
707.8687, 25.61523
708.3508, 25.70726
708.8329, 25.78965
709.3149, 25.94466
709.7971, 26.09418
710.2792, 26.07497
710.7613, 25.83735
711.2434, 25.71173
711.7255, 25.77607
712.2076, 25.89706
712.6898, 26.00941
713.1719, 26.13538
713.6540, 26.33842
714.1361, 26.62394
714.6182, 26.88613
715.1003, 27.01939
715.5825, 27.04278
716.0646, 27.06179
716.5467, 27.09613
717.0288, 26.95173
717.5109, 26.40332
717.9930, 25.85910
718.4752, 25.92114
718.9573, 26.56945
719.4394, 26.99119
719.9215, 26.89976
720.4036, 26.82205
720.8857, 27.03822
721.3679, 27.35568
721.8500, 27.55776
722.3321, 27.59762
722.8142, 27.50374
723.2963, 27.24645
723.7784, 26.94103
724.2606, 27.01418
724.7427, 27.53471
725.2248, 27.72088
725.7069, 27.23899
726.1890, 26.66958
726.6711, 26.55508
727.1533, 26.80268
727.6354, 26.96174
728.1175, 27.03094
728.5996, 26.97991
729.0817, 26.69070
729.5638, 26.35383
730.0460, 26.12005
730.5281, 26.01901
731.0102, 26.08340
731.4923, 26.35522
731.9744, 26.66825
732.4565, 26.67007
732.9387, 26.35276
733.4208, 26.20092
733.9029, 26.38492
734.3850, 26.40527
734.8671, 25.72198
735.3492, 24.73640
735.8314, 24.48533
736.3135, 25.28651
736.7956, 25.90954
737.2777, 26.09122
737.7598, 26.02672
738.2419, 25.74876
738.7241, 25.35768
739.2062, 24.98959
739.6883, 24.69836
740.1704, 24.52869
740.6525, 24.59160
741.1346, 24.85061
741.6168, 24.98811
742.0989, 24.97355
742.5810, 24.97174
743.0631, 25.00563
743.5452, 25.13232
744.0273, 25.55946
744.5095, 26.34049
744.9916, 26.64790
745.4737, 26.10515
745.9558, 25.42993
746.4379, 24.66287
746.9200, 24.07715
747.4022, 24.15508
747.8843, 24.85331
748.3664, 25.47971
748.8485, 25.44035
749.3306, 25.01267
749.8127, 24.87627
750.2949, 25.03240
750.7770, 25.06896
751.2591, 24.86782
751.7412, 24.60823
752.2233, 24.45101
752.7054, 24.23018
753.1876, 23.97881
753.6697, 23.82885
754.1518, 23.53361
754.6339, 23.31121
755.1160, 23.22004
755.5981, 23.41583
756.0803, 23.76910
756.5624, 23.97396
757.0445, 23.88690
757.5266, 23.66389
758.0087, 23.42065
758.4908, 23.19704
758.9730, 23.20987
759.4551, 23.49093
759.9372, 23.68029
760.4193, 23.54102
760.9014, 23.28901
761.3835, 23.36206
761.8657, 23.92394
762.3478, 24.26127
762.8299, 24.32366
763.3120, 24.23768
763.7941, 23.85773
764.2762, 23.45786
764.7584, 23.41514
765.2405, 23.75377
765.7226, 24.05698
766.2047, 24.01977
766.6868, 23.79808
767.1689, 23.52298
767.6511, 23.24526
768.1332, 23.24009
768.6153, 23.58933
769.0974, 23.99885
769.5795, 24.19367
770.0616, 24.19525
770.5438, 24.16453
771.0259, 24.06924
771.5080, 23.99879
771.9901, 23.85985
772.4722, 23.84258
772.9543, 24.24717
773.4365, 24.83735
773.9186, 25.03006
774.4007, 24.54727
774.8828, 24.00282
775.3649, 23.72734
775.8470, 23.67900
776.3292, 23.93918
776.8113, 24.40205
777.2934, 24.61374
777.7755, 24.34667
778.2576, 23.92465
778.7397, 23.87570
779.2219, 24.22546
779.7040, 24.66114
780.1861, 25.37155
780.6682, 25.77061
781.1503, 25.29784
781.6324, 24.66032
782.1146, 24.71921
782.5967, 25.45234
783.0788, 25.90974
783.5609, 25.57473
784.0430, 25.23210
784.5251, 25.37851
785.0073, 25.72562
785.4894, 25.90182
785.9715, 25.84916
786.4536, 25.66617
786.9357, 25.38846
787.4178, 25.12139
787.9000, 25.15191
788.3821, 25.47699
788.8642, 25.63030
789.3463, 25.45971
789.8284, 25.44400
790.3105, 26.01628
790.7927, 26.90699
791.2747, 27.34949
791.7568, 27.20401
792.2390, 26.98780
792.7211, 26.58825
793.2032, 26.27195
793.6853, 26.17628
794.1674, 26.24504
794.6495, 26.44762
795.1317, 26.75233
795.6138, 26.96408
796.0959, 26.78547
796.5780, 26.49344
797.0601, 26.63594
797.5422, 27.12283
798.0244, 27.46253
798.5065, 27.51546
798.9886, 27.52835
799.4707, 27.75533
799.9528, 28.14658
800.4349, 28.31379
800.9171, 28.05598
801.3992, 27.97735
801.8813, 28.35003
802.3634, 28.71428
802.8455, 28.84256
803.3276, 28.78872
803.8098, 28.61765
804.2919, 28.24397
804.7740, 28.14274
805.2561, 28.87741
805.7382, 29.75472
806.2203, 30.02827
806.7025, 29.83171
807.1846, 29.59900
807.6667, 29.50077
808.1488, 29.51297
808.6309, 29.63437
809.1130, 29.84168
809.5952, 29.97258
810.0773, 30.00958
810.5594, 30.08545
811.0415, 30.26185
811.5236, 30.44370
812.0057, 30.53498
812.4879, 30.54279
812.9700, 30.55750
813.4521, 30.58986
813.9342, 30.61354
814.4163, 30.61128
814.8984, 30.61040
815.3806, 30.65422
815.8627, 30.71139
816.3448, 30.66897
816.8269, 30.46817
817.3090, 30.37694
817.7911, 30.73480
818.2733, 31.34383
818.7554, 31.86397
819.2375, 32.26783
819.7196, 32.47258
820.2017, 32.43035
820.6838, 32.39428
821.1660, 32.71247
821.6481, 33.37006
822.1302, 33.78990
822.6123, 33.89447
823.0944, 33.92736
823.5765, 33.78971
824.0587, 33.73680
824.5408, 33.99541
825.0229, 34.48606
825.5050, 34.95674
825.9871, 35.36240
826.4692, 35.74370
826.9514, 36.04615
827.4335, 36.39054
827.9156, 36.99658
828.3977, 37.72206
828.8798, 38.16666
829.3619, 38.19037
829.8441, 38.17779
830.3262, 38.59586
830.8083, 39.33752
831.2904, 40.05017
831.7725, 40.72877
832.2546, 41.28459
832.7368, 41.67566
833.2189, 41.96873
833.7010, 42.18511
834.1831, 42.35282
834.6652, 42.83209
835.1473, 43.94680
835.6295, 44.84578
836.1116, 45.34995
836.5937, 45.74636
837.0758, 46.18614
837.5579, 46.64181
838.0400, 47.03475
838.5222, 47.33392
839.0043, 47.64186
839.4864, 47.92341
839.9685, 48.31373
840.4506, 49.06856
840.9327, 50.02006
841.4149, 50.73861
841.8970, 51.12072
842.3791, 51.51984
842.8612, 52.37396
843.3433, 52.45993
843.8254, 53.64392
844.3076, 53.00053
844.7897, 52.72890
845.2718, 53.17135
845.7539, 53.68473
846.2360, 53.78374
846.7181, 53.58273
847.2003, 53.46978
847.6824, 53.46610
848.1645, 53.51291
848.6466, 53.65365
849.1287, 53.79324
849.6108, 53.94146
850.0930, 54.03983
850.5751, 53.99048
851.0572, 53.78759
851.5393, 53.58865
852.0214, 53.49395
852.5035, 53.41610
852.9857, 53.29501
853.4678, 53.12982
853.9499, 52.87213
854.4320, 52.55056
854.9141, 52.34269
855.3962, 52.38755
855.8784, 52.53420
856.3605, 52.44751
856.8426, 52.13685
857.3247, 51.95481
857.8068, 51.94421
858.2889, 51.98062
858.7711, 52.04450
859.2532, 52.06319
859.7353, 51.89541
860.2174, 51.49655
860.6995, 51.24254
861.1816, 51.21521
861.6638, 51.21816
862.1459, 51.26044
862.6280, 51.28214
863.1101, 51.20390
863.5922, 51.06218
864.0743, 50.94944
864.5565, 50.80178
865.0386, 50.93927
865.5207, 51.96770
866.0028, 53.10459
866.4849, 53.23581
866.9670, 52.66396
867.4492, 52.42106
867.9313, 52.88337
868.4134, 53.62347
868.8955, 54.17556
869.3776, 54.61227
869.8597, 55.27813
870.3419, 56.17421
870.8240, 56.78511
871.3061, 56.92436
871.7882, 57.06213
872.2703, 57.59491
872.7524, 58.42543
873.2346, 59.15775
873.7166, 59.58893
874.1987, 60.32546
874.6808, 61.82177
875.1630, 63.10547
875.6451, 63.59597
876.1272, 63.80332
876.6093, 64.41241
877.0914, 65.48470
877.5735, 66.49545
878.0557, 66.90514
878.5378, 67.60745
879.0199, 69.36689
879.5020, 71.56847
879.9841, 73.54340
880.4662, 75.18098
880.9484, 76.52213
881.4305, 77.54138
881.9126, 78.60831
882.3947, 80.18443
882.8768, 82.20588
883.3589, 84.57589
883.8411, 87.24555
884.3232, 89.72248
884.8053, 91.77576
885.2874, 93.86959
885.7695, 96.57281
886.2516, 99.83162
886.7338, 102.9592
887.2159, 105.8443
887.6980, 108.9317
888.1801, 112.3682
888.6622, 115.9226
889.1443, 119.2193
889.6265, 122.6036
890.1086, 127.0068
890.5907, 132.8575
891.0728, 138.3841
891.5549, 143.0424
892.0370, 147.6846
892.5192, 152.7635
893.0013, 158.0224
893.4834, 163.0361
893.9655, 167.8369
894.4476, 172.7818
894.9297, 178.0237
895.4119, 183.5609
895.8940, 189.6165
896.3761, 195.8366
896.8582, 201.5137
897.3403, 206.6644
897.8224, 211.8374
898.3046, 217.2613
898.7867, 222.6489
899.2688, 227.4594
899.7509, 231.8486
900.2330, 237.1668
900.7151, 243.5006
901.1973, 249.0134
901.6794, 253.1815
902.1615, 256.6674
902.6436, 260.0752
903.1257, 263.2690
903.6078, 265.6635
904.0900, 267.2348
904.5721, 268.0774
905.0542, 268.3097
905.5363, 267.6430
906.0184, 265.8511
906.5005, 263.2020
906.9827, 260.1547
907.4648, 256.7275
907.9469, 252.0329
908.4290, 245.3198
908.9111, 237.9927
909.3932, 230.4489
909.8754, 222.7889
910.3575, 215.0690
910.8396, 207.2966
911.3217, 199.3144
911.8038, 191.0609
912.2859, 182.9092
912.7681, 175.0941
913.2502, 167.5965
913.7323, 160.4128
914.2144, 153.5655
914.6965, 147.1340
915.1786, 141.1018
915.6608, 135.0475
916.1429, 128.5076
916.6250, 121.8599
917.1071, 115.9463
917.5892, 110.7590
918.0714, 106.2674
918.5535, 102.5093
919.0356, 99.05052
919.5177, 95.71935
919.9998, 92.43513
920.4819, 89.05142
920.9641, 85.52023
921.4462, 82.22160
921.9283, 79.10832
922.4104, 76.30653
922.8925, 74.03242
923.3746, 71.89335
923.8568, 69.67305
924.3389, 67.41180
924.8210, 65.16792
925.3031, 62.84423
925.7852, 60.91568
926.2673, 59.81815
926.7495, 58.80410
927.2316, 57.49126
927.7137, 56.00544
928.1958, 54.50773
928.6779, 53.03119
929.1600, 51.52726
929.6422, 49.85545
930.1243, 48.42329
930.6064, 47.85314
931.0885, 47.59229
931.5706, 46.67785
932.0527, 45.26443
932.5349, 44.15432
933.0170, 43.63974
933.4991, 43.34248
933.9812, 42.91695
934.4633, 42.36521
934.9454, 41.62112
935.4276, 40.71821
935.9097, 39.99004
936.3918, 39.50342
936.8739, 39.16640
937.3560, 38.94431
937.8381, 38.76744
938.3203, 38.49370
938.8024, 38.11515
939.2845, 37.70117
939.7666, 37.26080
940.2487, 36.74357
940.7308, 36.01553
941.2130, 35.35783
941.6951, 35.08046
942.1772, 35.10783
942.6593, 35.01148
943.1414, 34.67139
943.6235, 34.42540
944.1057, 34.47346
944.5878, 34.40444
945.0699, 33.95155
945.5520, 33.33270
946.0341, 32.78997
946.5162, 32.35312
946.9984, 31.99580
947.4805, 31.86316
947.9626, 31.60390
948.4447, 30.86055
948.9268, 30.06767
949.4089, 29.60518
949.8911, 29.45926
950.3732, 29.59680
950.8553, 29.98547
951.3374, 30.17679
951.8195, 29.54991
952.3016, 28.72741
952.7838, 28.61136
953.2659, 28.91796
953.7480, 29.01135
954.2301, 28.80231
954.7122, 28.49715
955.1943, 28.20962
955.6764, 27.94351
956.1585, 27.74240
956.6406, 27.57238
957.1227, 27.17555
957.6049, 26.56169
958.0870, 26.27687
958.5691, 26.50782
959.0512, 26.74654
959.5333, 26.51584
960.0154, 26.00412
960.4976, 25.92741
960.9797, 26.45354
961.4618, 26.47256
961.9439, 25.70791
962.4260, 25.09194
962.9081, 25.08361
963.3903, 25.28806
963.8724, 25.20483
964.3545, 24.85640
964.8366, 24.76875
965.3187, 25.38541
965.8008, 25.55466
966.2830, 24.75194
966.7651, 24.01177
967.2472, 23.88390
967.7293, 24.08571
968.2114, 24.23173
968.6935, 24.29140
969.1757, 24.24387
969.6578, 24.01731
970.1399, 23.77036
970.6220, 23.46965
971.1041, 23.25071
971.5862, 23.31721
972.0684, 23.53835
972.5505, 23.61757
973.0326, 23.46681
973.5147, 23.24521
973.9968, 22.92282
974.4789, 22.68883
974.9611, 22.84677
975.4432, 23.12057
975.9253, 23.02707
976.4074, 22.61641
976.8895, 22.35128
977.3716, 22.47647
977.8538, 22.68444
978.3359, 22.66016
978.8180, 22.49041
979.3001, 22.29040
979.7822, 22.08371
980.2643, 21.86957
980.7465, 21.67746
981.2286, 21.78378
981.7107, 22.45373
982.1928, 23.22677
982.6749, 23.03935
983.1570, 22.11836
983.6392, 21.85738
984.1213, 22.30484
984.6034, 22.76644
985.0855, 23.01177
985.5676, 23.10135
986.0497, 23.09411
986.5319, 22.97990
987.0140, 22.63483
987.4961, 21.97694
987.9782, 21.82303
988.4603, 22.38721
988.9424, 22.81996
989.4246, 22.68751
989.9067, 22.39619
990.3888, 22.45183
990.8709, 22.83300
991.3530, 23.23503
991.8351, 23.86376
992.3173, 24.01206
992.7994, 23.19090
993.2815, 22.51495
993.7636, 22.67866
994.2457, 23.22477
994.7278, 23.43558
995.2100, 23.27804
995.6921, 23.30718
996.1742, 23.73345
996.6563, 24.05647
997.1384, 24.15771
997.6205, 24.17848
998.1027, 24.08598
998.5848, 24.01834
999.0669, 24.23284
999.5490, 24.77678
1000.031, 25.30938
1000.513, 25.85394
1000.995, 26.23173
1001.477, 26.27535
1001.960, 26.20183
1002.442, 26.10337
1002.924, 26.06377
1003.406, 26.25944
1003.888, 26.75208
1004.370, 27.18323
1004.852, 27.35090
1005.334, 27.41856
1005.817, 27.44457
1006.299, 27.47428
1006.781, 27.49982
1007.263, 27.58109
1007.745, 27.90126
1008.227, 28.54722
1008.709, 29.19815
1009.191, 29.49302
1009.673, 29.74644
1010.156, 30.43965
1010.638, 31.30362
1011.120, 31.75957
1011.602, 31.82309
1012.084, 32.00776
1012.566, 32.58772
1013.048, 33.23609
1013.530, 33.59858
1014.013, 33.76554
1014.495, 33.75550
1014.977, 33.71570
1015.459, 34.21630
1015.941, 35.27150
1016.423, 36.14892
1016.905, 36.38111
1017.387, 36.26006
1017.869, 36.14277
1018.352, 36.05345
1018.834, 36.11195
1019.316, 36.29820
1019.798, 36.43052
1020.280, 36.46928
1020.762, 36.60111
1021.244, 36.97568
1021.726, 37.46512
1022.208, 37.89018
1022.691, 38.22792
1023.173, 38.14150
1023.655, 37.61610
1024.137, 37.09746
1024.619, 36.71791
1025.101, 36.27031
1025.583, 35.55614
1026.065, 34.72805
1026.547, 34.21544
1027.030, 34.05141
1027.512, 33.81775
1027.994, 33.52802
1028.476, 33.04630
1028.958, 32.29094
1029.440, 31.47595
1029.922, 30.81703
1030.404, 30.21221
1030.887, 29.28968
1031.369, 28.59372
1031.851, 27.97156
1032.333, 26.91162
1032.815, 26.62522
1033.297, 25.68232
1033.779, 24.69391
1034.261, 24.21770
1034.744, 24.12850
1035.226, 23.97119
1035.708, 23.74281
1036.190, 23.44419
1036.672, 22.98942
1037.154, 22.62993
1037.636, 22.50310
1038.118, 22.42845
1038.600, 22.25795
1039.083, 22.00552
1039.565, 21.71781
1040.047, 21.34620
1040.529, 21.06505
1041.011, 21.01915
1041.493, 20.86108
1041.975, 20.31346
1042.457, 19.77003
1042.939, 19.62201
1043.422, 19.76591
1043.904, 19.82041
1044.386, 19.74439
1044.868, 19.66541
1045.350, 19.65577
1045.832, 19.55745
1046.314, 19.23689
1046.796, 18.88014
1047.279, 18.60184
1047.761, 18.42590
1048.243, 18.43036
1048.725, 18.73171
1049.207, 18.89266
1049.689, 18.75589
1050.171, 18.59741
1050.653, 18.43986
1051.135, 18.36580
1051.618, 18.59335
1052.100, 18.95162
1052.582, 18.88348
1053.064, 18.13567
1053.546, 17.60051
1054.028, 17.54966
1054.510, 17.63990
1054.992, 17.81285
1055.474, 17.99662
1055.957, 18.21894
1056.439, 18.39100
1056.921, 18.24569
1057.403, 17.64610
1057.885, 17.18307
1058.367, 16.97845
1058.849, 17.00043
1059.331, 17.51724
1059.814, 18.01732
1060.296, 17.93538
1060.778, 17.47424
1061.260, 17.20275
1061.742, 17.25448
1062.224, 17.38235
1062.706, 17.59836
1063.188, 17.74982
1063.671, 17.70669
1064.153, 17.61795
1064.635, 17.65736
1065.117, 17.75365
1065.599, 17.71530
1066.081, 17.49499
1066.563, 17.25928
1067.045, 17.01125
1067.527, 16.84122
1068.010, 16.76194
1068.492, 16.80716
1068.974, 17.14755
1069.456, 17.58837
1069.938, 17.74624
1070.420, 17.54311
1070.902, 17.24568
1071.384, 16.86473
1071.866, 16.54462
1072.349, 16.35612
1072.831, 16.25585
1073.313, 16.18883
1073.795, 16.18699
1074.277, 16.38557
1074.759, 16.77709
1075.241, 16.97938
1075.723, 16.70928
1076.206, 16.38684
1076.688, 16.15012
1077.170, 16.00532
1077.652, 16.05534
1078.134, 16.15227
1078.616, 15.99307
1079.098, 15.58867
1079.580, 15.37509
1080.062, 15.56578
1080.545, 15.89814
1081.027, 16.51801
1081.509, 16.95523
1081.991, 16.67012
1082.473, 16.08341
1082.955, 15.75749
1083.437, 15.76176
1083.919, 15.94649
1084.401, 16.39980
1084.884, 16.65648
1085.366, 16.29950
1085.848, 15.89259
1086.330, 15.76369
1086.812, 15.84512
1087.294, 16.17183
1087.776, 16.60851
1088.258, 16.70915
1088.740, 16.24198
1089.223, 15.83416
1089.705, 15.70500
1090.187, 15.75709
1090.669, 16.17952
1091.151, 16.56155
1091.633, 16.35019
1092.115, 15.74232
1092.597, 15.36502
1093.080, 15.37926
1093.562, 15.53199
1094.044, 15.92274
1094.526, 16.18499
1095.008, 16.06567
1095.490, 15.80688
1095.972, 15.52674
1096.454, 15.31079
1096.937, 15.32485
1097.419, 15.60623
1097.901, 15.81135
1098.383, 15.79610
1098.865, 15.73753
1099.347, 15.66825
1099.829, 15.60868
1100.311, 15.58387
1100.793, 15.57261
1101.276, 15.50474
1101.758, 15.38683
1102.240, 15.41380
1102.722, 15.84571
1103.204, 16.10780
1103.686, 15.93081
1104.168, 15.70119
1104.650, 15.64261
1105.132, 15.64703
1105.615, 15.55876
1106.097, 15.39005
1106.579, 15.28038
1107.061, 15.28322
1107.543, 15.27667
1108.025, 15.17085
1108.507, 15.14127
1108.989, 15.37623
1109.472, 15.61905
1109.954, 15.55653
1110.436, 15.30278
1110.918, 15.29257
1111.400, 15.72013
1111.882, 15.83123
1112.364, 15.16490
1112.846, 14.73997
1113.328, 15.03912
1113.811, 15.41366
1114.293, 15.37445
1114.775, 15.11146
1115.257, 15.00539
1115.739, 15.07338
1116.221, 15.17201
1116.703, 15.37680
1117.185, 15.48094
1117.667, 15.38968
1118.150, 15.28919
1118.632, 15.23188
1119.114, 15.25741
1119.596, 15.48969
1120.078, 15.89749
1120.560, 15.96339
1121.042, 15.48188
1121.524, 15.16071
1122.007, 15.06525
1122.489, 15.06277
1122.971, 15.11170
1123.453, 15.23638
1123.935, 15.53138
1124.417, 15.88012
1124.899, 15.78932
1125.381, 15.08220
1125.864, 14.78940
1126.346, 15.04406
1126.828, 15.18456
1127.310, 14.97667
1127.792, 14.87420
1128.274, 15.27565
1128.756, 15.05941
1129.238, 15.77256
1129.720, 15.13241
1130.203, 14.89867
1130.685, 15.11113
1131.167, 15.31739
1131.649, 15.45523
1132.131, 15.46561
1132.613, 15.30059
1133.095, 15.10669
1133.577, 15.06784
1134.059, 15.15775
1134.542, 15.31024
1135.024, 15.51383
1135.506, 15.63371
1135.988, 15.65459
1136.470, 15.46105
1136.952, 15.01975
1137.434, 14.67822
1137.916, 14.73775
1138.399, 15.03735
1138.881, 15.35150
1139.363, 15.63751
1139.845, 15.75524
1140.327, 15.70812
1140.809, 15.47472
1141.291, 15.09100
1141.773, 14.76786
1142.255, 14.61476
1142.738, 14.65520
1143.220, 15.04379
1143.702, 15.55002
1144.184, 15.78179
1144.666, 15.82579
1145.148, 15.83940
1145.630, 15.84587
1146.112, 15.84666
1146.594, 15.83611
1147.077, 15.74800
1147.559, 15.44652
1148.041, 15.21460
1148.523, 15.41889
1149.005, 15.77156
1149.487, 16.00992
1149.969, 16.09643
1150.451, 15.97681
1150.934, 15.68329
1151.416, 15.33433
1151.898, 14.91113
1152.380, 14.73372
1152.862, 15.32231
1153.344, 15.82922
1153.826, 15.54985
1154.308, 14.99456
1154.791, 14.58681
1155.273, 14.42034
1155.755, 14.63842
1156.237, 15.29362
1156.719, 15.76955
1157.201, 15.78285
1157.683, 15.74302
1158.165, 15.63306
1158.647, 15.65753
1159.130, 16.14097
1159.612, 16.70901
1160.094, 16.80246
1160.576, 16.45613
1161.058, 16.22334
1161.540, 16.22803
1162.022, 16.17078
1162.504, 16.07176
1162.986, 15.86385
1163.469, 15.34110
1163.951, 14.95120
1164.433, 15.12598
1164.915, 15.62200
1165.397, 15.87448
1165.879, 15.86031
1166.361, 15.83327
1166.843, 15.77814
1167.325, 15.76995
1167.808, 15.82926
1168.290, 15.91898
1168.772, 16.05338
1169.254, 16.09194
1169.736, 15.83237
1170.218, 15.38105
1170.700, 15.14737
1171.182, 15.12958
1171.665, 15.23417
1172.147, 15.45463
1172.629, 15.80102
1173.111, 16.27159
1173.593, 16.54882
1174.075, 16.39863
1174.557, 16.07340
1175.039, 15.90899
1175.521, 15.89299
1176.004, 16.10477
1176.486, 16.41285
1176.968, 16.32201
1177.450, 15.89127
1177.932, 15.68369
1178.414, 15.88605
1178.896, 16.10112
1179.378, 15.96047
1179.860, 15.80405
1180.343, 16.15414
1180.825, 15.98556
1181.307, 16.47754
1181.789, 16.09229
1182.271, 15.99858
1182.753, 16.21994
1183.235, 16.42195
1183.717, 16.48199
1184.200, 16.48881
1184.682, 16.48382
1185.164, 16.44458
1185.646, 16.35936
1186.128, 16.23400
1186.610, 15.98408
1187.092, 15.73680
1187.574, 15.78264
1188.057, 16.13401
1188.539, 16.28976
1189.021, 15.90660
1189.503, 15.74248
1189.985, 16.14883
1190.467, 16.43034
1190.949, 16.20795
1191.431, 15.90469
1191.913, 15.87728
1192.396, 16.05126
1192.878, 16.24246
1193.360, 16.46161
1193.842, 16.61836
1194.324, 16.74245
1194.806, 16.67318
1195.288, 16.35010
1195.770, 15.94021
1196.252, 15.46529
1196.735, 15.22083
1197.217, 15.62641
1197.699, 16.40374
1198.181, 16.60663
1198.663, 16.30967
1199.145, 16.20086
1199.627, 16.29237
1200.109, 16.43452
1200.592, 16.57402
1201.074, 16.54398
1201.556, 16.23605
1202.038, 15.98384
1202.520, 16.32140
1203.002, 16.84068
1203.484, 16.81341
1203.966, 16.51224
1204.448, 16.44899
1204.931, 16.54908
1205.413, 16.41619
1205.895, 16.01694
1206.377, 15.81144
1206.859, 16.06780
1207.341, 16.46878
1207.823, 17.00854
1208.305, 17.40456
1208.787, 17.37831
1209.270, 17.17426
1209.752, 16.93411
1210.234, 16.77079
1210.716, 16.97054
1211.198, 17.61490
1211.680, 17.88796
1212.162, 17.14637
1212.644, 16.84158
1213.127, 17.72888
1213.609, 18.33902
1214.091, 17.91822
1214.573, 17.23119
1215.055, 16.99261
1215.537, 17.07834
1216.019, 17.10209
1216.501, 17.04528
1216.984, 17.12826
1217.466, 17.39804
1217.948, 17.44843
1218.430, 17.17602
1218.912, 17.05053
1219.394, 17.31739
1219.876, 17.61543
1220.358, 17.51847
1220.840, 17.22849
1221.323, 17.21866
1221.805, 17.41656
1222.287, 17.70533
1222.769, 17.96563
1223.251, 17.70500
1223.733, 16.96679
1224.215, 16.42458
1224.697, 16.39496
1225.179, 16.60385
1225.662, 16.96958
1226.144, 17.29944
1226.626, 17.38980
1227.108, 17.37345
1227.590, 17.37500
1228.072, 17.38205
1228.554, 17.36975
1229.036, 17.32293
1229.519, 17.18976
1230.001, 16.91713
1230.483, 16.69086
1230.965, 16.51439
1231.447, 16.44436
1231.929, 16.69536
1232.411, 16.83501
1232.893, 16.47552
1233.375, 15.95336
1233.858, 15.74951
1234.340, 15.83144
1234.822, 15.91808
1235.304, 16.02163
1235.786, 16.04809
1236.268, 15.95996
1236.750, 16.03535
1237.232, 16.36341
1237.714, 16.71313
1238.197, 16.95038
1238.679, 17.02740
1239.161, 16.79974
1239.643, 16.44442
1240.125, 16.48077
1240.607, 16.77895
1241.089, 16.98883
1241.571, 17.08827
1242.054, 17.11165
1242.536, 17.08395
1243.018, 17.07985
1243.500, 17.14886
1243.982, 17.17108
1244.464, 17.05099
1244.946, 16.85546
1245.428, 16.43452
1245.910, 16.14654
1246.393, 16.50629
1246.875, 17.17068
1247.357, 17.51373
1247.839, 17.49772
1248.321, 17.53994
1248.803, 17.80622
1249.285, 17.90432
1249.767, 17.73430
1250.250, 17.51246
1250.732, 17.19184
1251.214, 17.00841
1251.696, 17.16476
1252.178, 17.43925
1252.660, 17.49537
1253.142, 17.38117
1253.624, 17.36526
1254.106, 17.44547
1254.589, 17.55675
1255.071, 17.67985
1255.553, 17.51504
1256.035, 17.03305
1256.517, 16.78351
1256.999, 17.08990
1257.481, 17.39307
1257.963, 16.83652
1258.445, 17.44190
1258.928, 16.86873
1259.410, 17.96107
1259.892, 18.45712
1260.374, 18.45346
1260.856, 18.16405
1261.338, 17.75559
1261.820, 17.65849
1262.302, 18.08158
1262.785, 18.39938
1263.267, 18.28827
1263.749, 18.22564
1264.231, 18.53275
1264.713, 18.73141
1265.195, 18.53948
1265.677, 18.09407
1266.159, 17.39825
1266.641, 16.63255
1267.124, 16.58936
1267.606, 17.39360
1268.088, 17.94560
1268.570, 18.24227
1269.052, 18.27385
1269.534, 18.03424
1270.016, 17.86823
1270.498, 17.93202
1270.980, 17.82467
1271.463, 17.07045
1271.945, 17.21746
1272.427, 16.34226
1272.909, 16.86033
1273.391, 16.72643
1273.873, 16.28365
1274.355, 16.29510
1274.837, 16.67010
1275.320, 16.81729
1275.802, 16.58814
1276.284, 16.35818
1276.766, 16.25354
1277.248, 16.22075
1277.730, 16.34856
1278.212, 16.40899
1278.694, 16.26176
1279.177, 16.02999
1279.659, 15.73833
1280.141, 15.49632
1280.623, 15.54404
1281.105, 15.86219
1281.587, 16.00359
1282.069, 15.93799
1282.551, 15.94761
1283.033, 16.05755
1283.516, 16.09787
1283.998, 16.02287
1284.480, 15.88212
1284.962, 15.69751
1285.444, 15.62992
1285.926, 15.84209
##END=



