##NAMES=Sphalerite
##RRUFFID=R060005
##IDEAL CHEMISTRY=Zn^2+^S^2-^
##LOCALITY=Trinacria mine, Lake Poopo, Oruro, Bolivia
##OWNER=RRUFF
##SOURCE=University of Arizona Mineral Museum
##DESCRIPTION=Steel gray crystal associated with franckeite R050431
##STATUS=The identification of this mineral has been confirmed by X-ray diffraction and chemical analysis
##URL=rruff.info/R060005
##MEASURED CHEMISTRY=Zn_0.82_Fe_0.18_S
129.5650, 81.51031
130.0471, 82.04335
130.5292, 82.33681
131.0113, 82.28560
131.4935, 81.97239
131.9756, 81.73804
132.4577, 81.67144
132.9398, 81.74344
133.4219, 81.90568
133.9040, 82.16605
134.3862, 82.44660
134.8683, 82.60842
135.3504, 82.65502
135.8325, 82.84637
136.3146, 83.29525
136.7967, 83.97616
137.2789, 84.72387
137.7610, 85.62226
138.2431, 86.41192
138.7252, 86.73643
139.2073, 86.54975
139.6894, 86.13862
140.1716, 85.49090
140.6537, 84.51656
141.1358, 83.98473
141.6179, 83.99979
142.1000, 84.33459
142.5821, 84.57304
143.0643, 84.69472
143.5464, 84.77222
144.0285, 84.80758
144.5106, 84.70827
144.9927, 84.82362
145.4748, 85.27455
145.9570, 85.91691
146.4391, 86.31225
146.9212, 86.37090
147.4033, 86.29984
147.8854, 86.18238
148.3675, 85.91835
148.8497, 85.76228
149.3318, 85.71175
149.8139, 85.76883
150.2960, 85.96304
150.7781, 86.46826
151.2602, 86.98054
151.7424, 87.33112
152.2245, 87.33253
152.7066, 87.38763
153.1887, 87.56483
153.6708, 87.84734
154.1529, 88.04860
154.6351, 88.21003
155.1172, 88.25832
155.5993, 88.14634
156.0814, 87.66964
156.5635, 87.23560
157.0456, 86.91584
157.5278, 86.71538
158.0099, 86.59064
158.4920, 86.48105
158.9741, 86.46535
159.4562, 86.61234
159.9383, 87.21517
160.4205, 87.73319
160.9026, 87.93986
161.3847, 87.80912
161.8668, 87.67992
162.3489, 87.67824
162.8310, 87.73923
163.3132, 87.78709
163.7953, 87.73856
164.2774, 87.71409
164.7595, 87.81035
165.2416, 88.05905
165.7237, 88.24165
166.2059, 88.17162
166.6880, 87.97833
167.1701, 87.85911
167.6522, 87.88203
168.1343, 88.01720
168.6164, 88.31390
169.0985, 88.84109
169.5807, 89.23191
170.0628, 89.14487
170.5449, 88.74889
171.0270, 88.37305
171.5091, 88.16481
171.9912, 88.06345
172.4734, 88.03803
172.9555, 88.11565
173.4376, 88.16708
173.9197, 88.04887
174.4018, 87.81047
174.8839, 87.58611
175.3661, 87.47150
175.8482, 87.41084
176.3303, 87.33266
176.8124, 87.22088
177.2945, 87.09879
177.7766, 86.98048
178.2588, 86.86801
178.7409, 86.77691
179.2230, 86.76406
179.7051, 86.77110
180.1872, 86.67794
180.6693, 86.43225
181.1515, 86.13620
181.6336, 85.92429
182.1157, 85.79034
182.5978, 85.69108
183.0799, 85.60306
183.5620, 85.52596
184.0442, 85.46213
184.5263, 85.41563
185.0084, 85.37642
185.4905, 85.35570
185.9726, 85.35007
186.4547, 85.27502
186.9369, 85.04129
187.4190, 84.67506
187.9011, 84.27943
188.3832, 83.82983
188.8653, 83.40180
189.3474, 83.20009
189.8296, 83.23068
190.3117, 83.29040
190.7938, 83.19597
191.2759, 82.96774
191.7580, 82.76126
192.2401, 82.60796
192.7223, 82.49913
193.2044, 82.39288
193.6865, 82.28096
194.1686, 82.22478
194.6507, 82.37210
195.1328, 82.70511
195.6150, 82.80545
196.0971, 82.48838
196.5792, 81.88189
197.0613, 81.47721
197.5434, 81.28492
198.0255, 81.23933
198.5077, 81.32997
198.9898, 81.56386
199.4719, 81.75307
199.9540, 81.85777
200.4361, 81.88228
200.9182, 81.83452
201.4004, 81.69861
201.8825, 81.54167
202.3646, 81.43567
202.8467, 81.38932
203.3288, 81.33106
203.8109, 81.22468
204.2931, 81.08507
204.7752, 81.01608
205.2573, 80.99169
205.7394, 81.09966
206.2215, 81.55588
206.7036, 82.48600
207.1858, 83.06442
207.6679, 82.97830
208.1500, 82.28404
208.6321, 81.87045
209.1142, 81.81249
209.5963, 81.89359
210.0785, 81.86425
210.5606, 81.66901
211.0427, 81.57868
211.5248, 81.70021
212.0069, 82.02640
212.4890, 82.21352
212.9712, 82.22102
213.4533, 82.15350
213.9354, 82.13159
214.4175, 82.18217
214.8996, 82.19500
215.3817, 82.12873
215.8639, 81.98346
216.3460, 81.88533
216.8281, 81.84776
217.3102, 81.83814
217.7923, 81.82087
218.2744, 81.79028
218.7565, 81.76791
219.2387, 81.78181
219.7208, 81.83570
220.2029, 81.75356
220.6850, 81.45661
221.1671, 81.11744
221.6492, 80.94027
222.1314, 80.99129
222.6135, 81.05116
223.0956, 81.08091
223.5777, 81.08191
224.0598, 81.02878
224.5419, 80.89199
225.0241, 80.73367
225.5062, 80.61577
225.9883, 80.54481
226.4704, 80.50777
226.9525, 80.54391
227.4346, 80.66427
227.9168, 80.56598
228.3989, 80.09184
228.8810, 79.56666
229.3631, 79.35167
229.8452, 79.60319
230.3273, 79.85623
230.8095, 80.03993
231.2916, 80.15603
231.7737, 80.15080
232.2558, 79.96329
232.7379, 79.71825
233.2200, 79.54874
233.7022, 79.51044
234.1843, 79.43658
234.6664, 79.26884
235.1485, 79.00623
235.6306, 78.84647
236.1127, 78.85155
236.5949, 78.89371
237.0770, 78.84306
237.5591, 78.62495
238.0412, 78.46046
238.5233, 78.41114
239.0054, 78.47693
239.4876, 78.48302
239.9697, 78.37639
240.4518, 78.26823
240.9339, 78.26823
241.4160, 78.45866
241.8981, 78.59451
242.3803, 78.62022
242.8624, 78.53925
243.3445, 78.47222
243.8266, 78.38905
244.3087, 78.35206
244.7908, 78.43182
245.2730, 78.73431
245.7551, 78.93157
246.2372, 78.91550
246.7193, 78.71192
247.2014, 78.70738
247.6835, 79.03957
248.1657, 79.40245
248.6478, 79.54960
249.1299, 79.37305
249.6120, 79.21364
250.0941, 79.09382
250.5762, 79.01904
251.0584, 79.04671
251.5405, 79.24364
252.0226, 79.45484
252.5047, 79.56780
252.9868, 79.54484
253.4689, 79.51624
253.9511, 79.48626
254.4332, 79.46114
254.9153, 79.47694
255.3974, 79.55842
255.8795, 79.64590
256.3616, 79.70564
256.8438, 79.74299
257.3259, 79.73723
257.8080, 79.65780
258.2901, 79.53633
258.7722, 79.48612
259.2543, 79.49219
259.7365, 79.59425
260.2186, 79.85403
260.7007, 80.37324
261.1828, 80.72372
261.6649, 80.83024
262.1470, 80.76714
262.6292, 80.75416
263.1113, 80.78969
263.5934, 80.87570
264.0755, 81.02880
264.5576, 81.28421
265.0397, 81.47092
265.5219, 81.54185
266.0040, 81.57108
266.4861, 81.75923
266.9682, 82.18121
267.4503, 82.57507
267.9324, 82.78941
268.4146, 82.76936
268.8967, 82.84875
269.3788, 83.04574
269.8609, 83.32628
270.3430, 83.61945
270.8251, 83.91337
271.3073, 84.25855
271.7894, 84.67651
272.2715, 85.17193
272.7536, 85.68304
273.2357, 86.20636
273.7178, 86.74055
274.2000, 87.29768
274.6821, 87.88097
275.1642, 88.45124
275.6463, 88.96208
276.1284, 89.41242
276.6105, 90.02946
277.0927, 90.85856
277.5748, 91.75489
278.0569, 92.50943
278.5390, 93.09362
279.0211, 93.75861
279.5032, 94.62986
279.9854, 95.66486
280.4675, 96.50021
280.9496, 97.07959
281.4317, 97.65114
281.9138, 98.50275
282.3959, 99.64442
282.8781, 100.8127
283.3602, 101.9493
283.8423, 103.0646
284.3244, 104.1370
284.8065, 105.1519
285.2886, 106.2463
285.7708, 107.6324
286.2529, 109.2868
286.7350, 110.7490
287.2171, 111.8235
287.6992, 112.7170
288.1813, 114.0116
288.6635, 115.7264
289.1456, 117.5533
289.6277, 119.2840
290.1098, 120.9317
290.5919, 122.5191
291.0740, 124.0412
291.5562, 125.5436
292.0383, 127.1440
292.5204, 128.8455
293.0025, 130.4230
293.4846, 131.7857
293.9667, 132.9277
294.4489, 133.8151
294.9310, 134.4195
295.4131, 134.8154
295.8952, 135.1093
296.3773, 135.2913
296.8594, 135.3023
297.3416, 135.1211
297.8237, 134.7453
298.3058, 134.1540
298.7879, 133.3308
299.2700, 132.3562
299.7521, 131.2956
300.2343, 130.1599
300.7164, 129.0368
301.1985, 127.9294
301.6806, 126.8565
302.1627, 125.8581
302.6448, 124.9249
303.1270, 124.0735
303.6091, 123.3915
304.0912, 122.7975
304.5733, 122.0908
305.0554, 121.0409
305.5375, 119.9236
306.0197, 119.0831
306.5018, 118.5103
306.9839, 117.9888
307.4660, 117.3745
307.9481, 116.7141
308.4302, 116.0740
308.9124, 115.4433
309.3945, 114.8638
309.8766, 114.3915
310.3587, 114.0077
310.8408, 113.6359
311.3229, 113.1484
311.8051, 112.6830
312.2872, 112.3964
312.7693, 112.3637
313.2514, 112.4444
313.7335, 112.5593
314.2156, 112.7227
314.6978, 112.9755
315.1799, 113.2786
315.6620, 113.7163
316.1441, 114.3823
316.6262, 115.3947
317.1083, 116.3600
317.5905, 117.1400
318.0726, 117.7537
318.5547, 118.2453
319.0368, 118.5989
319.5189, 118.8512
320.0010, 118.9828
320.4832, 118.9615
320.9653, 118.9903
321.4474, 119.2276
321.9295, 119.5128
322.4116, 119.6582
322.8937, 119.4825
323.3759, 119.3004
323.8580, 119.2426
324.3401, 119.3260
324.8222, 119.2866
325.3043, 119.1234
325.7864, 118.8049
326.2686, 118.3070
326.7507, 117.4936
327.2328, 116.6487
327.7149, 115.7901
328.1970, 114.9267
328.6791, 114.0704
329.1613, 113.2160
329.6434, 112.3793
330.1255, 111.5671
330.6076, 110.7259
331.0897, 109.9893
331.5718, 109.4394
332.0540, 108.9930
332.5361, 108.4037
333.0182, 107.5908
333.5003, 106.7314
333.9824, 105.8654
334.4645, 104.8919
334.9467, 104.2309
335.4288, 104.0532
335.9109, 104.0717
336.3930, 103.7939
336.8751, 103.0624
337.3572, 102.3985
337.8394, 101.9605
338.3215, 101.7606
338.8036, 101.6053
339.2857, 101.5260
339.7678, 101.4365
340.2499, 101.1923
340.7320, 100.7469
341.2141, 100.4539
341.6963, 100.4234
342.1784, 100.6049
342.6605, 100.7444
343.1426, 100.8111
343.6247, 100.9706
344.1068, 101.4218
344.5890, 102.1423
345.0711, 102.7543
345.5532, 103.1632
346.0353, 103.4803
346.5174, 103.9932
346.9995, 104.7008
347.4817, 105.2628
347.9638, 105.4509
348.4459, 105.3227
348.9280, 105.0977
349.4101, 104.8081
349.8922, 104.3639
350.3744, 103.6199
350.8565, 102.6197
351.3386, 101.5074
351.8207, 100.4061
352.3028, 99.22982
352.7849, 97.62854
353.2671, 95.57613
353.7492, 93.81900
354.2313, 93.39259
354.7134, 93.65292
355.1955, 93.43987
355.6776, 91.99026
356.1598, 90.26765
356.6419, 89.12574
357.1240, 88.49776
357.6061, 88.02522
358.0882, 87.59904
358.5703, 87.16982
359.0525, 86.69275
359.5346, 86.14854
360.0167, 85.57049
360.4988, 84.90779
360.9809, 84.22555
361.4630, 83.67490
361.9452, 83.45377
362.4273, 83.27767
362.9094, 82.94389
363.3915, 82.36530
363.8736, 81.93021
364.3557, 81.92780
364.8379, 82.08524
365.3200, 82.08427
365.8021, 81.61539
366.2842, 81.21282
366.7663, 81.10670
367.2484, 81.30463
367.7306, 81.33932
368.2127, 81.05354
368.6948, 80.65433
369.1769, 80.27670
369.6590, 79.84637
370.1411, 79.53876
370.6233, 79.41024
371.1054, 79.41754
371.5875, 79.39864
372.0696, 79.36131
372.5517, 79.28829
373.0338, 79.15692
373.5160, 78.91347
373.9981, 78.77503
374.4802, 78.80453
374.9623, 78.88670
375.4444, 78.80886
375.9265, 78.47865
376.4087, 78.24780
376.8908, 78.26507
377.3729, 78.51793
377.8550, 78.60898
378.3371, 78.50190
378.8192, 78.32758
379.3014, 78.21450
379.7835, 78.16488
380.2656, 78.09500
380.7477, 77.95953
381.2298, 77.82023
381.7119, 77.88142
382.1941, 78.14700
382.6762, 78.37918
383.1583, 78.37138
383.6404, 78.18676
384.1225, 78.07578
384.6046, 78.07050
385.0868, 78.11177
385.5689, 78.13890
386.0510, 78.15244
386.5331, 78.15495
387.0152, 78.18465
387.4973, 78.18971
387.9795, 78.06874
388.4616, 77.82211
388.9437, 77.57366
389.4258, 77.35845
389.9079, 77.21794
390.3900, 77.22932
390.8722, 77.55802
391.3543, 77.87679
391.8364, 77.91960
392.3185, 77.74284
392.8006, 77.55647
393.2827, 77.39888
393.7649, 77.30759
394.2470, 77.34148
394.7291, 77.58485
395.2112, 77.73705
395.6933, 77.64724
396.1754, 77.40823
396.6576, 77.15961
397.1397, 76.85956
397.6218, 76.62459
398.1039, 76.50454
398.5860, 76.50873
399.0681, 76.53582
399.5503, 76.65931
400.0324, 76.75269
400.5145, 76.72027
400.9966, 76.41760
401.4787, 76.19201
401.9608, 76.06600
402.4430, 76.03460
402.9251, 76.09228
403.4072, 76.32349
403.8893, 76.51684
404.3714, 76.56050
404.8535, 76.40580
405.3357, 76.30505
405.8178, 76.26722
406.2999, 76.27147
406.7820, 76.30304
407.2641, 76.37245
407.7462, 76.40430
408.2284, 76.36129
408.7105, 76.26259
409.1926, 76.21236
409.6747, 76.21921
410.1568, 76.21359
410.6389, 76.08640
411.1211, 75.87511
411.6032, 75.81154
412.0853, 75.98530
412.5674, 76.22025
413.0495, 76.19966
413.5316, 75.97890
414.0138, 75.83850
414.4959, 76.05626
414.9780, 76.40568
415.4601, 76.52007
415.9422, 76.36983
416.4243, 76.16041
416.9065, 76.04164
417.3886, 75.97436
417.8707, 75.90229
418.3528, 75.76809
418.8349, 75.65672
419.3170, 75.65940
419.7992, 75.74505
420.2813, 75.77055
420.7634, 75.62576
421.2455, 75.43080
421.7276, 75.26942
422.2097, 75.17777
422.6919, 75.06037
423.1740, 74.83925
423.6561, 74.58958
424.1382, 74.42139
424.6203, 74.44080
425.1024, 74.45855
425.5846, 74.40443
426.0667, 74.26964
426.5488, 74.23309
427.0309, 74.41198
427.5130, 74.58559
427.9951, 74.58942
428.4773, 74.31660
428.9594, 74.10860
429.4415, 74.00322
429.9236, 73.97078
430.4057, 73.93259
430.8878, 73.88025
431.3700, 73.85326
431.8521, 73.91084
432.3342, 74.05365
432.8163, 73.98400
433.2984, 73.65168
433.7805, 73.28407
434.2627, 73.14653
434.7448, 73.22123
435.2269, 73.33488
435.7090, 73.46466
436.1911, 73.58666
436.6732, 73.66174
437.1554, 73.68899
437.6375, 73.65970
438.1196, 73.52895
438.6017, 73.34776
439.0838, 73.18265
439.5659, 73.03051
440.0480, 72.94994
440.5302, 73.09762
441.0123, 73.33350
441.4944, 73.42283
441.9765, 73.07838
442.4586, 72.71738
442.9407, 72.61297
443.4229, 72.74390
443.9050, 72.89168
444.3871, 73.06263
444.8692, 73.15769
445.3513, 73.09494
445.8334, 72.73908
446.3156, 72.44636
446.7977, 72.31049
447.2798, 72.27396
447.7619, 72.23772
448.2440, 72.18219
448.7261, 72.14104
449.2083, 72.13553
449.6904, 72.16988
450.1725, 72.14649
450.6546, 72.02483
451.1367, 71.89651
451.6188, 71.84001
452.1010, 71.88721
452.5831, 71.89334
453.0652, 71.82864
453.5473, 71.73299
454.0294, 71.69987
454.5115, 71.73611
454.9937, 71.78153
455.4758, 71.83448
455.9579, 71.88001
456.4400, 71.81544
456.9221, 71.62999
457.4042, 71.42627
457.8864, 71.27645
458.3685, 71.18544
458.8506, 71.17793
459.3327, 71.30177
459.8148, 71.44080
460.2969, 71.44558
460.7791, 71.34648
461.2612, 71.24390
461.7433, 71.19966
462.2254, 71.17323
462.7075, 71.12980
463.1896, 71.06499
463.6718, 71.00084
464.1539, 70.94108
464.6360, 70.89243
465.1181, 70.86269
465.6002, 70.79831
466.0823, 70.81416
466.5645, 71.05509
467.0466, 71.42868
467.5287, 71.58050
468.0108, 71.20292
468.4929, 70.83869
468.9750, 70.69019
469.4572, 70.82132
469.9393, 70.92729
470.4214, 70.98319
470.9035, 71.03433
471.3856, 71.14398
471.8677, 71.35216
472.3499, 71.49472
472.8320, 71.55746
473.3141, 71.53096
473.7962, 71.32835
474.2783, 70.91529
474.7604, 70.57840
475.2426, 70.54729
475.7247, 70.76401
476.2068, 70.87814
476.6889, 70.87392
477.1710, 70.79740
477.6531, 70.64405
478.1353, 70.45474
478.6174, 70.34373
479.0995, 70.36789
479.5816, 70.46331
480.0637, 70.59068
480.5458, 70.73622
481.0280, 70.84783
481.5101, 70.88243
481.9922, 70.87817
482.4743, 70.85771
482.9564, 70.81897
483.4385, 70.78801
483.9207, 70.78169
484.4028, 70.78597
484.8849, 70.78650
485.3670, 70.82355
485.8491, 70.80977
486.3312, 70.68067
486.8134, 70.47208
487.2955, 70.36372
487.7776, 70.44323
488.2597, 70.52335
488.7418, 70.52198
489.2239, 70.41251
489.7061, 70.35828
490.1882, 70.37801
490.6703, 70.42599
491.1524, 70.44451
491.6345, 70.42526
492.1166, 70.44359
492.5988, 70.53137
493.0809, 70.64681
493.5630, 70.66562
494.0451, 70.59045
494.5272, 70.52884
495.0093, 70.57133
495.4915, 70.66813
495.9736, 70.70776
496.4557, 70.68373
496.9378, 70.62399
497.4199, 70.55323
497.9020, 70.46343
498.3842, 70.33260
498.8663, 70.07118
499.3484, 69.88582
499.8305, 70.01941
500.3126, 70.33910
500.7947, 70.50585
501.2769, 70.14297
501.7590, 69.81863
502.2411, 69.85826
502.7232, 70.35378
503.2053, 70.70484
503.6874, 70.75123
504.1696, 70.67162
504.6517, 70.58609
505.1338, 70.45035
505.6159, 70.38831
506.0980, 70.43637
506.5801, 70.54801
507.0623, 70.63634
507.5444, 70.72964
508.0265, 70.69894
508.5086, 70.41891
508.9907, 69.94527
509.4728, 69.78371
509.9550, 69.96617
510.4371, 70.21144
510.9192, 70.27744
511.4013, 70.19964
511.8834, 70.10180
512.3655, 69.99285
512.8477, 69.90254
513.3298, 69.87660
513.8119, 69.89767
514.2940, 69.92337
514.7761, 69.93295
515.2582, 69.94218
515.7404, 69.97787
516.2225, 70.03278
516.7046, 70.05278
517.1867, 69.99389
517.6688, 69.90549
518.1509, 69.81630
518.6331, 69.72553
519.1152, 69.64343
519.5973, 69.53935
520.0794, 69.45648
520.5615, 69.45505
521.0436, 69.64186
521.5258, 69.73709
522.0079, 69.66225
522.4900, 69.45718
522.9721, 69.30940
523.4542, 69.21470
523.9363, 69.19534
524.4185, 69.31593
524.9006, 69.57533
525.3827, 69.65681
525.8648, 69.53606
526.3469, 69.36929
526.8290, 69.33507
527.3112, 69.40299
527.7933, 69.44901
528.2754, 69.43150
528.7575, 69.40574
529.2396, 69.46253
529.7217, 69.56995
530.2039, 69.63251
530.6860, 69.58199
531.1681, 69.48290
531.6502, 69.33405
532.1323, 69.13953
532.6144, 69.06198
533.0966, 69.33154
533.5787, 69.63148
534.0608, 69.72723
534.5429, 69.34869
535.0250, 69.14505
535.5071, 69.30678
535.9893, 69.61967
536.4714, 69.77026
536.9535, 69.67379
537.4356, 69.57997
537.9177, 69.54977
538.3998, 69.56901
538.8820, 69.54972
539.3641, 69.48964
539.8462, 69.40596
540.3283, 69.29633
540.8104, 69.16776
541.2925, 69.06435
541.7747, 68.98822
542.2568, 68.93938
542.7389, 68.90853
543.2210, 68.90528
543.7031, 68.96429
544.1852, 69.14747
544.6674, 69.31152
545.1495, 69.30283
545.6316, 69.16984
546.1137, 69.03303
546.5958, 68.90739
547.0779, 68.82641
547.5601, 68.82581
548.0422, 68.90903
548.5243, 68.97902
549.0064, 69.02402
549.4885, 69.04243
549.9706, 69.02641
550.4528, 68.90703
550.9349, 68.88873
551.4170, 69.03120
551.8991, 69.22572
552.3812, 69.31347
552.8633, 69.27839
553.3455, 69.19478
553.8276, 69.06200
554.3097, 68.90313
554.7918, 68.77422
555.2739, 68.67761
555.7560, 68.65636
556.2382, 68.81046
556.7203, 69.04651
557.2024, 69.13139
557.6845, 69.05113
558.1666, 68.97197
558.6487, 69.07740
559.1309, 69.24989
559.6130, 69.32249
560.0951, 69.17588
560.5772, 69.07881
561.0593, 69.21681
561.5414, 69.48267
562.0236, 69.68480
562.5057, 69.76897
562.9878, 69.79401
563.4699, 69.71957
563.9520, 69.56556
564.4341, 69.55755
564.9163, 69.80434
565.3984, 70.04350
565.8805, 70.15314
566.3626, 70.12202
566.8447, 69.99434
567.3268, 69.72522
567.8090, 69.47838
568.2911, 69.48712
568.7732, 69.71935
569.2553, 69.88490
569.7374, 69.91845
570.2195, 69.87604
570.7017, 69.80419
571.1838, 69.71782
571.6659, 69.66481
572.1480, 69.68024
572.6301, 69.73014
573.1122, 69.80417
573.5944, 69.89653
574.0765, 69.95985
574.5586, 69.92833
575.0407, 69.67500
575.5228, 69.88504
576.0049, 70.00432
576.4871, 70.03771
576.9692, 69.72798
577.4513, 69.86132
577.9334, 69.81710
578.4155, 69.76559
578.8976, 69.96130
579.3798, 69.70147
579.8619, 69.89325
580.3440, 69.90475
580.8261, 69.99877
581.3082, 69.91412
581.7903, 69.88466
582.2725, 70.03391
582.7546, 70.08421
583.2367, 69.97899
583.7188, 70.07825
584.2009, 69.81218
584.6830, 69.86668
585.1652, 70.05951
585.6473, 69.96327
586.1294, 70.06580
586.6115, 70.15556
587.0936, 70.53871
587.5757, 70.85004
588.0578, 70.95534
588.5399, 71.06207
589.0220, 71.25824
589.5042, 71.47475
589.9863, 71.55043
590.4684, 71.39449
590.9505, 71.24292
591.4326, 71.15919
591.9147, 71.13439
592.3969, 71.09242
592.8790, 71.03490
593.3611, 70.95606
593.8432, 70.79356
594.3253, 70.59063
594.8074, 70.61092
595.2896, 70.88470
595.7717, 71.18797
596.2538, 71.30466
596.7359, 71.29619
597.2180, 71.26922
597.7001, 71.24868
598.1823, 71.22271
598.6644, 71.17995
599.1465, 71.12720
599.6286, 71.07571
600.1107, 70.98470
600.5928, 70.94164
601.0750, 71.02087
601.5571, 71.19727
602.0392, 71.26347
602.5213, 71.14746
603.0034, 71.01289
603.4855, 70.90405
603.9677, 70.81320
604.4498, 70.86614
604.9319, 71.10287
605.4140, 71.35713
605.8961, 71.46457
606.3782, 71.44520
606.8604, 71.42007
607.3425, 71.40202
607.8246, 71.38898
608.3067, 71.38721
608.7888, 71.38818
609.2709, 71.37312
609.7531, 71.32590
610.2352, 71.27216
610.7173, 71.21763
611.1994, 71.16933
611.6815, 71.14507
612.1636, 71.18377
612.6458, 71.21669
613.1279, 71.21249
613.6100, 71.16930
614.0921, 71.14436
614.5742, 71.16047
615.0563, 71.16565
615.5385, 71.11676
616.0206, 70.99100
616.5027, 70.96493
616.9848, 71.07059
617.4669, 71.18060
617.9490, 71.07736
618.4312, 70.82365
618.9133, 70.77668
619.3954, 71.06762
619.8775, 71.42924
620.3596, 71.55321
620.8417, 71.50255
621.3239, 71.41772
621.8060, 71.30590
622.2881, 71.22372
622.7702, 71.23830
623.2523, 71.31896
623.7344, 71.34123
624.2166, 71.23341
624.6987, 71.09515
625.1808, 70.91758
625.6629, 70.68116
626.1450, 70.69115
626.6271, 71.08755
627.1093, 71.50165
627.5914, 71.65035
628.0735, 71.51006
628.5556, 71.46035
629.0377, 71.53874
629.5198, 71.63275
630.0020, 71.59596
630.4841, 71.46478
630.9662, 71.35274
631.4483, 71.29426
631.9304, 71.25564
632.4125, 71.19268
632.8947, 71.12821
633.3768, 71.10564
633.8589, 71.21609
634.3410, 71.30216
634.8231, 71.27187
635.3052, 71.14865
635.7874, 71.07533
636.2695, 71.08897
636.7516, 71.12999
637.2337, 71.17703
637.7158, 71.22840
638.1979, 71.32436
638.6801, 71.49554
639.1622, 71.61893
639.6443, 71.53400
640.1264, 71.27769
640.6085, 71.20960
641.0906, 71.38081
641.5728, 71.59129
642.0549, 71.62263
642.5370, 71.54450
643.0191, 71.48064
643.5012, 71.44933
643.9833, 71.47187
644.4655, 71.64924
644.9476, 71.87332
645.4297, 71.96687
645.9118, 71.70094
646.3939, 71.49829
646.8760, 71.51498
647.3582, 71.68834
647.8403, 71.78279
648.3224, 71.78101
648.8045, 71.73450
649.2866, 71.64396
649.7687, 71.51823
650.2509, 71.44246
650.7330, 71.41497
651.2151, 71.44658
651.6972, 71.62904
652.1793, 71.86501
652.6614, 71.85478
653.1436, 71.56302
653.6257, 71.33255
654.1078, 71.50345
654.5899, 71.84795
655.0720, 72.13033
655.5541, 72.30761
656.0363, 72.39058
656.5184, 72.27853
657.0005, 72.11207
657.4826, 72.08196
657.9647, 72.32598
658.4468, 72.47926
658.9290, 72.46290
659.4111, 72.35048
659.8932, 72.32361
660.3753, 72.39066
660.8574, 72.47162
661.3395, 72.55885
661.8217, 72.62504
662.3038, 72.55211
662.7859, 72.36704
663.2680, 71.80341
663.7501, 72.35320
664.2322, 72.65339
664.7144, 72.71738
665.1965, 71.83781
665.6786, 72.17667
666.1607, 72.02724
666.6428, 71.85778
667.1249, 72.36813
667.6071, 71.62579
668.0892, 72.12537
668.5713, 72.12919
669.0534, 72.35991
669.5355, 72.09931
670.0176, 71.99047
670.4998, 72.37309
670.9819, 72.48359
671.4640, 72.16644
671.9461, 72.41158
672.4282, 71.65208
672.9103, 71.77416
673.3925, 72.27660
673.8746, 71.98416
674.3567, 71.71865
674.8388, 71.73283
675.3209, 71.71310
675.8030, 71.51533
676.2852, 71.35937
676.7673, 71.36810
677.2494, 71.51015
677.7315, 71.58115
678.2136, 71.53894
678.6957, 71.47626
679.1779, 71.44130
679.6600, 71.42760
680.1421, 71.25682
680.6242, 70.88614
681.1063, 70.59692
681.5884, 70.66947
682.0706, 70.97870
682.5527, 71.12028
683.0348, 71.07364
683.5169, 70.93417
683.9990, 70.67985
684.4811, 70.42407
684.9633, 70.30049
685.4454, 70.37019
685.9275, 70.46497
686.4096, 70.57145
686.8917, 70.65411
687.3738, 70.66944
687.8560, 70.55080
688.3381, 70.48615
688.8202, 70.50853
689.3023, 70.56563
689.7844, 70.54861
690.2665, 70.44530
690.7487, 70.43484
691.2308, 70.61032
691.7129, 70.82914
692.1950, 70.82146
692.6771, 70.63615
693.1592, 70.45498
693.6414, 70.01619
694.1235, 70.18659
694.6056, 70.26623
695.0877, 70.25998
695.5698, 69.91061
696.0519, 70.00431
696.5341, 69.92043
697.0162, 69.82929
697.4983, 69.98535
697.9804, 69.68589
698.4625, 69.83803
698.9446, 69.80990
699.4268, 69.86426
699.9089, 69.73997
700.3910, 69.67088
700.8731, 69.78049
701.3552, 69.79114
701.8373, 69.64629
702.3195, 69.69575
702.8016, 69.68141
703.2837, 69.69829
703.7658, 69.71892
704.2479, 69.74670
704.7300, 69.75883
705.2122, 69.73130
705.6943, 69.62206
706.1764, 69.53457
706.6585, 69.48559
707.1406, 69.45434
707.6227, 69.40376
708.1049, 69.30956
708.5870, 69.30995
709.0691, 69.45652
709.5512, 69.64928
710.0333, 69.69459
710.5154, 69.61951
710.9976, 69.56850
711.4797, 69.60554
711.9618, 69.67007
712.4439, 69.73784
712.9260, 69.78410
713.4081, 69.75103
713.8903, 69.44833
714.3724, 69.23226
714.8545, 69.31574
715.3366, 69.63921
715.8187, 69.79325
716.3008, 69.70011
716.7830, 69.56819
717.2651, 69.44450
717.7472, 69.33778
718.2293, 69.34787
718.7114, 69.48344
719.1935, 69.59483
719.6757, 69.50713
720.1578, 69.35540
720.6399, 69.47562
721.1220, 69.85276
721.6041, 70.10185
722.0862, 69.76266
722.5684, 69.34074
723.0505, 69.24932
723.5326, 69.62699
724.0147, 69.88355
724.4968, 69.84599
724.9789, 69.73403
725.4611, 69.67374
725.9432, 69.67061
726.4253, 69.70958
726.9074, 69.80406
727.3895, 69.90475
727.8716, 69.97832
728.3538, 70.01787
728.8359, 69.96795
729.3180, 69.79763
729.8001, 69.64522
730.2822, 69.64428
730.7643, 69.73526
731.2465, 69.84629
731.7286, 70.03478
732.2107, 70.11907
732.6928, 69.94480
733.1749, 69.67044
733.6570, 69.54082
734.1392, 69.61662
734.6213, 69.70627
735.1034, 69.80003
735.5855, 69.87424
736.0676, 69.85371
736.5497, 69.74697
737.0319, 69.69813
737.5140, 69.78877
737.9961, 69.91487
738.4782, 69.92992
738.9603, 69.87018
739.4424, 69.82809
739.9246, 69.87722
740.4067, 69.92343
740.8888, 69.94942
741.3709, 69.94347
741.8530, 69.84398
742.3351, 69.50187
742.8173, 69.30193
743.2994, 69.39982
743.7815, 69.72804
744.2636, 69.93169
744.7457, 70.00777
745.2278, 69.99632
745.7100, 69.84084
746.1921, 69.64122
746.6742, 69.63443
747.1563, 69.79000
747.6384, 69.89655
748.1205, 69.74604
748.6027, 69.57067
749.0848, 69.52936
749.5669, 69.63639
750.0490, 69.77350
750.5311, 70.04072
751.0132, 70.20501
751.4954, 70.11124
751.9775, 69.72758
752.4596, 69.56208
752.9417, 69.64514
753.4238, 69.78960
753.9059, 69.87017
754.3881, 69.89700
754.8702, 69.86494
755.3523, 69.77217
755.8344, 69.75027
756.3165, 69.98762
756.7986, 70.28449
757.2808, 70.46517
757.7629, 70.48975
758.2450, 70.45877
758.7271, 70.38065
759.2092, 70.25962
759.6913, 70.06544
760.1735, 69.73653
760.6556, 69.61534
761.1377, 69.74462
761.6198, 69.96927
762.1019, 70.15308
762.5840, 70.29262
763.0662, 70.36378
763.5483, 70.35354
764.0304, 70.32012
764.5125, 70.32569
764.9946, 70.32896
765.4767, 70.27658
765.9589, 70.09279
766.4410, 69.96558
766.9231, 69.96532
767.4052, 70.01280
767.8873, 70.01063
768.3694, 69.91425
768.8516, 69.97469
769.3337, 70.27518
769.8158, 70.61093
770.2979, 70.66166
770.7800, 70.48690
771.2621, 70.28714
771.7443, 70.08617
772.2264, 69.94681
772.7085, 69.96359
773.1906, 70.06500
773.6727, 70.14437
774.1548, 70.17911
774.6370, 70.17894
775.1191, 70.09250
775.6012, 69.99752
776.0833, 70.03083
776.5654, 70.23006
777.0475, 70.41601
777.5297, 70.58151
778.0118, 70.67435
778.4939, 70.49577
778.9760, 70.14086
779.4581, 69.98072
779.9402, 70.26995
780.4224, 70.62495
780.9045, 70.71811
781.3866, 70.65826
781.8687, 70.64978
782.3508, 70.81956
782.8329, 70.95588
783.3151, 71.00410
783.7972, 70.99792
784.2793, 71.02126
784.7614, 71.08719
785.2435, 71.10722
785.7256, 71.04575
786.2077, 70.94160
786.6898, 70.86235
787.1719, 70.80732
787.6541, 70.77573
788.1362, 70.85522
788.6183, 70.87427
789.1004, 70.60013
789.5825, 70.17746
790.0646, 69.97453
790.5468, 70.30669
791.0289, 70.58395
791.5110, 70.68279
791.9931, 70.65023
792.4752, 70.61203
792.9573, 70.56429
793.4395, 70.53588
793.9216, 70.52695
794.4037, 70.55188
794.8858, 70.67138
795.3679, 70.85262
795.8500, 70.98796
796.3322, 71.02841
796.8143, 71.00504
797.2964, 70.89485
797.7785, 70.72825
798.2606, 70.61623
798.7427, 70.59527
799.2249, 70.59077
799.7070, 70.58925
800.1891, 70.59183
800.6712, 70.60661
801.1533, 70.63454
801.6354, 70.64802
802.1176, 70.61642
802.5997, 70.58385
803.0818, 70.62132
803.5639, 70.71382
804.0460, 70.81477
804.5281, 70.93173
805.0103, 71.02283
805.4924, 71.07108
805.9745, 71.07637
806.4566, 71.04398
806.9387, 70.93028
807.4208, 70.87214
807.9030, 70.90882
808.3851, 71.02530
808.8672, 71.23769
809.3493, 71.52319
809.8314, 71.67331
810.3135, 71.46272
810.7957, 71.18332
811.2778, 71.18546
811.7599, 71.36718
812.2420, 71.44300
812.7241, 71.13468
813.2062, 70.90485
813.6884, 70.98141
814.1705, 71.23945
814.6526, 71.24839
815.1347, 70.92164
815.6168, 70.71230
816.0989, 70.80258
816.5811, 71.04867
817.0632, 71.13918
817.5453, 71.10249
818.0274, 71.05237
818.5095, 71.08439
818.9916, 71.08403
819.4738, 70.91669
819.9559, 70.65674
820.4380, 70.50500
820.9201, 70.54665
821.4022, 70.64503
821.8843, 70.78943
822.3665, 70.96846
822.8486, 71.17823
823.3307, 71.42078
823.8128, 71.55925
824.2949, 71.49776
824.7770, 71.38274
825.2592, 71.47171
825.7413, 71.67713
826.2234, 71.79374
826.7055, 71.67615
827.1876, 71.51806
827.6697, 71.34430
828.1519, 71.18932
828.6340, 71.12022
829.1161, 71.15588
829.5982, 71.23948
830.0803, 71.37575
830.5624, 71.53379
831.0446, 71.67242
831.5267, 71.78519
832.0088, 71.83828
832.4909, 71.79886
832.9730, 71.73685
833.4551, 71.71383
833.9373, 71.71172
834.4194, 71.70110
834.9015, 71.68586
835.3836, 71.64294
835.8657, 71.53873
836.3478, 71.42786
836.8300, 71.40108
837.3121, 71.46671
837.7942, 71.53606
838.2763, 71.59884
838.7584, 71.64600
839.2405, 71.65644
839.7227, 71.64355
840.2048, 71.63616
840.6869, 71.64828
841.1690, 71.65276
841.6511, 71.59579
842.1332, 71.54324
842.6154, 71.58120
843.0975, 71.77420
843.5796, 71.92451
844.0617, 72.03773
844.5438, 72.08161
845.0259, 71.96047
845.5081, 71.72013
845.9902, 71.60118
846.4723, 71.65110
846.9544, 71.75117
847.4365, 71.86018
847.9186, 71.93244
848.4008, 71.89334
848.8829, 71.64056
849.3650, 71.53423
849.8471, 71.70881
850.3292, 71.94949
850.8113, 72.11475
851.2935, 72.20512
851.7756, 72.21234
852.2577, 72.13033
852.7398, 72.00773
853.2219, 71.85172
853.7040, 71.69791
854.1862, 71.59507
854.6683, 71.54871
855.1504, 71.56774
855.6325, 71.72246
856.1146, 71.88977
856.5967, 71.97939
857.0789, 71.97704
857.5610, 72.02557
858.0431, 72.13588
858.5252, 72.25814
859.0073, 72.39580
859.4894, 72.51749
859.9716, 72.47357
860.4537, 72.28042
860.9358, 72.12055
861.4179, 72.15778
861.9000, 72.23076
862.3821, 72.21552
862.8643, 72.11302
863.3464, 72.06275
863.8285, 72.14405
864.3106, 72.16224
864.7927, 72.00610
865.2748, 71.74139
865.7570, 71.68461
866.2391, 71.82740
866.7212, 72.02803
867.2033, 72.32338
867.6854, 72.55241
868.1675, 72.46339
868.6497, 72.16332
869.1318, 71.96214
869.6139, 72.05000
870.0960, 72.13892
870.5781, 72.13398
871.0602, 72.08760
871.5424, 72.14756
872.0245, 72.32802
872.5066, 72.47816
872.9887, 72.57216
873.4708, 72.59171
873.9529, 72.47150
874.4351, 72.26051
874.9172, 72.06266
875.3993, 71.85704
875.8814, 71.75127
876.3635, 71.87658
876.8456, 72.08758
877.3278, 72.17735
877.8099, 72.09893
878.2920, 72.05107
878.7741, 72.06377
879.2562, 72.07956
879.7383, 72.01364
880.2205, 71.89194
880.7026, 71.78500
881.1847, 71.70503
881.6668, 71.64149
882.1489, 71.54034
882.6310, 71.48120
883.1132, 71.54527
883.5953, 71.78703
884.0774, 72.01849
884.5595, 72.26067
885.0416, 72.45024
885.5237, 72.53037
886.0059, 72.51122
886.4880, 72.44054
886.9701, 72.32138
887.4522, 72.19495
887.9343, 72.05765
888.4164, 71.95178
888.8986, 71.92242
889.3807, 71.97160
889.8628, 72.04146
890.3449, 72.13571
890.8270, 72.23780
891.3091, 72.36870
891.7913, 72.50276
892.2734, 72.45748
892.7555, 72.24273
893.2376, 72.05360
893.7197, 71.98676
894.2018, 72.00186
894.6840, 72.07535
895.1661, 72.19471
895.6482, 72.32433
896.1303, 72.49726
896.6124, 72.62247
897.0945, 72.67767
897.5767, 72.67889
898.0588, 72.66653
898.5409, 72.64186
899.0230, 72.53214
899.5051, 72.27158
899.9872, 72.04999
900.4694, 72.19585
900.9515, 72.51862
901.4336, 72.68945
901.9157, 72.52136
902.3978, 72.38702
902.8799, 72.43517
903.3621, 72.52684
903.8442, 72.53200
904.3263, 72.42188
904.8084, 72.41398
905.2905, 72.53571
905.7726, 72.65874
906.2548, 72.64588
906.7369, 72.55782
907.2190, 72.49240
907.7011, 72.46089
908.1832, 72.42303
908.6653, 72.33020
909.1475, 72.25569
909.6296, 72.24609
910.1117, 72.29999
910.5938, 72.33601
911.0759, 72.35066
911.5580, 72.36768
912.0402, 72.41739
912.5223, 72.46977
913.0044, 72.43381
913.4865, 72.33981
913.9686, 72.30078
914.4507, 72.46720
914.9329, 72.59686
915.4150, 72.52763
915.8971, 72.35356
916.3792, 72.31842
916.8613, 72.45627
917.3434, 72.60108
917.8256, 72.73032
918.3077, 72.82162
918.7898, 72.81859
919.2719, 72.75082
919.7540, 72.68319
920.2361, 72.61841
920.7183, 72.59500
921.2004, 72.71767
921.6825, 72.83718
922.1646, 72.78567
922.6467, 72.45160
923.1288, 72.30140
923.6110, 72.37716
924.0931, 72.50600
924.5752, 72.50555
925.0573, 72.43956
925.5394, 72.45730
926.0215, 72.56888
926.5037, 72.68478
926.9858, 72.78942
927.4679, 72.85548
927.9500, 72.83152
928.4321, 72.73006
928.9142, 72.74651
929.3964, 72.93682
929.8785, 73.02509
930.3606, 72.82268
930.8427, 72.49353
931.3248, 72.38949
931.8069, 72.47733
932.2891, 72.64875
932.7712, 73.03595
933.2533, 73.29431
933.7354, 73.14009
934.2175, 72.80086
934.6996, 72.74847
935.1818, 73.12033
935.6639, 73.28664
936.1460, 73.12721
936.6281, 72.86136
937.1102, 72.74915
937.5923, 72.75746
938.0745, 72.83417
938.5566, 72.98634
939.0387, 73.11942
939.5208, 73.16637
940.0029, 73.19064
940.4850, 73.25275
940.9672, 73.37050
941.4493, 73.35646
941.9314, 73.18018
942.4135, 73.00906
942.8956, 72.93487
943.3777, 72.95167
943.8599, 73.10812
944.3420, 73.36359
944.8241, 73.52396
945.3062, 73.40670
945.7883, 73.26858
946.2704, 73.21078
946.7526, 73.21414
947.2347, 73.24716
947.7168, 73.32873
948.1989, 73.30996
948.6810, 73.11422
949.1631, 72.89381
949.6453, 72.89281
950.1274, 73.02155
950.6095, 73.11735
951.0916, 73.14035
951.5737, 73.11560
952.0558, 72.97610
952.5380, 72.84549
953.0201, 72.82401
953.5022, 72.92273
953.9843, 73.04047
954.4664, 73.17445
954.9485, 73.32410
955.4307, 73.57156
955.9128, 73.78661
956.3949, 73.74733
956.8770, 73.47005
957.3591, 73.26020
957.8412, 73.30580
958.3234, 73.33314
958.8055, 73.21350
959.2876, 73.02229
959.7697, 73.10722
960.2518, 73.46050
960.7339, 73.65517
961.2161, 73.44435
961.6982, 73.18126
962.1803, 73.29643
962.6624, 73.59822
963.1445, 73.78699
963.6266, 73.66888
964.1088, 73.60623
964.5909, 73.64212
965.0730, 73.70557
965.5551, 73.70795
966.0372, 73.66180
966.5193, 73.70059
967.0015, 73.83425
967.4836, 73.96690
967.9657, 74.03751
968.4478, 74.06365
968.9299, 74.06441
969.4120, 74.03928
969.8942, 73.94059
970.3763, 73.70734
970.8584, 73.52856
971.3405, 73.47548
971.8226, 73.51803
972.3047, 73.60358
972.7869, 73.71677
973.2690, 73.79583
973.7511, 73.81118
974.2332, 73.79276
974.7153, 73.72988
975.1974, 73.65525
975.6796, 73.61544
976.1617, 73.62407
976.6438, 73.62731
977.1259, 73.61473
977.6080, 73.62322
978.0901, 73.71251
978.5723, 73.84368
979.0544, 73.94563
979.5365, 74.01057
980.0186, 74.04001
980.5007, 73.97597
980.9828, 73.93443
981.4650, 73.98091
981.9471, 74.10091
982.4291, 74.21931
982.9113, 74.34200
983.3934, 74.38855
983.8755, 74.30184
984.3576, 74.16100
984.8397, 74.02975
985.3218, 73.92960
985.8040, 73.90351
986.2861, 74.02050
986.7682, 74.13501
987.2503, 74.23564
987.7324, 74.32047
988.2145, 74.40780
988.6967, 74.49285
989.1788, 74.41558
989.6609, 74.15849
990.1430, 73.96877
990.6251, 74.09890
991.1072, 74.33900
991.5894, 74.53999
992.0715, 74.68535
992.5536, 74.75176
993.0357, 74.72209
993.5178, 74.64857
993.9999, 74.51637
994.4821, 74.38490
994.9642, 74.43216
995.4463, 74.60933
995.9284, 74.75446
996.4105, 74.81954
996.8926, 74.81723
997.3748, 74.65872
997.8569, 74.48952
998.3390, 74.47697
998.8211, 74.67616
999.3032, 74.85650
999.7853, 75.02401
1000.267, 75.11813
1000.750, 75.06202
1001.232, 74.91039
1001.714, 74.68948
1002.196, 74.42902
1002.678, 74.30635
1003.160, 74.54157
1003.642, 74.75482
1004.124, 74.81032
1004.607, 74.77470
1005.089, 74.84821
1005.571, 75.02374
1006.053, 75.14063
1006.535, 75.14807
1007.017, 75.10285
1007.499, 75.01819
1007.981, 74.93135
1008.463, 74.87749
1008.946, 74.83646
1009.428, 74.92811
1009.910, 75.23441
1010.392, 75.50461
1010.874, 75.53304
1011.356, 75.38560
1011.838, 75.30053
1012.320, 75.26494
1012.802, 75.19384
1013.285, 74.91615
1013.767, 74.72617
1014.249, 74.86288
1014.731, 75.16998
1015.213, 75.31339
1015.695, 75.26995
1016.177, 75.19954
1016.659, 75.11949
1017.142, 75.05791
1017.624, 75.05080
1018.106, 75.08315
1018.588, 75.13786
1019.070, 75.21453
1019.552, 75.29610
1020.034, 75.44234
1020.516, 75.50279
1020.998, 75.35623
1021.481, 75.06580
1021.963, 75.00573
1022.445, 75.14513
1022.927, 75.27648
1023.409, 75.30282
1023.891, 75.28021
1024.373, 75.19189
1024.855, 75.09599
1025.338, 75.10300
1025.820, 75.26431
1026.302, 75.40019
1026.784, 75.51463
1027.266, 75.55306
1027.748, 75.38591
1028.230, 75.13016
1028.712, 75.00420
1029.194, 75.02294
1029.677, 75.07977
1030.159, 75.16460
1030.641, 75.24310
1031.123, 75.29350
1031.605, 75.33195
1032.087, 75.42197
1032.569, 75.55962
1033.051, 75.70244
1033.534, 75.87186
1034.016, 75.94921
1034.498, 75.70779
1034.980, 75.37296
1035.462, 75.22673
1035.944, 75.39258
1036.426, 75.51134
1036.908, 75.58126
1037.391, 75.61092
1037.873, 75.59254
1038.355, 75.54250
1038.837, 75.48527
1039.319, 75.42992
1039.801, 75.41622
1040.283, 75.54948
1040.765, 75.62123
1041.247, 75.50719
1041.729, 75.32723
1042.212, 75.27879
1042.694, 75.36374
1043.176, 75.45543
1043.658, 75.54245
1044.140, 75.58751
1044.622, 75.47266
1045.104, 75.35798
1045.586, 75.44064
1046.069, 75.75786
1046.551, 75.92303
1047.033, 75.87468
1047.515, 75.79467
1047.997, 75.74269
1048.479, 75.71437
1048.961, 75.72980
1049.443, 75.75977
1049.926, 75.71846
1050.408, 75.47747
1050.890, 75.33855
1051.372, 75.51482
1051.854, 75.75294
1052.336, 75.85526
1052.818, 75.81615
1053.300, 75.75365
1053.782, 75.66882
1054.265, 75.61373
1054.747, 75.64021
1055.229, 75.69973
1055.711, 75.77132
1056.193, 75.84258
1056.675, 75.87435
1057.157, 75.86088
1057.639, 75.81486
1058.121, 75.72675
1058.604, 75.63383
1059.086, 75.58382
1059.568, 75.56794
1060.050, 75.56904
1060.532, 75.58437
1061.014, 75.61602
1061.496, 75.69138
1061.978, 75.75516
1062.461, 75.78664
1062.943, 75.78822
1063.425, 75.74231
1063.907, 75.66090
1064.389, 75.66520
1064.871, 75.86871
1065.353, 76.05281
1065.835, 76.02221
1066.318, 75.88940
1066.800, 75.79793
1067.282, 75.76523
1067.764, 75.72912
1068.246, 75.67457
1068.728, 75.68590
1069.210, 75.91349
1069.692, 76.19933
1070.174, 76.26045
1070.656, 76.14632
1071.139, 76.07272
1071.621, 76.18359
1072.103, 76.23209
1072.585, 76.14647
1073.067, 76.02159
1073.549, 76.01591
1074.031, 76.09969
1074.513, 76.13614
1074.996, 76.10442
1075.478, 76.07545
1075.960, 76.09776
1076.442, 76.13596
1076.924, 76.19660
1077.406, 76.26133
1077.888, 76.16522
1078.370, 75.89311
1078.853, 75.76646
1079.335, 75.94371
1079.817, 76.19846
1080.299, 76.31862
1080.781, 76.34436
1081.263, 76.32260
1081.745, 76.23123
1082.227, 76.17292
1082.709, 76.15202
1083.192, 76.15426
1083.674, 76.18404
1084.156, 76.22538
1084.638, 76.20847
1085.120, 76.16341
1085.602, 76.19215
1086.084, 76.46223
1086.566, 76.64437
1087.048, 76.61316
1087.531, 76.51167
1088.013, 76.52837
1088.495, 76.64613
1088.977, 76.64820
1089.459, 76.51965
1089.941, 76.39415
1090.423, 76.36140
1090.905, 76.36797
1091.387, 76.38688
1091.870, 76.41598
1092.352, 76.45381
1092.834, 76.50181
1093.316, 76.54617
1093.798, 76.57845
1094.280, 76.62546
1094.762, 76.76838
1095.244, 76.91786
1095.727, 76.95280
1096.209, 76.83463
1096.691, 76.72712
1097.173, 76.66851
1097.655, 76.55547
1098.137, 76.30164
1098.619, 76.00146
1099.101, 75.86491
1099.583, 75.86735
1100.066, 75.94201
1100.548, 76.10704
1101.030, 76.27165
1101.512, 76.41328
1101.994, 76.54433
1102.476, 76.71138
1102.958, 76.89928
1103.440, 76.84245
1103.922, 76.56145
1104.405, 76.28967
1104.887, 76.07993
1105.369, 76.00762
1105.851, 76.23223
1106.333, 76.58366
1106.815, 76.71906
1107.297, 76.59646
1107.779, 76.55801
1108.262, 76.63895
1108.744, 76.77937
1109.226, 77.02198
1109.708, 77.22481
1110.190, 77.22285
1110.672, 77.02225
1111.154, 76.80932
1111.636, 76.53020
1112.119, 76.45101
1112.601, 76.69996
1113.083, 77.01873
1113.565, 76.98579
1114.047, 76.76032
1114.529, 76.63126
1115.011, 76.66396
1115.493, 76.68846
1115.975, 76.66463
1116.458, 76.62939
1116.940, 76.58023
1117.422, 76.54220
1117.904, 76.62737
1118.386, 76.79629
1118.868, 76.91166
1119.350, 76.88229
1119.832, 76.87300
1120.314, 76.96750
1120.797, 77.09948
1121.279, 77.25413
1121.761, 77.42870
1122.243, 77.32610
1122.725, 76.97108
1123.207, 76.74919
1123.689, 77.03043
1124.171, 77.37608
1124.654, 77.53195
1125.136, 77.54531
1125.618, 77.50807
1126.100, 77.40442
1126.582, 77.34433
1127.064, 77.33859
1127.546, 77.33758
1128.028, 77.29540
1128.510, 77.23877
1128.993, 77.16104
1129.475, 77.08735
1129.957, 77.14420
1130.439, 77.42574
1130.921, 77.58223
1131.403, 77.53631
1131.885, 77.40856
1132.367, 77.29644
1132.849, 77.23383
1133.332, 77.30795
1133.814, 77.53166
1134.296, 77.66761
1134.778, 77.65128
1135.260, 77.55608
1135.742, 77.35316
1136.224, 77.14648
1136.706, 77.21998
1137.189, 77.46114
1137.671, 77.54939
1138.153, 77.35593
1138.635, 77.23827
1139.117, 77.45524
1139.599, 77.64937
1140.081, 77.61794
1140.563, 77.42599
1141.046, 77.41378
1141.528, 77.54057
1142.010, 77.59004
1142.492, 77.41084
1142.974, 77.24973
1143.456, 77.22955
1143.938, 77.29250
1144.420, 77.39752
1144.902, 77.54837
1145.385, 77.63596
1145.867, 77.66354
1146.349, 77.71716
1146.831, 77.90063
1147.313, 78.07494
1147.795, 78.15786
1148.277, 78.15508
1148.759, 78.08050
1149.241, 77.91992
1149.724, 77.74878
1150.206, 77.56518
1150.688, 77.44441
1151.170, 77.45347
1151.652, 77.55473
1152.134, 77.78964
1152.616, 78.09357
1153.098, 78.22874
1153.581, 78.15683
1154.063, 78.00640
1154.545, 77.77213
1155.027, 77.56281
1155.509, 77.52261
1155.991, 77.57011
1156.473, 77.60678
1156.955, 77.62689
1157.438, 77.68133
1157.920, 77.78754
1158.402, 77.90540
1158.884, 78.04965
1159.366, 78.14308
1159.848, 77.97633
1160.330, 77.71423
1160.812, 77.68124
1161.294, 77.96129
1161.776, 78.08655
1162.259, 77.83609
1162.741, 77.66264
1163.223, 77.74429
1163.705, 77.97301
1164.187, 78.14519
1164.669, 78.26547
1165.151, 78.35300
1165.633, 78.41902
1166.116, 78.41853
1166.598, 78.25193
1167.080, 77.87276
1167.562, 78.09397
1168.044, 78.22441
1168.526, 78.26897
1169.008, 77.97041
1169.490, 78.11491
1169.973, 78.08189
1170.455, 78.04155
1170.937, 78.24841
1171.419, 77.99976
1171.901, 78.20271
1172.383, 78.22538
1172.865, 78.33056
1173.347, 78.25708
1173.829, 78.23878
1174.312, 78.39923
1174.794, 78.46069
1175.276, 78.36665
1175.758, 78.47708
1176.240, 78.22218
1176.722, 78.28786
1177.204, 78.49185
1177.686, 78.40679
1178.168, 78.52048
1178.651, 78.55850
1179.133, 78.25249
1179.615, 78.54475
1180.097, 78.57827
1180.579, 78.34613
1181.061, 78.61788
1181.543, 78.42237
1182.025, 78.51434
1182.508, 78.43851
1182.990, 78.44557
1183.472, 78.47966
1183.954, 78.51860
1184.436, 78.55392
1184.918, 78.55905
1185.400, 78.53008
1185.882, 78.56247
1186.365, 78.67224
1186.847, 78.80209
1187.329, 78.98703
1187.811, 79.10399
1188.293, 79.01009
1188.775, 78.76257
1189.257, 78.55563
1189.739, 78.38416
1190.221, 78.34987
1190.703, 78.49216
1191.186, 78.65793
1191.668, 78.70307
1192.150, 78.70323
1192.632, 78.71225
1193.114, 78.73497
1193.596, 78.78535
1194.078, 78.86579
1194.560, 78.94276
1195.043, 79.00793
1195.525, 79.05759
1196.007, 79.09533
1196.489, 79.10932
1196.971, 79.06216
1197.453, 78.95423
1197.935, 78.97514
1198.417, 79.14807
1198.900, 79.25503
1199.382, 79.21371
1199.864, 79.09065
1200.346, 78.83948
1200.828, 78.61603
1201.310, 78.65632
1201.792, 79.01778
1202.274, 79.15392
1202.756, 79.03870
1203.239, 78.92283
1203.721, 78.90040
1204.203, 78.95483
1204.685, 79.14037
1205.167, 79.35607
1205.649, 79.45541
1206.131, 79.41032
1206.613, 79.35238
1207.095, 79.28558
1207.578, 79.15522
1208.060, 78.85133
1208.542, 78.57448
1209.024, 78.58875
1209.506, 78.76355
1209.988, 78.90084
1210.470, 78.98347
1210.952, 79.04091
1211.435, 79.07402
1211.917, 79.08890
1212.399, 79.08566
1212.881, 79.07171
1213.363, 79.02998
1213.845, 78.99117
1214.327, 79.02152
1214.809, 79.17057
1215.292, 79.19922
1215.774, 79.08747
1216.256, 79.00140
1216.738, 79.09520
1217.220, 79.24097
1217.702, 79.32204
1218.184, 79.36047
1218.666, 79.40128
1219.148, 79.42606
1219.630, 79.55342
1220.113, 79.80064
1220.595, 80.02707
1221.077, 80.14314
1221.559, 80.16966
1222.041, 80.05243
1222.523, 79.87675
1223.005, 79.86396
1223.487, 80.08755
1223.970, 80.12552
1224.452, 79.93668
1224.934, 79.71587
1225.416, 79.57573
1225.898, 79.50988
1226.380, 79.55998
1226.862, 79.67354
1227.344, 79.70088
1227.827, 79.62161
1228.309, 79.59286
1228.791, 79.63304
1229.273, 79.65096
1229.755, 79.45391
1230.237, 79.31202
1230.719, 79.54984
1231.201, 79.99815
1231.683, 80.14732
1232.166, 79.96537
1232.648, 79.83692
1233.130, 79.80466
1233.612, 79.82543
1234.094, 79.91298
1234.576, 79.99426
1235.058, 79.99500
1235.540, 79.95192
1236.022, 79.97142
1236.505, 80.05575
1236.987, 80.05527
1237.469, 79.94705
1237.951, 79.83105
1238.433, 79.77647
1238.915, 79.75024
1239.397, 79.73540
1239.879, 79.73441
1240.362, 79.74779
1240.844, 79.77846
1241.326, 79.87954
1241.808, 80.06463
1242.290, 80.23622
1242.772, 80.35336
1243.254, 80.40316
1243.736, 80.33871
1244.219, 80.22789
1244.701, 80.23289
1245.183, 80.33913
1245.665, 80.48064
1246.147, 80.64835
1246.629, 80.75595
1247.111, 80.68699
1247.593, 80.62581
1248.075, 80.67213
1248.557, 80.76302
1249.040, 80.74004
1249.522, 80.63313
1250.004, 80.55809
1250.486, 80.53545
1250.968, 80.54101
1251.450, 80.63058
1251.932, 80.65747
1252.414, 80.53543
1252.897, 80.36866
1253.379, 80.40404
1253.861, 80.57295
1254.343, 80.71487
1254.825, 80.80617
1255.307, 80.79942
1255.789, 80.61077
1256.271, 80.41290
1256.754, 80.23725
1257.236, 80.10587
1257.718, 80.07571
1258.200, 80.11555
1258.682, 80.16655
1259.164, 80.21711
1259.646, 80.30766
1260.128, 80.45470
1260.610, 80.62546
1261.093, 80.84734
1261.575, 81.00024
1262.057, 80.77303
1262.539, 80.42162
1263.021, 80.33834
1263.503, 80.59828
1263.985, 80.85944
1264.467, 81.15853
1264.949, 81.23473
1265.432, 80.95377
1265.914, 80.59376
1266.396, 80.49548
1266.878, 80.52959
1267.360, 80.54701
1267.842, 80.53455
1268.324, 80.62332
1268.806, 80.83343
1269.289, 80.95688
1269.771, 80.90671
1270.253, 80.85071
1270.735, 81.03917
1271.217, 81.23542
1271.699, 81.13506
1272.181, 80.80999
1272.663, 80.75480
1273.146, 80.96471
1273.628, 81.13075
1274.110, 81.16467
1274.592, 81.17408
1275.074, 81.21715
1275.556, 81.29155
1276.038, 81.41576
1276.520, 81.56329
1277.002, 81.62177
1277.484, 81.60690
1277.967, 81.62785
1278.449, 81.72794
1278.931, 81.76183
1279.413, 81.53451
1279.895, 81.36316
1280.377, 81.41961
1280.859, 81.59850
1281.341, 81.64408
1281.823, 81.58398
1282.306, 81.48450
1282.788, 81.35001
1283.270, 81.25606
1283.752, 81.16365
1284.234, 81.23396
1284.716, 81.59969
1285.198, 82.02651
1285.680, 82.04152
1286.163, 81.82658
1286.645, 81.69441
1287.127, 81.69769
1287.609, 81.78478
1288.091, 82.01077
1288.573, 82.10691
1289.055, 81.95036
1289.537, 81.74903
1290.020, 81.86132
1290.502, 82.04150
1290.984, 81.92112
1291.466, 81.47771
1291.948, 81.44121
1292.430, 81.89024
1292.912, 82.15868
1293.394, 82.04593
1293.876, 81.84180
1294.359, 81.73869
1294.841, 81.73331
1295.323, 81.92030
1295.805, 82.20528
1296.287, 82.17297
1296.769, 81.84834
1297.251, 81.67606
1297.733, 81.76695
1298.215, 81.83926
1298.698, 81.64787
1299.180, 81.45613
1299.662, 81.37998
1300.144, 81.40709
1300.626, 81.52902
1301.108, 81.72665
1301.590, 82.00411
1302.072, 82.37294
##END=



