##NAMES=Sphalerite
##RRUFFID=R100145
##IDEAL CHEMISTRY=Zn^2+^S^2-^
##LOCALITY=Picos De Europa, Cantabria, Spain
##OWNER=RRUFF
##SOURCE=William W. Pinch
##DESCRIPTION=Brown cut gemstone
##STATUS=The identification of this mineral has been confirmed by single-crystal X-ray diffraction.
##URL=rruff.info/R100145
109.8901, 1311.363
110.3722, 1311.031
110.8544, 1315.302
111.3365, 1319.641
111.8186, 1320.393
112.3007, 1318.975
112.7828, 1318.166
113.2649, 1319.884
113.7471, 1323.934
114.2292, 1327.660
114.7113, 1330.501
115.1934, 1333.573
115.6755, 1337.719
116.1576, 1342.643
116.6397, 1347.319
117.1219, 1350.555
117.6040, 1351.699
118.0861, 1353.341
118.5682, 1356.470
119.0503, 1359.287
119.5324, 1360.542
120.0146, 1360.043
120.4967, 1358.620
120.9788, 1357.607
121.4609, 1356.422
121.9430, 1356.767
122.4251, 1359.513
122.9073, 1363.494
123.3894, 1367.479
123.8715, 1371.054
124.3536, 1374.200
124.8357, 1376.522
125.3178, 1376.946
125.8000, 1378.777
126.2821, 1384.173
126.7642, 1392.300
127.2463, 1399.940
127.7284, 1405.591
128.2105, 1409.894
128.6927, 1414.237
129.1748, 1418.553
129.6569, 1423.132
130.1390, 1428.213
130.6211, 1433.789
131.1032, 1439.924
131.5854, 1446.826
132.0675, 1454.285
132.5496, 1462.164
133.0317, 1470.443
133.5138, 1479.092
133.9959, 1488.039
134.4781, 1496.950
134.9602, 1506.931
135.4423, 1518.389
135.9244, 1530.906
136.4065, 1543.917
136.8886, 1557.150
137.3708, 1570.662
137.8529, 1584.069
138.3350, 1598.682
138.8171, 1611.929
139.2992, 1623.558
139.7813, 1633.369
140.2635, 1641.071
140.7456, 1646.258
141.2277, 1648.679
141.7098, 1650.471
142.1919, 1650.383
142.6740, 1650.810
143.1561, 1653.422
143.6383, 1658.171
144.1204, 1663.472
144.6025, 1667.875
145.0846, 1671.253
145.5667, 1673.755
146.0488, 1674.181
146.5310, 1674.271
147.0131, 1676.164
147.4952, 1680.476
147.9773, 1685.364
148.4594, 1688.482
148.9415, 1690.160
149.4237, 1692.245
149.9058, 1695.852
150.3879, 1700.412
150.8700, 1704.162
151.3521, 1706.270
151.8342, 1708.323
152.3164, 1711.900
152.7985, 1716.790
153.2806, 1721.538
153.7627, 1724.947
154.2448, 1726.997
154.7269, 1728.956
155.2091, 1730.370
155.6912, 1732.214
156.1733, 1734.884
156.6554, 1738.463
157.1375, 1742.903
157.6196, 1748.482
158.1018, 1755.969
158.5839, 1762.271
159.0660, 1766.241
159.5481, 1769.805
160.0302, 1774.353
160.5123, 1780.140
160.9945, 1786.195
161.4766, 1790.643
161.9587, 1791.255
162.4408, 1793.683
162.9229, 1799.006
163.4050, 1805.500
163.8871, 1811.464
164.3693, 1816.289
164.8514, 1820.676
165.3335, 1826.379
165.8156, 1834.709
166.2977, 1842.504
166.7798, 1848.936
167.2620, 1854.761
167.7441, 1861.223
168.2262, 1868.986
168.7083, 1877.420
169.1904, 1884.478
169.6725, 1888.927
170.1547, 1894.418
170.6368, 1903.037
171.1189, 1914.021
171.6010, 1924.683
172.0831, 1933.541
172.5652, 1941.573
173.0474, 1950.939
173.5295, 1961.936
174.0116, 1973.630
174.4937, 1985.549
174.9758, 1997.716
175.4579, 2009.558
175.9401, 2021.773
176.4222, 2032.965
176.9043, 2041.892
177.3864, 2048.744
177.8685, 2052.360
178.3506, 2051.040
178.8328, 2044.179
179.3149, 2034.267
179.7970, 2020.578
180.2791, 2005.096
180.7612, 1989.158
181.2433, 1972.991
181.7255, 1957.202
182.2076, 1943.068
182.6897, 1931.107
183.1718, 1920.042
183.6539, 1908.652
184.1360, 1898.137
184.6181, 1890.189
185.1003, 1885.738
185.5824, 1883.618
186.0645, 1879.680
186.5466, 1871.050
187.0287, 1864.066
187.5108, 1860.063
187.9930, 1858.031
188.4751, 1856.686
188.9572, 1855.314
189.4393, 1854.075
189.9214, 1853.911
190.4035, 1855.509
190.8857, 1857.432
191.3678, 1860.274
191.8499, 1863.209
192.3320, 1864.880
192.8141, 1864.428
193.2962, 1862.049
193.7784, 1859.078
194.2605, 1853.953
194.7426, 1849.990
195.2247, 1848.969
195.7068, 1850.140
196.1889, 1851.249
196.6711, 1850.775
197.1532, 1849.203
197.6353, 1849.020
198.1174, 1851.456
198.5995, 1853.984
199.0816, 1855.038
199.5638, 1854.818
200.0459, 1854.605
200.5280, 1854.801
201.0101, 1855.763
201.4922, 1857.970
201.9743, 1861.283
202.4565, 1866.028
202.9386, 1873.051
203.4207, 1882.436
203.9028, 1891.801
204.3849, 1899.383
204.8670, 1906.333
205.3492, 1914.133
205.8313, 1922.886
206.3134, 1932.810
206.7955, 1944.410
207.2776, 1957.995
207.7597, 1971.832
208.2419, 1984.244
208.7240, 1996.856
209.2061, 2011.195
209.6882, 2027.678
210.1703, 2046.230
210.6524, 2067.194
211.1346, 2091.415
211.6167, 2115.552
212.0988, 2137.309
212.5809, 2158.864
213.0630, 2183.129
213.5451, 2211.517
214.0273, 2241.545
214.5094, 2267.866
214.9915, 2291.106
215.4736, 2308.682
215.9557, 2321.290
216.4378, 2328.817
216.9200, 2331.195
217.4021, 2328.364
217.8842, 2320.454
218.3663, 2307.647
218.8484, 2287.502
219.3305, 2265.375
219.8127, 2241.164
220.2948, 2215.764
220.7769, 2189.739
221.2590, 2163.343
221.7411, 2136.935
222.2232, 2111.562
222.7054, 2087.752
223.1875, 2064.515
223.6696, 2041.355
224.1517, 2018.841
224.6338, 1997.578
225.1159, 1977.743
225.5980, 1959.529
226.0802, 1943.556
226.5623, 1930.979
227.0444, 1919.455
227.5265, 1908.406
228.0086, 1898.449
228.4907, 1890.854
228.9729, 1886.226
229.4550, 1883.510
229.9371, 1880.032
230.4192, 1874.144
230.9013, 1870.057
231.3834, 1868.758
231.8656, 1869.592
232.3477, 1872.080
232.8298, 1876.300
233.3119, 1881.057
233.7940, 1883.681
234.2761, 1884.089
234.7583, 1883.294
235.2404, 1882.594
235.7225, 1880.686
236.2046, 1875.013
236.6867, 1864.314
237.1688, 1850.426
237.6510, 1836.361
238.1331, 1822.680
238.6152, 1806.989
239.0973, 1787.515
239.5794, 1765.481
240.0615, 1743.201
240.5437, 1720.539
241.0258, 1699.179
241.5079, 1681.336
241.9900, 1666.721
242.4721, 1653.980
242.9542, 1642.971
243.4364, 1633.469
243.9185, 1624.985
244.4006, 1617.612
244.8827, 1610.983
245.3648, 1604.743
245.8469, 1598.872
246.3290, 1593.414
246.8112, 1588.256
247.2933, 1583.533
247.7754, 1579.680
248.2575, 1577.215
248.7396, 1574.883
249.2217, 1571.392
249.7039, 1567.120
250.1860, 1563.417
250.6681, 1561.287
251.1502, 1560.355
251.6323, 1559.263
252.1144, 1558.084
252.5966, 1556.493
253.0787, 1553.817
253.5608, 1550.615
254.0429, 1548.148
254.5250, 1547.386
255.0071, 1547.938
255.4893, 1548.291
255.9714, 1548.350
256.4535, 1548.357
256.9356, 1548.508
257.4177, 1548.685
257.8998, 1548.688
258.3820, 1548.386
258.8641, 1547.839
259.3462, 1547.171
259.8283, 1545.960
260.3104, 1545.377
260.7925, 1545.648
261.2747, 1546.680
261.7568, 1548.635
262.2389, 1551.934
262.7210, 1555.598
263.2031, 1556.680
263.6852, 1553.871
264.1674, 1550.509
264.6495, 1546.572
265.1316, 1542.922
265.6137, 1540.798
266.0958, 1540.818
266.5779, 1541.849
267.0601, 1541.039
267.5422, 1536.819
268.0243, 1533.582
268.5064, 1532.990
268.9885, 1532.974
269.4706, 1531.593
269.9528, 1528.184
270.4349, 1523.718
270.9170, 1520.037
271.3991, 1517.619
271.8812, 1515.126
272.3633, 1512.595
272.8455, 1509.890
273.3276, 1506.511
273.8097, 1502.494
274.2918, 1498.843
274.7739, 1497.289
275.2560, 1499.342
275.7382, 1500.307
276.2202, 1499.551
276.7024, 1498.416
277.1845, 1497.479
277.6666, 1496.958
278.1487, 1497.043
278.6308, 1498.078
279.1129, 1500.502
279.5951, 1502.330
280.0772, 1503.116
280.5593, 1503.802
281.0414, 1504.927
281.5235, 1506.458
282.0056, 1507.982
282.4878, 1509.061
282.9699, 1509.589
283.4520, 1510.534
283.9341, 1511.593
284.4162, 1513.295
284.8983, 1516.156
285.3805, 1519.901
285.8626, 1523.766
286.3447, 1527.119
286.8268, 1529.975
287.3089, 1533.747
287.7910, 1540.085
288.2732, 1545.510
288.7553, 1547.704
289.2374, 1548.307
289.7195, 1550.340
290.2016, 1555.629
290.6837, 1563.769
291.1659, 1572.857
291.6480, 1583.802
292.1301, 1594.539
292.6122, 1604.678
293.0943, 1614.414
293.5764, 1623.810
294.0586, 1632.904
294.5407, 1642.124
295.0228, 1652.686
295.5049, 1666.256
295.9870, 1679.207
296.4691, 1691.965
296.9513, 1703.812
297.4334, 1714.106
297.9155, 1722.583
298.3976, 1729.302
298.8797, 1734.401
299.3618, 1738.475
299.8440, 1739.113
300.3261, 1734.811
300.8082, 1728.115
301.2903, 1720.843
301.7724, 1713.417
302.2545, 1705.297
302.7367, 1695.587
303.2188, 1683.511
303.7009, 1673.088
304.1830, 1663.904
304.6651, 1656.439
305.1472, 1651.027
305.6294, 1647.636
306.1115, 1646.197
306.5936, 1647.008
307.0757, 1650.276
307.5578, 1651.464
308.0399, 1649.013
308.5221, 1646.435
309.0042, 1644.873
309.4863, 1644.405
309.9684, 1645.146
310.4505, 1647.372
310.9326, 1650.719
311.4148, 1652.506
311.8969, 1653.520
312.3790, 1652.404
312.8611, 1648.615
313.3432, 1642.520
313.8253, 1634.435
314.3075, 1624.452
314.7896, 1613.067
315.2717, 1601.362
315.7538, 1586.944
316.2359, 1575.679
316.7180, 1568.417
317.2001, 1564.373
317.6823, 1563.383
318.1644, 1565.288
318.6465, 1568.509
319.1286, 1570.576
319.6107, 1570.142
320.0928, 1571.981
320.5750, 1576.880
321.0571, 1583.408
321.5392, 1590.924
322.0213, 1599.112
322.5034, 1607.452
322.9855, 1615.347
323.4677, 1622.779
323.9498, 1630.201
324.4319, 1636.992
324.9140, 1644.337
325.3961, 1653.038
325.8782, 1662.854
326.3604, 1673.088
326.8425, 1683.287
327.3246, 1693.458
327.8067, 1703.840
328.2888, 1713.736
328.7709, 1724.622
329.2531, 1737.707
329.7352, 1751.875
330.2173, 1765.541
330.6994, 1778.000
331.1815, 1789.170
331.6636, 1798.866
332.1458, 1808.005
332.6279, 1814.291
333.1100, 1817.377
333.5921, 1817.694
334.0742, 1814.443
334.5563, 1807.767
335.0385, 1800.586
335.5206, 1797.182
336.0027, 1798.773
336.4848, 1801.507
336.9669, 1805.475
337.4490, 1810.373
337.9312, 1815.479
338.4133, 1821.107
338.8954, 1828.604
339.3775, 1839.309
339.8596, 1853.433
340.3417, 1868.486
340.8239, 1882.557
341.3060, 1899.272
341.7881, 1919.069
342.2702, 1942.575
342.7523, 1970.164
343.2344, 2001.728
343.7166, 2038.010
344.1987, 2082.442
344.6808, 2133.649
345.1629, 2196.226
345.6450, 2272.518
346.1271, 2359.338
346.6093, 2457.196
347.0914, 2564.846
347.5735, 2674.385
348.0556, 2771.638
348.5377, 2875.112
349.0198, 2928.290
349.5020, 2930.199
349.9841, 2891.311
350.4662, 2806.205
350.9483, 2682.009
351.4304, 2542.176
351.9125, 2409.372
352.3947, 2281.650
352.8768, 2175.866
353.3589, 2097.730
353.8410, 2035.672
354.3231, 1990.241
354.8052, 1958.056
355.2874, 1933.807
355.7695, 1914.491
356.2516, 1899.889
356.7337, 1888.445
357.2158, 1881.776
357.6979, 1876.397
358.1800, 1871.139
358.6621, 1866.939
359.1443, 1865.179
359.6264, 1866.369
360.1085, 1869.214
360.5906, 1871.503
361.0727, 1873.201
361.5548, 1874.415
362.0370, 1873.739
362.5191, 1873.677
363.0012, 1876.340
363.4833, 1881.614
363.9654, 1887.222
364.4475, 1890.564
364.9297, 1891.422
365.4118, 1893.667
365.8939, 1898.295
366.3760, 1903.309
366.8581, 1908.268
367.3402, 1912.962
367.8224, 1917.003
368.3045, 1919.881
368.7866, 1922.144
369.2687, 1925.584
369.7508, 1930.878
370.2329, 1935.847
370.7151, 1939.297
371.1972, 1942.324
371.6793, 1946.171
372.1614, 1951.244
372.6435, 1956.600
373.1256, 1961.391
373.6078, 1965.677
374.0899, 1968.508
374.5720, 1969.360
375.0541, 1968.820
375.5362, 1966.874
376.0183, 1963.719
376.5005, 1960.795
376.9826, 1959.038
377.4647, 1958.254
377.9468, 1957.583
378.4289, 1956.596
378.9110, 1956.570
379.3932, 1959.245
379.8753, 1963.377
380.3574, 1966.587
380.8395, 1967.607
381.3216, 1967.863
381.8037, 1969.042
382.2859, 1971.158
382.7680, 1973.528
383.2501, 1975.746
383.7322, 1978.178
384.2143, 1981.672
384.6964, 1986.812
385.1786, 1990.971
385.6607, 1991.949
386.1428, 1990.765
386.6249, 1989.748
387.1070, 1989.038
387.5891, 1989.776
388.0713, 1994.450
388.5534, 2002.643
389.0355, 2009.568
389.5176, 2013.154
389.9997, 2015.728
390.4818, 2019.497
390.9640, 2024.586
391.4461, 2030.137
391.9282, 2035.457
392.4103, 2040.809
392.8924, 2047.410
393.3745, 2057.090
393.8567, 2065.902
394.3388, 2072.081
394.8209, 2076.303
395.3030, 2079.752
395.7851, 2082.878
396.2672, 2085.517
396.7494, 2087.475
397.2315, 2088.982
397.7136, 2089.010
398.1957, 2087.962
398.6778, 2085.097
399.1599, 2079.355
399.6420, 2070.900
400.1241, 2061.174
400.6063, 2051.415
401.0884, 2041.601
401.5705, 2031.362
402.0526, 2019.511
402.5347, 2008.616
403.0168, 1999.454
403.4990, 1991.780
403.9811, 1985.363
404.4632, 1980.139
404.9453, 1975.721
405.4274, 1971.177
405.9095, 1966.303
406.3917, 1961.748
406.8738, 1957.514
407.3559, 1953.605
407.8380, 1949.587
408.3201, 1945.674
408.8022, 1942.915
409.2844, 1942.538
409.7665, 1944.699
410.2486, 1946.709
410.7307, 1948.132
411.2128, 1949.849
411.6949, 1950.924
412.1771, 1952.685
412.6592, 1957.452
413.1413, 1966.660
413.6234, 1978.480
414.1055, 1988.834
414.5876, 1996.960
415.0698, 2006.104
415.5519, 2017.240
416.0340, 2029.513
416.5161, 2043.271
416.9982, 2058.363
417.4803, 2072.155
417.9625, 2082.286
418.4446, 2089.092
418.9267, 2095.377
419.4088, 2102.245
419.8909, 2106.762
420.3730, 2106.795
420.8552, 2103.324
421.3373, 2097.884
421.8194, 2090.070
422.3015, 2081.469
422.7836, 2073.978
423.2657, 2067.598
423.7479, 2061.282
424.2300, 2054.369
424.7121, 2047.573
425.1942, 2041.983
425.6763, 2037.814
426.1584, 2033.771
426.6406, 2029.799
427.1227, 2025.452
427.6048, 2019.715
428.0869, 2012.296
428.5690, 2004.732
429.0511, 1998.798
429.5333, 1994.397
430.0154, 1988.065
430.4975, 1978.675
430.9796, 1968.384
431.4617, 1957.667
431.9438, 1947.017
432.4260, 1937.595
432.9081, 1930.101
433.3902, 1923.760
433.8723, 1916.772
434.3544, 1908.413
434.8365, 1900.605
435.3187, 1892.308
435.8008, 1885.295
436.2829, 1881.517
436.7650, 1880.885
437.2471, 1881.608
437.7292, 1882.174
438.2114, 1882.603
438.6935, 1882.217
439.1756, 1879.831
439.6577, 1877.957
440.1398, 1876.527
440.6219, 1876.174
441.1040, 1878.347
441.5862, 1883.631
442.0683, 1889.771
442.5504, 1892.295
443.0325, 1889.767
443.5146, 1888.084
443.9967, 1887.634
444.4789, 1888.266
444.9610, 1890.687
445.4431, 1894.338
445.9252, 1897.469
446.4073, 1898.604
446.8894, 1898.228
447.3716, 1898.399
447.8537, 1899.722
448.3358, 1900.039
448.8179, 1898.113
449.3000, 1894.783
449.7821, 1890.790
450.2643, 1886.274
450.7464, 1881.101
451.2285, 1875.972
451.7106, 1870.351
452.1927, 1861.399
452.6748, 1847.944
453.1570, 1832.389
453.6391, 1816.776
454.1212, 1801.070
454.6033, 1784.872
455.0854, 1767.393
455.5675, 1749.994
456.0497, 1733.087
456.5318, 1717.059
457.0139, 1703.483
457.4960, 1693.224
457.9781, 1685.878
458.4602, 1680.710
458.9424, 1678.759
459.4245, 1676.406
459.9066, 1672.744
460.3887, 1668.556
460.8708, 1664.262
461.3529, 1660.100
461.8351, 1656.772
462.3172, 1654.919
462.7993, 1654.569
463.2814, 1655.238
463.7635, 1658.007
464.2456, 1660.472
464.7278, 1662.344
465.2099, 1663.456
465.6920, 1663.518
466.1741, 1662.440
466.6562, 1660.677
467.1383, 1658.716
467.6205, 1655.904
468.1026, 1654.908
468.5847, 1657.879
469.0668, 1660.844
469.5489, 1662.021
470.0310, 1661.683
470.5132, 1660.891
470.9953, 1660.127
471.4774, 1659.519
471.9595, 1659.544
472.4416, 1660.466
472.9237, 1661.048
473.4059, 1660.366
473.8880, 1659.447
474.3701, 1659.367
474.8522, 1660.277
475.3343, 1661.049
475.8164, 1660.997
476.2986, 1660.257
476.7807, 1658.618
477.2628, 1655.642
477.7449, 1654.108
478.2270, 1657.260
478.7091, 1663.746
479.1913, 1667.665
479.6734, 1666.708
480.1555, 1665.360
480.6376, 1665.884
481.1197, 1667.686
481.6018, 1669.631
482.0839, 1671.370
482.5660, 1672.915
483.0482, 1674.389
483.5303, 1676.054
484.0124, 1676.414
484.4945, 1673.390
484.9766, 1671.087
485.4587, 1672.672
485.9409, 1676.778
486.4230, 1679.699
486.9051, 1679.271
487.3872, 1676.867
487.8693, 1676.609
488.3514, 1680.496
488.8336, 1682.763
489.3157, 1681.692
489.7978, 1680.166
490.2799, 1680.300
490.7620, 1681.985
491.2441, 1683.588
491.7263, 1683.613
492.2084, 1682.488
492.6905, 1682.297
493.1726, 1683.332
493.6547, 1684.622
494.1368, 1686.750
494.6190, 1688.454
495.1011, 1687.889
495.5832, 1684.422
496.0653, 1681.200
496.5474, 1680.812
497.0295, 1682.564
497.5117, 1684.589
497.9938, 1686.779
498.4759, 1688.489
498.9580, 1688.797
499.4401, 1688.056
499.9222, 1688.228
500.4044, 1690.487
500.8865, 1692.580
501.3686, 1692.577
501.8507, 1691.667
502.3328, 1692.729
502.8149, 1696.814
503.2971, 1701.643
503.7792, 1703.969
504.2613, 1703.092
504.7434, 1702.095
505.2255, 1699.521
505.7076, 1698.276
506.1898, 1700.601
506.6719, 1705.239
507.1540, 1709.730
507.6361, 1712.826
508.1182, 1714.699
508.6003, 1715.571
509.0825, 1714.968
509.5646, 1714.636
510.0467, 1714.138
510.5288, 1714.463
511.0109, 1716.601
511.4930, 1720.166
511.9752, 1723.737
512.4573, 1726.455
512.9394, 1728.574
513.4215, 1730.697
513.9036, 1732.867
514.3857, 1734.843
514.8679, 1736.873
515.3500, 1738.363
515.8321, 1738.319
516.3142, 1736.504
516.7963, 1735.186
517.2784, 1735.983
517.7606, 1737.549
518.2427, 1737.610
518.7248, 1736.081
519.2069, 1735.404
519.6890, 1737.726
520.1711, 1742.035
520.6533, 1743.121
521.1354, 1738.517
521.6175, 1734.534
522.0996, 1733.018
522.5817, 1732.140
523.0638, 1729.909
523.5460, 1726.135
524.0281, 1721.912
524.5102, 1717.922
524.9923, 1714.255
525.4744, 1714.505
525.9565, 1723.865
526.4387, 1730.346
526.9208, 1730.663
527.4029, 1727.549
527.8850, 1723.313
528.3671, 1718.680
528.8492, 1714.363
529.3314, 1710.663
529.8135, 1707.723
530.2956, 1707.402
530.7777, 1711.335
531.2598, 1714.727
531.7419, 1713.821
532.2241, 1710.570
532.7062, 1707.864
533.1883, 1706.052
533.6704, 1705.223
534.1525, 1706.467
534.6346, 1708.633
535.1168, 1708.641
535.5989, 1705.639
536.0810, 1702.063
536.5631, 1700.299
537.0452, 1700.440
537.5273, 1700.891
538.0095, 1701.527
538.4916, 1702.573
538.9737, 1704.501
539.4558, 1706.767
539.9379, 1708.703
540.4200, 1710.057
540.9022, 1710.770
541.3843, 1710.525
541.8664, 1708.954
542.3485, 1708.580
542.8306, 1711.286
543.3127, 1713.166
543.7948, 1712.545
544.2769, 1710.451
544.7590, 1708.263
545.2411, 1706.373
545.7233, 1705.263
546.2054, 1705.700
546.6875, 1707.611
547.1696, 1710.081
547.6517, 1713.336
548.1339, 1716.401
548.6160, 1718.424
549.0981, 1719.588
549.5802, 1720.279
550.0623, 1719.952
550.5444, 1719.806
551.0266, 1720.827
551.5087, 1722.592
551.9908, 1724.201
552.4729, 1725.390
552.9550, 1726.232
553.4371, 1726.775
553.9193, 1726.961
554.4014, 1727.253
554.8835, 1728.251
555.3656, 1728.702
555.8477, 1727.340
556.3298, 1725.420
556.8120, 1724.852
557.2941, 1726.314
557.7762, 1728.853
558.2583, 1731.553
558.7404, 1734.627
559.2225, 1735.874
559.7047, 1733.931
560.1868, 1731.788
560.6689, 1730.564
561.1510, 1730.154
561.6331, 1730.384
562.1152, 1731.241
562.5974, 1732.606
563.0795, 1734.668
563.5616, 1737.185
564.0437, 1739.374
564.5258, 1741.158
565.0079, 1742.230
565.4901, 1741.974
565.9722, 1740.503
566.4543, 1740.099
566.9364, 1741.471
567.4185, 1743.102
567.9006, 1744.406
568.3828, 1745.635
568.8649, 1747.427
569.3470, 1749.835
569.8291, 1751.935
570.3112, 1752.566
570.7933, 1751.648
571.2755, 1750.757
571.7576, 1749.017
572.2397, 1748.471
572.7218, 1750.430
573.2039, 1753.367
573.6860, 1755.494
574.1682, 1756.383
574.6503, 1757.113
575.1324, 1758.820
575.6145, 1761.251
576.0966, 1763.435
576.5787, 1765.450
577.0609, 1766.598
577.5430, 1765.801
578.0251, 1764.016
578.5072, 1763.605
578.9893, 1765.202
579.4714, 1766.850
579.9536, 1767.906
580.4357, 1768.558
580.9178, 1768.761
581.3999, 1768.664
581.8820, 1769.109
582.3641, 1770.850
582.8463, 1773.597
583.3284, 1775.613
583.8105, 1775.488
584.2926, 1776.754
584.7747, 1781.685
585.2568, 1786.535
585.7390, 1787.920
586.2211, 1786.183
586.7032, 1784.417
587.1853, 1784.822
587.6674, 1786.776
588.1495, 1788.466
588.6317, 1789.703
589.1138, 1791.990
589.5959, 1796.679
590.0780, 1801.824
590.5601, 1805.155
591.0422, 1806.706
591.5244, 1807.676
592.0065, 1807.618
592.4886, 1807.749
592.9707, 1809.287
593.4528, 1811.983
593.9349, 1814.824
594.4171, 1817.318
594.8992, 1819.963
595.3813, 1823.609
595.8634, 1828.253
596.3455, 1834.008
596.8276, 1843.081
597.3098, 1850.785
597.7919, 1854.517
598.2740, 1855.712
598.7561, 1856.710
599.2382, 1858.435
599.7203, 1860.876
600.2025, 1864.501
600.6846, 1869.264
601.1667, 1872.471
601.6488, 1872.723
602.1309, 1873.680
602.6130, 1878.644
603.0952, 1886.028
603.5773, 1892.615
604.0594, 1897.704
604.5415, 1902.588
605.0236, 1908.397
605.5057, 1914.283
605.9879, 1918.715
606.4700, 1921.533
606.9521, 1923.910
607.4342, 1926.716
607.9163, 1929.935
608.3984, 1933.562
608.8806, 1938.197
609.3627, 1942.357
609.8448, 1945.570
610.3269, 1948.511
610.8090, 1951.745
611.2911, 1955.245
611.7733, 1958.666
612.2554, 1962.138
612.7375, 1965.033
613.2196, 1965.226
613.7017, 1962.327
614.1838, 1961.191
614.6660, 1964.691
615.1481, 1968.838
615.6302, 1968.852
616.1123, 1965.038
616.5944, 1960.423
617.0765, 1956.137
617.5587, 1950.788
618.0408, 1942.553
618.5229, 1932.648
619.0050, 1924.123
619.4871, 1917.995
619.9692, 1911.762
620.4514, 1901.506
620.9335, 1886.072
621.4156, 1875.092
621.8977, 1871.088
622.3798, 1868.815
622.8619, 1867.537
623.3441, 1866.972
623.8262, 1866.974
624.3083, 1867.495
624.7904, 1868.323
625.2725, 1869.104
625.7546, 1870.073
626.2367, 1872.077
626.7188, 1875.260
627.2009, 1878.287
627.6830, 1880.130
628.1652, 1881.668
628.6473, 1885.221
629.1294, 1891.503
629.6115, 1897.069
630.0936, 1899.621
630.5757, 1902.842
631.0579, 1910.407
631.5400, 1920.936
632.0221, 1930.367
632.5042, 1936.570
632.9863, 1941.299
633.4684, 1947.916
633.9506, 1956.947
634.4327, 1965.381
634.9148, 1972.780
635.3969, 1979.848
635.8790, 1986.991
636.3611, 1994.042
636.8433, 2001.044
637.3254, 2008.555
637.8075, 2014.128
638.2896, 2015.702
638.7717, 2014.152
639.2538, 2010.817
639.7360, 2005.937
640.2181, 2000.258
640.7002, 1994.417
641.1823, 1986.639
641.6644, 1980.030
642.1465, 1968.779
642.6287, 1957.600
643.1108, 1946.032
643.5929, 1935.015
644.0750, 1925.615
644.5571, 1917.310
645.0392, 1908.320
645.5214, 1897.424
646.0035, 1886.313
646.4856, 1877.661
646.9677, 1871.468
647.4498, 1867.561
647.9319, 1866.751
648.4141, 1866.513
648.8962, 1864.298
649.3783, 1860.879
649.8604, 1859.289
650.3425, 1860.168
650.8246, 1862.328
651.3068, 1866.095
651.7889, 1870.457
652.2710, 1873.602
652.7531, 1875.672
653.2352, 1879.065
653.7173, 1885.891
654.1995, 1895.129
654.6816, 1902.401
655.1637, 1906.457
655.6458, 1911.487
656.1279, 1919.572
656.6100, 1927.627
657.0922, 1933.164
657.5743, 1937.068
658.0564, 1942.463
658.5385, 1950.848
659.0206, 1960.811
659.5027, 1971.593
659.9849, 1982.847
660.4670, 1993.518
660.9491, 2003.305
661.4312, 2013.342
661.9133, 2024.584
662.3954, 2037.066
662.8776, 2050.909
663.3597, 2067.775
663.8418, 2083.843
664.3239, 2096.625
664.8060, 2110.151
665.2881, 2129.112
665.7703, 2152.374
666.2524, 2174.241
666.7345, 2191.380
667.2166, 2204.867
667.6987, 2217.678
668.1808, 2229.692
668.6630, 2236.065
669.1451, 2235.207
669.6272, 2229.434
670.1093, 2220.524
670.5914, 2208.308
671.0735, 2193.478
671.5557, 2173.378
672.0378, 2153.916
672.5199, 2136.905
673.0020, 2121.706
673.4841, 2107.365
673.9662, 2093.914
674.4484, 2082.268
674.9305, 2073.315
675.4126, 2066.298
675.8947, 2058.365
676.3768, 2048.932
676.8589, 2041.280
677.3411, 2036.894
677.8232, 2033.565
678.3053, 2029.564
678.7874, 2025.106
679.2695, 2021.000
679.7516, 2017.912
680.2338, 2014.621
680.7159, 2009.825
681.1980, 2004.588
681.6801, 2000.795
682.1622, 1998.633
682.6443, 1996.596
683.1265, 1993.486
683.6086, 1989.432
684.0907, 1984.923
684.5728, 1979.158
685.0549, 1974.675
685.5370, 1972.269
686.0192, 1970.854
686.5013, 1970.495
686.9834, 1970.644
687.4655, 1969.884
687.9476, 1967.411
688.4297, 1964.363
688.9119, 1961.647
689.3940, 1959.155
689.8761, 1956.745
690.3582, 1954.371
690.8403, 1951.784
691.3224, 1948.776
691.8046, 1945.404
692.2867, 1941.824
692.7688, 1937.705
693.2509, 1933.962
693.7330, 1931.318
694.2151, 1928.459
694.6973, 1924.331
695.1794, 1919.361
695.6615, 1914.821
696.1436, 1911.447
696.6257, 1908.006
697.1078, 1902.936
697.5900, 1896.641
698.0721, 1890.154
698.5542, 1883.570
699.0363, 1877.985
699.5184, 1874.295
700.0005, 1872.048
700.4827, 1869.750
700.9648, 1867.376
701.4469, 1864.973
701.9290, 1862.043
702.4111, 1859.545
702.8932, 1858.087
703.3754, 1857.501
703.8575, 1857.474
704.3396, 1857.917
704.8217, 1858.385
705.3038, 1858.243
705.7859, 1857.643
706.2681, 1857.418
706.7502, 1857.734
707.2323, 1857.730
707.7144, 1856.879
708.1965, 1855.437
708.6786, 1853.825
709.1607, 1851.507
709.6428, 1850.567
710.1249, 1852.125
710.6071, 1854.104
711.0892, 1855.881
711.5713, 1857.087
712.0534, 1856.905
712.5355, 1855.156
713.0176, 1853.518
713.4998, 1854.151
713.9819, 1856.615
714.4640, 1858.943
714.9461, 1861.409
715.4282, 1861.576
715.9103, 1857.253
716.3925, 1851.382
716.8746, 1848.552
717.3567, 1849.012
717.8388, 1849.781
718.3209, 1850.557
718.8030, 1851.656
719.2852, 1854.011
719.7673, 1856.413
720.2494, 1856.984
720.7315, 1855.461
721.2136, 1853.425
721.6957, 1852.187
722.1779, 1851.638
722.6600, 1851.368
723.1421, 1851.336
723.6242, 1851.992
724.1063, 1853.852
724.5884, 1855.830
725.0706, 1856.682
725.5527, 1856.500
726.0348, 1856.411
726.5169, 1857.000
726.9990, 1857.060
727.4811, 1855.440
727.9633, 1853.571
728.4454, 1853.507
728.9275, 1854.966
729.4096, 1855.464
729.8917, 1852.980
730.3738, 1849.359
730.8560, 1848.717
731.3381, 1851.140
731.8202, 1853.891
732.3023, 1857.144
732.7844, 1859.148
733.2665, 1857.795
733.7487, 1854.174
734.2308, 1852.542
734.7129, 1854.234
735.1950, 1855.384
735.6771, 1854.989
736.1592, 1853.964
736.6414, 1852.555
737.1235, 1851.176
737.6056, 1850.549
738.0877, 1850.996
738.5698, 1852.202
739.0519, 1854.062
739.5341, 1856.431
740.0162, 1858.061
740.4983, 1858.857
740.9804, 1858.942
741.4625, 1858.017
741.9446, 1856.705
742.4268, 1856.187
742.9089, 1856.558
743.3910, 1857.061
743.8731, 1857.887
744.3552, 1858.548
744.8373, 1859.164
745.3195, 1859.310
745.8016, 1857.767
746.2837, 1854.634
746.7658, 1852.509
747.2479, 1854.549
747.7300, 1858.887
748.2122, 1859.895
748.6943, 1857.513
749.1764, 1856.436
749.6585, 1858.387
750.1406, 1861.010
750.6227, 1861.917
751.1049, 1861.150
751.5870, 1860.629
752.0691, 1860.120
752.5512, 1860.142
753.0333, 1861.399
753.5154, 1862.736
753.9976, 1863.086
754.4797, 1862.610
754.9618, 1862.128
755.4439, 1862.018
755.9260, 1862.199
756.4081, 1862.970
756.8903, 1863.991
757.3724, 1863.368
757.8545, 1860.732
758.3366, 1859.004
758.8187, 1860.198
759.3008, 1863.242
759.7830, 1865.569
760.2651, 1867.509
760.7472, 1867.901
761.2293, 1864.723
761.7114, 1862.382
762.1935, 1863.767
762.6757, 1866.563
763.1578, 1867.219
763.6399, 1865.033
764.1220, 1863.240
764.6041, 1864.617
765.0862, 1867.529
765.5684, 1869.984
766.0505, 1871.814
766.5326, 1872.254
767.0147, 1871.013
767.4968, 1869.065
767.9789, 1867.264
768.4611, 1865.662
768.9432, 1866.058
769.4253, 1870.194
769.9074, 1873.315
770.3895, 1874.160
770.8716, 1874.267
771.3538, 1874.749
771.8359, 1875.344
772.3180, 1874.868
772.8001, 1871.986
773.2822, 1869.925
773.7643, 1872.304
774.2465, 1876.172
774.7286, 1876.570
775.2107, 1873.759
775.6928, 1871.953
776.1749, 1873.582
776.6570, 1876.776
777.1392, 1877.837
777.6213, 1876.445
778.1034, 1875.139
778.5855, 1873.072
779.0676, 1872.891
779.5497, 1878.680
780.0319, 1885.236
780.5140, 1884.630
780.9961, 1876.068
781.4782, 1870.543
781.9603, 1872.980
782.4424, 1876.715
782.9246, 1877.974
783.4067, 1878.027
783.8888, 1879.329
784.3709, 1882.040
784.8530, 1883.769
785.3351, 1882.165
785.8173, 1878.963
786.2994, 1878.749
786.7815, 1881.524
787.2636, 1884.124
787.7457, 1886.075
788.2278, 1887.531
788.7100, 1888.995
789.1921, 1889.968
789.6742, 1888.221
790.1563, 1880.544
790.6384, 1876.194
791.1205, 1878.236
791.6026, 1881.157
792.0847, 1881.806
792.5668, 1881.242
793.0490, 1881.847
793.5311, 1884.290
794.0132, 1886.445
794.4953, 1886.124
794.9774, 1884.579
795.4595, 1884.022
795.9417, 1884.342
796.4238, 1884.533
796.9059, 1884.228
797.3880, 1884.134
797.8701, 1885.177
798.3522, 1887.209
798.8344, 1887.919
799.3165, 1886.198
799.7986, 1885.229
800.2807, 1886.147
800.7628, 1887.360
801.2449, 1887.759
801.7271, 1887.705
802.2092, 1888.357
802.6913, 1890.447
803.1734, 1892.115
803.6555, 1891.900
804.1376, 1891.161
804.6198, 1891.067
805.1019, 1891.818
805.5840, 1894.007
806.0661, 1897.840
806.5482, 1901.244
807.0303, 1900.858
807.5125, 1897.230
807.9946, 1895.729
808.4767, 1896.825
808.9588, 1897.316
809.4409, 1895.666
809.9230, 1893.778
810.4052, 1894.120
810.8873, 1896.681
811.3694, 1897.775
811.8515, 1895.588
812.3336, 1894.390
812.8157, 1895.494
813.2979, 1897.485
813.7800, 1898.887
814.2621, 1900.186
814.7442, 1903.771
815.2263, 1911.493
815.7084, 1917.227
816.1906, 1911.889
816.6727, 1901.270
817.1548, 1898.006
817.6369, 1902.047
818.1190, 1905.971
818.6011, 1906.483
819.0833, 1905.449
819.5654, 1905.509
820.0475, 1906.701
820.5296, 1907.776
821.0117, 1908.709
821.4938, 1909.581
821.9760, 1910.819
822.4581, 1911.621
822.9402, 1910.867
823.4223, 1908.992
823.9044, 1908.069
824.3865, 1909.660
824.8687, 1910.498
825.3508, 1907.886
825.8329, 1905.040
826.3150, 1906.087
826.7971, 1909.681
827.2792, 1911.158
827.7614, 1908.436
828.2435, 1904.606
828.7256, 1903.555
829.2077, 1904.567
829.6898, 1904.896
830.1719, 1904.467
830.6541, 1903.964
831.1362, 1903.485
831.6183, 1903.665
832.1004, 1905.620
832.5825, 1909.288
833.0646, 1910.741
833.5468, 1908.399
834.0289, 1906.254
834.5110, 1904.458
834.9931, 1903.311
835.4752, 1902.676
835.9573, 1902.878
836.4395, 1905.160
836.9216, 1911.011
837.4037, 1914.995
837.8858, 1912.217
838.3679, 1907.727
838.8500, 1906.801
839.3322, 1908.707
839.8143, 1910.811
840.2964, 1912.122
840.7785, 1912.831
841.2606, 1913.070
841.7427, 1912.885
842.2249, 1912.072
842.7070, 1910.532
843.1891, 1910.880
843.6712, 1914.338
844.1533, 1917.827
844.6354, 1918.568
845.1176, 1917.144
845.5997, 1916.434
846.0818, 1917.321
846.5639, 1917.515
847.0460, 1916.619
847.5281, 1915.486
848.0103, 1914.026
848.4924, 1912.799
848.9745, 1912.823
849.4566, 1914.302
849.9387, 1915.557
850.4208, 1915.414
850.9030, 1914.967
851.3851, 1915.372
851.8672, 1916.178
852.3493, 1916.285
852.8314, 1915.633
853.3135, 1915.372
853.7957, 1916.478
854.2778, 1918.220
854.7599, 1918.984
855.2420, 1918.783
855.7241, 1917.913
856.2062, 1916.145
856.6884, 1914.982
857.1705, 1915.359
857.6526, 1916.656
858.1347, 1917.767
858.6168, 1918.615
859.0989, 1919.550
859.5811, 1921.600
860.0632, 1922.387
860.5453, 1920.272
861.0274, 1917.495
861.5095, 1915.686
861.9916, 1915.045
862.4738, 1915.636
862.9559, 1918.343
863.4380, 1920.634
863.9201, 1920.079
864.4022, 1918.746
864.8843, 1919.724
865.3665, 1922.305
865.8486, 1923.305
866.3307, 1921.427
866.8128, 1918.824
867.2949, 1918.157
867.7770, 1919.025
868.2592, 1919.821
868.7413, 1920.550
869.2234, 1920.611
869.7055, 1919.655
870.1876, 1918.779
870.6697, 1919.075
871.1519, 1920.307
871.6340, 1921.141
872.1161, 1921.278
872.5981, 1921.561
873.0803, 1921.759
873.5624, 1922.367
874.0445, 1924.713
874.5266, 1927.064
875.0087, 1926.389
875.4908, 1922.096
875.9730, 1918.948
876.4551, 1918.965
876.9372, 1920.186
877.4193, 1922.222
877.9014, 1924.281
878.3835, 1925.223
878.8657, 1925.119
879.3478, 1925.110
879.8299, 1926.008
880.3120, 1926.802
880.7941, 1925.641
881.2762, 1923.265
881.7584, 1922.051
882.2405, 1922.142
882.7226, 1922.734
883.2047, 1923.507
883.6868, 1924.453
884.1689, 1925.713
884.6511, 1927.238
885.1332, 1927.359
885.6153, 1925.745
886.0974, 1923.461
886.5795, 1919.454
887.0616, 1916.428
887.5438, 1917.176
888.0259, 1920.468
888.5080, 1922.672
888.9901, 1923.639
889.4722, 1923.632
889.9543, 1921.155
890.4365, 1919.363
890.9186, 1919.887
891.4007, 1922.127
891.8828, 1925.955
892.3649, 1930.890
892.8470, 1934.348
893.3292, 1934.553
893.8113, 1933.096
894.2934, 1930.922
894.7755, 1928.409
895.2576, 1926.041
895.7397, 1924.007
896.2219, 1922.739
896.7040, 1922.492
897.1861, 1922.592
897.6682, 1921.892
898.1503, 1920.567
898.6324, 1920.005
899.1146, 1920.254
899.5967, 1920.745
900.0788, 1921.384
900.5609, 1921.938
901.0430, 1922.170
901.5251, 1922.117
902.0073, 1921.965
902.4894, 1921.189
902.9715, 1921.396
903.4536, 1924.183
903.9357, 1926.164
904.4178, 1924.869
904.9000, 1922.375
905.3821, 1921.797
905.8642, 1923.500
906.3463, 1924.405
906.8284, 1923.176
907.3105, 1921.711
907.7927, 1920.194
908.2748, 1919.370
908.7569, 1920.432
909.2390, 1922.888
909.7211, 1925.086
910.2032, 1926.318
910.6854, 1926.927
911.1675, 1926.839
911.6496, 1926.547
912.1317, 1927.266
912.6138, 1928.533
913.0959, 1928.324
913.5781, 1926.153
914.0602, 1924.089
914.5423, 1924.155
915.0244, 1925.637
915.5065, 1926.281
915.9886, 1926.083
916.4708, 1926.778
916.9529, 1928.954
917.4350, 1929.932
917.9171, 1927.903
918.3992, 1924.474
918.8813, 1922.429
919.3635, 1921.909
919.8456, 1921.724
920.3277, 1922.417
920.8098, 1922.583
921.2919, 1921.156
921.7740, 1919.817
922.2562, 1919.648
922.7383, 1920.521
923.2204, 1922.202
923.7025, 1925.561
924.1846, 1927.369
924.6667, 1925.005
925.1489, 1922.764
925.6310, 1923.868
926.1131, 1926.348
926.5952, 1927.255
927.0773, 1926.288
927.5594, 1925.378
928.0416, 1925.722
928.5237, 1926.296
929.0058, 1925.938
929.4879, 1925.307
929.9700, 1925.600
930.4521, 1926.669
930.9343, 1927.628
931.4164, 1928.095
931.8985, 1928.062
932.3806, 1927.251
932.8627, 1926.050
933.3448, 1925.995
933.8270, 1926.943
934.3091, 1926.929
934.7912, 1925.476
935.2733, 1924.295
935.7554, 1924.634
936.2375, 1925.997
936.7197, 1927.387
937.2018, 1929.076
937.6839, 1929.005
938.1660, 1926.014
938.6481, 1924.239
939.1302, 1925.502
939.6124, 1927.942
940.0945, 1930.113
940.5766, 1931.890
941.0587, 1932.156
941.5408, 1928.443
942.0229, 1927.002
942.5051, 1930.364
942.9872, 1933.561
943.4693, 1933.880
943.9514, 1932.712
944.4335, 1931.823
944.9156, 1931.473
945.3978, 1931.766
945.8799, 1934.028
946.3620, 1935.381
946.8441, 1933.194
947.3262, 1930.273
947.8083, 1929.847
948.2905, 1931.220
948.7726, 1931.799
949.2547, 1930.630
949.7368, 1928.907
950.2189, 1926.662
950.7010, 1925.147
951.1832, 1927.240
951.6653, 1931.167
952.1474, 1932.261
952.6295, 1930.030
953.1116, 1927.654
953.5938, 1927.156
954.0759, 1927.660
954.5580, 1927.819
955.0400, 1927.689
955.5222, 1927.490
956.0043, 1927.239
956.4864, 1927.257
956.9685, 1927.615
957.4506, 1928.712
957.9327, 1931.197
958.4149, 1934.423
958.8970, 1935.310
959.3791, 1933.235
959.8612, 1932.176
960.3433, 1933.105
960.8254, 1933.101
961.3076, 1930.117
961.7897, 1926.426
962.2718, 1925.343
962.7539, 1926.940
963.2360, 1927.336
963.7181, 1924.826
964.2003, 1923.750
964.6824, 1925.781
965.1645, 1927.930
965.6466, 1928.408
966.1287, 1928.032
966.6108, 1928.365
967.0930, 1929.665
967.5751, 1930.364
968.0572, 1929.607
968.5393, 1928.854
969.0214, 1928.835
969.5035, 1928.958
969.9857, 1928.546
970.4678, 1927.819
970.9499, 1927.483
971.4320, 1927.792
971.9141, 1928.269
972.3962, 1929.161
972.8784, 1929.599
973.3605, 1927.863
973.8426, 1925.618
974.3247, 1925.957
974.8068, 1928.706
975.2889, 1931.078
975.7711, 1931.639
976.2532, 1930.735
976.7353, 1927.469
977.2174, 1923.663
977.6995, 1923.174
978.1816, 1925.213
978.6638, 1926.285
979.1459, 1925.564
979.6280, 1925.245
980.1101, 1927.275
980.5922, 1927.276
981.0743, 1928.251
981.5565, 1929.767
982.0386, 1930.124
982.5207, 1932.169
983.0028, 1933.463
983.4849, 1933.011
983.9670, 1931.983
984.4492, 1931.655
984.9313, 1931.833
985.4134, 1931.562
985.8955, 1930.758
986.3776, 1929.971
986.8597, 1929.078
987.3419, 1928.839
987.8240, 1929.701
988.3061, 1931.248
988.7882, 1932.944
989.2703, 1934.777
989.7524, 1936.869
990.2346, 1940.486
990.7167, 1941.391
991.1988, 1936.987
991.6809, 1932.715
992.1630, 1931.367
992.6451, 1932.242
993.1273, 1935.013
993.6094, 1940.494
994.0915, 1941.957
994.5736, 1935.001
995.0557, 1930.066
995.5378, 1929.796
996.0200, 1931.492
996.5021, 1935.193
996.9842, 1938.974
997.4663, 1938.258
997.9484, 1931.377
998.4305, 1928.049
998.9127, 1933.747
999.3948, 1939.642
999.8769, 1941.824
1000.359, 1942.586
1000.841, 1944.421
1001.323, 1946.737
1001.805, 1947.223
1002.287, 1944.986
1002.770, 1942.734
1003.252, 1942.342
1003.734, 1941.928
1004.216, 1938.809
1004.698, 1935.627
1005.180, 1936.823
1005.662, 1941.481
1006.144, 1944.598
1006.627, 1943.876
1007.109, 1942.344
1007.591, 1942.278
1008.073, 1942.925
1008.555, 1943.510
1009.037, 1944.075
1009.519, 1945.214
1010.001, 1946.641
1010.483, 1946.568
1010.966, 1943.781
1011.448, 1940.484
1011.930, 1939.112
1012.412, 1939.188
1012.894, 1940.404
1013.376, 1942.191
1013.858, 1942.611
1014.340, 1941.401
1014.823, 1940.404
1015.305, 1941.045
1015.787, 1941.868
1016.269, 1939.592
1016.751, 1940.263
1017.233, 1940.055
1017.715, 1938.455
1018.197, 1939.414
1018.679, 1936.616
1019.162, 1934.193
1019.644, 1935.724
1020.126, 1934.610
1020.608, 1934.846
1021.090, 1936.453
1021.572, 1935.925
1022.054, 1937.951
1022.536, 1939.173
1023.018, 1938.421
1023.501, 1937.471
1023.983, 1937.921
1024.465, 1939.381
1024.947, 1940.745
1025.429, 1942.032
1025.911, 1942.720
1026.393, 1942.658
1026.875, 1942.703
1027.358, 1943.282
1027.840, 1943.501
1028.322, 1942.208
1028.804, 1940.060
1029.286, 1939.952
1029.768, 1942.447
1030.250, 1944.785
1030.732, 1947.371
1031.214, 1948.396
1031.697, 1946.549
1032.179, 1944.094
1032.661, 1943.335
1033.143, 1943.935
1033.625, 1943.996
1034.107, 1942.416
1034.589, 1943.338
1035.071, 1948.928
1035.553, 1953.163
1036.036, 1953.521
1036.518, 1952.082
1037.000, 1950.581
1037.482, 1949.070
1037.964, 1947.808
1038.446, 1946.272
1038.928, 1946.058
1039.410, 1949.101
1039.893, 1950.818
1040.375, 1948.330
1040.857, 1944.905
1041.339, 1943.613
1041.821, 1944.174
1042.303, 1945.176
1042.785, 1947.478
1043.267, 1948.490
1043.750, 1947.134
1044.232, 1945.670
1044.714, 1944.836
1045.196, 1944.281
1045.678, 1943.270
1046.160, 1942.153
1046.642, 1942.749
1047.124, 1946.994
1047.606, 1948.920
1048.089, 1945.976
1048.571, 1942.738
1049.053, 1940.768
1049.535, 1939.584
1050.017, 1938.474
1050.499, 1937.641
1050.981, 1938.096
1051.463, 1940.716
1051.945, 1942.720
1052.428, 1942.837
1052.910, 1943.092
1053.392, 1945.328
1053.874, 1947.448
1054.356, 1947.098
1054.838, 1944.749
1055.320, 1942.277
1055.802, 1939.480
1056.285, 1938.597
1056.767, 1942.314
1057.249, 1945.599
1057.731, 1945.599
1058.213, 1944.276
1058.695, 1943.058
1059.177, 1942.395
1059.659, 1943.196
1060.141, 1946.187
1060.624, 1948.138
1061.106, 1947.137
1061.588, 1945.780
1062.070, 1944.964
1062.552, 1944.775
1063.034, 1945.694
1063.516, 1947.197
1063.998, 1947.861
1064.480, 1947.200
1064.963, 1946.882
1065.445, 1948.630
1065.927, 1949.578
1066.409, 1946.807
1066.891, 1943.693
1067.373, 1944.191
1067.855, 1946.951
1068.337, 1947.946
1068.820, 1946.097
1069.302, 1944.861
1069.784, 1946.732
1070.266, 1948.311
1070.748, 1947.166
1071.230, 1945.488
1071.712, 1945.806
1072.194, 1947.073
1072.677, 1946.357
1073.159, 1943.088
1073.641, 1940.904
1074.123, 1941.678
1074.605, 1943.554
1075.087, 1947.157
1075.569, 1950.013
1076.051, 1949.619
1076.533, 1947.014
1077.016, 1944.035
1077.498, 1941.144
1077.980, 1938.762
1078.462, 1936.322
1078.944, 1935.510
1079.426, 1938.803
1079.908, 1942.431
1080.390, 1943.720
1080.872, 1943.057
1081.354, 1939.996
1081.837, 1935.418
1082.319, 1934.900
1082.801, 1943.299
1083.283, 1950.722
1083.765, 1952.403
1084.247, 1951.581
1084.729, 1949.887
1085.211, 1947.614
1085.694, 1944.139
1086.176, 1940.055
1086.658, 1938.219
1087.140, 1940.685
1087.622, 1942.266
1088.104, 1938.820
1088.586, 1935.969
1089.068, 1938.813
1089.551, 1943.132
1090.033, 1943.132
1090.515, 1939.870
1090.997, 1939.081
1091.479, 1943.033
1091.961, 1946.084
1092.443, 1945.905
1092.925, 1944.549
1093.407, 1942.063
1093.890, 1939.759
1094.372, 1938.925
1094.854, 1939.290
1095.336, 1940.066
1095.818, 1941.173
1096.300, 1941.976
1096.782, 1942.731
1097.264, 1942.562
1097.746, 1939.630
1098.229, 1937.064
1098.711, 1938.560
1099.193, 1941.744
1099.675, 1941.452
1100.157, 1936.968
1100.639, 1934.412
1101.121, 1936.809
1101.603, 1939.136
1102.086, 1940.234
1102.568, 1940.632
1103.050, 1940.574
1103.532, 1940.060
1104.014, 1938.374
1104.496, 1935.814
1104.978, 1935.587
1105.460, 1940.348
1105.943, 1943.901
1106.425, 1945.730
1106.907, 1945.648
1107.389, 1941.254
1107.871, 1936.648
1108.353, 1936.687
1108.835, 1940.495
1109.317, 1943.346
1109.799, 1944.854
1110.281, 1945.506
1110.764, 1946.024
1111.246, 1944.769
1111.728, 1938.753
1112.210, 1933.088
1112.692, 1932.501
1113.174, 1935.212
1113.656, 1936.620
1114.138, 1936.442
1114.621, 1936.190
1115.103, 1935.602
1115.585, 1935.368
1116.067, 1935.715
1116.549, 1936.286
1117.031, 1936.865
1117.513, 1937.564
1117.995, 1938.671
1118.478, 1940.198
1118.960, 1941.146
1119.442, 1941.681
1119.924, 1941.191
1120.406, 1939.127
1120.888, 1937.078
1121.370, 1935.677
1121.852, 1934.658
1122.334, 1933.580
1122.817, 1932.653
1123.299, 1933.259
1123.781, 1936.170
1124.263, 1937.178
1124.745, 1935.494
1125.227, 1934.457
1125.709, 1935.287
1126.191, 1936.281
1126.673, 1935.869
1127.156, 1934.893
1127.638, 1935.500
1128.120, 1937.735
1128.602, 1939.929
1129.084, 1942.125
1129.566, 1943.711
1130.048, 1944.604
1130.530, 1944.382
1131.013, 1942.687
1131.495, 1940.353
1131.977, 1938.356
1132.459, 1936.959
1132.941, 1937.935
1133.423, 1941.058
1133.905, 1942.845
1134.387, 1942.957
1134.870, 1942.736
1135.352, 1942.711
1135.834, 1942.630
1136.316, 1942.145
1136.798, 1941.725
1137.280, 1942.559
1137.762, 1944.281
1138.244, 1945.802
1138.726, 1946.975
1139.208, 1947.152
1139.691, 1946.401
1140.173, 1946.587
1140.655, 1949.009
1141.137, 1951.665
1141.619, 1951.714
1142.101, 1952.593
1142.583, 1950.610
1143.065, 1951.277
1143.548, 1950.112
1144.030, 1947.546
1144.512, 1946.507
1144.994, 1948.055
1145.476, 1949.690
1145.958, 1949.206
1146.440, 1948.153
1146.922, 1948.080
1147.405, 1948.372
1147.887, 1948.303
1148.369, 1947.940
1148.851, 1947.479
1149.333, 1947.018
1149.815, 1946.850
1150.297, 1947.395
1150.779, 1947.468
1151.261, 1944.586
1151.744, 1942.922
1152.226, 1947.539
1152.708, 1953.668
1153.190, 1955.364
1153.672, 1953.287
1154.154, 1951.234
1154.636, 1949.948
1155.118, 1949.341
1155.600, 1950.354
1156.083, 1950.724
1156.565, 1948.317
1157.047, 1946.389
1157.529, 1947.843
1158.011, 1950.967
1158.493, 1953.290
1158.975, 1954.659
1159.457, 1954.428
1159.940, 1950.545
1160.422, 1948.352
1160.904, 1948.391
1161.386, 1949.681
1161.868, 1953.684
1162.350, 1956.581
1162.832, 1953.738
1163.314, 1947.605
1163.796, 1946.099
1164.279, 1950.279
1164.761, 1953.238
1165.243, 1954.869
1165.725, 1955.519
1166.207, 1955.073
1166.689, 1954.126
1167.171, 1952.749
1167.653, 1951.931
1168.135, 1953.417
1168.618, 1956.521
1169.100, 1957.198
1169.582, 1955.481
1170.064, 1953.570
1170.546, 1951.682
1171.028, 1951.289
1171.510, 1952.882
1171.992, 1955.257
1172.474, 1957.593
1172.957, 1959.375
1173.439, 1959.249
1173.921, 1957.987
1174.403, 1957.836
1174.885, 1958.579
1175.367, 1959.896
1175.849, 1961.276
1176.331, 1960.471
1176.814, 1956.611
1177.296, 1952.994
1177.778, 1952.635
1178.260, 1953.891
1178.742, 1956.085
1179.224, 1957.803
1179.706, 1956.106
1180.188, 1952.787
1180.671, 1952.082
1181.153, 1954.198
1181.635, 1955.337
1182.117, 1953.372
1182.599, 1951.996
1183.081, 1954.139
1183.563, 1956.378
1184.045, 1956.816
1184.527, 1956.120
1185.010, 1953.745
1185.492, 1951.225
1185.974, 1952.406
1186.456, 1958.101
1186.938, 1961.729
1187.420, 1961.130
1187.902, 1960.077
1188.384, 1958.522
1188.866, 1957.402
1189.349, 1957.064
1189.831, 1957.374
1190.313, 1958.118
1190.795, 1959.416
1191.277, 1962.159
1191.759, 1967.587
1192.241, 1968.193
1192.723, 1961.682
1193.206, 1958.834
1193.688, 1962.842
1194.170, 1966.754
1194.652, 1966.328
1195.134, 1968.980
1195.616, 1965.806
1196.098, 1968.966
1196.580, 1968.445
1197.063, 1964.625
1197.545, 1960.693
1198.027, 1957.166
1198.509, 1956.570
1198.991, 1959.346
1199.473, 1961.354
1199.955, 1959.625
1200.437, 1956.822
1200.919, 1956.575
1201.401, 1957.489
1201.884, 1957.409
1202.366, 1956.474
1202.848, 1954.118
1203.330, 1951.354
1203.812, 1951.581
1204.294, 1955.402
1204.776, 1958.057
1205.258, 1955.746
1205.741, 1953.533
1206.223, 1954.729
1206.705, 1957.165
1207.187, 1960.164
1207.669, 1962.684
1208.151, 1963.526
1208.633, 1962.891
1209.115, 1961.483
1209.598, 1959.038
1210.080, 1958.042
1210.562, 1960.089
1211.044, 1961.809
1211.526, 1963.279
1212.008, 1963.344
1212.490, 1960.841
1212.972, 1957.295
1213.454, 1954.250
1213.937, 1951.779
1214.419, 1950.298
1214.901, 1949.974
1215.383, 1949.874
1215.865, 1950.061
1216.347, 1950.036
1216.829, 1949.648
1217.311, 1949.313
1217.793, 1949.212
1218.276, 1949.906
1218.758, 1952.697
1219.240, 1956.125
1219.722, 1955.529
1220.204, 1952.050
1220.686, 1949.455
1221.168, 1947.964
1221.650, 1947.081
1222.133, 1946.627
1222.615, 1946.595
1223.097, 1947.049
1223.579, 1947.242
1224.061, 1945.387
1224.543, 1944.107
1225.025, 1946.333
1225.507, 1950.282
1225.990, 1955.622
1226.472, 1960.172
1226.954, 1959.147
1227.436, 1952.614
1227.918, 1948.708
1228.400, 1951.654
1228.882, 1953.400
1229.364, 1950.441
1229.846, 1948.118
1230.328, 1949.537
1230.811, 1951.308
1231.293, 1950.152
1231.775, 1951.973
1232.257, 1952.975
1232.739, 1953.236
1233.221, 1955.440
1233.703, 1955.198
1234.185, 1955.564
1234.668, 1957.119
1235.150, 1956.715
1235.632, 1952.976
1236.114, 1950.077
1236.596, 1951.482
1237.078, 1954.546
1237.560, 1954.310
1238.042, 1952.111
1238.525, 1952.666
1239.007, 1955.055
1239.489, 1956.799
1239.971, 1957.414
1240.453, 1956.093
1240.935, 1952.951
1241.417, 1950.458
1241.899, 1950.265
1242.381, 1950.752
1242.864, 1950.001
1243.346, 1950.079
1243.828, 1954.533
1244.310, 1959.275
1244.792, 1959.373
1245.274, 1956.071
1245.756, 1952.319
1246.238, 1948.600
1246.720, 1946.925
1247.203, 1949.147
1247.685, 1950.893
1248.167, 1951.829
1248.649, 1952.268
1249.131, 1952.410
1249.613, 1951.830
1250.095, 1949.768
1250.577, 1947.419
1251.059, 1947.267
1251.542, 1947.123
1252.024, 1947.590
1252.506, 1949.583
1252.988, 1950.813
1253.470, 1953.689
1253.952, 1956.845
1254.434, 1959.702
1254.916, 1960.677
1255.399, 1958.512
1255.881, 1955.191
1256.363, 1952.109
1256.845, 1950.348
1257.327, 1952.868
1257.809, 1956.870
1258.291, 1958.203
1258.773, 1957.322
1259.255, 1955.760
1259.738, 1954.160
1260.220, 1954.036
1260.702, 1957.193
1261.184, 1958.369
1261.666, 1953.224
1262.148, 1949.383
1262.630, 1950.406
1263.112, 1953.272
1263.594, 1956.919
1264.077, 1960.124
1264.559, 1960.641
1265.041, 1962.705
1265.523, 1963.474
1266.005, 1962.985
1266.487, 1963.719
1266.969, 1961.122
1267.451, 1959.463
1267.934, 1959.748
1268.416, 1960.625
1268.898, 1961.342
1269.380, 1962.126
1269.862, 1963.166
1270.344, 1964.576
1270.826, 1967.262
1271.308, 1967.646
1271.791, 1970.413
1272.273, 1969.213
1272.755, 1968.880
1273.237, 1969.276
1273.719, 1967.599
1274.201, 1962.633
1274.683, 1960.111
1275.165, 1964.998
1275.647, 1969.358
1276.130, 1969.009
1276.612, 1968.723
1277.094, 1973.021
1277.576, 1977.308
1278.058, 1976.232
1278.540, 1971.451
1279.022, 1967.170
1279.504, 1963.220
1279.986, 1963.362
1280.469, 1968.345
1280.951, 1971.957
1281.433, 1973.486
1281.915, 1973.430
1282.397, 1971.959
1282.879, 1969.987
1283.361, 1968.044
1283.843, 1967.663
1284.326, 1970.715
1284.808, 1977.067
##END=



