##NAMES=Spherocobaltite
##RRUFFID=R060497
##IDEAL CHEMISTRY=Co^2+^CO_3_
##LOCALITY=Bou Azzer, Anti Atlas Mountains, Morocco
##OWNER=RRUFF
##SOURCE=Michael Scott
##DESCRIPTION=Group of red rhombohedral crystals
##STATUS=The identification of this mineral is confirmed by single-crystal X-ray diffraction and chemical analysis.
##URL=rruff.info/R060497
##MEASURED CHEMISTRY=(Co_0.68_Mg_0.15_Ni_0.07_Ca_0.05_Fe_0.04_Mn_0.01_)_Î£=1_CO_3_ ; C not measured but estimated by difference and stoichiometry
91.00781, 2.722955
91.48993, 2.871033
91.97205, 2.930327
92.45416, 2.858987
92.93628, 2.701126
93.41840, 2.544332
93.90051, 2.390831
94.38263, 2.264054
94.86475, 2.217768
95.34686, 2.251255
95.82898, 2.295471
96.31110, 2.293545
96.79321, 2.249649
97.27533, 2.204960
97.75745, 2.161544
98.23956, 2.125385
98.72168, 2.134674
99.20380, 2.201570
99.68591, 2.275525
100.1680, 2.294530
100.6501, 2.245693
101.1323, 2.204021
101.6144, 2.191480
102.0965, 2.209797
102.5786, 2.234220
103.0607, 2.257804
103.5428, 2.293678
104.0250, 2.364450
104.5071, 2.473004
104.9892, 2.610788
105.4713, 2.775893
105.9534, 2.977070
106.4355, 3.188661
106.9177, 3.448330
107.3998, 3.720265
107.8819, 3.898033
108.3640, 3.906317
108.8461, 3.878873
109.3282, 3.877077
109.8104, 3.865618
110.2925, 3.919417
110.7746, 4.037819
111.2567, 4.221297
111.7388, 4.481112
112.2209, 4.946821
112.7031, 5.417627
113.1852, 5.759699
113.6673, 5.817047
114.1494, 5.863658
114.6315, 5.940568
115.1136, 6.048629
115.5958, 6.260890
116.0779, 6.675275
116.5600, 7.183657
117.0421, 7.662732
117.5242, 8.179306
118.0063, 8.580499
118.4885, 8.713227
118.9706, 8.498460
119.4527, 8.383267
119.9348, 8.669798
120.4169, 9.223707
120.8990, 9.805143
121.3812, 10.34013
121.8633, 10.82413
122.3454, 11.25609
122.8275, 11.65438
123.3096, 11.96311
123.7917, 12.17753
124.2739, 12.27621
124.7560, 12.18056
125.2381, 11.50147
125.7202, 10.64316
126.2023, 10.35573
126.6844, 11.01449
127.1666, 12.03084
127.6487, 12.58354
128.1308, 12.69675
128.6129, 12.73310
129.0950, 13.11416
129.5771, 13.69918
130.0593, 13.94963
130.5414, 13.49089
131.0235, 12.67967
131.5056, 12.50753
131.9877, 12.99123
132.4698, 13.54244
132.9520, 13.44302
133.4341, 12.74384
133.9162, 12.43733
134.3983, 13.04918
134.8804, 14.41760
135.3625, 15.32712
135.8447, 15.70729
136.3268, 15.84135
136.8089, 16.11368
137.2910, 16.54522
137.7731, 16.99149
138.2552, 17.45736
138.7374, 17.97707
139.2195, 18.21011
139.7016, 18.09269
140.1837, 17.76000
140.6658, 17.48171
141.1479, 17.25882
141.6301, 17.07716
142.1122, 16.91251
142.5943, 16.71481
143.0764, 16.67493
143.5585, 16.85787
144.0406, 17.19215
144.5228, 17.42469
145.0049, 17.46483
145.4870, 17.51427
145.9691, 17.69890
146.4512, 18.22814
146.9333, 18.54606
147.4155, 18.47602
147.8976, 18.08590
148.3797, 18.03139
148.8618, 18.61801
149.3439, 19.31855
149.8260, 19.79341
150.3082, 19.80303
150.7903, 19.85985
151.2724, 20.05062
151.7545, 20.37967
152.2366, 20.61777
152.7188, 20.52368
153.2009, 20.44881
153.6830, 20.67681
154.1651, 21.69988
154.6472, 22.57241
155.1293, 23.01989
155.6115, 22.98942
156.0936, 22.95487
156.5757, 23.02322
157.0578, 23.11877
157.5399, 23.15781
158.0220, 22.97983
158.5042, 22.86419
158.9863, 22.93334
159.4684, 23.22689
159.9505, 23.54919
160.4326, 23.78947
160.9147, 24.02873
161.3969, 24.38749
161.8790, 25.16018
162.3611, 25.88182
162.8432, 26.27225
163.3253, 26.20468
163.8074, 26.07661
164.2896, 25.98215
164.7717, 25.95335
165.2538, 26.05508
165.7359, 26.40564
166.2180, 26.84518
166.7001, 27.27673
167.1823, 27.71910
167.6644, 28.05709
168.1465, 28.07777
168.6286, 27.90680
169.1107, 27.89850
169.5928, 28.34892
170.0750, 29.01719
170.5571, 29.68274
171.0392, 30.34120
171.5213, 30.89892
172.0034, 31.21135
172.4855, 31.32676
172.9677, 31.44982
173.4498, 31.80221
173.9319, 32.22445
174.4140, 32.46333
174.8961, 32.30253
175.3782, 32.10610
175.8604, 32.33412
176.3425, 32.94478
176.8246, 33.57614
177.3067, 33.89326
177.7888, 34.04387
178.2709, 34.33744
178.7531, 34.98904
179.2352, 35.73693
179.7173, 36.10445
180.1994, 36.11012
180.6815, 36.17639
181.1636, 36.77077
181.6458, 37.74415
182.1279, 38.63042
182.6100, 39.24138
183.0921, 39.69186
183.5742, 40.22503
184.0563, 40.83344
184.5385, 41.48626
185.0206, 42.16706
185.5027, 42.87011
185.9848, 43.53021
186.4669, 44.06576
186.9490, 44.54925
187.4312, 45.27041
187.9133, 46.24632
188.3954, 47.25793
188.8775, 47.97121
189.3596, 48.42140
189.8417, 48.98629
190.3239, 49.90739
190.8060, 51.09042
191.2881, 51.99415
191.7702, 52.57638
192.2523, 53.01306
192.7344, 53.46546
193.2166, 53.93261
193.6987, 54.53825
194.1808, 55.37788
194.6629, 56.43065
195.1450, 57.52282
195.6271, 58.69491
196.1093, 59.80521
196.5914, 60.60098
197.0735, 61.05925
197.5556, 61.48827
198.0377, 61.99947
198.5198, 62.59706
199.0020, 63.23473
199.4841, 63.89425
199.9662, 64.62654
200.4483, 65.64710
200.9304, 67.04716
201.4125, 68.18033
201.8947, 68.66005
202.3768, 68.42494
202.8589, 68.36046
203.3410, 68.57154
203.8231, 68.82293
204.3052, 68.70821
204.7874, 68.22672
205.2695, 67.39719
205.7516, 66.15584
206.2337, 64.44120
206.7158, 62.72969
207.1979, 61.01643
207.6801, 59.31021
208.1622, 57.70623
208.6443, 56.27847
209.1264, 54.69959
209.6085, 52.73239
210.0906, 50.22674
210.5728, 48.05156
211.0549, 46.38568
211.5370, 44.94953
212.0191, 43.08749
212.5012, 40.57160
212.9833, 38.15598
213.4655, 36.21849
213.9476, 34.82156
214.4297, 33.64544
214.9118, 32.76113
215.3939, 32.05659
215.8760, 31.21411
216.3581, 30.17117
216.8403, 29.13299
217.3224, 28.20401
217.8045, 27.38829
218.2866, 26.65331
218.7687, 26.03269
219.2508, 25.48150
219.7330, 24.89783
220.2151, 24.27534
220.6972, 23.63300
221.1793, 22.94642
221.6614, 22.08103
222.1435, 21.54559
222.6257, 21.49598
223.1078, 21.73440
223.5899, 21.69461
224.0720, 21.23741
224.5541, 20.72405
225.0362, 20.29348
225.5184, 19.91908
226.0005, 19.71621
226.4826, 19.76569
226.9647, 19.96662
227.4468, 20.03582
227.9289, 19.92701
228.4111, 19.75753
228.8932, 19.56037
229.3753, 19.26536
229.8574, 19.12356
230.3395, 19.23140
230.8216, 19.47396
231.3038, 19.51515
231.7859, 19.20400
232.2680, 18.91266
232.7501, 18.83148
233.2322, 19.12355
233.7143, 19.25086
234.1965, 19.14371
234.6786, 18.88428
235.1607, 18.68639
235.6428, 18.50393
236.1249, 18.44941
236.6070, 18.60690
237.0892, 19.16349
237.5713, 19.51238
238.0534, 19.59090
238.5355, 19.47774
239.0176, 19.36586
239.4997, 19.23085
239.9819, 19.13043
240.4640, 19.09974
240.9461, 19.19105
241.4282, 19.22216
241.9103, 19.14802
242.3924, 19.02810
242.8746, 19.01056
243.3567, 19.14958
243.8388, 19.30907
244.3209, 19.43765
244.8030, 19.52707
245.2851, 19.60657
245.7673, 19.68540
246.2494, 19.75095
246.7315, 19.77260
247.2136, 19.73021
247.6957, 19.67598
248.1778, 19.62572
248.6600, 19.57314
249.1421, 19.53493
249.6242, 19.45821
250.1063, 19.42282
250.5884, 19.61108
251.0705, 20.17245
251.5527, 20.70428
252.0348, 21.05034
252.5169, 21.16662
252.9990, 21.26677
253.4811, 21.35840
253.9632, 21.42975
254.4454, 21.44174
254.9275, 21.32232
255.4096, 21.28265
255.8917, 21.43046
256.3738, 21.83816
256.8560, 22.07761
257.3381, 22.05486
257.8202, 21.94480
258.3023, 22.04384
258.7844, 22.48395
259.2665, 22.84023
259.7487, 22.93869
260.2308, 22.71749
260.7129, 22.68460
261.1950, 22.92932
261.6771, 23.26428
262.1592, 23.40083
262.6414, 23.21134
263.1235, 23.15015
263.6056, 23.40509
264.0877, 24.01331
264.5698, 24.37706
265.0519, 24.37449
265.5341, 24.29317
266.0162, 24.47988
266.4983, 24.99753
266.9804, 25.59763
267.4625, 26.29198
267.9446, 27.06985
268.4268, 27.52583
268.9089, 27.51479
269.3910, 27.42267
269.8731, 27.67321
270.3552, 28.35136
270.8373, 29.02985
271.3195, 29.64627
271.8016, 30.19292
272.2837, 30.59081
272.7658, 30.78768
273.2479, 30.96402
273.7300, 31.28523
274.2122, 31.76048
274.6943, 32.32153
275.1764, 32.98814
275.6585, 33.72761
276.1406, 34.32064
276.6227, 34.70277
277.1049, 35.15232
277.5870, 35.96352
278.0691, 37.17829
278.5512, 38.25599
279.0333, 39.05574
279.5154, 39.68817
279.9976, 40.53391
280.4797, 41.62384
280.9618, 42.78108
281.4439, 43.86057
281.9260, 44.85537
282.4081, 46.07096
282.8903, 47.59295
283.3724, 49.30498
283.8545, 50.88826
284.3366, 52.31896
284.8187, 53.88008
285.3008, 55.76772
285.7830, 57.97603
286.2651, 60.25946
286.7472, 62.64993
287.2293, 65.03515
287.7114, 67.07030
288.1935, 68.76011
288.6757, 70.71407
289.1578, 73.37473
289.6399, 76.63416
290.1220, 79.80682
290.6041, 82.85316
291.0862, 85.86872
291.5684, 88.87068
292.0505, 91.90572
292.5326, 95.25526
293.0147, 99.25313
293.4968, 103.6839
293.9789, 108.0124
294.4611, 112.1617
294.9432, 116.3460
295.4253, 120.8391
295.9074, 125.6019
296.3895, 130.3425
296.8716, 135.0163
297.3538, 139.6122
297.8359, 144.0137
298.3180, 148.2407
298.8001, 152.6590
299.2822, 157.8792
299.7643, 163.6493
300.2465, 169.2418
300.7286, 174.4877
301.2107, 179.3497
301.6928, 183.6564
302.1749, 187.4110
302.6570, 191.2446
303.1392, 195.9217
303.6213, 200.9541
304.1034, 205.4133
304.5855, 209.1295
305.0676, 212.1229
305.5497, 214.3786
306.0319, 215.9447
306.5140, 217.1861
306.9961, 218.8070
307.4782, 220.0441
307.9603, 219.9494
308.4424, 218.0764
308.9246, 215.2337
309.4067, 211.9256
309.8888, 208.1481
310.3709, 203.8142
310.8530, 198.5566
311.3351, 192.9387
311.8173, 187.5710
312.2994, 182.7229
312.7815, 177.3909
313.2636, 170.7841
313.7457, 163.3547
314.2278, 155.8478
314.7100, 148.3702
315.1921, 141.1476
315.6742, 134.4112
316.1563, 128.2914
316.6384, 122.0969
317.1205, 115.2971
317.6027, 108.4206
318.0848, 102.1762
318.5669, 97.12895
319.0490, 92.44624
319.5311, 87.74743
320.0132, 82.99782
320.4954, 78.64726
320.9775, 75.11218
321.4596, 71.92007
321.9417, 68.72621
322.4238, 65.32226
322.9059, 62.04948
323.3881, 58.90733
323.8702, 55.93922
324.3523, 53.29893
324.8344, 51.09595
325.3165, 49.17604
325.7986, 47.42620
326.2808, 46.05240
326.7629, 44.59701
327.2450, 42.89717
327.7271, 41.05984
328.2092, 39.50200
328.6913, 38.36190
329.1735, 37.38551
329.6556, 36.47860
330.1377, 35.77312
330.6198, 34.87841
331.1019, 33.65722
331.5840, 32.29024
332.0662, 31.08541
332.5483, 30.02808
333.0304, 29.15047
333.5125, 28.52072
333.9946, 28.19582
334.4767, 27.77455
334.9589, 27.22392
335.4410, 26.61471
335.9231, 26.04764
336.4052, 25.57224
336.8873, 25.01136
337.3694, 24.26016
337.8516, 23.34554
338.3336, 22.71241
338.8158, 22.41541
339.2979, 22.28317
339.7800, 22.19471
340.2621, 22.16745
340.7442, 22.07234
341.2263, 21.89432
341.7085, 21.63175
342.1906, 21.24607
342.6727, 20.70768
343.1548, 20.21078
343.6369, 19.91333
344.1190, 19.80398
344.6012, 19.65108
345.0833, 19.41812
345.5654, 19.15711
346.0475, 18.97842
346.5296, 18.87606
347.0117, 18.74315
347.4939, 18.49047
347.9760, 18.16155
348.4581, 17.89954
348.9402, 17.72036
349.4223, 17.55811
349.9044, 17.28538
350.3866, 16.95201
350.8687, 16.72547
351.3508, 16.74961
351.8329, 16.88637
352.3150, 16.96966
352.7971, 16.99655
353.2793, 16.88058
353.7614, 16.34976
354.2435, 15.66917
354.7256, 15.28182
355.2077, 15.45999
355.6898, 15.79415
356.1720, 16.00997
356.6541, 16.09924
357.1362, 16.03357
357.6183, 15.63632
358.1004, 15.16288
358.5826, 14.84880
359.0647, 14.77349
359.5468, 14.76868
360.0289, 14.82950
360.5110, 14.89223
360.9931, 14.83510
361.4753, 14.42020
361.9574, 14.02606
362.4395, 13.87169
362.9216, 14.01378
363.4037, 14.15573
363.8858, 14.22690
364.3680, 14.24692
364.8501, 14.23639
365.3322, 14.20587
365.8143, 14.13934
366.2964, 13.98887
366.7785, 13.75883
367.2607, 13.63836
367.7428, 13.83324
368.2249, 14.01724
368.7070, 13.98838
369.1891, 13.46101
369.6712, 13.10085
370.1534, 12.98342
370.6355, 13.04636
371.1176, 13.08933
371.5997, 13.02812
372.0818, 13.05709
372.5639, 13.29951
373.0461, 13.90194
373.5282, 14.23214
374.0103, 14.23550
374.4924, 14.02484
374.9745, 13.73108
375.4566, 13.28822
375.9388, 12.96911
376.4209, 12.89883
376.9030, 13.05598
377.3851, 13.09480
377.8672, 12.99705
378.3493, 12.84350
378.8315, 12.69030
379.3136, 12.53542
379.7957, 12.44312
380.2778, 12.44283
380.7599, 12.49369
381.2420, 12.48004
381.7242, 12.40214
382.2063, 12.35470
382.6884, 12.45892
383.1705, 12.65247
383.6526, 12.70072
384.1347, 12.56217
384.6169, 12.35470
385.0990, 12.22062
385.5811, 12.14114
386.0632, 12.06221
386.5453, 11.90517
387.0274, 11.75769
387.5096, 11.78159
387.9917, 11.97580
388.4738, 12.14598
388.9559, 12.13441
389.4380, 12.00800
389.9201, 11.84385
390.4023, 11.56867
390.8844, 11.37815
391.3665, 11.48412
391.8486, 11.80829
392.3307, 12.05932
392.8128, 12.03550
393.2950, 11.93103
393.7771, 11.88962
394.2592, 11.98271
394.7413, 12.00781
395.2234, 11.79669
395.7055, 11.49701
396.1877, 11.33725
396.6698, 11.47563
397.1519, 11.65818
397.6340, 11.84901
398.1161, 12.06133
398.5982, 12.13355
399.0804, 11.94937
399.5625, 11.68544
400.0446, 11.46563
400.5267, 11.27536
401.0088, 11.15186
401.4909, 11.11465
401.9731, 11.14844
402.4552, 11.20169
402.9373, 11.30966
403.4194, 11.37957
403.9015, 11.33289
404.3836, 11.09395
404.8658, 11.07906
405.3479, 11.40505
405.8300, 11.79648
406.3121, 11.79400
406.7942, 11.33593
407.2763, 10.91230
407.7585, 10.67667
408.2406, 10.60487
408.7227, 10.58019
409.2048, 10.60600
409.6869, 10.64933
410.1690, 10.68493
410.6512, 10.71360
411.1333, 10.74579
411.6154, 10.79342
412.0975, 10.82694
412.5796, 10.76638
413.0617, 10.63646
413.5439, 10.55811
414.0260, 10.68003
414.5081, 10.86448
414.9902, 10.90473
415.4723, 10.77780
415.9544, 10.60038
416.4366, 10.43311
416.9187, 10.28432
417.4008, 10.16691
417.8829, 10.05038
418.3650, 9.995472
418.8471, 10.11161
419.3293, 10.35583
419.8114, 10.48011
420.2935, 10.21418
420.7756, 9.895415
421.2577, 9.765566
421.7398, 9.961817
422.2220, 10.15059
422.7041, 10.28938
423.1862, 10.37170
423.6683, 10.38768
424.1504, 10.25856
424.6325, 10.13984
425.1147, 10.06538
425.5968, 10.03334
426.0789, 10.05792
426.5610, 10.20495
427.0431, 10.34898
427.5252, 10.38314
428.0074, 10.26708
428.4895, 10.12758
428.9716, 9.948027
429.4537, 9.765523
429.9358, 9.727283
430.4179, 9.879910
430.9001, 10.01190
431.3822, 9.982242
431.8643, 9.787018
432.3464, 9.710137
432.8285, 9.772473
433.3106, 9.887239
433.7928, 9.944707
434.2749, 9.952415
434.7570, 9.978657
435.2391, 10.07206
435.7212, 10.17510
436.2033, 10.15757
436.6855, 10.02950
437.1676, 9.889537
437.6497, 9.781703
438.1318, 9.714962
438.6139, 9.709961
439.0960, 9.779111
439.5782, 9.876254
440.0603, 9.971454
440.5424, 10.06740
441.0245, 10.16752
441.5066, 10.36855
441.9887, 10.49730
442.4709, 10.37310
442.9530, 10.00707
443.4351, 9.766085
443.9172, 9.964155
444.3993, 10.23824
444.8814, 10.31727
445.3636, 9.930996
445.8457, 9.651546
446.3278, 9.622845
446.8099, 9.756093
447.2920, 9.830007
447.7741, 9.814137
448.2563, 9.765462
448.7384, 9.682298
449.2205, 9.549391
449.7026, 9.504651
450.1847, 9.598704
450.6668, 9.717975
451.1490, 9.753177
451.6311, 9.682342
452.1132, 9.611278
452.5953, 9.551283
453.0774, 9.503296
453.5595, 9.464618
454.0417, 9.434204
454.5238, 9.421987
455.0059, 9.423691
455.4880, 9.445022
455.9701, 9.547498
456.4522, 9.749265
456.9344, 9.918452
457.4165, 9.888003
457.8986, 9.708335
458.3807, 9.514079
458.8628, 9.305370
459.3449, 9.147781
459.8271, 9.129601
460.3092, 9.232743
460.7913, 9.377317
461.2734, 9.594392
461.7555, 9.785234
462.2376, 9.840677
462.7198, 9.710125
463.2019, 9.611059
463.6840, 9.730874
464.1661, 9.910525
464.6482, 9.957576
465.1303, 9.662496
465.6125, 9.395606
466.0946, 9.266674
466.5767, 9.262693
467.0588, 9.257898
467.5409, 9.226649
468.0230, 9.207270
468.5052, 9.218677
468.9873, 9.275842
469.4694, 9.324354
469.9515, 9.348480
470.4336, 9.377377
470.9157, 9.471052
471.3979, 9.667568
471.8800, 9.794223
472.3621, 9.793430
472.8442, 9.689429
473.3263, 9.600114
473.8084, 9.530017
474.2906, 9.439338
474.7727, 9.245460
475.2548, 8.990175
475.7369, 8.903118
476.2190, 9.036485
476.7011, 9.222877
477.1833, 9.249346
477.6654, 9.164548
478.1475, 9.102447
478.6296, 9.153356
479.1117, 9.229755
479.5938, 9.227683
480.0760, 9.160357
480.5581, 9.116230
481.0402, 9.177630
481.5223, 9.264073
482.0044, 9.308015
482.4865, 9.282751
482.9687, 9.253627
483.4508, 9.215958
483.9329, 9.194549
484.4150, 9.224872
484.8971, 9.419867
485.3792, 9.554643
485.8614, 9.561802
486.3435, 9.450068
486.8256, 9.330340
487.3077, 9.183033
487.7898, 9.052328
488.2719, 8.961094
488.7541, 8.914559
489.2362, 8.898865
489.7183, 8.923370
490.2004, 8.966248
490.6825, 9.006821
491.1646, 9.049212
491.6468, 9.041700
492.1289, 8.944365
492.6110, 8.799405
493.0931, 8.732535
493.5752, 8.742778
494.0573, 8.765989
494.5395, 8.762949
495.0216, 8.738455
495.5037, 8.679013
495.9858, 8.567907
496.4679, 8.515422
496.9500, 8.731694
497.4322, 9.058472
497.9143, 9.229190
498.3964, 8.983831
498.8785, 8.693160
499.3606, 8.572089
499.8427, 8.589204
500.3249, 8.602564
500.8070, 8.502007
501.2891, 8.431604
501.7712, 8.487137
502.2533, 8.749492
502.7354, 8.932053
503.2176, 8.945106
503.6997, 8.902776
504.1818, 8.923109
504.6639, 9.058561
505.1460, 9.160289
505.6281, 9.210542
506.1103, 9.211061
506.5924, 9.149959
507.0745, 9.001789
507.5566, 8.881393
508.0387, 8.865636
508.5208, 8.947782
509.0030, 8.992932
509.4851, 8.998747
509.9672, 8.980296
510.4493, 8.948702
510.9314, 8.905519
511.4135, 8.850901
511.8957, 8.771389
512.3778, 8.705489
512.8599, 8.713871
513.3420, 8.775934
513.8242, 8.830994
514.3063, 8.805182
514.7884, 8.791121
515.2705, 8.910197
515.7526, 9.171140
516.2347, 9.315858
516.7169, 9.142255
517.1990, 8.870129
517.6811, 8.663480
518.1632, 8.519709
518.6453, 8.482668
519.1274, 8.646880
519.6096, 8.904720
520.0917, 9.063245
520.5738, 9.122517
521.0559, 9.076656
521.5380, 8.876095
522.0201, 8.536901
522.5023, 8.349791
522.9844, 8.340863
523.4665, 8.410159
523.9486, 8.491466
524.4307, 8.585924
524.9128, 8.734097
525.3950, 8.959451
525.8771, 9.161791
526.3592, 9.192498
526.8413, 9.082209
527.3234, 8.939469
527.8055, 8.773875
528.2877, 8.625630
528.7698, 8.512166
529.2519, 8.446977
529.7340, 8.482707
530.2161, 8.784536
530.6982, 9.107127
531.1804, 9.263289
531.6625, 9.208558
532.1446, 9.103811
532.6267, 8.949800
533.1088, 8.795282
533.5909, 8.687585
534.0731, 8.699192
534.5552, 8.671846
535.0373, 8.526106
535.5194, 8.343766
536.0015, 8.351489
536.4836, 8.677432
536.9658, 8.929034
537.4479, 8.933234
537.9300, 8.705565
538.4121, 8.603071
538.8942, 8.642542
539.3763, 8.740063
539.8585, 8.869289
540.3406, 9.010233
540.8227, 9.023716
541.3048, 8.863852
541.7869, 8.677457
542.2690, 8.670409
542.7512, 8.781611
543.2333, 8.856634
543.7154, 8.738452
544.1975, 8.635779
544.6796, 8.824845
545.1617, 9.216649
545.6439, 9.410855
546.1260, 8.973690
546.6081, 8.476571
547.0902, 8.291081
547.5723, 8.558426
548.0544, 8.715801
548.5366, 8.561246
549.0187, 8.334609
549.5008, 8.242336
549.9829, 8.310963
550.4650, 8.484231
550.9471, 8.859661
551.4293, 9.281981
551.9114, 9.338592
552.3935, 8.944437
552.8756, 8.595210
553.3577, 8.485467
553.8398, 8.573364
554.3220, 8.703513
554.8041, 8.879516
555.2862, 9.000174
555.7683, 8.933039
556.2504, 8.765165
556.7325, 8.667374
557.2147, 8.664179
557.6968, 8.720325
558.1789, 8.865342
558.6610, 9.036579
559.1431, 9.140244
559.6252, 9.042277
560.1074, 8.973505
560.5895, 9.088530
561.0716, 9.317312
561.5537, 9.423841
562.0358, 9.212167
562.5179, 9.015975
563.0001, 8.965408
563.4822, 9.077174
563.9643, 9.154268
564.4464, 9.187220
564.9285, 9.198928
565.4106, 9.213772
565.8928, 9.240022
566.3749, 9.202391
566.8570, 9.074122
567.3391, 8.925745
567.8212, 8.874567
568.3033, 8.907912
568.7855, 8.929948
569.2676, 8.869572
569.7497, 8.819253
570.2318, 8.974091
570.7139, 9.281063
571.1960, 9.520996
571.6782, 9.541876
572.1603, 9.455092
572.6424, 9.302359
573.1245, 9.076382
573.6066, 8.964397
574.0887, 9.136006
574.5709, 9.390623
575.0530, 9.574203
575.5351, 9.679485
576.0172, 9.691046
576.4993, 9.526752
576.9814, 9.308843
577.4636, 9.264791
577.9457, 9.508491
578.4278, 9.604252
578.9099, 9.358121
579.3920, 8.915235
579.8741, 8.908534
580.3563, 9.374064
580.8384, 9.789485
581.3205, 9.762729
581.8026, 9.449082
582.2847, 9.306483
582.7668, 9.350387
583.2490, 9.422698
583.7311, 9.383761
584.2132, 9.296807
584.6953, 9.233917
585.1774, 9.191325
585.6595, 9.225708
586.1416, 9.503338
586.6237, 9.842591
587.1058, 9.973249
587.5880, 9.563287
588.0701, 9.232867
588.5522, 9.162136
589.0343, 9.297147
589.5164, 9.392542
589.9985, 9.408332
590.4807, 9.453719
590.9628, 9.597229
591.4449, 9.842590
591.9270, 9.974257
592.4091, 9.971695
592.8912, 9.943103
593.3734, 10.01032
593.8555, 10.14304
594.3376, 10.19228
594.8197, 10.12919
595.3018, 10.01529
595.7839, 9.871725
596.2661, 9.731245
596.7482, 9.657815
597.2303, 9.726969
597.7124, 9.818187
598.1945, 9.857885
598.6766, 9.863035
599.1588, 9.882218
599.6409, 10.01964
600.1230, 10.08914
600.6051, 9.959861
601.0872, 9.611635
601.5693, 9.444337
602.0515, 9.547426
602.5336, 9.711538
603.0157, 9.814926
603.4978, 9.849514
603.9799, 9.865190
604.4620, 9.853180
604.9442, 9.850654
605.4263, 9.947986
605.9084, 10.11538
606.3905, 10.15456
606.8726, 9.964727
607.3547, 9.736403
607.8369, 9.726864
608.3190, 9.868033
608.8011, 9.986147
609.2832, 9.962702
609.7653, 9.919417
610.2474, 9.937337
610.7296, 10.00943
611.2117, 10.06514
611.6938, 10.09685
612.1759, 10.09779
612.6580, 10.04555
613.1401, 9.906431
613.6223, 9.875196
614.1044, 10.03181
614.5865, 10.18891
615.0686, 10.13999
615.5507, 9.844512
616.0328, 9.724714
616.5150, 9.865693
616.9971, 10.08897
617.4792, 10.10547
617.9613, 9.959791
618.4434, 9.862669
618.9255, 9.922444
619.4077, 10.01858
619.8898, 10.01987
620.3719, 9.942739
620.8540, 9.839207
621.3361, 9.674619
621.8182, 9.544082
622.3004, 9.538362
622.7825, 9.657719
623.2646, 9.698481
623.7467, 9.473058
624.2288, 9.284458
624.7109, 9.297997
625.1931, 9.593520
625.6752, 9.826146
626.1573, 10.00560
626.6394, 10.10908
627.1215, 10.08042
627.6036, 9.916935
628.0858, 9.802159
628.5679, 9.768488
629.0500, 9.781621
629.5321, 9.847979
630.0142, 9.927231
630.4963, 9.883967
630.9785, 9.546530
631.4606, 9.181645
631.9427, 8.987151
632.4248, 8.951536
632.9069, 9.038346
633.3890, 9.378317
633.8712, 9.704801
634.3533, 9.931738
634.8354, 10.05542
635.3175, 9.993008
635.7996, 9.576445
636.2817, 9.165973
636.7639, 8.950298
637.2460, 8.957288
637.7281, 9.044810
638.2102, 9.236803
638.6923, 9.442122
639.1744, 9.586287
639.6566, 9.662680
640.1387, 9.612777
640.6208, 9.388595
641.1029, 9.154005
641.5850, 9.128418
642.0671, 9.231105
642.5493, 9.299490
643.0314, 9.220843
643.5135, 9.135263
643.9956, 9.101721
644.4777, 9.117539
644.9598, 9.172709
645.4420, 9.319063
645.9241, 9.448910
646.4062, 9.539962
646.8883, 9.591441
647.3704, 9.576056
647.8525, 9.470627
648.3347, 9.349286
648.8168, 9.239798
649.2989, 9.142402
649.7810, 9.146460
650.2631, 9.266379
650.7452, 9.368091
651.2274, 9.292629
651.7095, 9.108249
652.1916, 8.932024
652.6737, 8.766482
653.1558, 8.700930
653.6379, 8.881681
654.1201, 9.175225
654.6022, 9.406329
655.0843, 9.486234
655.5664, 9.541417
656.0485, 9.595272
656.5306, 9.642480
657.0128, 9.678698
657.4949, 9.740254
657.9770, 9.717770
658.4591, 9.557302
658.9412, 9.296223
659.4233, 9.080202
659.9055, 8.905291
660.3876, 8.815969
660.8697, 8.869830
661.3518, 9.019713
661.8339, 9.181569
662.3160, 9.349489
662.7982, 9.445912
663.2803, 9.309147
663.7624, 9.136688
664.2445, 9.167852
664.7266, 9.485258
665.2087, 9.673599
665.6909, 9.430201
666.1730, 9.096728
666.6551, 8.966374
667.1372, 9.217500
667.6193, 9.372339
668.1014, 9.401356
668.5836, 9.360839
669.0657, 9.311851
669.5478, 9.250915
670.0299, 9.236049
670.5120, 9.300371
670.9941, 9.378744
671.4763, 9.347058
671.9584, 9.226098
672.4405, 9.096645
672.9226, 8.941253
673.4047, 8.836042
673.8868, 8.887770
674.3690, 9.054703
674.8511, 9.189856
675.3332, 9.207458
675.8153, 9.208444
676.2974, 9.228636
676.7795, 9.270292
677.2617, 9.345098
677.7438, 9.492991
678.2259, 9.614231
678.7080, 9.657379
679.1901, 9.619250
679.6722, 9.521566
680.1544, 9.343926
680.6365, 9.218062
681.1186, 9.343180
681.6007, 9.608307
682.0828, 9.707841
682.5649, 9.572346
683.0471, 9.419970
683.5292, 9.451085
684.0113, 9.562637
684.4934, 9.626236
684.9755, 9.527062
685.4576, 9.502669
685.9398, 9.676394
686.4219, 9.942578
686.9040, 10.12887
687.3861, 10.21745
687.8682, 10.25199
688.3503, 10.20268
688.8325, 10.13053
689.3146, 10.23867
689.7967, 10.53053
690.2788, 10.73011
690.7609, 10.67303
691.2430, 10.49238
691.7252, 10.40824
692.2073, 10.41112
692.6894, 10.46190
693.1715, 10.63102
693.6536, 10.76571
694.1357, 10.68670
694.6179, 10.40277
695.1000, 10.28041
695.5821, 10.55092
696.0642, 10.87850
696.5463, 11.10405
697.0284, 11.20690
697.5106, 11.34517
697.9927, 11.52547
698.4748, 11.72671
698.9569, 11.98346
699.4390, 12.27118
699.9211, 12.30964
700.4033, 12.04541
700.8854, 11.80300
701.3675, 11.96985
701.8496, 12.35717
702.3317, 12.65873
702.8138, 12.75551
703.2960, 12.87819
703.7781, 13.15962
704.2602, 13.52525
704.7423, 13.88386
705.2244, 14.27596
705.7065, 14.58257
706.1887, 14.76449
706.6708, 14.87299
707.1529, 14.97028
707.6350, 15.02386
708.1171, 15.28439
708.5992, 15.89580
709.0814, 16.65525
709.5635, 17.15941
710.0456, 17.44195
710.5277, 17.65456
711.0098, 17.72279
711.4919, 17.87223
711.9741, 18.33179
712.4562, 19.04983
712.9383, 19.83134
713.4204, 20.69867
713.9025, 21.52987
714.3846, 22.27180
714.8668, 22.93406
715.3489, 23.52663
715.8310, 24.00496
716.3131, 24.51052
716.7952, 25.09037
717.2773, 25.74735
717.7595, 26.69891
718.2416, 27.96494
718.7237, 29.10684
719.2058, 29.57442
719.6879, 29.76304
720.1700, 30.32034
720.6522, 31.33254
721.1343, 32.39640
721.6164, 33.43499
722.0985, 34.33346
722.5806, 34.98920
723.0627, 35.19149
723.5449, 35.60112
724.0270, 36.43776
724.5091, 37.31609
724.9912, 37.90712
725.4733, 38.21151
725.9554, 38.21869
726.4376, 37.88486
726.9197, 37.39154
727.4018, 37.06998
727.8839, 36.80376
728.3660, 36.19205
728.8481, 35.01729
729.3303, 33.72314
729.8124, 32.79282
730.2945, 31.97254
730.7766, 30.88448
731.2587, 28.99639
731.7408, 27.30390
732.2230, 26.17706
732.7051, 25.35143
733.1872, 24.32053
733.6693, 22.96031
734.1514, 21.79282
734.6335, 20.99175
735.1157, 20.41262
735.5978, 19.66424
736.0799, 18.77368
736.5620, 17.96830
737.0441, 17.36099
737.5262, 16.88809
738.0084, 16.52971
738.4905, 16.24757
738.9726, 15.91122
739.4547, 15.44435
739.9368, 14.93017
740.4189, 14.34140
740.9011, 13.69623
741.3832, 13.25542
741.8653, 13.09035
742.3474, 12.99669
742.8295, 12.91621
743.3116, 12.84063
743.7938, 12.68584
744.2759, 12.44891
744.7580, 12.22691
745.2401, 12.15079
745.7222, 12.10683
746.2043, 11.87510
746.6865, 11.45815
747.1686, 11.09825
747.6507, 10.95905
748.1328, 10.89662
748.6149, 10.82553
749.0970, 10.74050
749.5792, 10.63129
750.0613, 10.47700
750.5434, 10.32544
751.0255, 10.21299
751.5076, 10.14682
751.9897, 10.05080
752.4719, 9.924852
752.9540, 9.759101
753.4361, 9.433775
753.9182, 9.083899
754.4003, 9.042400
754.8824, 9.396613
755.3646, 9.697330
755.8467, 9.568197
756.3288, 9.287693
756.8109, 9.122821
757.2930, 9.196089
757.7751, 9.216451
758.2573, 9.148870
758.7394, 9.040390
759.2215, 8.922197
759.7036, 8.783825
760.1857, 8.707188
760.6678, 8.705836
761.1500, 8.747705
761.6321, 8.813587
762.1142, 8.889640
762.5963, 8.939361
763.0784, 8.944897
763.5605, 8.946971
764.0427, 8.991999
764.5248, 9.043528
765.0069, 9.055922
765.4890, 9.054347
765.9711, 8.956106
766.4532, 8.657964
766.9354, 8.329636
767.4175, 8.244132
767.8996, 8.448840
768.3817, 8.591958
768.8638, 8.599712
769.3459, 8.553378
769.8281, 8.586916
770.3102, 8.673293
770.7923, 8.734318
771.2744, 8.748306
771.7565, 8.720435
772.2386, 8.572691
772.7208, 8.402180
773.2029, 8.377969
773.6850, 8.738948
774.1671, 8.995534
774.6492, 9.044042
775.1313, 8.967251
775.6135, 8.938871
776.0956, 8.966543
776.5777, 8.986194
777.0598, 8.972391
777.5419, 8.954383
778.0240, 9.000648
778.5062, 9.089384
778.9883, 9.152416
779.4704, 9.119870
779.9525, 9.091277
780.4346, 9.157686
780.9167, 9.273859
781.3989, 9.329074
781.8810, 9.256130
782.3631, 9.170900
782.8452, 9.072969
783.3273, 8.983815
783.8094, 8.967072
784.2916, 9.025587
784.7737, 9.134788
785.2558, 9.306166
785.7379, 9.502718
786.2200, 9.704469
786.7021, 9.880911
787.1843, 9.920643
787.6664, 9.575633
788.1485, 9.270310
788.6306, 9.326350
789.1127, 9.634161
789.5948, 9.764238
790.0770, 9.520792
790.5591, 9.324920
791.0412, 9.282765
791.5233, 9.356309
792.0054, 9.421144
792.4875, 9.476892
792.9697, 9.512207
793.4518, 9.508657
793.9339, 9.492722
794.4160, 9.514352
794.8981, 9.561013
795.3802, 9.591090
795.8624, 9.569646
796.3445, 9.542073
796.8266, 9.539298
797.3087, 9.551593
797.7908, 9.521898
798.2729, 9.397345
798.7551, 9.335694
799.2372, 9.410100
799.7193, 9.569215
800.2014, 9.599504
800.6835, 9.512904
801.1656, 9.479129
801.6478, 9.638671
802.1299, 9.855113
802.6120, 9.994704
803.0941, 10.06017
803.5762, 10.06169
804.0583, 9.914424
804.5405, 9.794203
805.0226, 9.790079
805.5047, 9.871181
805.9868, 9.918803
806.4689, 9.920289
806.9510, 9.922581
807.4332, 9.927636
807.9153, 9.954139
808.3974, 10.13479
808.8795, 10.42074
809.3616, 10.53307
809.8438, 10.08076
810.3259, 9.601762
810.8080, 9.609282
811.2901, 9.964415
811.7722, 10.20294
812.2543, 10.01698
812.7365, 9.922031
813.2186, 10.10569
813.7007, 10.46541
814.1828, 10.62807
814.6649, 10.58131
815.1470, 10.43003
815.6292, 10.14670
816.1113, 9.855417
816.5934, 9.835010
817.0755, 10.01644
817.5576, 10.17030
818.0397, 10.10251
818.5219, 10.06121
819.0040, 10.25787
819.4861, 10.59077
819.9682, 10.71072
820.4503, 10.46085
820.9324, 10.24259
821.4146, 10.12932
821.8967, 10.11053
822.3788, 10.20064
822.8609, 10.38983
823.3430, 10.53253
823.8251, 10.54645
824.3073, 10.52725
824.7894, 10.60289
825.2715, 10.73240
825.7536, 10.83015
826.2357, 10.83313
826.7178, 10.83438
827.2000, 10.87748
827.6821, 10.93126
828.1642, 10.93807
828.6463, 10.89458
829.1284, 10.80766
829.6105, 10.65931
830.0927, 10.49977
830.5748, 10.41929
831.0569, 10.40426
831.5390, 10.40691
832.0211, 10.41309
832.5032, 10.42827
832.9854, 10.43198
833.4675, 10.45393
833.9496, 10.53971
834.4317, 10.88488
834.9138, 11.01695
835.3959, 10.77686
835.8781, 10.43289
836.3602, 10.47510
836.8423, 10.90072
837.3244, 11.01225
837.8065, 10.57923
838.2886, 10.12734
838.7708, 10.40087
839.2529, 11.04339
839.7350, 11.47128
840.2171, 11.46874
840.6992, 11.35018
841.1813, 11.05544
841.6635, 10.79096
842.1456, 10.79547
842.6277, 11.20892
843.1098, 11.45582
843.5919, 11.48591
844.0740, 11.39986
844.5562, 11.28777
845.0383, 11.15838
845.5204, 11.02310
846.0025, 10.87426
846.4846, 10.79088
846.9667, 10.85906
847.4489, 11.00291
847.9310, 11.15963
848.4131, 11.34556
848.8952, 11.46569
849.3773, 11.46312
849.8594, 11.47417
850.3416, 11.65842
850.8237, 12.00654
851.3058, 12.08246
851.7879, 11.85448
852.2700, 11.61741
852.7521, 11.65128
853.2343, 11.79387
853.7164, 11.85276
854.1985, 11.80472
854.6806, 11.75822
855.1627, 11.68283
855.6448, 11.68499
856.1270, 11.84063
856.6091, 12.15503
857.0912, 12.38550
857.5733, 12.52651
858.0554, 12.60347
858.5375, 12.58249
859.0197, 12.52340
859.5018, 12.58043
859.9839, 12.73456
860.4660, 12.86586
860.9481, 12.87649
861.4302, 12.87578
861.9124, 12.93655
862.3945, 13.05140
862.8766, 13.11576
863.3587, 13.11114
863.8408, 13.09924
864.3229, 13.11298
864.8051, 13.12644
865.2872, 13.03062
865.7693, 12.84777
866.2514, 12.71288
866.7335, 12.71043
867.2156, 12.76446
867.6978, 12.84864
868.1799, 12.94301
868.6620, 13.00313
869.1441, 12.99063
869.6262, 12.98205
870.1083, 13.01543
870.5905, 13.03590
871.0726, 12.90654
871.5547, 12.63095
872.0368, 12.41162
872.5189, 12.31546
873.0010, 12.24616
873.4832, 12.04742
873.9653, 11.81049
874.4474, 11.68859
874.9295, 11.78056
875.4116, 11.89063
875.8937, 12.00408
876.3759, 12.09547
876.8580, 12.15124
877.3401, 12.18613
877.8222, 12.07804
878.3043, 11.79262
878.7864, 11.47572
879.2686, 11.21027
879.7507, 11.04239
880.2328, 11.10953
880.7149, 11.45891
881.1970, 11.75152
881.6791, 11.73853
882.1613, 11.67206
882.6434, 11.74981
883.1255, 12.00776
883.6076, 12.14628
884.0897, 12.13857
884.5718, 12.09865
885.0540, 12.10254
885.5361, 12.13478
886.0182, 12.15047
886.5003, 12.14924
886.9824, 12.13102
887.4645, 12.02856
887.9467, 11.96873
888.4288, 12.09476
888.9109, 12.37567
889.3930, 12.47426
889.8751, 12.32704
890.3572, 12.10864
890.8394, 11.83942
891.3215, 11.56467
891.8036, 11.39337
892.2857, 11.33057
892.7678, 11.40386
893.2499, 11.75445
893.7321, 12.08832
894.2142, 12.14993
894.6963, 12.04761
895.1784, 11.98829
895.6605, 12.06627
896.1426, 12.09982
896.6248, 12.03687
897.1069, 11.96685
897.5890, 12.05216
898.0711, 12.27402
898.5532, 12.44609
899.0353, 12.53839
899.5175, 12.56346
899.9996, 12.48132
900.4817, 12.36500
900.9638, 12.29429
901.4459, 12.27046
901.9280, 12.33627
902.4102, 12.57159
902.8923, 12.80150
903.3744, 12.91615
903.8565, 12.91574
904.3386, 12.77563
904.8207, 12.49173
905.3029, 12.25582
905.7850, 12.27133
906.2671, 12.38439
906.7492, 12.42650
907.2313, 12.39354
907.7134, 12.37930
908.1956, 12.43983
908.6777, 12.49017
909.1598, 12.48598
909.6419, 12.44943
910.1240, 12.49560
910.6061, 12.62503
911.0883, 12.78415
911.5704, 12.98361
912.0525, 13.15888
912.5346, 13.25815
913.0167, 13.26841
913.4988, 13.16140
913.9810, 12.64693
914.4631, 12.37704
914.9452, 12.62356
915.4273, 13.08079
915.9094, 13.30182
916.3915, 13.26268
916.8737, 13.30194
917.3558, 13.48705
917.8379, 13.66599
918.3200, 13.62211
918.8021, 13.47812
919.2842, 13.42317
919.7664, 13.51656
920.2485, 13.58916
920.7306, 13.56329
921.2127, 13.52217
921.6948, 13.51047
922.1769, 13.52798
922.6591, 13.59916
923.1412, 13.73528
923.6233, 13.81158
924.1054, 13.65594
924.5875, 13.43683
925.0696, 13.37017
925.5518, 13.45575
926.0339, 13.65189
926.5160, 14.13883
926.9981, 14.50485
927.4802, 14.54561
927.9623, 14.38564
928.4445, 14.46810
928.9266, 14.83025
929.4087, 14.93500
929.8908, 14.51373
930.3729, 13.98834
930.8550, 13.94347
931.3372, 14.20265
931.8193, 14.45331
932.3014, 14.58361
932.7835, 14.72895
933.2656, 14.97901
933.7477, 15.21441
934.2299, 15.31018
934.7120, 15.24543
935.1941, 15.24768
935.6762, 15.33538
936.1583, 15.42704
936.6404, 15.41408
937.1226, 15.37615
937.6047, 15.41548
938.0868, 15.54177
938.5689, 15.71236
939.0510, 15.98798
939.5331, 16.22358
940.0153, 16.35613
940.4974, 16.39920
940.9795, 16.43856
941.4616, 16.47376
941.9437, 16.55211
942.4258, 16.74002
942.9080, 16.93025
943.3901, 16.98022
943.8722, 16.93282
944.3543, 16.87981
944.8364, 16.78047
945.3185, 16.77820
945.8007, 16.93955
946.2828, 17.15734
946.7649, 17.29808
947.2470, 17.36274
947.7291, 17.34640
948.2112, 17.22522
948.6934, 17.19260
949.1755, 17.56523
949.6576, 18.05016
950.1397, 18.31204
950.6218, 18.26395
951.1039, 18.24585
951.5861, 18.27404
952.0682, 18.38133
952.5503, 18.61433
953.0324, 18.94647
953.5145, 19.19160
953.9966, 19.35386
954.4788, 19.49644
954.9609, 19.65914
955.4430, 19.81519
955.9251, 19.94990
956.4072, 20.06104
956.8893, 20.13789
957.3715, 20.09707
957.8536, 20.17285
958.3357, 20.42743
958.8178, 20.76005
959.2999, 21.05259
959.7820, 21.29039
960.2642, 21.35297
960.7463, 21.17230
961.2284, 21.08848
961.7105, 21.52285
962.1926, 22.04728
962.6747, 22.25172
963.1569, 22.01005
963.6390, 21.92442
964.1211, 22.04178
964.6032, 22.18562
965.0853, 22.22510
965.5674, 22.21286
966.0496, 22.30553
966.5317, 22.48828
967.0138, 22.69402
967.4959, 22.92183
967.9780, 23.12678
968.4601, 23.27722
968.9423, 23.38795
969.4244, 23.49510
969.9065, 23.61485
970.3886, 23.64057
970.8707, 23.51232
971.3528, 23.41048
971.8350, 23.62777
972.3171, 24.03025
972.7992, 24.40072
973.2813, 24.71880
973.7634, 24.91063
974.2455, 24.83690
974.7277, 24.72477
975.2098, 24.69673
975.6919, 24.75276
976.1740, 24.91778
976.6561, 25.19696
977.1382, 25.46992
977.6204, 25.72364
978.1025, 25.88885
978.5846, 25.76494
979.0667, 25.47689
979.5488, 25.39203
980.0309, 25.91231
980.5131, 26.25728
980.9952, 26.24790
981.4773, 26.06685
981.9594, 25.99818
982.4415, 26.03298
982.9236, 26.09105
983.4058, 26.15114
983.8879, 26.27602
984.3700, 26.58594
984.8521, 26.94188
985.3342, 27.23373
985.8163, 27.45587
986.2985, 27.50558
986.7806, 27.28544
987.2627, 27.12207
987.7448, 27.24736
988.2269, 27.53312
988.7090, 27.56364
989.1912, 27.39053
989.6733, 27.22813
990.1554, 27.09537
990.6375, 27.09660
991.1196, 27.41088
991.6017, 27.84759
992.0839, 28.06951
992.5660, 28.02765
993.0481, 27.99784
993.5302, 28.02456
994.0123, 28.01039
994.4944, 27.76003
994.9766, 27.43273
995.4587, 27.27687
995.9408, 27.33161
996.4229, 27.45075
996.9050, 27.72593
997.3871, 27.89518
997.8693, 27.77095
998.3514, 27.44181
998.8335, 27.53235
999.3156, 28.01177
999.7977, 28.33958
1000.280, 28.19686
1000.762, 27.90622
1001.244, 27.62664
1001.726, 27.44490
1002.208, 27.51466
1002.690, 28.14332
1003.173, 28.53337
1003.655, 28.60363
1004.137, 28.54805
1004.619, 28.52550
1005.101, 28.54118
1005.583, 28.67321
1006.065, 28.91438
1006.547, 29.00558
1007.029, 28.54259
1007.512, 28.11896
1007.994, 28.15558
1008.476, 28.54138
1008.958, 28.80548
1009.440, 28.94217
1009.922, 28.97208
1010.404, 28.85770
1010.886, 28.73448
1011.369, 28.78903
1011.851, 28.96878
1012.333, 29.20973
1012.815, 29.61825
1013.297, 29.77821
1013.779, 29.38781
1014.261, 29.02033
1014.743, 29.17913
1015.225, 29.81814
1015.708, 29.87186
1016.190, 29.38257
1016.672, 29.04416
1017.154, 29.55613
1017.636, 30.16010
1018.118, 30.27326
1018.600, 30.02711
1019.082, 29.89743
1019.565, 29.91989
1020.047, 30.01581
1020.529, 30.15887
1021.011, 30.40594
1021.493, 31.03989
1021.975, 31.79018
1022.457, 32.01224
1022.939, 31.53768
1023.421, 31.08662
1023.904, 30.97751
1024.386, 30.97033
1024.868, 30.90445
1025.350, 30.80869
1025.832, 31.01471
1026.314, 31.51850
1026.796, 31.94622
1027.278, 32.03657
1027.760, 32.09159
1028.243, 32.51559
1028.725, 33.08427
1029.207, 33.41615
1029.689, 33.24484
1030.171, 33.16969
1030.653, 33.24678
1031.135, 33.32203
1031.617, 33.13548
1032.100, 32.84087
1032.582, 32.95823
1033.064, 33.47782
1033.546, 33.94718
1034.028, 33.98708
1034.510, 34.06824
1034.992, 34.43311
1035.474, 35.00652
1035.957, 35.62282
1036.439, 36.30529
1036.921, 36.75542
1037.403, 36.89519
1037.885, 36.82227
1038.367, 36.34826
1038.849, 35.87565
1039.331, 35.99227
1039.813, 37.00536
1040.296, 37.71607
1040.778, 37.95478
1041.260, 38.08803
1041.742, 38.30311
1042.224, 38.56836
1042.706, 38.72193
1043.188, 38.81092
1043.670, 39.02987
1044.152, 39.66809
1044.635, 40.22425
1045.117, 40.38090
1045.599, 40.39594
1046.081, 40.63386
1046.563, 41.15440
1047.045, 41.35798
1047.527, 41.17118
1048.009, 41.08169
1048.492, 41.69693
1048.974, 42.51369
1049.456, 42.94823
1049.938, 43.01455
1050.420, 43.29246
1050.902, 44.01824
1051.384, 44.60072
1051.866, 44.82887
1052.349, 44.94170
1052.831, 45.44130
1053.313, 46.19904
1053.795, 46.83259
1054.277, 47.18181
1054.759, 47.66022
1055.241, 48.65159
1055.723, 49.66358
1056.205, 50.37054
1056.688, 50.77956
1057.170, 51.11831
1057.652, 51.38871
1058.134, 51.88689
1058.616, 52.87641
1059.098, 54.05008
1059.580, 55.17645
1060.062, 56.26930
1060.544, 57.35101
1061.027, 58.40480
1061.509, 59.47987
1061.991, 60.53253
1062.473, 61.72223
1062.955, 63.30469
1063.437, 65.10191
1063.919, 66.70670
1064.401, 68.11245
1064.884, 69.59003
1065.366, 71.11658
1065.848, 72.90577
1066.330, 75.07381
1066.812, 77.45670
1067.294, 79.53919
1067.776, 81.38408
1068.258, 83.93688
1068.740, 87.47898
1069.223, 91.16566
1069.705, 94.28120
1070.187, 97.31058
1070.669, 100.5987
1071.151, 104.1697
1071.633, 108.5396
1072.115, 113.8664
1072.597, 119.4024
1073.079, 124.7783
1073.562, 130.2253
1074.044, 135.9150
1074.526, 142.0191
1075.008, 149.0088
1075.490, 157.4277
1075.972, 165.9307
1076.454, 174.1685
1076.936, 182.7610
1077.419, 192.2479
1077.901, 202.5668
1078.383, 213.7602
1078.865, 225.7997
1079.347, 237.8843
1079.829, 249.0824
1080.311, 260.7921
1080.793, 273.8336
1081.275, 287.7158
1081.758, 301.7910
1082.240, 316.1952
1082.722, 330.2917
1083.204, 344.0606
1083.686, 357.3983
1084.168, 370.8358
1084.650, 383.7266
1085.132, 395.7739
1085.615, 406.8222
1086.097, 416.1499
1086.579, 423.9662
1087.061, 429.6344
1087.543, 433.0898
1088.025, 433.9914
1088.507, 431.6919
1088.989, 426.3738
1089.471, 418.2230
1089.953, 407.0211
1090.436, 393.8897
1090.918, 378.6978
1091.400, 362.1027
1091.882, 343.7707
1092.364, 324.2455
1092.846, 305.9779
1093.328, 288.9147
1093.810, 272.0754
1094.293, 254.6854
1094.775, 237.8896
1095.257, 221.7050
1095.739, 206.6019
1096.221, 193.1058
1096.703, 181.2793
1097.185, 170.1746
1097.667, 159.7229
1098.150, 150.0609
1098.632, 141.5146
1099.114, 133.7498
1099.596, 126.4165
1100.078, 119.5874
1100.560, 113.4872
1101.042, 108.2765
1101.524, 103.4324
1102.006, 98.90719
1102.489, 94.60487
1102.971, 90.04604
1103.453, 85.65932
1103.935, 82.34711
1104.417, 80.12370
1104.899, 77.74992
1105.381, 74.73803
1105.863, 71.76438
1106.345, 69.01273
1106.828, 66.38833
1107.310, 63.65790
1107.792, 60.92355
1108.274, 58.61107
1108.756, 56.85175
1109.238, 55.23814
1109.720, 53.71080
1110.202, 52.15527
1110.685, 50.49311
1111.167, 48.74857
1111.649, 47.24067
1112.131, 45.95274
1112.613, 44.64409
1113.095, 43.19379
1113.577, 41.77821
1114.059, 40.62829
1114.542, 39.54329
1115.024, 38.25918
1115.506, 36.67543
1115.988, 35.36626
1116.470, 34.35965
1116.952, 33.34464
1117.434, 31.94028
1117.916, 30.55810
1118.398, 29.73826
1118.880, 29.28574
1119.363, 28.72634
1119.845, 27.97538
1120.327, 27.11873
1120.809, 26.13828
1121.291, 25.15037
1121.773, 24.23366
1122.255, 23.41100
1122.737, 22.74771
1123.220, 22.22936
1123.702, 21.74334
1124.184, 21.24041
1124.666, 20.79962
1125.148, 20.45021
1125.630, 20.14800
1126.112, 19.83723
1126.594, 19.51413
1127.077, 19.13354
1127.559, 18.68245
1128.041, 18.34645
1128.523, 18.42495
1129.005, 18.38996
1129.487, 17.92935
1129.969, 17.23427
1130.451, 16.91249
1130.933, 16.92027
1131.416, 16.94552
1131.898, 16.92435
1132.380, 16.82825
1132.862, 16.59283
1133.344, 16.30919
1133.826, 16.05116
1134.308, 15.81949
1134.790, 15.52708
1135.272, 15.16879
1135.755, 14.90324
1136.237, 14.81576
1136.719, 14.79969
1137.201, 14.77262
1137.683, 14.74994
1138.165, 14.76776
1138.647, 14.86511
1139.129, 14.83718
1139.612, 14.68074
1140.094, 14.42560
1140.576, 14.02778
1141.058, 13.59801
1141.540, 13.21237
1142.022, 12.91571
1142.504, 12.80624
1142.986, 12.98294
1143.469, 13.23249
1143.951, 13.62754
1144.433, 13.86436
1144.915, 13.50901
1145.397, 12.90229
1145.879, 12.65558
1146.361, 12.72703
1146.843, 12.86517
1147.325, 13.18028
1147.807, 13.25865
1148.290, 12.97363
1148.772, 12.58169
1149.254, 12.38680
1149.736, 12.33416
1150.218, 12.29035
1150.700, 12.24214
1151.182, 12.17804
1151.664, 11.98645
1152.147, 11.93573
1152.629, 12.19251
1153.111, 12.52076
1153.593, 12.40428
1154.075, 11.96520
1154.557, 11.72165
1155.039, 11.76385
1155.521, 11.78521
1156.004, 11.51499
1156.486, 11.30069
1156.968, 11.32283
1157.450, 11.50614
1157.932, 11.63448
1158.414, 11.71044
1158.896, 11.75205
1159.378, 11.76411
1159.860, 11.74101
1160.343, 11.67072
1160.825, 11.56784
1161.307, 11.40933
1161.789, 11.21955
1162.271, 11.23052
1162.753, 11.43088
1163.235, 11.56077
1163.717, 11.53077
1164.199, 11.39369
1164.682, 11.03779
1165.164, 10.70716
1165.646, 10.67518
1166.128, 10.95745
1166.610, 11.20545
1167.092, 11.42024
1167.574, 11.51421
1168.056, 11.39809
1168.539, 11.20891
1169.021, 11.04329
1169.503, 10.89400
1169.985, 10.74408
1170.467, 10.57494
1170.949, 10.48792
1171.431, 10.48742
1171.913, 10.53663
1172.396, 10.65425
1172.878, 10.77158
1173.360, 10.81019
1173.842, 10.79814
1174.324, 10.78605
1174.806, 10.76049
1175.288, 10.81211
1175.770, 10.96993
1176.252, 11.05957
1176.734, 10.88119
1177.217, 10.60286
1177.699, 10.40434
1178.181, 10.28049
1178.663, 10.21748
1179.145, 10.25145
1179.627, 10.23315
1180.109, 10.13391
1180.591, 10.05469
1181.074, 10.14379
1181.556, 10.28107
1182.038, 10.29146
1182.520, 10.19123
1183.002, 10.09935
1183.484, 10.05196
1183.966, 9.971326
1184.448, 9.834224
1184.931, 9.704851
1185.413, 9.618957
1185.895, 9.607928
1186.377, 9.780741
1186.859, 10.10983
1187.341, 10.31674
1187.823, 10.29276
1188.305, 10.26054
1188.787, 10.26267
1189.270, 10.26427
1189.752, 10.20105
1190.234, 10.11100
1190.716, 10.06838
1191.198, 10.07848
1191.680, 10.05559
1192.162, 9.928171
1192.644, 9.875349
1193.126, 9.964859
1193.609, 10.09859
1194.091, 10.13212
1194.573, 10.08933
1195.055, 9.988401
1195.537, 9.826877
1196.019, 9.738586
1196.501, 9.812182
1196.983, 9.844701
1197.466, 9.747106
1197.948, 9.623561
1198.430, 9.705839
1198.912, 9.892685
1199.394, 9.977149
1199.876, 9.908022
1200.358, 9.825728
1200.840, 9.760713
1201.323, 9.675611
1201.805, 9.524264
1202.287, 9.390203
1202.769, 9.516195
1203.251, 9.777768
1203.733, 9.901031
1204.215, 9.798141
1204.697, 9.683667
1205.179, 9.556194
1205.661, 9.505462
1206.144, 9.614885
1206.626, 9.777521
1207.108, 9.679990
1207.590, 9.459292
1208.072, 9.452909
1208.554, 9.887610
1209.036, 10.04867
1209.518, 9.712466
1210.001, 9.345649
1210.483, 9.165203
1210.965, 9.128901
1211.447, 9.188992
1211.929, 9.306853
1212.411, 9.397641
1212.893, 9.418734
1213.375, 9.467177
1213.858, 9.596653
1214.340, 9.659907
1214.822, 9.504328
1215.304, 9.279238
1215.786, 9.415257
1216.268, 9.755277
1216.750, 9.941641
1217.232, 9.797618
1217.714, 9.632977
1218.197, 9.442626
1218.679, 9.308663
1219.161, 9.296163
1219.643, 9.366106
1220.125, 9.423069
1220.607, 9.496472
1221.089, 9.664815
1221.571, 10.15613
1222.053, 10.30739
1222.536, 9.958251
1223.018, 9.618264
1223.500, 9.729728
1223.982, 10.01507
1224.464, 9.866458
1224.946, 9.463780
1225.428, 9.215643
1225.910, 9.344954
1226.393, 9.484640
1226.875, 9.657383
1227.357, 9.752621
1227.839, 9.637155
1228.321, 9.424678
1228.803, 9.257345
1229.285, 9.149529
1229.767, 9.139273
1230.250, 9.325524
1230.732, 9.424704
1231.214, 9.415563
1231.696, 9.390589
1232.178, 9.437568
1232.660, 9.498661
1233.142, 9.468876
1233.624, 9.394100
1234.106, 9.386160
1234.589, 9.484479
1235.071, 9.586638
1235.553, 9.692245
1236.035, 9.791499
1236.517, 9.941670
1236.999, 10.02729
1237.481, 9.800834
1237.963, 9.428950
1238.445, 9.317366
1238.928, 9.611430
1239.410, 9.709918
1239.892, 9.573467
1240.374, 9.420611
1240.856, 9.293406
1241.338, 9.340472
1241.820, 9.985933
1242.302, 10.81642
1242.785, 10.90310
1243.267, 9.974090
1243.749, 9.728426
1244.231, 10.25941
1244.713, 10.76159
1245.195, 10.64160
1245.677, 10.28150
1246.159, 9.815149
1246.641, 9.368669
1247.124, 9.161001
1247.606, 9.213786
1248.088, 9.259576
1248.570, 9.286955
1249.052, 9.321933
1249.534, 9.386023
1250.016, 9.458942
1250.498, 9.566248
1250.980, 9.650569
1251.463, 9.607954
1251.945, 9.441865
1252.427, 9.417177
1252.909, 9.529848
1253.391, 9.611831
1253.873, 9.520700
1254.355, 9.422866
1254.837, 9.377500
1255.320, 9.373446
1255.802, 9.423873
1256.284, 9.512273
1256.766, 9.525272
1257.248, 9.466295
1257.730, 9.394807
1258.212, 9.270523
1258.694, 9.246940
1259.177, 9.434901
1259.659, 9.626466
1260.141, 9.539765
1260.623, 9.285433
1261.105, 9.283242
1261.587, 9.485383
1262.069, 9.599568
1262.551, 9.355485
1263.033, 9.248508
1263.516, 9.387490
1263.998, 9.570367
1264.480, 9.622415
1264.962, 9.564566
1265.444, 9.384160
1265.926, 9.127469
1266.408, 8.950603
1266.890, 8.870786
1267.372, 8.952372
1267.855, 9.259650
1268.337, 9.520830
1268.819, 9.437196
1269.301, 9.212000
1269.783, 9.076993
1270.265, 9.039877
1270.747, 9.137074
1271.229, 9.505489
1271.712, 9.485979
1272.194, 8.987443
1272.676, 8.576166
1273.158, 8.844946
1273.640, 9.257994
1274.122, 9.305588
1274.604, 9.135614
1275.086, 9.050088
1275.568, 9.063700
1276.051, 9.140506
1276.533, 9.280519
1277.015, 9.340158
1277.497, 9.127359
1277.979, 8.915174
1278.461, 8.834484
1278.943, 8.879847
1279.425, 9.108337
1279.907, 9.513317
1280.390, 9.522975
1280.872, 9.178903
1281.354, 8.888038
1281.836, 8.920890
1282.318, 8.986664
1282.800, 9.021762
1283.282, 9.007855
1283.764, 8.904592
1284.247, 8.734348
1284.729, 8.574570
1285.211, 8.449579
1285.693, 8.450944
1286.175, 8.774715
1286.657, 8.980353
1287.139, 8.976221
1287.621, 8.940877
1288.104, 9.048283
1288.586, 9.199389
1289.068, 9.139606
1289.550, 8.961805
1290.032, 8.885431
1290.514, 9.117028
1290.996, 9.128047
1291.478, 8.858244
1291.960, 8.617258
1292.443, 8.620699
1292.925, 8.737019
1293.407, 8.852390
1293.889, 8.949955
1294.371, 8.986668
1294.853, 8.939686
1295.335, 8.985665
1295.817, 9.127540
1296.299, 9.257275
1296.782, 9.367451
1297.264, 9.368196
1297.746, 9.070919
1298.228, 8.722524
1298.710, 8.567240
1299.192, 8.597705
1299.674, 8.689131
1300.156, 8.827921
1300.639, 8.931808
1301.121, 8.972177
1301.603, 8.963621
1302.085, 8.824423
1302.567, 8.735244
1303.049, 8.780359
1303.531, 8.958167
##END=



