##NAMES=Spherocobaltite
##RRUFFID=R140338
##IDEAL CHEMISTRY=Co^2+^CO_3_
##LOCALITY=Kakanda, Shaba, Zaire
##OWNER=RRUFF
##SOURCE=William Pinch
##DESCRIPTION=Reddish purple rhombohedral crystals
##STATUS=The identification of this mineral has been confirmed only by single crystal X-ray diffraction.
##URL=rruff.info/R140338
90.80798, 61.20488
91.29010, 60.62616
91.77222, 59.71089
92.25433, 58.88300
92.73645, 58.13332
93.21857, 57.40045
93.70068, 56.60052
94.18280, 55.77103
94.66492, 55.05005
95.14703, 54.52972
95.62915, 54.14309
96.11127, 53.64416
96.59338, 53.00447
97.07550, 52.41208
97.55762, 52.22618
98.03973, 52.45740
98.52185, 52.45071
99.00397, 51.75817
99.48608, 50.35305
99.96820, 49.44450
100.4503, 49.20110
100.9324, 49.25352
101.4146, 48.72358
101.8967, 47.34619
102.3788, 46.12989
102.8609, 45.74738
103.3430, 46.63853
103.8251, 46.92653
104.3073, 46.28056
104.7894, 44.90057
105.2715, 43.83464
105.7536, 43.21050
106.2357, 42.74898
106.7178, 42.23968
107.2000, 41.52739
107.6821, 41.00318
108.1642, 40.80793
108.6463, 40.97812
109.1284, 40.96938
109.6105, 40.60168
110.0927, 40.13240
110.5748, 39.80469
111.0569, 39.95548
111.5390, 39.93490
112.0211, 39.51304
112.5032, 38.51987
112.9854, 37.73073
113.4675, 37.48878
113.9496, 37.47010
114.4317, 37.20134
114.9138, 36.17750
115.3959, 35.17512
115.8781, 34.59855
116.3602, 34.74342
116.8423, 34.80653
117.3244, 34.39593
117.8065, 33.67516
118.2886, 33.06046
118.7708, 32.66076
119.2529, 32.46919
119.7350, 32.51909
120.2171, 33.09009
120.6992, 33.57758
121.1813, 33.54119
121.6635, 33.04799
122.1456, 32.46190
122.6277, 31.96399
123.1098, 31.51890
123.5919, 31.07966
124.0740, 30.61262
124.5562, 30.15254
125.0383, 29.71130
125.5204, 29.28694
126.0025, 28.96216
126.4846, 28.88373
126.9667, 28.97021
127.4489, 29.01806
127.9310, 28.97669
128.4131, 28.83133
128.8952, 28.51092
129.3773, 27.98385
129.8594, 27.41980
130.3416, 27.03071
130.8237, 26.80047
131.3058, 26.58571
131.7879, 26.27049
132.2700, 25.89269
132.7521, 25.66820
133.2343, 25.66334
133.7164, 25.72790
134.1985, 25.51747
134.6806, 25.00620
135.1627, 24.56067
135.6448, 24.47735
136.1270, 24.76161
136.6091, 24.99714
137.0912, 25.19328
137.5733, 25.27800
138.0554, 24.94091
138.5375, 24.05956
139.0197, 23.10865
139.5018, 22.42460
139.9839, 22.03589
140.4660, 21.83265
140.9481, 21.87388
141.4302, 22.12817
141.9124, 22.15389
142.3945, 21.83077
142.8766, 21.44566
143.3587, 21.31299
143.8408, 21.61407
144.3229, 21.79383
144.8051, 21.68131
145.2872, 21.21148
145.7693, 20.94307
146.2514, 21.01478
146.7335, 21.19721
147.2156, 21.19065
147.6978, 20.83311
148.1799, 20.48637
148.6620, 20.23636
149.1441, 20.10842
149.6262, 20.01503
150.1083, 19.99893
150.5905, 20.01183
151.0726, 19.96828
151.5547, 19.98342
152.0368, 19.84521
152.5189, 19.43678
153.0010, 18.38360
153.4832, 17.71895
153.9653, 17.81378
154.4474, 18.35935
154.9295, 18.61455
155.4116, 18.12845
155.8937, 17.59205
156.3759, 17.32761
156.8580, 17.59797
157.3401, 17.84749
157.8222, 17.98633
158.3043, 18.02571
158.7864, 18.00701
159.2686, 17.82877
159.7507, 17.66152
160.2328, 17.61642
160.7149, 17.95780
161.1970, 18.18492
161.6791, 18.09707
162.1613, 17.73050
162.6434, 17.31438
163.1255, 16.78363
163.6076, 16.31376
164.0897, 16.06113
164.5718, 16.22646
165.0540, 16.49650
165.5361, 16.76558
166.0182, 17.02926
166.5003, 17.20713
166.9824, 17.30044
167.4645, 17.27378
167.9467, 17.08414
168.4288, 16.47171
168.9109, 15.85639
169.3930, 15.55472
169.8751, 15.58501
170.3572, 15.72639
170.8394, 15.90053
171.3215, 16.07716
171.8036, 16.20301
172.2857, 16.23505
172.7678, 16.21711
173.2499, 16.18015
173.7321, 16.12156
174.2142, 16.07653
174.6963, 16.17358
175.1784, 16.31697
175.6605, 16.27937
176.1426, 15.67528
176.6248, 14.91273
177.1069, 14.58432
177.5890, 14.79318
178.0711, 15.21943
178.5532, 15.54800
179.0353, 15.81142
179.5175, 16.11324
179.9996, 16.61898
180.4817, 17.18983
180.9638, 17.51911
181.4459, 17.50295
181.9280, 17.42458
182.4102, 17.60846
182.8923, 18.04605
183.3744, 18.70712
183.8565, 19.77026
184.3386, 21.06208
184.8207, 21.98790
185.3029, 22.35683
185.7850, 22.55280
186.2671, 23.23078
186.7492, 24.37411
187.2313, 25.66474
187.7134, 26.88934
188.1956, 28.08090
188.6777, 29.35319
189.1598, 30.77859
189.6419, 32.25120
190.1240, 33.55415
190.6061, 34.70008
191.0883, 35.74682
191.5704, 36.73277
192.0525, 37.66925
192.5346, 38.58306
193.0167, 39.48310
193.4988, 40.33291
193.9810, 40.94429
194.4631, 41.27108
194.9452, 41.55918
195.4273, 41.82994
195.9094, 42.08372
196.3915, 42.35152
196.8737, 42.62255
197.3558, 42.91538
197.8379, 43.30935
198.3200, 43.80677
198.8021, 44.38127
199.2842, 45.01368
199.7664, 45.70839
200.2485, 46.41531
200.7306, 47.09662
201.2127, 47.78345
201.6948, 48.71419
202.1769, 49.95255
202.6591, 51.23940
203.1412, 52.37310
203.6233, 53.38529
204.1054, 54.10586
204.5875, 54.46831
205.0696, 54.50110
205.5518, 54.44273
206.0339, 54.32447
206.5160, 54.05280
206.9981, 53.53062
207.4802, 52.75801
207.9623, 51.76680
208.4445, 50.50931
208.9266, 48.99334
209.4087, 47.58642
209.8908, 46.33534
210.3729, 45.08818
210.8550, 43.65535
211.3372, 41.99814
211.8193, 40.33461
212.3014, 38.66188
212.7835, 36.99141
213.2656, 35.58820
213.7477, 34.49834
214.2299, 33.59927
214.7120, 32.76968
215.1941, 32.00383
215.6762, 31.29923
216.1583, 30.64871
216.6404, 30.05732
217.1226, 29.52138
217.6047, 29.06777
218.0868, 28.63652
218.5689, 28.11712
219.0510, 27.39930
219.5331, 26.85456
220.0153, 26.63446
220.4974, 26.78753
220.9795, 26.68900
221.4616, 26.18583
221.9437, 25.59253
222.4258, 25.31257
222.9080, 25.48394
223.3901, 25.67624
223.8722, 25.77398
224.3543, 25.76596
224.8364, 25.79090
225.3185, 25.92972
225.8007, 26.02632
226.2828, 25.84618
226.7649, 25.20787
227.2470, 24.65203
227.7291, 24.34897
228.2112, 24.32936
228.6934, 24.28119
229.1755, 24.17612
229.6576, 24.06668
230.1397, 24.03756
230.6218, 24.17332
231.1039, 24.22820
231.5861, 24.08412
232.0682, 23.67359
232.5503, 23.55367
233.0324, 23.92236
233.5145, 24.41481
233.9966, 24.54023
234.4788, 24.03247
234.9609, 23.63621
235.4430, 23.58883
235.9251, 23.96276
236.4072, 24.16362
236.8893, 24.09116
237.3715, 23.92842
237.8536, 23.91558
238.3357, 24.16873
238.8178, 24.36572
239.2999, 24.40487
239.7820, 24.25718
240.2642, 24.16449
240.7463, 24.12306
241.2284, 24.13843
241.7105, 24.23378
242.1926, 24.48956
242.6747, 24.67729
243.1569, 24.73249
243.6390, 24.64174
244.1211, 24.51677
244.6032, 24.30791
245.0853, 24.10748
245.5674, 24.03728
246.0496, 24.19303
246.5317, 24.29884
247.0138, 24.25637
247.4959, 24.03926
247.9780, 23.99301
248.4601, 24.19934
248.9423, 24.49511
249.4244, 24.70546
249.9065, 24.81115
250.3886, 24.86839
250.8707, 24.86303
251.3528, 24.78845
251.8350, 24.82586
252.3171, 25.08153
252.7992, 25.33355
253.2813, 25.30544
253.7634, 24.76813
254.2455, 24.45976
254.7277, 24.63601
255.2098, 25.31058
255.6919, 25.60108
256.1740, 25.32538
256.6561, 24.89338
257.1382, 24.70028
257.6204, 24.83039
258.1025, 24.98934
258.5846, 25.11650
259.0667, 25.21621
259.5488, 25.39578
260.0309, 25.71945
260.5131, 26.02456
260.9952, 26.14739
261.4773, 26.02018
261.9594, 25.90065
262.4415, 25.81196
262.9236, 25.75965
263.4058, 25.82182
263.8879, 26.04921
264.3700, 26.30667
264.8521, 26.48068
265.3342, 26.52990
265.8163, 26.63169
266.2985, 26.81911
266.7806, 27.07897
267.2627, 27.34180
267.7448, 27.59614
268.2269, 27.87379
268.7090, 28.22887
269.1912, 28.71451
269.6733, 29.04782
270.1554, 29.13809
270.6375, 29.06461
271.1196, 29.15988
271.6017, 29.47467
272.0839, 29.81594
272.5660, 29.99817
273.0481, 29.96466
273.5302, 30.16777
274.0123, 30.72277
274.4944, 31.49810
274.9766, 32.10854
275.4587, 32.51939
275.9408, 32.89830
276.4229, 33.32796
276.9050, 33.81143
277.3871, 34.33360
277.8693, 34.90015
278.3514, 35.49770
278.8335, 36.08476
279.3156, 36.65850
279.7977, 37.27179
280.2798, 37.94439
280.7620, 38.67016
281.2441, 39.50256
281.7262, 40.45914
282.2083, 41.49489
282.6904, 42.52320
283.1725, 43.53938
283.6547, 44.60975
284.1368, 45.76753
284.6189, 47.00190
285.1010, 48.30246
285.5831, 49.66171
286.0652, 51.10620
286.5474, 52.61860
287.0295, 54.20240
287.5116, 56.04626
287.9937, 58.34770
288.4758, 61.04194
288.9579, 63.60587
289.4401, 66.05856
289.9222, 68.42503
290.4043, 70.64315
290.8864, 72.74805
291.3685, 75.03425
291.8506, 77.62361
292.3328, 80.47139
292.8149, 83.36882
293.2970, 86.32680
293.7791, 89.36862
294.2612, 92.47477
294.7433, 95.65929
295.2255, 98.94357
295.7076, 102.3134
296.1897, 105.7787
296.6718, 109.3446
297.1539, 112.9918
297.6360, 116.5680
298.1182, 119.8629
298.6003, 122.9581
299.0824, 126.1286
299.5645, 129.4095
300.0466, 132.8538
300.5287, 136.6624
301.0109, 140.7701
301.4930, 144.8621
301.9751, 148.6213
302.4572, 152.2016
302.9393, 155.8382
303.4214, 159.7886
303.9036, 163.5171
304.3857, 166.4902
304.8678, 168.7627
305.3499, 170.5870
305.8320, 172.0826
306.3141, 173.2105
306.7963, 173.9205
307.2784, 174.2436
307.7605, 174.0584
308.2426, 173.4297
308.7247, 172.2305
309.2068, 170.1575
309.6890, 166.6953
310.1711, 162.4905
310.6532, 158.1488
311.1353, 153.7997
311.6174, 149.0530
312.0995, 143.5071
312.5817, 137.4773
313.0638, 131.4029
313.5459, 125.3897
314.0280, 119.3808
314.5101, 113.2380
314.9922, 106.9574
315.4744, 100.9150
315.9565, 95.32604
316.4386, 90.09818
316.9207, 85.19587
317.4028, 80.59663
317.8849, 76.27255
318.3671, 72.21151
318.8492, 68.38156
319.3313, 64.87369
319.8134, 61.79749
320.2955, 58.99498
320.7776, 56.37428
321.2598, 53.91287
321.7419, 51.59900
322.2240, 49.41737
322.7061, 47.37458
323.1882, 45.50837
323.6703, 43.91423
324.1525, 42.43023
324.6346, 40.98072
325.1167, 39.43283
325.5988, 38.07180
326.0809, 36.99172
326.5630, 36.12300
327.0452, 35.27088
327.5273, 34.27809
328.0094, 33.43873
328.4915, 32.89986
328.9736, 32.92716
329.4557, 32.67320
329.9379, 31.94424
330.4200, 30.99235
330.9021, 30.23352
331.3842, 29.78630
331.8663, 29.36659
332.3484, 28.89866
332.8306, 28.38348
333.3127, 27.86451
333.7948, 27.32187
334.2769, 26.79101
334.7590, 26.31724
335.2411, 25.90533
335.7233, 25.53040
336.2054, 25.18294
336.6875, 24.86352
337.1696, 24.64121
337.6517, 24.55931
338.1339, 24.49286
338.6160, 24.34117
339.0981, 24.09194
339.5802, 23.80530
340.0623, 23.45942
340.5444, 23.09583
341.0266, 22.89518
341.5087, 22.88310
341.9908, 22.89422
342.4729, 22.83331
342.9550, 22.70081
343.4371, 22.51799
343.9193, 22.27584
344.4014, 22.00632
344.8835, 21.77660
345.3656, 21.58638
345.8477, 21.38812
346.3298, 21.14016
346.8120, 20.85939
347.2941, 20.62416
347.7762, 20.43307
348.2583, 20.29467
348.7404, 20.26760
349.2225, 20.31795
349.7047, 20.29803
350.1868, 20.08616
350.6689, 19.79863
351.1510, 19.66298
351.6331, 19.67680
352.1152, 19.68993
352.5974, 19.52164
353.0795, 19.27072
353.5616, 19.12641
354.0437, 19.18146
354.5258, 19.31062
355.0079, 19.46985
355.4901, 19.62345
355.9722, 19.61715
356.4543, 19.17900
356.9364, 18.61683
357.4185, 18.25207
357.9006, 18.18805
358.3828, 18.20346
358.8649, 18.14837
359.3470, 18.07241
359.8291, 18.07508
360.3112, 18.35196
360.7933, 18.60627
361.2755, 18.63212
361.7576, 18.37845
362.2397, 18.13486
362.7218, 18.01725
363.2039, 17.96539
363.6860, 17.91205
364.1682, 17.79022
364.6503, 17.71214
365.1324, 17.75796
365.6145, 17.92003
366.0966, 17.99446
366.5787, 17.81293
367.0609, 17.61777
367.5430, 17.56427
368.0251, 17.92572
368.5072, 18.12076
368.9893, 17.99816
369.4714, 17.66379
369.9536, 17.46748
370.4357, 17.52331
370.9178, 17.59669
371.3999, 17.58466
371.8820, 17.41721
372.3641, 17.35169
372.8463, 17.44750
373.3284, 17.60655
373.8105, 17.67223
374.2926, 17.60380
374.7747, 17.53330
375.2568, 17.50098
375.7390, 17.50718
376.2211, 17.52529
376.7032, 17.61433
377.1853, 17.59130
377.6674, 17.13200
378.1495, 16.13914
378.6317, 15.61113
379.1138, 15.87234
379.5959, 16.63790
380.0780, 17.05163
380.5601, 17.09398
381.0422, 16.97131
381.5244, 16.72739
382.0065, 16.40530
382.4886, 16.28530
382.9707, 16.43478
383.4528, 16.67423
383.9349, 16.74400
384.4171, 16.67093
384.8992, 16.60256
385.3813, 16.62366
385.8634, 16.69180
386.3455, 16.72965
386.8276, 16.73327
387.3098, 16.74290
387.7919, 16.80157
388.2740, 16.88947
388.7561, 16.97109
389.2382, 17.03704
389.7203, 17.09020
390.2025, 17.15519
390.6846, 17.21809
391.1667, 17.21390
391.6488, 16.99164
392.1309, 16.74902
392.6130, 16.69180
393.0952, 17.00841
393.5773, 17.18267
394.0594, 16.79291
394.5415, 16.12821
395.0236, 15.72508
395.5057, 15.99823
395.9879, 16.34296
396.4700, 16.53193
396.9521, 16.53549
397.4342, 16.46683
397.9163, 16.20540
398.3984, 15.94558
398.8806, 15.86471
399.3627, 16.19174
399.8448, 16.44856
400.3269, 16.52864
400.8090, 16.46738
401.2911, 16.54724
401.7733, 16.97951
402.2554, 17.30458
402.7375, 17.23662
403.2196, 16.51326
403.7017, 16.06521
404.1838, 15.98660
404.6660, 16.12697
405.1481, 16.20887
405.6302, 16.21671
406.1123, 16.22721
406.5944, 16.28355
407.0765, 16.38043
407.5587, 16.39145
408.0408, 16.30396
408.5229, 16.17962
409.0050, 16.05255
409.4871, 15.92865
409.9692, 15.88300
410.4514, 15.93227
410.9335, 16.06720
411.4156, 16.33563
411.8977, 16.71791
412.3798, 17.01374
412.8619, 17.04773
413.3441, 16.90624
413.8262, 16.74649
414.3083, 16.58202
414.7904, 16.41648
415.2725, 16.23389
415.7546, 16.05237
416.2368, 15.90486
416.7189, 15.81686
417.2010, 15.76350
417.6831, 15.73304
418.1652, 15.72395
418.6473, 15.71614
419.1295, 15.74302
419.6116, 15.74408
420.0937, 15.65142
420.5758, 15.29132
421.0579, 15.06339
421.5400, 15.19946
422.0222, 15.56414
422.5043, 15.82704
422.9864, 15.85809
423.4685, 15.81993
423.9506, 15.76606
424.4327, 15.69474
424.9149, 15.62543
425.3970, 15.50033
425.8791, 15.40909
426.3612, 15.45467
426.8433, 15.80525
427.3254, 16.02010
427.8076, 15.99564
428.2897, 15.76724
428.7718, 15.58395
429.2539, 15.45080
429.7360, 15.35565
430.2181, 15.28102
430.7003, 15.21502
431.1824, 15.26239
431.6645, 15.45657
432.1466, 15.71500
432.6287, 15.90698
433.1108, 16.03071
433.5930, 16.10901
434.0751, 16.15264
434.5572, 16.15735
435.0393, 16.10457
435.5214, 15.99454
436.0035, 15.84460
436.4857, 15.57777
436.9678, 15.28615
437.4499, 15.21973
437.9320, 15.52226
438.4141, 15.88848
438.8962, 15.98715
439.3784, 15.87396
439.8605, 15.71241
440.3426, 15.50323
440.8247, 15.33863
441.3068, 15.30389
441.7889, 15.41247
442.2711, 15.57521
442.7532, 15.87094
443.2353, 16.14709
443.7174, 16.24523
444.1995, 15.92316
444.6816, 15.62530
445.1638, 15.48293
445.6459, 15.47162
446.1280, 15.46708
446.6101, 15.38250
447.0922, 15.35820
447.5743, 15.49145
448.0565, 15.93958
448.5386, 16.13411
449.0207, 15.88571
449.5028, 15.50169
449.9849, 15.40493
450.4670, 15.75853
450.9492, 16.02867
451.4313, 16.07806
451.9134, 15.93972
452.3955, 15.84899
452.8776, 15.81942
453.3597, 15.79686
453.8419, 15.74899
454.3240, 15.67642
454.8061, 15.57912
455.2882, 15.45455
455.7703, 15.31413
456.2524, 15.17778
456.7346, 15.04225
457.2167, 14.89795
457.6988, 14.65731
458.1809, 14.43881
458.6630, 14.47993
459.1451, 14.76828
459.6273, 15.11443
460.1094, 15.46831
460.5915, 15.75822
461.0736, 15.86725
461.5557, 15.69508
462.0378, 15.50736
462.5200, 15.48463
463.0021, 15.56893
463.4842, 15.64808
463.9663, 15.74351
464.4484, 15.76846
464.9305, 15.61531
465.4127, 15.26350
465.8948, 15.06687
466.3769, 15.29428
466.8590, 15.58626
467.3411, 15.68128
467.8232, 15.25482
468.3054, 15.04644
468.7875, 15.21173
469.2696, 15.58696
469.7517, 15.75372
470.2338, 15.58288
470.7159, 15.44116
471.1981, 15.47138
471.6802, 15.68164
472.1623, 15.86196
472.6444, 16.01840
473.1265, 16.12338
473.6086, 16.14760
474.0908, 16.09123
474.5729, 15.94980
475.0550, 15.68091
475.5371, 15.39144
476.0192, 15.28701
476.5013, 15.35421
476.9835, 15.48802
477.4656, 15.69416
477.9477, 15.90796
478.4298, 16.00978
478.9119, 15.99233
479.3940, 15.94810
479.8762, 15.94078
480.3583, 15.95334
480.8404, 15.96316
481.3225, 15.96085
481.8046, 15.95866
482.2867, 15.96352
482.7689, 15.97376
483.2510, 15.98486
483.7331, 15.98248
484.2152, 15.99231
484.6973, 16.04910
485.1794, 16.18390
485.6616, 16.21865
486.1437, 16.06275
486.6258, 15.84636
487.1079, 15.65610
487.5900, 15.41972
488.0721, 15.34582
488.5543, 15.51291
489.0364, 15.83410
489.5185, 16.05113
490.0006, 16.12665
490.4827, 16.21081
490.9648, 16.39059
491.4470, 16.65791
491.9291, 16.83763
492.4112, 16.92894
492.8933, 16.92988
493.3754, 16.79118
493.8575, 16.54708
494.3397, 16.35539
494.8218, 16.26916
495.3039, 16.21809
495.7860, 16.08375
496.2681, 15.89818
496.7502, 15.77094
497.2324, 15.77817
497.7145, 15.85873
498.1966, 15.96554
498.6787, 16.09646
499.1608, 16.23514
499.6429, 16.39576
500.1251, 16.54872
500.6072, 16.67598
501.0893, 16.83232
501.5714, 16.87716
502.0535, 16.72462
502.5356, 16.44135
503.0178, 16.17897
503.4999, 15.84855
503.9820, 15.64885
504.4641, 15.67798
504.9462, 15.94856
505.4283, 16.09707
505.9105, 16.04964
506.3926, 15.99361
506.8747, 16.11687
507.3568, 16.47418
507.8389, 16.61136
508.3210, 16.42834
508.8032, 16.10795
509.2853, 15.95627
509.7674, 15.96682
510.2495, 16.03580
510.7316, 16.14161
511.2137, 16.26853
511.6959, 16.40643
512.1780, 16.54922
512.6601, 16.63562
513.1422, 16.60134
513.6243, 16.49123
514.1064, 16.34367
514.5886, 16.14141
515.0707, 15.99086
515.5528, 16.04584
516.0349, 16.17256
516.5170, 16.17848
516.9991, 15.81290
517.4813, 15.50979
517.9634, 15.44564
518.4455, 15.59425
518.9276, 15.71794
519.4097, 15.79773
519.8918, 15.83878
520.3740, 15.83870
520.8561, 15.78798
521.3382, 15.71979
521.8203, 15.60147
522.3024, 15.50301
522.7845, 15.52086
523.2667, 15.67940
523.7488, 15.82328
524.2309, 15.93985
524.7130, 16.00526
525.1951, 15.91782
525.6772, 15.68103
526.1594, 15.47849
526.6415, 15.46509
527.1236, 15.54945
527.6057, 15.48498
528.0878, 15.26161
528.5699, 15.10056
529.0521, 15.29827
529.5342, 15.63167
530.0163, 15.80066
530.4984, 15.67445
530.9805, 15.46391
531.4626, 15.20909
531.9448, 14.95912
532.4269, 14.80972
532.9090, 14.81446
533.3911, 14.89659
533.8732, 15.07367
534.3553, 15.34856
534.8375, 15.52882
535.3196, 15.58887
535.8017, 15.57323
536.2838, 15.49212
536.7659, 15.29754
537.2480, 15.16043
537.7302, 15.06252
538.2123, 15.04858
538.6944, 15.26151
539.1765, 15.73175
539.6586, 16.00321
540.1407, 15.88363
540.6229, 15.54677
541.1050, 15.38382
541.5871, 15.38637
542.0692, 15.46886
542.5513, 15.71705
543.0334, 15.95972
543.5156, 15.84297
543.9977, 15.32721
544.4798, 14.90800
544.9619, 15.04528
545.4440, 15.42351
545.9261, 15.70166
546.4083, 15.77966
546.8904, 15.75878
547.3725, 15.58361
547.8546, 15.33740
548.3367, 15.19451
548.8188, 15.25093
549.3010, 15.34022
549.7831, 15.42825
550.2652, 15.51494
550.7473, 15.61015
551.2294, 15.74120
551.7115, 15.83467
552.1937, 15.84954
552.6758, 15.78506
553.1579, 15.62165
553.6400, 15.31819
554.1221, 15.02820
554.6042, 15.01673
555.0864, 15.23364
555.5685, 15.35579
556.0506, 15.23700
556.5327, 15.03914
557.0148, 14.99669
557.4969, 15.07676
557.9791, 15.15632
558.4612, 15.13648
558.9433, 15.10612
559.4254, 15.11278
559.9075, 15.15879
560.3896, 15.31298
560.8718, 15.91276
561.3539, 16.44019
561.8360, 16.48771
562.3181, 15.44525
562.8002, 14.76065
563.2823, 14.64133
563.7645, 14.85945
564.2466, 15.09676
564.7287, 15.39234
565.2108, 15.61389
565.6929, 15.72369
566.1750, 15.73676
566.6572, 15.72015
567.1393, 15.67344
567.6214, 15.59917
568.1035, 15.44587
568.5856, 15.25961
569.0677, 15.23634
569.5499, 15.38980
570.0320, 15.59131
570.5141, 15.71091
570.9962, 15.79910
571.4783, 15.96210
571.9604, 16.31663
572.4426, 16.56420
572.9247, 16.43688
573.4068, 16.08300
573.8889, 15.76514
574.3710, 15.46741
574.8531, 15.32420
575.3353, 15.47380
575.8174, 15.88655
576.2995, 16.13558
576.7816, 16.07195
577.2637, 16.00609
577.7458, 16.09801
578.2280, 16.40406
578.7101, 16.54821
579.1922, 16.48326
579.6743, 16.36014
580.1564, 16.36560
580.6385, 16.48808
581.1207, 16.49690
581.6028, 16.32087
582.0849, 16.08493
582.5670, 15.95022
583.0491, 15.91057
583.5313, 15.94093
584.0134, 16.13822
584.4955, 16.32303
584.9776, 16.26036
585.4597, 16.00383
585.9418, 15.85745
586.4240, 16.08295
586.9061, 16.36933
587.3882, 16.53775
587.8703, 16.54328
588.3524, 16.52469
588.8345, 16.50036
589.3167, 16.45638
589.7988, 16.37495
590.2809, 16.21889
590.7630, 16.10843
591.2451, 16.04870
591.7272, 16.04096
592.2094, 16.11326
592.6915, 16.27270
593.1736, 16.39203
593.6557, 16.43443
594.1378, 16.40449
594.6199, 16.27367
595.1021, 16.05781
595.5842, 15.87687
596.0663, 15.77722
596.5484, 15.77250
597.0305, 15.93509
597.5126, 16.27845
597.9948, 16.53796
598.4769, 16.49137
598.9590, 16.33507
599.4411, 16.23429
599.9232, 16.22710
600.4053, 16.26554
600.8875, 16.44272
601.3696, 16.62642
601.8517, 16.61235
602.3338, 16.25629
602.8159, 15.98506
603.2980, 15.87078
603.7802, 15.89767
604.2623, 16.05911
604.7444, 16.38016
605.2265, 16.60990
605.7086, 16.51437
606.1907, 16.22241
606.6729, 16.23155
607.1550, 16.53521
607.6371, 16.83383
608.1192, 16.86041
608.6013, 16.74754
609.0834, 16.66142
609.5656, 16.63124
610.0477, 16.61982
610.5298, 16.67670
611.0119, 16.71298
611.4940, 16.62874
611.9761, 16.16542
612.4583, 15.86355
612.9404, 15.91098
613.4225, 16.15495
613.9046, 16.25841
614.3867, 16.15521
614.8688, 16.04450
615.3510, 15.97001
615.8331, 15.93409
616.3152, 15.95979
616.7973, 16.05155
617.2794, 16.15603
617.7615, 16.25207
618.2437, 16.33070
618.7258, 16.35655
619.2079, 16.32549
619.6900, 16.29792
620.1721, 16.35978
620.6542, 16.44128
621.1364, 16.43775
621.6185, 16.25760
622.1006, 16.14474
622.5827, 16.33739
623.0648, 16.62166
623.5469, 16.69865
624.0291, 16.24245
624.5112, 15.91002
624.9933, 15.84954
625.4754, 15.97477
625.9575, 15.97365
626.4396, 15.77484
626.9218, 15.66329
627.4039, 15.79416
627.8860, 16.11232
628.3681, 16.28852
628.8502, 16.32100
629.3323, 16.26038
629.8145, 16.11750
630.2966, 15.91497
630.7787, 15.66014
631.2608, 15.34408
631.7429, 15.10683
632.2250, 15.07482
632.7072, 15.16688
633.1893, 15.30575
633.6714, 15.54563
634.1535, 15.70376
634.6356, 15.64801
635.1177, 15.50420
635.5999, 15.47937
636.0820, 15.70078
636.5641, 15.83668
637.0462, 15.80025
637.5283, 15.65066
638.0104, 15.58963
638.4926, 15.62883
638.9747, 15.68110
639.4568, 15.72746
639.9389, 15.75417
640.4210, 15.67256
640.9031, 15.49152
641.3853, 15.37427
641.8674, 15.52011
642.3495, 15.75611
642.8316, 15.86970
643.3137, 15.83037
643.7958, 15.75623
644.2780, 15.61860
644.7601, 15.52128
645.2422, 15.56629
645.7243, 15.99875
646.2064, 16.21164
646.6885, 16.05619
647.1707, 15.74301
647.6528, 15.55348
648.1349, 15.52109
648.6170, 15.48785
649.0991, 15.38895
649.5812, 15.30889
650.0634, 15.52467
650.5455, 16.01107
651.0276, 16.37429
651.5097, 16.35062
651.9918, 16.14752
652.4739, 16.10707
652.9561, 16.19436
653.4382, 16.22230
653.9203, 16.01460
654.4024, 15.76038
654.8845, 15.58184
655.3666, 15.49543
655.8488, 15.44142
656.3309, 15.37356
656.8130, 15.36167
657.2951, 15.45486
657.7772, 15.70639
658.2593, 15.93896
658.7415, 16.20322
659.2236, 16.36703
659.7057, 16.18360
660.1878, 15.66480
660.6699, 15.36812
661.1520, 15.44349
661.6342, 15.66141
662.1163, 15.72668
662.5984, 15.67517
663.0805, 15.59888
663.5626, 15.47762
664.0447, 15.40374
664.5269, 15.50875
665.0090, 15.72036
665.4911, 15.82984
665.9732, 15.66086
666.4553, 15.48920
666.9374, 15.40715
667.4196, 15.41142
667.9017, 15.46345
668.3838, 15.58111
668.8659, 15.71502
669.3480, 15.85722
669.8301, 16.00686
670.3123, 16.09622
670.7944, 16.12758
671.2765, 16.08061
671.7586, 15.77653
672.2407, 15.40401
672.7228, 15.49488
673.2050, 16.20810
673.6871, 16.81372
674.1692, 16.56635
674.6513, 15.99188
675.1334, 15.71862
675.6155, 16.19895
676.0977, 16.54267
676.5798, 16.42313
677.0619, 16.08949
677.5440, 15.90135
678.0261, 15.86949
678.5082, 15.98881
678.9904, 16.36081
679.4725, 16.81157
679.9546, 16.79985
680.4367, 16.32063
680.9188, 15.97101
681.4009, 16.06998
681.8831, 16.41648
682.3652, 16.72566
682.8473, 16.97770
683.3294, 17.05858
683.8115, 16.70551
684.2936, 16.30940
684.7758, 16.17815
685.2579, 16.33069
685.7400, 16.45715
686.2221, 16.44169
686.7042, 16.40950
687.1863, 16.43592
687.6685, 16.55244
688.1506, 16.57922
688.6327, 16.48328
689.1148, 16.36498
689.5969, 16.30124
690.0790, 16.29170
690.5612, 16.35656
691.0433, 16.51063
691.5254, 16.67163
692.0075, 16.74429
692.4896, 16.75306
692.9717, 16.72970
693.4539, 16.63419
693.9360, 16.60649
694.4181, 16.82098
694.9002, 17.13231
695.3823, 17.31550
695.8644, 17.09919
696.3466, 17.02886
696.8287, 17.26175
697.3108, 17.66881
697.7929, 17.89266
698.2750, 17.87928
698.7571, 17.88947
699.2393, 18.02077
699.7214, 18.22757
700.2035, 18.37717
700.6856, 18.47256
701.1677, 18.53162
701.6498, 18.50308
702.1320, 18.48157
702.6141, 18.60014
703.0962, 18.84608
703.5783, 19.07856
704.0604, 19.18461
704.5425, 19.29950
705.0247, 19.51743
705.5068, 19.87710
705.9889, 20.15810
706.4710, 20.32933
706.9531, 20.46045
707.4352, 20.54806
707.9174, 20.56709
708.3995, 20.86229
708.8816, 21.48471
709.3637, 22.16495
709.8458, 22.63109
710.3279, 22.93435
710.8101, 23.17650
711.2922, 23.33528
711.7743, 23.60903
712.2564, 24.30134
712.7385, 25.13570
713.2206, 25.77662
713.7028, 25.87768
714.1849, 26.13090
714.6670, 26.79392
715.1491, 27.62177
715.6312, 28.29346
716.1133, 28.74883
716.5955, 29.18312
717.0776, 29.57732
717.5597, 30.02384
718.0418, 30.80107
718.5239, 31.87116
719.0060, 32.78064
719.4882, 33.18149
719.9703, 33.51711
720.4524, 34.48319
720.9345, 35.86079
721.4166, 37.03329
721.8987, 37.41706
722.3809, 37.80029
722.8630, 38.67687
723.3451, 39.96299
723.8272, 40.85345
724.3093, 41.09738
724.7914, 41.26621
725.2736, 41.56923
725.7557, 41.98865
726.2378, 42.33604
726.7199, 42.63058
727.2020, 42.71965
727.6841, 42.45580
728.1663, 41.92866
728.6484, 41.25921
729.1305, 40.46412
729.6126, 39.78514
730.0947, 39.78225
730.5768, 39.69581
731.0590, 38.77314
731.5411, 36.70785
732.0232, 34.94653
732.5053, 33.93838
732.9874, 33.16200
733.4695, 32.30733
733.9517, 31.33620
734.4338, 30.41861
734.9159, 29.54261
735.3980, 28.73855
735.8801, 28.09002
736.3622, 27.55170
736.8444, 26.91296
737.3265, 26.12001
737.8086, 25.33261
738.2907, 24.68715
738.7728, 24.15096
739.2549, 23.69325
739.7371, 23.36442
740.2192, 23.01232
740.7013, 22.52361
741.1834, 22.02054
741.6655, 21.66040
742.1476, 21.50439
742.6298, 21.35144
743.1119, 21.17090
743.5940, 20.99174
744.0761, 20.92028
744.5582, 20.93364
745.0403, 20.77554
745.5225, 20.29976
746.0046, 19.73704
746.4867, 19.27572
746.9688, 18.94876
747.4509, 18.83359
747.9330, 19.36878
748.4152, 19.69263
748.8973, 19.27177
749.3794, 18.35454
749.8615, 17.78454
750.3436, 17.68773
750.8257, 17.74903
751.3079, 17.97018
751.7900, 18.26471
752.2721, 18.26861
752.7542, 17.98285
753.2363, 17.72041
753.7184, 17.71903
754.2006, 17.77884
754.6827, 17.51958
755.1648, 17.01811
755.6469, 16.60561
756.1290, 16.44000
756.6111, 16.41562
757.0933, 16.52146
757.5754, 16.74457
758.0575, 16.92231
758.5396, 16.97522
759.0217, 17.09328
759.5038, 17.43726
759.9860, 17.95444
760.4681, 17.97222
760.9502, 17.44754
761.4323, 16.92917
761.9144, 16.81036
762.3965, 16.93391
762.8787, 17.04728
763.3608, 17.13833
763.8429, 17.18875
764.3250, 17.11456
764.8071, 17.05102
765.2892, 17.14078
765.7714, 17.43791
766.2535, 17.51392
766.7356, 17.18024
767.2177, 16.84319
767.6998, 16.74633
768.1819, 16.90715
768.6641, 16.96075
769.1462, 16.88301
769.6283, 16.87874
770.1104, 17.27048
770.5925, 17.81519
771.0746, 18.02301
771.5568, 17.83968
772.0389, 17.54458
772.5210, 17.09417
773.0031, 16.74868
773.4852, 16.76842
773.9673, 17.38669
774.4495, 17.71327
774.9316, 17.57984
775.4137, 17.31791
775.8958, 17.17053
776.3779, 17.14798
776.8600, 17.07838
777.3422, 16.93913
777.8243, 16.85345
778.3064, 17.05465
778.7885, 17.37047
779.2706, 17.44603
779.7527, 17.19118
780.2349, 16.91085
780.7170, 16.69142
781.1991, 16.58538
781.6812, 16.65220
782.1633, 17.02308
782.6454, 17.34111
783.1276, 17.64140
783.6097, 17.84709
784.0918, 17.81715
784.5739, 17.54478
785.0560, 17.48248
785.5381, 17.71129
786.0203, 17.95236
786.5024, 17.86093
786.9845, 17.57714
787.4666, 17.31821
787.9487, 17.09589
788.4308, 17.01930
788.9130, 17.21919
789.3951, 17.54690
789.8772, 17.86150
790.3593, 18.25341
790.8414, 18.42134
791.3235, 18.26337
791.8057, 18.01717
792.2878, 17.98642
792.7699, 18.15496
793.2520, 18.27465
793.7341, 18.30484
794.2162, 18.30667
794.6984, 18.32586
795.1805, 18.36835
795.6626, 18.46666
796.1447, 18.72506
796.6268, 18.81780
797.1089, 18.42441
797.5911, 17.91233
798.0732, 17.70332
798.5553, 17.97262
799.0374, 18.13740
799.5195, 18.15425
800.0016, 18.08703
800.4838, 17.97537
800.9659, 17.83952
801.4480, 17.81084
801.9301, 17.93708
802.4122, 18.07399
802.8943, 18.04189
803.3765, 17.95040
803.8586, 17.95252
804.3407, 18.18217
804.8228, 18.33185
805.3049, 18.25130
805.7870, 18.11261
806.2692, 18.09119
806.7513, 18.22368
807.2334, 18.33508
807.7155, 18.41767
808.1976, 18.45214
808.6797, 18.36970
809.1619, 18.21754
809.6440, 18.13745
810.1261, 18.16896
810.6082, 18.23952
811.0903, 18.31931
811.5724, 18.39750
812.0546, 18.46386
812.5367, 18.54777
813.0188, 18.56052
813.5009, 18.44543
813.9830, 18.31350
814.4651, 18.30890
814.9473, 18.44418
815.4294, 18.48338
815.9115, 18.38767
816.3936, 18.26600
816.8757, 18.19925
817.3578, 18.20669
817.8400, 18.36039
818.3221, 18.75021
818.8042, 19.02286
819.2863, 18.92453
819.7684, 18.67740
820.2505, 18.48637
820.7327, 18.36166
821.2148, 18.29163
821.6969, 18.26973
822.1790, 18.31447
822.6611, 18.49714
823.1432, 18.78406
823.6254, 18.92599
824.1075, 18.88428
824.5896, 18.81313
825.0717, 18.85655
825.5538, 18.94781
826.0359, 19.03084
826.5181, 19.12886
827.0002, 19.09889
827.4823, 18.66257
827.9644, 18.28672
828.4465, 18.33986
828.9286, 18.98017
829.4108, 19.21910
829.8929, 18.97487
830.3750, 18.67816
830.8571, 18.80847
831.3392, 19.16437
831.8214, 19.28137
832.3035, 19.10356
832.7856, 18.94013
833.2677, 18.98548
833.7498, 19.12067
834.2319, 19.27706
834.7141, 19.47050
835.1962, 19.57306
835.6783, 19.57206
836.1604, 19.50049
836.6425, 19.32801
837.1246, 19.07108
837.6068, 19.02172
838.0889, 19.18267
838.5710, 19.34661
839.0531, 19.33265
839.5352, 19.25089
840.0173, 19.20487
840.4995, 19.20328
840.9816, 19.25236
841.4637, 19.39995
841.9458, 19.55644
842.4279, 19.69737
842.9100, 19.82158
843.3922, 19.85500
843.8743, 19.78308
844.3564, 19.69904
844.8385, 19.62345
845.3206, 19.58533
845.8027, 19.70854
846.2849, 19.95706
846.7670, 20.12601
847.2491, 20.06806
847.7312, 19.92795
848.2133, 19.72504
848.6954, 19.48685
849.1776, 19.41827
849.6597, 19.61746
850.1418, 19.79167
850.6239, 19.82250
851.1060, 19.76820
851.5881, 19.87962
852.0703, 20.12484
852.5524, 20.22924
853.0345, 19.86152
853.5166, 19.47290
853.9987, 19.52614
854.4808, 19.88390
854.9630, 20.19866
855.4451, 20.44617
855.9272, 20.52661
856.4093, 20.32785
856.8914, 20.00027
857.3735, 19.88873
857.8557, 20.00783
858.3378, 20.19433
858.8199, 20.46841
859.3020, 20.66169
859.7841, 20.34469
860.2662, 19.77983
860.7484, 19.52503
861.2305, 19.97677
861.7126, 20.46177
862.1947, 20.79156
862.6768, 20.98113
863.1589, 21.04931
863.6411, 20.94216
864.1232, 20.86860
864.6053, 20.85050
865.0874, 20.86275
865.5695, 20.87551
866.0516, 20.89126
866.5338, 20.92413
867.0159, 20.98358
867.4980, 21.02585
867.9801, 20.98892
868.4622, 20.93789
868.9443, 20.94342
869.4265, 21.06950
869.9086, 21.11920
870.3907, 21.07221
870.8728, 20.98012
871.3549, 20.84866
871.8370, 20.69043
872.3192, 20.73629
872.8013, 21.00253
873.2834, 21.12012
873.7655, 20.50457
874.2476, 19.77283
874.7297, 19.63547
875.2119, 20.17222
875.6940, 20.55106
876.1761, 20.37640
876.6582, 20.20942
877.1403, 20.34209
877.6224, 20.72684
878.1046, 20.61518
878.5867, 19.98224
879.0688, 19.41462
879.5509, 19.28503
880.0330, 19.42719
880.5151, 19.76798
880.9973, 20.21029
881.4794, 20.38724
881.9615, 19.68860
882.4436, 19.19312
882.9257, 19.53184
883.4078, 20.34999
883.8900, 20.60564
884.3721, 20.17547
884.8542, 19.83459
885.3363, 19.82028
885.8184, 19.98706
886.3005, 20.21596
886.7827, 20.41767
887.2648, 20.33815
887.7469, 19.57139
888.2290, 18.98286
888.7111, 19.06416
889.1932, 19.51259
889.6754, 19.89685
890.1575, 20.23395
890.6396, 20.40073
891.1217, 20.33390
891.6038, 20.21959
892.0859, 20.38811
892.5681, 20.69998
893.0502, 20.64304
893.5323, 20.07305
894.0144, 19.60849
894.4965, 19.85541
894.9786, 20.28146
895.4608, 20.40257
895.9429, 20.03197
896.4250, 19.87391
896.9071, 20.00150
897.3892, 20.19735
897.8713, 20.33018
898.3535, 20.40551
898.8356, 20.42780
899.3177, 20.40232
899.7998, 20.40440
900.2819, 20.60419
900.7640, 20.75293
901.2462, 20.56480
901.7283, 20.08489
902.2104, 19.84488
902.6925, 20.01986
903.1746, 20.23614
903.6567, 20.40866
904.1389, 20.53337
904.6210, 20.57495
905.1031, 20.54514
905.5852, 20.55057
906.0673, 20.64149
906.5494, 20.77608
907.0316, 20.99247
907.5137, 21.20853
907.9958, 21.28149
908.4779, 21.03178
908.9600, 20.82083
909.4421, 20.65181
909.9243, 20.56522
910.4064, 20.69541
910.8885, 21.01825
911.3706, 21.05922
911.8527, 20.70738
912.3348, 20.33424
912.8170, 20.27877
913.2991, 20.41121
913.7812, 20.60778
914.2633, 20.87392
914.7454, 21.09392
915.2275, 21.31044
915.7097, 21.40714
916.1918, 21.26353
916.6739, 20.88556
917.1560, 20.67177
917.6381, 20.62454
918.1202, 20.64666
918.6024, 20.70920
919.0845, 20.77947
919.5666, 20.78300
920.0487, 20.74618
920.5308, 20.82047
921.0129, 21.14479
921.4951, 21.48116
921.9772, 21.81009
922.4593, 22.09330
922.9414, 22.19566
923.4235, 22.11886
923.9056, 22.00869
924.3878, 21.93299
924.8699, 21.80142
925.3520, 21.29915
925.8341, 20.73204
926.3162, 20.58693
926.7983, 21.38780
927.2805, 22.04040
927.7626, 22.42749
928.2447, 22.62539
928.7268, 22.67434
929.2089, 22.57391
929.6910, 22.47323
930.1732, 22.38175
930.6553, 22.31256
931.1374, 22.22172
931.6195, 22.19378
932.1016, 22.37090
932.5837, 22.77602
933.0659, 23.10266
933.5480, 23.27734
934.0301, 23.35669
934.5122, 23.33601
934.9943, 23.23149
935.4764, 23.14007
935.9586, 23.06183
936.4407, 23.04487
936.9228, 23.14935
937.4049, 23.29113
937.8870, 23.39667
938.3691, 23.47119
938.8513, 23.52416
939.3334, 23.50729
939.8155, 23.54222
940.2976, 23.65796
940.7797, 23.81786
941.2618, 23.96609
941.7440, 24.10398
942.2261, 24.24310
942.7082, 24.38626
943.1903, 24.53583
943.6724, 24.69466
944.1545, 24.85859
944.6367, 25.02388
945.1188, 25.18727
945.6009, 25.36712
946.0830, 25.64857
946.5651, 25.81276
947.0472, 25.62709
947.5294, 25.16990
948.0115, 25.20206
948.4936, 25.68061
948.9757, 26.11778
949.4578, 26.13133
949.9399, 26.04983
950.4221, 26.14446
950.9042, 26.36600
951.3863, 26.49025
951.8684, 26.41247
952.3505, 26.38906
952.8326, 26.43903
953.3148, 26.60377
953.7969, 27.08490
954.2790, 27.77616
954.7611, 28.20872
955.2432, 28.23628
955.7253, 28.08419
956.2075, 27.76666
956.6896, 27.43365
957.1717, 27.23184
957.6538, 27.18383
958.1359, 27.21997
958.6180, 27.31607
959.1002, 27.55901
959.5823, 28.15497
960.0644, 28.93010
960.5465, 29.29251
961.0286, 29.27947
961.5107, 29.25236
961.9929, 29.42469
962.4750, 29.63009
962.9571, 29.78294
963.4392, 29.89642
963.9213, 30.05111
964.4034, 30.28545
964.8856, 30.38331
965.3677, 30.24448
965.8498, 30.04518
966.3319, 30.03668
966.8140, 30.18577
967.2961, 30.44352
967.7783, 30.85875
968.2604, 31.21651
968.7425, 31.37893
969.2246, 31.49685
969.7067, 31.69898
970.1888, 32.00031
970.6710, 32.28867
971.1531, 32.57668
971.6352, 32.70773
972.1173, 32.34647
972.5994, 31.88595
973.0815, 31.90261
973.5637, 32.33370
974.0458, 32.70758
974.5279, 32.78027
975.0100, 32.88568
975.4921, 33.14593
975.9742, 33.47025
976.4564, 33.62291
976.9385, 33.61372
977.4206, 33.59646
977.9027, 33.61231
978.3848, 33.63141
978.8669, 33.62482
979.3491, 33.60603
979.8312, 33.57393
980.3133, 33.45429
980.7954, 33.55355
981.2775, 34.01436
981.7596, 34.45970
982.2418, 34.60699
982.7239, 34.50613
983.2060, 34.36407
983.6881, 34.19897
984.1702, 34.15706
984.6523, 34.44791
985.1345, 34.77212
985.6166, 34.99534
986.0987, 35.10059
986.5808, 35.07180
987.0629, 34.86744
987.5450, 34.65525
988.0272, 34.45594
988.5093, 34.29016
988.9914, 34.19061
989.4735, 34.14956
989.9556, 34.15737
990.4377, 34.21919
990.9199, 34.29981
991.4020, 34.43826
991.8841, 34.54333
992.3662, 34.54840
992.8483, 34.45054
993.3304, 34.33203
993.8126, 34.18530
994.2947, 34.14826
994.7768, 34.42474
995.2589, 34.77305
995.7410, 34.89328
996.2231, 34.84404
996.7053, 34.80403
997.1874, 34.86204
997.6695, 34.88110
998.1516, 34.84684
998.6337, 34.76122
999.1158, 34.57904
999.5980, 34.32744
1000.080, 34.21597
1000.562, 34.28134
1001.044, 34.41598
1001.526, 34.56620
1002.009, 34.73058
1002.491, 34.92860
1002.973, 35.17317
1003.455, 35.29663
1003.937, 35.26434
1004.419, 35.21873
1004.901, 35.20740
1005.383, 35.24023
1005.865, 35.41056
1006.348, 35.64561
1006.830, 35.74180
1007.312, 35.45481
1007.794, 35.20649
1008.276, 35.11043
1008.758, 35.12693
1009.240, 35.25280
1009.722, 35.50787
1010.205, 35.63860
1010.687, 35.61915
1011.169, 35.58291
1011.651, 35.65845
1012.133, 35.77416
1012.615, 35.83825
1013.097, 35.85053
1013.579, 35.93561
1014.061, 36.16309
1014.544, 36.38645
1015.026, 36.58680
1015.508, 36.73329
1015.990, 36.64856
1016.472, 36.42549
1016.954, 36.48857
1017.436, 37.12246
1017.918, 37.67641
1018.401, 37.59046
1018.883, 37.32132
1019.365, 37.35649
1019.847, 37.80952
1020.329, 38.04443
1020.811, 38.03078
1021.293, 37.96707
1021.775, 37.98383
1022.257, 38.04747
1022.740, 38.08751
1023.222, 38.12352
1023.704, 38.23253
1024.186, 38.50627
1024.668, 38.77776
1025.150, 39.03034
1025.632, 39.24432
1026.114, 39.34481
1026.596, 39.35266
1027.079, 39.48902
1027.561, 39.79908
1028.043, 40.15186
1028.525, 40.54690
1029.007, 40.86215
1029.489, 40.92621
1029.971, 40.70818
1030.453, 40.70712
1030.936, 40.99314
1031.418, 41.26678
1031.900, 41.40694
1032.382, 41.45327
1032.864, 41.43049
1033.346, 41.37995
1033.828, 41.40113
1034.310, 41.56075
1034.792, 41.74931
1035.275, 42.00774
1035.757, 42.22475
1036.239, 42.24302
1036.721, 42.06257
1037.203, 42.19616
1037.685, 42.65541
1038.167, 43.06617
1038.649, 42.97423
1039.132, 42.87375
1039.614, 43.33205
1040.096, 44.18549
1040.578, 44.51400
1041.060, 44.02533
1041.542, 43.69066
1042.024, 43.70375
1042.506, 43.91831
1042.989, 44.20619
1043.471, 44.50698
1043.953, 44.68989
1044.435, 44.71967
1044.917, 44.70240
1045.399, 44.62088
1045.881, 44.56124
1046.363, 44.56029
1046.845, 44.61827
1047.328, 44.74530
1047.810, 44.94097
1048.292, 45.16222
1048.774, 45.40622
1049.256, 45.64823
1049.738, 45.86867
1050.220, 46.07671
1050.702, 46.29455
1051.184, 46.58385
1051.667, 46.71519
1052.149, 46.63060
1052.631, 46.56269
1053.113, 46.73190
1053.595, 47.05598
1054.077, 47.45206
1054.559, 47.88000
1055.041, 48.13031
1055.523, 47.85960
1056.006, 47.72500
1056.488, 47.96658
1056.970, 48.39402
1057.452, 48.55487
1057.934, 48.50059
1058.416, 48.75705
1058.898, 49.47404
1059.380, 50.19456
1059.863, 50.49051
1060.345, 50.66108
1060.827, 50.91065
1061.309, 51.25072
1061.791, 51.82459
1062.273, 52.68754
1062.755, 53.51872
1063.237, 54.14180
1063.719, 54.69045
1064.202, 55.39019
1064.684, 56.17321
1065.166, 56.90941
1065.648, 57.47437
1066.130, 58.12526
1066.612, 58.86043
1067.094, 59.72060
1067.576, 60.71380
1068.059, 61.86190
1068.541, 63.28188
1069.023, 64.95593
1069.505, 66.69999
1069.987, 68.30749
1070.469, 70.04841
1070.951, 72.16252
1071.433, 74.44128
1071.916, 76.38342
1072.398, 77.88187
1072.880, 79.86351
1073.362, 82.44560
1073.844, 85.44826
1074.326, 88.76198
1074.808, 92.31459
1075.290, 96.02989
1075.772, 99.88839
1076.255, 103.9680
1076.737, 108.1634
1077.219, 112.7099
1077.701, 117.6417
1078.183, 122.9680
1078.665, 128.8081
1079.147, 135.0420
1079.629, 141.3598
1080.111, 147.6994
1080.594, 154.2463
1081.076, 160.9007
1081.558, 168.0013
1082.040, 175.6513
1082.522, 183.8457
1083.004, 192.2311
1083.486, 200.8770
1083.968, 209.8086
1084.450, 219.4426
1084.933, 228.9475
1085.415, 237.7641
1085.897, 246.0531
1086.379, 254.4877
1086.861, 263.3584
1087.343, 271.2513
1087.825, 278.2013
1088.307, 283.5480
1088.790, 286.7168
1089.272, 287.9490
1089.754, 287.6122
1090.236, 285.6742
1090.718, 281.7862
1091.200, 275.8763
1091.682, 268.0390
1092.164, 258.0062
1092.646, 246.5498
1093.129, 234.5166
1093.611, 222.0899
1094.093, 209.2870
1094.575, 196.0685
1095.057, 183.2223
1095.539, 170.9481
1096.021, 159.5400
1096.503, 149.1511
1096.986, 139.7260
1097.468, 130.6545
1097.950, 121.9543
1098.432, 114.1111
1098.914, 107.2630
1099.396, 101.1686
1099.878, 95.88928
1100.360, 91.12634
1100.843, 86.56632
1101.325, 82.12922
1101.807, 78.07307
1102.289, 74.37878
1102.771, 71.05408
1103.253, 68.19949
1103.735, 65.65993
1104.217, 63.35097
1104.699, 61.24791
1105.182, 59.27968
1105.664, 57.52367
1106.146, 55.75486
1106.628, 53.92076
1107.110, 52.18929
1107.592, 50.70659
1108.074, 49.42070
1108.556, 48.17300
1109.038, 46.96523
1109.521, 45.81824
1110.003, 44.75526
1110.485, 43.71161
1110.967, 42.59736
1111.449, 41.56705
1111.931, 40.94855
1112.413, 40.62994
1112.895, 40.10063
1113.377, 39.29422
1113.860, 38.39060
1114.342, 37.41407
1114.824, 36.44879
1115.306, 35.48231
1115.788, 34.58664
1116.270, 34.10946
1116.752, 34.03750
1117.234, 33.84599
1117.717, 33.40585
1118.199, 32.79786
1118.681, 31.86103
1119.163, 30.95185
1119.645, 30.51739
1120.127, 30.59913
1120.609, 30.23340
1121.091, 29.32069
1121.573, 28.60586
1122.056, 28.51711
1122.538, 28.59905
1123.020, 28.24548
1123.502, 27.66292
1123.984, 27.16163
1124.466, 26.78643
1124.948, 26.58218
1125.430, 26.59557
1125.913, 26.65835
1126.395, 26.70100
1126.877, 26.69365
1127.359, 26.53816
1127.841, 26.27617
1128.323, 26.02389
1128.805, 25.74328
1129.287, 25.61397
1129.770, 25.76280
1130.252, 25.90049
1130.734, 25.67078
1131.216, 25.18737
1131.698, 24.91776
1132.180, 24.85647
1132.662, 24.82056
1133.144, 24.73060
1133.626, 24.62453
1134.109, 24.48765
1134.591, 24.36238
1135.073, 24.33488
1135.555, 24.39416
1136.037, 24.40719
1136.519, 24.35880
1137.001, 24.27248
1137.483, 24.18040
1137.965, 24.04286
1138.448, 23.75909
1138.930, 23.41419
1139.412, 23.30249
1139.894, 23.43718
1140.376, 23.52727
1140.858, 23.50852
1141.340, 23.45382
1141.822, 23.39744
1142.304, 23.36172
1142.787, 23.38732
1143.269, 23.47322
1143.751, 23.49120
1144.233, 23.43694
1144.715, 23.33640
1145.197, 23.20337
1145.679, 23.01934
1146.161, 22.60919
1146.644, 22.21106
1147.126, 22.17964
1147.608, 22.71842
1148.090, 23.05985
1148.572, 23.13575
1149.054, 23.19723
1149.536, 23.42868
1150.018, 23.64854
1150.500, 23.43395
1150.983, 22.98957
1151.465, 22.73248
1151.947, 22.93216
1152.429, 22.99234
1152.911, 22.82849
1153.393, 22.61625
1153.875, 22.44153
1154.357, 22.32265
1154.840, 22.36120
1155.322, 22.50341
1155.804, 22.57631
1156.286, 22.44984
1156.768, 22.33546
1157.250, 22.26938
1157.732, 22.21771
1158.214, 22.10905
1158.697, 21.98629
1159.179, 22.09558
1159.661, 22.39526
1160.143, 22.61142
1160.625, 22.56164
1161.107, 22.45889
1161.589, 22.32518
1162.071, 22.21531
1162.553, 22.19073
1163.036, 22.25189
1163.518, 22.47066
1164.000, 22.83417
1164.482, 23.03372
1164.964, 22.74094
1165.446, 22.39147
1165.928, 22.16014
1166.410, 22.02856
1166.892, 21.98421
1167.375, 22.02235
1167.857, 22.08392
1168.339, 22.16267
1168.821, 22.23245
1169.303, 22.28908
1169.785, 22.31599
1170.267, 22.27697
1170.749, 22.20398
1171.231, 22.19551
1171.714, 22.25058
1172.196, 22.25796
1172.678, 22.17877
1173.160, 22.15312
1173.642, 22.43744
1174.124, 22.71177
1174.606, 22.62145
1175.088, 22.25439
1175.571, 22.17259
1176.053, 22.39093
1176.535, 22.60559
1177.017, 22.75626
1177.499, 22.79266
1177.981, 22.58011
1178.463, 22.29163
1178.945, 22.08485
1179.427, 21.96921
1179.910, 21.90488
1180.392, 21.89135
1180.874, 21.94363
1181.356, 22.11408
1181.838, 22.24336
1182.320, 22.08603
1182.802, 21.83504
1183.284, 21.72029
1183.767, 21.77644
1184.249, 21.87763
1184.731, 22.04296
1185.213, 22.12028
1185.695, 21.97523
1186.177, 21.80443
1186.659, 21.90197
1187.141, 22.09365
1187.624, 22.10821
1188.106, 21.84066
1188.588, 21.68257
1189.070, 21.64515
1189.552, 21.66217
1190.034, 21.72023
1190.516, 21.78648
1190.998, 21.86209
1191.480, 21.90298
1191.963, 21.80363
1192.445, 21.34544
1192.927, 21.33676
1193.409, 21.86882
1193.891, 22.43373
1194.373, 22.75446
1194.855, 22.85578
1195.337, 22.65926
1195.819, 22.28710
1196.302, 22.01175
1196.784, 21.89608
1197.266, 21.81250
1197.748, 21.74149
1198.230, 21.77690
1198.712, 22.09761
1199.194, 22.49570
1199.676, 22.71551
1200.158, 22.77497
1200.641, 22.71749
1201.123, 22.47827
1201.605, 22.28242
1202.087, 22.11593
1202.569, 22.09939
1203.051, 22.55066
1203.533, 23.07286
1204.015, 23.00852
1204.498, 22.54120
1204.980, 22.40386
1205.462, 22.98808
1205.944, 23.16235
1206.426, 22.75957
1206.908, 22.22293
1207.390, 21.88440
1207.872, 21.74396
1208.354, 21.87522
1208.837, 22.21958
1209.319, 22.51861
1209.801, 22.77155
1210.283, 22.89617
1210.765, 22.86160
1211.247, 22.78321
1211.729, 22.77231
1212.211, 22.79541
1212.694, 22.80439
1213.176, 22.80493
1213.658, 22.86167
1214.140, 23.05181
1214.622, 23.05021
1215.104, 22.76217
1215.586, 22.48092
1216.068, 22.59196
1216.551, 22.84415
1217.033, 22.95005
1217.515, 22.90109
1217.997, 22.78940
1218.479, 22.57127
1218.961, 22.48916
1219.443, 22.60426
1219.925, 22.77568
1220.407, 22.86220
1220.890, 22.90521
1221.372, 22.96295
1221.854, 23.02812
1222.336, 23.01415
1222.818, 22.89988
1223.300, 22.76007
1223.782, 22.58130
1224.264, 22.50736
1224.746, 22.86878
1225.229, 23.29368
1225.711, 23.34598
1226.193, 23.02996
1226.675, 22.85357
1227.157, 22.83930
1227.639, 22.84960
1228.121, 22.83975
1228.603, 22.92402
1229.085, 23.44123
1229.568, 23.94375
1230.050, 23.90091
1230.532, 23.35626
1231.014, 23.03067
1231.496, 22.92471
1231.978, 23.06515
1232.460, 23.51772
1232.942, 23.91669
1233.425, 23.90867
1233.907, 23.69444
1234.389, 23.35870
1234.871, 22.96001
1235.353, 22.81388
1235.835, 22.93420
1236.317, 22.98447
1236.799, 22.85397
1237.281, 22.80776
1237.764, 23.29125
1238.246, 23.76149
1238.728, 23.67853
1239.210, 23.19702
1239.692, 22.91738
1240.174, 22.84237
1240.656, 22.99853
1241.138, 23.44275
1241.621, 23.80713
1242.103, 23.69036
1242.585, 23.51843
1243.067, 23.60525
1243.549, 23.86217
1244.031, 23.91937
1244.513, 23.81348
1244.995, 23.86681
1245.478, 24.19110
1245.960, 24.44793
1246.442, 24.45784
1246.924, 24.29393
1247.406, 23.94712
1247.888, 23.51612
1248.370, 23.32304
1248.852, 23.33114
1249.334, 23.40712
1249.817, 23.53908
1250.299, 23.61100
1250.781, 23.39561
1251.263, 23.33091
1251.745, 23.66278
1252.227, 24.18579
1252.709, 24.42391
1253.191, 24.42921
1253.673, 24.33938
1254.156, 24.17271
1254.638, 23.98411
1255.120, 23.71868
1255.602, 23.55158
1256.084, 23.58476
1256.566, 23.69019
1257.048, 23.56240
1257.530, 23.32635
1258.012, 23.24885
1258.495, 23.38825
1258.977, 23.55012
1259.459, 23.74447
1259.941, 23.85841
1260.423, 23.84334
1260.905, 23.75668
1261.387, 23.58028
1261.869, 23.44746
1262.352, 23.63372
1262.834, 24.20550
1263.316, 24.46919
1263.798, 24.30964
1264.280, 24.15993
1264.762, 24.16381
1265.244, 24.17453
1265.726, 23.93146
1266.208, 23.65016
1266.691, 23.61795
1267.173, 23.85108
1267.655, 23.89450
1268.137, 23.71053
1268.619, 23.67541
1269.101, 23.92662
1269.583, 24.17834
1270.065, 24.18002
1270.548, 24.04544
1271.030, 23.79000
1271.512, 23.48160
1271.994, 23.43119
1272.476, 23.63351
1272.958, 23.82942
1273.440, 23.96832
1273.922, 24.04287
1274.405, 24.01147
1274.887, 23.94497
1275.369, 23.83092
1275.851, 23.74331
1276.333, 24.01833
1276.815, 24.53714
1277.297, 24.59598
1277.779, 24.02548
1278.261, 23.61803
1278.744, 24.02863
1279.226, 24.38245
1279.708, 24.35095
1280.190, 24.09562
1280.672, 23.83902
1281.154, 23.62937
1281.636, 23.63403
1282.118, 23.87503
1282.600, 24.04369
1283.083, 24.05423
1283.565, 23.95166
1284.047, 23.68984
1284.529, 23.44956
1285.011, 23.57047
1285.493, 23.84034
1285.975, 23.87729
1286.457, 23.67658
1286.939, 23.73854
1287.422, 24.23633
1287.904, 24.48685
1288.386, 24.31888
1288.868, 24.06959
1289.350, 24.10657
1289.832, 24.24384
1290.314, 24.32813
1290.796, 24.33807
1291.279, 24.24277
1291.761, 24.02268
1292.243, 23.89351
1292.725, 23.88534
1293.207, 23.96198
1293.689, 24.18698
1294.171, 24.39354
1294.653, 24.46216
1295.135, 24.43538
1295.618, 24.34774
1296.100, 24.21119
1296.582, 24.14726
1297.064, 24.16743
1297.546, 24.21801
1298.028, 24.24452
1298.510, 24.32851
1298.992, 24.54732
1299.475, 24.75696
1299.957, 24.60738
1300.439, 24.32970
1300.921, 24.44349
1301.403, 25.04484
1301.885, 26.42490
##END=



