##NAMES=Spinel
##RRUFFID=R100133
##IDEAL CHEMISTRY=MgAl_2_O_4_
##LOCALITY=Sri Lanka
##OWNER=RRUFF
##SOURCE=William W. Pinch
##DESCRIPTION=Blue and red cut gemstones. The bottom red stone is the one that was studied.
##STATUS=The identification of this mineral has been confirmed only by single crystal X-ray diffraction.
##URL=rruff.info/R100133
178.2374, 890.2653
178.7195, 889.8195
179.2017, 886.8416
179.6838, 882.8562
180.1659, 880.3951
180.6480, 879.5462
181.1301, 879.0344
181.6122, 877.5067
182.0944, 875.2546
182.5765, 873.2292
183.0586, 872.5380
183.5407, 872.2703
184.0228, 869.9316
184.5049, 865.1877
184.9871, 860.2484
185.4692, 858.1312
185.9513, 858.3476
186.4334, 858.4813
186.9155, 856.9269
187.3976, 854.3154
187.8798, 852.8185
188.3619, 852.5953
188.8440, 853.0610
189.3261, 853.9222
189.8082, 855.0933
190.2903, 855.3212
190.7725, 853.2103
191.2546, 849.2855
191.7367, 846.9100
192.2188, 846.4440
192.7009, 846.9401
193.1830, 846.7197
193.6652, 845.7722
194.1473, 845.3415
194.6294, 846.7845
195.1115, 849.8453
195.5936, 850.8490
196.0757, 848.9600
196.5579, 846.0250
197.0400, 846.1953
197.5221, 849.8252
198.0042, 852.7519
198.4863, 852.1105
198.9684, 847.8582
199.4506, 844.5793
199.9327, 842.7111
200.4148, 841.8427
200.8969, 841.3759
201.3790, 841.4597
201.8611, 841.1685
202.3433, 839.7425
202.8254, 837.0540
203.3075, 834.7729
203.7896, 832.9884
204.2717, 831.7178
204.7538, 831.1771
205.2360, 831.5187
205.7181, 831.9622
206.2002, 832.0175
206.6823, 831.6059
207.1644, 831.1653
207.6465, 830.5510
208.1287, 830.0034
208.6108, 830.5129
209.0929, 832.5736
209.5750, 834.3109
210.0571, 834.4685
210.5392, 832.7639
211.0214, 830.7780
211.5035, 828.3479
211.9856, 825.8414
212.4677, 824.5425
212.9498, 824.7764
213.4319, 825.5303
213.9140, 826.2719
214.3962, 827.0506
214.8783, 827.8355
215.3604, 829.1149
215.8425, 830.3448
216.3246, 828.8038
216.8067, 822.9387
217.2889, 817.2566
217.7710, 814.7656
218.2531, 816.7659
218.7352, 817.9988
219.2173, 817.7109
219.6994, 816.2943
220.1816, 815.7009
220.6637, 816.2512
221.1458, 817.0032
221.6279, 817.5132
222.1100, 818.1140
222.5921, 817.5168
223.0743, 815.1878
223.5564, 811.5736
224.0385, 808.5732
224.5206, 806.2228
225.0027, 804.5496
225.4848, 803.6944
225.9670, 804.0612
226.4491, 804.3213
226.9312, 804.2941
227.4133, 804.0894
227.8954, 804.3361
228.3775, 805.6175
228.8597, 806.5091
229.3418, 805.9306
229.8239, 802.8251
230.3060, 800.7447
230.7881, 800.3909
231.2702, 801.2984
231.7524, 801.1995
232.2345, 799.3044
232.7166, 797.4816
233.1987, 797.0531
233.6808, 799.3200
234.1629, 799.9656
234.6451, 797.9568
235.1272, 794.0529
235.6093, 791.6644
236.0914, 791.6429
236.5735, 791.9678
237.0556, 791.4825
237.5378, 789.6843
238.0199, 788.1971
238.5020, 787.1100
238.9841, 786.4122
239.4662, 786.1523
239.9483, 786.7957
240.4305, 787.2895
240.9126, 787.0047
241.3947, 785.3950
241.8768, 784.2925
242.3589, 784.0995
242.8410, 784.4627
243.3232, 784.0004
243.8053, 781.9838
244.2874, 780.1362
244.7695, 779.4976
245.2516, 781.0925
245.7337, 781.4871
246.2159, 780.0475
246.6980, 777.3761
247.1801, 775.3828
247.6622, 773.9105
248.1443, 773.2880
248.6264, 773.8997
249.1086, 776.7452
249.5907, 778.3695
250.0728, 778.2589
250.5549, 777.0344
251.0370, 776.3986
251.5191, 776.8406
252.0013, 777.1256
252.4834, 776.6727
252.9655, 775.1915
253.4476, 773.7509
253.9297, 772.1975
254.4118, 770.7681
254.8940, 770.0026
255.3761, 770.1641
255.8582, 770.5201
256.3403, 770.8481
256.8224, 771.2871
257.3046, 771.1523
257.7867, 770.1992
258.2688, 768.8056
258.7509, 767.7252
259.2330, 767.0934
259.7151, 766.4925
260.1973, 765.8193
260.6794, 765.1613
261.1615, 763.9642
261.6436, 761.7682
262.1257, 759.4526
262.6078, 758.7249
263.0900, 760.3589
263.5721, 761.7881
264.0542, 762.0323
264.5363, 760.8809
265.0184, 760.0911
265.5005, 759.7765
265.9827, 759.7045
266.4648, 759.4853
266.9469, 758.9907
267.4290, 758.7421
267.9111, 758.9371
268.3932, 759.5952
268.8754, 760.3401
269.3575, 761.3217
269.8396, 762.1277
270.3217, 762.0380
270.8038, 760.7146
271.2859, 759.7549
271.7681, 759.7256
272.2502, 760.5753
272.7323, 760.9923
273.2144, 760.7903
273.6965, 760.5071
274.1786, 760.9683
274.6608, 762.4777
275.1429, 763.0402
275.6250, 761.7691
276.1071, 759.0302
276.5892, 757.6823
277.0714, 758.0656
277.5535, 758.9357
278.0356, 759.1916
278.5177, 758.7921
278.9998, 758.0893
279.4819, 756.8798
279.9641, 755.4642
280.4462, 755.5125
280.9283, 757.3626
281.4104, 759.2132
281.8925, 759.4571
282.3746, 758.0757
282.8568, 756.7595
283.3389, 755.7118
283.8210, 754.9895
284.3031, 755.0519
284.7852, 756.0612
285.2673, 756.6458
285.7495, 755.2204
286.2316, 752.0378
286.7137, 750.4476
287.1958, 751.2276
287.6779, 753.2881
288.1600, 754.4934
288.6422, 754.8333
289.1243, 754.8660
289.6064, 754.6192
290.0885, 754.2353
290.5706, 754.5967
291.0527, 755.8762
291.5349, 757.6393
292.0170, 759.4411
292.4991, 761.2173
292.9812, 762.5515
293.4633, 762.8519
293.9454, 762.4833
294.4276, 762.6037
294.9097, 763.2995
295.3918, 764.3781
295.8739, 765.7712
296.3560, 767.4001
296.8381, 768.9456
297.3203, 769.9861
297.8024, 770.8749
298.2845, 772.6341
298.7666, 775.4013
299.2487, 777.9222
299.7308, 778.7830
300.2130, 778.3744
300.6951, 777.7932
301.1772, 776.9745
301.6593, 776.4778
302.1414, 777.3764
302.6235, 779.6324
303.1057, 782.0906
303.5878, 783.8319
304.0699, 785.0820
304.5520, 786.2210
305.0341, 787.3873
305.5162, 788.4872
305.9984, 789.1976
306.4805, 789.6201
306.9626, 790.4926
307.4447, 792.3506
307.9268, 794.9460
308.4089, 798.0273
308.8911, 801.9212
309.3732, 805.6825
309.8553, 808.4436
310.3374, 810.3984
310.8195, 812.2539
311.3016, 815.3431
311.7838, 817.9975
312.2659, 818.5960
312.7480, 816.3047
313.2301, 813.1318
313.7122, 810.5677
314.1943, 807.9764
314.6765, 804.0706
315.1586, 796.6367
315.6407, 788.8771
316.1228, 782.6817
316.6049, 778.4594
317.0870, 775.2654
317.5692, 773.5959
318.0513, 772.5297
318.5334, 770.7880
319.0155, 767.3000
319.4976, 763.6169
319.9797, 760.2277
320.4619, 757.1314
320.9440, 754.7942
321.4261, 753.7365
321.9082, 753.3472
322.3903, 753.0548
322.8724, 753.1321
323.3546, 752.8786
323.8367, 752.0457
324.3188, 750.6427
324.8009, 749.0806
325.2830, 747.0731
325.7651, 745.1690
326.2473, 743.7338
326.7294, 743.3199
327.2115, 742.8094
327.6936, 742.0825
328.1757, 741.1951
328.6578, 740.3359
329.1400, 738.4860
329.6221, 737.5437
330.1042, 738.4659
330.5863, 743.6105
331.0684, 746.7219
331.5505, 747.0392
332.0327, 745.4400
332.5148, 743.7782
332.9969, 741.6569
333.4790, 739.9501
333.9611, 738.9412
334.4432, 738.7277
334.9254, 738.7330
335.4075, 738.9991
335.8896, 739.4075
336.3717, 739.8422
336.8538, 740.3846
337.3359, 740.7137
337.8180, 740.6969
338.3001, 740.3444
338.7823, 740.0654
339.2644, 739.9604
339.7465, 739.7755
340.2286, 739.2043
340.7107, 738.1882
341.1928, 737.2438
341.6750, 736.4369
342.1571, 735.8149
342.6392, 735.5693
343.1213, 735.7011
343.6034, 736.2292
344.0855, 737.5507
344.5677, 739.5929
345.0498, 740.5925
345.5319, 740.0648
346.0140, 738.8463
346.4961, 738.3894
346.9782, 738.6833
347.4604, 739.5341
347.9425, 741.0771
348.4246, 743.1295
348.9067, 745.0940
349.3888, 747.0078
349.8709, 748.5009
350.3531, 748.8040
350.8352, 748.2091
351.3173, 747.8040
351.7994, 748.0912
352.2815, 748.8393
352.7636, 749.7361
353.2458, 750.7731
353.7279, 751.8090
354.2100, 752.2875
354.6921, 752.7359
355.1742, 754.1920
355.6563, 758.1502
356.1385, 761.9958
356.6206, 762.8011
357.1027, 761.0781
357.5848, 759.3839
358.0669, 759.2098
358.5490, 759.8025
359.0312, 760.3906
359.5133, 760.6161
359.9954, 761.3280
360.4775, 763.4450
360.9596, 766.4260
361.4417, 769.0782
361.9239, 771.1760
362.4060, 772.6623
362.8881, 773.2228
363.3702, 772.5577
363.8523, 772.4576
364.3344, 773.8337
364.8166, 775.9675
365.2987, 778.0560
365.7808, 780.1579
366.2629, 781.8979
366.7450, 783.0609
367.2271, 783.6477
367.7093, 784.2193
368.1914, 784.0876
368.6735, 784.4199
369.1556, 786.0049
369.6377, 790.8665
370.1198, 794.3908
370.6020, 795.5552
371.0841, 795.1260
371.5662, 795.9539
372.0483, 798.9826
372.5304, 802.0919
373.0125, 804.4817
373.4947, 806.1276
373.9768, 806.8322
374.4589, 805.5245
374.9410, 804.1398
375.4231, 806.2777
375.9052, 813.5490
376.3874, 819.8494
376.8695, 822.8272
377.3516, 822.6473
377.8337, 824.3067
378.3158, 828.0694
378.7979, 833.0158
379.2801, 838.3720
379.7622, 844.2079
380.2443, 850.0973
380.7264, 855.9990
381.2085, 861.9524
381.6906, 867.7355
382.1728, 873.2836
382.6549, 880.0401
383.1370, 889.1856
383.6191, 900.3815
384.1012, 911.8538
384.5833, 923.3864
385.0655, 935.6778
385.5476, 948.6651
386.0297, 962.9413
386.5118, 980.0303
386.9939, 1001.067
387.4760, 1025.384
387.9582, 1051.898
388.4403, 1080.806
388.9224, 1112.809
389.4045, 1147.892
389.8866, 1186.185
390.3687, 1228.398
390.8509, 1276.471
391.3330, 1326.034
391.8151, 1375.386
392.2972, 1424.197
392.7793, 1471.938
393.2614, 1516.644
393.7436, 1561.008
394.2257, 1607.885
394.7078, 1657.688
395.1899, 1709.326
395.6720, 1761.450
396.1541, 1815.308
396.6363, 1872.912
397.1184, 1932.884
397.6005, 1998.389
398.0826, 2069.456
398.5647, 2145.599
399.0468, 2231.713
399.5290, 2330.848
400.0111, 2438.710
400.4932, 2551.917
400.9753, 2670.278
401.4574, 2794.849
401.9395, 2928.354
402.4217, 3068.407
402.9038, 3201.502
403.3859, 3328.573
403.8680, 3447.401
404.3501, 3560.925
404.8322, 3676.474
405.3144, 3759.806
405.7965, 3814.635
406.2786, 3831.951
406.7607, 3795.224
407.2428, 3701.956
407.7249, 3566.453
408.2071, 3387.022
408.6892, 3168.488
409.1713, 2939.387
409.6534, 2695.800
410.1355, 2459.089
410.6176, 2245.474
411.0998, 2053.854
411.5819, 1884.318
412.0640, 1737.454
412.5461, 1611.389
413.0282, 1502.556
413.5103, 1410.624
413.9925, 1330.809
414.4746, 1261.062
414.9567, 1200.454
415.4388, 1149.650
415.9209, 1108.716
416.4030, 1073.011
416.8852, 1038.523
417.3673, 1006.221
417.8494, 977.5335
418.3315, 953.4622
418.8136, 932.5439
419.2957, 914.2239
419.7779, 898.4222
420.2600, 883.4756
420.7421, 868.5413
421.2242, 854.3367
421.7063, 841.8065
422.1884, 831.3383
422.6706, 821.6728
423.1527, 812.2347
423.6348, 803.3541
424.1169, 795.5967
424.5990, 790.5296
425.0811, 785.0580
425.5633, 777.5514
426.0454, 767.3137
426.5275, 759.8583
427.0096, 756.6621
427.4917, 754.9824
427.9738, 752.6322
428.4560, 749.4885
428.9381, 745.8806
429.4202, 741.6500
429.9023, 737.0602
430.3844, 732.7743
430.8665, 728.8323
431.3487, 725.1557
431.8308, 721.5646
432.3129, 718.0330
432.7950, 715.6537
433.2771, 714.7941
433.7592, 714.1776
434.2414, 711.8803
434.7235, 708.0612
435.2056, 704.5746
435.6877, 702.0342
436.1698, 700.1934
436.6519, 698.5992
437.1341, 697.2479
437.6162, 695.9900
438.0983, 694.7350
438.5804, 693.4830
439.0625, 692.2187
439.5446, 690.9229
440.0268, 689.6757
440.5089, 688.4027
440.9910, 687.2288
441.4731, 686.4276
441.9552, 686.7932
442.4373, 687.0220
442.9195, 685.9051
443.4016, 683.4593
443.8837, 681.6224
444.3658, 681.7311
444.8479, 682.4530
445.3300, 682.7407
445.8122, 681.9960
446.2943, 681.3014
446.7764, 680.9800
447.2585, 680.8367
447.7406, 680.3754
448.2227, 678.8847
448.7049, 677.7618
449.1870, 677.6902
449.6691, 679.0635
450.1512, 679.1003
450.6333, 677.2256
451.1154, 674.6645
451.5976, 672.4976
452.0797, 670.7611
452.5618, 669.4402
453.0439, 668.6652
453.5260, 668.2585
454.0081, 667.4861
454.4903, 666.2421
454.9724, 665.3363
455.4545, 665.4487
455.9366, 666.3978
456.4187, 666.8370
456.9008, 666.6474
457.3830, 666.3190
457.8651, 666.5646
458.3472, 667.1613
458.8293, 667.4244
459.3114, 667.2883
459.7935, 666.5303
460.2757, 664.1700
460.7578, 660.6234
461.2399, 657.9662
461.7220, 658.1493
462.2041, 659.4569
462.6862, 660.4120
463.1684, 660.8552
463.6505, 660.7147
464.1326, 659.2899
464.6147, 657.4695
465.0968, 656.3824
465.5789, 657.2272
466.0611, 658.0262
466.5432, 658.2920
467.0253, 658.0256
467.5074, 657.3903
467.9895, 655.9556
468.4716, 654.5254
468.9538, 653.4584
469.4359, 652.7352
469.9180, 652.4467
470.4001, 652.7315
470.8822, 653.3401
471.3643, 653.9499
471.8465, 654.6268
472.3286, 655.0508
472.8107, 654.9561
473.2928, 654.5143
473.7749, 655.0129
474.2570, 656.6842
474.7392, 658.0338
475.2213, 657.7488
475.7034, 656.0496
476.1855, 654.2820
476.6676, 652.4453
477.1497, 651.0615
477.6319, 651.1332
478.1140, 652.3182
478.5961, 653.5005
479.0782, 654.4005
479.5603, 654.9244
480.0424, 654.8894
480.5246, 654.3275
481.0067, 653.5158
481.4888, 652.1713
481.9709, 650.9022
482.4530, 650.3188
482.9352, 650.7845
483.4173, 651.3060
483.8994, 651.2936
484.3815, 651.1262
484.8636, 651.3844
485.3457, 653.4261
485.8279, 654.6409
486.3100, 653.4705
486.7921, 649.9287
487.2742, 648.8586
487.7563, 652.4999
488.2384, 656.3525
488.7206, 657.8869
489.2027, 656.3917
489.6848, 654.3952
490.1669, 651.4573
490.6490, 648.5485
491.1311, 647.5017
491.6133, 648.6721
492.0954, 649.2947
492.5775, 648.3544
493.0596, 646.2534
493.5417, 644.4557
494.0238, 642.9647
494.5060, 641.4982
494.9881, 639.5653
495.4702, 637.5076
495.9523, 636.1790
496.4344, 635.7465
496.9165, 635.7919
497.3987, 636.2595
497.8808, 636.8729
498.3629, 637.1038
498.8450, 636.3494
499.3271, 635.4734
499.8092, 635.2219
500.2914, 635.4388
500.7735, 635.2552
501.2556, 633.7228
501.7377, 632.1503
502.2198, 631.4025
502.7019, 632.0247
503.1841, 632.3086
503.6662, 631.7867
504.1483, 630.9339
504.6304, 630.2891
505.1125, 629.8449
505.5946, 629.6302
506.0768, 629.6451
506.5589, 629.8874
507.0410, 630.4803
507.5231, 631.6723
508.0052, 632.4973
508.4873, 632.0656
508.9695, 630.3597
509.4516, 630.1175
509.9337, 631.6345
510.4158, 633.4190
510.8979, 633.6407
511.3800, 632.5966
511.8622, 631.5971
512.3443, 630.9503
512.8264, 630.5659
513.3085, 630.3954
513.7906, 630.3984
514.2728, 630.4255
514.7549, 630.6506
515.2370, 630.7045
515.7191, 629.8594
516.2012, 627.9796
516.6833, 627.1472
517.1655, 629.9587
517.6476, 633.3745
518.1297, 634.7729
518.6118, 631.3772
519.0939, 628.7306
519.5760, 627.8291
520.0582, 628.2604
520.5403, 629.0101
521.0224, 630.7581
521.5045, 631.8226
521.9866, 631.3690
522.4688, 629.3968
522.9509, 628.9115
523.4330, 630.3939
523.9151, 632.2113
524.3972, 632.9627
524.8793, 632.6070
525.3615, 632.9092
525.8436, 634.1953
526.3257, 635.6979
526.8078, 636.0792
527.2899, 635.5804
527.7720, 635.3846
528.2542, 636.4462
528.7363, 637.6744
529.2184, 637.2922
529.7005, 635.5923
530.1826, 634.1537
530.6647, 634.2875
531.1469, 634.9069
531.6290, 635.0507
532.1111, 634.4933
532.5932, 633.9536
533.0753, 633.8134
533.5574, 633.8030
534.0396, 633.6444
534.5217, 632.8684
535.0038, 632.4539
535.4859, 632.8824
535.9680, 633.7961
536.4501, 634.0430
536.9323, 633.3869
537.4144, 632.4418
537.8965, 631.1467
538.3786, 629.4605
538.8607, 629.3923
539.3428, 631.3961
539.8250, 633.5934
540.3071, 634.0795
540.7892, 633.0245
541.2713, 632.0320
541.7534, 631.2396
542.2355, 630.8624
542.7177, 631.4418
543.1998, 632.7354
543.6819, 633.9595
544.1640, 634.6944
544.6461, 635.2244
545.1282, 636.1600
545.6104, 637.3052
546.0925, 637.4799
546.5746, 634.4846
547.0567, 631.4345
547.5388, 630.7238
548.0209, 633.6089
548.5031, 635.7073
548.9852, 635.2578
549.4673, 633.9968
549.9494, 633.8012
550.4315, 635.9157
550.9136, 637.1687
551.3958, 636.9598
551.8779, 635.7385
552.3600, 634.8343
552.8421, 634.2921
553.3242, 633.8790
553.8063, 633.5494
554.2885, 633.2817
554.7706, 632.8857
555.2527, 632.3534
555.7348, 631.7968
556.2169, 631.2472
556.6990, 630.7578
557.1812, 630.5052
557.6633, 630.5921
558.1454, 630.6509
558.6275, 630.1191
559.1096, 629.3475
559.5917, 628.9392
560.0739, 629.6320
560.5560, 630.2899
561.0381, 630.0523
561.5202, 629.2017
562.0023, 628.9852
562.4844, 630.7901
562.9666, 632.3682
563.4487, 632.6143
563.9308, 631.2648
564.4129, 629.8480
564.8950, 628.1520
565.3771, 626.6092
565.8593, 625.5447
566.3414, 624.9754
566.8235, 624.8596
567.3056, 625.3486
567.7877, 626.0446
568.2698, 626.2317
568.7520, 625.9332
569.2341, 625.4511
569.7162, 624.7333
570.1983, 624.0277
570.6804, 623.8795
571.1625, 624.2249
571.6447, 624.5654
572.1268, 624.8292
572.6089, 624.7966
573.0910, 623.9357
573.5731, 621.9872
574.0552, 620.8268
574.5374, 622.2892
575.0195, 624.4421
575.5016, 625.4816
575.9837, 623.7430
576.4658, 622.4938
576.9479, 622.3516
577.4301, 622.7802
577.9122, 622.6339
578.3943, 621.2117
578.8764, 620.6143
579.3585, 621.7147
579.8406, 624.1789
580.3228, 625.7938
580.8049, 626.5508
581.2870, 626.5033
581.7691, 625.1407
582.2512, 622.9249
582.7333, 621.7923
583.2155, 621.9271
583.6975, 622.5000
584.1796, 623.0870
584.6617, 623.5136
585.1439, 623.4515
585.6260, 622.6202
586.1081, 621.6525
586.5902, 620.4616
587.0723, 619.4577
587.5544, 619.4365
588.0366, 621.5760
588.5187, 623.7463
589.0008, 625.1935
589.4829, 625.9341
589.9650, 626.8741
590.4471, 628.0760
590.9293, 629.3733
591.4114, 630.8562
591.8935, 632.7090
592.3756, 633.2941
592.8577, 632.3422
593.3398, 630.8329
593.8220, 629.5714
594.3041, 628.5863
594.7862, 628.0828
595.2683, 628.1038
595.7504, 628.6270
596.2325, 630.1071
596.7147, 632.1115
597.1968, 633.4805
597.6789, 633.2502
598.1610, 632.6123
598.6431, 632.3785
599.1252, 632.4798
599.6074, 632.5488
600.0895, 632.5787
600.5716, 632.4374
601.0537, 632.1438
601.5358, 631.7930
602.0179, 630.7000
602.5001, 627.9316
602.9822, 625.3389
603.4643, 624.5115
603.9464, 626.1213
604.4285, 626.6801
604.9106, 625.6068
605.3928, 624.1158
605.8749, 624.2260
606.3570, 625.8149
606.8391, 627.2666
607.3212, 628.0856
607.8033, 628.5087
608.2855, 628.8450
608.7676, 629.0844
609.2497, 629.2156
609.7318, 629.0100
610.2139, 628.8422
610.6960, 629.3016
611.1782, 630.3558
611.6603, 630.6247
612.1424, 628.8050
612.6245, 626.6464
613.1066, 625.2386
613.5887, 624.9418
614.0709, 624.7935
614.5530, 625.1067
615.0351, 625.3025
615.5172, 624.5721
615.9993, 622.5298
616.4814, 621.3477
616.9636, 621.4617
617.4457, 622.3870
617.9278, 623.5016
618.4099, 624.7335
618.8920, 625.4037
619.3741, 625.0759
619.8563, 624.1368
620.3384, 622.7620
620.8205, 621.1300
621.3026, 620.1597
621.7847, 621.0180
622.2668, 622.2769
622.7490, 622.9687
623.2311, 623.0028
623.7132, 622.5389
624.1953, 620.9266
624.6774, 619.3207
625.1595, 618.5421
625.6417, 619.0038
626.1238, 619.6125
626.6059, 620.7172
627.0880, 621.6083
627.5701, 620.9518
628.0522, 618.4858
628.5344, 617.1815
629.0165, 618.0087
629.4986, 619.8076
629.9807, 620.3464
630.4628, 619.7977
630.9449, 619.1095
631.4271, 618.5153
631.9092, 618.1545
632.3913, 618.1357
632.8734, 618.4628
633.3555, 619.1818
633.8376, 620.9680
634.3198, 622.6306
634.8019, 623.3777
635.2840, 622.9512
635.7661, 622.5425
636.2482, 622.0277
636.7303, 621.7738
637.2125, 622.0803
637.6946, 623.1663
638.1767, 624.1854
638.6588, 625.0394
639.1409, 625.9500
639.6230, 627.4753
640.1052, 629.5452
640.5873, 630.8508
641.0694, 630.8971
641.5515, 630.2996
642.0336, 629.4797
642.5157, 628.7140
642.9979, 628.8085
643.4800, 630.8243
643.9621, 633.2890
644.4442, 635.1886
644.9263, 636.5995
645.4084, 638.0583
645.8906, 639.2727
646.3727, 640.9662
646.8548, 643.7822
647.3369, 647.9678
647.8190, 651.1211
648.3011, 652.5985
648.7833, 653.9727
649.2654, 656.4682
649.7475, 660.2236
650.2296, 663.6964
650.7117, 666.6924
651.1938, 669.8459
651.6760, 673.8536
652.1581, 678.6374
652.6402, 683.9355
653.1223, 689.9691
653.6044, 695.8820
654.0865, 700.5955
654.5687, 704.7686
655.0508, 709.6871
655.5329, 716.5173
656.0150, 723.5414
656.4971, 730.3392
656.9792, 736.8533
657.4614, 742.8942
657.9435, 748.3145
658.4256, 753.4633
658.9077, 758.3903
659.3898, 763.1042
659.8719, 767.9061
660.3541, 772.8289
660.8362, 777.6553
661.3183, 782.3719
661.8004, 786.8857
662.2825, 791.3341
662.7646, 795.7803
663.2468, 799.1735
663.7289, 800.2487
664.2110, 799.8525
664.6931, 799.3754
665.1752, 799.9770
665.6573, 798.2305
666.1395, 790.8318
666.6216, 780.9479
667.1037, 772.4728
667.5858, 767.2100
668.0679, 761.8254
668.5500, 756.3222
669.0322, 750.4680
669.5143, 743.7889
669.9964, 736.0812
670.4785, 728.2913
670.9606, 720.3759
671.4427, 712.7686
671.9249, 707.1196
672.4070, 703.2101
672.8891, 699.4950
673.3712, 695.5145
673.8533, 690.9979
674.3354, 685.0731
674.8176, 677.9452
675.2997, 671.9643
675.7818, 669.4415
676.2639, 667.6492
676.7460, 664.7883
677.2281, 660.2752
677.7103, 656.5146
678.1924, 653.9437
678.6745, 651.7885
679.1566, 649.4182
679.6387, 646.6884
680.1208, 644.3719
680.6030, 642.4593
681.0851, 641.0211
681.5672, 640.3914
682.0493, 640.3399
682.5314, 639.8716
683.0135, 638.7436
683.4957, 637.1264
683.9778, 634.7621
684.4599, 632.0881
684.9420, 630.0162
685.4241, 629.1581
685.9063, 628.6240
686.3884, 628.0841
686.8705, 627.6047
687.3526, 627.4329
687.8347, 627.9279
688.3168, 628.2198
688.7990, 627.9701
689.2811, 627.3067
689.7632, 627.3029
690.2453, 628.1468
690.7274, 628.3972
691.2095, 626.4725
691.6917, 623.3625
692.1738, 622.2119
692.6559, 622.9953
693.1380, 624.0743
693.6201, 624.2768
694.1022, 624.1642
694.5844, 624.2658
695.0665, 624.6624
695.5486, 625.1364
696.0307, 625.4719
696.5128, 625.9362
696.9949, 626.8371
697.4771, 629.0223
697.9592, 629.6833
698.4413, 627.8741
698.9234, 625.7680
699.4055, 626.3459
699.8876, 629.6747
700.3698, 632.5600
700.8519, 634.5510
701.3340, 635.6218
701.8161, 635.1788
702.2982, 633.7722
702.7803, 632.8002
703.2625, 633.3470
703.7446, 633.8113
704.2267, 632.5488
704.7088, 630.4422
705.1909, 629.4449
705.6730, 630.7526
706.1552, 632.4958
706.6373, 634.6133
707.1194, 636.8357
707.6015, 637.7980
708.0836, 637.0555
708.5657, 636.3243
709.0479, 636.2500
709.5300, 636.7418
710.0121, 637.6503
710.4942, 638.9441
710.9763, 639.9166
711.4584, 639.8564
711.9406, 639.3382
712.4227, 639.1010
712.9048, 639.1790
713.3869, 639.1779
713.8690, 638.7638
714.3511, 638.3261
714.8333, 638.1812
715.3154, 638.5743
715.7975, 638.5746
716.2796, 637.8959
716.7617, 637.1984
717.2438, 637.2282
717.7260, 638.1591
718.2081, 637.7228
718.6902, 635.4538
719.1723, 633.2266
719.6544, 633.9235
720.1365, 636.3687
720.6187, 637.3954
721.1008, 635.8187
721.5829, 634.1946
722.0650, 634.7364
722.5471, 636.2864
723.0292, 637.3068
723.5114, 636.6371
723.9935, 636.2542
724.4756, 636.5845
724.9577, 637.3165
725.4398, 637.9744
725.9219, 638.5499
726.4041, 639.0349
726.8862, 639.4125
727.3683, 639.7071
727.8504, 639.9725
728.3325, 640.2034
728.8146, 640.3630
729.2968, 640.4312
729.7789, 640.4200
730.2610, 640.1736
730.7431, 639.8293
731.2252, 639.8422
731.7073, 641.0080
732.1895, 641.9935
732.6716, 641.8375
733.1537, 640.6852
733.6358, 640.7905
734.1179, 642.9327
734.6000, 645.0386
735.0822, 646.2877
735.5643, 646.7435
736.0464, 646.6169
736.5285, 645.8543
737.0106, 645.6473
737.4927, 647.5029
737.9749, 650.2350
738.4570, 651.4774
738.9391, 651.1671
739.4212, 651.4732
739.9033, 654.4122
740.3854, 657.9136
740.8676, 660.5811
741.3497, 662.2067
741.8318, 663.0331
742.3139, 662.0193
742.7960, 661.4313
743.2781, 663.0685
743.7603, 667.3530
744.2424, 670.7188
744.7245, 672.8805
745.2066, 675.0010
745.6887, 678.7188
746.1708, 683.3790
746.6530, 687.0267
747.1351, 689.1068
747.6172, 691.3307
748.0993, 695.3621
748.5814, 700.0627
749.0635, 704.0422
749.5457, 705.7307
750.0278, 708.8080
750.5099, 714.3771
750.9920, 721.0338
751.4741, 727.1325
751.9562, 732.3533
752.4384, 738.2035
752.9205, 745.0432
753.4026, 752.0595
753.8847, 757.2431
754.3668, 761.2806
754.8489, 767.1934
755.3311, 776.6843
755.8132, 786.8328
756.2953, 794.8566
756.7774, 801.7193
757.2595, 808.9353
757.7416, 817.6313
758.2238, 826.0671
758.7059, 833.4092
759.1880, 840.4722
759.6701, 849.2722
760.1522, 860.7321
760.6343, 871.2128
761.1165, 879.7892
761.5986, 887.0063
762.0807, 894.1370
762.5628, 901.1664
763.0449, 907.9846
763.5270, 914.7618
764.0092, 921.0831
764.4913, 927.1945
764.9734, 932.6356
765.4555, 936.0969
765.9376, 937.0156
766.4197, 935.8958
766.9019, 932.6601
767.3840, 927.4842
767.8661, 920.8104
768.3482, 912.6030
768.8303, 902.9961
769.3124, 891.6783
769.7946, 879.2213
770.2767, 867.0670
770.7588, 855.2347
771.2409, 843.9066
771.7230, 833.9266
772.2051, 823.9955
772.6873, 812.0360
773.1694, 798.4554
773.6515, 786.7946
774.1336, 779.4155
774.6157, 773.0475
775.0978, 766.4783
775.5800, 759.6974
776.0621, 752.5372
776.5442, 744.5342
777.0263, 737.4567
777.5084, 732.5355
777.9905, 729.3983
778.4727, 726.6772
778.9548, 724.3383
779.4369, 721.8505
779.9190, 718.7794
780.4011, 715.4020
780.8832, 711.6442
781.3654, 707.5598
781.8475, 704.2996
782.3296, 702.7191
782.8117, 701.6457
783.2938, 700.5023
783.7759, 699.2836
784.2581, 698.1956
784.7402, 697.4173
785.2223, 696.2658
785.7044, 694.0597
786.1865, 691.0859
786.6686, 688.0060
787.1508, 684.8603
787.6329, 682.8461
788.1150, 683.9310
788.5971, 685.8680
789.0792, 686.5520
789.5613, 685.6860
790.0435, 684.2540
790.5256, 681.1389
791.0077, 678.7039
791.4898, 678.4724
791.9719, 680.9252
792.4540, 681.9390
792.9362, 681.1923
793.4183, 680.2139
793.9004, 680.6146
794.3825, 681.7587
794.8646, 681.7964
795.3467, 680.5900
795.8289, 678.9671
796.3110, 677.0195
796.7931, 675.2868
797.2752, 674.2758
797.7573, 674.1312
798.2394, 674.3779
798.7216, 675.2838
799.2037, 676.2164
799.6858, 676.7144
800.1679, 676.6860
800.6500, 677.1783
801.1321, 678.3355
801.6143, 679.1791
802.0964, 678.3757
802.5785, 676.7551
803.0606, 675.8889
803.5427, 675.9763
804.0248, 676.4655
804.5070, 677.1084
804.9891, 677.9518
805.4712, 679.0829
805.9533, 680.6839
806.4354, 681.9839
806.9175, 682.7401
807.3997, 683.5309
807.8818, 684.9557
808.3639, 686.9747
808.8460, 688.1912
809.3281, 688.4919
809.8102, 688.8088
810.2924, 690.3855
810.7745, 692.3148
811.2566, 693.5037
811.7387, 693.8272
812.2208, 693.1161
812.7029, 689.6698
813.1851, 686.4073
813.6672, 685.8129
814.1493, 689.1234
814.6314, 689.5063
815.1135, 686.1353
815.5956, 681.8884
816.0778, 678.7542
816.5599, 676.6813
817.0420, 675.9470
817.5241, 676.5883
818.0062, 676.8541
818.4883, 674.3842
818.9705, 671.4608
819.4526, 670.6075
819.9347, 672.4694
820.4168, 673.7038
820.8989, 672.8347
821.3810, 671.8802
821.8632, 671.9440
822.3453, 673.1776
822.8274, 674.1952
823.3095, 675.1212
823.7916, 675.0579
824.2737, 672.2961
824.7559, 668.3333
825.2380, 666.3729
825.7201, 666.5821
826.2022, 667.1223
826.6843, 666.7875
827.1664, 666.4929
827.6486, 667.0119
828.1307, 668.6034
828.6128, 669.5556
829.0949, 669.7625
829.5770, 669.4930
830.0591, 668.6598
830.5413, 667.3604
831.0234, 666.8414
831.5055, 667.0875
831.9876, 667.3281
832.4697, 666.4987
832.9518, 665.6970
833.4340, 666.3834
833.9161, 668.5240
834.3982, 670.4281
834.8803, 671.9872
835.3624, 672.6604
835.8445, 671.9033
836.3267, 669.8215
836.8088, 668.9767
837.2909, 669.6533
837.7730, 670.2952
838.2551, 669.7955
838.7372, 668.7159
839.2194, 668.6786
839.7015, 669.4844
840.1836, 669.9702
840.6657, 668.8321
841.1478, 667.7291
841.6299, 667.7079
842.1121, 668.7236
842.5942, 669.9915
843.0763, 671.8704
843.5584, 673.2411
844.0405, 673.6345
844.5226, 673.2819
845.0048, 673.0341
845.4869, 672.8854
845.9690, 672.8237
846.4511, 673.0958
846.9332, 673.2396
847.4153, 672.7747
847.8975, 671.7762
848.3796, 670.4482
848.8617, 667.4425
849.3438, 665.8197
849.8259, 667.0840
850.3080, 670.1340
850.7902, 672.2309
851.2723, 673.2733
851.7544, 673.8847
852.2365, 674.1807
852.7186, 674.2343
853.2007, 674.2346
853.6829, 674.0964
854.1650, 673.5396
854.6471, 671.2465
855.1292, 670.0449
855.6113, 672.6095
856.0934, 676.8489
856.5756, 678.8627
857.0577, 677.2291
857.5398, 675.9684
858.0219, 675.4882
858.5040, 675.5734
858.9861, 676.2311
859.4683, 677.2595
859.9504, 677.4184
860.4325, 676.1697
860.9146, 674.7958
861.3967, 673.8362
861.8788, 673.7140
862.3610, 675.1059
862.8431, 680.0641
863.3252, 683.0653
863.8073, 682.8978
864.2894, 681.4899
864.7715, 680.7292
865.2537, 680.6824
865.7358, 679.9691
866.2179, 678.3852
866.7000, 676.8717
867.1821, 676.5484
867.6642, 676.8409
868.1464, 676.8973
868.6285, 676.5429
869.1106, 676.3352
869.5927, 676.2898
870.0748, 676.6381
870.5569, 677.4460
871.0391, 678.6559
871.5212, 680.9034
872.0033, 684.5857
872.4854, 687.5697
872.9675, 687.6084
873.4496, 685.8532
873.9318, 684.8898
874.4139, 684.7797
874.8960, 685.1966
875.3781, 686.7518
875.8602, 688.0734
876.3423, 687.9926
876.8245, 686.4959
877.3066, 686.0333
877.7887, 687.2322
878.2708, 688.0970
878.7529, 687.6949
879.2350, 686.4561
879.7172, 685.5770
880.1993, 685.1113
880.6814, 685.2234
881.1635, 686.9457
881.6456, 688.4440
882.1277, 687.3674
882.6099, 684.8875
883.0920, 684.5572
883.5741, 689.6339
884.0562, 693.1853
884.5383, 693.7364
885.0204, 692.4643
885.5026, 691.8118
885.9847, 691.7321
886.4668, 691.6804
886.9489, 691.3574
887.4310, 691.3115
887.9131, 692.7920
888.3953, 694.7521
888.8774, 695.5858
889.3595, 693.5168
889.8416, 692.3544
890.3237, 693.0168
890.8058, 694.4697
891.2880, 695.8850
891.7701, 697.3238
892.2522, 697.7666
892.7343, 697.0319
893.2164, 695.9356
893.6985, 694.6660
894.1807, 693.8569
894.6628, 694.9535
895.1449, 698.5978
895.6270, 700.8774
896.1091, 698.8988
896.5912, 696.4142
897.0734, 695.7015
897.5555, 696.9249
898.0376, 698.1295
898.5197, 699.3720
899.0018, 700.2634
899.4839, 700.2817
899.9661, 699.8655
900.4482, 699.6543
900.9303, 699.7111
901.4124, 700.2914
901.8945, 702.1735
902.3766, 703.9641
902.8588, 704.7964
903.3409, 704.9133
903.8230, 705.6431
904.3051, 707.2684
904.7872, 708.3182
905.2693, 708.1122
905.7515, 707.2758
906.2336, 706.7885
906.7157, 706.7248
907.1978, 707.3338
907.6799, 709.3272
908.1620, 711.2361
908.6442, 712.5746
909.1263, 713.3510
909.6084, 713.5377
910.0905, 712.6760
910.5726, 712.6451
911.0547, 713.9044
911.5369, 715.3619
912.0190, 715.3089
912.5011, 714.3021
912.9832, 714.0153
913.4653, 714.8502
913.9474, 715.6429
914.4296, 715.5064
914.9117, 715.1025
915.3938, 714.8698
915.8759, 714.6605
916.3580, 715.5812
916.8401, 718.1666
917.3223, 720.5273
917.8044, 721.0354
918.2865, 720.2488
918.7686, 720.4536
919.2507, 721.5363
919.7328, 722.2369
920.2150, 721.3327
920.6971, 720.2064
921.1792, 719.4896
921.6613, 719.2985
922.1434, 719.9954
922.6255, 722.0420
923.1077, 723.9397
923.5898, 725.3810
924.0719, 726.2792
924.5540, 726.0348
925.0361, 724.9898
925.5182, 724.6368
926.0004, 726.1865
926.4825, 727.4570
926.9646, 726.1869
927.4467, 724.0646
927.9288, 723.8098
928.4109, 727.2078
928.8931, 728.9692
929.3752, 728.4665
929.8573, 727.0495
930.3394, 725.7326
930.8215, 724.7668
931.3036, 725.2859
931.7858, 727.5251
932.2679, 729.8072
932.7500, 731.2059
933.2321, 732.0403
933.7142, 732.4335
934.1964, 732.3091
934.6785, 732.7460
935.1606, 734.1395
935.6427, 735.1274
936.1248, 734.7205
936.6069, 733.4332
937.0891, 732.9671
937.5712, 733.2272
938.0533, 733.7938
938.5354, 734.6296
939.0175, 735.4925
939.4996, 736.4686
939.9818, 737.3259
940.4639, 737.3104
940.9460, 735.6813
941.4281, 735.1155
941.9102, 736.2839
942.3923, 738.3070
942.8745, 740.1057
943.3566, 741.5902
943.8387, 742.3682
944.3208, 742.1794
944.8029, 741.8939
945.2850, 741.7445
945.7672, 741.9102
946.2493, 742.7116
946.7314, 744.5064
947.2135, 745.3102
947.6956, 744.8079
948.1777, 744.4176
948.6599, 745.4287
949.1420, 747.3222
949.6241, 748.8815
950.1062, 750.1031
950.5883, 751.2803
951.0704, 752.9095
951.5526, 754.1946
952.0347, 754.2842
952.5168, 753.6376
952.9989, 754.0764
953.4810, 755.8619
953.9631, 757.5472
954.4453, 758.8635
954.9274, 759.6063
955.4095, 758.9865
955.8916, 757.6019
956.3737, 756.7044
956.8558, 756.6826
957.3380, 757.2308
957.8201, 758.3834
958.3022, 760.0027
958.7843, 762.1667
959.2664, 765.1901
959.7485, 767.0295
960.2307, 767.5883
960.7128, 767.2479
961.1949, 765.4366
961.6770, 763.3914
962.1591, 762.9747
962.6412, 764.2430
963.1234, 765.9399
963.6055, 767.9523
964.0876, 769.9681
964.5697, 771.9344
965.0518, 773.7994
965.5339, 775.6182
966.0161, 777.3855
966.4982, 778.1455
966.9803, 776.9831
967.4624, 775.5461
967.9445, 775.7866
968.4266, 777.0179
968.9088, 778.1019
969.3909, 778.9597
969.8730, 779.3074
970.3551, 778.9946
970.8372, 778.3978
971.3193, 777.6766
971.8015, 776.9308
972.2836, 777.2379
972.7657, 778.7217
973.2478, 780.0618
973.7299, 780.1908
974.2120, 779.7838
974.6942, 778.9109
975.1763, 777.6344
975.6584, 778.4349
976.1405, 782.7444
976.6226, 786.1420
977.1047, 786.6279
977.5869, 785.4154
978.0690, 785.8134
978.5511, 787.4495
979.0332, 788.9542
979.5153, 789.7100
979.9974, 790.3002
980.4796, 790.8185
980.9617, 791.4567
981.4438, 792.6266
981.9259, 795.0229
982.4080, 795.5392
982.8901, 793.5558
983.3723, 791.5467
983.8544, 792.6617
984.3365, 795.2924
984.8186, 796.0964
985.3007, 794.8648
985.7828, 794.2592
986.2650, 796.2813
986.7471, 798.3162
987.2292, 799.1219
987.7113, 798.9547
988.1934, 799.1278
988.6755, 799.6381
989.1577, 800.4070
989.6398, 801.4462
990.1219, 802.6205
990.6040, 803.5734
991.0861, 804.5868
991.5682, 806.1774
992.0504, 810.1532
992.5325, 811.9774
993.0146, 810.3499
993.4967, 807.8695
993.9788, 806.8431
994.4609, 807.1656
994.9431, 808.2950
995.4252, 810.1995
995.9073, 811.3045
996.3894, 809.0901
996.8715, 806.8038
997.3536, 807.4081
997.8358, 810.7112
998.3179, 812.3352
998.8000, 811.5589
999.2821, 810.7660
999.7642, 810.6007
1000.246, 810.8853
1000.728, 811.7289
1001.211, 812.7075
1001.693, 812.4979
1002.175, 809.7082
1002.657, 807.8825
1003.139, 808.9116
1003.621, 811.4238
1004.103, 814.5250
1004.585, 818.7576
1005.068, 819.7108
1005.550, 816.9963
1006.032, 814.7921
1006.514, 817.3545
1006.996, 821.5175
1007.478, 823.5069
1007.960, 823.4236
1008.442, 822.8344
1008.924, 820.7609
1009.407, 820.1806
1009.889, 822.3320
1010.371, 825.6988
1010.853, 826.9083
1011.335, 826.3385
1011.817, 826.5410
1012.299, 828.4203
1012.781, 829.8771
1013.263, 828.6928
1013.746, 826.7698
1014.228, 825.9717
1014.710, 826.6232
1015.192, 827.6188
1015.674, 829.2283
1016.156, 830.3058
1016.638, 829.4806
1017.120, 827.9611
1017.603, 828.5342
1018.085, 830.7584
1018.567, 833.0819
1019.049, 834.6430
1019.531, 836.3934
1020.013, 839.2914
1020.495, 842.0613
1020.977, 842.2676
1021.459, 839.7977
1021.942, 839.3612
1022.424, 841.7562
1022.906, 844.5594
1023.388, 845.8373
1023.870, 846.2155
1024.352, 846.2497
1024.834, 846.0070
1025.316, 845.4567
1025.799, 844.0667
1026.281, 843.5904
1026.763, 845.0776
1027.245, 847.6790
1027.727, 849.4997
1028.209, 850.5799
1028.691, 850.9704
1029.173, 850.0585
1029.656, 849.4709
1030.138, 850.1430
1030.620, 851.4047
1031.102, 852.6379
1031.584, 853.9449
1032.066, 854.2957
1032.548, 853.5158
1033.030, 853.1498
1033.512, 855.1351
1033.995, 857.8034
1034.477, 858.9779
1034.959, 858.8304
1035.441, 859.1373
1035.923, 860.8765
1036.405, 862.2050
1036.887, 862.6887
1037.369, 862.6713
1037.851, 862.8904
1038.334, 863.2156
1038.816, 862.9388
1039.298, 861.6315
1039.780, 861.0050
1040.262, 862.9103
1040.744, 865.3246
1041.226, 866.4509
1041.708, 866.1599
1042.191, 867.1981
1042.673, 869.8026
1043.155, 871.7997
1043.637, 871.2758
1044.119, 870.1415
1044.601, 871.3798
1045.083, 874.0667
1045.565, 876.0383
1046.047, 876.2162
1046.530, 876.1960
1047.012, 875.8349
1047.494, 875.7347
1047.976, 876.7405
1048.458, 878.6362
1048.940, 880.4794
1049.422, 882.1858
1049.904, 883.3337
1050.386, 882.5963
1050.869, 882.2169
1051.351, 884.2512
1051.833, 887.8862
1052.315, 889.6436
1052.797, 889.2477
1053.279, 889.0182
1053.761, 889.5872
1054.243, 890.5477
1054.726, 891.3320
1055.208, 892.2028
1055.690, 893.6575
1056.172, 896.2277
1056.654, 897.8907
1057.136, 898.0057
1057.618, 898.1493
1058.100, 899.5084
1058.583, 901.6155
1059.065, 902.5062
1059.547, 902.4026
1060.029, 902.3251
1060.511, 902.5365
1060.993, 903.1862
1061.475, 904.5219
1061.957, 906.2604
1062.439, 908.2991
1062.922, 910.8508
1063.404, 911.4293
1063.886, 909.6297
1064.368, 907.9241
1064.850, 908.9178
1065.332, 910.8064
1065.814, 911.9078
1066.296, 912.1149
1066.778, 911.9080
1067.261, 910.9272
1067.743, 910.4152
1068.225, 910.5944
1068.707, 911.5410
1069.189, 913.8713
1069.671, 917.0002
1070.153, 919.7773
1070.635, 922.2438
1071.118, 922.9995
1071.600, 919.3665
1072.082, 915.8520
1072.564, 915.3543
1073.046, 917.5524
1073.528, 917.8996
1074.010, 916.5789
1074.492, 916.1132
1074.974, 918.7150
1075.457, 921.6951
1075.939, 923.1064
1076.421, 923.5283
1076.903, 923.9379
1077.385, 924.3772
1077.867, 924.6419
1078.349, 924.4764
1078.831, 925.1547
1079.313, 929.2215
1079.796, 934.1247
1080.278, 935.4910
1080.760, 933.6559
1081.242, 932.4082
1081.724, 933.2312
1082.206, 934.4205
1082.688, 935.8017
1083.170, 937.1813
1083.652, 938.2330
1084.135, 938.9815
1084.617, 939.3588
1085.099, 939.2849
1085.581, 939.4343
1086.063, 940.7727
1086.545, 941.9144
1087.027, 941.5582
1087.509, 943.2399
1087.992, 941.1660
1088.474, 945.0234
1088.956, 947.9362
1089.438, 947.9567
1089.920, 947.2357
1090.402, 947.8505
1090.884, 949.0681
1091.366, 949.7846
1091.849, 949.1474
1092.331, 950.1619
1092.813, 953.3109
1093.295, 956.4764
1093.777, 957.7475
1094.259, 958.1415
1094.741, 959.9582
1095.223, 962.6655
1095.705, 964.3586
1096.188, 962.8435
1096.670, 962.3331
1097.152, 964.1182
1097.634, 966.3107
1098.116, 965.8242
1098.598, 963.4945
1099.080, 963.4692
1099.562, 966.1006
1100.044, 969.2569
1100.527, 972.8167
1101.009, 975.3401
1101.491, 975.3340
1101.973, 973.8641
1102.455, 974.3730
1102.937, 976.8965
1103.419, 979.0773
1103.901, 980.3727
1104.384, 981.0080
1104.866, 980.5789
1105.348, 979.9872
1105.830, 980.3258
1106.312, 980.3311
1106.794, 980.2214
1107.276, 981.4221
1107.758, 981.0211
1108.240, 982.2470
1108.723, 984.3721
1109.205, 986.6089
1109.687, 988.8171
1110.169, 990.7297
1110.651, 992.0242
1111.133, 993.5650
1111.615, 995.8590
1112.097, 997.6237
1112.579, 997.3742
1113.062, 995.8372
1113.544, 995.4105
1114.026, 996.0540
1114.508, 997.4880
1114.990, 1000.902
1115.472, 1003.433
1115.954, 1004.006
1116.436, 1003.390
1116.919, 1002.003
1117.401, 999.9987
1117.883, 999.7703
1118.365, 1001.538
1118.847, 1003.788
1119.329, 1005.493
1119.811, 1007.278
1120.293, 1009.945
1120.776, 1013.025
1121.258, 1014.840
1121.740, 1015.273
1122.222, 1015.514
1122.704, 1015.845
1123.186, 1015.812
1123.668, 1014.048
1124.150, 1012.231
1124.632, 1012.320
1125.115, 1014.747
1125.597, 1016.842
1126.079, 1018.410
1126.561, 1020.303
1127.043, 1023.372
1127.525, 1026.131
1128.007, 1025.435
1128.489, 1022.949
1128.971, 1021.476
1129.454, 1021.843
1129.936, 1023.143
1130.418, 1026.074
1130.900, 1028.358
1131.382, 1028.303
1131.864, 1026.707
1132.346, 1025.360
1132.828, 1024.528
1133.311, 1025.104
1133.793, 1028.977
1134.275, 1032.289
1134.757, 1034.411
1135.239, 1035.397
1135.721, 1034.168
1136.203, 1031.339
1136.685, 1033.106
1137.167, 1039.214
1137.650, 1045.075
1138.132, 1048.653
1138.614, 1050.504
1139.096, 1050.034
1139.578, 1048.395
1140.060, 1047.109
1140.542, 1046.174
1141.024, 1046.107
1141.506, 1046.993
1141.989, 1048.488
1142.471, 1051.246
1142.953, 1053.732
1143.435, 1054.480
1143.917, 1053.859
1144.399, 1053.745
1144.881, 1054.070
1145.363, 1055.577
1145.846, 1058.633
1146.328, 1061.860
1146.810, 1063.693
1147.292, 1064.845
1147.774, 1066.036
1148.256, 1067.337
1148.738, 1068.633
1149.220, 1070.050
1149.703, 1070.896
1150.185, 1070.718
1150.667, 1070.263
1151.149, 1070.420
1151.631, 1071.154
1152.113, 1072.642
1152.595, 1075.537
1153.077, 1076.682
1153.559, 1074.953
1154.042, 1073.817
1154.524, 1075.525
1155.006, 1078.686
1155.488, 1080.340
1155.970, 1080.915
1156.452, 1081.347
1156.934, 1081.561
1157.416, 1082.492
1157.898, 1084.777
1158.381, 1086.889
1158.863, 1087.267
1159.345, 1086.543
1159.827, 1087.467
1160.309, 1089.643
1160.791, 1091.464
1161.273, 1091.012
1161.755, 1091.756
1162.238, 1095.711
1162.720, 1099.868
1163.202, 1100.407
1163.684, 1098.059
1164.166, 1097.831
1164.648, 1099.744
1165.130, 1101.827
1165.612, 1103.629
1166.094, 1104.550
1166.577, 1103.759
1167.059, 1102.353
1167.541, 1101.912
1168.023, 1102.415
1168.505, 1103.692
1168.987, 1105.743
1169.469, 1107.699
1169.951, 1108.527
1170.433, 1109.509
1170.916, 1111.663
1171.398, 1114.519
1171.880, 1117.336
1172.362, 1120.106
1172.844, 1120.510
1173.326, 1117.695
1173.808, 1115.627
1174.290, 1118.614
1174.773, 1122.811
1175.255, 1124.834
1175.737, 1125.236
1176.219, 1127.974
1176.701, 1133.309
1177.183, 1135.411
1177.665, 1131.807
1178.147, 1127.838
1178.630, 1128.782
1179.112, 1131.760
1179.594, 1134.250
1180.076, 1136.077
1180.558, 1137.309
1181.040, 1137.871
1181.522, 1138.750
1182.004, 1140.369
1182.486, 1142.374
1182.969, 1144.499
1183.451, 1146.706
1183.933, 1149.068
1184.415, 1151.688
1184.897, 1153.619
1185.379, 1154.828
1185.861, 1155.542
1186.343, 1155.639
1186.825, 1155.604
1187.308, 1155.936
1187.790, 1156.550
1188.272, 1157.320
1188.754, 1158.213
1189.236, 1159.316
1189.718, 1160.642
1190.200, 1162.107
1190.682, 1163.635
1191.165, 1165.305
1191.647, 1167.759
1192.129, 1170.314
1192.611, 1171.511
1193.093, 1170.231
1193.575, 1169.629
1194.057, 1169.892
1194.539, 1170.257
1195.021, 1169.631
1195.504, 1169.083
1195.986, 1170.510
1196.468, 1173.240
1196.950, 1175.185
1197.432, 1175.181
1197.914, 1176.281
1198.396, 1178.870
1198.878, 1181.795
1199.360, 1184.120
1199.843, 1185.980
1200.325, 1187.318
1200.807, 1188.313
1201.289, 1189.690
1201.771, 1192.327
1202.253, 1193.548
1202.735, 1192.755
1203.217, 1191.559
1203.700, 1191.378
1204.182, 1192.141
1204.664, 1194.239
1205.146, 1197.368
1205.628, 1199.558
1206.110, 1199.800
1206.592, 1200.694
1207.074, 1202.750
1207.557, 1205.212
1208.039, 1206.905
1208.521, 1208.504
1209.003, 1211.478
1209.485, 1215.771
1209.967, 1218.502
1210.449, 1219.011
1210.931, 1218.810
1211.413, 1218.002
1211.896, 1217.207
1212.378, 1216.913
1212.860, 1217.353
1213.342, 1219.347
1213.824, 1222.992
1214.306, 1225.333
1214.788, 1225.858
1215.270, 1225.776
1215.752, 1225.117
1216.235, 1224.765
1216.717, 1226.227
1217.199, 1228.712
1217.681, 1231.465
1218.163, 1234.504
1218.645, 1235.484
1219.127, 1233.443
1219.609, 1232.047
1220.092, 1232.513
1220.574, 1234.013
1221.056, 1235.272
1221.538, 1236.768
1222.020, 1239.473
1222.502, 1243.756
1222.984, 1246.969
1223.466, 1248.982
1223.948, 1249.807
1224.431, 1249.014
1224.913, 1247.883
1225.395, 1247.698
1225.877, 1248.659
1226.359, 1251.505
1226.841, 1257.095
1227.323, 1260.352
1227.805, 1260.906
1228.287, 1260.429
1228.770, 1259.276
1229.252, 1258.070
1229.734, 1257.263
1230.216, 1257.146
1230.698, 1258.352
1231.180, 1261.367
1231.662, 1263.489
1232.144, 1264.508
1232.627, 1266.097
1233.109, 1269.881
1233.591, 1273.184
1234.073, 1271.821
1234.555, 1268.551
1235.037, 1267.102
1235.519, 1268.018
1236.001, 1269.652
1236.484, 1272.018
1236.966, 1275.148
1237.448, 1279.903
1237.930, 1284.080
1238.412, 1284.429
1238.894, 1287.490
1239.376, 1288.639
1239.858, 1288.828
1240.340, 1290.008
1240.823, 1287.912
1241.305, 1287.079
1241.787, 1291.147
1242.269, 1295.619
1242.751, 1295.992
1243.233, 1294.874
1243.715, 1295.630
1244.197, 1298.542
1244.679, 1300.942
1245.162, 1302.856
1245.644, 1304.557
1246.126, 1306.733
1246.608, 1308.106
1247.090, 1306.882
1247.572, 1305.075
1248.054, 1304.892
1248.536, 1306.384
1249.019, 1309.138
1249.501, 1313.020
1249.983, 1316.455
1250.465, 1317.907
1250.947, 1319.496
1251.429, 1323.471
1251.911, 1327.112
1252.393, 1327.033
1252.875, 1323.580
1253.358, 1324.605
1253.840, 1329.449
1254.322, 1333.849
1254.804, 1335.131
1255.286, 1336.106
1255.768, 1337.761
1256.250, 1339.464
1256.732, 1340.629
1257.214, 1341.364
1257.697, 1342.020
1258.179, 1342.791
1258.661, 1344.448
1259.143, 1349.158
1259.625, 1352.141
1260.107, 1351.856
1260.589, 1350.893
1261.071, 1351.029
1261.554, 1352.317
1262.036, 1355.538
1262.518, 1360.095
1263.000, 1364.090
1263.482, 1367.017
1263.964, 1368.708
1264.446, 1368.620
1264.928, 1368.576
1265.411, 1370.281
1265.893, 1372.958
1266.375, 1375.363
1266.857, 1377.491
1267.339, 1379.389
1267.821, 1381.814
1268.303, 1382.367
1268.785, 1380.517
1269.267, 1378.771
1269.750, 1379.361
1270.232, 1381.041
1270.714, 1382.235
1271.196, 1383.238
1271.678, 1384.812
1272.160, 1387.283
1272.642, 1389.382
1273.124, 1391.023
1273.606, 1392.494
1274.089, 1392.582
1274.571, 1393.899
1275.053, 1401.392
1275.535, 1410.619
1276.017, 1413.365
1276.499, 1407.953
1276.981, 1406.938
1277.463, 1410.513
1277.946, 1414.422
1278.428, 1416.679
1278.910, 1417.539
1279.392, 1415.482
1279.874, 1413.249
1280.356, 1414.504
1280.838, 1419.123
1281.320, 1421.359
1281.802, 1421.411
1282.285, 1421.792
1282.767, 1424.498
1283.249, 1426.962
1283.731, 1427.983
1284.213, 1428.656
1284.695, 1429.953
1285.177, 1431.701
1285.659, 1432.961
1286.141, 1433.909
1286.624, 1435.286
1287.106, 1437.493
1287.588, 1440.136
1288.070, 1443.409
1288.552, 1446.458
1289.034, 1448.380
1289.516, 1449.617
1289.998, 1451.121
1290.481, 1452.785
1290.963, 1454.324
1291.445, 1456.071
1291.927, 1456.672
1292.409, 1455.722
1292.891, 1455.212
1293.373, 1457.150
1293.855, 1459.875
1294.338, 1461.213
1294.820, 1461.804
1295.302, 1462.756
1295.784, 1463.874
1296.266, 1466.656
1296.748, 1471.207
1297.230, 1475.501
1297.712, 1478.504
1298.194, 1480.514
1298.677, 1481.398
1299.159, 1481.508
1299.641, 1480.906
1300.123, 1479.495
1300.605, 1481.052
1301.087, 1485.120
1301.569, 1487.613
1302.051, 1484.831
1302.533, 1482.236
1303.016, 1481.565
##END=



