##NAMES=Spinel
##RRUFFID=R050184
##IDEAL CHEMISTRY=MgAl_2_O_4_
##LOCALITY=Pein Pyit, Mogok, Burma
##OWNER=RRUFF
##SOURCE=Marcus Origlieri
##DESCRIPTION=Red crystal in calcite, associated with yellowish-green clinohumite, R050183
##STATUS=The identification of this mineral has been confirmed by X-ray diffraction and chemical analysis
##URL=rruff.info/R050184
##MEASURED CHEMISTRY=Mg_1.00_(Al_1.99_Cr_0.01_)_Î£=2_O_4_; trace amounts of V
92.96582, 124.8314
93.44794, 122.9334
93.93005, 123.0650
94.41217, 126.0289
94.89429, 127.8991
95.37640, 128.6028
95.85852, 128.6457
96.34064, 128.6024
96.82275, 128.7973
97.30487, 129.0924
97.78699, 129.2152
98.26910, 129.2078
98.75122, 129.1358
99.23334, 129.0338
99.71545, 128.8410
100.1976, 128.3899
100.6797, 127.9923
101.1618, 127.6672
101.6439, 127.3378
102.1260, 126.9032
102.6081, 126.4382
103.0903, 126.1300
103.5724, 126.0231
104.0545, 125.9704
104.5366, 125.8826
105.0187, 125.7726
105.5008, 125.6677
105.9830, 125.5586
106.4651, 125.4316
106.9472, 125.4446
107.4293, 125.8530
107.9114, 126.1440
108.3935, 126.1062
108.8757, 125.7433
109.3578, 125.2000
109.8399, 124.6647
110.3220, 124.2275
110.8041, 123.5541
111.2862, 122.5499
111.7684, 121.3945
112.2505, 120.2700
112.7326, 119.2276
113.2147, 118.1355
113.6968, 116.5897
114.1789, 113.6193
114.6611, 111.9621
115.1432, 113.0429
115.6253, 115.7956
116.1074, 118.0866
116.5895, 118.9381
117.0716, 118.7312
117.5538, 118.5362
118.0359, 118.3709
118.5180, 118.1873
119.0001, 117.9254
119.4822, 117.5819
119.9643, 117.2751
120.4465, 117.0232
120.9286, 116.8615
121.4107, 116.8683
121.8928, 117.1444
122.3749, 117.5194
122.8570, 117.6621
123.3392, 117.4830
123.8213, 117.2130
124.3034, 116.8967
124.7855, 116.5681
125.2676, 116.2642
125.7497, 116.0042
126.2319, 115.7889
126.7140, 115.6423
127.1961, 115.6124
127.6782, 115.6142
128.1603, 115.7003
128.6424, 115.8139
129.1246, 115.8310
129.6067, 115.6216
130.0888, 115.1227
130.5709, 114.7224
131.0530, 114.3815
131.5351, 114.1392
132.0173, 114.0837
132.4994, 114.2004
132.9815, 114.3215
133.4636, 114.2131
133.9457, 113.7552
134.4278, 113.4708
134.9100, 113.4847
135.3921, 113.6496
135.8742, 113.8108
136.3563, 113.9372
136.8384, 114.0151
137.3205, 114.0061
137.8027, 113.9104
138.2848, 113.8041
138.7669, 113.7148
139.2490, 113.6394
139.7311, 113.5727
140.2132, 113.5501
140.6954, 113.4938
141.1775, 113.3351
141.6596, 113.0671
142.1417, 112.7335
142.6238, 112.3423
143.1059, 111.8721
143.5881, 111.4805
144.0702, 111.1116
144.5523, 110.8948
145.0344, 111.0397
145.5165, 111.6219
145.9986, 112.3139
146.4807, 112.4620
146.9629, 111.6281
147.4450, 111.0499
147.9271, 111.0419
148.4092, 111.2803
148.8913, 111.4600
149.3734, 111.4343
149.8556, 111.2486
150.3377, 111.0855
150.8198, 111.0189
151.3019, 110.8931
151.7840, 110.5552
152.2661, 110.1591
152.7483, 109.9909
153.2304, 110.2633
153.7125, 110.9204
154.1946, 111.1122
154.6767, 110.4950
155.1588, 109.8770
155.6410, 109.5545
156.1231, 109.5017
156.6052, 109.5727
157.0873, 109.6968
157.5694, 109.8600
158.0515, 109.9215
158.5337, 109.8671
159.0158, 109.7251
159.4979, 109.4688
159.9800, 109.0916
160.4621, 108.7508
160.9442, 108.6104
161.4264, 108.6145
161.9085, 108.6084
162.3906, 108.5528
162.8727, 108.4669
163.3548, 108.3801
163.8369, 108.2937
164.3191, 108.2065
164.8012, 108.0781
165.2833, 107.9435
165.7654, 107.8893
166.2475, 108.0287
166.7296, 108.3141
167.2118, 108.4789
167.6939, 108.4724
168.1760, 108.3856
168.6581, 108.2505
169.1402, 108.0770
169.6223, 107.8792
170.1045, 107.6577
170.5866, 107.4071
171.0687, 107.1985
171.5508, 107.0189
172.0329, 106.8961
172.5150, 106.9012
172.9972, 106.9963
173.4793, 107.0554
173.9614, 106.9252
174.4435, 106.5185
174.9256, 106.2248
175.4077, 106.0584
175.8899, 105.9643
176.3720, 105.9525
176.8541, 106.0038
177.3362, 106.0471
177.8183, 105.9868
178.3004, 105.7637
178.7826, 105.5626
179.2647, 105.3525
179.7468, 105.1794
180.2289, 105.1156
180.7110, 105.1744
181.1931, 105.2483
181.6752, 105.1541
182.1574, 104.8057
182.6395, 104.5483
183.1216, 104.4805
183.6037, 104.5054
184.0858, 104.5152
184.5679, 104.4889
185.0501, 104.4033
185.5322, 104.1528
186.0143, 103.7012
186.4964, 103.3905
186.9785, 103.4548
187.4606, 103.7556
187.9428, 103.9321
188.4249, 103.8373
188.9070, 103.6491
189.3891, 103.6239
189.8712, 103.7763
190.3533, 103.8723
190.8355, 103.7027
191.3176, 103.3051
191.7997, 103.0061
192.2818, 102.9264
192.7639, 102.9431
193.2460, 102.9749
193.7282, 103.0167
194.2103, 103.0155
194.6924, 102.9211
195.1745, 102.7277
195.6566, 102.4870
196.1387, 102.0495
196.6209, 101.6744
197.1030, 101.5649
197.5851, 101.7407
198.0672, 101.9914
198.5493, 102.0400
199.0314, 101.8137
199.5136, 101.6184
199.9957, 101.5576
200.4778, 101.4900
200.9599, 101.2747
201.4420, 100.8955
201.9241, 100.5109
202.4063, 100.3974
202.8884, 100.7799
203.3705, 100.9972
203.8526, 100.9499
204.3347, 100.8037
204.8168, 100.6651
205.2990, 100.5717
205.7811, 100.5135
206.2632, 100.4741
206.7453, 100.4659
207.2274, 100.4598
207.7095, 100.4574
208.1917, 100.4548
208.6738, 100.4614
209.1559, 100.4785
209.6380, 100.4751
210.1201, 100.3866
210.6022, 100.1207
211.0844, 99.90121
211.5665, 99.75255
212.0486, 99.64914
212.5307, 99.58360
213.0128, 99.55728
213.4949, 99.52193
213.9771, 99.36301
214.4592, 99.02808
214.9413, 98.70426
215.4234, 98.32720
215.9055, 98.00224
216.3876, 97.94238
216.8698, 98.26981
217.3519, 98.75184
217.8340, 98.90978
218.3161, 98.68006
218.7982, 98.50237
219.2803, 98.59050
219.7625, 98.83454
220.2446, 98.98718
220.7267, 98.96763
221.2088, 98.83244
221.6909, 98.64320
222.1730, 98.38587
222.6552, 98.17453
223.1373, 98.13280
223.6194, 98.19736
224.1015, 98.13621
224.5836, 97.86210
225.0657, 97.46526
225.5479, 97.03681
226.0300, 96.57312
226.5121, 96.15308
226.9942, 95.83530
227.4763, 95.61096
227.9584, 95.40663
228.4406, 95.21582
228.9227, 95.03625
229.4048, 94.88187
229.8869, 94.74864
230.3690, 94.58526
230.8511, 94.34608
231.3333, 94.03303
231.8154, 93.69010
232.2975, 93.19118
232.7796, 92.79912
233.2617, 92.74506
233.7438, 92.98935
234.2260, 93.23282
234.7081, 93.16881
235.1902, 92.76987
235.6723, 92.47807
236.1544, 92.42610
236.6365, 92.40193
237.1187, 92.30750
237.6008, 92.14824
238.0829, 91.98660
238.5650, 91.87624
239.0471, 91.81910
239.5292, 91.79678
240.0114, 91.80299
240.4935, 91.85215
240.9756, 92.02434
241.4577, 92.26788
241.9398, 92.42165
242.4219, 92.29396
242.9041, 91.82312
243.3862, 91.54426
243.8683, 91.64492
244.3504, 91.76763
244.8325, 91.79047
245.3146, 91.71791
245.7968, 91.60911
246.2789, 91.51120
246.7610, 91.42074
247.2431, 91.37678
247.7252, 91.44824
248.2073, 91.49808
248.6895, 91.44731
249.1716, 91.32488
249.6537, 91.22458
250.1358, 91.23646
250.6179, 91.37504
251.1000, 91.38182
251.5822, 91.07072
252.0643, 90.82753
252.5464, 90.87912
253.0285, 91.12907
253.5106, 91.29668
253.9927, 91.15025
254.4748, 90.69262
254.9570, 90.45146
255.4391, 90.60278
255.9212, 90.74458
256.4033, 90.76246
256.8854, 90.65764
257.3676, 90.43680
257.8497, 90.07692
258.3318, 89.60538
258.8139, 89.36461
259.2960, 89.57004
259.7781, 89.72083
260.2603, 89.55361
260.7424, 89.19657
261.2245, 88.98016
261.7066, 89.12235
262.1887, 89.53124
262.6708, 89.71021
263.1530, 89.55531
263.6351, 89.35017
264.1172, 89.12992
264.5993, 88.92395
265.0814, 88.80143
265.5635, 88.80901
266.0457, 88.90231
266.5278, 88.93625
267.0099, 88.87106
267.4920, 88.82229
267.9741, 88.88036
268.4562, 88.97720
268.9384, 88.95904
269.4204, 88.74456
269.9026, 88.42527
270.3847, 88.20195
270.8668, 88.09417
271.3489, 87.99385
271.8310, 87.81351
272.3131, 87.62489
272.7953, 87.59841
273.2774, 87.82655
273.7595, 88.12688
274.2416, 88.16087
274.7237, 87.89909
275.2058, 87.71674
275.6880, 87.80639
276.1701, 88.03330
276.6522, 88.14132
277.1343, 88.04646
277.6164, 87.91450
278.0985, 88.00095
278.5807, 88.28186
279.0628, 88.48935
279.5449, 88.48045
280.0270, 88.37278
280.5091, 88.35588
280.9912, 88.47042
281.4734, 88.61662
281.9555, 88.68279
282.4376, 88.69173
282.9197, 88.74161
283.4018, 88.96465
283.8839, 89.19645
284.3661, 89.14762
284.8482, 88.74957
285.3303, 88.39876
285.8124, 88.50659
286.2945, 88.90000
286.7766, 89.15799
287.2588, 89.03726
287.7409, 88.82658
288.2230, 88.88181
288.7051, 89.22474
289.1872, 89.59633
289.6693, 89.83754
290.1515, 90.00832
290.6336, 90.20596
291.1157, 90.43233
291.5978, 90.70757
292.0799, 91.09343
292.5620, 91.59237
293.0442, 92.02321
293.5263, 92.28493
294.0084, 92.43647
294.4905, 92.56591
294.9726, 92.68235
295.4547, 92.77193
295.9369, 92.75581
296.4190, 92.65274
296.9011, 92.73523
297.3832, 93.21021
297.8653, 93.80110
298.3474, 94.16468
298.8296, 94.26697
299.3117, 94.39074
299.7938, 94.73469
300.2759, 95.26888
300.7580, 95.84209
301.2401, 96.46065
301.7223, 97.06178
302.2044, 97.54893
302.6865, 97.94205
303.1686, 98.40578
303.6507, 99.04930
304.1328, 99.83743
304.6150, 100.6179
305.0971, 101.2801
305.5792, 102.1327
306.0613, 103.4313
306.5434, 105.0843
307.0255, 106.8732
307.5077, 108.6734
307.9898, 110.5540
308.4719, 112.7117
308.9540, 115.2384
309.4361, 117.7553
309.9182, 120.4842
310.4004, 122.9691
310.8825, 124.4264
311.3646, 124.5894
311.8467, 123.6453
312.3288, 121.6979
312.8109, 118.6572
313.2931, 115.1735
313.7752, 111.1403
314.2573, 107.0075
314.7394, 103.2634
315.2215, 99.99002
315.7036, 97.16991
316.1858, 94.86314
316.6679, 93.07104
317.1500, 91.55843
317.6321, 90.30083
318.1142, 89.28856
318.5963, 88.52238
319.0785, 88.01608
319.5606, 87.58302
320.0427, 87.08911
320.5248, 86.54939
321.0069, 86.07060
321.4890, 85.69460
321.9712, 85.35679
322.4533, 85.01554
322.9354, 84.66529
323.4175, 84.27914
323.8996, 83.75160
324.3817, 83.17733
324.8639, 82.84399
325.3460, 82.84893
325.8281, 82.91032
326.3102, 82.81475
326.7923, 82.61893
327.2744, 82.43930
327.7566, 82.34311
328.2387, 82.27274
328.7208, 82.11062
329.2029, 81.82859
329.6850, 81.62289
330.1671, 81.69773
330.6493, 81.88943
331.1314, 81.94930
331.6135, 81.77618
332.0956, 81.55602
332.5777, 81.50266
333.0598, 81.60706
333.5420, 81.60876
334.0241, 81.32460
334.5062, 80.95518
334.9883, 80.77811
335.4704, 80.82945
335.9525, 80.91384
336.4347, 80.88657
336.9168, 80.78541
337.3989, 80.77274
337.8810, 80.93269
338.3631, 81.10815
338.8452, 81.09458
339.3274, 80.91359
339.8094, 80.79623
340.2916, 80.93442
340.7737, 81.16862
341.2558, 81.17941
341.7379, 80.88647
342.2200, 80.58526
342.7021, 80.53225
343.1843, 80.66924
343.6664, 80.83412
344.1485, 81.04500
344.6306, 81.24001
345.1127, 81.33714
345.5948, 81.33846
346.0770, 81.34145
346.5591, 81.35515
347.0412, 81.43588
347.5233, 81.71143
348.0054, 82.37430
348.4875, 82.92659
348.9697, 82.98689
349.4518, 82.67791
349.9339, 82.38467
350.4160, 82.20446
350.8981, 82.17027
351.3802, 82.38527
351.8624, 82.88528
352.3445, 83.35384
352.8266, 83.71241
353.3087, 83.97322
353.7908, 84.13680
354.2729, 84.19691
354.7551, 84.22478
355.2372, 84.32582
355.7193, 84.50314
356.2014, 84.52127
356.6835, 84.12141
357.1656, 83.72401
357.6478, 83.73779
358.1299, 84.14299
358.6120, 84.55356
359.0941, 84.68079
359.5762, 84.58175
360.0583, 84.66786
360.5405, 85.12704
361.0226, 85.55043
361.5047, 85.72289
361.9868, 85.73610
362.4689, 85.79688
362.9510, 85.99596
363.4332, 86.28748
363.9153, 86.57161
364.3974, 86.92271
364.8795, 87.12667
365.3616, 86.97911
365.8438, 86.75487
366.3259, 86.75925
366.8080, 87.05817
367.2901, 87.51376
367.7722, 87.98561
368.2543, 88.50652
368.7365, 88.86738
369.2186, 88.96151
369.7007, 89.00101
370.1828, 89.08504
370.6649, 89.22451
371.1470, 89.40504
371.6292, 89.61700
372.1113, 89.86069
372.5934, 90.14017
373.0755, 90.45061
373.5576, 90.79947
374.0397, 91.15369
374.5219, 91.55655
375.0040, 92.10892
375.4861, 92.85636
375.9682, 93.66041
376.4503, 94.20832
376.9324, 94.16735
377.4146, 94.40343
377.8967, 95.05631
378.3788, 95.86327
378.8609, 96.62829
379.3430, 97.32993
379.8251, 98.08723
380.3073, 99.03523
380.7894, 100.1958
381.2715, 101.3895
381.7536, 102.5814
382.2357, 103.8490
382.7178, 105.1809
383.2000, 106.6105
383.6821, 108.2114
384.1642, 110.0359
384.6463, 112.0488
385.1284, 114.1074
385.6105, 116.1601
386.0927, 118.3620
386.5748, 120.8414
387.0569, 123.4158
387.5390, 125.8756
388.0211, 128.1759
388.5032, 130.4646
388.9854, 132.9809
389.4675, 135.7710
389.9496, 138.4877
390.4317, 140.9006
390.9138, 143.3772
391.3959, 146.0934
391.8781, 149.0354
392.3602, 152.1172
392.8423, 155.2022
393.3244, 158.3527
393.8065, 161.8876
394.2886, 165.8467
394.7708, 170.0884
395.2529, 174.4799
395.7350, 179.1252
396.2171, 184.1227
396.6992, 189.4270
397.1813, 195.3140
397.6635, 202.4272
398.1456, 210.8250
398.6277, 219.0200
399.1098, 226.0062
399.5919, 233.0587
400.0740, 241.4028
400.5562, 251.1327
401.0383, 261.4937
401.5204, 272.2818
402.0025, 283.4081
402.4846, 294.8964
402.9667, 306.9561
403.4489, 318.6320
403.9310, 329.5186
404.4131, 339.3901
404.8952, 346.9521
405.3773, 352.3761
405.8594, 355.1028
406.3416, 354.7689
406.8237, 351.3398
407.3058, 344.3464
407.7879, 333.1289
408.2700, 318.5909
408.7521, 302.8283
409.2343, 285.3734
409.7164, 268.1492
410.1985, 251.5107
410.6806, 235.5760
411.1627, 220.5727
411.6448, 206.5073
412.1269, 193.5816
412.6090, 182.1196
413.0912, 172.3406
413.5733, 163.5246
414.0554, 155.8053
414.5375, 148.8495
415.0196, 142.4628
415.5017, 136.6455
415.9839, 131.4531
416.4660, 126.9452
416.9481, 123.0462
417.4302, 119.4065
417.9123, 116.0183
418.3944, 112.9153
418.8766, 110.1256
419.3587, 107.6121
419.8408, 105.3699
420.3229, 103.3927
420.8050, 101.5947
421.2871, 99.86694
421.7693, 98.18710
422.2514, 96.66175
422.7335, 95.33944
423.2156, 94.10786
423.6977, 92.94488
424.1798, 91.83029
424.6620, 90.73141
425.1441, 89.61279
425.6262, 88.51096
426.1083, 87.58228
426.5904, 86.92567
427.0725, 86.25036
427.5547, 85.41939
428.0368, 84.58218
428.5189, 83.89148
429.0010, 83.37823
429.4831, 82.92368
429.9652, 82.41483
430.4474, 81.85057
430.9295, 81.25157
431.4116, 80.53538
431.8937, 79.89751
432.3758, 79.51809
432.8579, 79.30828
433.3401, 79.01624
433.8222, 78.40263
434.3043, 77.72071
434.7864, 77.44231
435.2685, 77.60670
435.7506, 77.70840
436.2328, 77.50473
436.7149, 77.10809
437.1970, 76.70775
437.6791, 76.29722
438.1612, 75.91656
438.6433, 75.58974
439.1255, 75.30728
439.6076, 75.05083
440.0897, 74.81795
440.5718, 74.60612
441.0539, 74.40641
441.5360, 74.22253
442.0182, 74.10194
442.5003, 74.13979
442.9824, 74.16013
443.4645, 74.02891
443.9466, 73.78120
444.4287, 73.53076
444.9109, 73.32874
445.3930, 73.17564
445.8751, 73.07226
446.3572, 73.06090
446.8393, 73.03655
447.3214, 73.02003
447.8036, 72.97190
448.2857, 72.84097
448.7678, 72.63103
449.2499, 72.39922
449.7320, 72.20017
450.2141, 72.03438
450.6963, 71.89123
451.1784, 71.80669
451.6605, 71.70462
452.1426, 71.55655
452.6247, 71.38359
453.1068, 71.21087
453.5890, 71.04910
454.0711, 70.90370
454.5532, 70.77614
455.0353, 70.64603
455.5174, 70.60397
455.9995, 70.79279
456.4817, 70.96705
456.9638, 70.99136
457.4459, 70.87985
457.9280, 70.72808
458.4101, 70.56249
458.8922, 70.41045
459.3744, 70.39138
459.8565, 70.56638
460.3386, 70.67397
460.8207, 70.45892
461.3028, 70.16359
461.7849, 70.10889
462.2671, 70.40427
462.7492, 70.69798
463.2313, 70.73589
463.7134, 70.56999
464.1955, 70.33506
464.6776, 70.03170
465.1598, 69.75248
465.6419, 69.58394
466.1240, 69.52425
466.6061, 69.55599
467.0882, 69.80191
467.5703, 70.03280
468.0525, 70.07718
468.5346, 69.96696
469.0167, 69.81804
469.4988, 69.68031
469.9809, 69.55012
470.4630, 69.41384
470.9452, 69.21952
471.4273, 69.11648
471.9094, 69.20692
472.3915, 69.32226
472.8736, 69.31053
473.3557, 69.17573
473.8379, 69.04236
474.3200, 69.02949
474.8021, 69.12012
475.2842, 69.04466
475.7663, 68.54100
476.2484, 68.19603
476.7306, 68.21098
477.2127, 68.37453
477.6948, 68.46001
478.1769, 68.40142
478.6590, 68.29929
479.1411, 68.25829
479.6233, 68.27377
480.1054, 68.42442
480.5875, 69.00459
481.0696, 69.35696
481.5517, 68.98701
482.0338, 68.18291
482.5159, 67.55534
482.9980, 67.39561
483.4802, 67.48724
483.9623, 67.58290
484.4444, 67.68295
484.9265, 67.70020
485.4086, 67.58173
485.8907, 67.39165
486.3729, 67.22235
486.8550, 67.07737
487.3371, 66.88761
487.8192, 66.54088
488.3013, 66.18543
488.7834, 66.02396
489.2656, 66.05789
489.7477, 66.11333
490.2298, 66.08280
490.7119, 65.98203
491.1940, 65.88913
491.6761, 65.86694
492.1583, 65.76823
492.6404, 65.46771
493.1225, 65.12565
493.6046, 64.94401
494.0867, 64.95029
494.5688, 64.99966
495.0510, 64.93559
495.5331, 64.74795
496.0152, 64.58567
496.4973, 64.45874
496.9794, 64.34775
497.4615, 64.25614
497.9437, 64.17502
498.4258, 64.09155
498.9079, 64.00083
499.3900, 63.91567
499.8721, 63.86525
500.3542, 63.85902
500.8364, 63.81504
501.3185, 63.70150
501.8006, 63.57335
502.2827, 63.43686
502.7648, 63.31017
503.2469, 63.24090
503.7291, 63.29660
504.2112, 63.37314
504.6933, 63.31056
505.1754, 63.11383
505.6575, 62.91848
506.1396, 62.75704
506.6218, 62.63885
507.1039, 62.57504
507.5860, 62.56243
508.0681, 62.59951
508.5502, 62.76217
509.0323, 62.92560
509.5145, 62.95971
509.9966, 62.86651
510.4787, 62.70534
510.9608, 62.49389
511.4429, 62.26622
511.9250, 62.16588
512.4072, 62.25814
512.8893, 62.39247
513.3714, 62.64159
513.8535, 62.87543
514.3356, 62.96430
514.8177, 62.90639
515.2999, 62.80687
515.7820, 62.76594
516.2641, 62.77484
516.7462, 62.70093
517.2283, 62.41683
517.7104, 62.24675
518.1926, 62.34486
518.6747, 62.53901
519.1568, 62.65100
519.6389, 62.63921
520.1210, 62.60879
520.6031, 62.71460
521.0853, 62.91478
521.5674, 62.89221
522.0495, 62.51429
522.5316, 62.17149
523.0137, 62.22361
523.4958, 62.48812
523.9780, 62.61587
524.4601, 62.51670
524.9422, 62.33192
525.4243, 62.07659
525.9064, 61.81083
526.3885, 61.71165
526.8707, 61.83611
527.3528, 62.00140
527.8349, 61.99594
528.3170, 61.79340
528.7991, 61.64247
529.2813, 61.56829
529.7634, 61.51428
530.2455, 61.45152
530.7276, 61.39452
531.2097, 61.37234
531.6918, 61.39589
532.1740, 61.44592
532.6561, 61.50270
533.1382, 61.59058
533.6203, 61.60012
534.1024, 61.49816
534.5845, 61.34550
535.0667, 61.07621
535.5488, 60.78375
536.0309, 60.64619
536.5130, 60.76823
536.9951, 61.00988
537.4772, 61.20619
537.9594, 61.35938
538.4415, 61.33758
538.9236, 60.98584
539.4057, 60.62181
539.8878, 60.58227
540.3699, 60.80954
540.8521, 60.98911
541.3342, 61.03371
541.8163, 60.99570
542.2984, 60.86968
542.7805, 60.68977
543.2626, 60.57957
543.7448, 60.59281
544.2269, 60.68943
544.7090, 60.81574
545.1911, 61.03516
545.6732, 61.10003
546.1553, 60.86818
546.6375, 60.61694
547.1196, 60.45295
547.6017, 60.40016
548.0838, 60.49400
548.5659, 60.76031
549.0480, 61.12216
549.5302, 61.42022
550.0123, 61.66450
550.4944, 61.81038
550.9765, 61.79916
551.4586, 61.72833
551.9407, 61.57439
552.4229, 61.39263
552.9050, 61.34488
553.3871, 61.61924
553.8692, 61.95666
554.3513, 61.87604
554.8334, 61.38839
555.3156, 61.05753
555.7977, 61.12017
556.2798, 61.33497
556.7619, 61.37618
557.2440, 61.25005
557.7261, 61.13068
558.2083, 61.06224
558.6904, 61.00294
559.1725, 60.91554
559.6546, 60.80893
560.1367, 60.71430
560.6188, 60.64773
561.1010, 60.59585
561.5831, 60.53221
562.0652, 60.44781
562.5473, 60.37166
563.0294, 60.30562
563.5115, 60.24495
563.9937, 60.14389
564.4758, 60.05044
564.9579, 60.09228
565.4400, 60.36267
565.9221, 60.68448
566.4042, 60.67246
566.8864, 60.26571
567.3685, 60.03591
567.8506, 60.20006
568.3327, 60.43158
568.8148, 60.43300
569.2969, 60.27657
569.7791, 60.23920
570.2612, 60.59279
570.7433, 60.93879
571.2254, 60.84246
571.7075, 60.42054
572.1896, 60.09815
572.6718, 60.02367
573.1539, 60.04608
573.6360, 59.95183
574.1181, 59.68658
574.6002, 59.58747
575.0823, 59.76945
575.5645, 59.98452
576.0466, 60.16598
576.5287, 60.29738
577.0108, 60.34052
577.4929, 60.28547
577.9750, 60.22041
578.4572, 60.32628
578.9393, 60.66270
579.4214, 60.74465
579.9035, 60.29934
580.3856, 59.94096
580.8677, 60.07393
581.3499, 60.42675
581.8320, 60.53274
582.3141, 60.19001
582.7962, 59.80602
583.2783, 59.81780
583.7604, 60.08549
584.2426, 60.13586
584.7247, 59.86181
585.2068, 59.53946
585.6889, 59.38043
586.1710, 59.37941
586.6531, 59.43784
587.1352, 59.57801
587.6173, 59.74535
588.0994, 59.99743
588.5815, 60.23022
589.0637, 60.29519
589.5458, 60.18385
590.0279, 60.04174
590.5100, 60.01493
590.9921, 60.08739
591.4742, 60.06690
591.9564, 59.87970
592.4385, 59.72284
592.9206, 59.61860
593.4027, 59.57489
593.8848, 59.62043
594.3669, 59.75068
594.8491, 59.88848
595.3312, 60.01385
595.8133, 60.10155
596.2954, 60.07941
596.7775, 59.94383
597.2596, 59.79214
597.7418, 59.62759
598.2239, 59.51812
598.7060, 59.66169
599.1881, 60.16465
599.6702, 60.45764
600.1523, 60.26668
600.6345, 59.99580
601.1166, 59.95748
601.5987, 60.09935
602.0808, 60.21549
602.5629, 60.19841
603.0450, 60.08876
603.5272, 59.94843
604.0093, 59.71466
604.4914, 59.63994
604.9735, 59.90266
605.4556, 60.16820
605.9377, 60.29710
606.4199, 60.32096
606.9020, 60.31340
607.3841, 60.29271
607.8662, 60.27476
608.3483, 60.28191
608.8304, 60.30811
609.3126, 60.30973
609.7947, 60.26344
610.2768, 60.27280
610.7589, 60.49864
611.2410, 60.89412
611.7231, 60.98103
612.2053, 60.41967
612.6874, 59.98347
613.1695, 60.00785
613.6516, 60.21863
614.1337, 60.30024
614.6158, 60.20410
615.0980, 60.07207
615.5801, 60.02036
616.0622, 60.04824
616.5443, 60.16803
617.0264, 60.47626
617.5085, 60.67219
617.9907, 60.59000
618.4728, 60.20094
618.9549, 60.58088
619.4370, 60.81589
619.9191, 60.91375
620.4012, 60.46371
620.8834, 60.72118
621.3655, 60.69511
621.8476, 60.65741
622.3297, 61.01445
622.8118, 60.64411
623.2939, 60.99488
623.7761, 61.05782
624.2582, 61.25248
624.7403, 61.16187
625.2224, 61.15937
625.7045, 61.44225
626.1866, 61.56710
626.6688, 61.44366
627.1509, 61.33523
627.6330, 61.26387
628.1151, 61.13472
628.5972, 61.03416
629.0793, 60.96210
629.5615, 60.99118
630.0436, 61.19483
630.5257, 61.35237
631.0078, 61.25624
631.4899, 61.09549
631.9720, 61.13067
632.4542, 61.43322
632.9363, 61.68444
633.4184, 61.66912
633.9005, 61.54705
634.3826, 61.49184
634.8647, 61.52448
635.3469, 61.66311
635.8290, 61.93180
636.3111, 62.27335
636.7932, 62.54525
637.2753, 62.73240
637.7574, 62.87818
638.2396, 62.93914
638.7217, 63.00737
639.2038, 63.07326
639.6859, 63.19090
640.1680, 63.45498
640.6501, 63.91100
641.1323, 64.49041
641.6144, 65.16127
642.0965, 65.89864
642.5786, 66.49944
643.0607, 66.89766
643.5428, 67.28577
644.0250, 67.77502
644.5071, 68.36476
644.9892, 69.02700
645.4713, 69.76722
645.9534, 70.56698
646.4355, 71.43217
646.9177, 72.34371
647.3998, 73.31339
647.8819, 74.32154
648.3640, 75.29114
648.8461, 76.16025
649.3282, 76.99732
649.8104, 78.00706
650.2925, 79.25823
650.7746, 80.47260
651.2567, 81.55222
651.7388, 82.66879
652.2209, 83.88389
652.7031, 85.21490
653.1852, 86.70332
653.6673, 88.39295
654.1494, 90.19726
654.6315, 92.04562
655.1136, 93.94719
655.5958, 95.89107
656.0779, 97.87256
656.5600, 100.0332
657.0421, 102.5052
657.5242, 105.2502
658.0063, 107.9535
658.4885, 110.4634
658.9706, 113.1474
659.4527, 116.2282
659.9348, 119.3137
660.4169, 122.2154
660.8990, 124.8732
661.3812, 127.2565
661.8633, 129.3665
662.3454, 131.1260
662.8275, 132.3787
663.3096, 133.1321
663.7917, 133.4967
664.2739, 133.5310
664.7560, 133.0904
665.2381, 132.0184
665.7202, 130.3181
666.2023, 128.2326
666.6844, 125.5336
667.1666, 122.7447
667.6487, 120.0060
668.1308, 117.2767
668.6129, 114.5185
669.0950, 111.7228
669.5771, 108.8772
670.0593, 105.9481
670.5414, 103.0043
671.0235, 100.2276
671.5056, 97.60033
671.9877, 95.15520
672.4698, 92.94549
672.9520, 90.86515
673.4341, 88.84306
673.9162, 86.86925
674.3983, 84.92968
674.8804, 82.98302
675.3625, 81.10546
675.8447, 79.30901
676.3268, 77.62383
676.8089, 76.13853
677.2910, 74.85558
677.7731, 73.69885
678.2552, 72.61268
678.7374, 71.58884
679.2195, 70.58492
679.7016, 69.62514
680.1837, 68.64109
680.6658, 67.52390
681.1479, 66.47131
681.6301, 65.64434
682.1122, 64.98829
682.5943, 64.31210
683.0764, 63.49380
683.5585, 62.70752
684.0406, 62.20923
684.5228, 61.90464
685.0049, 61.47101
685.4870, 60.84105
685.9691, 60.20673
686.4512, 59.72779
686.9333, 59.37799
687.4155, 59.01149
687.8976, 58.56640
688.3797, 58.19125
688.8618, 57.89624
689.3439, 57.67055
689.8260, 57.57088
690.3082, 57.53474
690.7903, 57.39170
691.2724, 57.02694
691.7545, 56.62026
692.2366, 56.45536
692.7188, 56.50225
693.2009, 56.51218
693.6830, 56.44582
694.1651, 56.35069
694.6472, 56.23928
695.1293, 56.12913
695.6115, 56.09367
696.0936, 56.17120
696.5757, 56.24691
697.0578, 56.30946
697.5399, 56.35844
698.0220, 56.39984
698.5042, 56.42717
698.9863, 56.41347
699.4684, 56.34140
699.9505, 56.26522
700.4326, 56.28318
700.9147, 56.39460
701.3969, 56.49026
701.8790, 56.55323
702.3611, 56.62248
702.8432, 56.73675
703.3253, 56.86721
703.8074, 56.94256
704.2896, 56.93168
704.7717, 56.95654
705.2538, 57.08403
705.7359, 57.23138
706.2180, 57.34503
706.7001, 57.41969
707.1823, 57.42607
707.6644, 57.35247
708.1465, 57.31429
708.6286, 57.55241
709.1107, 58.09292
709.5928, 58.38073
710.0750, 58.34758
710.5571, 58.19409
711.0392, 57.86158
711.5213, 57.54022
712.0034, 57.51462
712.4855, 57.83687
712.9677, 58.10884
713.4498, 58.19369
713.9319, 58.18751
714.4140, 58.14184
714.8961, 58.07158
715.3782, 58.00223
715.8604, 57.94182
716.3425, 57.86361
716.8246, 57.73182
717.3067, 57.54707
717.7888, 57.35604
718.2709, 57.11301
718.7531, 56.96466
719.2352, 57.06677
719.7173, 57.20480
720.1994, 57.16323
720.6815, 56.95022
721.1636, 56.77495
721.6458, 56.74639
722.1279, 56.73864
722.6100, 56.68695
723.0921, 56.58253
723.5742, 56.37095
724.0563, 56.05853
724.5385, 55.79412
725.0206, 55.72274
725.5027, 55.81300
725.9848, 55.88792
726.4669, 55.98372
726.9490, 55.96471
727.4312, 55.64107
727.9132, 55.35273
728.3953, 55.38998
728.8774, 55.65517
729.3596, 55.81823
729.8417, 55.76571
730.3238, 55.63868
730.8059, 55.47557
731.2880, 55.31461
731.7701, 55.19379
732.2523, 55.12861
732.7344, 55.16690
733.2165, 55.35088
733.6986, 55.61540
734.1807, 55.77481
734.6628, 55.77240
735.1450, 55.88685
735.6271, 56.23381
736.1092, 56.57127
736.5913, 56.74303
737.0734, 56.83831
737.5555, 56.98930
738.0377, 57.21053
738.5198, 57.51091
739.0019, 57.91507
739.4840, 58.38352
739.9661, 58.91585
740.4482, 59.47514
740.9304, 59.95124
741.4125, 60.29581
741.8946, 60.62122
742.3767, 61.10707
742.8588, 61.76352
743.3409, 62.32258
743.8231, 62.68580
744.3052, 63.14843
744.7873, 63.86208
745.2694, 64.69568
745.7515, 65.51479
746.2336, 66.32110
746.7158, 67.23009
747.1979, 68.32933
747.6800, 69.50154
748.1621, 70.68907
748.6442, 71.88351
749.1263, 73.09252
749.6085, 74.30219
750.0906, 75.43460
750.5727, 76.38296
751.0548, 77.25263
751.5369, 78.50784
752.0190, 80.26128
752.5012, 81.89898
752.9833, 83.12491
753.4654, 84.45534
753.9475, 86.45438
754.4296, 88.85062
754.9117, 90.92895
755.3939, 92.29812
755.8760, 93.92649
756.3581, 96.29433
756.8402, 98.98308
757.3223, 101.7357
757.8044, 104.4419
758.2866, 106.9293
758.7687, 109.1069
759.2508, 111.2711
759.7329, 113.9855
760.2150, 117.2316
760.6971, 120.2044
761.1793, 122.8291
761.6614, 125.3319
762.1435, 127.9177
762.6256, 130.3419
763.1077, 132.2009
763.5898, 133.5172
764.0720, 134.3691
764.5541, 134.7602
765.0362, 134.6984
765.5183, 134.2222
766.0004, 133.2754
766.4825, 131.7626
766.9647, 129.6870
767.4468, 127.1282
767.9289, 124.1071
768.4110, 120.7332
768.8931, 117.2173
769.3752, 113.5753
769.8574, 109.8934
770.3395, 106.1300
770.8216, 102.4704
771.3037, 99.04359
771.7858, 95.83456
772.2679, 92.73112
772.7501, 89.61440
773.2322, 86.72364
773.7143, 84.07375
774.1964, 81.65266
774.6785, 79.51531
775.1606, 77.59671
775.6428, 75.81009
776.1249, 74.12642
776.6070, 72.51144
777.0891, 70.85484
777.5712, 69.26785
778.0533, 68.06381
778.5355, 67.23134
779.0176, 66.34679
779.4997, 65.20971
779.9818, 64.04493
780.4639, 63.18633
780.9460, 62.66391
781.4282, 62.14870
781.9103, 61.64512
782.3924, 61.14118
782.8745, 60.64825
783.3566, 60.14385
783.8387, 59.56939
784.3209, 58.95319
784.8030, 58.43910
785.2851, 58.14151
785.7672, 57.89157
786.2493, 57.57539
786.7314, 57.20519
787.2136, 56.75376
787.6957, 56.24618
788.1778, 55.86092
788.6599, 55.72794
789.1420, 55.71864
789.6241, 55.50629
790.1063, 55.02736
790.5884, 54.71377
791.0705, 54.69717
791.5526, 54.64420
792.0347, 54.34559
792.5168, 53.93776
792.9990, 53.59452
793.4811, 53.32116
793.9632, 53.13578
794.4453, 53.16541
794.9274, 53.15894
795.4095, 52.89561
795.8917, 52.52574
796.3738, 52.30328
796.8559, 52.26228
797.3380, 52.22119
797.8201, 52.02533
798.3022, 51.73658
798.7844, 51.49790
799.2665, 51.30796
799.7486, 51.11736
800.2307, 50.89912
800.7128, 50.74934
801.1949, 50.77242
801.6771, 50.90844
802.1592, 50.92847
802.6413, 50.80686
803.1234, 50.60536
803.6055, 50.17364
804.0876, 49.81952
804.5698, 49.77600
805.0519, 49.87877
805.5340, 49.85790
806.0161, 49.64800
806.4982, 49.42004
806.9803, 49.28926
807.4625, 49.21562
807.9446, 49.16362
808.4267, 49.12183
808.9088, 49.04685
809.3909, 48.92721
809.8730, 48.80759
810.3552, 48.72876
810.8373, 48.68940
811.3194, 48.68654
811.8015, 48.74187
812.2836, 48.77357
812.7657, 48.79965
813.2479, 48.76290
813.7300, 48.58415
814.2121, 48.32705
814.6942, 48.13140
815.1763, 48.03189
815.6584, 47.93148
816.1406, 47.77981
816.6227, 47.63116
817.1048, 47.52305
817.5869, 47.45288
818.0690, 47.41985
818.5511, 47.41938
819.0333, 47.42059
819.5154, 47.41898
819.9975, 47.38429
820.4796, 47.17390
820.9617, 46.79387
821.4438, 46.54912
821.9260, 46.53926
822.4081, 46.59563
822.8902, 46.57510
823.3723, 46.48750
823.8544, 46.39368
824.3365, 46.21119
824.8187, 46.15670
825.3008, 46.41939
825.7829, 46.61692
826.2650, 46.48549
826.7471, 46.17800
827.2292, 45.95206
827.7114, 45.86947
828.1935, 45.85443
828.6756, 45.94592
829.1577, 46.01757
829.6398, 45.87647
830.1219, 45.61001
830.6041, 45.45725
831.0862, 45.47754
831.5683, 45.53197
832.0504, 45.49131
832.5325, 45.37999
833.0146, 45.29200
833.4968, 45.23173
833.9789, 45.15683
834.4610, 45.04487
834.9431, 44.95169
835.4252, 44.91899
835.9073, 44.93309
836.3895, 44.96293
836.8716, 45.05019
837.3537, 45.04537
837.8358, 44.88184
838.3179, 44.68314
838.8000, 44.45875
839.2822, 44.26216
839.7643, 44.14728
840.2464, 44.12792
840.7285, 44.20605
841.2106, 44.50996
841.6927, 44.79017
842.1749, 44.65641
842.6570, 44.26142
843.1391, 44.01439
843.6212, 43.98417
844.1033, 44.02382
844.5854, 44.03825
845.0676, 44.02099
845.5497, 43.93522
846.0318, 43.75233
846.5139, 43.68824
846.9960, 43.83486
847.4781, 43.91759
847.9603, 43.76323
848.4424, 43.50960
848.9245, 43.35616
849.4066, 43.30660
849.8887, 43.27244
850.3708, 43.25152
850.8530, 43.23522
851.3351, 43.24725
851.8172, 43.24295
852.2993, 43.15855
852.7814, 43.01356
853.2635, 42.88590
853.7457, 42.80838
854.2278, 42.78136
854.7099, 42.85966
855.1920, 42.97080
855.6741, 42.92126
856.1563, 42.72638
856.6384, 42.59523
857.1205, 42.62162
857.6026, 42.69381
858.0847, 42.65108
858.5668, 42.49916
859.0490, 42.42472
859.5311, 42.46112
860.0132, 42.47184
860.4953, 42.39808
860.9774, 42.32318
861.4595, 42.37059
861.9417, 42.47958
862.4238, 42.40850
862.9059, 41.97468
863.3880, 41.69222
863.8701, 41.76270
864.3522, 41.90092
864.8344, 41.93309
865.3165, 41.90541
865.7986, 41.93549
866.2807, 42.04395
866.7628, 42.10231
867.2449, 41.97369
867.7271, 41.77280
868.2092, 41.65175
868.6913, 41.58527
869.1733, 41.49890
869.6555, 41.38031
870.1376, 41.27710
870.6197, 41.22971
871.1018, 41.19856
871.5839, 41.04780
872.0660, 40.74132
872.5482, 40.69667
873.0303, 41.07584
873.5124, 41.29474
873.9945, 40.97898
874.4766, 40.48689
874.9587, 40.35635
875.4409, 40.63151
875.9230, 40.79366
876.4051, 40.80393
876.8872, 40.74976
877.3693, 40.58378
877.8514, 40.41677
878.3336, 40.35541
878.8157, 40.04111
879.2978, 40.34702
879.7799, 40.50800
880.2620, 40.53184
880.7441, 40.00778
881.2263, 40.19121
881.7084, 40.09111
882.1905, 39.97939
882.6726, 40.26240
883.1547, 39.81803
883.6368, 40.09478
884.1190, 40.08367
884.6011, 40.20431
885.0832, 40.03967
885.5653, 39.96313
886.0474, 40.17198
886.5295, 40.22282
887.0117, 40.02532
887.4938, 40.15434
887.9759, 39.75637
888.4580, 39.72681
888.9401, 39.89019
889.4222, 39.93361
889.9044, 39.69055
890.3865, 39.54876
890.8686, 39.72161
891.3507, 39.94237
891.8328, 39.95282
892.3149, 39.78277
892.7971, 39.65920
893.2792, 39.69480
893.7613, 39.68944
894.2434, 39.51470
894.7255, 39.29818
895.2076, 39.13767
895.6898, 39.03612
896.1719, 38.97467
896.6540, 38.94596
897.1361, 38.95078
897.6182, 38.99476
898.1003, 39.06964
898.5825, 39.20741
899.0646, 39.36812
899.5467, 39.35651
900.0288, 39.14045
900.5109, 38.91027
900.9930, 38.80235
901.4752, 38.78042
901.9573, 38.76250
902.4394, 38.74891
902.9215, 38.74014
903.4036, 38.74962
903.8857, 38.71884
904.3679, 38.58471
904.8500, 38.44798
905.3321, 38.44544
905.8142, 38.57705
906.2963, 38.67112
906.7784, 38.75069
907.2606, 38.76143
907.7427, 38.63038
908.2248, 38.49438
908.7069, 38.41697
909.1890, 38.40424
909.6711, 38.48582
910.1533, 38.68013
910.6354, 38.79758
911.1175, 38.67452
911.5996, 38.24161
912.0817, 38.51617
912.5638, 38.64581
913.0460, 38.63828
913.5281, 38.08288
914.0102, 38.23497
914.4923, 38.10353
914.9744, 37.96046
915.4565, 38.21213
915.9387, 37.73640
916.4208, 37.98181
916.9029, 37.93936
917.3850, 38.02866
917.8671, 37.83267
918.3492, 37.72480
918.8314, 37.90229
919.3135, 37.76863
919.7956, 37.81892
920.2777, 37.79126
920.7598, 37.80457
921.2419, 37.92461
921.7241, 37.98400
922.2062, 37.83610
922.6883, 37.58620
923.1704, 37.45987
923.6525, 37.49270
924.1346, 37.51608
924.6168, 37.55273
925.0989, 37.55040
925.5810, 37.45606
926.0631, 37.34876
926.5452, 37.30031
927.0273, 37.30015
927.5095, 37.29461
927.9916, 37.26831
928.4737, 37.23750
928.9558, 37.19804
929.4379, 37.16848
929.9200, 37.16455
930.4022, 37.18293
930.8843, 37.23655
931.3664, 37.31458
931.8485, 37.33922
932.3306, 37.22412
932.8127, 37.07930
933.2949, 37.08965
933.7770, 37.18645
934.2591, 37.15334
934.7412, 36.99789
935.2233, 36.97897
935.7054, 37.22435
936.1876, 37.47987
936.6697, 37.36451
937.1518, 36.94733
937.6339, 36.74623
938.1160, 36.78424
938.5981, 36.79144
939.0803, 36.70005
939.5624, 36.61208
940.0445, 36.59924
940.5266, 36.64379
941.0087, 36.70076
941.4908, 36.77358
941.9730, 36.84929
942.4551, 36.97109
942.9372, 37.03040
943.4193, 36.94549
943.9014, 36.82414
944.3835, 36.77028
944.8657, 36.76337
945.3478, 36.69691
945.8299, 36.49140
946.3120, 36.35098
946.7941, 36.36163
947.2762, 36.40301
947.7584, 36.42102
948.2405, 36.41502
948.7226, 36.37764
949.2047, 36.31592
949.6868, 36.28395
950.1689, 36.31997
950.6511, 36.37941
951.1332, 36.44622
951.6153, 36.50481
952.0974, 36.55431
952.5795, 36.57595
953.0616, 36.50309
953.5438, 36.31643
954.0259, 36.14100
954.5080, 36.14402
954.9901, 36.21367
955.4722, 36.07747
955.9543, 35.80891
956.4365, 35.69505
956.9186, 35.77903
957.4007, 35.94152
957.8828, 36.11945
958.3649, 36.26151
958.8470, 36.25243
959.3292, 36.10079
959.8113, 36.01723
960.2934, 36.00103
960.7755, 36.07124
961.2576, 36.26030
961.7397, 36.44239
962.2219, 36.51577
962.7040, 36.49586
963.1861, 36.43086
963.6682, 36.29525
964.1503, 36.19091
964.6324, 36.12420
965.1146, 36.07904
965.5967, 36.06672
966.0788, 36.05934
966.5609, 36.02234
967.0430, 35.96113
967.5251, 35.91226
968.0073, 35.84301
968.4894, 35.83953
968.9715, 36.03883
969.4536, 36.16531
969.9357, 35.97666
970.4178, 35.68511
970.9000, 35.59296
971.3821, 35.72123
971.8642, 35.84690
972.3463, 35.88855
972.8284, 35.91639
973.3105, 35.99543
973.7927, 36.04973
974.2748, 35.97320
974.7569, 35.82317
975.2390, 35.72705
975.7211, 35.72053
976.2032, 35.74599
976.6854, 35.76546
977.1675, 35.79384
977.6496, 35.88203
978.1317, 35.97402
978.6138, 35.95890
979.0959, 35.84541
979.5781, 35.71419
980.0602, 35.60340
980.5423, 35.51905
981.0244, 35.49608
981.5065, 35.49358
981.9886, 35.38171
982.4708, 35.19304
982.9529, 35.07312
983.4350, 35.04993
983.9171, 35.10838
984.3992, 35.24888
984.8813, 35.39526
985.3635, 35.38551
985.8456, 35.23684
986.3277, 35.22490
986.8098, 35.36375
987.2919, 35.42891
987.7740, 35.34945
988.2562, 35.26083
988.7383, 35.27851
989.2204, 35.34898
989.7025, 35.30823
990.1846, 35.11012
990.6667, 35.04375
991.1489, 35.16453
991.6310, 35.27374
992.1131, 35.31482
992.5952, 35.31636
993.0773, 35.30359
993.5594, 35.27342
994.0416, 35.20766
994.5237, 35.05925
995.0058, 34.97523
995.4879, 34.98976
995.9700, 35.02648
996.4521, 35.09401
996.9343, 35.14930
997.4164, 35.11909
997.8985, 35.02950
998.3806, 35.03381
998.8627, 35.22215
999.3448, 35.36563
999.8270, 35.42959
1000.309, 35.43657
1000.791, 35.40106
1001.273, 35.31282
1001.755, 35.11695
1002.238, 34.83897
1002.720, 34.64933
1003.202, 34.63108
1003.684, 34.65136
1004.166, 34.71183
1004.648, 34.73075
1005.130, 34.54124
1005.612, 34.31346
1006.094, 34.38920
1006.577, 34.76904
1007.059, 35.00658
1007.541, 34.76958
1008.023, 34.50284
1008.505, 34.64736
1008.987, 34.87458
1009.469, 34.73053
1009.951, 34.35676
1010.433, 34.12333
1010.916, 34.12772
1011.398, 34.23993
1011.880, 34.42346
1012.362, 34.56451
1012.844, 34.45026
1013.326, 34.22989
1013.808, 34.19250
1014.290, 34.31697
1014.773, 34.45688
1015.255, 34.55296
1015.737, 34.57851
1016.219, 34.50629
1016.701, 34.35242
1017.183, 34.07579
1017.665, 33.75060
1018.147, 33.64629
1018.629, 33.76133
1019.112, 33.89820
1019.594, 33.97650
1020.076, 34.02079
1020.558, 34.05500
1021.040, 34.07788
1021.522, 34.07926
1022.004, 34.06311
1022.486, 34.08443
1022.969, 34.14769
1023.451, 34.13340
1023.933, 33.98378
1024.415, 33.78087
1024.897, 33.60355
1025.379, 33.47004
1025.861, 33.49937
1026.343, 33.70351
1026.825, 33.83594
1027.308, 33.86845
1027.790, 33.83775
1028.272, 33.75460
1028.754, 33.63006
1029.236, 33.45488
1029.718, 33.25578
1030.200, 33.26682
1030.682, 33.55556
1031.165, 33.72691
1031.647, 33.71408
1032.129, 33.67348
1032.611, 33.68156
1033.093, 33.68999
1033.575, 33.63274
1034.057, 33.51421
1034.539, 33.39123
1035.021, 33.23453
1035.504, 33.15654
1035.986, 33.20956
1036.468, 33.25972
1036.950, 33.26033
1037.432, 33.20900
1037.914, 33.07901
1038.396, 32.87788
1038.878, 32.77149
1039.360, 32.81786
1039.843, 32.84405
1040.325, 32.79062
1040.807, 32.78785
1041.289, 32.97401
1041.771, 33.17738
1042.253, 33.14101
1042.735, 32.88330
1043.217, 32.78171
1043.700, 32.99195
1044.182, 33.11224
1044.664, 33.05294
1045.146, 32.99488
1045.628, 33.06155
1046.110, 33.13416
1046.592, 33.04915
1047.074, 32.82567
1047.557, 32.66911
1048.039, 32.59466
1048.521, 32.58855
1049.003, 32.74431
1049.485, 32.85650
1049.967, 32.70473
1050.449, 32.55200
1050.931, 32.80416
1051.413, 33.36979
1051.896, 33.60827
1052.378, 33.19545
1052.860, 32.91093
1053.342, 33.01694
1053.824, 33.14254
1054.306, 33.10567
1054.788, 33.00253
1055.270, 32.95704
1055.752, 32.95275
1056.235, 32.86208
1056.717, 32.58459
1057.199, 32.41616
1057.681, 32.52092
1058.163, 32.65056
1058.645, 32.56005
1059.127, 32.52333
1059.609, 33.05427
1060.092, 33.90909
1060.574, 34.13827
1061.056, 33.32743
1061.538, 32.62981
1062.020, 32.49477
1062.502, 32.48256
1062.984, 32.36253
1063.466, 32.25519
1063.948, 32.36395
1064.431, 32.59437
1064.913, 32.63431
1065.395, 32.37594
1065.877, 32.13813
1066.359, 32.06318
1066.841, 32.01649
1067.323, 31.94730
1067.805, 31.85602
1068.287, 31.72358
1068.770, 31.57582
1069.252, 31.47396
1069.734, 31.43431
1070.216, 31.40388
1070.698, 31.37112
1071.180, 31.32877
1071.662, 31.24581
1072.144, 31.17510
1072.627, 31.21360
1073.109, 31.28642
1073.591, 31.20545
1074.073, 30.93598
1074.555, 30.75023
1075.037, 30.85871
1075.519, 30.95596
1076.001, 30.80970
1076.484, 30.66253
1076.966, 30.80003
1077.448, 31.05630
1077.930, 31.10097
1078.412, 30.89484
1078.894, 30.71541
1079.376, 30.66933
1079.858, 30.68497
1080.340, 30.81058
1080.823, 30.90237
1081.305, 30.77676
1081.787, 30.57988
1082.269, 30.57888
1082.751, 30.76128
1083.233, 30.81519
1083.715, 30.54737
1084.197, 30.32096
1084.679, 30.31916
1085.161, 30.40343
1085.644, 30.53659
1086.126, 30.65930
1086.608, 30.69097
1087.090, 30.64751
1087.572, 30.62624
1088.054, 30.66914
1088.536, 30.68927
1089.018, 30.61619
1089.501, 30.54762
1089.983, 30.55377
1090.465, 30.58583
1090.947, 30.58488
1091.429, 30.56201
1091.911, 30.57357
1092.393, 30.64239
1092.875, 30.66461
1093.358, 30.57418
1093.840, 30.46122
1094.322, 30.30243
1094.804, 30.19901
1095.286, 30.32169
1095.768, 30.53864
1096.250, 30.55929
1096.732, 30.33348
1097.214, 30.15199
1097.697, 30.13980
1098.179, 30.14908
1098.661, 30.16770
1099.143, 30.14660
1099.625, 30.00680
1100.107, 29.82846
1100.589, 29.74665
1101.071, 29.76291
1101.553, 29.73942
1102.036, 29.58785
1102.518, 29.48733
1103.000, 29.45470
1103.482, 29.52017
1103.964, 29.89615
1104.446, 30.23799
1104.928, 30.01369
1105.410, 29.37501
1105.893, 29.14411
1106.375, 29.68787
1106.857, 29.97168
1107.339, 29.62205
1107.821, 29.21800
1108.303, 28.85887
1108.785, 28.63610
1109.267, 28.74474
1109.750, 29.02272
1110.232, 29.02904
1110.714, 28.64632
1111.196, 28.44449
1111.678, 28.68759
1112.160, 28.82279
1112.642, 28.59749
1113.124, 28.37694
1113.606, 28.42619
1114.089, 28.60071
1114.571, 28.66992
1115.053, 28.62662
1115.535, 28.55607
1116.017, 28.43685
1116.499, 28.32700
1116.981, 28.27444
1117.463, 28.16922
1117.945, 27.91345
1118.428, 27.63199
1118.910, 27.43569
1119.392, 27.33245
1119.874, 27.38648
1120.356, 27.76491
1120.838, 27.85560
1121.320, 27.45852
1121.802, 27.17728
1122.285, 27.25562
1122.767, 27.37237
1123.249, 27.25344
1123.731, 27.01367
1124.213, 26.94776
1124.695, 27.08525
1125.177, 27.10858
1125.659, 26.94899
1126.141, 26.92394
1126.624, 27.15665
1127.106, 27.32092
1127.588, 27.21504
1128.070, 26.98864
1128.552, 26.84921
1129.034, 26.79122
1129.516, 26.77930
1129.998, 26.82338
1130.480, 26.82528
1130.963, 26.77138
1131.445, 26.71663
1131.927, 26.68578
1132.409, 26.63535
1132.891, 26.52162
1133.373, 26.36378
1133.855, 26.19882
1134.337, 26.03120
1134.820, 25.96467
1135.302, 25.99735
1135.784, 25.85819
1136.266, 25.48841
1136.748, 25.49775
1137.230, 26.31335
1137.712, 27.27712
1138.194, 27.37577
1138.677, 26.83094
1139.159, 26.30979
1139.641, 25.83868
1140.123, 25.55262
1140.605, 25.45358
1141.087, 25.45382
1141.569, 25.51291
1142.051, 25.58456
1142.533, 25.63581
1143.016, 25.65323
1143.498, 25.56805
1143.980, 25.45513
1144.462, 25.53092
1144.944, 25.71415
1145.426, 25.72226
1145.908, 25.52471
1146.390, 25.33345
1146.872, 25.26521
1147.355, 25.26041
1147.837, 25.32185
1148.319, 25.35964
1148.801, 25.20157
1149.283, 24.98753
1149.765, 24.93965
1150.247, 25.04184
1150.729, 25.19942
1151.212, 25.37452
1151.694, 25.43392
1152.176, 25.20305
1152.658, 24.96441
1153.140, 24.86906
1153.622, 24.87510
1154.104, 25.03800
1154.586, 25.22415
1155.068, 25.20132
1155.551, 24.99199
1156.033, 24.87829
1156.515, 24.98837
1156.997, 25.06882
1157.479, 24.93960
1157.961, 24.88443
1158.443, 25.13010
1158.925, 25.42143
1159.407, 25.58474
1159.890, 25.60147
1160.372, 25.39051
1160.854, 24.88831
1161.336, 24.69540
1161.818, 25.16730
1162.300, 25.48206
1162.782, 25.38670
1163.264, 25.31852
1163.747, 25.56277
1164.229, 25.83615
1164.711, 25.77166
1165.193, 25.44924
1165.675, 25.31483
1166.157, 25.42290
1166.639, 25.55624
1167.121, 25.75639
1167.604, 25.84648
1168.086, 25.74783
1168.568, 25.64127
1169.050, 25.68334
1169.532, 25.70436
1170.014, 25.35131
1170.496, 24.68991
1170.978, 24.44261
1171.460, 24.62051
1171.943, 24.71568
1172.425, 24.67008
1172.907, 24.56995
1173.389, 24.44612
1173.871, 24.37740
1174.353, 24.45300
1174.835, 24.56394
1175.317, 24.47245
1175.799, 24.23391
1176.282, 24.01773
1176.764, 23.83104
1177.246, 23.69951
1177.728, 23.60580
1178.210, 23.41899
1178.692, 23.07871
1179.174, 22.74390
1179.656, 22.60024
1180.139, 22.51524
1180.621, 22.30055
1181.103, 22.05071
1181.585, 21.89196
1182.067, 21.81699
1182.549, 21.79800
1183.031, 21.81384
1183.513, 21.81237
1183.995, 21.77698
1184.478, 21.69391
1184.960, 21.48354
1185.442, 21.30664
1185.924, 21.32480
1186.406, 21.38467
1186.888, 21.29386
1187.370, 21.12516
1187.852, 21.08461
1188.334, 21.20761
1188.817, 21.28109
1189.299, 21.20591
1189.781, 21.16452
1190.263, 21.23491
1190.745, 21.28843
1191.227, 21.26879
1191.709, 21.20359
1192.191, 21.11923
1192.674, 21.01049
1193.156, 20.85974
1193.638, 20.66168
1194.120, 20.43962
1194.602, 20.17565
1195.084, 19.94693
1195.566, 19.77371
1196.048, 19.61557
1196.531, 19.45307
1197.013, 19.29158
1197.495, 19.13604
1197.977, 18.98983
1198.459, 18.86829
1198.941, 18.77009
1199.423, 18.66431
1199.905, 18.55112
1200.387, 18.42808
1200.870, 18.30173
1201.352, 18.24778
1201.834, 18.31321
1202.316, 18.45628
1202.798, 18.68934
1203.280, 18.91068
1203.762, 18.87610
1204.244, 18.72414
1204.726, 18.79756
1205.209, 18.98529
1205.691, 18.82414
1206.173, 18.28316
1206.655, 17.93815
1207.137, 18.15145
1207.619, 18.40270
1208.101, 18.33801
1208.583, 18.17956
1209.066, 18.01518
1209.548, 17.90743
1210.030, 17.99749
1210.512, 18.16554
1210.994, 18.07759
1211.476, 17.68551
1211.958, 17.56771
1212.440, 18.01293
1212.922, 18.46468
1213.405, 19.02420
1213.887, 19.33710
1214.369, 19.01019
1214.851, 18.68703
1215.333, 18.99236
1215.815, 19.66499
1216.297, 20.05007
1216.779, 20.13655
1217.261, 20.08372
1217.744, 19.82330
1218.226, 19.82174
1218.708, 20.17781
1219.190, 20.50667
1219.672, 20.63750
1220.154, 20.77060
1220.636, 21.12428
1221.118, 21.51532
1221.600, 21.50215
1222.083, 21.19449
1222.565, 20.96506
1223.047, 20.82311
1223.529, 20.77562
1224.011, 20.81377
1224.493, 20.89422
1224.975, 21.00178
1225.457, 21.18995
1225.940, 21.58087
1226.422, 21.91445
1226.904, 21.90502
1227.386, 21.74247
1227.868, 21.56373
1228.350, 21.40299
1228.832, 21.23477
1229.314, 21.11517
1229.797, 21.25723
1230.279, 21.75552
1230.761, 22.05424
1231.243, 21.78662
1231.725, 21.61056
1232.207, 21.77187
1232.689, 21.97114
1233.171, 22.05636
1233.653, 22.10167
1234.135, 22.22219
1234.618, 22.35135
1235.100, 22.21605
1235.582, 21.72554
1236.064, 21.60377
1236.546, 21.91265
1237.028, 22.31717
1237.510, 22.81017
1237.992, 23.00274
1238.475, 22.68103
1238.957, 22.37064
1239.439, 22.64434
1239.921, 23.19847
1240.403, 23.33573
1240.885, 23.22828
1241.367, 23.49698
1241.849, 23.97956
1242.332, 24.06469
1242.814, 23.76832
1243.296, 23.58610
1243.778, 23.69992
1244.260, 23.87358
1244.742, 23.91568
1245.224, 24.01413
1245.706, 24.38212
1246.188, 24.78946
1246.671, 25.08751
1247.153, 25.28259
1247.635, 25.33574
1248.117, 25.31721
1248.599, 25.41646
1249.081, 25.67514
1249.563, 25.91441
1250.045, 26.16570
1250.527, 26.29856
1251.010, 26.09114
1251.492, 26.15827
1251.974, 26.90948
1252.456, 27.67270
1252.938, 27.81410
1253.420, 27.62657
1253.902, 27.79605
1254.384, 28.28843
1254.867, 28.56412
1255.349, 28.63439
1255.831, 28.70451
1256.313, 28.79810
1256.795, 28.90657
1257.277, 29.01530
1257.759, 28.98704
1258.241, 28.70541
1258.724, 28.36053
1259.206, 28.11780
1259.688, 28.00155
1260.170, 28.12830
1260.652, 28.34258
1261.134, 28.45590
1261.616, 28.45930
1262.098, 28.37737
1262.580, 28.22334
1263.063, 28.03374
1263.545, 27.79873
1264.027, 27.58475
1264.509, 27.41787
1264.991, 27.26439
1265.473, 27.19601
1265.955, 27.03933
1266.437, 26.65951
1266.919, 26.16263
1267.402, 25.68813
1267.884, 25.23147
1268.366, 24.76796
1268.848, 24.30142
1269.330, 23.84433
1269.812, 23.40701
1270.294, 22.49523
1270.776, 21.03184
1271.259, 20.28517
1271.741, 20.89261
1272.223, 21.77057
1272.705, 21.84740
1273.187, 21.47585
1273.669, 21.10510
1274.151, 20.70311
1274.633, 20.12603
1275.115, 19.53483
1275.598, 19.34197
1276.080, 19.39427
1276.562, 19.02906
1277.044, 18.07741
1277.526, 17.44275
1278.008, 17.67878
1278.490, 17.93018
1278.972, 18.00475
1279.454, 18.01804
1279.937, 18.03477
1280.419, 17.98772
1280.901, 17.73468
1281.383, 17.46629
1281.865, 17.58310
1282.347, 18.05200
1282.829, 18.36871
1283.311, 18.52739
1283.794, 18.62458
1284.276, 18.66778
1284.758, 18.76900
1285.240, 18.94982
1285.722, 19.08132
1286.204, 19.09058
##END=



