##NAMES=Spinel
##RRUFFID=R060798
##IDEAL CHEMISTRY=MgAl_2_O_4_
##LOCALITY=Onentura mine, Camaguey Province, Cuba
##OWNER=RRUFF
##SOURCE=George Rossman
##DESCRIPTION=Black granular massive
##STATUS=The identification of this mineral is confirmed by single-crystal X-ray diffraction and chemical analysis.
##URL=rruff.info/R060798
##MEASURED CHEMISTRY=(Mg_0.77_Fe^2+^_0.23_)_Σ=1_(Al_1.09_Cr_0.82_Fe^3+^_0.09_)_Σ=2_O_4_
176.007, 1157.544
176.489, 1155.801
176.971, 1163.719
177.453, 1165.486
177.935, 1153.450
178.417, 1139.807
178.900, 1137.961
179.382, 1147.838
179.864, 1157.515
180.346, 1160.816
180.828, 1158.126
181.310, 1150.641
181.792, 1135.483
182.274, 1119.213
182.757, 1107.351
183.239, 1099.818
183.721, 1094.972
184.203, 1092.824
184.685, 1092.904
185.167, 1092.621
185.649, 1092.160
186.131, 1090.336
186.613, 1085.311
187.096, 1077.509
187.578, 1071.129
188.060, 1071.238
188.542, 1076.319
189.024, 1075.501
189.506, 1061.559
189.988, 1048.717
190.470, 1051.791
190.952, 1067.914
191.435, 1077.261
191.917, 1059.135
192.399, 1019.154
192.881, 994.367
193.363, 994.391
193.845, 1003.752
194.327, 1013.090
194.809, 1022.053
195.292, 1029.635
195.774, 1036.894
196.256, 1042.950
196.738, 1041.456
197.220, 1026.733
197.702, 1011.194
198.184, 1002.004
198.666, 998.377
199.148, 997.417
199.631, 999.148
200.113, 1002.655
200.595, 1002.347
201.077, 994.121
201.559, 987.906
202.041, 991.236
202.523, 1001.095
203.005, 1009.344
203.488, 1011.585
203.970, 1008.382
204.452, 1001.133
204.934, 985.846
205.416, 972.973
205.898, 969.495
206.380, 972.140
206.862, 974.187
207.344, 971.709
207.827, 965.878
208.309, 959.950
208.791, 952.269
209.273, 947.804
209.755, 953.096
210.237, 962.507
210.719, 965.872
211.201, 955.792
211.684, 937.562
212.166, 923.943
212.648, 914.579
213.130, 911.097
213.612, 920.334
214.094, 933.918
214.576, 939.343
215.058, 927.308
215.540, 907.971
216.023, 903.394
216.505, 919.256
216.987, 934.253
217.469, 938.932
217.951, 938.060
218.433, 936.265
218.915, 934.647
219.397, 933.653
219.880, 934.120
220.362, 936.317
220.844, 939.017
221.326, 944.119
221.808, 948.464
222.290, 947.976
222.772, 940.261
223.254, 931.262
223.736, 930.373
224.219, 939.598
224.701, 943.967
225.183, 932.031
225.665, 916.288
226.147, 907.923
226.629, 909.930
227.111, 914.407
227.593, 911.898
228.076, 901.919
228.558, 896.624
229.040, 903.685
229.522, 913.725
230.004, 917.963
230.486, 915.207
230.968, 912.328
231.450, 918.296
231.932, 931.961
232.415, 935.428
232.897, 916.584
233.379, 894.832
233.861, 888.276
234.343, 897.037
234.825, 906.709
235.307, 908.456
235.789, 903.324
236.271, 895.499
236.754, 882.674
237.236, 871.594
237.718, 867.419
238.200, 869.556
238.682, 875.078
239.164, 888.286
239.646, 903.726
240.128, 905.078
240.611, 885.675
241.093, 863.763
241.575, 851.780
242.057, 848.426
242.539, 852.529
243.021, 873.245
243.503, 898.052
243.985, 902.674
244.467, 881.599
244.950, 861.751
245.432, 869.238
245.914, 892.804
246.396, 906.881
246.878, 898.427
247.360, 882.357
247.842, 874.440
248.324, 874.929
248.807, 878.066
249.289, 882.074
249.771, 886.015
250.253, 887.779
250.735, 885.655
251.217, 882.949
251.699, 881.600
252.181, 881.621
252.663, 883.701
253.146, 890.105
253.628, 897.240
254.110, 896.352
254.592, 881.384
255.074, 869.999
255.556, 875.478
256.038, 891.910
256.520, 902.047
257.003, 898.331
257.485, 887.959
257.967, 884.956
258.449, 891.087
258.931, 896.307
259.413, 898.349
259.895, 897.497
260.377, 892.938
260.859, 883.928
261.341, 874.876
261.824, 872.585
262.306, 878.813
262.788, 883.231
263.270, 883.234
263.752, 881.813
264.234, 882.730
264.716, 886.351
265.198, 888.721
265.681, 885.113
266.163, 873.970
266.645, 868.164
267.127, 870.306
267.609, 875.349
268.091, 882.558
268.573, 890.536
269.055, 894.775
269.538, 890.993
270.020, 879.450
270.502, 873.169
270.984, 873.915
271.466, 876.807
271.948, 882.978
272.430, 889.919
272.912, 892.334
273.394, 886.786
273.877, 875.739
274.359, 869.737
274.841, 873.717
275.323, 877.064
275.805, 879.646
276.287, 880.641
276.769, 877.608
277.251, 869.761
277.733, 861.330
278.216, 861.429
278.698, 879.625
279.180, 890.727
279.662, 889.959
280.144, 885.755
280.626, 884.535
281.108, 887.416
281.590, 891.223
282.073, 892.308
282.555, 890.622
283.037, 886.181
283.519, 874.856
284.001, 864.573
284.483, 858.286
284.965, 856.228
285.447, 858.020
285.930, 864.503
286.412, 875.357
286.894, 882.134
287.376, 882.588
287.858, 881.196
288.340, 879.168
288.822, 876.411
289.304, 872.358
289.786, 866.222
290.268, 859.269
290.751, 854.542
291.233, 851.055
291.715, 852.375
292.197, 864.495
292.679, 879.324
293.161, 888.081
293.643, 887.372
294.125, 884.066
294.608, 889.241
295.090, 904.553
295.572, 911.603
296.054, 896.477
296.536, 878.231
297.018, 873.808
297.500, 884.662
297.982, 897.440
298.465, 904.811
298.947, 906.625
299.429, 900.189
299.911, 879.854
300.393, 860.536
300.875, 857.400
301.357, 867.646
301.839, 878.173
302.321, 882.659
302.804, 885.316
303.286, 894.577
303.768, 911.996
304.250, 925.211
304.732, 922.510
305.214, 907.726
305.696, 898.323
306.178, 899.684
306.660, 903.102
307.143, 903.420
307.625, 900.873
308.107, 895.721
308.589, 886.546
309.071, 876.452
309.553, 876.090
310.035, 892.621
310.517, 905.140
311.000, 906.920
311.482, 901.727
311.964, 893.674
312.446, 883.965
312.928, 874.705
313.410, 869.289
313.892, 869.773
314.374, 869.687
314.857, 867.926
315.339, 866.422
315.821, 867.000
316.303, 869.509
316.785, 872.062
317.267, 872.718
317.749, 871.193
318.231, 872.014
318.713, 880.899
319.195, 886.008
319.678, 877.120
320.160, 862.502
320.642, 859.142
321.124, 878.156
321.606, 910.286
322.088, 922.575
322.570, 901.434
323.052, 881.127
323.535, 863.206
324.017, 850.284
324.499, 845.508
324.981, 849.569
325.463, 858.929
325.945, 870.195
326.427, 884.312
326.909, 894.898
327.392, 901.632
327.874, 903.904
328.356, 896.172
328.838, 881.500
329.320, 873.734
329.802, 891.076
330.284, 924.898
330.766, 937.252
331.248, 918.349
331.731, 897.509
332.213, 891.906
332.695, 896.594
333.177, 904.362
333.659, 918.063
334.141, 928.980
334.623, 922.156
335.105, 898.552
335.587, 883.807
336.070, 892.930
336.552, 914.780
337.034, 927.881
337.516, 931.591
337.998, 929.188
338.480, 916.927
338.962, 900.384
339.444, 890.086
339.927, 888.838
340.409, 892.977
340.891, 898.976
341.373, 907.667
341.855, 913.936
342.337, 917.288
342.819, 918.366
343.301, 915.636
343.784, 910.358
344.266, 907.796
344.748, 912.524
345.230, 923.664
345.712, 929.548
346.194, 927.491
346.676, 923.657
347.158, 916.469
347.640, 909.136
348.122, 906.397
348.605, 910.116
349.087, 917.069
349.569, 920.773
350.051, 918.785
350.533, 918.771
351.015, 922.730
351.497, 927.228
351.979, 931.989
352.462, 935.870
352.944, 935.211
353.426, 922.736
353.908, 899.533
354.390, 891.135
354.872, 908.753
355.354, 925.415
355.836, 925.560
356.319, 917.563
356.801, 916.589
357.283, 932.940
357.765, 953.004
358.247, 953.939
358.729, 933.967
359.211, 918.004
359.693, 916.214
360.175, 922.417
360.658, 928.515
361.140, 934.642
361.622, 939.004
362.104, 939.482
362.586, 937.727
363.068, 938.075
363.550, 941.921
364.032, 944.164
364.514, 937.760
364.997, 922.208
365.479, 913.759
365.961, 917.560
366.443, 925.000
366.925, 931.843
367.407, 937.576
367.889, 941.894
368.371, 944.637
368.853, 945.790
369.336, 945.302
369.818, 939.955
370.300, 936.990
370.782, 939.099
371.264, 942.758
371.746, 942.621
372.228, 938.182
372.711, 936.038
373.193, 947.360
373.675, 978.766
374.157, 994.435
374.639, 976.940
375.121, 959.823
375.603, 956.785
376.085, 964.148
376.567, 971.397
377.049, 972.524
377.532, 968.954
378.014, 964.415
378.496, 958.704
378.978, 952.508
379.460, 940.301
379.942, 930.744
380.424, 935.029
380.906, 957.013
381.389, 978.342
381.871, 982.049
382.353, 972.500
382.835, 967.557
383.317, 971.891
383.799, 977.829
384.281, 978.110
384.763, 973.304
385.246, 965.365
385.728, 951.184
386.210, 936.611
386.692, 925.572
387.174, 918.358
387.656, 915.425
388.138, 917.402
388.620, 923.343
389.102, 929.803
389.585, 937.055
390.067, 944.395
390.549, 954.232
391.031, 962.821
391.513, 964.254
391.995, 958.186
392.477, 952.083
392.959, 955.732
393.441, 971.595
393.924, 981.931
394.406, 980.704
394.888, 979.760
395.370, 983.951
395.852, 991.078
396.334, 997.479
396.816, 1002.016
397.298, 1002.656
397.780, 991.342
398.263, 962.044
398.745, 944.369
399.227, 956.250
399.709, 976.874
400.191, 990.646
400.673, 996.073
401.155, 998.751
401.638, 1001.856
402.120, 1004.876
402.602, 1006.489
403.084, 1006.487
403.566, 1005.379
404.048, 1002.471
404.530, 998.565
405.012, 997.776
405.494, 1007.424
405.977, 1013.226
406.459, 1002.458
406.941, 982.312
407.423, 970.125
407.905, 973.141
408.387, 983.720
408.869, 987.824
409.351, 979.800
409.833, 977.076
410.316, 984.027
410.798, 992.412
411.280, 997.110
411.762, 998.197
412.244, 998.787
412.726, 1001.846
413.208, 1006.129
413.690, 1002.720
414.172, 984.227
414.655, 970.343
415.137, 965.385
415.619, 966.664
416.101, 972.938
416.583, 983.999
417.065, 995.297
417.547, 1003.041
418.029, 1007.262
418.512, 1007.228
418.994, 999.913
419.476, 993.789
419.958, 999.336
420.440, 1012.620
420.922, 1020.266
421.404, 1014.785
421.886, 1005.979
422.368, 1001.309
422.851, 1000.321
423.333, 1001.143
423.815, 1003.468
424.297, 1005.890
424.779, 1005.011
425.261, 997.051
425.743, 993.345
426.225, 999.536
426.708, 1006.666
427.190, 1005.946
427.672, 998.219
428.154, 991.891
428.636, 994.511
429.118, 1004.933
429.600, 1009.706
430.082, 1003.654
430.565, 999.136
431.047, 1001.000
431.529, 1004.408
432.011, 1003.215
432.493, 995.744
432.975, 988.130
433.457, 988.807
433.939, 996.924
434.421, 1000.364
434.904, 995.683
435.386, 989.718
435.868, 987.024
436.350, 987.110
436.832, 989.029
437.314, 993.135
437.796, 998.494
438.278, 1006.476
438.760, 1015.606
439.243, 1019.396
439.725, 1014.506
440.207, 1005.195
440.689, 999.347
441.171, 998.882
441.653, 997.630
442.135, 993.604
442.617, 990.170
443.099, 990.451
443.582, 993.726
444.064, 996.970
444.546, 998.168
445.028, 997.368
445.510, 994.182
445.992, 983.720
446.474, 979.788
446.957, 990.127
447.439, 1003.888
447.921, 1012.102
448.403, 1013.262
448.885, 1011.626
449.367, 1008.331
449.849, 1004.807
450.331, 1009.149
450.813, 1025.286
451.296, 1038.355
451.778, 1036.471
452.260, 1024.301
452.742, 1013.815
453.224, 1004.841
453.706, 999.464
454.188, 998.849
454.670, 1002.638
455.152, 1012.291
455.635, 1028.387
456.117, 1043.374
456.599, 1047.346
457.081, 1037.700
457.563, 1029.090
458.045, 1020.502
458.527, 1013.771
459.009, 1009.431
459.491, 1007.516
459.974, 1008.513
460.456, 1012.775
460.938, 1018.616
461.420, 1022.741
461.902, 1024.730
462.384, 1027.010
462.866, 1031.042
463.348, 1034.330
463.831, 1034.876
464.313, 1033.151
464.795, 1031.410
465.277, 1031.309
465.759, 1031.475
466.241, 1029.309
466.723, 1025.047
467.205, 1022.318
467.687, 1022.734
468.170, 1025.569
468.652, 1030.007
469.134, 1038.029
469.616, 1042.161
470.098, 1037.938
470.580, 1031.839
471.062, 1028.592
471.544, 1028.721
472.026, 1031.309
472.509, 1035.921
472.991, 1042.142
473.473, 1047.527
473.955, 1051.651
474.437, 1055.628
474.919, 1061.019
475.401, 1065.430
475.883, 1067.584
476.366, 1067.022
476.848, 1062.654
477.330, 1048.828
477.812, 1030.242
478.294, 1024.812
478.776, 1035.513
479.258, 1048.819
479.740, 1060.654
480.223, 1068.432
480.705, 1066.091
481.187, 1046.720
481.669, 1030.269
482.151, 1025.235
482.633, 1027.473
483.115, 1034.422
483.597, 1044.537
484.079, 1050.419
484.561, 1043.734
485.044, 1024.638
485.526, 1013.909
486.008, 1019.448
486.490, 1024.769
486.972, 1026.549
487.454, 1026.977
487.936, 1028.683
488.418, 1032.353
488.901, 1036.634
489.383, 1041.459
489.865, 1046.359
490.347, 1044.610
490.829, 1031.223
491.311, 1021.141
491.793, 1028.728
492.275, 1045.861
492.758, 1056.670
493.240, 1056.851
493.722, 1053.807
494.204, 1051.283
494.686, 1048.599
495.168, 1043.901
495.650, 1036.836
496.132, 1029.619
496.614, 1024.242
497.097, 1020.429
497.579, 1021.877
498.061, 1035.306
498.543, 1045.928
499.025, 1048.541
499.507, 1046.631
499.989, 1045.195
500.471, 1045.784
500.953, 1045.140
501.436, 1034.772
501.918, 1015.193
502.400, 1014.819
502.882, 1047.447
503.364, 1077.132
503.846, 1074.024
504.328, 1052.176
504.810, 1039.141
505.293, 1045.184
505.775, 1052.582
506.257, 1047.965
506.739, 1037.483
507.221, 1033.172
507.703, 1037.985
508.185, 1048.767
508.667, 1063.892
509.150, 1084.725
509.632, 1092.588
510.114, 1075.178
510.596, 1059.857
511.078, 1057.830
511.560, 1059.971
512.042, 1051.274
512.524, 1027.968
513.006, 1007.151
513.489, 1011.663
513.971, 1039.672
514.453, 1064.555
514.935, 1087.231
515.417, 1101.451
515.899, 1096.328
516.381, 1080.961
516.863, 1073.004
517.346, 1076.249
517.828, 1084.405
518.310, 1097.879
518.792, 1112.955
519.274, 1123.221
519.756, 1127.602
520.238, 1129.466
520.720, 1131.528
521.202, 1133.819
521.685, 1138.833
522.167, 1155.580
522.649, 1163.922
523.131, 1153.339
523.613, 1137.087
524.095, 1127.054
524.577, 1126.206
525.059, 1132.526
525.541, 1150.314
526.024, 1174.702
526.506, 1182.556
526.988, 1169.645
527.470, 1155.923
527.952, 1152.643
528.434, 1155.753
528.916, 1154.515
529.398, 1144.919
529.880, 1140.325
530.363, 1148.818
530.845, 1161.901
531.327, 1173.933
531.809, 1182.413
532.291, 1180.690
532.773, 1161.592
533.255, 1131.098
533.737, 1119.566
534.219, 1139.773
534.702, 1154.908
535.184, 1157.302
535.666, 1154.695
536.148, 1150.120
536.630, 1144.978
537.112, 1143.281
537.594, 1150.016
538.076, 1160.567
538.559, 1168.156
539.041, 1172.749
539.523, 1173.394
540.005, 1168.430
540.487, 1161.488
540.969, 1159.141
541.451, 1163.459
541.933, 1165.843
542.416, 1166.272
542.898, 1164.409
543.380, 1158.179
543.862, 1149.723
544.344, 1143.248
544.826, 1140.875
545.308, 1141.368
545.790, 1144.143
546.273, 1150.516
546.755, 1149.329
547.237, 1134.235
547.719, 1118.017
548.201, 1106.643
548.683, 1100.561
549.165, 1101.850
549.647, 1117.372
550.129, 1132.050
550.612, 1131.854
551.094, 1123.680
551.576, 1122.168
552.058, 1130.879
552.540, 1144.363
553.022, 1157.982
553.504, 1171.884
553.986, 1179.215
554.468, 1174.027
554.951, 1168.857
555.433, 1165.499
555.915, 1163.313
556.397, 1161.016
556.879, 1158.533
557.361, 1158.008
557.843, 1163.384
558.325, 1172.020
558.807, 1174.085
559.290, 1168.193
559.772, 1166.757
560.254, 1177.900
560.736, 1196.116
561.218, 1208.995
561.700, 1217.529
562.182, 1219.355
562.664, 1205.078
563.146, 1191.208
563.629, 1193.021
564.111, 1206.806
564.593, 1219.123
565.075, 1222.384
565.557, 1219.109
566.039, 1213.861
566.521, 1205.818
567.003, 1200.179
567.486, 1199.968
567.968, 1199.567
568.450, 1192.428
568.932, 1181.708
569.414, 1177.480
569.896, 1182.615
570.378, 1194.829
570.860, 1220.558
571.343, 1250.637
571.825, 1264.125
572.307, 1256.309
572.789, 1242.102
573.271, 1236.401
573.753, 1239.275
574.235, 1243.159
574.717, 1247.996
575.200, 1254.001
575.682, 1265.091
576.164, 1274.989
576.646, 1276.010
577.128, 1267.740
577.610, 1259.708
578.092, 1258.912
578.574, 1262.893
579.056, 1268.077
579.539, 1274.234
580.021, 1276.784
580.503, 1271.967
580.985, 1265.440
581.467, 1268.280
581.949, 1285.830
582.431, 1299.487
582.913, 1306.645
583.395, 1312.436
583.878, 1319.902
584.360, 1327.936
584.842, 1334.186
585.324, 1337.605
585.806, 1339.109
586.288, 1339.314
586.770, 1338.335
587.252, 1338.068
587.734, 1338.067
588.217, 1340.619
588.699, 1350.231
589.181, 1363.313
589.663, 1368.524
590.145, 1359.361
590.627, 1352.892
591.109, 1356.786
591.591, 1364.288
592.073, 1368.307
592.556, 1368.603
593.038, 1368.842
593.520, 1371.375
594.002, 1376.224
594.484, 1384.042
594.966, 1396.195
595.448, 1406.578
595.930, 1416.940
596.413, 1422.046
596.895, 1414.184
597.377, 1396.913
597.859, 1386.391
598.341, 1390.418
598.823, 1399.312
599.305, 1410.920
599.787, 1421.663
600.269, 1423.140
600.752, 1413.710
601.234, 1401.156
601.716, 1392.398
602.198, 1387.638
602.680, 1392.768
603.162, 1418.190
603.644, 1436.163
604.127, 1436.312
604.609, 1429.935
605.091, 1426.135
605.573, 1425.798
606.055, 1425.731
606.537, 1425.411
607.019, 1423.694
607.501, 1416.632
607.983, 1406.220
608.466, 1402.829
608.948, 1411.137
609.430, 1421.648
609.912, 1418.876
610.394, 1397.691
610.876, 1390.431
611.358, 1409.989
611.840, 1429.044
612.322, 1443.780
612.805, 1452.346
613.287, 1451.217
613.769, 1439.696
614.251, 1426.455
614.733, 1418.000
615.215, 1412.575
615.697, 1406.492
616.179, 1399.705
616.661, 1393.829
617.144, 1389.398
617.626, 1387.115
618.108, 1388.826
618.590, 1397.619
619.072, 1402.597
619.554, 1401.747
620.036, 1399.528
620.518, 1398.182
621.000, 1396.773
621.483, 1393.565
621.965, 1387.924
622.447, 1380.627
622.929, 1369.836
623.411, 1358.020
623.893, 1355.619
624.375, 1364.313
624.857, 1369.458
625.340, 1360.661
625.822, 1343.953
626.304, 1336.607
626.786, 1348.910
627.268, 1352.208
627.750, 1334.419
628.232, 1318.495
628.714, 1321.716
629.196, 1336.866
629.679, 1347.744
630.161, 1347.465
630.643, 1338.823
631.125, 1319.812
631.607, 1294.076
632.089, 1282.293
632.571, 1289.152
633.054, 1295.060
633.536, 1285.614
634.018, 1265.753
634.500, 1253.800
634.982, 1250.792
635.464, 1253.655
635.946, 1277.933
636.428, 1294.295
636.910, 1273.215
637.393, 1227.784
637.875, 1194.321
638.357, 1192.208
638.839, 1203.539
639.321, 1204.701
639.803, 1197.226
640.285, 1191.245
640.767, 1188.343
641.250, 1185.958
641.732, 1182.683
642.214, 1178.349
642.696, 1172.173
643.178, 1163.242
643.660, 1153.955
644.142, 1140.668
644.624, 1130.352
645.106, 1130.845
645.589, 1138.729
646.071, 1143.756
646.553, 1140.192
647.035, 1133.523
647.517, 1132.467
647.999, 1135.623
648.481, 1133.341
648.963, 1123.227
649.445, 1113.326
649.928, 1109.154
650.410, 1110.083
650.892, 1113.172
651.374, 1121.809
651.856, 1127.760
652.338, 1127.205
652.820, 1126.679
653.302, 1130.769
653.784, 1138.756
654.267, 1147.427
654.749, 1154.907
655.231, 1163.582
655.713, 1179.039
656.195, 1198.802
656.677, 1211.718
657.159, 1215.894
657.641, 1215.568
658.123, 1211.574
658.606, 1206.629
659.088, 1211.757
659.570, 1235.696
660.052, 1257.582
660.534, 1280.359
661.016, 1298.333
661.498, 1304.050
661.981, 1302.578
662.463, 1306.563
662.945, 1323.338
663.427, 1339.471
663.909, 1338.431
664.391, 1326.078
664.873, 1317.761
665.355, 1315.477
665.837, 1316.334
666.320, 1318.387
666.802, 1322.315
667.284, 1330.737
667.766, 1349.575
668.248, 1361.710
668.730, 1363.565
669.212, 1362.648
669.694, 1364.806
670.177, 1366.243
670.659, 1357.259
671.141, 1331.686
671.623, 1309.475
672.105, 1308.361
672.587, 1319.477
673.069, 1327.657
673.551, 1331.938
674.033, 1339.053
674.516, 1353.770
674.998, 1369.103
675.480, 1366.554
675.962, 1334.693
676.444, 1320.986
676.926, 1343.670
677.408, 1362.220
677.890, 1356.026
678.372, 1336.852
678.855, 1320.898
679.337, 1310.345
679.819, 1306.151
680.301, 1312.130
680.783, 1322.432
681.265, 1332.794
681.747, 1341.837
682.229, 1347.331
682.711, 1348.297
683.194, 1344.709
683.676, 1333.101
684.158, 1311.927
684.640, 1309.623
685.122, 1337.365
685.604, 1359.041
686.086, 1354.451
686.568, 1338.320
687.050, 1329.647
687.533, 1328.367
688.015, 1336.663
688.497, 1371.146
688.979, 1399.365
689.461, 1391.906
689.943, 1366.860
690.425, 1356.682
690.907, 1370.130
691.390, 1390.162
691.872, 1400.768
692.354, 1403.369
692.836, 1399.619
693.318, 1387.481
693.800, 1393.371
694.282, 1434.369
694.764, 1481.533
695.247, 1496.980
695.729, 1476.839
696.211, 1467.021
696.693, 1471.618
697.175, 1480.967
697.657, 1496.233
698.139, 1512.579
698.621, 1527.365
699.104, 1538.986
699.586, 1543.406
700.068, 1533.753
700.550, 1520.526
701.032, 1517.210
701.514, 1523.262
701.996, 1538.789
702.478, 1564.221
702.960, 1590.219
703.443, 1610.204
703.925, 1623.105
704.407, 1620.287
704.889, 1579.618
705.371, 1564.389
705.853, 1604.811
706.335, 1649.589
706.817, 1667.537
707.299, 1666.353
707.782, 1669.375
708.264, 1685.270
708.746, 1702.179
709.228, 1713.022
709.710, 1720.490
710.192, 1728.169
710.674, 1736.059
711.156, 1741.503
711.638, 1742.711
712.121, 1743.074
712.603, 1748.775
713.085, 1759.924
713.567, 1776.367
714.049, 1802.101
714.531, 1823.078
715.013, 1829.046
715.495, 1826.891
715.977, 1831.859
716.460, 1848.387
716.942, 1854.952
717.424, 1837.788
717.906, 1820.897
718.388, 1821.098
718.870, 1829.474
719.352, 1829.515
719.834, 1817.343
720.317, 1805.927
720.799, 1811.270
721.281, 1824.584
721.763, 1824.399
722.245, 1811.750
722.727, 1798.418
723.209, 1788.161
723.691, 1779.708
724.174, 1772.631
724.656, 1766.993
725.138, 1753.380
725.620, 1723.068
726.102, 1698.233
726.584, 1683.102
727.066, 1673.943
727.548, 1673.797
728.031, 1678.422
728.513, 1670.730
728.995, 1635.420
729.477, 1599.546
729.959, 1583.022
730.441, 1575.868
730.923, 1561.841
731.405, 1541.014
731.887, 1527.046
732.370, 1529.786
732.852, 1539.151
733.334, 1533.447
733.816, 1512.180
734.298, 1488.363
734.780, 1460.935
735.262, 1437.843
735.744, 1425.127
736.226, 1419.140
736.709, 1410.875
737.191, 1398.483
737.673, 1388.667
738.155, 1386.132
738.637, 1381.623
739.119, 1369.854
739.601, 1353.663
740.083, 1334.996
740.565, 1314.945
741.048, 1301.557
741.530, 1308.389
742.012, 1320.748
742.494, 1314.944
742.976, 1295.033
743.458, 1278.573
743.940, 1270.864
744.422, 1263.103
744.904, 1245.127
745.387, 1218.533
745.869, 1198.674
746.351, 1187.397
746.833, 1177.316
747.315, 1166.173
747.797, 1156.685
748.279, 1150.971
748.761, 1148.685
749.244, 1149.069
749.726, 1154.915
750.208, 1159.064
750.690, 1161.768
751.172, 1160.057
751.654, 1148.126
752.136, 1129.781
752.618, 1114.683
753.101, 1107.122
753.583, 1104.113
754.065, 1104.460
754.547, 1106.361
755.029, 1103.760
755.511, 1096.655
755.993, 1092.019
756.475, 1093.877
756.958, 1095.384
757.440, 1084.643
757.922, 1059.309
758.404, 1042.663
758.886, 1037.968
759.368, 1036.434
759.850, 1036.783
760.332, 1038.367
760.814, 1042.259
761.297, 1047.848
761.779, 1048.849
762.261, 1041.383
762.743, 1031.806
763.225, 1022.586
763.707, 1013.160
764.189, 1000.645
764.671, 986.760
765.153, 979.124
765.636, 983.450
766.118, 991.702
766.600, 993.315
767.082, 988.694
767.564, 977.061
768.046, 958.311
768.528, 943.179
769.010, 937.830
769.492, 939.337
769.975, 941.364
770.457, 942.284
770.939, 951.132
771.421, 978.281
771.903, 998.398
772.385, 999.418
772.867, 991.462
773.349, 985.779
773.831, 982.983
774.314, 974.086
774.796, 947.997
775.278, 925.090
775.760, 917.925
776.242, 919.011
776.724, 918.745
777.206, 916.354
777.688, 917.819
778.171, 928.892
778.653, 941.089
779.135, 940.266
779.617, 929.318
780.099, 918.297
780.581, 908.607
781.063, 904.559
781.545, 910.254
782.028, 918.656
782.510, 912.195
782.992, 884.367
783.474, 868.817
783.956, 869.183
784.438, 876.140
784.920, 895.262
785.402, 913.459
785.885, 912.416
786.367, 890.777
786.849, 873.364
787.331, 863.109
787.813, 859.967
788.295, 870.207
788.777, 883.551
789.259, 889.341
789.741, 886.621
790.224, 879.339
790.706, 867.972
791.188, 856.968
791.670, 851.275
792.152, 849.992
792.634, 851.443
793.116, 855.162
793.598, 860.185
794.080, 866.294
794.563, 871.226
795.045, 870.734
795.527, 864.630
796.009, 854.157
796.491, 836.348
796.973, 823.158
797.455, 821.768
797.937, 824.593
798.419, 821.072
798.902, 810.269
799.384, 804.233
799.866, 806.534
800.348, 809.026
800.830, 812.794
801.312, 813.613
801.794, 804.490
802.276, 788.990
802.758, 779.399
803.241, 780.770
803.723, 788.219
804.205, 805.242
804.687, 822.030
805.169, 823.901
805.651, 813.156
806.133, 797.122
806.615, 779.278
807.098, 773.077
807.580, 809.320
808.062, 874.611
808.544, 891.009
809.026, 857.287
809.508, 832.880
809.990, 837.871
810.472, 852.416
810.955, 856.398
811.437, 850.793
811.919, 846.931
812.401, 847.257
812.883, 844.441
813.365, 833.786
813.847, 823.866
814.329, 818.683
814.812, 817.878
815.294, 821.231
815.776, 830.832
816.258, 837.867
816.740, 838.984
817.222, 837.823
817.704, 835.951
818.186, 833.761
818.668, 832.188
819.151, 831.116
819.633, 827.784
820.115, 815.509
820.597, 804.031
821.079, 809.884
821.561, 826.271
822.043, 835.801
822.525, 835.616
823.007, 832.154
823.490, 829.852
823.972, 827.287
824.454, 818.245
824.936, 802.450
825.418, 804.187
825.900, 830.376
826.382, 848.244
826.864, 839.183
827.346, 818.014
827.829, 807.717
828.311, 809.493
828.793, 813.664
829.275, 826.264
829.757, 832.678
830.239, 825.188
830.721, 814.731
831.203, 811.687
831.685, 813.730
832.168, 808.875
832.650, 785.000
833.132, 770.877
833.614, 788.052
834.096, 809.729
834.578, 810.690
835.060, 798.497
835.542, 793.013
836.024, 800.746
836.507, 811.575
836.989, 819.532
837.471, 823.721
837.953, 820.944
838.435, 813.343
838.917, 806.454
839.399, 801.905
839.881, 800.536
840.364, 803.548
840.846, 809.076
841.328, 813.818
841.810, 817.781
842.292, 811.128
842.774, 790.180
843.256, 773.316
843.738, 771.383
844.221, 778.411
844.703, 783.339
845.185, 785.765
845.667, 788.404
846.149, 793.895
846.631, 795.452
847.113, 786.052
847.595, 776.004
848.078, 775.169
848.560, 782.076
849.042, 787.075
849.524, 784.612
850.006, 786.186
850.488, 802.751
850.970, 816.775
851.452, 810.729
851.934, 793.538
852.417, 784.952
852.899, 790.844
853.381, 797.468
853.863, 793.815
854.345, 788.258
854.827, 786.598
855.309, 790.610
855.791, 809.835
856.273, 841.510
856.756, 858.907
857.238, 838.619
857.720, 804.528
858.202, 803.216
858.684, 826.040
859.166, 832.377
859.648, 818.617
860.130, 802.519
860.612, 792.236
861.095, 787.293
861.577, 788.174
862.059, 794.820
862.541, 795.314
863.023, 787.215
863.505, 782.516
863.987, 785.309
864.469, 790.658
864.951, 795.646
865.434, 799.527
865.916, 797.921
866.398, 786.861
866.880, 776.950
867.362, 763.074
867.844, 756.102
868.326, 768.035
868.808, 786.003
869.291, 790.840
869.773, 780.205
870.255, 772.388
870.737, 777.434
871.219, 779.662
871.701, 766.512
872.183, 751.269
872.665, 749.292
873.148, 758.027
873.630, 763.435
874.112, 758.841
874.594, 753.570
875.076, 753.651
875.558, 757.847
876.040, 769.201
876.522, 782.549
877.005, 783.634
877.487, 769.555
877.969, 755.297
878.451, 754.755
878.933, 762.003
879.415, 766.052
879.897, 767.460
880.379, 769.193
880.861, 771.516
881.344, 769.989
881.826, 761.233
882.308, 752.046
882.790, 756.566
883.272, 774.909
883.754, 786.915
884.236, 792.416
884.718, 791.717
885.200, 783.301
885.683, 773.016
886.165, 766.628
886.647, 763.571
887.129, 759.949
887.611, 754.209
888.093, 751.419
888.575, 751.863
889.057, 755.367
889.539, 763.591
890.022, 773.997
890.504, 782.980
890.986, 790.829
891.468, 795.057
891.950, 794.122
892.432, 791.389
892.914, 786.980
893.396, 781.771
893.878, 776.105
894.361, 770.258
894.843, 764.366
895.325, 757.576
895.807, 753.618
896.289, 756.449
896.771, 760.334
897.253, 760.217
897.735, 758.682
898.218, 761.004
898.700, 767.478
899.182, 772.265
899.664, 769.953
900.146, 767.450
900.628, 773.289
901.110, 782.150
901.592, 786.226
902.075, 785.332
902.557, 781.987
903.039, 777.315
903.521, 773.153
904.003, 771.938
904.485, 772.563
904.967, 772.024
905.449, 770.994
905.932, 774.811
906.414, 783.692
906.896, 784.732
907.378, 766.925
907.860, 742.183
908.342, 736.872
908.824, 749.474
909.306, 760.223
909.788, 768.235
910.271, 772.093
910.753, 770.777
911.235, 767.321
911.717, 764.903
912.199, 763.469
912.681, 762.902
913.163, 763.813
913.645, 763.231
914.127, 761.663
914.610, 755.800
915.092, 740.286
915.574, 722.966
916.056, 718.810
916.538, 730.120
917.020, 740.541
917.502, 752.257
917.984, 759.559
918.466, 760.386
918.949, 757.263
919.431, 751.013
919.913, 742.392
920.395, 733.331
920.877, 721.073
921.359, 714.858
921.841, 720.284
922.323, 726.269
922.805, 730.130
923.288, 730.938
923.770, 723.976
924.252, 711.395
924.734, 709.713
925.216, 733.069
925.698, 753.117
926.180, 759.071
926.662, 759.476
927.145, 759.267
927.627, 758.796
928.109, 757.536
928.591, 755.373
929.073, 752.826
929.555, 748.815
930.037, 745.999
930.519, 747.266
931.002, 750.086
931.484, 750.276
931.966, 749.086
932.448, 753.140
932.930, 765.850
933.412, 774.235
933.894, 759.324
934.376, 740.558
934.859, 745.630
935.341, 764.021
935.823, 773.265
936.305, 769.896
936.787, 763.594
937.269, 759.845
937.751, 758.294
938.233, 759.540
938.715, 762.221
939.198, 762.795
939.680, 761.894
940.162, 764.123
940.644, 770.354
941.126, 773.374
941.608, 765.864
942.090, 752.348
942.572, 738.717
943.054, 727.345
943.537, 734.588
944.019, 759.956
944.501, 775.758
944.983, 769.404
945.465, 754.313
945.947, 745.994
946.429, 744.312
946.911, 752.464
947.393, 769.988
947.876, 772.615
948.358, 754.872
948.840, 741.130
949.322, 746.988
949.804, 761.549
950.286, 765.724
950.768, 759.481
951.250, 748.759
951.732, 731.601
952.215, 724.228
952.697, 732.924
953.179, 743.296
953.661, 743.800
954.143, 738.403
954.625, 739.333
955.107, 749.687
955.589, 750.171
956.072, 735.911
956.554, 726.702
957.036, 731.343
957.518, 738.359
958.000, 735.514
958.482, 725.521
958.964, 723.683
959.446, 735.047
959.929, 741.174
960.411, 738.996
960.893, 736.112
961.375, 735.570
961.857, 735.717
962.339, 733.982
962.821, 730.560
963.303, 730.668
963.786, 739.567
964.268, 742.384
964.750, 731.869
965.232, 722.842
965.714, 722.032
966.196, 727.204
966.678, 737.439
967.160, 754.010
967.642, 761.031
968.125, 747.615
968.607, 740.157
969.089, 747.246
969.571, 755.930
970.053, 760.935
970.535, 761.477
971.017, 754.513
971.499, 737.672
971.981, 727.976
972.464, 730.565
972.946, 735.842
973.428, 744.952
973.910, 752.558
974.392, 753.245
974.874, 749.693
975.356, 749.395
975.838, 755.040
976.320, 756.130
976.803, 745.842
977.285, 736.899
977.767, 733.206
978.249, 733.626
978.731, 739.501
979.213, 748.379
979.695, 753.153
980.177, 751.834
980.659, 748.568
981.142, 742.800
981.624, 737.263
982.106, 731.858
982.588, 728.430
983.070, 729.037
983.552, 733.416
984.034, 740.935
984.516, 757.073
984.999, 762.046
985.481, 735.606
985.963, 711.489
986.445, 713.642
986.927, 726.838
987.409, 731.483
987.891, 727.011
988.373, 725.398
988.856, 735.146
989.338, 738.126
989.820, 718.573
990.302, 698.971
990.784, 696.721
991.266, 702.719
991.748, 704.173
992.230, 699.388
992.713, 692.235
993.195, 681.731
993.677, 673.178
994.159, 660.753
994.641, 659.217
995.123, 695.117
995.605, 741.735
996.087, 753.268
996.569, 726.471
997.052, 704.318
997.534, 706.650
998.016, 713.085
998.498, 714.200
998.980, 715.527
999.462, 723.476
999.944, 733.969
1000.426, 740.249
1000.908, 741.082
1001.391, 739.029
1001.873, 731.460
1002.355, 726.247
1002.837, 728.888
1003.319, 733.827
1003.801, 737.732
1004.283, 739.838
1004.765, 738.441
1005.247, 733.645
1005.730, 731.478
1006.212, 736.010
1006.694, 741.926
1007.176, 748.403
1007.658, 753.581
1008.140, 756.428
1008.622, 756.490
1009.104, 751.375
1009.587, 741.108
1010.069, 735.423
1010.551, 744.823
1011.033, 751.605
1011.515, 744.458
1011.997, 733.706
1012.479, 726.723
1012.961, 723.477
1013.443, 722.038
1013.926, 722.058
1014.408, 725.714
1014.890, 740.505
1015.372, 750.491
1015.854, 742.834
1016.336, 732.523
1016.818, 732.454
1017.300, 739.036
1017.783, 744.964
1018.265, 748.769
1018.747, 748.396
1019.229, 739.866
1019.711, 731.364
1020.193, 731.808
1020.675, 728.223
1021.157, 698.395
1021.639, 661.575
1022.122, 659.703
1022.604, 700.018
1023.086, 723.810
1023.568, 697.125
1024.050, 673.842
1024.532, 677.765
1025.014, 686.965
1025.496, 682.427
1025.979, 672.818
1026.461, 677.871
1026.943, 700.675
1027.425, 713.354
1027.907, 700.276
1028.389, 689.277
1028.871, 686.243
1029.353, 689.484
1029.835, 704.017
1030.318, 721.156
1030.800, 724.592
1031.282, 712.345
1031.764, 707.843
1032.246, 727.646
1032.728, 736.642
1033.210, 715.706
1033.692, 695.198
1034.175, 695.484
1034.657, 706.037
1035.139, 709.237
1035.621, 703.906
1036.103, 704.569
1036.585, 714.617
1037.067, 727.093
1037.549, 750.151
1038.031, 765.437
1038.514, 755.240
1038.996, 736.884
1039.478, 737.657
1039.960, 757.539
1040.442, 762.286
1040.924, 737.401
1041.406, 723.027
1041.888, 728.073
1042.370, 734.666
1042.853, 734.234
1043.335, 732.042
1043.817, 734.981
1044.299, 742.625
1044.781, 749.182
1045.263, 756.214
1045.745, 757.923
1046.227, 751.638
1046.710, 744.713
1047.192, 739.495
1047.674, 736.260
1048.156, 736.774
1048.638, 739.383
1049.120, 731.608
1049.602, 707.292
1050.084, 699.509
1050.567, 715.479
1051.049, 727.665
1051.531, 724.664
1052.013, 718.964
1052.495, 723.736
1052.977, 734.938
1053.459, 736.955
1053.941, 728.703
1054.423, 722.676
1054.906, 719.144
1055.388, 720.092
1055.870, 726.711
1056.352, 733.879
1056.834, 736.956
1057.316, 738.201
1057.798, 746.038
1058.280, 759.123
1058.762, 752.422
1059.245, 726.582
1059.727, 715.121
1060.209, 726.393
1060.691, 737.171
1061.173, 730.540
1061.655, 716.859
1062.137, 715.093
1062.619, 721.373
1063.102, 719.786
1063.584, 712.022
1064.066, 706.925
1064.548, 706.231
1065.030, 709.028
1065.512, 715.137
1065.994, 719.281
1066.476, 711.528
1066.958, 699.160
1067.441, 696.079
1067.923, 700.330
1068.405, 711.195
1068.887, 724.812
1069.369, 726.571
1069.851, 710.366
1070.333, 693.549
1070.815, 691.499
1071.297, 697.393
1071.780, 709.299
1072.262, 720.236
1072.744, 716.434
1073.226, 703.007
1073.708, 695.464
1074.190, 698.409
1074.672, 705.004
1075.154, 712.237
1075.637, 720.120
1076.119, 732.815
1076.601, 742.453
1077.083, 739.633
1077.565, 728.844
1078.047, 715.722
1078.529, 702.646
1079.011, 698.951
1079.493, 715.801
1079.976, 729.224
1080.458, 726.301
1080.940, 722.132
1081.422, 727.108
1081.904, 735.412
1082.386, 739.869
1082.868, 740.197
1083.350, 738.839
1083.833, 736.815
1084.315, 731.673
1084.797, 719.063
1085.279, 708.600
1085.761, 701.226
1086.243, 699.529
1086.725, 709.309
1087.207, 725.816
1087.689, 734.022
1088.172, 731.094
1088.654, 731.221
1089.136, 738.683
1089.618, 738.360
1090.100, 721.917
1090.582, 708.676
1091.064, 714.575
1091.546, 726.695
1092.028, 718.220
1092.511, 689.689
1092.993, 683.765
1093.475, 704.421
1093.957, 712.609
1094.439, 700.474
1094.921, 697.208
1095.403, 718.822
1095.885, 744.052
1096.368, 746.193
1096.850, 731.250
1097.332, 716.390
1097.814, 702.869
1098.296, 701.375
1098.778, 710.895
1099.260, 715.124
1099.742, 709.250
1100.224, 707.420
1100.707, 723.734
1101.189, 742.920
1101.671, 739.294
1102.153, 723.586
1102.635, 713.464
1103.117, 709.909
1103.599, 715.459
1104.081, 727.444
1104.563, 731.854
1105.046, 720.393
1105.528, 706.815
1106.010, 701.847
1106.492, 700.229
1106.974, 698.900
1107.456, 696.834
1107.938, 689.939
1108.420, 681.856
1108.903, 683.617
1109.385, 698.966
1109.867, 712.163
1110.349, 718.805
1110.831, 719.695
1111.313, 708.085
1111.795, 697.927
1112.277, 704.144
1112.760, 716.224
1113.242, 714.014
1113.724, 696.426
1114.206, 688.137
1114.688, 697.820
1115.170, 705.344
1115.652, 712.606
1116.134, 713.060
1116.616, 698.938
1117.099, 684.351
1117.581, 684.223
1118.063, 694.442
1118.545, 699.506
1119.027, 698.004
1119.509, 699.126
1119.991, 703.346
1120.473, 707.890
1120.955, 712.620
1121.438, 713.135
1121.920, 705.653
1122.402, 696.328
1122.884, 694.368
1123.366, 699.577
1123.848, 714.904
1124.330, 737.172
1124.812, 750.426
1125.295, 752.466
1125.777, 741.564
1126.259, 718.050
1126.741, 700.893
1127.223, 710.823
1127.705, 729.544
1128.187, 732.484
1128.669, 728.005
1129.151, 729.012
1129.634, 733.070
1130.116, 733.477
1130.598, 728.788
1131.080, 719.135
1131.562, 700.908
1132.044, 690.181
1132.526, 704.230
1133.008, 718.632
1133.490, 715.211
1133.973, 706.156
1134.455, 702.992
1134.937, 705.717
1135.419, 713.267
1135.901, 728.005
1136.383, 731.620
1136.865, 707.411
1137.347, 694.406
1137.830, 707.741
1138.312, 720.140
1138.794, 717.226
1139.276, 707.150
1139.758, 698.546
1140.240, 692.348
1140.722, 696.797
1141.204, 714.857
1141.687, 725.782
1142.169, 728.455
1142.651, 723.176
1143.133, 708.960
1143.615, 698.888
1144.097, 703.948
1144.579, 714.984
1145.061, 715.692
1145.543, 708.140
1146.026, 695.182
1146.508, 680.871
1146.990, 681.368
1147.472, 696.498
1147.954, 716.177
1148.436, 735.695
1148.918, 744.730
1149.400, 728.486
1149.882, 706.635
1150.365, 694.849
1150.847, 691.309
1151.329, 700.273
1151.811, 712.992
1152.293, 713.420
1152.775, 701.696
1153.257, 693.174
1153.739, 690.953
1154.222, 696.652
1154.704, 724.510
1155.186, 742.493
1155.668, 727.625
1156.150, 707.349
1156.632, 708.356
1157.114, 718.888
1157.596, 711.365
1158.078, 682.788
1158.561, 681.396
1159.043, 720.840
1159.525, 739.373
1160.007, 725.604
1160.489, 708.730
1160.971, 700.424
1161.453, 697.158
1161.935, 695.504
1162.417, 695.791
1162.900, 699.814
1163.382, 706.615
1163.864, 713.778
1164.346, 719.299
1164.828, 709.722
1165.310, 686.691
1165.792, 677.851
1166.274, 697.785
1166.757, 720.155
1167.239, 719.123
1167.721, 709.801
1168.203, 706.556
1168.685, 704.956
1169.167, 697.383
1169.649, 687.981
1170.131, 686.111
1170.614, 692.735
1171.096, 700.862
1171.578, 712.508
1172.060, 717.384
1172.542, 705.913
1173.024, 696.444
1173.506, 700.680
1173.988, 705.405
1174.470, 698.013
1174.953, 685.061
1175.435, 682.196
1175.917, 690.203
1176.399, 692.863
1176.881, 688.705
1177.363, 687.760
1177.845, 691.159
1178.327, 701.938
1178.809, 722.497
1179.292, 734.123
1179.774, 715.981
1180.256, 684.846
1180.738, 671.211
1181.220, 672.144
1181.702, 688.450
1182.184, 711.061
1182.666, 714.099
1183.149, 698.431
1183.631, 687.450
1184.113, 690.950
1184.595, 695.532
1185.077, 690.079
1185.559, 685.908
1186.041, 691.764
1186.523, 700.039
1187.005, 706.980
1187.488, 710.625
1187.970, 705.875
1188.452, 694.265
1188.934, 691.760
1189.416, 708.335
1189.898, 711.577
1190.380, 690.828
1190.862, 681.617
1191.344, 697.039
1191.827, 713.052
1192.309, 715.041
1192.791, 706.687
1193.273, 690.567
1193.755, 671.135
1194.237, 672.477
1194.719, 690.112
1195.201, 694.562
1195.684, 687.746
1196.166, 698.785
1196.648, 731.746
1197.130, 752.967
1197.612, 740.179
1198.094, 716.399
1198.576, 692.311
1199.058, 678.733
1199.541, 694.146
1200.023, 718.773
1200.505, 732.772
1200.987, 735.964
1201.469, 732.327
1201.951, 722.613
1202.433, 710.555
1202.915, 689.024
1203.397, 678.472
1203.880, 687.129
1204.362, 694.750
1204.844, 695.501
1205.326, 691.980
1205.808, 685.294
1206.290, 677.451
1206.772, 673.702
1207.254, 672.923
1207.736, 658.190
1208.219, 633.119
1208.701, 639.442
1209.183, 676.059
1209.665, 699.648
1210.147, 696.041
1210.629, 684.495
1211.111, 676.499
1211.593, 674.608
1212.076, 686.190
1212.558, 700.314
1213.040, 707.610
1213.522, 709.331
1214.004, 704.164
1214.486, 696.236
1214.968, 694.583
1215.450, 700.896
1215.932, 709.635
1216.415, 727.727
1216.897, 734.715
1217.379, 721.254
1217.861, 711.470
1218.343, 716.039
1218.825, 721.601
1219.307, 716.689
1219.789, 705.795
1220.271, 698.052
1220.754, 693.215
1221.236, 689.224
1221.718, 686.367
1222.200, 687.058
1222.682, 690.826
1223.164, 693.178
1223.646, 693.068
1224.128, 695.723
1224.611, 705.873
1225.093, 715.885
1225.575, 722.294
1226.057, 722.634
1226.539, 708.239
1227.021, 692.239
1227.503, 689.076
1227.985, 695.787
1228.468, 705.609
1228.950, 718.528
1229.432, 718.617
1229.914, 695.768
1230.396, 684.190
1230.878, 690.741
1231.360, 691.458
1231.842, 676.726
1232.324, 664.366
1232.807, 667.727
1233.289, 680.241
1233.771, 694.866
1234.253, 707.549
1234.735, 702.222
1235.217, 686.166
1235.699, 677.465
1236.181, 676.043
1236.663, 678.154
1237.146, 680.891
1237.628, 673.974
1238.110, 647.860
1238.592, 629.567
1239.074, 635.286
1239.556, 648.246
1240.038, 671.831
1240.520, 688.188
1241.003, 674.815
1241.485, 652.088
1241.967, 647.476
1242.449, 659.235
1242.931, 677.463
1243.413, 704.678
1243.895, 715.270
1244.377, 708.128
1244.859, 701.656
1245.342, 700.029
1245.824, 702.584
1246.306, 709.040
1246.788, 714.840
1247.270, 715.952
1247.752, 713.186
1248.234, 703.831
1248.716, 694.484
1249.198, 693.450
1249.681, 697.385
1250.163, 701.523
1250.645, 704.955
1251.127, 707.379
1251.609, 708.607
1252.091, 709.669
1252.573, 714.720
1253.055, 710.765
1253.538, 690.315
1254.020, 676.577
1254.502, 679.624
1254.984, 689.225
1255.466, 696.761
1255.948, 703.095
1256.430, 713.873
1256.912, 723.526
1257.395, 706.026
1257.877, 674.852
1258.359, 666.451
1258.841, 678.368
1259.323, 690.870
1259.805, 698.336
1260.287, 704.358
1260.769, 711.132
1261.251, 714.998
1261.734, 713.381
1262.216, 709.931
1262.698, 701.762
1263.180, 697.561
1263.662, 705.747
1264.144, 717.663
1264.626, 721.453
##END=



