##NAMES=Spinel
##RRUFFID=R050184
##IDEAL CHEMISTRY=MgAl_2_O_4_
##LOCALITY=Pein Pyit, Mogok, Burma
##OWNER=RRUFF
##SOURCE=Marcus Origlieri
##DESCRIPTION=Red crystal in calcite, associated with yellowish-green clinohumite, R050183
##STATUS=The identification of this mineral has been confirmed by X-ray diffraction and chemical analysis
##URL=rruff.info/R050184
##MEASURED CHEMISTRY=Mg_1.00_(Al_1.99_Cr_0.01_)_Î£=2_O_4_; trace amounts of V
93.77539, 1771.442
94.25751, 1772.574
94.73962, 1771.720
95.22174, 1769.433
95.70386, 1767.732
96.18597, 1767.842
96.66809, 1769.170
97.15021, 1769.578
97.63232, 1768.885
98.11444, 1768.028
98.59656, 1768.357
99.07867, 1769.893
99.56079, 1771.666
100.0429, 1773.404
100.5250, 1775.110
101.0071, 1776.129
101.4893, 1776.141
101.9714, 1775.758
102.4535, 1776.535
102.9356, 1778.894
103.4177, 1781.247
103.8998, 1782.391
104.3820, 1781.491
104.8641, 1782.150
105.3462, 1785.394
105.8283, 1790.532
106.3104, 1793.778
106.7925, 1793.969
107.2747, 1793.500
107.7568, 1794.079
108.2389, 1796.878
108.7210, 1799.034
109.2031, 1799.864
109.6852, 1799.262
110.1674, 1799.509
110.6495, 1800.884
111.1316, 1802.993
111.6137, 1805.491
112.0958, 1808.582
112.5779, 1811.891
113.0601, 1815.584
113.5422, 1819.920
114.0243, 1823.481
114.5064, 1825.351
114.9885, 1826.522
115.4706, 1828.252
115.9528, 1831.303
116.4349, 1834.592
116.9170, 1837.562
117.3991, 1839.991
117.8812, 1842.725
118.3633, 1847.202
118.8455, 1852.196
119.3276, 1855.287
119.8097, 1853.206
120.2918, 1850.196
120.7739, 1849.547
121.2560, 1852.959
121.7382, 1856.754
122.2203, 1858.499
122.7024, 1858.703
123.1845, 1859.064
123.6666, 1860.800
124.1487, 1863.154
124.6309, 1865.325
125.1130, 1867.267
125.5951, 1868.694
126.0772, 1868.682
126.5593, 1867.441
127.0414, 1866.880
127.5236, 1868.873
128.0057, 1872.641
128.4878, 1876.632
128.9699, 1880.900
129.4520, 1884.765
129.9341, 1886.729
130.4162, 1886.733
130.8984, 1886.158
131.3805, 1886.038
131.8626, 1886.412
132.3447, 1887.508
132.8268, 1889.758
133.3089, 1892.858
133.7911, 1892.555
134.2732, 1883.451
134.7553, 1867.965
135.2374, 1852.371
135.7195, 1836.580
136.2016, 1821.915
136.6838, 1809.303
137.1659, 1798.746
137.6480, 1787.587
138.1301, 1775.373
138.6122, 1763.099
139.0943, 1752.735
139.5765, 1744.801
140.0586, 1736.352
140.5407, 1725.293
141.0228, 1710.570
141.5049, 1698.266
141.9870, 1688.739
142.4692, 1681.318
142.9513, 1674.535
143.4334, 1668.714
143.9155, 1662.709
144.3976, 1655.582
144.8797, 1646.385
145.3619, 1638.421
145.8440, 1632.424
146.3261, 1627.892
146.8082, 1622.755
147.2903, 1616.374
147.7724, 1610.010
148.2546, 1604.388
148.7367, 1600.288
149.2188, 1595.830
149.7009, 1590.989
150.1830, 1585.783
150.6651, 1580.061
151.1473, 1572.697
151.6294, 1565.577
152.1115, 1560.117
152.5936, 1558.634
153.0757, 1556.282
153.5578, 1551.816
154.0400, 1545.072
154.5221, 1539.894
155.0042, 1537.692
155.4863, 1536.482
155.9684, 1534.535
156.4505, 1531.615
156.9327, 1527.881
157.4148, 1522.755
157.8969, 1515.949
158.3790, 1510.464
158.8611, 1507.498
159.3432, 1505.874
159.8254, 1504.272
160.3075, 1503.228
160.7896, 1501.458
161.2717, 1498.287
161.7538, 1493.464
162.2359, 1488.563
162.7181, 1483.734
163.2002, 1479.267
163.6823, 1475.556
164.1644, 1473.401
164.6465, 1471.580
165.1286, 1469.351
165.6108, 1466.464
166.0929, 1463.781
166.5750, 1461.741
167.0571, 1460.140
167.5392, 1458.625
168.0213, 1456.845
168.5035, 1455.148
168.9856, 1454.001
169.4677, 1453.801
169.9498, 1453.033
170.4319, 1449.959
170.9140, 1445.453
171.3962, 1441.616
171.8783, 1440.126
172.3604, 1439.610
172.8425, 1438.670
173.3246, 1436.951
173.8067, 1435.071
174.2889, 1433.808
174.7710, 1432.921
175.2531, 1431.603
175.7352, 1428.705
176.2173, 1425.299
176.6994, 1422.977
177.1816, 1422.424
177.6637, 1422.343
178.1458, 1421.290
178.6279, 1419.396
179.1100, 1417.386
179.5921, 1415.433
180.0743, 1413.695
180.5564, 1412.667
181.0385, 1412.895
181.5206, 1413.180
182.0027, 1411.497
182.4848, 1408.021
182.9670, 1404.410
183.4491, 1401.603
183.9312, 1399.553
184.4133, 1398.338
184.8954, 1398.416
185.3775, 1398.824
185.8597, 1397.566
186.3418, 1394.671
186.8239, 1391.648
187.3060, 1389.875
187.7881, 1389.074
188.2702, 1388.087
188.7523, 1386.553
189.2345, 1384.738
189.7166, 1383.378
190.1987, 1382.509
190.6808, 1381.521
191.1629, 1379.719
191.6451, 1377.229
192.1272, 1374.938
192.6093, 1373.024
193.0914, 1371.495
193.5735, 1370.338
194.0556, 1369.569
194.5378, 1369.103
195.0199, 1368.906
195.5020, 1368.968
195.9841, 1369.133
196.4662, 1369.273
196.9483, 1369.465
197.4305, 1370.384
197.9126, 1372.241
198.3947, 1373.687
198.8768, 1372.884
199.3589, 1369.679
199.8410, 1366.898
200.3232, 1365.181
200.8053, 1364.425
201.2874, 1364.359
201.7695, 1365.256
202.2516, 1365.984
202.7337, 1365.145
203.2159, 1362.536
203.6980, 1360.161
204.1801, 1358.510
204.6622, 1357.557
205.1443, 1357.038
205.6264, 1357.156
206.1086, 1357.299
206.5907, 1356.717
207.0728, 1355.265
207.5549, 1354.004
208.0370, 1353.396
208.5191, 1353.361
209.0013, 1352.273
209.4834, 1349.686
209.9655, 1346.890
210.4476, 1345.444
210.9297, 1345.806
211.4118, 1345.833
211.8940, 1344.956
212.3761, 1343.208
212.8582, 1341.521
213.3403, 1339.724
213.8224, 1338.280
214.3045, 1337.828
214.7867, 1338.714
215.2688, 1339.542
215.7509, 1339.938
216.2330, 1339.898
216.7151, 1340.208
217.1972, 1341.090
217.6794, 1341.986
218.1615, 1342.184
218.6436, 1341.294
219.1257, 1340.676
219.6078, 1340.757
220.0899, 1341.529
220.5721, 1341.793
221.0542, 1341.442
221.5363, 1340.681
222.0184, 1339.589
222.5005, 1337.724
222.9826, 1336.583
223.4648, 1336.879
223.9469, 1338.654
224.4290, 1339.046
224.9111, 1337.507
225.3932, 1335.251
225.8753, 1333.402
226.3575, 1331.992
226.8396, 1330.997
227.3217, 1330.586
227.8038, 1330.771
228.2859, 1330.547
228.7680, 1329.615
229.2502, 1328.627
229.7323, 1328.301
230.2144, 1329.153
230.6965, 1329.630
231.1786, 1329.427
231.6607, 1328.549
232.1429, 1327.371
232.6250, 1325.426
233.1071, 1323.708
233.5892, 1323.325
234.0713, 1325.366
234.5534, 1326.521
235.0356, 1325.889
235.5177, 1323.549
235.9998, 1321.921
236.4819, 1321.116
236.9640, 1320.861
237.4461, 1320.902
237.9283, 1321.094
238.4104, 1321.895
238.8925, 1323.813
239.3746, 1326.730
239.8567, 1328.099
240.3388, 1327.328
240.8210, 1325.706
241.3031, 1324.007
241.7852, 1321.416
242.2673, 1320.484
242.7494, 1322.358
243.2315, 1326.664
243.7137, 1328.872
244.1958, 1327.980
244.6779, 1326.260
245.1600, 1325.372
245.6421, 1325.948
246.1242, 1326.003
246.6064, 1324.927
247.0885, 1323.022
247.5706, 1322.523
248.0527, 1324.478
248.5348, 1326.488
249.0169, 1326.857
249.4990, 1324.574
249.9812, 1323.009
250.4633, 1322.694
250.9454, 1323.350
251.4275, 1323.572
251.9096, 1322.974
252.3917, 1322.515
252.8739, 1322.843
253.3560, 1324.451
253.8381, 1325.622
254.3202, 1326.115
254.8023, 1326.103
255.2844, 1326.218
255.7666, 1326.481
256.2487, 1326.802
256.7308, 1327.112
257.2129, 1327.362
257.6950, 1327.729
258.1772, 1328.397
258.6593, 1329.106
259.1414, 1329.088
259.6235, 1327.906
260.1056, 1326.780
260.5877, 1326.315
261.0699, 1326.821
261.5520, 1327.007
262.0341, 1326.743
262.5162, 1326.235
262.9983, 1325.917
263.4804, 1325.854
263.9626, 1325.861
264.4447, 1325.852
264.9268, 1325.796
265.4089, 1325.994
265.8910, 1326.748
266.3731, 1327.498
266.8553, 1326.965
267.3374, 1324.404
267.8195, 1322.693
268.3016, 1323.285
268.7837, 1326.594
269.2658, 1328.581
269.7480, 1328.913
270.2301, 1328.393
270.7122, 1328.105
271.1943, 1328.091
271.6764, 1328.114
272.1585, 1328.024
272.6407, 1327.805
273.1228, 1327.987
273.6049, 1328.695
274.0870, 1329.499
274.5691, 1329.800
275.0512, 1329.426
275.5334, 1329.323
276.0155, 1329.871
276.4976, 1330.970
276.9797, 1331.567
277.4618, 1331.583
277.9439, 1331.323
278.4261, 1330.982
278.9081, 1330.537
279.3903, 1330.425
279.8724, 1330.898
280.3545, 1331.799
280.8366, 1332.339
281.3187, 1332.504
281.8008, 1332.478
282.2830, 1332.336
282.7651, 1332.082
283.2472, 1332.027
283.7293, 1332.281
284.2114, 1332.738
284.6935, 1333.003
285.1757, 1333.036
285.6578, 1333.231
286.1399, 1334.058
286.6220, 1335.438
287.1041, 1336.383
287.5862, 1336.683
288.0684, 1336.581
288.5505, 1336.428
289.0326, 1336.211
289.5147, 1336.299
289.9968, 1337.057
290.4789, 1338.373
290.9611, 1339.635
291.4432, 1340.851
291.9253, 1341.853
292.4074, 1342.294
292.8895, 1342.211
293.3716, 1341.975
293.8538, 1341.460
294.3359, 1340.920
294.8180, 1341.571
295.3001, 1343.752
295.7822, 1345.677
296.2643, 1344.247
296.7465, 1340.292
297.2286, 1337.561
297.7107, 1338.497
298.1928, 1341.645
298.6749, 1344.079
299.1570, 1345.801
299.6392, 1347.005
300.1213, 1347.301
300.6034, 1347.167
301.0855, 1347.846
301.5676, 1350.512
302.0497, 1353.799
302.5319, 1355.399
303.0140, 1355.429
303.4961, 1355.603
303.9782, 1357.783
304.4603, 1360.944
304.9424, 1363.303
305.4246, 1363.707
305.9067, 1363.814
306.3888, 1365.121
306.8709, 1367.564
307.3530, 1370.949
307.8351, 1375.614
308.3173, 1380.943
308.7994, 1386.217
309.2815, 1391.397
309.7636, 1396.387
310.2457, 1401.441
310.7278, 1406.341
311.2100, 1410.357
311.6921, 1413.874
312.1742, 1415.954
312.6563, 1415.734
313.1384, 1413.076
313.6205, 1408.382
314.1027, 1400.512
314.5848, 1390.893
315.0669, 1381.941
315.5490, 1374.710
316.0311, 1368.380
316.5132, 1362.452
316.9954, 1356.758
317.4775, 1352.299
317.9596, 1349.788
318.4417, 1348.623
318.9238, 1348.108
319.4059, 1349.169
319.8881, 1349.757
320.3702, 1348.679
320.8523, 1345.970
321.3344, 1343.668
321.8165, 1342.627
322.2986, 1342.056
322.7808, 1341.354
323.2629, 1339.616
323.7450, 1338.593
324.2271, 1339.301
324.7092, 1341.301
325.1913, 1342.316
325.6735, 1341.336
326.1556, 1339.825
326.6377, 1338.522
327.1198, 1337.656
327.6019, 1336.810
328.0840, 1335.618
328.5662, 1334.447
329.0483, 1334.190
329.5304, 1335.767
330.0125, 1337.389
330.4946, 1338.513
330.9767, 1339.037
331.4589, 1339.313
331.9410, 1338.996
332.4231, 1338.570
332.9052, 1338.719
333.3873, 1339.708
333.8694, 1340.851
334.3516, 1342.147
334.8337, 1343.656
335.3158, 1344.214
335.7979, 1343.234
336.2800, 1341.937
336.7621, 1341.500
337.2443, 1342.197
337.7264, 1343.018
338.2085, 1343.967
338.6906, 1344.934
339.1727, 1345.172
339.6548, 1344.431
340.1370, 1343.593
340.6191, 1343.367
341.1012, 1343.896
341.5833, 1343.962
342.0654, 1343.185
342.5475, 1342.187
343.0297, 1342.720
343.5118, 1345.034
343.9939, 1347.033
344.4760, 1347.224
344.9581, 1345.789
345.4402, 1345.266
345.9224, 1345.863
346.4045, 1346.912
346.8866, 1347.507
347.3687, 1347.680
347.8508, 1347.815
348.3329, 1348.119
348.8151, 1348.486
349.2972, 1348.363
349.7793, 1347.712
350.2614, 1347.498
350.7435, 1349.200
351.2256, 1352.139
351.7078, 1354.326
352.1899, 1354.871
352.6720, 1354.755
353.1541, 1355.385
353.6362, 1356.652
354.1183, 1357.852
354.6005, 1358.340
355.0826, 1358.514
355.5647, 1358.978
356.0468, 1359.939
356.5289, 1360.915
357.0110, 1361.450
357.4932, 1361.676
357.9753, 1361.907
358.4574, 1362.561
358.9395, 1363.115
359.4216, 1362.732
359.9037, 1361.167
360.3859, 1360.564
360.8680, 1363.230
361.3501, 1367.218
361.8322, 1370.155
362.3143, 1370.129
362.7964, 1369.871
363.2786, 1370.783
363.7607, 1372.737
364.2428, 1374.147
364.7249, 1373.815
365.2070, 1373.140
365.6891, 1373.099
366.1713, 1374.889
366.6534, 1376.047
367.1355, 1375.342
367.6176, 1373.598
368.0997, 1373.141
368.5818, 1376.096
369.0640, 1378.826
369.5461, 1379.763
370.0282, 1377.557
370.5103, 1376.838
370.9924, 1378.786
371.4745, 1381.734
371.9567, 1383.438
372.4388, 1382.896
372.9209, 1382.557
373.4030, 1382.793
373.8851, 1383.598
374.3672, 1385.389
374.8494, 1388.662
375.3315, 1392.237
375.8136, 1395.104
376.2957, 1397.104
376.7778, 1398.861
377.2599, 1400.274
377.7421, 1401.525
378.2242, 1403.275
378.7063, 1405.561
379.1884, 1408.021
379.6705, 1410.549
380.1526, 1413.163
380.6348, 1415.239
381.1169, 1416.633
381.5990, 1417.810
382.0811, 1419.684
382.5632, 1422.182
383.0453, 1424.175
383.5275, 1424.814
384.0096, 1424.709
384.4917, 1425.338
384.9738, 1426.709
385.4559, 1429.174
385.9380, 1433.753
386.4202, 1439.726
386.9023, 1445.181
387.3844, 1449.378
387.8665, 1453.378
388.3486, 1458.581
388.8307, 1464.772
389.3129, 1471.103
389.7950, 1476.433
390.2771, 1481.930
390.7592, 1489.068
391.2413, 1498.311
391.7234, 1507.664
392.2056, 1515.175
392.6877, 1521.881
393.1698, 1529.539
393.6519, 1539.262
394.1340, 1549.738
394.6161, 1560.111
395.0983, 1570.385
395.5804, 1581.396
396.0625, 1592.973
396.5446, 1605.678
397.0267, 1619.942
397.5089, 1636.545
397.9910, 1653.881
398.4731, 1670.859
398.9552, 1688.251
399.4373, 1708.383
399.9194, 1733.002
400.4016, 1759.163
400.8837, 1785.457
401.3658, 1811.368
401.8479, 1839.394
402.3300, 1870.789
402.8121, 1903.511
403.2942, 1935.321
403.7763, 1966.777
404.2585, 1996.555
404.7406, 2025.157
405.2227, 2052.238
405.7048, 2072.863
406.1869, 2087.130
406.6690, 2094.366
407.1512, 2094.396
407.6333, 2087.433
408.1154, 2071.048
408.5975, 2043.670
409.0796, 2008.502
409.5617, 1968.701
410.0439, 1924.116
410.5260, 1880.493
411.0081, 1840.654
411.4902, 1804.227
411.9723, 1767.509
412.4544, 1729.889
412.9366, 1694.857
413.4187, 1665.160
413.9008, 1639.971
414.3829, 1617.504
414.8650, 1597.348
415.3471, 1579.127
415.8293, 1562.917
416.3114, 1548.445
416.7935, 1535.131
417.2756, 1522.522
417.7577, 1510.877
418.2398, 1500.787
418.7220, 1492.394
419.2041, 1484.966
419.6862, 1478.378
420.1683, 1472.305
420.6504, 1466.422
421.1325, 1459.901
421.6147, 1454.055
422.0968, 1449.497
422.5789, 1446.187
423.0610, 1443.645
423.5431, 1442.727
424.0252, 1441.863
424.5074, 1439.965
424.9895, 1435.016
425.4716, 1431.486
425.9537, 1430.787
426.4358, 1431.583
426.9179, 1430.846
427.4001, 1426.855
427.8822, 1423.400
428.3643, 1421.734
428.8464, 1422.127
429.3285, 1422.394
429.8106, 1422.589
430.2928, 1422.591
430.7749, 1422.274
431.2570, 1421.615
431.7391, 1420.727
432.2212, 1419.539
432.7033, 1418.195
433.1855, 1417.171
433.6676, 1416.505
434.1497, 1415.877
434.6318, 1415.009
435.1139, 1413.980
435.5960, 1413.222
436.0782, 1412.729
436.5603, 1412.601
437.0424, 1413.243
437.5245, 1414.410
438.0066, 1415.264
438.4887, 1415.537
438.9709, 1415.307
439.4530, 1414.288
439.9351, 1412.644
440.4172, 1411.536
440.8993, 1412.441
441.3814, 1413.939
441.8636, 1414.405
442.3457, 1413.217
442.8278, 1411.988
443.3099, 1411.173
443.7920, 1411.016
444.2741, 1411.898
444.7563, 1415.688
445.2384, 1418.927
445.7205, 1419.982
446.2026, 1418.796
446.6847, 1417.570
447.1668, 1416.328
447.6490, 1415.447
448.1311, 1415.170
448.6132, 1416.069
449.0953, 1416.830
449.5774, 1417.408
450.0595, 1417.847
450.5417, 1418.268
451.0238, 1418.842
451.5059, 1419.073
451.9880, 1418.652
452.4701, 1417.522
452.9522, 1416.975
453.4344, 1417.133
453.9165, 1417.555
454.3986, 1417.865
454.8807, 1418.057
455.3628, 1418.141
455.8449, 1417.982
456.3271, 1417.910
456.8092, 1418.788
457.2913, 1420.550
457.7734, 1422.215
458.2555, 1423.398
458.7376, 1424.093
459.2198, 1424.001
459.7019, 1423.061
460.1840, 1422.506
460.6661, 1423.996
461.1482, 1426.500
461.6303, 1428.286
462.1125, 1428.509
462.5946, 1428.328
463.0767, 1428.301
463.5588, 1428.510
464.0409, 1429.182
464.5230, 1430.973
465.0052, 1432.817
465.4873, 1433.966
465.9694, 1434.173
466.4515, 1434.612
466.9336, 1435.781
467.4157, 1437.179
467.8979, 1438.333
468.3800, 1439.224
468.8621, 1439.777
469.3442, 1439.748
469.8263, 1439.332
470.3084, 1439.328
470.7906, 1439.899
471.2727, 1440.675
471.7548, 1441.605
472.2369, 1442.795
472.7190, 1443.550
473.2011, 1443.771
473.6833, 1443.818
474.1654, 1444.070
474.6475, 1444.529
475.1296, 1445.143
475.6117, 1445.814
476.0938, 1446.701
476.5760, 1448.461
477.0581, 1450.998
477.5402, 1453.158
478.0223, 1454.137
478.5044, 1454.235
478.9865, 1453.857
479.4687, 1452.969
479.9508, 1452.215
480.4329, 1452.189
480.9150, 1452.670
481.3971, 1453.366
481.8792, 1454.743
482.3614, 1455.724
482.8435, 1455.270
483.3256, 1453.840
483.8077, 1452.828
484.2898, 1452.840
484.7719, 1453.383
485.2541, 1454.386
485.7362, 1456.036
486.2183, 1457.279
486.7004, 1457.656
487.1825, 1457.714
487.6646, 1457.984
488.1468, 1458.873
488.6289, 1459.229
489.1110, 1458.419
489.5931, 1457.023
490.0752, 1457.186
490.5573, 1459.454
491.0395, 1461.933
491.5216, 1463.984
492.0037, 1465.625
492.4858, 1466.146
492.9679, 1465.262
493.4500, 1464.447
493.9322, 1465.825
494.4143, 1468.970
494.8964, 1470.931
495.3785, 1470.723
495.8606, 1469.688
496.3427, 1469.736
496.8249, 1470.684
497.3070, 1471.877
497.7891, 1472.984
498.2712, 1474.102
498.7533, 1475.431
499.2354, 1476.985
499.7176, 1478.248
500.1997, 1478.764
500.6818, 1478.928
501.1639, 1479.116
501.6460, 1479.547
502.1281, 1479.856
502.6103, 1479.825
503.0924, 1479.636
503.5745, 1479.659
504.0566, 1480.355
504.5387, 1480.869
505.0208, 1480.797
505.5030, 1480.088
505.9851, 1480.207
506.4672, 1481.556
506.9493, 1483.201
507.4314, 1484.474
507.9135, 1485.283
508.3957, 1486.195
508.8778, 1487.332
509.3599, 1488.419
509.8420, 1488.869
510.3241, 1488.687
510.8062, 1488.575
511.2884, 1488.525
511.7705, 1488.849
512.2526, 1490.758
512.7347, 1494.109
513.2168, 1497.121
513.6989, 1498.178
514.1810, 1498.229
514.6631, 1498.644
515.1453, 1499.724
515.6274, 1500.688
516.1095, 1500.771
516.5916, 1500.501
517.0737, 1500.582
517.5558, 1501.891
518.0380, 1502.943
518.5201, 1502.869
519.0022, 1501.970
519.4843, 1501.706
519.9664, 1502.551
520.4485, 1503.881
520.9307, 1505.414
521.4128, 1507.087
521.8949, 1509.357
522.3770, 1513.081
522.8591, 1516.448
523.3412, 1517.266
523.8234, 1514.701
524.3055, 1513.396
524.7876, 1514.214
525.2697, 1516.416
525.7518, 1518.627
526.2339, 1520.859
526.7161, 1522.379
527.1982, 1522.340
527.6803, 1521.396
528.1624, 1521.202
528.6445, 1521.750
529.1266, 1522.774
529.6088, 1524.421
530.0909, 1526.298
530.5730, 1527.862
531.0551, 1529.046
531.5372, 1529.808
532.0193, 1529.857
532.5015, 1529.535
532.9836, 1529.381
533.4657, 1529.539
533.9478, 1529.902
534.4299, 1530.500
534.9120, 1531.304
535.3942, 1532.108
535.8763, 1532.914
536.3584, 1533.693
536.8405, 1534.427
537.3226, 1535.119
537.8047, 1535.800
538.2869, 1536.466
538.7690, 1537.160
539.2511, 1537.943
539.7332, 1538.831
540.2153, 1539.743
540.6974, 1540.757
541.1796, 1541.661
541.6617, 1541.807
542.1438, 1541.283
542.6259, 1540.996
543.1080, 1541.235
543.5901, 1542.076
544.0723, 1544.166
544.5544, 1547.383
545.0365, 1549.882
545.5186, 1549.424
546.0007, 1547.988
546.4828, 1547.711
546.9650, 1549.470
547.4471, 1551.215
547.9292, 1551.925
548.4113, 1552.176
548.8934, 1552.763
549.3755, 1554.218
549.8577, 1555.611
550.3398, 1556.706
550.8219, 1557.579
551.3040, 1558.542
551.7861, 1559.365
552.2682, 1560.695
552.7504, 1563.184
553.2325, 1567.063
553.7146, 1569.036
554.1967, 1568.658
554.6788, 1567.699
555.1609, 1568.025
555.6431, 1569.470
556.1252, 1570.861
556.6073, 1572.059
557.0894, 1572.977
557.5715, 1573.064
558.0536, 1572.718
558.5358, 1573.081
559.0179, 1575.368
559.5000, 1578.115
559.9821, 1580.089
560.4642, 1581.369
560.9464, 1582.515
561.4285, 1583.731
561.9106, 1584.906
562.3927, 1585.857
562.8748, 1586.319
563.3569, 1587.265
563.8391, 1589.670
564.3212, 1592.075
564.8033, 1593.104
565.2854, 1591.734
565.7675, 1590.999
566.2496, 1591.254
566.7318, 1592.315
567.2139, 1593.998
567.6960, 1596.534
568.1781, 1598.289
568.6602, 1598.143
569.1423, 1596.813
569.6245, 1597.088
570.1066, 1598.971
570.5887, 1600.901
571.0708, 1601.717
571.5529, 1601.849
572.0350, 1601.768
572.5172, 1601.397
572.9993, 1601.643
573.4814, 1603.658
573.9635, 1606.470
574.4456, 1608.866
574.9277, 1610.190
575.4099, 1611.320
575.8920, 1612.538
576.3741, 1613.736
576.8562, 1614.634
577.3383, 1614.959
577.8204, 1615.287
578.3026, 1615.725
578.7847, 1616.283
579.2668, 1617.231
579.7489, 1618.827
580.2310, 1620.241
580.7131, 1620.562
581.1953, 1619.822
581.6774, 1620.312
582.1595, 1622.307
582.6416, 1624.858
583.1237, 1627.099
583.6058, 1628.958
584.0880, 1630.161
584.5701, 1630.291
585.0522, 1630.262
585.5343, 1630.902
586.0164, 1632.091
586.4985, 1633.535
586.9807, 1635.484
587.4628, 1637.325
587.9449, 1638.683
588.4270, 1639.572
588.9091, 1640.439
589.3912, 1641.546
589.8734, 1642.531
590.3555, 1643.168
590.8376, 1643.240
591.3197, 1643.716
591.8018, 1644.663
592.2839, 1645.946
592.7661, 1647.476
593.2482, 1649.279
593.7303, 1651.205
594.2124, 1653.471
594.6945, 1655.399
595.1766, 1655.234
595.6588, 1653.454
596.1409, 1652.615
596.6230, 1654.549
597.1051, 1657.543
597.5872, 1659.296
598.0693, 1660.072
598.5515, 1661.411
599.0336, 1665.047
599.5157, 1668.869
599.9978, 1671.420
600.4799, 1672.384
600.9620, 1672.953
601.4442, 1673.134
601.9263, 1673.188
602.4084, 1673.275
602.8905, 1672.974
603.3726, 1673.589
603.8547, 1675.469
604.3369, 1678.022
604.8190, 1680.366
605.3011, 1682.566
605.7832, 1684.234
606.2653, 1685.136
606.7474, 1685.539
607.2296, 1685.742
607.7117, 1685.835
608.1938, 1686.546
608.6759, 1688.776
609.1580, 1691.611
609.6401, 1693.959
610.1223, 1695.765
610.6044, 1697.053
611.0865, 1697.185
611.5686, 1697.215
612.0507, 1698.067
612.5328, 1700.268
613.0150, 1702.174
613.4971, 1703.498
613.9792, 1704.380
614.4613, 1704.967
614.9434, 1704.998
615.4255, 1705.326
615.9077, 1706.153
616.3898, 1707.268
616.8719, 1708.137
617.3540, 1708.733
617.8361, 1709.461
618.3182, 1710.261
618.8004, 1711.413
619.2825, 1714.084
619.7646, 1718.076
620.2467, 1721.536
620.7288, 1722.798
621.2109, 1723.113
621.6931, 1723.933
622.1752, 1725.369
622.6573, 1726.606
623.1394, 1726.555
623.6215, 1726.510
624.1036, 1727.580
624.5858, 1730.754
625.0679, 1733.417
625.5500, 1734.606
626.0321, 1735.553
626.5142, 1737.832
626.9963, 1742.392
627.4785, 1745.885
627.9606, 1747.767
628.4427, 1748.356
628.9248, 1747.950
629.4069, 1746.551
629.8890, 1745.893
630.3712, 1747.348
630.8533, 1749.664
631.3354, 1749.906
631.8175, 1748.468
632.2996, 1747.831
632.7817, 1750.507
633.2639, 1754.098
633.7460, 1756.268
634.2281, 1756.646
634.7102, 1757.805
635.1923, 1761.956
635.6744, 1766.386
636.1566, 1769.082
636.6387, 1768.874
637.1208, 1768.674
637.6029, 1767.970
638.0850, 1767.726
638.5671, 1769.410
639.0493, 1773.406
639.5314, 1777.045
640.0135, 1779.825
640.4956, 1782.016
640.9777, 1784.131
641.4598, 1786.164
641.9420, 1788.114
642.4241, 1789.688
642.9062, 1791.425
643.3883, 1794.500
643.8704, 1798.540
644.3525, 1801.777
644.8347, 1802.161
645.3168, 1802.448
645.7989, 1804.260
646.2810, 1807.791
646.7631, 1812.093
647.2452, 1817.398
647.7274, 1823.128
648.2095, 1829.089
648.6916, 1835.863
649.1737, 1840.995
649.6558, 1843.946
650.1379, 1846.315
650.6201, 1849.707
651.1022, 1854.109
651.5843, 1859.260
652.0664, 1865.226
652.5485, 1871.551
653.0306, 1877.542
653.5128, 1883.273
653.9949, 1888.966
654.4770, 1894.812
654.9591, 1900.494
655.4412, 1905.510
655.9233, 1910.230
656.4055, 1915.779
656.8876, 1922.524
657.3697, 1930.069
657.8518, 1938.586
658.3339, 1947.984
658.8160, 1957.368
659.2982, 1966.747
659.7803, 1976.079
660.2624, 1985.416
660.7445, 1994.737
661.2266, 2003.438
661.7087, 2011.434
662.1909, 2019.268
662.6730, 2028.040
663.1551, 2036.924
663.6372, 2044.242
664.1193, 2049.842
664.6014, 2053.329
665.0836, 2054.003
665.5657, 2052.635
666.0478, 2050.124
666.5299, 2045.840
667.0120, 2041.667
667.4941, 2038.730
667.9763, 2036.030
668.4584, 2031.829
668.9405, 2025.660
669.4226, 2018.719
669.9047, 2010.770
670.3868, 2002.472
670.8690, 1996.223
671.3511, 1992.117
671.8332, 1988.363
672.3153, 1984.177
672.7974, 1979.737
673.2795, 1975.121
673.7617, 1970.366
674.2438, 1965.796
674.7259, 1960.919
675.2080, 1956.843
675.6901, 1955.074
676.1722, 1955.902
676.6544, 1955.989
677.1365, 1953.767
677.6186, 1950.847
678.1007, 1948.253
678.5828, 1946.044
679.0649, 1944.073
679.5471, 1942.392
680.0292, 1940.931
680.5113, 1939.635
680.9934, 1938.493
681.4755, 1937.707
681.9576, 1937.330
682.4398, 1937.206
682.9219, 1937.266
683.4040, 1937.400
683.8861, 1937.209
684.3682, 1935.717
684.8503, 1935.086
685.3325, 1938.169
685.8146, 1943.152
686.2967, 1946.285
686.7788, 1944.927
687.2609, 1943.214
687.7430, 1942.058
688.2252, 1941.458
688.7073, 1941.448
689.1894, 1942.119
689.6715, 1943.220
690.1536, 1944.668
690.6357, 1946.493
691.1179, 1949.023
691.6000, 1952.312
692.0821, 1955.107
692.5642, 1956.326
693.0463, 1956.634
693.5284, 1956.892
694.0106, 1957.168
694.4927, 1958.171
694.9748, 1961.216
695.4569, 1964.607
695.9390, 1966.904
696.4211, 1967.450
696.9033, 1968.298
697.3854, 1969.811
697.8675, 1971.648
698.3496, 1973.575
698.8317, 1975.600
699.3138, 1977.561
699.7960, 1979.293
700.2781, 1981.203
700.7602, 1983.891
701.2423, 1987.269
701.7244, 1991.063
702.2065, 1995.662
702.6887, 1999.568
703.1708, 2000.539
703.6529, 1999.610
704.1350, 1998.720
704.6171, 1997.875
705.0992, 1998.067
705.5814, 2000.474
706.0635, 2004.328
706.5456, 2007.195
707.0277, 2007.829
707.5098, 2009.223
707.9919, 2012.544
708.4741, 2017.185
708.9562, 2019.832
709.4383, 2020.190
709.9204, 2020.700
710.4025, 2022.833
710.8846, 2025.939
711.3667, 2028.300
711.8488, 2029.959
712.3309, 2031.478
712.8130, 2033.097
713.2952, 2034.804
713.7773, 2036.592
714.2594, 2038.482
714.7415, 2040.552
715.2236, 2043.455
715.7057, 2046.116
716.1879, 2047.774
716.6700, 2048.007
717.1521, 2049.268
717.6342, 2051.989
718.1163, 2054.906
718.5984, 2056.643
719.0806, 2057.350
719.5627, 2058.498
720.0448, 2060.184
720.5269, 2062.499
721.0090, 2066.416
721.4911, 2070.740
721.9733, 2073.439
722.4554, 2073.073
722.9375, 2073.025
723.4196, 2075.573
723.9017, 2079.020
724.3839, 2081.237
724.8660, 2080.578
725.3481, 2080.683
725.8302, 2082.153
726.3123, 2084.314
726.7944, 2086.014
727.2766, 2087.318
727.7587, 2088.007
728.2408, 2087.580
728.7229, 2087.346
729.2050, 2090.314
729.6871, 2095.627
730.1693, 2100.258
730.6514, 2102.299
731.1335, 2103.698
731.6156, 2105.603
732.0977, 2107.880
732.5798, 2110.148
733.0620, 2111.654
733.5441, 2113.775
734.0262, 2117.261
734.5083, 2121.710
734.9904, 2124.720
735.4725, 2125.792
735.9547, 2127.002
736.4368, 2129.197
736.9189, 2132.285
737.4010, 2136.688
737.8831, 2142.175
738.3652, 2146.251
738.8474, 2145.535
739.3295, 2143.697
739.8116, 2144.806
740.2937, 2149.018
740.7758, 2153.082
741.2579, 2155.282
741.7401, 2157.404
742.2222, 2160.524
742.7043, 2164.792
743.1864, 2169.235
743.6685, 2174.093
744.1506, 2178.664
744.6328, 2182.274
745.1149, 2184.986
745.5970, 2187.801
746.0791, 2190.663
746.5612, 2194.007
747.0433, 2198.872
747.5255, 2204.212
748.0076, 2208.327
748.4897, 2210.773
748.9718, 2213.114
749.4539, 2215.374
749.9360, 2218.273
750.4182, 2222.583
750.9003, 2229.638
751.3824, 2235.690
751.8645, 2240.370
752.3466, 2244.626
752.8287, 2249.329
753.3109, 2254.545
753.7930, 2260.500
754.2751, 2267.498
754.7572, 2274.565
755.2393, 2280.262
755.7214, 2285.274
756.2036, 2291.111
756.6857, 2298.433
757.1678, 2306.121
757.6499, 2313.102
758.1320, 2320.262
758.6141, 2328.719
759.0963, 2340.196
759.5784, 2350.771
760.0605, 2359.638
760.5426, 2367.927
761.0247, 2378.522
761.5068, 2391.707
761.9890, 2401.936
762.4711, 2407.208
762.9532, 2410.075
763.4353, 2413.760
763.9174, 2418.181
764.3995, 2423.270
764.8817, 2430.456
765.3638, 2436.602
765.8459, 2440.181
766.3280, 2441.499
766.8101, 2441.110
767.2922, 2438.097
767.7744, 2434.763
768.2565, 2431.502
768.7386, 2428.194
769.2207, 2424.348
769.7028, 2419.973
770.1849, 2415.099
770.6671, 2409.786
771.1492, 2403.925
771.6313, 2396.487
772.1134, 2388.141
772.5955, 2381.240
773.0776, 2377.791
773.5598, 2375.341
774.0419, 2372.275
774.5240, 2368.891
775.0061, 2366.771
775.4882, 2368.014
775.9703, 2367.949
776.4525, 2364.742
776.9346, 2359.242
777.4167, 2356.079
777.8988, 2355.398
778.3809, 2354.984
778.8630, 2353.829
779.3452, 2352.223
779.8273, 2350.246
780.3094, 2348.179
780.7915, 2347.185
781.2736, 2348.624
781.7557, 2350.730
782.2379, 2352.825
782.7200, 2354.822
783.2021, 2356.020
783.6842, 2355.589
784.1663, 2355.535
784.6484, 2356.752
785.1306, 2359.010
785.6127, 2360.478
786.0948, 2361.100
786.5769, 2361.636
787.0590, 2361.937
787.5411, 2362.683
788.0233, 2365.952
788.5054, 2371.208
788.9875, 2374.892
789.4696, 2372.933
789.9517, 2370.648
790.4338, 2371.520
790.9160, 2375.823
791.3981, 2378.391
791.8802, 2377.863
792.3623, 2377.747
792.8444, 2379.838
793.3265, 2383.900
793.8087, 2387.325
794.2908, 2390.164
794.7729, 2392.772
795.2550, 2395.095
795.7371, 2397.508
796.2192, 2400.834
796.7014, 2404.956
797.1835, 2408.189
797.6656, 2408.750
798.1477, 2409.047
798.6298, 2410.128
799.1119, 2411.982
799.5941, 2414.973
800.0762, 2419.514
800.5583, 2424.085
801.0404, 2428.058
801.5225, 2431.367
802.0046, 2433.759
802.4868, 2435.243
802.9689, 2436.233
803.4510, 2436.790
803.9331, 2437.203
804.4152, 2437.493
804.8973, 2437.773
805.3795, 2439.092
805.8616, 2442.783
806.3437, 2446.816
806.8258, 2450.582
807.3079, 2454.083
807.7900, 2455.953
808.2722, 2455.704
808.7543, 2455.769
809.2364, 2457.713
809.7185, 2461.093
810.2006, 2465.009
810.6827, 2469.262
811.1649, 2472.532
811.6470, 2472.746
812.1291, 2472.491
812.6112, 2473.755
813.0933, 2476.612
813.5754, 2479.499
814.0576, 2482.428
814.5397, 2485.004
815.0218, 2486.843
815.5039, 2488.063
815.9860, 2490.417
816.4681, 2494.044
816.9503, 2497.450
817.4324, 2499.335
817.9145, 2500.582
818.3966, 2502.856
818.8787, 2506.034
819.3608, 2509.065
819.8430, 2511.236
820.3251, 2513.282
820.8072, 2515.332
821.2893, 2517.451
821.7714, 2520.663
822.2535, 2525.662
822.7357, 2530.079
823.2178, 2532.762
823.6999, 2534.013
824.1820, 2535.208
824.6641, 2536.355
825.1462, 2537.789
825.6284, 2539.843
826.1105, 2542.175
826.5926, 2544.749
827.0747, 2547.435
827.5568, 2549.574
828.0389, 2550.377
828.5211, 2551.308
829.0032, 2553.066
829.4853, 2555.467
829.9674, 2557.254
830.4495, 2558.288
830.9316, 2559.690
831.4138, 2562.159
831.8959, 2565.175
832.3780, 2567.554
832.8601, 2569.462
833.3422, 2571.592
833.8243, 2574.207
834.3065, 2577.205
834.7886, 2581.087
835.2707, 2585.391
835.7528, 2588.117
836.2349, 2587.517
836.7170, 2588.183
837.1992, 2591.627
837.6813, 2596.704
838.1634, 2600.250
838.6455, 2602.379
839.1276, 2604.417
839.6097, 2606.739
840.0919, 2609.427
840.5740, 2613.297
841.0561, 2617.595
841.5382, 2620.515
842.0203, 2619.342
842.5024, 2619.264
842.9846, 2622.309
843.4667, 2627.060
843.9488, 2631.038
844.4309, 2634.121
844.9130, 2637.028
845.3951, 2639.882
845.8773, 2642.605
846.3594, 2644.858
846.8415, 2646.848
847.3236, 2649.087
847.8057, 2651.536
848.2878, 2654.631
848.7700, 2658.599
849.2521, 2663.333
849.7342, 2668.774
850.2163, 2676.286
850.6984, 2681.945
851.1805, 2685.088
851.6627, 2686.923
852.1448, 2689.013
852.6269, 2691.287
853.1090, 2693.069
853.5911, 2694.131
854.0732, 2695.283
854.5554, 2697.608
855.0375, 2700.354
855.5196, 2702.476
856.0017, 2703.088
856.4838, 2704.819
856.9659, 2709.460
857.4481, 2714.311
857.9302, 2717.059
858.4123, 2717.246
858.8944, 2718.542
859.3765, 2721.203
859.8586, 2724.344
860.3408, 2727.005
860.8229, 2729.624
861.3050, 2733.142
861.7871, 2737.773
862.2692, 2741.982
862.7513, 2745.252
863.2335, 2747.707
863.7156, 2748.746
864.1977, 2747.846
864.6798, 2750.662
865.1619, 2758.445
865.6440, 2766.331
866.1262, 2770.701
866.6083, 2772.491
867.0904, 2774.903
867.5725, 2777.983
868.0546, 2781.869
868.5367, 2787.566
869.0189, 2793.323
869.5010, 2797.884
869.9831, 2801.234
870.4652, 2803.797
870.9473, 2804.815
871.4294, 2806.427
871.9116, 2809.637
872.3937, 2813.919
872.8758, 2817.079
873.3579, 2819.209
873.8400, 2821.011
874.3221, 2822.678
874.8043, 2824.403
875.2864, 2826.156
875.7685, 2828.155
876.2506, 2830.860
876.7327, 2836.047
877.2148, 2839.930
877.6970, 2840.768
878.1791, 2840.422
878.6612, 2843.437
879.1433, 2850.286
879.6254, 2855.048
880.1075, 2855.677
880.5897, 2855.379
881.0718, 2858.583
881.5539, 2864.054
882.0360, 2869.463
882.5181, 2873.858
883.0002, 2878.486
883.4824, 2884.847
883.9645, 2891.005
884.4466, 2894.545
884.9287, 2894.134
885.4108, 2896.021
885.8929, 2901.034
886.3751, 2906.458
886.8572, 2909.131
887.3393, 2909.937
887.8214, 2910.818
888.3035, 2912.012
888.7856, 2913.651
889.2678, 2915.854
889.7499, 2918.534
890.2320, 2921.866
890.7141, 2926.086
891.1962, 2929.588
891.6783, 2932.233
892.1605, 2934.646
892.6426, 2937.048
893.1247, 2939.568
893.6068, 2942.914
894.0889, 2947.037
894.5710, 2950.988
895.0532, 2954.170
895.5353, 2957.034
896.0174, 2959.280
896.4995, 2961.146
896.9816, 2964.718
897.4637, 2971.256
897.9459, 2977.163
898.4280, 2981.071
898.9101, 2983.685
899.3922, 2987.057
899.8743, 2991.036
900.3564, 2994.385
900.8386, 2995.801
901.3207, 2997.610
901.8028, 3002.599
902.2849, 3009.232
902.7670, 3014.828
903.2491, 3018.267
903.7313, 3021.249
904.2134, 3023.685
904.6955, 3026.053
905.1776, 3029.337
905.6597, 3033.451
906.1418, 3036.113
906.6240, 3036.586
907.1061, 3037.754
907.5882, 3043.184
908.0703, 3050.435
908.5524, 3057.001
909.0345, 3062.578
909.5167, 3066.609
909.9988, 3067.415
910.4809, 3068.710
910.9630, 3073.434
911.4451, 3081.663
911.9272, 3087.196
912.4094, 3089.949
912.8915, 3092.647
913.3736, 3098.096
913.8557, 3103.999
914.3378, 3107.189
914.8199, 3107.948
915.3021, 3109.717
915.7842, 3114.017
916.2663, 3118.984
916.7484, 3124.513
917.2305, 3130.159
917.7126, 3133.996
918.1948, 3136.017
918.6769, 3138.567
919.1590, 3142.791
919.6411, 3147.680
920.1232, 3152.739
920.6053, 3157.447
921.0875, 3160.679
921.5696, 3159.356
922.0517, 3160.253
922.5338, 3165.565
923.0159, 3172.625
923.4980, 3178.219
923.9802, 3182.261
924.4623, 3186.219
924.9444, 3190.165
925.4265, 3194.136
925.9086, 3197.910
926.3907, 3201.821
926.8729, 3206.356
927.3550, 3211.701
927.8371, 3217.015
928.3192, 3222.412
928.8013, 3227.244
929.2834, 3230.942
929.7656, 3233.517
930.2477, 3237.198
930.7298, 3242.036
931.2119, 3246.444
931.6940, 3249.145
932.1761, 3250.901
932.6583, 3252.665
933.1404, 3254.337
933.6225, 3255.427
934.1046, 3254.404
934.5867, 3254.587
935.0688, 3257.236
935.5510, 3261.475
936.0331, 3265.227
936.5152, 3268.601
936.9973, 3271.163
937.4794, 3272.506
937.9615, 3274.001
938.4437, 3277.769
938.9258, 3282.551
939.4079, 3286.366
939.8900, 3288.081
940.3721, 3289.847
940.8542, 3290.934
941.3364, 3293.042
941.8185, 3298.168
942.3006, 3306.348
942.7827, 3312.241
943.2648, 3315.582
943.7469, 3318.485
944.2291, 3323.269
944.7112, 3328.171
945.1933, 3331.018
945.6754, 3331.867
946.1575, 3333.524
946.6396, 3337.735
947.1218, 3341.686
947.6039, 3344.418
948.0860, 3346.470
948.5681, 3349.894
949.0502, 3354.609
949.5323, 3358.979
950.0145, 3361.948
950.4966, 3364.960
950.9787, 3369.536
951.4608, 3375.010
951.9429, 3380.269
952.4250, 3384.708
952.9072, 3389.181
953.3893, 3393.287
953.8714, 3397.868
954.3535, 3404.569
954.8356, 3412.832
955.3177, 3419.445
955.7999, 3424.080
956.2820, 3427.055
956.7641, 3426.485
957.2462, 3425.933
957.7283, 3429.021
958.2104, 3436.528
958.6925, 3442.216
959.1746, 3445.155
959.6567, 3447.993
960.1389, 3451.887
960.6210, 3456.610
961.1031, 3461.493
961.5852, 3466.508
962.0673, 3471.220
962.5494, 3474.996
963.0316, 3478.919
963.5137, 3483.689
963.9958, 3489.042
964.4779, 3494.344
964.9600, 3499.297
965.4421, 3504.951
965.9243, 3511.435
966.4064, 3518.403
966.8885, 3525.997
967.3706, 3533.658
967.8527, 3540.515
968.3348, 3546.437
968.8170, 3550.511
969.2991, 3548.691
969.7812, 3547.824
970.2633, 3553.130
970.7454, 3564.662
971.2275, 3574.366
971.7097, 3582.355
972.1918, 3588.236
972.6739, 3590.726
973.1560, 3591.880
973.6381, 3595.158
974.1202, 3600.105
974.6024, 3605.438
975.0845, 3610.912
975.5666, 3616.483
976.0487, 3623.457
976.5308, 3629.727
977.0129, 3631.040
977.4951, 3627.032
977.9772, 3627.440
978.4593, 3634.093
978.9414, 3642.101
979.4235, 3646.815
979.9056, 3650.018
980.3878, 3653.674
980.8699, 3658.019
981.3520, 3663.381
981.8341, 3671.341
982.3162, 3678.292
982.7983, 3682.423
983.2805, 3684.199
983.7626, 3685.504
984.2447, 3686.529
984.7268, 3688.710
985.2089, 3694.056
985.6910, 3699.635
986.1732, 3702.107
986.6553, 3703.407
987.1374, 3707.936
987.6195, 3717.973
988.1016, 3726.845
988.5837, 3733.787
989.0659, 3739.523
989.5480, 3744.862
990.0301, 3749.711
990.5122, 3753.351
990.9943, 3755.609
991.4764, 3758.628
991.9586, 3763.980
992.4407, 3770.205
992.9228, 3776.784
993.4049, 3783.638
993.8870, 3789.372
994.3691, 3793.907
994.8513, 3797.683
995.3334, 3800.110
995.8155, 3802.817
996.2976, 3809.612
996.7797, 3818.584
997.2618, 3825.598
997.7440, 3827.004
998.2261, 3829.205
998.7082, 3833.479
999.1903, 3838.763
999.6724, 3843.955
1000.155, 3848.958
1000.637, 3854.200
1001.119, 3859.618
1001.601, 3865.354
1002.083, 3871.944
1002.565, 3878.504
1003.047, 3884.407
1003.529, 3889.469
1004.011, 3894.031
1004.494, 3898.455
1004.976, 3901.488
1005.458, 3901.726
1005.940, 3901.337
1006.422, 3906.438
1006.904, 3915.657
1007.386, 3923.876
1007.868, 3929.261
1008.351, 3933.747
1008.833, 3938.037
1009.315, 3942.188
1009.797, 3946.194
1010.279, 3949.902
1010.761, 3954.302
1011.243, 3959.392
1011.725, 3964.703
1012.207, 3969.368
1012.690, 3974.118
1013.172, 3980.431
1013.654, 3988.042
1014.136, 3995.130
1014.618, 4000.195
1015.100, 4005.606
1015.582, 4011.990
1016.064, 4018.954
1016.547, 4026.176
1017.029, 4033.394
1017.511, 4038.425
1017.993, 4040.252
1018.475, 4041.397
1018.957, 4043.348
1019.439, 4046.133
1019.921, 4049.987
1020.403, 4055.329
1020.886, 4059.975
1021.368, 4063.581
1021.850, 4067.574
1022.332, 4072.942
1022.814, 4079.238
1023.296, 4085.808
1023.778, 4092.413
1024.260, 4098.216
1024.743, 4102.151
1025.225, 4106.013
1025.707, 4110.739
1026.189, 4115.483
1026.671, 4118.682
1027.153, 4120.233
1027.635, 4123.530
1028.117, 4129.183
1028.599, 4135.507
1029.082, 4140.679
1029.564, 4145.995
1030.046, 4153.235
1030.528, 4162.768
1031.010, 4171.085
1031.492, 4177.551
1031.974, 4183.726
1032.456, 4190.073
1032.938, 4196.573
1033.421, 4203.988
1033.903, 4211.690
1034.385, 4217.638
1034.867, 4219.739
1035.349, 4222.283
1035.831, 4226.809
1036.313, 4232.969
1036.795, 4240.657
1037.278, 4250.343
1037.760, 4258.344
1038.242, 4264.534
1038.724, 4269.577
1039.206, 4273.522
1039.688, 4276.920
1040.170, 4280.073
1040.652, 4283.156
1041.135, 4286.802
1041.617, 4291.946
1042.099, 4296.287
1042.581, 4298.845
1043.063, 4301.334
1043.545, 4307.245
1044.027, 4315.702
1044.509, 4323.117
1044.991, 4328.587
1045.474, 4334.928
1045.956, 4345.946
1046.438, 4356.452
1046.920, 4361.862
1047.402, 4362.352
1047.884, 4366.837
1048.366, 4375.531
1048.848, 4385.028
1049.330, 4394.813
1049.813, 4403.153
1050.295, 4406.397
1050.777, 4407.117
1051.259, 4410.148
1051.741, 4419.657
1052.223, 4427.209
1052.705, 4432.279
1053.187, 4436.075
1053.670, 4438.757
1054.152, 4441.147
1054.634, 4446.916
1055.116, 4455.923
1055.598, 4463.840
1056.080, 4467.572
1056.562, 4470.470
1057.044, 4473.158
1057.526, 4476.439
1058.009, 4483.079
1058.491, 4493.327
1058.973, 4502.344
1059.455, 4509.192
1059.937, 4513.941
1060.419, 4514.946
1060.901, 4514.976
1061.383, 4517.372
1061.865, 4523.227
1062.348, 4528.393
1062.830, 4532.438
1063.312, 4536.423
1063.794, 4540.167
1064.276, 4544.795
1064.758, 4554.756
1065.240, 4568.083
1065.722, 4578.803
1066.205, 4582.729
1066.687, 4585.993
1067.169, 4590.276
1067.651, 4594.868
1068.133, 4598.435
1068.615, 4600.870
1069.097, 4608.344
1069.579, 4621.127
1070.062, 4632.412
1070.544, 4634.606
1071.026, 4635.489
1071.508, 4641.257
1071.990, 4651.195
1072.472, 4660.649
1072.954, 4670.526
1073.436, 4676.267
1073.918, 4675.923
1074.401, 4674.600
1074.883, 4679.415
1075.365, 4687.853
1075.847, 4695.875
1076.329, 4702.635
1076.811, 4710.453
1077.293, 4721.594
1077.775, 4731.711
1078.257, 4738.717
1078.740, 4743.298
1079.222, 4746.955
1079.704, 4750.150
1080.186, 4755.398
1080.668, 4764.491
1081.150, 4774.405
1081.632, 4784.888
1082.114, 4794.175
1082.596, 4800.124
1083.079, 4801.913
1083.561, 4804.639
1084.043, 4808.236
1084.525, 4813.625
1085.007, 4822.838
1085.489, 4833.054
1085.971, 4842.304
1086.453, 4850.271
1086.936, 4855.599
1087.418, 4855.708
1087.900, 4859.033
1088.382, 4867.850
1088.864, 4877.080
1089.346, 4878.767
1089.828, 4876.685
1090.310, 4878.729
1090.792, 4885.733
1091.275, 4893.207
1091.757, 4900.771
1092.239, 4906.744
1092.721, 4909.137
1093.203, 4910.425
1093.685, 4918.224
1094.167, 4931.611
1094.649, 4945.722
1095.131, 4960.170
1095.614, 4971.362
1096.096, 4972.857
1096.578, 4972.724
1097.060, 4978.863
1097.542, 4991.579
1098.024, 5000.057
1098.506, 5003.879
1098.988, 5008.211
1099.471, 5017.234
1099.953, 5026.500
1100.435, 5029.720
1100.917, 5030.240
1101.399, 5034.101
1101.881, 5045.298
1102.363, 5054.999
1102.845, 5063.597
1103.328, 5069.646
1103.810, 5069.813
1104.292, 5067.433
1104.774, 5069.563
1105.256, 5075.878
1105.738, 5083.330
1106.220, 5092.332
1106.702, 5100.229
1107.184, 5105.681
1107.667, 5110.591
1108.149, 5118.512
1108.631, 5128.690
1109.113, 5136.917
1109.595, 5142.680
1110.077, 5147.658
1110.559, 5152.376
1111.041, 5157.198
1111.523, 5161.826
1112.006, 5166.705
1112.488, 5174.475
1112.970, 5185.200
1113.452, 5194.705
1113.934, 5201.844
1114.416, 5207.526
1114.898, 5211.305
1115.380, 5214.878
1115.863, 5220.357
1116.345, 5228.375
1116.827, 5234.548
1117.309, 5238.438
1117.791, 5242.839
1118.273, 5249.401
1118.755, 5257.063
1119.237, 5264.901
1119.719, 5272.721
1120.202, 5280.162
1120.684, 5286.813
1121.166, 5293.892
1121.648, 5302.189
1122.130, 5309.412
1122.612, 5312.439
1123.094, 5313.226
1123.576, 5316.730
1124.058, 5322.986
1124.541, 5331.718
1125.023, 5347.728
1125.505, 5359.496
1125.987, 5362.337
1126.469, 5361.930
1126.951, 5365.583
1127.433, 5372.720
1127.915, 5379.878
1128.398, 5386.740
1128.880, 5393.732
1129.362, 5401.388
1129.844, 5409.012
1130.326, 5416.841
1130.808, 5424.363
1131.290, 5429.790
1131.772, 5433.123
1132.255, 5437.397
1132.737, 5443.479
1133.219, 5449.603
1133.701, 5452.750
1134.183, 5456.556
1134.665, 5465.453
1135.147, 5479.353
1135.629, 5489.326
1136.111, 5494.498
1136.594, 5501.232
1137.076, 5512.580
1137.558, 5524.804
1138.040, 5533.111
1138.522, 5539.292
1139.004, 5545.712
1139.486, 5552.917
1139.968, 5559.329
1140.450, 5564.680
1140.933, 5569.876
1141.415, 5575.719
1141.897, 5581.618
1142.379, 5586.176
1142.861, 5590.095
1143.343, 5595.033
1143.825, 5602.931
1144.307, 5609.855
1144.790, 5615.445
1145.272, 5620.448
1145.754, 5625.188
1146.236, 5629.845
1146.718, 5633.850
1147.200, 5637.950
1147.682, 5645.769
1148.164, 5664.585
1148.646, 5679.463
1149.129, 5686.330
1149.611, 5688.807
1150.093, 5689.654
1150.575, 5689.731
1151.057, 5695.428
1151.539, 5706.780
1152.021, 5717.104
1152.503, 5720.648
1152.985, 5724.389
1153.468, 5732.056
1153.950, 5741.875
1154.432, 5750.623
1154.914, 5758.317
1155.396, 5764.124
1155.878, 5767.571
1156.360, 5772.497
1156.842, 5781.960
1157.325, 5793.753
1157.807, 5807.732
1158.289, 5822.728
1158.771, 5834.150
1159.253, 5841.769
1159.735, 5847.284
1160.217, 5850.475
1160.699, 5853.862
1161.182, 5859.861
1161.664, 5867.139
1162.146, 5874.512
1162.628, 5881.901
1163.110, 5889.478
1163.592, 5897.288
1164.074, 5905.570
1164.556, 5915.085
1165.038, 5923.984
1165.521, 5929.870
1166.003, 5934.149
1166.485, 5938.612
1166.967, 5943.750
1167.449, 5948.506
1167.931, 5952.820
1168.413, 5957.331
1168.895, 5962.172
1169.377, 5967.674
1169.860, 5974.199
1170.342, 5981.760
1170.824, 5990.436
1171.306, 6001.175
1171.788, 6010.907
1172.270, 6019.200
1172.752, 6027.671
1173.234, 6038.439
1173.717, 6049.732
1174.199, 6058.947
1174.681, 6066.322
1175.163, 6072.546
1175.645, 6075.311
1176.127, 6081.470
1176.609, 6093.290
1177.091, 6104.656
1177.573, 6107.506
1178.056, 6106.329
1178.538, 6111.073
1179.020, 6121.134
1179.502, 6130.997
1179.984, 6138.287
1180.466, 6146.188
1180.948, 6156.026
1181.430, 6165.354
1181.912, 6168.732
1182.395, 6169.846
1182.877, 6180.049
1183.359, 6199.231
1183.841, 6215.055
1184.323, 6220.139
1184.805, 6223.380
1185.287, 6225.896
1185.769, 6229.312
1186.252, 6237.382
1186.734, 6248.620
1187.216, 6258.639
1187.698, 6266.915
1188.180, 6274.769
1188.662, 6282.106
1189.144, 6289.994
1189.626, 6299.067
1190.109, 6308.673
1190.591, 6317.729
1191.073, 6326.086
1191.555, 6332.195
1192.037, 6335.206
1192.519, 6340.034
1193.001, 6350.387
1193.483, 6361.587
1193.965, 6371.779
1194.448, 6381.049
1194.930, 6389.140
1195.412, 6396.483
1195.894, 6405.532
1196.376, 6417.707
1196.858, 6428.764
1197.340, 6435.175
1197.822, 6441.601
1198.304, 6450.977
1198.787, 6462.378
1199.269, 6471.096
1199.751, 6477.658
1200.233, 6484.628
1200.715, 6492.845
1201.197, 6501.894
1201.679, 6512.457
1202.161, 6522.989
1202.644, 6532.259
1203.126, 6540.413
1203.608, 6548.946
1204.090, 6557.673
1204.572, 6566.092
1205.054, 6573.350
1205.536, 6581.328
1206.018, 6591.615
1206.500, 6602.346
1206.983, 6611.936
1207.465, 6620.541
1207.947, 6629.191
1208.429, 6637.667
1208.911, 6644.830
1209.393, 6648.530
1209.875, 6652.826
1210.357, 6659.630
1210.839, 6667.651
1211.322, 6675.721
1211.804, 6683.936
1212.286, 6693.252
1212.768, 6703.555
1213.250, 6713.561
1213.732, 6722.083
1214.214, 6730.845
1214.696, 6740.152
1215.179, 6750.479
1215.661, 6763.161
1216.143, 6777.682
1216.625, 6788.807
1217.107, 6796.670
1217.589, 6804.014
1218.071, 6810.634
1218.553, 6819.634
1219.036, 6834.971
1219.518, 6850.928
1220.000, 6859.154
1220.482, 6861.139
1220.964, 6870.485
1221.446, 6887.034
1221.928, 6901.847
1222.410, 6907.425
1222.892, 6913.378
1223.375, 6923.353
1223.857, 6935.289
1224.339, 6947.221
1224.821, 6958.802
1225.303, 6967.139
1225.785, 6972.370
1226.267, 6978.431
1226.749, 6989.281
1227.231, 6999.154
1227.714, 7005.718
1228.196, 7011.198
1228.678, 7019.708
1229.160, 7030.155
1229.642, 7036.667
1230.124, 7039.017
1230.606, 7044.009
1231.088, 7058.487
1231.571, 7071.422
1232.053, 7078.255
1232.535, 7083.084
1233.017, 7093.150
1233.499, 7106.896
1233.981, 7120.135
1234.463, 7132.288
1234.945, 7142.577
1235.427, 7147.654
1235.910, 7155.053
1236.392, 7168.584
1236.874, 7183.178
1237.356, 7187.932
1237.838, 7187.036
1238.320, 7190.388
1238.802, 7199.375
1239.284, 7210.964
1239.766, 7225.594
1240.249, 7240.870
1240.731, 7256.658
1241.213, 7272.229
1241.695, 7286.642
1242.177, 7300.032
1242.659, 7312.362
1243.141, 7323.479
1243.623, 7334.355
1244.106, 7344.995
1244.588, 7355.389
1245.070, 7365.328
1245.552, 7375.275
1246.034, 7386.712
1246.516, 7398.589
1246.998, 7410.048
1247.480, 7421.187
1247.963, 7428.076
1248.445, 7427.743
1248.927, 7431.861
1249.409, 7445.284
1249.891, 7461.438
1250.373, 7470.625
1250.855, 7476.302
1251.337, 7482.986
1251.819, 7491.466
1252.302, 7499.281
1252.784, 7505.540
1253.266, 7515.078
1253.748, 7530.447
1254.230, 7546.536
1254.712, 7555.776
1255.194, 7563.048
1255.676, 7574.689
1256.158, 7591.313
1256.641, 7604.041
1257.123, 7612.018
1257.605, 7621.045
1258.087, 7632.608
1258.569, 7646.041
1259.051, 7662.479
1259.533, 7679.090
1260.015, 7692.522
1260.498, 7703.108
1260.980, 7715.338
1261.462, 7729.215
1261.944, 7741.149
1262.426, 7749.478
1262.908, 7757.842
1263.390, 7768.144
1263.872, 7780.771
1264.354, 7797.791
1264.837, 7817.545
1265.319, 7828.289
1265.801, 7831.022
1266.283, 7835.183
1266.765, 7843.594
1267.247, 7853.298
1267.729, 7865.163
1268.211, 7874.792
1268.693, 7878.472
1269.176, 7878.591
1269.658, 7883.429
1270.140, 7892.873
1270.622, 7906.987
1271.104, 7927.658
1271.586, 7945.442
1272.068, 7953.563
1272.550, 7960.852
1273.033, 7971.174
1273.515, 7982.922
1273.997, 7991.657
1274.479, 7998.612
1274.961, 8006.443
1275.443, 8015.358
1275.925, 8027.473
1276.407, 8044.563
1276.890, 8061.682
1277.372, 8076.933
1277.854, 8091.102
1278.336, 8106.776
1278.818, 8122.372
1279.300, 8134.876
1279.782, 8143.038
1280.264, 8152.735
1280.746, 8165.234
1281.229, 8176.128
1281.711, 8183.680
1282.193, 8189.710
1282.675, 8194.760
1283.157, 8201.139
1283.639, 8213.214
1284.121, 8232.060
1284.603, 8245.069
1285.085, 8251.488
1285.568, 8259.068
1286.050, 8270.531
1286.532, 8283.699
1287.014, 8297.175
1287.496, 8310.842
1287.978, 8324.920
1288.460, 8339.137
1288.942, 8352.499
1289.425, 8364.970
1289.907, 8377.032
1290.389, 8388.804
1290.871, 8399.685
1291.353, 8408.281
1291.835, 8416.906
1292.317, 8427.386
1292.799, 8438.774
1293.281, 8447.850
1293.764, 8454.711
1294.246, 8459.565
1294.728, 8462.094
1295.210, 8464.487
1295.692, 8468.275
1296.174, 8471.349
1296.656, 8472.583
1297.138, 8472.880
1297.620, 8474.081
1298.103, 8475.821
1298.585, 8477.438
1299.067, 8478.885
1299.549, 8479.838
1300.031, 8480.610
1300.513, 8483.360
1300.995, 8486.772
1301.477, 8489.347
1301.960, 8492.225
1302.442, 8495.323
1302.924, 8497.854
1303.406, 8499.475
1303.888, 8502.866
1304.370, 8506.959
1304.852, 8506.726
1305.334, 8491.228
##END=



