##NAMES=Spinel
##RRUFFID=R060799
##IDEAL CHEMISTRY=MgAl_2_O_4_
##LOCALITY=Aliabad, Hunza Valley, Pakistan
##OWNER=RRUFF
##SOURCE=Marcus Origlieri
##DESCRIPTION=A group of blue distorted octahedra
##STATUS=The identification of this mineral is confirmed by single-crystal X-ray diffraction and chemical analysis.
##URL=rruff.info/R060799
##MEASURED CHEMISTRY=(Mg_0.97_Fe^2+^_0.03_)_1.00_Al_2.00_O_4_
91.72394, 0.0000000E+00
92.20605, 128.2808
92.68817, 126.3766
93.17029, 126.3962
93.65240, 128.5996
94.13452, 131.2937
94.61664, 132.5143
95.09875, 131.6492
95.58087, 129.3526
96.06299, 126.8998
96.54510, 123.7798
97.02721, 121.2602
97.50933, 119.9336
97.99145, 119.2778
98.47356, 118.5822
98.95568, 117.2701
99.43780, 115.1539
99.91991, 113.4022
100.4020, 112.5768
100.8841, 111.5243
101.3663, 109.4937
101.8484, 106.6438
102.3305, 103.8750
102.8126, 102.1030
103.2947, 101.6047
103.7768, 101.0506
104.2590, 100.5013
104.7411, 99.85811
105.2232, 98.97324
105.7053, 97.77224
106.1874, 96.47630
106.6695, 95.17880
107.1517, 93.83729
107.6338, 93.02076
108.1159, 93.47277
108.5980, 94.86570
109.0801, 95.48251
109.5622, 94.47605
110.0444, 92.86495
110.5265, 91.46706
111.0086, 90.34454
111.4907, 89.31626
111.9728, 88.12404
112.4549, 86.65281
112.9371, 85.44314
113.4192, 84.46075
113.9013, 83.80968
114.3834, 83.77437
114.8655, 84.46079
115.3476, 85.44682
115.8298, 85.58006
116.3119, 83.88903
116.7940, 82.47035
117.2761, 81.72506
117.7582, 81.32458
118.2403, 80.77512
118.7225, 79.75080
119.2046, 78.33356
119.6867, 77.54161
120.1688, 77.57110
120.6509, 77.87019
121.1330, 78.46583
121.6152, 79.23493
122.0973, 79.79833
122.5794, 79.80468
123.0615, 79.24349
123.5436, 78.84338
124.0257, 78.66544
124.5079, 78.61130
124.9900, 78.64967
125.4721, 78.80328
125.9542, 78.88737
126.4363, 78.62868
126.9184, 78.15285
127.4006, 77.74464
127.8827, 77.60953
128.3648, 77.63674
128.8469, 77.47196
129.3290, 76.97082
129.8111, 76.42835
130.2932, 76.07391
130.7754, 75.85281
131.2575, 75.57210
131.7396, 74.98691
132.2217, 74.03464
132.7038, 73.35195
133.1859, 73.28098
133.6681, 73.24485
134.1502, 72.97153
134.6323, 72.44848
135.1144, 71.86561
135.5965, 71.49452
136.0786, 71.53862
136.5608, 71.37443
137.0429, 70.82605
137.5250, 70.21389
138.0071, 69.78662
138.4892, 69.61635
138.9713, 69.59641
139.4535, 69.51356
139.9356, 69.36662
140.4177, 69.14895
140.8998, 68.85751
141.3819, 68.49496
141.8640, 68.03112
142.3462, 67.43057
142.8283, 66.78157
143.3104, 66.34704
143.7925, 66.16009
144.2746, 66.06244
144.7567, 66.06251
145.2388, 66.12558
145.7210, 66.08446
146.2031, 65.76591
146.6852, 65.35394
147.1673, 65.23241
147.6494, 65.62863
148.1315, 66.00251
148.6137, 65.70219
149.0958, 64.60418
149.5779, 63.70576
150.0600, 63.74852
150.5421, 64.15376
151.0242, 64.41463
151.5064, 64.36605
151.9885, 64.08177
152.4706, 63.67236
152.9527, 63.00251
153.4348, 62.46355
153.9169, 62.24615
154.3991, 62.18339
154.8812, 62.05883
155.3633, 61.73448
155.8454, 61.26057
156.3275, 60.95005
156.8096, 60.99592
157.2918, 61.01965
157.7739, 60.86466
158.2560, 60.63507
158.7381, 60.52691
159.2202, 60.70009
159.7023, 61.16475
160.1845, 61.52776
160.6666, 61.88424
161.1487, 62.07111
161.6308, 61.94360
162.1129, 61.56283
162.5950, 61.13146
163.0772, 60.83213
163.5593, 60.68658
164.0414, 60.47264
164.5235, 60.07149
165.0056, 59.69625
165.4877, 59.47610
165.9698, 59.42614
166.4520, 59.52677
166.9341, 59.84894
167.4162, 60.38824
167.8983, 60.68215
168.3804, 60.44670
168.8625, 60.03448
169.3447, 59.95960
169.8268, 60.37949
170.3089, 60.77791
170.7910, 60.48502
171.2731, 59.68379
171.7552, 59.01001
172.2374, 58.73112
172.7195, 58.76870
173.2016, 58.92516
173.6837, 59.24885
174.1658, 59.58802
174.6479, 59.88847
175.1301, 60.13234
175.6122, 60.24901
176.0943, 60.11352
176.5764, 59.74020
177.0585, 59.49497
177.5406, 59.59095
178.0228, 59.64222
178.5049, 59.40950
178.9870, 58.93650
179.4691, 58.45124
179.9512, 58.18186
180.4333, 58.17623
180.9155, 58.17004
181.3976, 58.28212
181.8797, 58.29981
182.3618, 57.99972
182.8439, 57.43365
183.3260, 56.91223
183.8082, 56.86237
184.2903, 57.58720
184.7724, 57.99144
185.2545, 57.86057
185.7366, 57.63689
186.2187, 57.64141
186.7009, 57.91433
187.1830, 58.22797
187.6651, 58.24627
188.1472, 57.76054
188.6293, 57.39312
189.1114, 57.22235
189.5936, 57.12292
190.0757, 56.91149
190.5578, 56.54880
191.0399, 56.27955
191.5220, 56.57602
192.0041, 57.78788
192.4863, 58.58234
192.9684, 58.59792
193.4505, 58.18999
193.9326, 57.77182
194.4147, 57.44855
194.8968, 57.19824
195.3790, 56.95869
195.8611, 56.68648
196.3432, 56.61218
196.8253, 56.99406
197.3074, 57.61718
197.7895, 57.99199
198.2717, 57.92422
198.7538, 57.67506
199.2359, 57.59352
199.7180, 57.68176
200.2001, 57.74846
200.6822, 57.70885
201.1644, 57.56685
201.6465, 57.28424
202.1286, 56.55300
202.6107, 56.04834
203.0928, 56.46143
203.5749, 57.78022
204.0571, 59.17588
204.5392, 60.18745
205.0213, 60.81579
205.5034, 60.77098
205.9855, 59.32867
206.4676, 57.72485
206.9497, 56.50902
207.4319, 55.77648
207.9140, 55.66060
208.3961, 56.69085
208.8782, 59.21091
209.3603, 60.69314
209.8424, 59.94090
210.3246, 58.76367
210.8067, 57.86528
211.2888, 57.38160
211.7709, 57.17812
212.2530, 57.14452
212.7351, 57.36058
213.2173, 57.49389
213.6994, 57.55922
214.1815, 57.53470
214.6636, 57.34833
215.1457, 57.02177
215.6278, 56.67902
216.1100, 56.44202
216.5921, 56.17012
217.0742, 56.41788
217.5563, 58.06020
218.0384, 59.48212
218.5205, 59.41989
219.0027, 57.80241
219.4848, 55.68754
219.9669, 54.50118
220.4490, 54.70076
220.9311, 54.78716
221.4132, 54.56966
221.8954, 54.37849
222.3775, 54.54544
222.8596, 55.09473
223.3417, 55.68370
223.8238, 55.85402
224.3059, 55.36218
224.7881, 55.09877
225.2702, 55.31931
225.7523, 55.61211
226.2344, 55.60521
226.7165, 55.23393
227.1986, 54.70702
227.6807, 54.22993
228.1629, 53.78257
228.6450, 53.56956
229.1271, 53.78181
229.6092, 54.14639
230.0913, 54.43732
230.5734, 54.61866
231.0556, 54.63208
231.5377, 54.31164
232.0198, 53.66185
232.5019, 53.18723
232.9840, 53.13320
233.4661, 53.22654
233.9483, 53.04269
234.4304, 52.46577
234.9125, 51.99174
235.3946, 52.31155
235.8767, 53.22749
236.3588, 53.90741
236.8410, 54.09409
237.3231, 53.93878
237.8052, 53.56150
238.2873, 52.86608
238.7694, 52.31736
239.2515, 52.43684
239.7337, 52.99313
240.2158, 53.51965
240.6979, 53.91002
241.1800, 54.15935
241.6621, 54.20538
242.1442, 53.95859
242.6264, 53.75253
243.1085, 53.88027
243.5906, 54.18080
244.0727, 54.39986
244.5548, 54.44647
245.0369, 54.34171
245.5191, 54.10289
246.0012, 53.67139
246.4833, 53.24440
246.9654, 52.83593
247.4475, 52.50637
247.9296, 52.35321
248.4117, 52.43456
248.8939, 52.69990
249.3760, 53.09208
249.8581, 53.76244
250.3402, 54.22063
250.8223, 54.21258
251.3044, 53.95939
251.7866, 53.68137
252.2687, 53.46141
252.7508, 53.28991
253.2329, 53.15051
253.7150, 53.07009
254.1971, 52.96756
254.6793, 52.81288
255.1614, 52.63532
255.6435, 52.44454
256.1256, 52.24105
256.6077, 52.06547
257.0898, 52.03272
257.5720, 52.30374
258.0541, 52.39177
258.5362, 52.04422
259.0183, 51.61353
259.5004, 51.43598
259.9825, 51.62200
260.4647, 51.96291
260.9468, 52.03857
261.4289, 51.59661
261.9110, 51.39128
262.3931, 51.63881
262.8752, 51.99862
263.3574, 52.24443
263.8395, 52.30452
264.3216, 52.20319
264.8037, 51.93828
265.2858, 51.28579
265.7679, 50.93719
266.2501, 51.10224
266.7322, 51.37494
267.2143, 51.46244
267.6964, 51.32282
268.1785, 51.12881
268.6606, 51.12111
269.1428, 51.40864
269.6249, 51.60124
270.1070, 51.66674
270.5891, 51.68291
271.0712, 51.74052
271.5533, 51.82094
272.0355, 51.78107
272.5176, 51.41425
272.9997, 50.54641
273.4818, 50.13702
273.9639, 50.22486
274.4460, 50.62969
274.9282, 51.53478
275.4103, 52.75590
275.8924, 53.72400
276.3745, 53.88326
276.8566, 53.12656
277.3387, 52.56386
277.8208, 52.16909
278.3029, 51.93804
278.7851, 51.97625
279.2672, 52.19518
279.7493, 52.34548
280.2314, 52.21743
280.7135, 51.82834
281.1956, 51.72537
281.6778, 52.16695
282.1599, 52.56149
282.6420, 52.68401
283.1241, 52.60366
283.6062, 52.47829
284.0883, 52.38951
284.5705, 52.34589
285.0526, 52.40839
285.5347, 52.65269
286.0168, 52.89672
286.4989, 53.06981
286.9810, 53.21801
287.4632, 53.45246
287.9453, 53.84230
288.4274, 54.28334
288.9095, 54.46302
289.3916, 54.05538
289.8737, 53.88425
290.3559, 54.20598
290.8380, 54.79923
291.3201, 55.34340
291.8022, 55.72152
292.2843, 56.09161
292.7664, 56.80724
293.2486, 58.21398
293.7307, 59.11818
294.2128, 58.96204
294.6949, 58.45153
295.1770, 58.34089
295.6591, 58.80738
296.1413, 59.57163
296.6234, 60.33812
297.1055, 61.15653
297.5876, 61.70709
298.0697, 61.68879
298.5518, 61.57995
299.0340, 61.82985
299.5161, 62.47628
299.9982, 63.20018
300.4803, 63.67622
300.9624, 63.87388
301.4445, 64.33888
301.9267, 65.21154
302.4088, 66.22511
302.8909, 67.22001
303.3730, 68.19436
303.8551, 69.23277
304.3372, 70.40442
304.8194, 71.70255
305.3015, 73.03216
305.7836, 74.09789
306.2657, 75.48135
306.7478, 77.48889
307.2299, 80.04554
307.7121, 82.93921
308.1942, 86.09042
308.6763, 89.47252
309.1584, 92.98429
309.6405, 96.95979
310.1227, 100.5581
310.6048, 103.9132
311.0869, 106.6637
311.5690, 108.0436
312.0511, 107.7300
312.5332, 106.0477
313.0154, 103.4526
313.4975, 99.89249
313.9796, 95.82226
314.4617, 90.77012
314.9438, 85.46559
315.4259, 80.82777
315.9081, 77.10188
316.3902, 73.87904
316.8723, 70.61716
317.3544, 67.22807
317.8365, 64.43017
318.3186, 62.50467
318.8007, 61.05677
319.2828, 59.79631
319.7650, 58.67397
320.2471, 57.67867
320.7292, 56.79963
321.2113, 56.05462
321.6934, 55.42414
322.1755, 54.97286
322.6577, 54.57255
323.1398, 54.18575
323.6219, 53.79358
324.1040, 53.29673
324.5861, 52.57540
325.0682, 51.73006
325.5504, 51.28501
326.0325, 51.60128
326.5146, 51.84806
326.9967, 51.60644
327.4788, 51.09031
327.9609, 50.76838
328.4431, 50.86617
328.9252, 51.19053
329.4073, 51.28230
329.8894, 51.04248
330.3715, 50.82659
330.8536, 50.75547
331.3358, 50.72276
331.8179, 50.57001
332.3000, 50.25414
332.7821, 49.90047
333.2642, 49.67405
333.7463, 49.61372
334.2285, 49.56078
334.7106, 49.45119
335.1927, 49.38776
335.6748, 49.51018
336.1569, 49.80522
336.6390, 50.06419
337.1212, 50.07558
337.6033, 49.82613
338.0854, 49.78067
338.5675, 50.15464
339.0496, 50.50072
339.5317, 50.62184
340.0139, 50.53414
340.4960, 50.29539
340.9781, 49.91630
341.4602, 49.44094
341.9423, 49.09957
342.4244, 48.77035
342.9066, 48.69400
343.3887, 49.15944
343.8708, 49.84475
344.3529, 50.28545
344.8350, 50.30139
345.3171, 50.03915
345.7993, 49.76348
346.2814, 49.39968
346.7635, 49.16494
347.2456, 49.08507
347.7277, 49.12189
348.2098, 49.29623
348.6920, 49.58673
349.1741, 49.87539
349.6562, 50.02457
350.1383, 50.00521
350.6204, 49.98071
351.1025, 49.84072
351.5847, 49.79549
352.0668, 50.02492
352.5489, 50.45263
353.0310, 50.84826
353.5131, 51.03659
353.9952, 51.04443
354.4774, 51.15717
354.9595, 51.44634
355.4416, 51.75547
355.9237, 52.13016
356.4058, 52.48527
356.8879, 52.70018
357.3701, 52.71940
357.8522, 52.60902
358.3343, 52.52530
358.8164, 52.55458
359.2985, 52.46916
359.7806, 51.93259
360.2627, 51.50461
360.7448, 51.79298
361.2270, 52.80828
361.7091, 53.91572
362.1912, 54.35547
362.6733, 53.98185
363.1554, 53.56840
363.6375, 52.80396
364.1197, 52.29621
364.6018, 52.43526
365.0839, 53.05365
365.5660, 53.73511
366.0481, 54.20060
366.5302, 54.45753
367.0124, 54.54513
367.4945, 54.16398
367.9766, 54.00896
368.4587, 54.38294
368.9408, 54.98090
369.4229, 55.43558
369.9051, 55.59363
370.3872, 55.60953
370.8693, 55.77334
371.3514, 56.13714
371.8335, 56.52034
372.3156, 56.87065
372.7978, 57.25518
373.2799, 57.77504
373.7620, 58.40977
374.2441, 59.00023
374.7262, 59.26450
375.2083, 59.16893
375.6905, 59.53160
376.1726, 60.81592
376.6547, 62.05276
377.1368, 62.78711
377.6189, 63.16479
378.1010, 63.49106
378.5832, 63.88864
379.0653, 64.38765
379.5474, 65.03326
380.0295, 65.74953
380.5116, 66.82587
380.9937, 68.70252
381.4759, 70.82594
381.9580, 72.57692
382.4401, 73.73364
382.9222, 74.96548
383.4043, 76.98515
383.8864, 79.79096
384.3686, 82.87959
384.8507, 86.04379
385.3328, 89.62158
385.8149, 93.90235
386.2970, 98.82054
386.7791, 104.0394
387.2613, 109.2977
387.7434, 114.6857
388.2255, 120.6622
388.7076, 127.5098
389.1897, 134.0107
389.6718, 139.2083
390.1540, 143.4533
390.6361, 147.3064
391.1182, 150.4457
391.6003, 153.6832
392.0824, 157.7437
392.5645, 162.5970
393.0467, 167.7851
393.5288, 172.9823
394.0109, 178.5960
394.4930, 185.2695
394.9751, 192.9970
395.4572, 201.5571
395.9394, 210.8438
396.4215, 220.9036
396.9036, 231.4460
397.3857, 242.4187
397.8678, 254.7203
398.3499, 269.4385
398.8321, 286.7446
399.3142, 305.6136
399.7963, 324.8236
400.2784, 346.7443
400.7605, 372.9477
401.2426, 403.3805
401.7247, 437.6547
402.2068, 475.8119
402.6890, 517.3660
403.1711, 559.5726
403.6532, 608.1477
404.1353, 650.2688
404.6174, 687.9273
405.0995, 716.2977
405.5817, 730.0063
406.0638, 727.3035
406.5459, 707.8608
407.0280, 669.7430
407.5101, 606.8295
407.9922, 543.9406
408.4744, 477.0783
408.9565, 414.0004
409.4386, 357.5802
409.9207, 308.4009
410.4028, 266.4709
410.8849, 231.5741
411.3671, 203.5467
411.8492, 179.9620
412.3313, 163.0357
412.8134, 148.3278
413.2955, 135.6137
413.7776, 124.5861
414.2598, 115.0206
414.7419, 106.8221
415.2240, 99.86514
415.7061, 94.05976
416.1882, 89.54512
416.6703, 85.62119
417.1525, 82.73567
417.6346, 80.05161
418.1167, 77.15414
418.5988, 74.10897
419.0809, 71.28967
419.5630, 68.96793
420.0452, 67.06458
420.5273, 65.18799
421.0094, 63.28223
421.4915, 61.55007
421.9736, 60.02179
422.4557, 58.72306
422.9379, 57.77113
423.4200, 57.24250
423.9021, 56.80639
424.3842, 56.10608
424.8663, 55.15236
425.3484, 54.16143
425.8306, 53.03033
426.3127, 52.07715
426.7948, 51.71679
427.2769, 51.84409
427.7590, 51.75684
428.2411, 50.90959
428.7233, 49.77302
429.2054, 49.13540
429.6875, 49.05576
430.1696, 48.97059
430.6517, 48.50331
431.1339, 47.78780
431.6160, 47.25407
432.0981, 46.96038
432.5802, 46.75788
433.0623, 46.57891
433.5444, 46.43842
434.0266, 46.41067
434.5087, 46.53953
434.9908, 46.64351
435.4729, 46.44244
435.9550, 45.83271
436.4371, 45.38208
436.9193, 45.16649
437.4014, 45.06895
437.8835, 45.09759
438.3656, 45.19192
438.8477, 45.15521
439.3298, 44.83348
439.8120, 44.30604
440.2941, 44.00920
440.7762, 44.16097
441.2583, 44.27636
441.7404, 44.29921
442.2225, 44.26719
442.7046, 44.16975
443.1867, 44.02676
443.6689, 43.96456
444.1510, 44.20008
444.6331, 44.86459
445.1152, 45.16823
445.5973, 44.72533
446.0794, 44.29962
446.5616, 44.20886
447.0437, 44.32487
447.5258, 44.36634
448.0079, 44.16643
448.4900, 43.82600
448.9721, 43.59399
449.4543, 43.50071
449.9364, 43.43020
450.4185, 43.27279
450.9006, 43.18534
451.3827, 43.38070
451.8648, 43.84761
452.3470, 44.20280
452.8291, 44.04870
453.3112, 43.50798
453.7933, 43.12183
454.2754, 42.94690
454.7575, 42.86543
455.2397, 42.89335
455.7218, 42.94895
456.2039, 42.87669
456.6860, 42.58653
457.1681, 42.24020
457.6502, 41.90363
458.1324, 41.60667
458.6145, 41.50400
459.0966, 41.69061
459.5787, 42.00540
460.0608, 42.24580
460.5429, 42.42815
461.0251, 42.46641
461.5072, 42.29098
461.9893, 42.00175
462.4714, 41.61296
462.9535, 41.16607
463.4356, 40.82644
463.9178, 40.70255
464.3999, 40.77655
464.8820, 40.95387
465.3641, 41.49786
465.8462, 41.80321
466.3283, 41.58225
466.8105, 41.18634
467.2926, 41.00486
467.7747, 41.11929
468.2568, 41.33379
468.7389, 41.41420
469.2210, 41.33337
469.7032, 41.30146
470.1853, 41.48803
470.6674, 41.54490
471.1495, 41.22824
471.6316, 40.74101
472.1137, 40.42122
472.5959, 40.43575
473.0780, 40.63563
473.5601, 40.76899
474.0422, 40.84905
474.5243, 40.80386
475.0064, 40.46154
475.4886, 40.11807
475.9707, 39.99723
476.4528, 40.06549
476.9349, 40.08976
477.4170, 39.83398
477.8991, 39.45426
478.3813, 39.32554
478.8634, 39.48179
479.3455, 39.69548
479.8276, 39.88977
480.3097, 40.05199
480.7918, 40.18842
481.2740, 40.34954
481.7561, 40.34166
482.2382, 39.84327
482.7203, 39.16048
483.2024, 38.89887
483.6845, 39.18852
484.1666, 39.68704
484.6487, 40.13400
485.1309, 40.52041
485.6130, 40.66682
486.0951, 40.35522
486.5772, 40.05117
487.0593, 40.06166
487.5414, 40.19667
488.0236, 40.05315
488.5057, 39.47114
488.9878, 38.72367
489.4699, 38.31054
489.9520, 38.42328
490.4341, 38.39724
490.9163, 38.04057
491.3984, 37.74678
491.8805, 37.81115
492.3626, 38.10756
492.8447, 38.29702
493.3268, 38.15115
493.8090, 37.78804
494.2911, 37.55706
494.7732, 37.50999
495.2553, 37.45655
495.7374, 37.31666
496.2195, 37.18121
496.7017, 37.11687
497.1838, 37.12698
497.6659, 37.16704
498.1480, 37.21100
498.6301, 37.26080
499.1122, 37.34726
499.5944, 37.49736
500.0765, 37.55420
500.5586, 37.33569
501.0407, 36.99219
501.5228, 36.83987
502.0049, 36.95616
502.4871, 37.12798
502.9692, 37.31398
503.4513, 37.46798
503.9334, 37.47935
504.4155, 37.32194
504.8976, 37.13450
505.3798, 37.04520
505.8619, 37.05883
506.3440, 37.13544
506.8261, 37.39518
507.3082, 37.57887
507.7903, 37.52822
508.2725, 37.35846
508.7546, 37.24553
509.2367, 37.25564
509.7188, 37.34009
510.2009, 37.42646
510.6830, 37.51858
511.1652, 37.60048
511.6473, 37.54228
512.1294, 37.60293
512.6115, 38.00682
513.0936, 38.59322
513.5757, 39.04919
514.0579, 39.21404
514.5400, 39.17596
515.0221, 39.08350
515.5042, 38.93547
515.9863, 38.73032
516.4684, 38.38353
516.9506, 38.06386
517.4327, 37.89589
517.9148, 37.87566
518.3969, 37.96018
518.8790, 38.27598
519.3611, 38.60471
519.8433, 38.60904
520.3254, 38.30862
520.8075, 38.03622
521.2896, 37.94167
521.7717, 37.98224
522.2538, 38.10481
522.7360, 38.42181
523.2181, 38.50314
523.7002, 38.04100
524.1823, 37.47732
524.6644, 37.19847
525.1465, 37.21690
525.6287, 37.36414
526.1108, 37.54325
526.5929, 37.71642
527.0750, 37.66971
527.5571, 37.09336
528.0392, 36.74340
528.5214, 36.86393
529.0035, 37.10108
529.4856, 37.13317
529.9677, 36.94814
530.4498, 36.80604
530.9319, 37.05119
531.4141, 37.55771
531.8962, 37.43511
532.3783, 36.28062
532.8604, 35.43381
533.3425, 35.87252
533.8246, 36.72408
534.3068, 37.07237
534.7889, 36.72745
535.2710, 36.28368
535.7531, 36.13468
536.2352, 36.16223
536.7173, 36.08097
537.1995, 35.84248
537.6816, 35.67061
538.1637, 35.76357
538.6458, 36.07134
539.1279, 36.26998
539.6100, 36.28927
540.0922, 36.29769
540.5743, 36.40456
541.0564, 36.49844
541.5385, 36.40464
542.0206, 36.10613
542.5027, 35.77020
542.9849, 35.57328
543.4670, 35.51871
543.9491, 35.45138
544.4312, 35.24077
544.9133, 35.18206
545.3954, 35.51804
545.8775, 35.94370
546.3596, 36.06261
546.8417, 35.78967
547.3239, 35.47724
547.8060, 35.53345
548.2881, 35.92595
548.7702, 36.28211
549.2523, 36.59315
549.7344, 36.84845
550.2166, 37.04027
550.6987, 37.17101
551.1808, 37.24285
551.6629, 37.27416
552.1450, 37.20404
552.6271, 36.86867
553.1093, 36.42767
553.5914, 36.27020
554.0735, 36.48069
554.5556, 36.69957
555.0377, 36.58247
555.5198, 36.13493
556.0020, 35.80083
556.4841, 35.68358
556.9662, 35.53680
557.4483, 35.10696
557.9304, 34.69844
558.4125, 34.81347
558.8947, 35.50695
559.3768, 36.20634
559.8589, 36.18319
560.3410, 35.41123
560.8231, 35.16199
561.3052, 35.98124
561.7874, 36.52949
562.2695, 36.16695
562.7516, 35.44043
563.2337, 34.93245
563.7158, 34.78176
564.1979, 34.91614
564.6801, 35.49963
565.1622, 36.33003
565.6443, 36.64933
566.1264, 36.28601
566.6085, 35.91368
567.0906, 36.02986
567.5728, 36.50398
568.0549, 36.79980
568.5370, 36.90306
569.0191, 36.85433
569.5012, 36.47853
569.9833, 36.05090
570.4655, 36.00336
570.9476, 36.35052
571.4297, 36.63811
571.9118, 36.42279
572.3939, 35.76300
572.8760, 35.42784
573.3582, 35.71229
573.8403, 35.92937
574.3224, 35.97889
574.8045, 35.92958
575.2866, 35.78786
575.7687, 35.58583
576.2509, 35.46583
576.7330, 35.67031
577.2151, 36.05446
577.6972, 35.93947
578.1793, 35.14712
578.6614, 34.64593
579.1436, 35.11434
579.6257, 35.95858
580.1078, 36.27448
580.5899, 35.96360
581.0720, 35.63180
581.5541, 35.45649
582.0363, 35.40781
582.5184, 35.52771
583.0005, 35.77175
583.4826, 35.91467
583.9647, 35.81184
584.4468, 35.54206
584.9290, 35.32593
585.4111, 34.98853
585.8932, 35.00167
586.3753, 35.66152
586.8574, 36.39120
587.3395, 36.87127
587.8217, 37.10160
588.3038, 37.19248
588.7859, 37.19305
589.2680, 37.13538
589.7501, 37.04979
590.2322, 36.90903
590.7144, 36.95534
591.1965, 37.40218
591.6786, 37.86229
592.1607, 38.02873
592.6428, 37.93304
593.1249, 37.70562
593.6071, 37.17840
594.0892, 36.71545
594.5713, 36.70985
595.0534, 37.01908
595.5355, 37.21369
596.0176, 37.14333
596.4998, 37.04512
596.9819, 37.25169
597.4640, 37.85555
597.9461, 38.18957
598.4282, 38.02764
598.9103, 37.89664
599.3925, 37.99994
599.8746, 38.22050
600.3567, 38.40114
600.8388, 38.49223
601.3209, 38.53550
601.8030, 38.62154
602.2852, 38.74047
602.7673, 38.59975
603.2494, 38.03834
603.7315, 37.56189
604.2136, 37.45415
604.6957, 37.58073
605.1779, 37.82686
605.6600, 38.23315
606.1421, 38.53434
606.6242, 38.50344
607.1063, 38.33391
607.5884, 38.32195
608.0706, 38.47879
608.5527, 38.59829
609.0348, 38.52880
609.5169, 38.34784
609.9990, 38.32526
610.4811, 38.59988
610.9633, 38.83723
611.4454, 39.06291
611.9275, 39.22874
612.4096, 39.30832
612.8917, 39.30046
613.3738, 39.20503
613.8560, 39.01063
614.3381, 38.75803
614.8202, 38.44113
615.3023, 38.02651
615.7844, 38.01746
616.2665, 38.77969
616.7487, 39.60073
617.2308, 39.81925
617.7129, 39.56049
618.1950, 39.27087
618.6771, 38.95210
619.1592, 38.71847
619.6414, 38.64574
620.1235, 38.70598
620.6056, 38.88826
621.0877, 39.18007
621.5698, 39.45030
622.0519, 39.55162
622.5341, 39.48314
623.0162, 39.46452
623.4983, 39.49912
623.9804, 39.58511
624.4625, 39.81564
624.9446, 40.03752
625.4268, 40.07886
625.9089, 39.93335
626.3910, 39.76986
626.8730, 39.73881
627.3552, 39.78172
627.8373, 39.72655
628.3194, 39.56158
628.8015, 39.45745
629.2836, 39.49915
629.7657, 39.61423
630.2479, 39.71980
630.7300, 39.83214
631.2121, 39.81762
631.6942, 39.39291
632.1763, 39.08250
632.6584, 39.41861
633.1406, 40.10309
633.6227, 40.41343
634.1048, 40.07235
634.5869, 39.56917
635.0690, 39.70968
635.5511, 40.65485
636.0333, 41.07610
636.5154, 40.44280
636.9975, 40.01520
637.4796, 40.34101
637.9617, 41.07427
638.4438, 41.83076
638.9260, 42.53949
639.4081, 43.13407
639.8902, 43.50222
640.3723, 43.74382
640.8544, 44.03251
641.3365, 44.38164
641.8187, 44.76377
642.3008, 45.15601
642.7829, 45.58146
643.2650, 46.09486
643.7471, 46.63315
644.2292, 47.40286
644.7114, 48.55572
645.1935, 49.79247
645.6756, 50.99532
646.1577, 52.14413
646.6398, 53.23415
647.1219, 54.25550
647.6041, 55.25201
648.0862, 56.19422
648.5683, 57.08919
649.0504, 58.43221
649.5325, 60.44863
650.0146, 62.49848
650.4968, 63.97632
650.9789, 65.23135
651.4610, 67.04916
651.9431, 69.81410
652.4252, 72.39623
652.9073, 74.07078
653.3895, 75.50005
653.8716, 77.40957
654.3537, 79.82914
654.8358, 82.38853
655.3179, 84.83143
655.8000, 87.32777
656.2822, 90.36290
656.7643, 93.93288
657.2464, 98.03642
657.7285, 103.5651
658.2106, 108.8015
658.6927, 112.5305
659.1749, 115.4293
659.6570, 119.0504
660.1391, 124.1543
660.6212, 129.5263
661.1033, 134.2804
661.5854, 138.4150
662.0676, 142.1283
662.5497, 145.4521
663.0318, 147.7216
663.5139, 148.3501
663.9960, 147.5685
664.4781, 146.5148
664.9603, 145.5917
665.4424, 143.8113
665.9245, 140.9795
666.4066, 137.4063
666.8887, 133.0979
667.3708, 128.2383
667.8530, 123.1602
668.3351, 117.9593
668.8172, 112.8132
669.2993, 108.0036
669.7814, 103.5159
670.2635, 98.89455
670.7457, 93.91557
671.2278, 89.25436
671.7099, 85.62163
672.1920, 82.79839
672.6741, 79.83515
673.1563, 76.62668
673.6384, 73.42634
674.1205, 70.10986
674.6026, 67.00027
675.0847, 64.42274
675.5668, 62.37300
676.0490, 60.68707
676.5311, 59.29027
677.0132, 58.02109
677.4953, 56.38530
677.9774, 54.23206
678.4595, 52.43903
678.9417, 51.19175
679.4238, 50.22465
679.9059, 49.45641
680.3880, 48.81303
680.8701, 48.12935
681.3522, 47.34658
681.8344, 46.57019
682.3165, 45.91035
682.7986, 45.27255
683.2807, 44.40658
683.7628, 43.35175
684.2449, 42.55292
684.7271, 42.35547
685.2092, 42.51937
685.6913, 42.23215
686.1734, 41.11842
686.6555, 40.42389
687.1376, 40.63001
687.6198, 40.87274
688.1019, 40.75721
688.5840, 40.38229
689.0661, 39.97879
689.5482, 39.61860
690.0303, 39.26113
690.5125, 38.75011
690.9946, 38.24558
691.4767, 38.20317
691.9588, 38.65727
692.4409, 39.05877
692.9230, 39.05791
693.4052, 38.75648
693.8873, 38.44960
694.3694, 38.14064
694.8515, 37.81937
695.3336, 37.28545
695.8157, 36.94210
696.2979, 37.18174
696.7800, 37.71289
697.2621, 37.97142
697.7442, 37.73274
698.2263, 37.36398
698.7084, 37.24939
699.1906, 37.31150
699.6727, 37.27863
700.1548, 37.12081
700.6369, 36.98732
701.1190, 36.96217
701.6011, 37.01353
702.0833, 37.06346
702.5654, 37.07303
703.0475, 37.17812
703.5296, 37.52774
704.0117, 37.82360
704.4938, 37.86676
704.9760, 37.76215
705.4581, 37.66962
705.9402, 37.64800
706.4223, 37.72543
706.9044, 37.99583
707.3865, 38.40148
707.8687, 38.71273
708.3508, 38.93519
708.8329, 38.94091
709.3149, 38.58245
709.7971, 38.07268
710.2792, 37.74172
710.7613, 37.57182
711.2434, 37.65416
711.7255, 38.32650
712.2076, 38.90096
712.6898, 38.99553
713.1719, 38.79022
713.6540, 38.51610
714.1361, 38.25673
714.6182, 38.06971
715.1003, 38.03790
715.5825, 38.12215
716.0646, 38.15111
716.5467, 38.11718
717.0288, 38.08995
717.5109, 38.13361
717.9930, 38.13916
718.4752, 37.85789
718.9573, 37.30084
719.4394, 37.13702
719.9215, 37.88401
720.4036, 38.50181
720.8857, 38.47997
721.3679, 38.13312
721.8500, 37.80716
722.3321, 37.58549
722.8142, 37.42067
723.2963, 37.27186
723.7784, 37.15627
724.2606, 37.15619
724.7427, 37.29263
725.2248, 37.30623
725.7069, 37.01766
726.1890, 36.81045
726.6711, 37.15820
727.1533, 37.91309
727.6354, 38.33656
728.1175, 38.12214
728.5996, 37.93971
729.0817, 38.10458
729.5638, 38.30994
730.0460, 38.16668
730.5281, 37.75752
731.0102, 37.52112
731.4923, 37.73820
731.9744, 38.12659
732.4565, 38.09901
732.9387, 37.64347
733.4208, 37.46450
733.9029, 37.70859
734.3850, 38.03786
734.8671, 38.24732
735.3492, 38.39631
735.8314, 38.62272
736.3135, 38.90975
736.7956, 39.31496
737.2777, 40.05640
737.7598, 40.73487
738.2419, 40.97241
738.7241, 40.94347
739.2062, 41.05229
739.6883, 41.45054
740.1704, 41.93608
740.6525, 42.27550
741.1346, 42.47872
741.6168, 42.53372
742.0989, 42.32552
742.5810, 42.59893
743.0631, 43.97908
743.5452, 45.64058
744.0273, 46.18560
744.5095, 45.50144
744.9916, 45.55823
745.4737, 47.13409
745.9558, 48.77331
746.4379, 49.83604
746.9200, 50.62011
747.4022, 51.43690
747.8843, 52.39118
748.3664, 53.58081
748.8485, 55.12999
749.3306, 56.89798
749.8127, 58.54012
750.2949, 60.05863
750.7770, 61.62445
751.2591, 63.28085
751.7412, 64.96018
752.2233, 66.53540
752.7054, 68.07114
753.1876, 70.07484
753.6697, 73.00365
754.1518, 75.70885
754.6339, 77.64554
755.1160, 79.66015
755.5981, 82.45734
756.0803, 85.86442
756.5624, 89.36393
757.0445, 92.74937
757.5266, 96.06390
758.0087, 99.27020
758.4908, 102.4442
758.9730, 105.7716
759.4551, 109.2640
759.9372, 113.1336
760.4193, 117.5297
760.9014, 122.3279
761.3835, 127.3902
761.8657, 133.0617
762.3478, 137.8486
762.8299, 141.4887
763.3120, 144.6031
763.7941, 147.2285
764.2762, 149.5351
764.7584, 151.9169
765.2405, 154.3284
765.7226, 155.9481
766.2047, 156.3500
766.6868, 155.5437
767.1689, 153.4574
767.6511, 150.1458
768.1332, 145.7175
768.6153, 140.1552
769.0974, 134.2960
769.5795, 128.9991
770.0616, 124.1174
770.5438, 118.7570
771.0259, 112.3309
771.5080, 106.4357
771.9901, 101.5487
772.4722, 96.89231
772.9543, 91.87459
773.4365, 86.80205
773.9186, 82.45909
774.4007, 79.19328
774.8828, 76.30843
775.3649, 73.32787
775.8470, 70.48032
776.3292, 68.14489
776.8113, 66.27352
777.2934, 64.56691
777.7755, 62.87970
778.2576, 61.16406
778.7397, 59.25734
779.2219, 57.09053
779.7040, 55.62197
780.1861, 55.25509
780.6682, 54.75286
781.1503, 53.46189
781.6324, 51.97880
782.1146, 50.99910
782.5967, 50.50447
783.0788, 49.88924
783.5609, 48.74368
784.0430, 47.73849
784.5251, 47.33837
785.0073, 47.23193
785.4894, 47.05358
785.9715, 46.72196
786.4536, 46.27133
786.9357, 45.71748
787.4178, 45.08562
787.9000, 44.39370
788.3821, 43.64545
788.8642, 43.05103
789.3463, 42.67517
789.8284, 42.31388
790.3105, 41.74781
790.7927, 41.14845
791.2747, 41.07626
791.7568, 41.98782
792.2390, 42.26042
792.7211, 41.17041
793.2032, 40.09962
793.6853, 39.86290
794.1674, 40.02553
794.6495, 39.86990
795.1317, 39.24526
795.6138, 38.62457
796.0959, 38.46585
796.5780, 38.50075
797.0601, 38.27269
797.5422, 37.81786
798.0244, 37.29606
798.5065, 36.74208
798.9886, 36.27406
799.4707, 36.00714
799.9528, 35.92519
800.4349, 35.92665
800.9171, 36.05796
801.3992, 36.17905
801.8813, 36.41258
802.3634, 36.49573
802.8455, 36.16923
803.3276, 35.61546
803.8098, 35.20684
804.2919, 35.03339
804.7740, 34.96399
805.2561, 35.05985
805.7382, 35.13335
806.2203, 34.90538
806.7025, 34.49739
807.1846, 34.25658
807.6667, 34.30770
808.1488, 34.45816
808.6309, 34.50549
809.1130, 34.45134
809.5952, 34.25264
810.0773, 33.85554
810.5594, 33.64993
811.0415, 33.81199
811.5236, 34.08372
812.0057, 34.27889
812.4879, 34.37938
812.9700, 34.24982
813.4521, 33.59367
813.9342, 33.12907
814.4163, 33.05923
814.8984, 33.13706
815.3806, 33.28083
815.8627, 33.41022
816.3448, 33.37413
816.8269, 33.10396
817.3090, 32.82436
817.7911, 32.77142
818.2733, 32.84765
818.7554, 32.87289
819.2375, 32.84095
819.7196, 32.78924
820.2017, 32.73407
820.6838, 32.63018
821.1660, 32.39902
821.6481, 32.04758
822.1302, 31.85312
822.6123, 31.85036
823.0944, 31.93087
823.5765, 32.18701
824.0587, 32.41074
824.5408, 32.46061
825.0229, 32.35812
825.5050, 32.16855
825.9871, 31.86594
826.4692, 31.55407
826.9514, 31.16973
827.4335, 30.87577
827.9156, 30.91429
828.3977, 31.15820
828.8798, 31.25008
829.3619, 31.06119
829.8441, 30.88869
830.3262, 31.22360
830.8083, 31.05016
831.2904, 30.96360
831.7725, 31.19425
832.2546, 30.83101
832.7368, 31.09500
833.2189, 31.46082
833.7010, 31.34725
834.1831, 30.81665
834.6652, 30.58450
835.1473, 30.87379
835.6295, 31.10896
836.1116, 31.31015
836.5937, 31.38692
837.0758, 31.16276
837.5579, 30.80828
838.0400, 30.70309
838.5222, 30.99938
839.0043, 31.18666
839.4864, 30.90484
839.9685, 30.46571
840.4506, 30.04922
840.9327, 29.75381
841.4149, 29.87170
841.8970, 30.42798
842.3791, 30.86791
842.8612, 30.55515
843.3433, 29.78356
843.8254, 29.59663
844.3076, 30.01885
844.7897, 30.28905
845.2718, 30.23138
845.7539, 30.08541
846.2360, 30.02285
846.7181, 30.01305
847.2003, 29.94147
847.6824, 29.65687
848.1645, 29.61491
848.6466, 30.12262
849.1287, 30.51755
849.6108, 30.37254
850.0930, 30.03540
850.5751, 29.97612
851.0572, 30.26026
851.5393, 30.59342
852.0214, 30.95709
852.5035, 31.18313
852.9857, 31.08061
853.4678, 30.75575
853.9499, 30.29434
854.4320, 29.78175
854.9141, 29.50738
855.3962, 29.69967
855.8784, 30.09925
856.3605, 30.18700
856.8426, 29.97073
857.3247, 29.66888
857.8068, 29.24661
858.2889, 29.01668
858.7711, 29.20426
859.2532, 29.54595
859.7353, 29.60030
860.2174, 29.28922
860.6995, 29.26765
861.1816, 30.03370
861.6638, 30.41564
862.1459, 29.89454
862.6280, 29.15901
863.1101, 28.75879
863.5922, 28.63885
864.0743, 28.43731
864.5565, 27.93363
865.0386, 27.60066
865.5207, 27.88638
866.0028, 28.39869
866.4849, 28.73039
866.9670, 28.87483
867.4492, 28.92826
867.9313, 28.92766
868.4134, 28.84155
868.8955, 28.58845
869.3776, 28.23885
869.8597, 28.05264
870.3419, 28.03084
870.8240, 28.14042
871.3061, 28.43235
871.7882, 28.57697
872.2703, 28.25171
872.7524, 27.59328
873.2346, 27.13132
873.7166, 26.85291
874.1987, 26.79721
874.6808, 27.25013
875.1630, 27.60559
875.6451, 27.52667
876.1272, 27.29453
876.6093, 27.29289
877.0914, 27.55698
877.5735, 27.74773
878.0557, 27.76171
878.5378, 27.65756
879.0199, 27.30279
879.5020, 26.94972
879.9841, 27.01659
880.4662, 27.41568
880.9484, 27.64816
881.4305, 27.42942
881.9126, 27.05719
882.3947, 26.87980
882.8768, 26.86747
883.3589, 27.02372
883.8411, 27.31237
884.3232, 27.30334
884.8053, 26.80203
885.2874, 26.19223
885.7695, 25.93829
886.2516, 26.00799
886.7338, 26.04595
887.2159, 26.05004
887.6980, 26.02163
888.1801, 25.89720
888.6622, 25.82722
889.1443, 25.93183
889.6265, 26.16230
890.1086, 26.44196
890.5907, 26.87022
891.0728, 27.01744
891.5549, 26.53356
892.0370, 26.08362
892.5192, 26.04768
893.0013, 26.19232
893.4834, 26.20988
893.9655, 26.08096
894.4476, 26.01437
894.9297, 26.21832
895.4119, 26.35465
895.8940, 25.90573
896.3761, 25.27010
896.8582, 25.16668
897.3403, 25.57089
897.8224, 26.10096
898.3046, 26.57531
898.7867, 26.77816
899.2688, 26.24203
899.7509, 25.15038
900.2330, 24.68288
900.7151, 24.87061
901.1973, 25.22177
901.6794, 25.68983
902.1615, 25.96214
902.6436, 25.68752
903.1257, 25.03569
903.6078, 24.75683
904.0900, 25.10584
904.5721, 25.28609
905.0542, 25.13071
905.5363, 24.99796
906.0184, 25.08794
906.5005, 25.23786
906.9827, 25.25539
907.4648, 25.12880
907.9469, 24.95581
908.4290, 24.64348
908.9111, 24.43432
909.3932, 24.58035
909.8754, 24.76532
910.3575, 24.62639
910.8396, 24.25191
911.3217, 23.94482
911.8038, 23.82199
912.2859, 23.86013
912.7681, 24.17644
913.2502, 24.55811
913.7323, 24.67316
914.2144, 24.55319
914.6965, 24.27571
915.1786, 23.88854
915.6608, 23.61491
916.1429, 23.65976
916.6250, 23.90618
917.1071, 24.10149
917.5892, 24.24594
918.0714, 24.07361
918.5535, 23.47187
919.0356, 23.07076
919.5177, 23.24072
919.9998, 23.64287
920.4819, 23.74880
920.9641, 23.52884
921.4462, 23.45692
921.9283, 23.64988
922.4104, 23.79267
922.8925, 23.73835
923.3746, 23.70832
923.8568, 23.89411
924.3389, 24.19925
924.8210, 24.41458
925.3031, 24.55554
925.7852, 24.47173
926.2673, 23.87372
926.7495, 23.31816
927.2316, 23.15931
927.7137, 23.19966
928.1958, 23.16110
928.6779, 23.03480
929.1600, 23.02314
929.6422, 23.26197
930.1243, 23.57917
930.6064, 23.91595
931.0885, 24.18239
931.5706, 24.17398
932.0527, 23.96582
932.5349, 23.86553
933.0170, 23.97864
933.4991, 24.07157
933.9812, 23.84298
934.4633, 23.86427
934.9454, 23.79738
935.4276, 23.59311
935.9097, 23.63985
936.3918, 23.42306
936.8739, 23.25564
937.3560, 23.36096
937.8381, 23.56709
938.3203, 23.51581
938.8024, 23.17983
939.2845, 22.76238
939.7666, 22.09214
940.2487, 21.81100
940.7308, 22.33768
941.2130, 23.00282
941.6951, 23.18639
942.1772, 22.97179
942.6593, 22.81778
943.1414, 22.61852
943.6235, 22.66271
944.1057, 23.32730
944.5878, 23.81934
945.0699, 23.67248
945.5520, 23.23030
946.0341, 22.87795
946.5162, 22.66204
946.9984, 22.52413
947.4805, 22.46609
947.9626, 22.45198
948.4447, 22.56170
948.9268, 22.62937
949.4089, 22.38397
949.8911, 21.98501
950.3732, 21.84513
950.8553, 22.08945
951.3374, 22.35484
951.8195, 22.27762
952.3016, 22.11375
952.7838, 22.24019
953.2659, 22.53386
953.7480, 22.73632
954.2301, 22.79943
954.7122, 22.72726
955.1943, 22.50996
955.6764, 22.30417
956.1585, 22.41467
956.6406, 22.75747
957.1227, 22.88752
957.6049, 22.80390
958.0870, 22.70076
958.5691, 22.63196
959.0512, 22.55946
959.5333, 22.43191
960.0154, 22.30580
960.4976, 22.42878
960.9797, 22.90652
961.4618, 23.05034
961.9439, 22.70811
962.4260, 22.37672
962.9081, 22.25473
963.3903, 22.23896
963.8724, 22.19751
964.3545, 22.13639
964.8366, 22.20252
965.3187, 22.60765
965.8008, 22.80137
966.2830, 22.61357
966.7651, 22.36936
967.2472, 22.21363
967.7293, 22.09873
968.2114, 21.87254
968.6935, 21.51245
969.1757, 21.50827
969.6578, 22.37442
970.1399, 23.07768
970.6220, 23.11346
971.1041, 22.94810
971.5862, 22.96688
972.0684, 23.11601
972.5505, 23.19757
973.0326, 23.15546
973.5147, 23.04078
973.9968, 22.85495
974.4789, 22.63643
974.9611, 22.32241
975.4432, 22.04925
975.9253, 22.08422
976.4074, 22.37231
976.8895, 22.60357
977.3716, 22.62566
977.8538, 22.51657
978.3359, 22.27283
978.8180, 22.00201
979.3001, 21.88571
979.7822, 21.91210
980.2643, 22.04043
980.7465, 22.25127
981.2286, 22.51188
981.7107, 22.81898
982.1928, 23.06068
982.6749, 22.94320
983.1570, 22.54744
983.6392, 22.36269
984.1213, 22.40730
984.6034, 22.45407
985.0855, 22.42317
985.5676, 22.40466
986.0497, 22.50990
986.5319, 22.66479
987.0140, 22.53523
987.4961, 22.05574
987.9782, 21.83303
988.4603, 21.95957
988.9424, 22.17003
989.4246, 22.42785
989.9067, 22.54939
990.3888, 22.21609
990.8709, 21.48454
991.3530, 21.27383
991.8351, 21.93581
992.3173, 22.30111
992.7994, 22.01560
993.2815, 21.80367
993.7636, 22.25562
994.2457, 22.84967
994.7278, 22.64556
995.2100, 21.55910
995.6921, 21.01616
996.1742, 21.54103
996.6563, 21.88305
997.1384, 21.68218
997.6205, 21.42294
998.1027, 21.43033
998.5848, 21.56550
999.0669, 21.51906
999.5490, 21.22959
1000.031, 21.18189
1000.513, 21.67682
1000.995, 22.20119
1001.477, 22.66768
1001.960, 22.97931
1002.442, 22.99935
1002.924, 22.81289
1003.406, 22.61801
1003.888, 22.47058
1004.370, 22.23664
1004.852, 21.59109
1005.334, 21.12175
1005.817, 21.47921
1006.299, 22.08365
1006.781, 22.16153
1007.263, 21.79687
1007.745, 21.53375
1008.227, 21.58563
1008.709, 21.73423
1009.191, 21.86444
1009.673, 21.94805
1010.156, 21.90764
1010.638, 21.81530
1011.120, 21.85734
1011.602, 22.00140
1012.084, 21.92576
1012.566, 21.43575
1013.048, 21.07494
1013.530, 21.76055
1014.013, 22.83833
1014.495, 22.96037
1014.977, 22.38834
1015.459, 21.97723
1015.941, 21.90326
1016.423, 22.00704
1016.905, 22.21079
1017.387, 22.32817
1017.869, 21.95856
1018.352, 21.27491
1018.834, 20.90421
1019.316, 20.83826
1019.798, 20.95548
1020.280, 21.21650
1020.762, 21.41963
1021.244, 21.40864
1021.726, 21.29304
1022.208, 21.35602
1022.691, 21.55986
1023.173, 21.32934
1023.655, 20.64023
1024.137, 20.21561
1024.619, 20.26771
1025.101, 20.53970
1025.583, 20.86475
1026.065, 21.16753
1026.547, 21.17972
1027.030, 21.43958
1027.512, 21.66845
1027.994, 21.59210
1028.476, 21.97622
1028.958, 21.80241
1029.440, 21.50417
1029.922, 21.48847
1030.404, 21.60343
1030.887, 21.27711
1031.369, 20.26057
1031.851, 19.98301
1032.333, 20.76263
1032.815, 21.35046
1033.297, 21.25228
1033.779, 21.06680
1034.261, 21.40225
1034.744, 22.04779
1035.226, 22.21063
1035.708, 21.70900
1036.190, 21.25485
1036.672, 20.78822
1037.154, 20.48126
1037.636, 20.38957
1038.118, 20.47703
1038.600, 20.75295
1039.083, 21.17980
1039.565, 21.63873
1040.047, 22.34809
1040.529, 22.54183
1041.011, 21.85152
1041.493, 21.16165
1041.975, 20.54275
1042.457, 20.17590
1042.939, 20.43917
1043.422, 21.09988
1043.904, 21.24577
1044.386, 20.50432
1044.868, 20.13142
1045.350, 20.45665
1045.832, 20.79619
1046.314, 20.89747
1046.796, 20.96696
1047.279, 21.21557
1047.761, 21.58643
1048.243, 21.89227
1048.725, 22.18671
1049.207, 22.21164
1049.689, 21.58764
1050.171, 21.12683
1050.653, 21.37861
1051.135, 21.69514
1051.618, 21.36686
1052.100, 20.62270
1052.582, 20.26612
1053.064, 20.54172
1053.546, 20.73649
1054.028, 20.63806
1054.510, 20.51038
1054.992, 20.39587
1055.474, 20.35407
1055.957, 20.49921
1056.439, 20.74975
1056.921, 20.88861
1057.403, 20.86981
1057.885, 20.76902
1058.367, 20.38627
1058.849, 20.20251
1059.331, 20.68694
1059.814, 21.25109
1060.296, 21.32537
1060.778, 21.03609
1061.260, 20.79248
1061.742, 20.68571
1062.224, 20.58212
1062.706, 20.39359
1063.188, 20.25004
1063.671, 20.27439
1064.153, 20.31733
1064.635, 20.12377
1065.117, 19.86825
1065.599, 20.03976
1066.081, 20.77597
1066.563, 21.27048
1067.045, 21.00968
1067.527, 20.68622
1068.010, 20.71896
1068.492, 20.76442
1068.974, 20.35192
1069.456, 19.75906
1069.938, 19.61460
1070.420, 20.04382
1070.902, 20.50696
1071.384, 20.88795
1071.866, 21.10987
1072.349, 20.99794
1072.831, 20.83960
1073.313, 21.04974
1073.795, 21.32935
1074.277, 20.96802
1074.759, 19.90899
1075.241, 19.18493
1075.723, 19.38807
1076.206, 19.79894
1076.688, 20.24425
1077.170, 20.58850
1077.652, 20.73252
1078.134, 20.69329
1078.616, 20.40947
1079.098, 19.93894
1079.580, 19.70184
1080.062, 20.04754
1080.545, 20.31083
1081.027, 20.11296
1081.509, 19.77477
1081.991, 19.36446
1082.473, 19.07116
1082.955, 19.20577
1083.437, 19.72290
1083.919, 20.21627
1084.401, 20.62435
1084.884, 20.78269
1085.366, 20.32470
1085.848, 19.90597
1086.330, 20.14102
1086.812, 20.55969
1087.294, 20.46157
1087.776, 19.96022
1088.258, 19.80365
1088.740, 20.34196
1089.223, 20.72037
1089.705, 20.36348
1090.187, 20.00212
1090.669, 20.11361
1091.151, 20.40524
1091.633, 20.58428
1092.115, 20.65230
1092.597, 20.74633
1093.080, 20.93016
1093.562, 20.89278
1094.044, 20.24078
1094.526, 19.69258
1095.008, 19.70040
1095.490, 19.87004
1095.972, 19.92436
1096.454, 19.83555
1096.937, 19.56352
1097.419, 19.09453
1097.901, 18.76534
1098.383, 18.74008
1098.865, 18.79142
1099.347, 18.83309
1099.829, 18.92783
1100.311, 19.20445
1100.793, 19.52367
1101.276, 19.66930
1101.758, 19.62177
1102.240, 19.51174
1102.722, 19.23725
1103.204, 19.10412
1103.686, 19.34411
1104.168, 19.56308
1104.650, 19.45356
1105.132, 19.25757
1105.615, 19.31974
1106.097, 19.60300
1106.579, 19.74695
1107.061, 19.57659
1107.543, 19.52408
1108.025, 19.79107
1108.507, 20.01788
1108.989, 20.06995
1109.472, 20.01517
1109.954, 19.85614
1110.436, 19.64999
1110.918, 19.58599
1111.400, 19.75345
1111.882, 19.80359
1112.364, 19.61726
1112.846, 19.44216
1113.328, 19.20659
1113.811, 19.12829
1114.293, 19.61449
1114.775, 20.27341
1115.257, 20.20411
1115.739, 19.23731
1116.221, 18.84524
1116.703, 19.55963
1117.185, 19.94516
1117.667, 19.59702
1118.150, 19.22504
1118.632, 19.18346
1119.114, 19.31818
1119.596, 19.48092
1120.078, 19.65424
1120.560, 19.52505
1121.042, 18.81536
1121.524, 18.50701
1122.007, 18.82921
1122.489, 19.17279
1122.971, 19.35672
1123.453, 19.39794
1123.935, 19.26816
1124.417, 19.03482
1124.899, 18.96376
1125.381, 19.10619
1125.864, 19.17038
1126.346, 19.13782
1126.828, 19.08787
1127.310, 19.02231
1127.792, 19.02074
1128.274, 19.05498
1128.756, 19.34854
1129.238, 19.19370
1129.720, 19.32979
1130.203, 19.42225
1130.685, 19.30325
1131.167, 19.60285
1131.649, 19.48848
1132.131, 19.42020
1132.613, 19.63929
1133.095, 19.95193
1133.577, 20.13245
1134.059, 20.17698
1134.542, 20.03132
1135.024, 19.71302
1135.506, 19.43258
1135.988, 19.21089
1136.470, 19.08584
1136.952, 19.06974
1137.434, 19.13544
1137.916, 19.27532
1138.399, 19.42033
1138.881, 19.40615
1139.363, 19.49798
1139.845, 19.33138
1140.327, 19.47244
1140.809, 19.45652
1141.291, 19.26579
1141.773, 19.19836
1142.255, 19.42475
1142.738, 19.61977
1143.220, 19.24221
1143.702, 19.40562
1144.184, 18.79547
1144.666, 19.21891
1145.148, 19.31888
1145.630, 19.10898
1146.112, 18.88382
1146.594, 18.75754
1147.077, 18.78084
1147.559, 19.04267
1148.041, 19.36905
1148.523, 19.73944
1149.005, 19.95696
1149.487, 19.57212
1149.969, 18.95201
1150.451, 18.81673
1150.934, 19.19262
1151.416, 19.56811
1151.898, 19.75327
1152.380, 19.80707
1152.862, 19.65801
1153.344, 19.51118
1153.826, 19.56987
1154.308, 19.65112
1154.791, 19.48377
1155.273, 19.18757
1155.755, 19.10389
1156.237, 19.30911
1156.719, 19.49922
1157.201, 19.65141
1157.683, 19.68384
1158.165, 19.55317
1158.647, 19.31655
1159.130, 18.81368
1159.612, 18.34647
1160.094, 18.42174
1160.576, 18.97968
1161.058, 19.27479
1161.540, 19.03744
1162.022, 18.97435
1162.504, 19.35871
1162.986, 19.49729
1163.469, 18.85508
1163.951, 18.35862
1164.433, 18.89476
1164.915, 19.97251
1165.397, 20.46208
1165.879, 20.32790
1166.361, 19.90675
1166.843, 19.03585
1167.325, 18.49468
1167.808, 18.43539
1168.290, 18.57390
1168.772, 18.78797
1169.254, 19.09624
1169.736, 19.55165
1170.218, 20.08482
1170.700, 20.44864
1171.182, 20.64091
1171.665, 20.52406
1172.147, 20.10293
1172.629, 19.85430
1173.111, 19.90455
1173.593, 19.79501
1174.075, 19.17290
1174.557, 18.53137
1175.039, 18.75908
1175.521, 19.51246
1176.004, 19.85941
1176.486, 19.88864
1176.968, 19.83264
1177.450, 19.73945
1177.932, 19.60596
1178.414, 19.44193
1178.896, 19.35293
1179.378, 19.38239
1179.860, 19.60654
1180.343, 20.45205
1180.825, 21.26494
1181.307, 21.06010
1181.789, 20.26269
1182.271, 19.58572
1182.753, 19.19895
1183.235, 19.12842
1183.717, 19.42636
1184.200, 19.76762
1184.682, 20.09278
1185.164, 20.27439
1185.646, 20.14617
1186.128, 19.93172
1186.610, 19.81559
1187.092, 19.76342
1187.574, 19.65346
1188.057, 19.48034
1188.539, 19.45993
1189.021, 19.66751
1189.503, 19.96468
1189.985, 20.56085
1190.467, 20.95102
1190.949, 20.95036
1191.431, 20.67008
1191.913, 19.97499
1192.396, 19.18676
1192.878, 19.26768
1193.360, 20.40781
1193.842, 20.82313
1194.324, 20.23734
1194.806, 19.99249
1195.288, 20.39373
1195.770, 20.73310
1196.252, 20.65888
1196.735, 20.39005
1197.217, 20.16973
1197.699, 19.98032
1198.181, 19.65943
1198.663, 19.27521
1199.145, 19.63648
1199.627, 20.63757
1200.109, 21.04671
1200.592, 20.62756
1201.074, 20.12553
1201.556, 19.97207
1202.038, 20.01157
1202.520, 20.12435
1203.002, 20.25760
1203.484, 20.31052
1203.966, 20.32904
1204.448, 20.39677
1204.931, 20.50446
1205.413, 20.63437
1205.895, 20.76132
1206.377, 20.78575
1206.859, 20.65682
1207.341, 20.41466
1207.823, 19.88142
1208.305, 19.47629
1208.787, 19.46768
1209.270, 19.75942
1209.752, 20.55443
1210.234, 21.46430
1210.716, 21.49792
1211.198, 20.43631
1211.680, 19.87802
1212.162, 20.66277
1212.644, 21.02320
1213.127, 20.32426
1213.609, 19.67827
1214.091, 19.44789
1214.573, 19.51886
1215.055, 19.90667
1215.537, 20.43583
1216.019, 20.50883
1216.501, 20.67640
1216.984, 20.82946
1217.466, 20.56072
1217.948, 20.78216
1218.430, 20.49471
1218.912, 20.14404
1219.394, 19.92955
1219.876, 19.91113
1220.358, 20.22183
1220.840, 20.61900
1221.323, 20.42263
1221.805, 19.85482
1222.287, 19.71504
1222.769, 19.89663
1223.251, 19.80478
1223.733, 19.42249
1224.215, 19.36384
1224.697, 19.92121
1225.179, 20.42276
1225.662, 20.24858
1226.144, 19.82222
1226.626, 19.36271
1227.108, 19.00234
1227.590, 18.89546
1228.072, 18.98458
1228.554, 19.18275
1229.036, 19.46369
1229.519, 19.83450
1230.001, 20.42926
1230.483, 20.67307
1230.965, 20.20285
1231.447, 19.68207
1231.929, 19.05006
1232.411, 18.74060
1232.893, 19.35929
1233.375, 20.15064
1233.858, 19.91465
1234.340, 18.81703
1234.822, 18.38552
1235.304, 18.79802
1235.786, 19.03664
1236.268, 19.05458
1236.750, 18.96869
1237.232, 18.79393
1237.714, 18.67403
1238.197, 18.70546
1238.679, 18.80017
1239.161, 18.84345
1239.643, 18.84597
1240.125, 18.80851
1240.607, 18.76266
1241.089, 18.81800
1241.571, 18.95197
1242.054, 19.09892
1242.536, 19.21766
1243.018, 19.16883
1243.500, 18.83692
1243.982, 18.64220
1244.464, 19.09434
1244.946, 19.57677
1245.428, 19.62181
1245.910, 19.46570
1246.393, 19.26331
1246.875, 19.08326
1247.357, 18.99197
1247.839, 18.99846
1248.321, 19.09866
1248.803, 19.33688
1249.285, 19.57535
1249.767, 19.92082
1250.250, 20.06000
1250.732, 19.73974
1251.214, 19.52045
1251.696, 19.76314
1252.178, 20.28529
1252.660, 20.86915
1253.142, 21.45973
1253.624, 21.74629
1254.106, 21.73243
1254.589, 21.46621
1255.071, 20.98484
1255.553, 20.83543
1256.035, 21.11285
1256.517, 21.29746
1256.999, 21.09147
1257.481, 20.72760
1257.963, 20.33729
1258.445, 20.07943
1258.928, 20.29355
1259.410, 20.68738
1259.892, 20.92430
1260.374, 20.99001
1260.856, 20.88003
1261.338, 20.64372
1261.820, 20.39288
1262.302, 20.07730
1262.785, 20.19243
1263.267, 21.63948
1263.749, 22.47753
1264.231, 21.34642
1264.713, 20.30902
1265.195, 20.94825
1265.677, 21.90621
1266.159, 21.53917
1266.641, 20.23698
1267.124, 19.57723
1267.606, 19.66307
1268.088, 19.55742
1268.570, 19.22632
1269.052, 19.15410
1269.534, 19.43077
1270.016, 19.40131
1270.498, 18.76565
1270.980, 18.24639
1271.463, 18.57842
1271.945, 19.27382
1272.427, 19.67421
1272.909, 19.82138
1273.391, 19.68156
1273.873, 19.40350
1274.355, 19.21470
1274.837, 19.14389
1275.320, 19.16620
1275.802, 19.26926
1276.284, 19.37829
1276.766, 19.48587
1277.248, 19.55511
1277.730, 19.51875
1278.212, 19.51184
1278.694, 19.67477
1279.177, 19.81658
1279.659, 19.73286
1280.141, 19.55481
1280.623, 19.56051
1281.105, 19.73108
1281.587, 19.55757
1282.069, 19.59829
1282.551, 19.68497
1283.033, 19.45118
1283.516, 19.78684
1283.998, 19.63657
1284.480, 19.52530
1284.962, 19.78450
1285.444, 20.15238
1285.926, 20.36899
##END=



