##NAMES=Spinel
##RRUFFID=R050392
##IDEAL CHEMISTRY=MgAl_2_O_4_
##LOCALITY=Mogok, Burma
##OWNER=RRUFF
##SOURCE=Eric Van Valkenburg
##DESCRIPTION=Pink octahedron
##STATUS=The identification of this mineral has been confirmed by X-ray diffraction and chemical analysis
##URL=rruff.info/R050392
##MEASURED CHEMISTRY=Mg_1.00_Al_1.96_Cr_0.04_O_4_
91.00781, 14856.47
91.48993, 14875.43
91.97205, 14883.47
92.45416, 14870.16
92.93628, 14846.38
93.41840, 14837.84
93.90051, 14852.79
94.38263, 14877.17
94.86475, 14890.60
95.34686, 14893.10
95.82898, 14886.72
96.31110, 14867.60
96.79321, 14837.39
97.27533, 14814.29
97.75745, 14802.98
98.23956, 14801.95
98.72168, 14807.88
99.20380, 14822.71
99.68591, 14838.23
100.1680, 14844.71
100.6501, 14840.31
101.1323, 14835.48
101.6144, 14832.88
102.0965, 14832.55
102.5786, 14834.17
103.0607, 14838.66
103.5428, 14844.30
104.0250, 14848.56
104.5071, 14851.89
104.9892, 14852.97
105.4713, 14851.02
105.9534, 14844.45
106.4355, 14838.14
106.9177, 14830.14
107.3998, 14822.29
107.8819, 14820.29
108.3640, 14826.92
108.8461, 14837.16
109.3282, 14848.90
109.8104, 14866.77
110.2925, 14880.58
110.7746, 14888.43
111.2567, 14890.93
111.7388, 14893.19
112.2209, 14896.80
112.7031, 14899.74
113.1852, 14900.65
113.6673, 14893.41
114.1494, 14889.69
114.6315, 14892.68
115.1136, 14902.60
115.5958, 14916.21
116.0779, 14940.45
116.5600, 14965.47
117.0421, 14980.18
117.5242, 14971.25
118.0063, 14958.27
118.4885, 14950.46
118.9706, 14948.58
119.4527, 14952.37
119.9348, 14967.55
120.4169, 14988.14
120.8990, 15003.43
121.3812, 15000.76
121.8633, 14993.58
122.3454, 14995.64
122.8275, 15011.65
123.3096, 15030.36
123.7917, 15042.68
124.2739, 15049.56
124.7560, 15054.47
125.2381, 15058.84
125.7202, 15062.83
126.2023, 15066.51
126.6844, 15069.34
127.1666, 15072.59
127.6487, 15078.33
128.1308, 15086.49
128.6129, 15095.38
129.0950, 15106.77
129.5771, 15118.63
130.0593, 15123.05
130.5414, 15113.47
131.0235, 15096.59
131.5056, 15032.30
131.9877, 14999.39
132.4698, 14858.83
132.9520, 14725.46
133.4341, 14599.10
133.9162, 14472.01
134.3983, 14338.78
134.8804, 14202.47
135.3625, 14083.29
135.8447, 13983.73
136.3268, 13894.14
136.8089, 13797.84
137.2910, 13692.06
137.7731, 13593.80
138.2552, 13510.77
138.7374, 13445.34
139.2195, 13374.95
139.7016, 13295.23
140.1837, 13212.95
140.6658, 13144.47
141.1479, 13092.24
141.6301, 13044.89
142.1122, 12996.29
142.5943, 12943.52
143.0764, 12895.96
143.5585, 12856.31
144.0406, 12821.09
144.5228, 12776.09
145.0049, 12715.29
145.4870, 12652.70
145.9691, 12596.84
146.4512, 12550.91
146.9333, 12505.54
147.4155, 12459.10
147.8976, 12411.85
148.3797, 12369.81
148.8618, 12338.83
149.3439, 12308.55
149.8260, 12272.29
150.3082, 12216.79
150.7903, 12169.54
151.2724, 12136.01
151.7545, 12116.68
152.2366, 12090.88
152.7188, 12048.62
153.2009, 12003.61
153.6830, 11967.31
154.1651, 11948.29
154.6472, 11930.00
155.1293, 11910.62
155.6115, 11890.43
156.0936, 11864.34
156.5757, 11827.37
157.0578, 11785.55
157.5399, 11746.04
158.0220, 11714.03
158.5042, 11681.80
158.9863, 11645.12
159.4684, 11601.57
159.9505, 11564.71
160.4326, 11544.14
160.9147, 11532.45
161.3969, 11518.50
161.8790, 11497.34
162.3611, 11473.89
162.8432, 11450.28
163.3253, 11426.67
163.8074, 11403.85
164.2896, 11380.81
164.7717, 11358.57
165.2538, 11339.33
165.7359, 11328.37
166.2180, 11317.90
166.7001, 11300.62
167.1823, 11271.41
167.6644, 11243.78
168.1465, 11229.19
168.6286, 11223.48
169.1107, 11215.09
169.5928, 11195.17
170.0750, 11170.46
170.5571, 11147.09
171.0392, 11125.66
171.5213, 11107.90
172.0034, 11098.40
172.4855, 11095.28
172.9677, 11090.14
173.4498, 11076.15
173.9319, 11057.26
174.4140, 11039.12
174.8961, 11023.55
175.3782, 11008.91
175.8604, 10991.13
176.3425, 10970.85
176.8246, 10954.17
177.3067, 10949.47
177.7888, 10951.28
178.2709, 10948.64
178.7531, 10938.40
179.2352, 10921.98
179.7173, 10897.27
180.1994, 10864.63
180.6815, 10836.30
181.1636, 10827.47
181.6458, 10832.51
182.1279, 10834.89
182.6100, 10827.70
183.0921, 10815.15
183.5742, 10806.09
184.0563, 10800.85
184.5385, 10795.23
185.0206, 10783.39
185.5027, 10766.74
185.9848, 10752.87
186.4669, 10746.05
186.9490, 10743.61
187.4312, 10737.66
187.9133, 10728.17
188.3954, 10715.78
188.8775, 10698.79
189.3596, 10678.06
189.8417, 10661.54
190.3239, 10655.75
190.8060, 10657.70
191.2881, 10650.81
191.7702, 10633.55
192.2523, 10614.17
192.7344, 10605.08
193.2166, 10606.39
193.6987, 10604.54
194.1808, 10591.79
194.6629, 10569.49
195.1450, 10553.04
195.6271, 10543.59
196.1093, 10537.09
196.5914, 10527.08
197.0735, 10513.10
197.5556, 10500.61
198.0377, 10492.71
198.5198, 10489.33
199.0020, 10483.76
199.4841, 10475.06
199.9662, 10465.58
200.4483, 10460.00
200.9304, 10459.13
201.4125, 10456.65
201.8947, 10448.36
202.3768, 10433.50
202.8589, 10423.18
203.3410, 10418.94
203.8231, 10417.34
204.3052, 10411.17
204.7874, 10398.99
205.2695, 10388.56
205.7516, 10385.86
206.2337, 10393.43
206.7158, 10390.51
207.1979, 10373.56
207.6801, 10349.32
208.1622, 10332.04
208.6443, 10323.15
209.1264, 10316.46
209.6085, 10308.87
210.0906, 10299.56
210.5728, 10293.29
211.0549, 10290.99
211.5370, 10291.21
212.0191, 10291.34
212.5012, 10292.44
212.9833, 10291.14
213.4655, 10284.50
213.9476, 10269.48
214.4297, 10260.93
214.9118, 10261.17
215.3939, 10267.09
215.8760, 10271.00
216.3581, 10272.16
216.8403, 10272.64
217.3224, 10273.99
217.8045, 10277.88
218.2866, 10276.23
218.7687, 10265.01
219.2508, 10249.32
219.7330, 10243.88
220.2151, 10251.97
220.6972, 10263.59
221.1793, 10274.63
221.6614, 10286.55
222.1435, 10293.35
222.6257, 10293.90
223.1078, 10289.52
223.5899, 10283.91
224.0720, 10277.50
224.5541, 10269.31
225.0362, 10258.21
225.5184, 10242.12
226.0005, 10229.28
226.4826, 10221.64
226.9647, 10217.14
227.4468, 10209.09
227.9289, 10195.09
228.4111, 10181.81
228.8932, 10172.68
229.3753, 10170.01
229.8574, 10166.46
230.3395, 10161.69
230.8216, 10156.17
231.3038, 10151.24
231.7859, 10147.87
232.2680, 10143.55
232.7501, 10136.42
233.2322, 10122.83
233.7143, 10114.31
234.1965, 10110.82
234.6786, 10112.29
235.1607, 10119.21
235.6428, 10135.36
236.1249, 10151.15
236.6070, 10162.75
237.0892, 10170.67
237.5713, 10172.38
238.0534, 10165.09
238.5355, 10152.18
239.0176, 10142.41
239.4997, 10136.67
239.9819, 10132.57
240.4640, 10129.33
240.9461, 10127.52
241.4282, 10125.16
241.9103, 10121.58
242.3924, 10117.77
242.8746, 10116.80
243.3567, 10123.07
243.8388, 10125.70
244.3209, 10118.95
244.8030, 10096.79
245.2851, 10082.33
245.7673, 10078.90
246.2494, 10081.95
246.7315, 10081.37
247.2136, 10074.47
247.6957, 10068.34
248.1778, 10066.03
248.6600, 10069.11
249.1421, 10071.33
249.6242, 10072.33
250.1063, 10072.65
250.5884, 10073.46
251.0705, 10075.03
251.5527, 10076.45
252.0348, 10077.48
252.5169, 10078.29
252.9990, 10077.46
253.4811, 10072.85
253.9632, 10067.82
254.4454, 10069.40
254.9275, 10082.72
255.4096, 10092.66
255.8917, 10093.05
256.3738, 10081.11
256.8560, 10072.34
257.3381, 10067.09
257.8202, 10064.66
258.3023, 10064.37
258.7844, 10067.70
259.2665, 10070.06
259.7487, 10069.43
260.2308, 10064.99
260.7129, 10064.18
261.1950, 10070.29
261.6771, 10076.45
262.1592, 10071.54
262.6414, 10049.88
263.1235, 10031.81
263.6056, 10024.71
264.0877, 10029.56
264.5698, 10028.56
265.0519, 10017.48
265.5341, 10006.31
266.0162, 10008.58
266.4983, 10029.62
266.9804, 10047.70
267.4625, 10057.69
267.9446, 10059.63
268.4268, 10057.71
268.9089, 10051.11
269.3910, 10042.24
269.8731, 10033.17
270.3552, 10023.72
270.8373, 10014.51
271.3195, 10003.92
271.8016, 9992.818
272.2837, 9992.168
272.7658, 10006.18
273.2479, 10021.02
273.7300, 10021.92
274.2122, 10005.88
274.6943, 9995.194
275.1764, 9996.306
275.6585, 10006.39
276.1406, 10009.98
276.6227, 10005.96
277.1049, 9999.486
277.5870, 9993.195
278.0691, 9986.678
278.5512, 9986.392
279.0333, 9995.837
279.5154, 10010.99
279.9976, 10018.52
280.4797, 10017.85
280.9618, 10012.42
281.4439, 10001.23
281.9260, 9984.146
282.4081, 9976.062
282.8903, 9981.209
283.3724, 9993.669
283.8545, 9999.158
284.3366, 9997.123
284.8187, 9993.794
285.3008, 9991.791
285.7830, 9991.346
286.2651, 9996.533
286.7472, 10009.75
287.2293, 10024.88
287.7114, 10029.98
288.1935, 10025.07
288.6757, 10018.05
289.1578, 10013.36
289.6399, 10010.32
290.1220, 10004.87
290.6041, 9995.654
291.0862, 9987.327
291.5684, 9988.111
292.0505, 9997.093
292.5326, 10005.70
293.0147, 10009.49
293.4968, 10009.70
293.9789, 10010.21
294.4611, 10011.31
294.9432, 10011.97
295.4253, 10011.03
295.9074, 10008.68
296.3895, 10005.61
296.8716, 10001.09
297.3538, 9996.322
297.8359, 9994.931
298.3180, 9997.138
298.8001, 9997.936
299.2822, 9988.329
299.7643, 9973.182
300.2465, 9965.532
300.7286, 9974.572
301.2107, 9990.516
301.6928, 10000.90
302.1749, 10005.84
302.6570, 10008.24
303.1392, 10010.72
303.6213, 10012.15
304.1034, 10009.90
304.5855, 9999.430
305.0676, 9989.560
305.5497, 9989.670
306.0319, 9998.607
306.5140, 10010.36
306.9961, 10023.14
307.4782, 10035.54
307.9603, 10045.58
308.4424, 10051.22
308.9246, 10057.02
309.4067, 10066.79
309.8888, 10079.49
310.3709, 10092.49
310.8530, 10107.87
311.3351, 10120.80
311.8173, 10126.93
312.2994, 10124.92
312.7815, 10118.33
313.2636, 10108.21
313.7457, 10095.25
314.2278, 10080.50
314.7100, 10065.77
315.1921, 10048.72
315.6742, 10026.50
316.1563, 9997.830
316.6384, 9971.482
317.1205, 9951.699
317.6027, 9936.759
318.0848, 9924.600
318.5669, 9916.445
319.0490, 9909.243
319.5311, 9901.383
320.0132, 9892.659
320.4954, 9885.534
320.9775, 9882.594
321.4596, 9880.571
321.9417, 9876.740
322.4238, 9865.033
322.9059, 9857.088
323.3881, 9859.173
323.8702, 9869.999
324.3523, 9874.021
324.8344, 9863.451
325.3165, 9849.213
325.7986, 9837.709
326.2808, 9829.166
326.7629, 9823.872
327.2450, 9823.699
327.7271, 9827.353
328.2092, 9829.596
328.6913, 9828.383
329.1735, 9827.541
329.6556, 9828.427
330.1377, 9830.701
330.6198, 9835.400
331.1019, 9845.635
331.5840, 9857.188
332.0662, 9861.975
332.5483, 9855.795
333.0304, 9848.530
333.5125, 9843.458
333.9946, 9841.135
334.4767, 9836.786
334.9589, 9828.239
335.4410, 9819.751
335.9231, 9817.219
336.4052, 9822.784
336.8873, 9829.018
337.3694, 9834.932
337.8516, 9840.443
338.3336, 9842.525
338.8158, 9840.178
339.2979, 9836.942
339.7800, 9837.935
340.2621, 9845.013
340.7442, 9843.416
341.2263, 9827.574
341.7085, 9803.007
342.1906, 9789.353
342.6727, 9787.692
343.1548, 9789.526
343.6369, 9788.485
344.1190, 9784.896
344.6012, 9785.618
345.0833, 9792.510
345.5654, 9801.485
346.0475, 9803.957
346.5296, 9800.344
347.0117, 9798.718
347.4939, 9805.339
347.9760, 9817.389
348.4581, 9825.893
348.9402, 9830.020
349.4223, 9832.731
349.9044, 9838.069
350.3866, 9845.057
350.8687, 9850.372
351.3508, 9852.338
351.8329, 9852.057
352.3150, 9850.756
352.7971, 9848.473
353.2793, 9846.304
353.7614, 9844.455
354.2435, 9843.387
354.7256, 9843.657
355.2077, 9844.500
355.6898, 9847.828
356.1720, 9859.072
356.6541, 9875.678
357.1362, 9886.788
357.6183, 9882.010
358.1004, 9871.256
358.5826, 9863.604
359.0647, 9861.967
359.5468, 9860.357
360.0289, 9854.466
360.5110, 9846.390
360.9931, 9840.101
361.4753, 9841.680
361.9574, 9841.912
362.4395, 9833.404
362.9216, 9813.042
363.4037, 9800.194
363.8858, 9809.309
364.3680, 9825.541
364.8501, 9833.307
365.3322, 9820.193
365.8143, 9807.828
366.2964, 9801.092
366.7785, 9800.127
367.2607, 9801.853
367.7428, 9809.670
368.2249, 9817.822
368.7070, 9822.718
369.1891, 9815.706
369.6712, 9817.152
370.1534, 9834.865
370.6355, 9861.574
371.1176, 9874.091
371.5997, 9862.973
372.0818, 9849.248
372.5639, 9840.597
373.0461, 9837.475
373.5282, 9837.510
374.0103, 9842.245
374.4924, 9848.346
374.9745, 9850.182
375.4566, 9845.922
375.9388, 9843.391
376.4209, 9846.449
376.9030, 9854.529
377.3851, 9855.172
377.8672, 9846.670
378.3493, 9837.055
378.8315, 9833.732
379.3136, 9836.906
379.7957, 9843.829
380.2778, 9855.175
380.7599, 9869.107
381.2420, 9883.077
381.7242, 9896.854
382.2063, 9905.983
382.6884, 9902.350
383.1705, 9890.672
383.6526, 9888.036
384.1347, 9896.577
384.6169, 9911.106
385.0990, 9927.474
385.5811, 9944.740
386.0632, 9959.444
386.5453, 9968.021
387.0274, 9973.988
387.5096, 9980.071
387.9917, 9986.411
388.4738, 9997.904
388.9559, 10023.51
389.4380, 10054.96
389.9201, 10081.48
390.4023, 10097.37
390.8844, 10109.91
391.3665, 10120.01
391.8486, 10129.84
392.3307, 10146.86
392.8128, 10179.67
393.2950, 10217.50
393.7771, 10252.88
394.2592, 10282.41
394.7413, 10314.67
395.2234, 10356.37
395.7055, 10401.30
396.1877, 10439.91
396.6698, 10455.39
397.1519, 10478.20
397.6340, 10520.97
398.1161, 10586.75
398.5982, 10648.55
399.0804, 10700.32
399.5625, 10750.38
400.0446, 10804.59
400.5267, 10863.17
401.0088, 10926.54
401.4909, 10995.74
401.9731, 11069.90
402.4552, 11144.24
402.9373, 11219.69
403.4194, 11294.06
403.9015, 11365.95
404.3836, 11434.43
404.8658, 11507.12
405.3479, 11591.51
405.8300, 11668.62
406.3121, 11710.85
406.7942, 11716.31
407.2763, 11698.55
407.7585, 11660.29
408.2406, 11601.69
408.7227, 11523.71
409.2048, 11425.71
409.6869, 11316.29
410.1690, 11198.52
410.6512, 11075.28
411.1333, 10954.75
411.6154, 10836.74
412.0975, 10725.34
412.5796, 10621.87
413.0617, 10527.85
413.5439, 10448.39
414.0260, 10394.80
414.5081, 10353.51
414.9902, 10305.20
415.4723, 10247.53
415.9544, 10190.80
416.4366, 10142.28
416.9187, 10100.81
417.4008, 10064.73
417.8829, 10035.17
418.3650, 10008.94
418.8471, 9981.956
419.3293, 9955.554
419.8114, 9936.362
420.2935, 9935.283
420.7756, 9937.369
421.2577, 9932.216
421.7398, 9913.476
422.2220, 9896.507
422.7041, 9885.249
423.1862, 9877.739
423.6683, 9870.322
424.1504, 9862.088
424.6325, 9854.286
425.1147, 9848.370
425.5968, 9844.975
426.0789, 9836.768
426.5610, 9818.547
427.0431, 9800.240
427.5252, 9790.783
428.0074, 9795.184
428.4895, 9796.177
428.9716, 9789.430
429.4537, 9778.752
429.9358, 9778.357
430.4179, 9791.778
430.9001, 9802.705
431.3822, 9800.838
431.8643, 9785.916
432.3464, 9776.003
432.8285, 9771.959
433.3106, 9770.339
433.7928, 9767.033
434.2749, 9762.242
434.7570, 9757.552
435.2391, 9753.174
435.7212, 9749.464
436.2033, 9748.144
436.6855, 9748.926
437.1676, 9748.305
437.6497, 9740.981
438.1318, 9731.571
438.6139, 9727.900
439.0960, 9732.506
439.5782, 9738.229
440.0603, 9740.166
440.5424, 9738.918
441.0245, 9735.635
441.5066, 9726.705
441.9887, 9719.184
442.4709, 9718.466
442.9530, 9724.364
443.4351, 9729.247
443.9172, 9729.556
444.3993, 9727.951
444.8814, 9726.260
445.3636, 9723.479
445.8457, 9722.194
446.3278, 9725.463
446.8099, 9730.459
447.2920, 9730.149
447.7741, 9717.528
448.2563, 9707.434
448.7384, 9705.301
449.2205, 9712.518
449.7026, 9717.201
450.1847, 9719.476
450.6668, 9719.266
451.1490, 9715.420
451.6311, 9706.127
452.1132, 9700.959
452.5953, 9702.584
453.0774, 9708.300
453.5595, 9710.348
454.0417, 9708.256
454.5238, 9706.581
455.0059, 9707.678
455.4880, 9711.182
455.9701, 9715.636
456.4522, 9720.928
456.9344, 9727.076
457.4165, 9737.412
457.8986, 9748.955
458.3807, 9752.377
458.8628, 9739.338
459.3449, 9723.002
459.8271, 9719.209
460.3092, 9725.703
460.7913, 9732.605
461.2734, 9734.862
461.7555, 9734.619
462.2376, 9733.247
462.7198, 9730.591
463.2019, 9728.529
463.6840, 9727.681
464.1661, 9727.931
464.6482, 9729.142
465.1303, 9731.454
465.6125, 9734.308
466.0946, 9737.080
466.5767, 9739.932
467.0588, 9744.544
467.5409, 9757.041
468.0230, 9766.083
468.5052, 9765.863
468.9873, 9750.815
469.4694, 9740.510
469.9515, 9735.643
470.4336, 9735.082
470.9157, 9737.829
471.3979, 9744.893
471.8800, 9752.448
472.3621, 9760.755
472.8442, 9768.756
473.3263, 9770.358
473.8084, 9764.821
474.2906, 9758.533
474.7727, 9755.423
475.2548, 9755.248
475.7369, 9757.494
476.2190, 9762.378
476.7011, 9768.240
477.1833, 9774.479
477.6654, 9780.265
478.1475, 9783.354
478.6296, 9780.742
479.1117, 9776.460
479.5938, 9774.293
480.0760, 9774.111
480.5581, 9774.975
481.0402, 9777.178
481.5223, 9779.748
482.0044, 9782.269
482.4865, 9785.467
482.9687, 9786.545
483.4508, 9781.379
483.9329, 9774.375
484.4150, 9771.849
484.8971, 9779.057
485.3792, 9786.396
485.8614, 9792.421
486.3435, 9797.068
486.8256, 9798.916
487.3077, 9794.919
487.7898, 9791.679
488.2719, 9793.107
488.7541, 9800.946
489.2362, 9808.147
489.7183, 9815.523
490.2004, 9821.114
490.6825, 9821.487
491.1646, 9816.182
491.6468, 9809.438
492.1289, 9800.380
492.6110, 9791.790
493.0931, 9793.917
493.5752, 9806.609
494.0573, 9818.098
494.5395, 9816.593
495.0216, 9808.369
495.5037, 9807.578
495.9858, 9816.967
496.4679, 9827.592
496.9500, 9830.357
497.4322, 9829.012
497.9143, 9829.697
498.3964, 9839.910
498.8785, 9848.402
499.3606, 9846.284
499.8427, 9836.007
500.3249, 9829.025
500.8070, 9832.570
501.2891, 9837.885
501.7712, 9840.099
502.2533, 9836.943
502.7354, 9835.822
503.2176, 9840.443
503.6997, 9845.646
504.1818, 9845.713
504.6639, 9835.744
505.1460, 9829.279
505.6281, 9827.764
506.1103, 9831.023
506.5924, 9840.362
507.0745, 9858.158
507.5566, 9873.192
508.0387, 9878.459
508.5208, 9874.455
509.0030, 9871.408
509.4851, 9869.302
509.9672, 9868.396
510.4493, 9871.573
510.9314, 9876.732
511.4135, 9875.521
511.8957, 9862.666
512.3778, 9848.656
512.8599, 9846.296
513.3420, 9853.154
513.8242, 9861.820
514.3063, 9873.285
514.7884, 9881.936
515.2705, 9881.934
515.7526, 9872.887
516.2347, 9863.709
516.7169, 9853.271
517.1990, 9846.698
517.6811, 9848.156
518.1632, 9868.183
518.6453, 9882.467
519.1274, 9884.636
519.6096, 9880.057
520.0917, 9878.465
520.5738, 9881.343
521.0559, 9884.451
521.5380, 9885.955
522.0201, 9886.182
522.5023, 9891.990
522.9844, 9905.858
523.4665, 9918.545
523.9486, 9920.596
524.4307, 9912.911
524.9128, 9915.205
525.3950, 9931.224
525.8771, 9949.566
526.3592, 9953.900
526.8413, 9947.271
527.3234, 9941.074
527.8055, 9940.627
528.2877, 9941.422
528.7698, 9936.326
529.2519, 9927.170
529.7340, 9921.692
530.2161, 9928.203
530.6982, 9937.437
531.1804, 9942.646
531.6625, 9942.562
532.1446, 9941.104
532.6267, 9937.688
533.1088, 9934.607
533.5909, 9934.033
534.0731, 9939.248
534.5552, 9943.531
535.0373, 9945.589
535.5194, 9946.612
536.0015, 9949.734
536.4836, 9955.562
536.9658, 9962.157
537.4479, 9969.191
537.9300, 9976.474
538.4121, 9981.890
538.8942, 9985.178
539.3763, 9986.960
539.8585, 9986.814
540.3406, 9985.189
540.8227, 9985.066
541.3048, 9986.862
541.7869, 9989.848
542.2690, 9994.382
542.7512, 9999.454
543.2333, 10002.53
543.7154, 10000.62
544.1975, 9997.955
544.6796, 9997.749
545.1617, 9999.752
545.6439, 10002.76
546.1260, 10008.16
546.6081, 10012.98
547.0902, 10015.79
547.5723, 10016.68
548.0544, 10014.68
548.5366, 10004.99
549.0187, 9995.104
549.5008, 9991.633
549.9829, 9997.577
550.4650, 10004.97
550.9471, 10015.12
551.4293, 10025.34
551.9114, 10028.25
552.3935, 10022.10
552.8756, 10017.39
553.3577, 10018.77
553.8398, 10024.86
554.3220, 10029.58
554.8041, 10032.96
555.2862, 10034.87
555.7683, 10034.02
556.2504, 10031.89
556.7325, 10030.80
557.2147, 10030.63
557.6968, 10033.88
558.1789, 10046.56
558.6610, 10063.04
559.1431, 10074.93
559.6252, 10078.00
560.1074, 10077.04
560.5895, 10070.72
561.0716, 10061.18
561.5537, 10055.84
562.0358, 10058.55
562.5179, 10063.31
563.0001, 10068.50
563.4822, 10074.24
563.9643, 10078.79
564.4464, 10081.68
564.9285, 10084.15
565.4106, 10088.04
565.8928, 10094.33
566.3749, 10094.89
566.8570, 10087.19
567.3391, 10077.94
567.8212, 10078.06
568.3033, 10086.50
568.7855, 10095.86
569.2676, 10105.81
569.7497, 10113.15
570.2318, 10109.85
570.7139, 10098.61
571.1960, 10091.09
571.6782, 10098.71
572.1603, 10109.84
572.6424, 10113.25
573.1245, 10107.30
573.6066, 10105.92
574.0887, 10119.53
574.5709, 10136.85
575.0530, 10149.27
575.5351, 10155.90
576.0172, 10157.22
576.4993, 10149.17
576.9814, 10137.94
577.4636, 10134.31
577.9457, 10141.83
578.4278, 10147.47
578.9099, 10147.22
579.3920, 10143.03
579.8741, 10140.85
580.3563, 10140.40
580.8384, 10145.76
581.3205, 10166.74
581.8026, 10195.11
582.2847, 10202.02
582.7668, 10186.25
583.2490, 10171.57
583.7311, 10183.35
584.2132, 10206.04
584.6953, 10219.02
585.1774, 10214.08
585.6595, 10206.79
586.1416, 10201.34
586.6237, 10199.71
587.1058, 10204.77
587.5880, 10230.56
588.0701, 10248.56
588.5522, 10247.08
589.0343, 10231.08
589.5164, 10223.30
589.9985, 10227.83
590.4807, 10233.62
590.9628, 10235.72
591.4449, 10233.97
591.9270, 10235.62
592.4091, 10241.25
592.8912, 10247.37
593.3734, 10251.59
593.8555, 10253.71
594.3376, 10251.82
594.8197, 10244.59
595.3018, 10237.87
595.7839, 10238.63
596.2661, 10244.60
596.7482, 10251.44
597.2303, 10258.90
597.7124, 10265.66
598.1945, 10270.35
598.6766, 10273.87
599.1588, 10278.54
599.6409, 10285.65
600.1230, 10293.58
600.6051, 10303.61
601.0872, 10316.18
601.5693, 10320.46
602.0515, 10310.66
602.5336, 10300.20
603.0157, 10297.01
603.4978, 10301.75
603.9799, 10310.34
604.4620, 10324.33
604.9442, 10337.19
605.4263, 10337.17
605.9084, 10327.04
606.3905, 10323.79
606.8726, 10333.24
607.3547, 10347.55
607.8369, 10358.27
608.3190, 10366.18
608.8011, 10373.54
609.2832, 10382.80
609.7653, 10390.51
610.2474, 10392.17
610.7296, 10388.93
611.2117, 10390.17
611.6938, 10404.54
612.1759, 10418.74
612.6580, 10425.54
613.1401, 10422.73
613.6223, 10422.26
614.1044, 10425.91
614.5865, 10429.51
615.0686, 10428.63
615.5507, 10422.55
616.0328, 10419.84
616.5150, 10422.55
616.9971, 10426.49
617.4792, 10424.47
617.9613, 10417.94
618.4434, 10412.94
618.9255, 10411.40
619.4077, 10412.74
619.8898, 10418.83
620.3719, 10427.74
620.8540, 10433.34
621.3361, 10427.02
621.8182, 10421.32
622.3004, 10423.71
622.7825, 10434.45
623.2646, 10446.29
623.7467, 10461.69
624.2288, 10474.34
624.7109, 10480.03
625.1931, 10474.92
625.6752, 10476.00
626.1573, 10485.42
626.6394, 10497.04
627.1215, 10503.36
627.6036, 10504.18
628.0858, 10510.28
628.5679, 10525.41
629.0500, 10540.88
629.5321, 10539.46
630.0142, 10526.71
630.4963, 10520.50
630.9785, 10532.90
631.4606, 10549.99
631.9427, 10560.08
632.4248, 10565.03
632.9069, 10570.62
633.3890, 10581.77
633.8712, 10591.91
634.3533, 10597.28
634.8354, 10597.27
635.3175, 10599.45
635.7996, 10603.55
636.2817, 10610.27
636.7639, 10620.83
637.2460, 10636.39
637.7281, 10647.81
638.2102, 10653.44
638.6923, 10659.17
639.1744, 10675.03
639.6566, 10698.09
640.1387, 10711.13
640.6208, 10709.15
641.1029, 10701.30
641.5850, 10694.13
642.0671, 10689.30
642.5493, 10689.96
643.0314, 10703.31
643.5135, 10717.00
643.9956, 10722.52
644.4777, 10723.20
644.9598, 10729.31
645.4420, 10752.94
645.9241, 10772.41
646.4062, 10779.10
646.8883, 10773.85
647.3704, 10774.99
647.8525, 10784.21
648.3347, 10796.15
648.8168, 10806.61
649.2989, 10815.86
649.7810, 10831.64
650.2631, 10854.39
650.7452, 10878.94
651.2274, 10900.57
651.7095, 10919.81
652.1916, 10937.17
652.6737, 10951.10
653.1558, 10968.04
653.6379, 10996.69
654.1201, 11029.91
654.6022, 11058.51
655.0843, 11074.09
655.5664, 11091.24
656.0485, 11114.25
656.5306, 11140.78
657.0128, 11165.62
657.4949, 11186.63
657.9770, 11209.95
658.4591, 11237.47
658.9412, 11268.24
659.4233, 11298.84
659.9055, 11329.60
660.3876, 11357.93
660.8697, 11381.93
661.3518, 11402.88
661.8339, 11423.98
662.3160, 11445.22
662.7982, 11465.58
663.2803, 11488.11
663.7624, 11507.36
664.2445, 11516.77
664.7266, 11514.37
665.2087, 11510.25
665.6909, 11509.93
666.1730, 11508.02
666.6551, 11499.65
667.1372, 11480.35
667.6193, 11462.28
668.1014, 11446.32
668.5836, 11430.79
669.0657, 11412.82
669.5478, 11392.15
670.0299, 11373.62
670.5120, 11358.71
670.9941, 11345.58
671.4763, 11332.50
671.9584, 11318.82
672.4405, 11301.66
672.9226, 11273.01
673.4047, 11245.83
673.8868, 11232.58
674.3690, 11230.73
674.8511, 11230.85
675.3332, 11235.79
675.8153, 11235.91
676.2974, 11221.96
676.7795, 11192.92
677.2617, 11181.31
677.7438, 11197.92
678.2259, 11215.28
678.7080, 11218.50
679.1901, 11206.55
679.6722, 11195.58
680.1544, 11184.96
680.6365, 11177.98
681.1186, 11178.51
681.6007, 11184.88
682.0828, 11193.51
682.5649, 11204.21
683.0471, 11214.65
683.5292, 11224.30
684.0113, 11231.73
684.4934, 11234.72
684.9755, 11228.98
685.4576, 11224.46
685.9398, 11224.47
686.4219, 11226.92
686.9040, 11227.97
687.3861, 11224.68
687.8682, 11226.59
688.3503, 11237.84
688.8325, 11253.44
689.3146, 11258.64
689.7967, 11253.34
690.2788, 11250.34
690.7609, 11256.33
691.2430, 11266.85
691.7252, 11273.99
692.2073, 11278.42
692.6894, 11282.91
693.1715, 11292.59
693.6536, 11299.94
694.1357, 11295.69
694.6179, 11280.24
695.1000, 11273.16
695.5821, 11287.36
696.0642, 11303.51
696.5463, 11311.93
697.0284, 11310.78
697.5106, 11314.51
697.9927, 11324.98
698.4748, 11336.29
698.9569, 11344.38
699.4390, 11349.40
699.9211, 11350.17
700.4033, 11346.15
700.8854, 11342.96
701.3675, 11345.70
701.8496, 11353.29
702.3317, 11365.05
702.8138, 11383.37
703.2960, 11398.69
703.7781, 11398.76
704.2602, 11395.83
704.7423, 11404.86
705.2244, 11447.83
705.7065, 11476.44
706.1887, 11480.08
706.6708, 11471.34
707.1529, 11474.86
707.6350, 11493.07
708.1171, 11507.68
708.5992, 11512.78
709.0814, 11512.87
709.5635, 11517.18
710.0456, 11525.15
710.5277, 11534.11
711.0098, 11545.27
711.4919, 11554.94
711.9741, 11558.01
712.4562, 11556.34
712.9383, 11557.15
713.4204, 11564.82
713.9025, 11574.05
714.3846, 11584.47
714.8668, 11595.88
715.3489, 11600.29
715.8310, 11593.27
716.3131, 11588.24
716.7952, 11593.24
717.2773, 11607.37
717.7595, 11618.85
718.2416, 11627.53
718.7237, 11635.16
719.2058, 11644.36
719.6879, 11653.01
720.1700, 11656.36
720.6522, 11653.63
721.1343, 11652.10
721.6164, 11656.80
722.0985, 11663.98
722.5806, 11670.29
723.0627, 11672.82
723.5449, 11680.46
724.0270, 11696.94
724.5091, 11715.52
724.9912, 11730.61
725.4733, 11742.56
725.9554, 11748.72
726.4376, 11747.26
726.9197, 11744.94
727.4018, 11751.18
727.8839, 11764.21
728.3660, 11779.13
728.8481, 11796.69
729.3303, 11811.33
729.8124, 11815.95
730.2945, 11815.04
730.7766, 11815.35
731.2587, 11815.89
731.7408, 11821.33
732.2230, 11837.65
732.7051, 11858.31
733.1872, 11870.58
733.6693, 11870.85
734.1514, 11872.61
734.6335, 11878.76
735.1157, 11888.66
735.5978, 11902.61
736.0799, 11919.94
736.5620, 11934.39
737.0441, 11941.21
737.5262, 11945.29
738.0084, 11953.25
738.4905, 11963.54
738.9726, 11970.74
739.4547, 11963.89
739.9368, 11961.67
740.4189, 11977.69
740.9011, 12010.24
741.3832, 12025.92
741.8653, 12012.13
742.3474, 12004.36
742.8295, 12020.19
743.3116, 12055.74
743.7938, 12080.48
744.2759, 12094.16
744.7580, 12102.78
745.2401, 12108.04
745.7222, 12111.96
746.2043, 12117.66
746.6865, 12125.39
747.1686, 12134.21
747.6507, 12144.72
748.1328, 12155.74
748.6149, 12167.79
749.0970, 12182.13
749.5792, 12189.70
750.0613, 12182.76
750.5434, 12178.78
751.0255, 12189.94
751.5076, 12217.41
751.9897, 12245.83
752.4719, 12275.74
752.9540, 12303.26
753.4361, 12324.25
753.9182, 12340.75
754.4003, 12355.14
754.8824, 12366.39
755.3646, 12385.38
755.8467, 12428.20
756.3288, 12477.15
756.8109, 12513.82
757.2930, 12526.62
757.7751, 12546.65
758.2573, 12580.13
758.7394, 12617.50
759.2215, 12649.78
759.7036, 12676.63
760.1857, 12703.15
760.6678, 12729.71
761.1500, 12755.14
761.6321, 12776.26
762.1142, 12794.61
762.5963, 12815.31
763.0784, 12841.39
763.5605, 12864.11
764.0427, 12874.62
764.5248, 12879.08
765.0069, 12885.25
765.4890, 12901.05
765.9711, 12910.16
766.4532, 12909.85
766.9354, 12903.85
767.4175, 12898.32
767.8996, 12894.44
768.3817, 12883.41
768.8638, 12862.42
769.3459, 12837.03
769.8281, 12814.95
770.3102, 12796.00
770.7923, 12779.58
771.2744, 12765.56
771.7565, 12753.90
772.2386, 12745.17
772.7208, 12738.49
773.2029, 12732.38
773.6850, 12727.42
774.1671, 12721.50
774.6492, 12713.07
775.1313, 12703.91
775.6135, 12698.58
776.0956, 12697.83
776.5777, 12694.46
777.0598, 12684.61
777.5419, 12673.96
778.0240, 12675.29
778.5062, 12684.70
778.9883, 12690.08
779.4704, 12680.61
779.9525, 12670.88
780.4346, 12669.99
780.9167, 12675.66
781.3989, 12682.22
781.8810, 12694.74
782.3631, 12699.97
782.8452, 12691.68
783.3273, 12675.95
783.8094, 12672.55
784.2916, 12683.15
784.7737, 12689.19
785.2558, 12680.38
785.7379, 12667.46
786.2200, 12672.06
786.7021, 12690.15
787.1843, 12707.67
787.6664, 12721.25
788.1485, 12729.53
788.6306, 12728.24
789.1127, 12720.37
789.5948, 12716.97
790.0770, 12720.00
790.5591, 12726.22
791.0412, 12735.40
791.5233, 12746.87
792.0054, 12758.47
792.4875, 12769.94
792.9697, 12783.68
793.4518, 12804.09
793.9339, 12824.07
794.4160, 12828.10
794.8981, 12821.05
795.3802, 12819.30
795.8624, 12839.33
796.3445, 12857.81
796.8266, 12860.94
797.3087, 12852.04
797.7908, 12849.78
798.2729, 12857.67
798.7551, 12866.65
799.2372, 12874.11
799.7193, 12881.12
800.2014, 12892.06
800.6835, 12906.71
801.1656, 12921.30
801.6478, 12935.17
802.1299, 12946.86
802.6120, 12953.52
803.0941, 12956.42
803.5762, 12959.87
804.0583, 12963.83
804.5405, 12970.19
805.0226, 12981.56
805.5047, 12996.02
805.9868, 13005.24
806.4689, 13005.07
806.9510, 13012.36
807.4332, 13036.49
807.9153, 13069.35
808.3974, 13087.45
808.8795, 13092.40
809.3616, 13093.29
809.8438, 13092.92
810.3259, 13092.34
810.8080, 13091.51
811.2901, 13091.20
811.7722, 13093.65
812.2543, 13099.45
812.7365, 13108.43
813.2186, 13121.07
813.7007, 13136.72
814.1828, 13153.41
814.6649, 13171.49
815.1470, 13187.48
815.6292, 13198.62
816.1113, 13207.93
816.5934, 13222.53
817.0755, 13240.38
817.5576, 13254.82
818.0397, 13260.70
818.5219, 13264.25
819.0040, 13267.63
819.4861, 13271.19
819.9682, 13275.78
820.4503, 13281.28
820.9324, 13289.09
821.4146, 13301.97
821.8967, 13315.63
822.3788, 13315.85
822.8609, 13303.70
823.3430, 13294.86
823.8251, 13296.57
824.3073, 13302.41
824.7894, 13303.99
825.2715, 13303.81
825.7536, 13307.40
826.2357, 13321.04
826.7178, 13333.74
827.2000, 13341.14
827.6821, 13345.76
828.1642, 13352.05
828.6463, 13360.62
829.1284, 13368.71
829.6105, 13375.31
830.0927, 13382.20
830.5748, 13393.51
831.0569, 13408.10
831.5390, 13422.33
832.0211, 13436.83
832.5032, 13447.77
832.9854, 13448.26
833.4675, 13444.60
833.9496, 13446.34
834.4317, 13456.41
834.9138, 13471.55
835.3959, 13495.75
835.8781, 13520.76
836.3602, 13532.96
836.8423, 13532.21
837.3244, 13530.43
837.8065, 13528.75
838.2886, 13530.37
838.7708, 13541.08
839.2529, 13557.10
839.7350, 13572.64
840.2171, 13587.10
840.6992, 13598.70
841.1813, 13603.36
841.6635, 13606.90
842.1456, 13616.05
842.6277, 13633.76
843.1098, 13647.93
843.5919, 13657.92
844.0740, 13664.56
844.5562, 13667.59
845.0383, 13668.25
845.5204, 13668.64
846.0025, 13668.45
846.4846, 13673.87
846.9667, 13696.54
847.4489, 13722.89
847.9310, 13739.58
848.4131, 13740.93
848.8952, 13742.08
849.3773, 13739.23
849.8594, 13742.29
850.3416, 13762.26
850.8237, 13798.51
851.3058, 13825.81
851.7879, 13843.12
852.2700, 13856.50
852.7521, 13872.14
853.2343, 13886.61
853.7164, 13893.49
854.1985, 13891.71
854.6806, 13895.75
855.1627, 13914.13
855.6448, 13936.49
856.1270, 13958.73
856.6091, 13980.99
857.0912, 13996.91
857.5733, 14005.43
858.0554, 14012.17
858.5375, 14019.16
859.0197, 14027.22
859.5018, 14040.14
859.9839, 14056.72
860.4660, 14070.32
860.9481, 14071.41
861.4302, 14073.92
861.9124, 14088.58
862.3945, 14113.89
862.8766, 14130.39
863.3587, 14134.06
863.8408, 14138.28
864.3229, 14149.09
864.8051, 14162.84
865.2872, 14164.47
865.7693, 14156.84
866.2514, 14156.55
866.7335, 14177.68
867.2156, 14203.35
867.6978, 14222.37
868.1799, 14235.66
868.6620, 14245.63
869.1441, 14246.83
869.6262, 14252.35
870.1083, 14264.76
870.5905, 14281.88
871.0726, 14302.08
871.5547, 14325.33
872.0368, 14336.71
872.5189, 14328.27
873.0010, 14318.74
873.4832, 14334.75
873.9653, 14363.15
874.4474, 14381.83
874.9295, 14377.30
875.4116, 14375.51
875.8937, 14380.45
876.3759, 14392.00
876.8580, 14413.58
877.3401, 14449.60
877.8222, 14467.76
878.3043, 14462.97
878.7864, 14452.46
879.2686, 14453.78
879.7507, 14462.60
880.2328, 14470.88
880.7149, 14477.26
881.1970, 14486.07
881.6791, 14507.60
882.1613, 14526.22
882.6434, 14528.63
883.1255, 14511.71
883.6076, 14504.08
884.0897, 14506.51
884.5718, 14516.41
885.0540, 14537.54
885.5361, 14564.47
886.0182, 14577.39
886.5003, 14577.75
886.9824, 14577.13
887.4645, 14578.25
887.9467, 14584.17
888.4288, 14597.68
888.9109, 14618.24
889.3930, 14641.30
889.8751, 14671.33
890.3572, 14692.36
890.8394, 14696.24
891.3215, 14689.81
891.8036, 14693.56
892.2857, 14705.35
892.7678, 14713.37
893.2499, 14706.65
893.7321, 14701.48
894.2142, 14711.03
894.6963, 14730.86
895.1784, 14752.27
895.6605, 14780.88
896.1426, 14799.97
896.6248, 14803.18
897.1069, 14802.54
897.5890, 14819.45
898.0711, 14851.64
898.5532, 14874.04
899.0353, 14880.54
899.5175, 14884.81
899.9996, 14899.77
900.4817, 14920.01
900.9638, 14938.98
901.4459, 14955.09
901.9280, 14971.49
902.4102, 14987.86
902.8923, 15005.32
903.3744, 15026.18
903.8565, 15050.73
904.3386, 15066.93
904.8207, 15074.35
905.3029, 15079.80
905.7850, 15085.57
906.2671, 15094.01
906.7492, 15108.30
907.2313, 15128.36
907.7134, 15150.86
908.1956, 15181.36
908.6777, 15206.64
909.1598, 15220.71
909.6419, 15226.21
910.1240, 15236.30
910.6061, 15251.10
911.0883, 15264.76
911.5704, 15272.39
912.0525, 15280.42
912.5346, 15299.11
913.0167, 15324.51
913.4988, 15347.94
913.9810, 15368.30
914.4631, 15383.73
914.9452, 15390.33
915.4273, 15394.42
915.9094, 15405.46
916.3915, 15423.85
916.8737, 15442.70
917.3558, 15461.09
917.8379, 15479.35
918.3200, 15499.72
918.8021, 15519.39
919.2842, 15532.33
919.7664, 15534.28
920.2485, 15543.44
920.7306, 15569.80
921.2127, 15601.60
921.6948, 15633.76
922.1769, 15667.15
922.6591, 15685.42
923.1412, 15686.96
923.6233, 15689.28
924.1054, 15706.46
924.5875, 15730.96
925.0696, 15755.99
925.5518, 15779.92
926.0339, 15795.75
926.5160, 15792.40
926.9981, 15789.74
927.4802, 15795.74
927.9623, 15807.04
928.4445, 15812.96
928.9266, 15813.15
929.4087, 15812.85
929.8908, 15812.94
930.3729, 15814.83
930.8550, 15821.81
931.3372, 15831.69
931.8193, 15840.53
932.3014, 15848.36
932.7835, 15853.21
933.2656, 15851.74
933.7477, 15849.58
934.2299, 15852.02
934.7120, 15859.65
935.1941, 15867.58
935.6762, 15875.59
936.1583, 15884.37
936.6404, 15895.46
937.1226, 15907.10
937.6047, 15916.38
938.0868, 15922.98
938.5689, 15929.76
939.0510, 15934.57
939.5331, 15942.72
940.0153, 15957.36
940.4974, 15976.98
940.9795, 15991.28
941.4616, 16000.08
941.9437, 16013.03
942.4258, 16038.54
942.9080, 16065.80
943.3901, 16078.53
943.8722, 16083.25
944.3543, 16093.87
944.8364, 16125.23
945.3185, 16148.95
945.8007, 16158.18
946.2828, 16161.24
946.7649, 16167.39
947.2470, 16176.86
947.7291, 16196.86
948.2112, 16230.13
948.6934, 16261.03
949.1755, 16270.48
949.6576, 16271.94
950.1397, 16280.58
950.6218, 16299.60
951.1039, 16317.75
951.5861, 16331.53
952.0682, 16346.94
952.5503, 16368.09
953.0324, 16393.69
953.5145, 16413.67
953.9966, 16428.56
954.4788, 16445.03
954.9609, 16470.42
955.4430, 16496.06
955.9251, 16513.22
956.4072, 16525.27
956.8893, 16541.59
957.3715, 16569.22
957.8536, 16590.89
958.3357, 16602.91
958.8178, 16609.94
959.2999, 16616.05
959.7820, 16622.86
960.2642, 16638.92
960.7463, 16667.23
961.2284, 16696.84
961.7105, 16720.30
962.1926, 16741.29
962.6747, 16764.93
963.1569, 16794.56
963.6390, 16808.96
964.1211, 16801.53
964.6032, 16797.25
965.0853, 16815.18
965.5674, 16847.09
966.0496, 16870.93
966.5317, 16887.07
967.0138, 16897.89
967.4959, 16895.71
967.9780, 16898.12
968.4601, 16917.49
968.9423, 16947.11
969.4244, 16971.23
969.9065, 16989.78
970.3886, 17003.67
970.8707, 17012.06
971.3528, 17019.32
971.8350, 17028.47
972.3171, 17041.60
972.7992, 17063.73
973.2813, 17097.75
973.7634, 17131.99
974.2455, 17166.68
974.7277, 17195.71
975.2098, 17213.17
975.6919, 17218.77
976.1740, 17231.35
976.6561, 17251.02
977.1382, 17274.04
977.6204, 17300.44
978.1025, 17327.47
978.5846, 17350.96
979.0667, 17372.23
979.5488, 17395.88
980.0309, 17430.16
980.5131, 17456.10
980.9952, 17466.55
981.4773, 17471.51
981.9594, 17489.83
982.4415, 17519.19
982.9236, 17540.80
983.4058, 17550.03
983.8879, 17557.11
984.3700, 17571.91
984.8521, 17587.85
985.3342, 17596.47
985.8163, 17593.06
986.2985, 17605.59
986.7806, 17642.78
987.2627, 17676.64
987.7448, 17691.15
988.2269, 17692.52
988.7090, 17696.11
989.1912, 17703.02
989.6733, 17717.03
990.1554, 17747.48
990.6375, 17778.13
991.1196, 17804.61
991.6017, 17824.80
992.0839, 17832.70
992.5660, 17823.11
993.0481, 17824.39
993.5302, 17840.30
994.0123, 17864.68
994.4944, 17895.51
994.9766, 17927.55
995.4587, 17950.43
995.9408, 17961.56
996.4229, 17977.71
996.9050, 18010.00
997.3871, 18041.92
997.8693, 18065.68
998.3514, 18082.90
998.8335, 18102.51
999.3156, 18124.36
999.7977, 18146.62
1000.280, 18170.79
1000.762, 18192.16
1001.244, 18203.90
1001.726, 18210.89
1002.208, 18221.30
1002.690, 18240.48
1003.173, 18256.80
1003.655, 18267.54
1004.137, 18280.47
1004.619, 18306.22
1005.101, 18340.63
1005.583, 18366.12
1006.065, 18382.19
1006.547, 18400.54
1007.029, 18431.85
1007.512, 18463.53
1007.994, 18488.27
1008.476, 18506.70
1008.958, 18519.22
1009.440, 18523.27
1009.922, 18537.16
1010.404, 18570.26
1010.886, 18607.05
1011.369, 18628.97
1011.851, 18638.99
1012.333, 18640.39
1012.815, 18625.47
1013.297, 18625.02
1013.779, 18655.12
1014.261, 18688.72
1014.743, 18706.25
1015.225, 18709.10
1015.708, 18715.10
1016.190, 18724.74
1016.672, 18744.35
1017.154, 18788.94
1017.636, 18834.53
1018.118, 18863.04
1018.600, 18877.76
1019.082, 18891.41
1019.565, 18901.42
1020.047, 18917.42
1020.529, 18941.03
1021.011, 18969.89
1021.493, 19004.69
1021.975, 19041.59
1022.457, 19073.27
1022.939, 19098.53
1023.421, 19117.36
1023.904, 19123.99
1024.386, 19129.62
1024.868, 19140.11
1025.350, 19155.11
1025.832, 19171.88
1026.314, 19190.54
1026.796, 19206.61
1027.278, 19215.54
1027.760, 19224.88
1028.243, 19244.66
1028.725, 19269.59
1029.207, 19290.64
1029.689, 19306.28
1030.171, 19317.61
1030.653, 19324.00
1031.135, 19327.82
1031.617, 19327.04
1032.100, 19326.09
1032.582, 19340.18
1033.064, 19369.05
1033.546, 19399.43
1034.028, 19423.12
1034.510, 19448.06
1034.992, 19479.03
1035.474, 19513.90
1035.957, 19546.05
1036.439, 19576.00
1036.921, 19600.63
1037.403, 19618.40
1037.885, 19634.39
1038.367, 19656.98
1038.849, 19679.73
1039.331, 19691.57
1039.813, 19685.16
1040.296, 19693.20
1040.778, 19722.79
1041.260, 19755.13
1041.742, 19778.84
1042.224, 19797.32
1042.706, 19820.98
1043.188, 19848.89
1043.670, 19879.34
1044.152, 19916.39
1044.635, 19949.24
1045.117, 19968.59
1045.599, 19983.26
1046.081, 20005.91
1046.563, 20039.00
1047.045, 20061.60
1047.527, 20071.96
1048.009, 20079.61
1048.492, 20091.48
1048.974, 20106.39
1049.456, 20124.17
1049.938, 20144.74
1050.420, 20164.82
1050.902, 20186.02
1051.384, 20204.06
1051.866, 20216.93
1052.349, 20227.81
1052.831, 20241.08
1053.313, 20257.25
1053.795, 20278.94
1054.277, 20308.14
1054.759, 20335.30
1055.241, 20350.93
1055.723, 20367.08
1056.205, 20392.11
1056.688, 20425.59
1057.170, 20456.54
1057.652, 20485.04
1058.134, 20510.31
1058.616, 20530.96
1059.098, 20549.89
1059.580, 20570.19
1060.062, 20590.78
1060.544, 20609.45
1061.027, 20624.69
1061.509, 20639.62
1061.991, 20651.70
1062.473, 20670.74
1062.955, 20716.01
1063.437, 20771.99
1063.919, 20802.89
1064.401, 20808.87
1064.884, 20812.25
1065.366, 20815.39
1065.848, 20826.70
1066.330, 20851.24
1066.812, 20882.79
1067.294, 20908.41
1067.776, 20928.24
1068.258, 20943.66
1068.740, 20953.64
1069.223, 20966.74
1069.705, 20996.93
1070.187, 21028.16
1070.669, 21043.40
1071.151, 21040.93
1071.633, 21051.10
1072.115, 21075.46
1072.597, 21105.71
1073.079, 21141.65
1073.562, 21176.59
1074.044, 21196.25
1074.526, 21208.66
1075.008, 21229.72
1075.490, 21274.05
1075.972, 21308.51
1076.454, 21326.76
1076.936, 21341.21
1077.419, 21361.78
1077.901, 21387.11
1078.383, 21410.59
1078.865, 21432.70
1079.347, 21456.33
1079.829, 21489.35
1080.311, 21517.04
1080.793, 21528.76
1081.275, 21532.23
1081.758, 21536.41
1082.240, 21540.54
1082.722, 21558.69
1083.204, 21593.58
1083.686, 21632.12
1084.168, 21675.91
1084.650, 21709.10
1085.132, 21709.33
1085.615, 21677.62
1086.097, 21665.57
1086.579, 21679.60
1087.061, 21699.83
1087.543, 21722.02
1088.025, 21745.46
1088.507, 21770.79
1088.989, 21795.62
1089.471, 21815.03
1089.953, 21827.14
1090.436, 21836.81
1090.918, 21837.66
1091.400, 21846.37
1091.882, 21874.25
1092.364, 21916.35
1092.846, 21951.08
1093.328, 21979.45
1093.810, 22008.84
1094.293, 22044.46
1094.775, 22078.76
1095.257, 22109.37
1095.739, 22136.01
1096.221, 22156.50
1096.703, 22168.97
1097.185, 22193.59
1097.667, 22231.01
1098.150, 22271.37
1098.632, 22310.33
1099.114, 22345.74
1099.596, 22373.21
1100.078, 22395.58
1100.560, 22423.31
1101.042, 22461.20
1101.524, 22489.43
1102.006, 22503.84
1102.489, 22513.79
1102.971, 22530.36
1103.453, 22550.11
1103.935, 22567.45
1104.417, 22582.26
1104.899, 22597.56
1105.381, 22614.68
1105.863, 22632.86
1106.345, 22652.87
1106.828, 22673.27
1107.310, 22689.82
1107.792, 22703.90
1108.274, 22719.11
1108.756, 22737.09
1109.238, 22753.73
1109.720, 22763.07
1110.202, 22774.36
1110.685, 22792.70
1111.167, 22817.36
1111.649, 22844.16
1112.131, 22872.32
1112.613, 22894.71
1113.095, 22901.01
1113.577, 22912.23
1114.059, 22952.85
1114.542, 23000.84
1115.024, 23027.49
1115.506, 23024.34
1115.988, 23044.00
1116.470, 23088.76
1116.952, 23132.47
1117.434, 23155.88
1117.916, 23170.48
1118.398, 23184.45
1118.880, 23200.04
1119.363, 23222.85
1119.845, 23259.19
1120.327, 23291.47
1120.809, 23318.53
1121.291, 23340.75
1121.773, 23350.28
1122.255, 23358.98
1122.737, 23395.75
1123.220, 23455.89
1123.702, 23500.45
1124.184, 23498.87
1124.666, 23503.63
1125.148, 23526.25
1125.630, 23555.70
1126.112, 23571.65
1126.594, 23580.01
1127.077, 23601.93
1127.559, 23641.24
1128.041, 23674.36
1128.523, 23680.49
1129.005, 23688.81
1129.487, 23711.90
1129.969, 23746.36
1130.451, 23785.41
1130.933, 23827.80
1131.416, 23861.32
1131.898, 23879.18
1132.380, 23902.67
1132.862, 23963.66
1133.344, 24021.07
1133.826, 24034.08
1134.308, 24006.03
1134.790, 24016.00
1135.272, 24064.96
1135.755, 24111.46
1136.237, 24139.66
1136.719, 24158.03
1137.201, 24166.18
1137.683, 24173.36
1138.165, 24194.08
1138.647, 24235.11
1139.129, 24261.71
1139.612, 24272.20
1140.094, 24280.85
1140.576, 24292.82
1141.058, 24311.10
1141.540, 24349.46
1142.022, 24395.23
1142.504, 24420.72
1142.986, 24401.42
1143.469, 24400.10
1143.951, 24422.18
1144.433, 24450.20
1144.915, 24466.21
1145.397, 24479.54
1145.879, 24512.19
1146.361, 24558.96
1146.843, 24596.55
1147.325, 24609.60
1147.807, 24624.53
1148.290, 24644.90
1148.772, 24667.38
1149.254, 24687.17
1149.736, 24706.01
1150.218, 24729.35
1150.700, 24757.44
1151.182, 24786.57
1151.664, 24805.96
1152.147, 24840.12
1152.629, 24906.01
1153.111, 24978.02
1153.593, 25001.38
1154.075, 24987.52
1154.557, 24980.79
1155.039, 24987.55
1155.521, 25009.23
1156.004, 25072.08
1156.486, 25121.22
1156.968, 25124.20
1157.450, 25099.47
1157.932, 25105.17
1158.414, 25137.84
1158.896, 25173.17
1159.378, 25206.26
1159.860, 25236.80
1160.343, 25266.91
1160.825, 25292.19
1161.307, 25306.83
1161.789, 25313.66
1162.271, 25335.76
1162.753, 25372.45
1163.235, 25409.75
1163.717, 25443.60
1164.199, 25473.84
1164.682, 25495.56
1165.164, 25515.59
1165.646, 25540.21
1166.128, 25569.33
1166.610, 25604.21
1167.092, 25644.98
1167.574, 25674.03
1168.056, 25674.24
1168.539, 25670.88
1169.021, 25685.55
1169.503, 25711.86
1169.985, 25742.25
1170.467, 25777.06
1170.949, 25812.38
1171.431, 25848.81
1171.913, 25881.89
1172.396, 25911.14
1172.878, 25933.45
1173.360, 25934.72
1173.842, 25929.73
1174.324, 25949.88
1174.806, 26010.68
1175.288, 26056.46
1175.770, 26083.53
1176.252, 26105.94
1176.734, 26136.46
1177.217, 26166.65
1177.699, 26178.18
1178.181, 26210.89
1178.663, 26240.04
1179.145, 26258.83
1179.627, 26299.63
1180.109, 26316.11
1180.591, 26330.71
1181.074, 26370.98
1181.556, 26418.76
1182.038, 26450.18
1182.520, 26466.39
1183.002, 26476.72
1183.484, 26478.04
1183.966, 26487.04
1184.448, 26506.87
1184.931, 26532.90
1185.413, 26562.34
1185.895, 26593.64
1186.377, 26622.25
1186.859, 26656.73
1187.341, 26681.84
1187.823, 26726.49
1188.305, 26768.61
1188.787, 26805.66
1189.270, 26836.77
1189.752, 26854.83
1190.234, 26868.50
1190.716, 26895.46
1191.198, 26936.90
1191.680, 26973.44
1192.162, 26997.07
1192.644, 27024.03
1193.126, 27059.57
1193.609, 27098.48
1194.091, 27133.63
1194.573, 27165.37
1195.055, 27190.84
1195.537, 27209.14
1196.019, 27239.00
1196.501, 27293.70
1196.983, 27343.31
1197.466, 27377.77
1197.948, 27404.32
1198.430, 27432.16
1198.912, 27463.70
1199.394, 27506.95
1199.876, 27564.98
1200.358, 27615.38
1200.840, 27653.41
1201.323, 27682.79
1201.805, 27701.72
1202.287, 27717.00
1202.769, 27745.51
1203.251, 27780.78
1203.733, 27807.65
1204.215, 27821.19
1204.697, 27837.43
1205.179, 27857.72
1205.661, 27887.08
1206.144, 27934.14
1206.626, 27985.00
1207.108, 27997.40
1207.590, 27989.94
1208.072, 28005.31
1208.554, 28064.94
1209.036, 28109.70
1209.518, 28119.46
1210.001, 28134.90
1210.483, 28179.00
1210.965, 28238.98
1211.447, 28283.01
1211.929, 28317.64
1212.411, 28360.03
1212.893, 28419.09
1213.375, 28473.77
1213.858, 28524.59
1214.340, 28564.21
1214.822, 28583.28
1215.304, 28593.32
1215.786, 28620.04
1216.268, 28660.08
1216.750, 28705.82
1217.232, 28760.86
1217.714, 28809.21
1218.197, 28851.84
1218.679, 28883.93
1219.161, 28892.06
1219.643, 28894.78
1220.125, 28940.15
1220.607, 29011.54
1221.089, 29070.92
1221.571, 29101.27
1222.053, 29127.95
1222.536, 29151.63
1223.018, 29173.96
1223.500, 29192.32
1223.982, 29213.17
1224.464, 29253.33
1224.946, 29305.32
1225.428, 29351.79
1225.910, 29381.08
1226.393, 29417.94
1226.875, 29466.81
1227.357, 29509.67
1227.839, 29525.07
1228.321, 29530.96
1228.803, 29560.92
1229.285, 29604.91
1229.767, 29639.48
1230.250, 29643.72
1230.732, 29670.53
1231.214, 29725.31
1231.696, 29783.57
1232.178, 29826.79
1232.660, 29861.71
1233.142, 29896.09
1233.624, 29929.83
1234.106, 29961.69
1234.589, 29991.46
1235.071, 30018.54
1235.553, 30041.04
1236.035, 30071.91
1236.517, 30128.62
1236.999, 30192.50
1237.481, 30245.32
1237.963, 30286.93
1238.445, 30315.83
1238.928, 30323.25
1239.410, 30349.22
1239.892, 30395.76
1240.374, 30453.83
1240.856, 30534.86
1241.338, 30607.09
1241.820, 30629.85
1242.302, 30626.35
1242.785, 30646.19
1243.267, 30696.60
1243.749, 30742.96
1244.231, 30784.13
1244.713, 30823.75
1245.195, 30862.20
1245.677, 30902.74
1246.159, 30948.18
1246.641, 30997.07
1247.124, 31047.11
1247.606, 31099.03
1248.088, 31135.98
1248.570, 31157.05
1249.052, 31185.54
1249.534, 31244.70
1250.016, 31307.71
1250.498, 31358.38
1250.980, 31402.84
1251.463, 31450.92
1251.945, 31502.41
1252.427, 31547.99
1252.909, 31587.08
1253.391, 31616.55
1253.873, 31618.24
1254.355, 31629.41
1254.837, 31673.56
1255.320, 31729.77
1255.802, 31774.64
1256.284, 31810.50
1256.766, 31852.80
1257.248, 31901.03
1257.730, 31947.83
1258.212, 31988.42
1258.694, 32028.34
1259.177, 32067.00
1259.659, 32107.86
1260.141, 32157.84
1260.623, 32212.29
1261.105, 32251.33
1261.587, 32278.70
1262.069, 32315.26
1262.551, 32388.24
1263.033, 32440.53
1263.516, 32458.78
1263.998, 32469.55
1264.480, 32498.31
1264.962, 32538.52
1265.444, 32577.09
1265.926, 32614.89
1266.408, 32657.20
1266.890, 32708.77
1267.372, 32759.48
1267.855, 32807.75
1268.337, 32860.94
1268.819, 32936.00
1269.301, 33013.75
1269.783, 33061.82
1270.265, 33090.18
1270.747, 33129.34
1271.229, 33188.94
1271.712, 33234.52
1272.194, 33262.80
1272.676, 33290.20
1273.158, 33325.99
1273.640, 33370.08
1274.122, 33423.61
1274.604, 33484.83
1275.086, 33550.24
1275.568, 33621.57
1276.051, 33685.41
1276.533, 33742.00
1277.015, 33789.52
1277.497, 33818.86
1277.979, 33849.64
1278.461, 33904.39
1278.943, 33961.46
1279.425, 33991.20
1279.907, 33994.82
1280.390, 34012.02
1280.872, 34042.97
1281.354, 34081.33
1281.836, 34120.02
1282.318, 34171.41
1282.800, 34252.78
1283.282, 34333.96
1283.764, 34383.69
1284.247, 34410.62
1284.729, 34453.99
1285.211, 34511.04
1285.693, 34570.51
1286.175, 34641.15
1286.657, 34690.56
1287.139, 34704.04
1287.621, 34720.41
1288.104, 34779.71
1288.586, 34856.53
1289.068, 34890.83
1289.550, 34901.70
1290.032, 34934.42
1290.514, 35024.64
1290.996, 35090.57
1291.478, 35128.60
1291.960, 35159.32
1292.443, 35192.70
1292.925, 35230.30
1293.407, 35278.05
1293.889, 35329.41
1294.371, 35372.85
1294.853, 35406.07
1295.335, 35442.74
1295.817, 35482.71
1296.299, 35528.68
1296.782, 35583.41
1297.264, 35641.55
1297.746, 35708.05
1298.228, 35769.12
1298.710, 35811.99
1299.192, 35839.37
1299.674, 35877.34
1300.156, 35923.40
1300.639, 35958.07
1301.121, 35963.05
1301.603, 35982.29
1302.085, 36053.23
1302.567, 36138.23
1303.049, 36222.34
1303.531, 36298.79
##END=



