##NAMES=Spinel
##RRUFFID=R070013
##IDEAL CHEMISTRY=MgAl_2_O_4_
##LOCALITY=Bo Phloi, Kanchoutabori Province, Thailand
##OWNER=RRUFF
##SOURCE=Michael Scott
##DESCRIPTION=Black glassy fragment with conchoidal fracture
##STATUS=The identification of this mineral has been made only by X-ray diffraction.
##URL=rruff.info/R070013
##MEASURED CHEMISTRY=(Mg_0.69_Fe^2+^_0.31_)_Σ=1_(Al_1.90_Fe^3+^_0.10_)_Σ=2_O_4_ ; trace of Mn, Ti and Cr
157.9508, 2144.728
158.4330, 2159.413
158.9151, 2172.137
159.3972, 2186.531
159.8793, 2203.979
160.3614, 2222.494
160.8435, 2240.217
161.3257, 2256.495
161.8078, 2271.413
162.2899, 2285.306
162.7720, 2297.519
163.2541, 2309.365
163.7362, 2319.525
164.2184, 2329.809
164.7005, 2344.878
165.1826, 2366.653
165.6647, 2387.710
166.1468, 2391.458
166.6289, 2359.767
167.1111, 2340.312
167.5932, 2345.107
168.0753, 2361.883
168.5574, 2376.497
169.0395, 2384.268
169.5216, 2387.142
170.0038, 2388.662
170.4859, 2388.313
170.9680, 2387.803
171.4501, 2385.803
171.9322, 2384.221
172.4143, 2386.578
172.8965, 2394.484
173.3786, 2404.270
173.8607, 2409.010
174.3428, 2407.649
174.8249, 2405.347
175.3070, 2401.221
175.7892, 2397.211
176.2713, 2396.335
176.7534, 2399.582
177.2355, 2405.797
177.7176, 2414.117
178.1997, 2425.732
178.6819, 2434.418
179.1640, 2437.576
179.6461, 2437.109
180.1282, 2435.480
180.6103, 2432.981
181.0924, 2430.731
181.5745, 2430.518
182.0567, 2432.158
182.5388, 2435.065
183.0209, 2439.976
183.5030, 2445.873
183.9851, 2451.251
184.4672, 2455.894
184.9494, 2459.471
185.4315, 2461.998
185.9136, 2463.841
186.3957, 2462.265
186.8778, 2453.590
187.3599, 2441.591
187.8421, 2432.452
188.3242, 2427.369
188.8063, 2425.197
189.2884, 2426.557
189.7705, 2430.949
190.2526, 2432.810
190.7348, 2429.276
191.2169, 2422.368
191.6990, 2414.844
192.1811, 2406.417
192.6632, 2399.580
193.1453, 2396.887
193.6275, 2397.733
194.1096, 2401.762
194.5917, 2414.371
195.0738, 2428.592
195.5559, 2431.471
196.0380, 2419.449
196.5202, 2403.941
197.0023, 2395.586
197.4844, 2392.098
197.9665, 2386.904
198.4486, 2376.814
198.9307, 2364.169
199.4129, 2351.842
199.8950, 2339.310
200.3771, 2329.556
200.8592, 2327.413
201.3413, 2329.938
201.8234, 2331.166
202.3056, 2329.403
202.7877, 2325.388
203.2698, 2319.805
203.7519, 2312.480
204.2340, 2304.573
204.7161, 2296.668
205.1983, 2288.759
205.6804, 2280.845
206.1625, 2272.890
206.6446, 2264.949
207.1267, 2256.380
207.6088, 2246.742
208.0910, 2239.712
208.5731, 2242.044
209.0552, 2247.142
209.5373, 2243.930
210.0194, 2224.679
210.5015, 2202.653
210.9837, 2194.031
211.4658, 2199.881
211.9479, 2204.837
212.4300, 2198.384
212.9121, 2188.304
213.3942, 2185.689
213.8764, 2194.375
214.3585, 2206.395
214.8406, 2216.599
215.3227, 2225.076
215.8048, 2226.052
216.2869, 2209.587
216.7691, 2189.332
217.2512, 2184.192
217.7333, 2199.842
218.2154, 2215.779
218.6975, 2212.195
219.1796, 2190.857
219.6618, 2174.461
220.1439, 2169.516
220.6260, 2173.310
221.1081, 2183.434
221.5902, 2200.923
222.0723, 2216.327
222.5545, 2223.900
223.0366, 2224.105
223.5187, 2218.144
224.0008, 2202.365
224.4829, 2185.363
224.9650, 2175.070
225.4472, 2171.288
225.9293, 2172.206
226.4114, 2180.902
226.8935, 2194.079
227.3756, 2200.630
227.8577, 2197.573
228.3399, 2189.715
228.8220, 2179.790
229.3041, 2168.375
229.7862, 2158.718
230.2683, 2150.849
230.7504, 2145.888
231.2325, 2148.503
231.7147, 2162.710
232.1968, 2174.446
232.6789, 2166.046
233.1610, 2145.087
233.6431, 2132.130
234.1252, 2138.853
234.6074, 2155.230
235.0895, 2167.073
235.5716, 2173.765
236.0537, 2177.351
236.5358, 2177.038
237.0179, 2174.719
237.5001, 2174.512
237.9822, 2179.552
238.4643, 2185.277
238.9464, 2186.229
239.4285, 2182.297
239.9106, 2178.715
240.3928, 2179.258
240.8749, 2181.670
241.3570, 2180.992
241.8391, 2174.226
242.3212, 2168.125
242.8033, 2169.949
243.2855, 2178.344
243.7676, 2182.997
244.2497, 2178.562
244.7318, 2168.687
245.2139, 2160.430
245.6960, 2153.702
246.1782, 2148.667
246.6603, 2145.183
247.1424, 2143.406
247.6245, 2144.817
248.1066, 2151.789
248.5887, 2158.777
249.0709, 2155.282
249.5530, 2139.597
250.0351, 2128.932
250.5172, 2131.452
250.9993, 2142.547
251.4814, 2155.591
251.9636, 2170.046
252.4457, 2182.547
252.9278, 2188.217
253.4099, 2187.236
253.8920, 2185.666
254.3741, 2182.724
254.8563, 2180.696
255.3384, 2184.518
255.8205, 2194.789
256.3026, 2201.706
256.7847, 2194.949
257.2668, 2174.610
257.7490, 2159.923
258.2311, 2153.831
258.7132, 2151.513
259.1953, 2148.270
259.6774, 2144.847
260.1595, 2147.395
260.6417, 2161.663
261.1238, 2185.227
261.6059, 2202.006
262.0880, 2210.300
262.5701, 2214.453
263.0522, 2215.082
263.5344, 2212.864
264.0165, 2209.005
264.4986, 2203.905
264.9807, 2197.920
265.4628, 2191.918
265.9449, 2183.139
266.4271, 2178.360
266.9092, 2180.436
267.3913, 2186.733
267.8734, 2194.658
268.3555, 2203.411
268.8376, 2211.554
269.3198, 2216.866
269.8019, 2218.833
270.2840, 2218.098
270.7661, 2208.172
271.2482, 2199.598
271.7303, 2203.889
272.2125, 2221.492
272.6946, 2240.690
273.1767, 2248.168
273.6588, 2240.106
274.1409, 2239.262
274.6230, 2252.578
275.1052, 2265.658
275.5873, 2273.023
276.0694, 2273.933
276.5515, 2268.033
277.0336, 2253.804
277.5157, 2232.030
277.9979, 2219.417
278.4800, 2217.985
278.9621, 2223.383
279.4442, 2242.644
279.9263, 2266.588
280.4084, 2281.008
280.8906, 2278.288
281.3727, 2264.039
281.8548, 2255.598
282.3369, 2258.136
282.8190, 2259.231
283.3011, 2253.462
283.7833, 2248.238
284.2654, 2252.129
284.7475, 2266.932
285.2296, 2285.001
285.7117, 2293.620
286.1938, 2287.880
286.6760, 2286.346
287.1581, 2292.661
287.6402, 2300.553
288.1223, 2308.280
288.6044, 2314.807
289.0865, 2318.223
289.5687, 2315.445
290.0508, 2306.220
290.5329, 2300.754
291.0150, 2302.958
291.4971, 2304.800
291.9792, 2303.726
292.4614, 2300.079
292.9435, 2294.100
293.4256, 2283.912
293.9077, 2272.952
294.3898, 2273.462
294.8719, 2291.849
295.3541, 2307.329
295.8362, 2307.322
296.3183, 2302.707
296.8004, 2306.387
297.2825, 2323.922
297.7646, 2344.414
298.2468, 2354.813
298.7289, 2354.665
299.2110, 2349.243
299.6931, 2332.168
300.1752, 2316.588
300.6573, 2316.792
301.1395, 2334.033
301.6216, 2350.145
302.1037, 2348.966
302.5858, 2335.867
303.0679, 2332.080
303.5500, 2343.629
304.0321, 2359.102
304.5143, 2368.900
304.9964, 2374.002
305.4785, 2377.473
305.9606, 2380.513
306.4427, 2382.327
306.9248, 2379.945
307.4070, 2372.936
307.8891, 2369.885
308.3712, 2380.273
308.8533, 2398.890
309.3354, 2406.014
309.8175, 2390.865
310.2997, 2374.810
310.7818, 2370.725
311.2639, 2375.841
311.7460, 2382.513
312.2281, 2388.855
312.7102, 2392.573
313.1924, 2386.108
313.6745, 2361.525
314.1566, 2346.801
314.6387, 2349.856
315.1208, 2364.726
315.6029, 2390.143
316.0851, 2424.913
316.5672, 2453.844
317.0493, 2457.909
317.5314, 2429.071
318.0135, 2407.703
318.4956, 2393.640
318.9778, 2386.543
319.4599, 2391.427
319.9420, 2404.144
320.4241, 2412.494
320.9062, 2406.969
321.3883, 2389.371
321.8705, 2377.812
322.3526, 2375.687
322.8347, 2375.954
323.3168, 2377.753
323.7989, 2381.306
324.2810, 2387.527
324.7632, 2396.716
325.2453, 2407.380
325.7274, 2416.389
326.2095, 2422.569
326.6916, 2429.689
327.1737, 2445.452
327.6559, 2456.514
328.1380, 2449.600
328.6201, 2426.603
329.1022, 2404.198
329.5843, 2400.576
330.0664, 2415.939
330.5486, 2422.567
331.0307, 2409.675
331.5128, 2401.563
331.9949, 2414.458
332.4770, 2438.193
332.9591, 2453.255
333.4413, 2447.370
333.9234, 2430.774
334.4055, 2424.373
334.8876, 2430.828
335.3697, 2435.559
335.8518, 2431.027
336.3340, 2422.975
336.8161, 2417.029
337.2982, 2414.166
337.7803, 2412.107
338.2624, 2408.954
338.7445, 2405.088
339.2267, 2402.297
339.7088, 2401.283
340.1909, 2400.811
340.6730, 2398.728
341.1551, 2395.317
341.6372, 2394.459
342.1194, 2400.912
342.6015, 2408.306
343.0836, 2408.340
343.5657, 2400.896
344.0478, 2393.545
344.5299, 2392.054
345.0121, 2395.018
345.4942, 2393.620
345.9763, 2377.596
346.4584, 2368.891
346.9405, 2383.712
347.4226, 2410.059
347.9048, 2424.572
348.3869, 2417.885
348.8690, 2402.012
349.3511, 2399.135
349.8332, 2423.395
350.3153, 2433.603
350.7975, 2417.031
351.2796, 2396.481
351.7617, 2389.851
352.2438, 2396.810
352.7259, 2404.158
353.2080, 2399.263
353.6902, 2382.091
354.1723, 2372.001
354.6544, 2378.035
355.1365, 2382.056
355.6186, 2378.428
356.1007, 2371.074
356.5829, 2365.329
357.0650, 2363.609
357.5471, 2365.042
358.0292, 2368.748
358.5113, 2376.233
358.9934, 2381.136
359.4756, 2378.914
359.9577, 2376.270
360.4398, 2379.164
360.9219, 2387.152
361.4040, 2392.310
361.8861, 2386.559
362.3683, 2372.160
362.8504, 2360.546
363.3325, 2353.083
363.8146, 2346.559
364.2967, 2339.325
364.7788, 2331.515
365.2610, 2322.884
365.7431, 2308.915
366.2252, 2299.056
366.7073, 2306.138
367.1894, 2327.800
367.6715, 2346.780
368.1537, 2356.242
368.6358, 2359.294
369.1179, 2360.901
369.6000, 2360.527
370.0821, 2361.057
370.5642, 2365.665
371.0464, 2370.441
371.5285, 2369.577
372.0106, 2362.547
372.4927, 2354.769
372.9748, 2350.870
373.4569, 2350.987
373.9391, 2354.432
374.4212, 2367.579
374.9033, 2376.726
375.3854, 2374.348
375.8675, 2364.908
376.3496, 2356.023
376.8318, 2351.231
377.3139, 2349.678
377.7960, 2349.700
378.2781, 2353.482
378.7602, 2354.688
379.2423, 2354.610
379.7245, 2351.191
380.2066, 2339.349
380.6887, 2321.250
381.1708, 2307.251
381.6529, 2308.306
382.1350, 2322.911
382.6172, 2332.115
383.0993, 2333.194
383.5814, 2333.085
384.0635, 2332.663
384.5456, 2333.469
385.0277, 2338.793
385.5099, 2351.512
385.9920, 2363.814
386.4741, 2364.406
386.9562, 2354.002
387.4383, 2346.727
387.9204, 2346.790
388.4026, 2350.708
388.8847, 2356.868
389.3668, 2365.256
389.8489, 2366.755
390.3310, 2350.744
390.8131, 2330.194
391.2953, 2321.817
391.7774, 2326.344
392.2595, 2334.338
392.7416, 2341.131
393.2237, 2345.848
393.7058, 2343.408
394.1880, 2322.835
394.6701, 2309.353
395.1522, 2316.004
395.6343, 2331.203
396.1164, 2338.169
396.5985, 2332.131
397.0807, 2322.821
397.5628, 2324.832
398.0449, 2344.355
398.5270, 2353.167
399.0091, 2341.006
399.4912, 2329.559
399.9734, 2329.754
400.4555, 2338.087
400.9376, 2345.412
401.4197, 2346.225
401.9018, 2342.671
402.3839, 2341.491
402.8660, 2345.295
403.3481, 2344.618
403.8303, 2330.667
404.3124, 2315.619
404.7945, 2308.557
405.2766, 2310.630
405.7587, 2317.097
406.2408, 2329.232
406.7230, 2343.364
407.2051, 2344.406
407.6872, 2327.012
408.1693, 2309.768
408.6514, 2307.631
409.1335, 2315.867
409.6157, 2321.562
410.0978, 2319.909
410.5799, 2318.902
411.0620, 2327.171
411.5441, 2340.148
412.0262, 2344.541
412.5084, 2334.770
412.9905, 2319.649
413.4726, 2313.047
413.9547, 2319.626
414.4368, 2322.504
414.9189, 2316.781
415.4011, 2311.503
415.8832, 2315.022
416.3653, 2324.558
416.8474, 2329.937
417.3295, 2323.851
417.8116, 2309.602
418.2938, 2302.436
418.7759, 2309.530
419.2580, 2312.041
419.7401, 2302.452
420.2222, 2291.147
420.7043, 2287.518
421.1865, 2292.664
421.6686, 2299.611
422.1507, 2300.101
422.6328, 2295.299
423.1149, 2298.547
423.5970, 2315.877
424.0792, 2330.211
424.5613, 2327.834
425.0434, 2316.791
425.5255, 2310.401
426.0076, 2314.648
426.4897, 2319.474
426.9719, 2314.932
427.4540, 2303.651
427.9361, 2295.632
428.4182, 2294.300
428.9003, 2295.475
429.3824, 2293.462
429.8646, 2287.470
430.3467, 2283.760
430.8288, 2281.953
431.3109, 2283.223
431.7930, 2290.803
432.2751, 2302.359
432.7573, 2311.798
433.2394, 2315.768
433.7215, 2315.021
434.2036, 2311.581
434.6857, 2301.594
435.1678, 2295.312
435.6500, 2293.583
436.1321, 2294.961
436.6142, 2300.074
437.0963, 2307.841
437.5784, 2314.222
438.0605, 2314.013
438.5427, 2309.459
439.0248, 2315.848
439.5069, 2342.141
439.9890, 2358.765
440.4711, 2340.386
440.9532, 2310.988
441.4354, 2298.438
441.9175, 2310.693
442.3996, 2324.748
442.8817, 2320.222
443.3638, 2305.256
443.8459, 2302.669
444.3281, 2317.987
444.8102, 2336.490
445.2923, 2346.599
445.7744, 2347.673
446.2565, 2342.511
446.7386, 2318.926
447.2208, 2302.090
447.7029, 2309.854
448.1850, 2330.443
448.6671, 2343.028
449.1492, 2339.966
449.6313, 2329.099
450.1135, 2322.737
450.5956, 2322.156
451.0777, 2322.212
451.5598, 2325.995
452.0419, 2327.356
452.5240, 2321.491
453.0062, 2311.387
453.4883, 2302.344
453.9704, 2296.038
454.4525, 2295.048
454.9346, 2309.543
455.4167, 2343.740
455.8989, 2361.401
456.3810, 2340.740
456.8631, 2312.548
457.3452, 2308.536
457.8273, 2327.403
458.3094, 2343.109
458.7916, 2342.702
459.2737, 2335.449
459.7558, 2332.338
460.2379, 2333.340
460.7200, 2332.500
461.2021, 2325.256
461.6843, 2315.799
462.1664, 2316.641
462.6485, 2335.775
463.1306, 2351.239
463.6127, 2361.308
464.0948, 2366.897
464.5770, 2367.649
465.0591, 2364.289
465.5412, 2358.347
466.0233, 2349.796
466.5054, 2340.328
466.9875, 2341.978
467.4697, 2361.222
467.9518, 2380.596
468.4339, 2405.202
468.9160, 2422.732
469.3981, 2417.239
469.8802, 2387.076
470.3624, 2356.189
470.8445, 2344.243
471.3266, 2346.697
471.8087, 2350.768
472.2908, 2356.379
472.7729, 2359.866
473.2551, 2357.334
473.7372, 2351.145
474.2193, 2348.980
474.7014, 2351.402
475.1835, 2356.961
475.6656, 2367.679
476.1478, 2380.181
476.6299, 2391.893
477.1120, 2401.567
477.5941, 2403.787
478.0762, 2390.791
478.5583, 2361.783
479.0405, 2348.241
479.5226, 2366.562
480.0047, 2382.181
480.4868, 2386.911
480.9689, 2386.370
481.4510, 2387.233
481.9332, 2391.393
482.4153, 2396.116
482.8974, 2399.516
483.3795, 2401.378
483.8616, 2397.220
484.3438, 2382.168
484.8259, 2370.405
485.3080, 2375.892
485.7901, 2390.295
486.2722, 2398.793
486.7543, 2397.831
487.2365, 2392.475
487.7186, 2380.614
488.2007, 2367.503
488.6828, 2365.510
489.1649, 2377.668
489.6470, 2394.684
490.1292, 2407.984
490.6113, 2417.916
491.0934, 2419.624
491.5755, 2406.781
492.0576, 2394.259
492.5397, 2381.260
493.0219, 2373.090
493.5040, 2380.275
493.9861, 2404.929
494.4682, 2430.902
494.9503, 2434.635
495.4324, 2414.937
495.9146, 2403.729
496.3967, 2406.825
496.8788, 2410.749
497.3609, 2405.672
497.8430, 2397.224
498.3251, 2395.576
498.8073, 2405.958
499.2894, 2417.228
499.7715, 2421.300
500.2536, 2419.910
500.7357, 2416.667
501.2178, 2412.232
501.6999, 2407.949
502.1820, 2405.761
502.6642, 2405.807
503.1463, 2400.971
503.6284, 2379.532
504.1105, 2367.662
504.5926, 2380.700
505.0747, 2404.021
505.5569, 2419.388
506.0390, 2421.846
506.5211, 2420.043
507.0032, 2425.720
507.4853, 2439.196
507.9674, 2442.142
508.4496, 2427.729
508.9317, 2413.916
509.4138, 2409.567
509.8959, 2410.190
510.3780, 2409.793
510.8601, 2406.644
511.3423, 2404.375
511.8244, 2407.385
512.3065, 2412.738
512.7886, 2413.262
513.2708, 2407.780
513.7529, 2402.489
514.2350, 2403.245
514.7171, 2409.030
515.1992, 2408.582
515.6813, 2390.966
516.1635, 2381.786
516.6456, 2394.623
517.1277, 2412.879
517.6098, 2419.152
518.0919, 2411.367
518.5740, 2399.788
519.0562, 2393.617
519.5383, 2392.118
520.0204, 2389.638
520.5025, 2385.574
520.9846, 2381.961
521.4667, 2379.145
521.9489, 2377.403
522.4310, 2378.184
522.9131, 2382.056
523.3952, 2383.073
523.8773, 2374.765
524.3594, 2363.521
524.8416, 2359.364
525.3237, 2362.312
525.8058, 2364.287
526.2879, 2359.773
526.7700, 2352.059
527.2521, 2351.595
527.7343, 2366.387
528.2164, 2377.172
528.6985, 2383.450
529.1806, 2386.256
529.6627, 2385.379
530.1448, 2381.571
530.6270, 2376.290
531.1091, 2369.877
531.5912, 2363.619
532.0733, 2360.650
532.5554, 2361.338
533.0375, 2362.776
533.5197, 2364.250
534.0018, 2366.296
534.4839, 2371.437
534.9660, 2378.851
535.4481, 2380.382
535.9302, 2372.531
536.4124, 2359.218
536.8945, 2336.977
537.3766, 2311.796
537.8587, 2301.039
538.3408, 2311.573
538.8229, 2329.192
539.3051, 2331.674
539.7872, 2312.795
540.2693, 2305.493
540.7514, 2326.600
541.2335, 2340.937
541.7156, 2333.477
542.1978, 2313.683
542.6799, 2294.715
543.1620, 2280.723
543.6441, 2271.616
544.1262, 2269.756
544.6083, 2273.333
545.0905, 2271.625
545.5726, 2261.313
546.0547, 2255.448
546.5368, 2267.114
547.0189, 2290.335
547.5010, 2299.442
547.9832, 2283.213
548.4653, 2270.113
548.9474, 2272.526
549.4295, 2278.938
549.9116, 2275.080
550.3937, 2261.282
550.8758, 2250.451
551.3579, 2254.074
551.8400, 2267.721
552.3221, 2270.383
552.8043, 2256.718
553.2864, 2244.685
553.7685, 2240.096
554.2506, 2237.128
554.7327, 2230.554
555.2148, 2221.029
555.6970, 2215.259
556.1791, 2221.056
556.6612, 2228.876
557.1433, 2224.314
557.6254, 2210.974
558.1075, 2208.640
558.5897, 2226.939
559.0718, 2247.675
559.5539, 2241.585
560.0360, 2196.399
560.5181, 2174.528
561.0002, 2192.321
561.4824, 2211.995
561.9645, 2223.482
562.4466, 2226.541
562.9287, 2219.716
563.4108, 2202.770
563.8929, 2184.961
564.3751, 2178.285
564.8572, 2180.921
565.3393, 2180.139
565.8214, 2174.373
566.3035, 2167.810
566.7856, 2161.989
567.2678, 2157.473
567.7499, 2155.070
568.2320, 2154.028
568.7141, 2156.740
569.1962, 2171.768
569.6783, 2185.431
570.1605, 2180.692
570.6426, 2160.609
571.1247, 2142.509
571.6068, 2137.480
572.0889, 2142.952
572.5710, 2154.115
573.0532, 2176.798
573.5353, 2186.966
574.0174, 2172.557
574.4995, 2153.201
574.9816, 2137.900
575.4637, 2127.151
575.9459, 2121.154
576.4280, 2121.921
576.9101, 2124.912
577.3922, 2126.365
577.8743, 2127.055
578.3564, 2130.250
578.8386, 2136.772
579.3207, 2140.494
579.8028, 2134.307
580.2849, 2118.437
580.7670, 2108.096
581.2491, 2101.968
581.7313, 2103.644
582.2134, 2122.603
582.6955, 2143.713
583.1776, 2152.677
583.6597, 2148.441
584.1418, 2140.662
584.6240, 2136.915
585.1061, 2134.145
585.5882, 2122.689
586.0703, 2102.748
586.5524, 2092.785
587.0345, 2102.848
587.5167, 2119.797
587.9988, 2125.404
588.4809, 2117.685
588.9630, 2107.527
589.4451, 2090.212
589.9272, 2075.754
590.4094, 2070.033
590.8915, 2069.771
591.3736, 2069.998
591.8557, 2069.013
592.3378, 2067.582
592.8199, 2065.414
593.3021, 2062.881
593.7842, 2067.101
594.2663, 2082.428
594.7484, 2091.490
595.2305, 2082.997
595.7126, 2064.984
596.1948, 2050.125
596.6769, 2038.088
597.1590, 2031.493
597.6411, 2032.035
598.1232, 2037.528
598.6053, 2050.179
599.0875, 2066.223
599.5696, 2075.677
600.0517, 2073.636
600.5338, 2065.458
601.0159, 2060.397
601.4980, 2058.950
601.9802, 2058.038
602.4623, 2056.113
602.9444, 2056.892
603.4265, 2068.275
603.9086, 2081.462
604.3907, 2079.814
604.8729, 2055.152
605.3550, 2034.098
605.8371, 2035.393
606.3192, 2047.333
606.8013, 2055.766
607.2834, 2058.687
607.7656, 2055.195
608.2477, 2043.850
608.7298, 2028.752
609.2119, 2021.516
609.6940, 2026.261
610.1761, 2029.438
610.6583, 2030.484
611.1404, 2029.900
611.6225, 2027.580
612.1046, 2023.801
612.5867, 2018.861
613.0688, 2012.394
613.5510, 2006.114
614.0331, 1997.673
614.5152, 1991.235
614.9973, 2000.303
615.4794, 2025.960
615.9615, 2048.679
616.4437, 2054.116
616.9258, 2045.707
617.4079, 2037.333
617.8900, 2029.396
618.3721, 2020.778
618.8542, 2006.738
619.3364, 1996.302
619.8185, 1998.304
620.3006, 2008.236
620.7827, 2014.198
621.2648, 2009.821
621.7469, 2002.173
622.2291, 1998.694
622.7112, 1998.636
623.1933, 1999.256
623.6754, 2000.055
624.1575, 2002.585
624.6396, 2009.548
625.1218, 2018.952
625.6039, 2019.427
626.0860, 1999.596
626.5681, 1986.205
627.0502, 1982.541
627.5323, 1983.940
628.0145, 1989.140
628.4966, 1996.578
628.9787, 2003.526
629.4608, 2009.117
629.9429, 2012.333
630.4250, 2011.218
630.9072, 2006.328
631.3893, 1999.499
631.8714, 1990.268
632.3535, 1984.505
632.8356, 1988.701
633.3177, 2000.440
633.7999, 2003.973
634.2820, 1990.634
634.7641, 1981.516
635.2462, 1980.406
635.7283, 1982.507
636.2104, 1986.450
636.6926, 1990.468
637.1747, 1990.477
637.6568, 1983.009
638.1389, 1974.132
638.6210, 1975.112
639.1031, 1983.870
639.5853, 1984.353
640.0674, 1972.070
640.5495, 1960.518
641.0316, 1960.753
641.5137, 1970.628
641.9958, 1977.493
642.4780, 1983.308
642.9601, 1983.620
643.4422, 1971.527
643.9243, 1959.204
644.4064, 1956.865
644.8885, 1962.352
645.3707, 1967.321
645.8528, 1967.634
646.3349, 1964.949
646.8170, 1959.261
647.2991, 1951.846
647.7813, 1952.210
648.2634, 1963.275
648.7455, 1972.801
649.2276, 1970.769
649.7097, 1960.420
650.1918, 1955.735
650.6740, 1963.063
651.1561, 1966.472
651.6382, 1961.813
652.1203, 1955.962
652.6024, 1953.021
653.0845, 1952.733
653.5667, 1953.822
654.0488, 1956.110
654.5309, 1957.492
655.0130, 1954.467
655.4951, 1948.176
655.9772, 1943.285
656.4594, 1940.343
656.9415, 1938.633
657.4236, 1938.064
657.9057, 1938.105
658.3878, 1937.402
658.8699, 1939.988
659.3521, 1934.290
659.8342, 1904.904
660.3163, 1882.532
660.7984, 1890.981
661.2805, 1916.839
661.7626, 1934.199
662.2448, 1933.520
662.7269, 1924.960
663.2090, 1915.741
663.6911, 1906.659
664.1732, 1899.007
664.6553, 1892.993
665.1375, 1891.346
665.6196, 1896.720
666.1017, 1904.592
666.5838, 1905.193
667.0659, 1894.645
667.5480, 1887.508
668.0302, 1883.884
668.5123, 1883.297
668.9944, 1887.670
669.4765, 1894.083
669.9586, 1899.359
670.4407, 1902.735
670.9229, 1902.979
671.4050, 1896.574
671.8871, 1887.852
672.3692, 1884.882
672.8513, 1886.684
673.3334, 1884.937
673.8156, 1875.800
674.2977, 1865.789
674.7798, 1865.148
675.2619, 1875.688
675.7440, 1880.736
676.2261, 1873.916
676.7083, 1870.477
677.1904, 1878.782
677.6725, 1889.199
678.1546, 1891.883
678.6367, 1886.195
679.1188, 1879.153
679.6010, 1873.476
680.0831, 1868.386
680.5652, 1861.341
681.0473, 1854.542
681.5294, 1854.769
682.0115, 1863.397
682.4937, 1872.617
682.9758, 1874.037
683.4579, 1868.891
683.9400, 1867.343
684.4221, 1869.903
684.9042, 1875.040
685.3864, 1887.468
685.8685, 1897.469
686.3506, 1895.077
686.8327, 1882.984
687.3148, 1874.702
687.7969, 1872.868
688.2791, 1875.917
688.7612, 1889.638
689.2433, 1904.211
689.7254, 1903.777
690.2075, 1889.852
690.6896, 1880.149
691.1718, 1887.583
691.6539, 1902.792
692.1360, 1901.136
692.6181, 1880.965
693.1002, 1874.752
693.5823, 1890.965
694.0645, 1911.326
694.5466, 1924.781
695.0287, 1932.519
695.5108, 1938.995
695.9929, 1945.306
696.4750, 1948.117
696.9572, 1945.446
697.4393, 1940.439
697.9214, 1932.597
698.4035, 1924.667
698.8856, 1922.481
699.3677, 1928.442
699.8499, 1935.309
700.3320, 1933.392
700.8141, 1926.014
701.2962, 1925.246
701.7783, 1931.691
702.2604, 1936.323
702.7426, 1934.619
703.2247, 1930.299
703.7068, 1929.666
704.1889, 1934.212
704.6710, 1935.173
705.1531, 1924.807
705.6353, 1920.344
706.1174, 1933.006
706.5995, 1949.420
707.0816, 1955.680
707.5637, 1950.367
708.0458, 1941.547
708.5280, 1930.922
709.0101, 1921.131
709.4922, 1913.470
709.9743, 1909.088
710.4564, 1912.837
710.9385, 1925.248
711.4207, 1938.041
711.9028, 1944.300
712.3849, 1944.202
712.8670, 1936.599
713.3491, 1915.086
713.8312, 1906.999
714.3134, 1929.555
714.7955, 1951.487
715.2776, 1945.035
715.7597, 1920.795
716.2418, 1908.364
716.7239, 1919.356
717.2061, 1927.406
717.6882, 1918.715
718.1703, 1906.320
718.6524, 1901.196
719.1345, 1903.262
719.6166, 1909.765
720.0988, 1919.627
720.5809, 1928.586
721.0630, 1929.456
721.5451, 1923.781
722.0272, 1921.529
722.5093, 1923.590
722.9915, 1924.922
723.4736, 1922.369
723.9557, 1919.318
724.4378, 1921.762
724.9199, 1931.273
725.4020, 1939.128
725.8842, 1947.177
726.3663, 1951.438
726.8484, 1948.505
727.3305, 1942.606
727.8126, 1935.857
728.2947, 1929.750
728.7769, 1929.802
729.2590, 1943.035
729.7411, 1960.014
730.2232, 1973.888
730.7053, 1983.283
731.1874, 1982.157
731.6696, 1970.477
732.1517, 1960.023
732.6338, 1960.329
733.1159, 1968.741
733.5980, 1976.786
734.0801, 1985.210
734.5623, 1990.133
735.0444, 1989.941
735.5265, 1987.939
736.0086, 1984.098
736.4907, 1980.403
736.9728, 1981.899
737.4550, 1991.933
737.9371, 1998.728
738.4192, 1996.115
738.9013, 1992.654
739.3834, 1994.572
739.8655, 1999.843
740.3477, 2003.702
740.8298, 2004.740
741.3119, 2006.177
741.7940, 2013.020
742.2761, 2022.017
742.7582, 2024.083
743.2404, 2019.842
743.7225, 2017.011
744.2046, 2018.241
744.6867, 2020.628
745.1688, 2021.564
745.6509, 2020.896
746.1331, 2015.010
746.6152, 1997.427
747.0973, 1985.884
747.5793, 1982.602
748.0615, 1986.453
748.5436, 2005.860
749.0257, 2032.029
749.5078, 2038.168
749.9899, 2007.053
750.4720, 1977.500
750.9542, 1971.021
751.4363, 1974.019
751.9184, 1975.322
752.4005, 1972.839
752.8826, 1963.574
753.3647, 1946.133
753.8469, 1930.439
754.3290, 1930.479
754.8111, 1944.313
755.2932, 1964.001
755.7753, 1990.966
756.2574, 2001.724
756.7396, 1981.982
757.2217, 1954.381
757.7038, 1951.283
758.1859, 1976.043
758.6680, 1979.080
759.1501, 1930.542
759.6323, 1898.925
760.1144, 1909.891
760.5965, 1928.848
761.0786, 1926.692
761.5607, 1907.186
762.0428, 1893.415
762.5250, 1897.128
763.0071, 1901.737
763.4892, 1893.894
763.9713, 1881.788
764.4534, 1875.855
764.9355, 1876.504
765.4177, 1880.542
765.8998, 1886.468
766.3819, 1892.259
766.8640, 1895.100
767.3461, 1894.999
767.8282, 1891.584
768.3104, 1884.374
768.7925, 1877.135
769.2746, 1871.450
769.7567, 1866.563
770.2388, 1862.435
770.7209, 1859.788
771.2031, 1850.225
771.6852, 1825.084
772.1673, 1804.709
772.6494, 1791.428
773.1315, 1785.217
773.6136, 1789.975
774.0958, 1802.139
774.5779, 1809.689
775.0600, 1807.292
775.5421, 1801.356
776.0242, 1793.921
776.5063, 1786.774
776.9885, 1782.036
777.4706, 1779.878
777.9527, 1780.734
778.4348, 1784.854
778.9169, 1788.831
779.3990, 1788.747
779.8812, 1784.398
780.3633, 1771.653
780.8454, 1748.984
781.3275, 1731.736
781.8096, 1724.754
782.2917, 1728.205
782.7739, 1747.070
783.2560, 1782.093
783.7381, 1790.750
784.2202, 1740.401
784.7023, 1709.787
785.1844, 1724.823
785.6666, 1747.124
786.1487, 1749.973
786.6308, 1738.178
787.1129, 1729.801
787.5950, 1731.193
788.0771, 1732.368
788.5593, 1724.492
789.0414, 1716.731
789.5235, 1721.530
790.0056, 1734.200
790.4877, 1741.836
790.9698, 1739.705
791.4520, 1732.291
791.9341, 1722.636
792.4162, 1712.059
792.8983, 1703.703
793.3804, 1697.733
793.8625, 1700.003
794.3447, 1713.915
794.8268, 1724.198
795.3089, 1714.048
795.7910, 1688.188
796.2731, 1679.373
796.7552, 1699.847
797.2374, 1709.927
797.7195, 1701.690
798.2016, 1687.420
798.6837, 1668.952
799.1658, 1650.773
799.6479, 1641.390
800.1301, 1643.044
800.6122, 1647.595
801.0943, 1659.046
801.5764, 1666.364
802.0585, 1657.412
802.5406, 1642.447
803.0228, 1637.153
803.5049, 1643.838
803.9870, 1651.795
804.4691, 1653.937
804.9512, 1652.787
805.4333, 1652.071
805.9155, 1650.907
806.3976, 1646.434
806.8797, 1638.366
807.3618, 1628.643
807.8439, 1618.295
808.3260, 1608.145
808.8082, 1598.647
809.2903, 1588.960
809.7724, 1591.374
810.2545, 1613.451
810.7366, 1624.096
811.2188, 1601.090
811.7009, 1570.432
812.1830, 1571.885
812.6651, 1610.623
813.1472, 1628.800
813.6293, 1607.011
814.1115, 1591.426
814.5936, 1595.750
815.0757, 1605.842
815.5578, 1614.057
816.0399, 1618.132
816.5220, 1613.881
817.0042, 1596.456
817.4863, 1580.836
817.9684, 1578.548
818.4505, 1580.275
818.9326, 1576.329
819.4147, 1567.771
819.8969, 1557.179
820.3790, 1546.128
820.8611, 1541.150
821.3432, 1553.266
821.8253, 1574.053
822.3074, 1580.657
822.7896, 1574.757
823.2717, 1568.805
823.7538, 1565.644
824.2359, 1563.638
824.7180, 1561.775
825.2001, 1559.618
825.6823, 1555.404
826.1644, 1548.215
826.6465, 1542.431
827.1286, 1538.330
827.6107, 1535.449
828.0928, 1532.914
828.5750, 1531.922
829.0571, 1535.858
829.5392, 1545.830
830.0213, 1550.056
830.5034, 1542.764
830.9855, 1535.941
831.4677, 1534.637
831.9498, 1534.326
832.4319, 1530.035
832.9140, 1522.784
833.3961, 1517.600
833.8782, 1516.737
834.3604, 1517.301
834.8425, 1517.941
835.3246, 1518.528
835.8067, 1519.324
836.2888, 1519.891
836.7709, 1518.963
837.2531, 1516.174
837.7352, 1512.931
838.2173, 1511.668
838.6994, 1510.433
839.1815, 1501.974
839.6636, 1487.819
840.1458, 1480.755
840.6279, 1483.904
841.1100, 1484.533
841.5921, 1471.195
842.0742, 1452.598
842.5563, 1455.901
843.0385, 1488.301
843.5206, 1508.068
844.0027, 1511.317
844.4848, 1507.360
844.9669, 1495.949
845.4490, 1483.142
845.9312, 1478.820
846.4133, 1484.181
846.8954, 1483.028
847.3775, 1469.406
847.8596, 1457.438
848.3417, 1447.443
848.8239, 1442.116
849.3060, 1448.455
849.7881, 1460.418
850.2702, 1461.312
850.7523, 1442.459
851.2344, 1429.497
851.7166, 1442.969
852.1987, 1459.682
852.6808, 1455.744
853.1629, 1442.206
853.6450, 1442.505
854.1271, 1459.905
854.6093, 1475.414
855.0914, 1474.834
855.5735, 1464.780
856.0556, 1451.616
856.5377, 1437.184
857.0198, 1425.600
857.5020, 1417.681
857.9841, 1414.190
858.4662, 1415.424
858.9483, 1422.605
859.4304, 1442.224
859.9125, 1472.717
860.3947, 1483.068
860.8768, 1471.083
861.3589, 1458.564
861.8410, 1452.278
862.3231, 1445.935
862.8052, 1431.922
863.2874, 1412.908
863.7695, 1404.964
864.2516, 1414.395
864.7337, 1420.598
865.2158, 1422.351
865.6979, 1420.923
866.1801, 1412.238
866.6622, 1403.002
867.1443, 1404.941
867.6264, 1420.111
868.1085, 1428.605
868.5906, 1423.789
869.0728, 1417.492
869.5549, 1412.296
870.0370, 1408.190
870.5191, 1403.318
871.0012, 1399.472
871.4833, 1403.575
871.9655, 1422.114
872.4476, 1433.402
872.9297, 1415.451
873.4118, 1392.808
873.8939, 1390.193
874.3760, 1400.480
874.8582, 1408.488
875.3403, 1410.099
875.8224, 1408.468
876.3045, 1404.969
876.7866, 1400.974
877.2687, 1398.661
877.7509, 1397.413
878.2330, 1395.055
878.7151, 1391.776
879.1972, 1390.615
879.6793, 1393.180
880.1614, 1397.336
880.6436, 1400.445
881.1257, 1402.420
881.6078, 1402.648
882.0899, 1401.117
882.5720, 1398.058
883.0541, 1393.732
883.5363, 1385.588
884.0184, 1368.773
884.5005, 1349.557
884.9826, 1352.129
885.4647, 1386.641
885.9468, 1405.641
886.4290, 1403.901
886.9111, 1394.358
887.3932, 1375.417
887.8753, 1358.039
888.3574, 1359.211
888.8395, 1379.725
889.3217, 1389.665
889.8038, 1374.294
890.2859, 1370.050
890.7680, 1395.176
891.2501, 1418.352
891.7322, 1419.396
892.2144, 1405.541
892.6965, 1390.417
893.1786, 1375.156
893.6607, 1363.844
894.1428, 1356.238
894.6249, 1354.514
895.1071, 1365.649
895.5892, 1379.165
896.0713, 1382.777
896.5534, 1377.428
897.0355, 1372.367
897.5176, 1371.201
897.9998, 1371.884
898.4819, 1374.603
898.9640, 1377.125
899.4461, 1378.526
899.9282, 1377.287
900.4103, 1366.473
900.8925, 1346.855
901.3746, 1336.923
901.8567, 1356.133
902.3388, 1383.819
902.8209, 1388.617
903.3030, 1378.080
903.7852, 1370.447
904.2673, 1367.319
904.7494, 1362.182
905.2315, 1351.979
905.7136, 1343.802
906.1957, 1348.723
906.6779, 1362.934
907.1600, 1369.996
907.6421, 1370.326
908.1242, 1371.840
908.6063, 1376.489
909.0884, 1376.500
909.5706, 1365.573
910.0527, 1349.067
910.5348, 1338.017
911.0169, 1332.242
911.4990, 1335.926
911.9811, 1352.671
912.4633, 1364.142
912.9454, 1364.107
913.4275, 1357.609
913.9096, 1347.984
914.3917, 1336.459
914.8738, 1330.449
915.3560, 1330.885
915.8381, 1334.776
916.3202, 1344.383
916.8023, 1353.922
917.2844, 1363.903
917.7665, 1370.425
918.2487, 1365.194
918.7308, 1347.542
919.2129, 1339.117
919.6950, 1346.820
920.1771, 1354.192
920.6592, 1362.855
921.1414, 1366.652
921.6235, 1356.448
922.1056, 1340.741
922.5877, 1335.756
923.0698, 1344.888
923.5519, 1352.643
924.0341, 1360.055
924.5162, 1359.385
924.9983, 1337.844
925.4804, 1314.324
925.9625, 1307.364
926.4446, 1314.306
926.9268, 1323.099
927.4089, 1331.513
927.8910, 1335.095
928.3731, 1327.532
928.8552, 1318.295
929.3373, 1313.260
929.8195, 1312.193
930.3016, 1315.976
930.7837, 1323.203
931.2658, 1327.880
931.7479, 1325.483
932.2300, 1323.927
932.7122, 1334.895
933.1943, 1347.272
933.6764, 1344.584
934.1585, 1331.462
934.6406, 1320.180
935.1227, 1314.319
935.6049, 1311.639
936.0870, 1310.537
936.5691, 1311.497
937.0512, 1319.454
937.5333, 1328.497
938.0154, 1321.702
938.4976, 1302.123
938.9797, 1289.329
939.4618, 1290.940
939.9439, 1299.611
940.4260, 1310.908
940.9081, 1320.479
941.3903, 1313.057
941.8724, 1293.673
942.3545, 1286.707
942.8366, 1294.879
943.3187, 1305.943
943.8008, 1313.580
944.2830, 1318.289
944.7651, 1320.959
945.2471, 1321.251
945.7292, 1315.491
946.2114, 1303.957
946.6935, 1297.185
947.1756, 1297.676
947.6577, 1297.232
948.1398, 1289.407
948.6219, 1280.761
949.1041, 1286.829
949.5862, 1308.131
950.0683, 1319.109
950.5504, 1319.419
951.0325, 1309.978
951.5146, 1288.087
951.9968, 1267.860
952.4789, 1260.872
952.9610, 1264.255
953.4431, 1270.040
953.9252, 1278.549
954.4073, 1288.918
954.8895, 1304.007
955.3716, 1310.901
955.8537, 1301.839
956.3358, 1290.508
956.8179, 1292.248
957.3000, 1302.752
957.7822, 1298.542
958.2643, 1267.203
958.7464, 1256.911
959.2285, 1283.124
959.7106, 1302.981
960.1927, 1297.753
960.6749, 1281.342
961.1570, 1267.183
961.6391, 1255.556
962.1212, 1249.499
962.6033, 1249.885
963.0854, 1254.375
963.5676, 1267.435
964.0497, 1278.549
964.5318, 1281.346
965.0139, 1280.995
965.4960, 1285.573
965.9781, 1295.150
966.4603, 1297.759
966.9424, 1285.912
967.4245, 1278.334
967.9066, 1282.074
968.3887, 1284.102
968.8708, 1276.076
969.3530, 1263.295
969.8351, 1251.870
970.3172, 1241.778
970.7993, 1239.557
971.2814, 1249.989
971.7635, 1262.322
972.2457, 1281.704
972.7278, 1295.155
973.2099, 1287.871
973.6920, 1272.159
974.1741, 1272.342
974.6563, 1292.530
975.1384, 1299.400
975.6205, 1273.072
976.1026, 1252.079
976.5847, 1252.084
977.0668, 1256.340
977.5490, 1249.261
978.0311, 1238.563
978.5132, 1243.202
978.9953, 1268.059
979.4774, 1284.237
979.9595, 1281.895
980.4417, 1273.269
980.9238, 1254.862
981.4059, 1239.203
981.8880, 1238.115
982.3701, 1247.335
982.8522, 1257.745
983.3344, 1268.440
983.8165, 1272.666
984.2986, 1260.831
984.7807, 1251.359
985.2628, 1255.904
985.7449, 1263.692
986.2271, 1265.901
986.7092, 1262.723
987.1913, 1256.038
987.6734, 1245.483
988.1555, 1237.676
988.6376, 1234.554
989.1198, 1235.418
989.6019, 1245.516
990.0840, 1254.969
990.5661, 1251.615
991.0482, 1239.563
991.5303, 1231.844
992.0125, 1232.091
992.4946, 1234.071
992.9767, 1237.748
993.4588, 1239.423
993.9409, 1233.981
994.4230, 1227.810
994.9052, 1228.553
995.3873, 1234.443
995.8694, 1239.065
996.3515, 1240.805
996.8336, 1240.274
997.3157, 1234.702
997.7979, 1230.469
998.2800, 1233.545
998.7621, 1238.309
999.2442, 1237.367
999.7263, 1232.709
1000.208, 1232.254
1000.691, 1238.913
1001.173, 1245.339
1001.655, 1250.330
1002.137, 1251.556
1002.619, 1244.727
1003.101, 1235.584
1003.583, 1227.008
1004.065, 1221.981
1004.547, 1229.170
1005.030, 1254.119
1005.512, 1269.634
1005.994, 1256.229
1006.476, 1238.388
1006.958, 1229.102
1007.440, 1224.293
1007.922, 1220.330
1008.404, 1216.336
1008.887, 1211.001
1009.369, 1203.239
1009.851, 1199.510
1010.333, 1201.566
1010.815, 1209.645
1011.297, 1234.908
1011.779, 1257.498
1012.261, 1251.799
1012.743, 1226.911
1013.226, 1210.914
1013.708, 1212.098
1014.190, 1213.711
1014.672, 1203.607
1015.154, 1198.922
1015.636, 1217.639
1016.118, 1238.312
1016.600, 1237.931
1017.083, 1222.535
1017.565, 1210.102
1018.047, 1204.450
1018.529, 1202.998
1019.011, 1207.372
1019.493, 1212.517
1019.975, 1216.422
1020.457, 1219.897
1020.939, 1224.051
1021.422, 1228.266
1021.904, 1231.288
1022.386, 1232.931
1022.868, 1232.753
1023.350, 1231.100
1023.832, 1226.954
1024.314, 1216.270
1024.796, 1206.425
1025.279, 1201.094
1025.761, 1201.476
1026.243, 1211.538
1026.725, 1232.745
1027.207, 1246.502
1027.689, 1249.128
1028.171, 1243.361
1028.653, 1219.692
1029.135, 1198.268
1029.618, 1195.005
1030.100, 1202.054
1030.582, 1206.388
1031.064, 1206.761
1031.546, 1204.853
1032.028, 1194.381
1032.510, 1191.168
1032.992, 1206.929
1033.474, 1221.191
1033.957, 1221.059
1034.439, 1213.134
1034.921, 1206.156
1035.403, 1200.555
1035.885, 1197.059
1036.367, 1195.450
1036.849, 1196.372
1037.331, 1204.823
1037.814, 1210.040
1038.296, 1204.001
1038.778, 1194.416
1039.260, 1189.995
1039.742, 1190.497
1040.224, 1192.653
1040.706, 1200.362
1041.188, 1202.265
1041.671, 1194.697
1042.153, 1186.299
1042.635, 1177.352
1043.117, 1172.465
1043.599, 1178.953
1044.081, 1193.826
1044.563, 1200.111
1045.045, 1193.424
1045.527, 1189.863
1046.010, 1190.470
1046.492, 1191.850
1046.974, 1192.137
1047.456, 1194.560
1047.938, 1203.160
1048.420, 1215.262
1048.902, 1222.903
1049.384, 1226.564
1049.866, 1221.812
1050.349, 1205.781
1050.831, 1193.214
1051.313, 1188.771
1051.795, 1184.729
1052.277, 1173.995
1052.759, 1162.840
1053.241, 1166.601
1053.723, 1185.446
1054.205, 1196.792
1054.688, 1200.402
1055.170, 1196.861
1055.652, 1185.096
1056.134, 1180.948
1056.616, 1195.924
1057.098, 1212.821
1057.580, 1201.806
1058.062, 1169.900
1058.545, 1156.655
1059.027, 1160.793
1059.509, 1167.001
1059.991, 1172.961
1060.473, 1179.291
1060.955, 1186.359
1061.437, 1191.653
1061.919, 1191.647
1062.401, 1188.616
1062.884, 1189.447
1063.366, 1192.094
1063.848, 1186.393
1064.330, 1174.140
1064.812, 1170.718
1065.294, 1180.528
1065.776, 1190.332
1066.258, 1189.247
1066.740, 1181.609
1067.223, 1169.696
1067.705, 1158.069
1068.187, 1157.435
1068.669, 1164.430
1069.151, 1168.338
1069.633, 1167.236
1070.115, 1167.570
1070.597, 1174.638
1071.080, 1178.205
1071.562, 1161.757
1072.044, 1142.842
1072.526, 1143.320
1073.008, 1154.598
1073.490, 1163.728
1073.972, 1168.040
1074.454, 1167.276
1074.937, 1160.548
1075.419, 1154.890
1075.901, 1153.960
1076.383, 1156.061
1076.865, 1165.135
1077.347, 1172.546
1077.829, 1167.823
1078.311, 1154.386
1078.793, 1139.551
1079.276, 1124.395
1079.758, 1119.207
1080.240, 1137.248
1080.722, 1151.884
1081.204, 1151.900
1081.686, 1148.015
1082.168, 1146.197
1082.650, 1145.744
1083.132, 1143.394
1083.615, 1139.326
1084.097, 1143.128
1084.579, 1168.988
1085.061, 1181.333
1085.543, 1168.543
1086.025, 1154.919
1086.507, 1148.418
1086.989, 1145.558
1087.472, 1143.468
1087.954, 1142.041
1088.436, 1140.767
1088.918, 1139.362
1089.400, 1139.044
1089.882, 1139.748
1090.364, 1142.128
1090.846, 1147.454
1091.328, 1150.893
1091.811, 1147.757
1092.293, 1143.076
1092.775, 1149.434
1093.257, 1165.776
1093.739, 1159.913
1094.221, 1130.531
1094.703, 1118.571
1095.185, 1131.050
1095.667, 1145.259
1096.150, 1150.152
1096.632, 1149.631
1097.114, 1147.749
1097.596, 1144.913
1098.078, 1141.591
1098.560, 1138.288
1099.042, 1137.810
1099.524, 1139.544
1100.007, 1138.796
1100.489, 1134.565
1100.971, 1131.600
1101.453, 1133.698
1101.935, 1137.632
1102.417, 1140.903
1102.899, 1142.348
1103.381, 1138.920
1103.864, 1132.851
1104.346, 1127.637
1104.828, 1124.377
1105.310, 1124.186
1105.792, 1127.656
1106.274, 1132.889
1106.756, 1143.651
1107.238, 1149.883
1107.720, 1138.091
1108.203, 1123.605
1108.685, 1125.385
1109.167, 1135.919
1109.649, 1135.594
1110.131, 1121.093
1110.613, 1111.787
1111.095, 1120.607
1111.577, 1123.628
1112.059, 1105.413
1112.542, 1091.512
1113.024, 1101.335
1113.506, 1118.705
1113.988, 1125.080
1114.470, 1121.436
1114.952, 1113.278
1115.434, 1095.499
1115.916, 1087.361
1116.399, 1093.572
1116.881, 1098.532
1117.363, 1097.368
1117.845, 1096.407
1118.327, 1101.531
1118.809, 1107.069
1119.291, 1099.644
1119.773, 1080.508
1120.255, 1080.751
1120.738, 1101.223
1121.220, 1110.606
1121.702, 1104.573
1122.184, 1097.616
1122.666, 1096.037
1123.148, 1098.974
1123.630, 1107.112
1124.112, 1115.671
1124.594, 1111.479
1125.077, 1100.306
1125.559, 1098.694
1126.041, 1104.992
1126.523, 1111.227
1127.005, 1115.013
1127.487, 1116.070
1127.969, 1114.299
1128.451, 1109.361
1128.934, 1095.450
1129.416, 1083.819
1129.898, 1089.173
1130.380, 1101.033
1130.862, 1106.816
1131.344, 1106.668
1131.826, 1104.963
1132.308, 1102.759
1132.791, 1100.284
1133.273, 1098.036
1133.755, 1094.893
1134.237, 1086.137
1134.719, 1081.318
1135.201, 1089.763
1135.683, 1102.679
1136.165, 1111.423
1136.647, 1115.001
1137.130, 1109.296
1137.612, 1085.791
1138.094, 1077.929
1138.576, 1095.068
1139.058, 1105.798
1139.540, 1101.297
1140.022, 1092.493
1140.504, 1084.957
1140.986, 1080.954
1141.469, 1085.344
1141.951, 1096.538
1142.433, 1102.391
1142.915, 1103.027
1143.397, 1101.821
1143.879, 1099.104
1144.361, 1093.275
1144.843, 1083.961
1145.326, 1076.649
1145.808, 1076.149
1146.290, 1078.686
1146.772, 1077.662
1147.254, 1076.297
1147.736, 1083.343
1148.218, 1093.599
1148.700, 1094.433
1149.182, 1086.687
1149.665, 1081.127
1150.147, 1081.833
1150.629, 1081.814
1151.111, 1072.408
1151.593, 1066.703
1152.075, 1078.430
1152.557, 1091.012
1153.039, 1089.257
1153.521, 1080.131
1154.004, 1074.113
1154.486, 1072.199
1154.968, 1072.798
1155.450, 1080.399
1155.932, 1080.521
1156.414, 1063.931
1156.896, 1055.194
1157.378, 1065.958
1157.861, 1076.708
1158.343, 1073.481
1158.825, 1062.079
1159.307, 1051.412
1159.789, 1042.320
1160.271, 1051.381
1160.753, 1079.345
1161.235, 1088.873
1161.718, 1076.339
1162.200, 1069.725
1162.682, 1078.808
1163.164, 1082.549
1163.646, 1061.330
1164.128, 1034.839
1164.610, 1036.926
1165.092, 1052.914
1165.574, 1055.100
1166.057, 1049.186
1166.539, 1049.487
1167.021, 1055.953
1167.503, 1060.460
1167.985, 1060.277
1168.467, 1058.932
1168.949, 1058.031
1169.431, 1057.076
1169.913, 1055.475
1170.396, 1054.088
1170.878, 1053.886
1171.360, 1054.017
1171.842, 1052.698
1172.324, 1050.505
1172.806, 1051.295
1173.288, 1057.586
1173.770, 1059.362
1174.253, 1055.717
1174.735, 1048.863
1175.217, 1036.341
1175.699, 1028.420
1176.181, 1031.517
1176.663, 1040.081
1177.145, 1046.997
1177.627, 1052.906
1178.109, 1062.277
1178.592, 1073.669
1179.074, 1074.633
1179.556, 1066.017
1180.038, 1057.162
1180.520, 1050.786
1181.002, 1047.876
1181.484, 1049.141
1181.966, 1051.562
1182.448, 1054.181
1182.931, 1054.226
1183.413, 1045.528
1183.895, 1035.033
1184.377, 1030.017
1184.859, 1030.569
1185.341, 1037.234
1185.823, 1048.709
1186.305, 1055.577
1186.788, 1053.133
1187.270, 1050.503
1187.752, 1047.559
1188.234, 1047.342
1188.716, 1054.031
1189.198, 1059.942
1189.680, 1060.595
1190.162, 1056.410
1190.645, 1047.095
1191.127, 1033.262
1191.609, 1023.808
1192.091, 1018.727
1192.573, 1019.972
1193.055, 1027.693
1193.537, 1032.902
1194.019, 1032.825
1194.501, 1031.403
1194.984, 1031.570
1195.466, 1030.872
1195.948, 1021.383
1196.430, 1012.532
1196.912, 1027.693
1197.394, 1049.229
1197.876, 1039.477
1198.358, 1011.877
1198.840, 1011.019
1199.323, 1043.322
1199.805, 1065.749
1200.287, 1054.427
1200.769, 1046.533
1201.251, 1060.738
1201.733, 1072.452
1202.215, 1069.243
1202.697, 1060.704
1203.180, 1054.141
1203.662, 1048.236
1204.144, 1039.812
1204.626, 1029.034
1205.108, 1023.147
1205.590, 1021.497
1206.072, 1034.278
1206.554, 1063.822
1207.036, 1074.751
1207.519, 1055.813
1208.001, 1032.755
1208.483, 1023.375
1208.965, 1023.266
1209.447, 1030.547
1209.929, 1039.693
1210.411, 1041.292
1210.893, 1038.023
1211.375, 1031.709
1211.858, 1025.521
1212.340, 1026.562
1212.822, 1035.121
1213.304, 1041.768
1213.786, 1043.007
1214.268, 1042.139
1214.750, 1042.505
1215.232, 1037.885
1215.715, 1015.760
1216.197, 999.0412
1216.679, 1006.712
1217.161, 1025.945
1217.643, 1037.973
1218.125, 1042.998
1218.607, 1041.557
1219.089, 1032.951
1219.572, 1029.412
1220.054, 1031.459
1220.536, 1025.423
1221.018, 1008.718
1221.500, 999.3754
1221.982, 1008.196
1222.464, 1020.732
1222.946, 1020.309
1223.428, 1015.254
1223.911, 1014.619
1224.393, 1017.338
1224.875, 1026.713
1225.357, 1035.970
1225.839, 1029.699
1226.321, 1010.926
1226.803, 1003.425
1227.285, 1016.869
1227.767, 1025.806
1228.250, 1021.166
1228.732, 1019.243
1229.214, 1025.517
1229.696, 1030.295
1230.178, 1029.134
1230.660, 1023.893
1231.142, 1015.985
1231.624, 1006.576
1232.107, 996.8354
1232.589, 988.1659
1233.071, 997.8431
1233.553, 1020.560
1234.035, 1025.661
1234.517, 1012.377
1234.999, 1003.251
1235.481, 1006.448
1235.964, 1010.309
1236.446, 1006.172
1236.928, 1001.676
1237.410, 1003.256
1237.892, 1005.656
1238.374, 1003.998
1238.856, 1001.957
1239.338, 1005.074
1239.820, 1010.680
1240.302, 1011.426
1240.785, 1007.128
1241.267, 1001.510
1241.749, 992.0303
1242.231, 991.0900
1242.713, 1001.326
1243.195, 1009.293
1243.677, 1011.070
1244.159, 1011.298
1244.641, 1013.238
##END=



