##NAMES=Spinel
##RRUFFID=R100133
##IDEAL CHEMISTRY=MgAl_2_O_4_
##LOCALITY=Sri Lanka
##OWNER=RRUFF
##SOURCE=William W. Pinch
##DESCRIPTION=Blue and red cut gemstones. The bottom red stone is the one that was studied.
##STATUS=The identification of this mineral has been confirmed only by single crystal X-ray diffraction.
##URL=rruff.info/R100133
175.4918, 253.8130
175.9739, 254.6222
176.4561, 254.6118
176.9382, 253.4173
177.4203, 252.6367
177.9024, 252.5959
178.3845, 252.6633
178.8666, 252.8055
179.3488, 252.8616
179.8309, 252.3586
180.3130, 250.4958
180.7951, 246.0180
181.2772, 243.0945
181.7593, 242.3089
182.2415, 242.4685
182.7236, 242.8572
183.2057, 243.2596
183.6878, 243.7388
184.1699, 244.4654
184.6520, 246.1261
185.1342, 246.4870
185.6163, 244.5206
186.0984, 241.6532
186.5805, 239.2397
187.0626, 237.6590
187.5447, 236.8304
188.0269, 236.8839
188.5090, 238.0889
188.9911, 238.9229
189.4732, 238.8904
189.9553, 238.2921
190.4374, 237.5350
190.9196, 236.5856
191.4017, 235.8359
191.8838, 235.9859
192.3659, 237.0779
192.8480, 238.0798
193.3301, 238.5802
193.8123, 238.6199
194.2944, 238.2386
194.7765, 236.9765
195.2586, 235.9022
195.7407, 236.3913
196.2228, 238.4755
196.7050, 240.2070
197.1871, 239.5671
197.6692, 236.7108
198.1513, 235.2337
198.6334, 237.3120
199.1155, 239.7656
199.5977, 240.4704
200.0798, 239.3127
200.5619, 237.4020
201.0440, 235.7035
201.5261, 234.2339
202.0082, 232.8092
202.4904, 231.3085
202.9725, 229.9195
203.4546, 228.7314
203.9367, 227.7579
204.4188, 226.9637
204.9009, 226.3027
205.3831, 225.7516
205.8652, 225.4256
206.3473, 225.7901
206.8294, 226.0210
207.3115, 225.1226
207.7936, 223.1974
208.2758, 221.5948
208.7579, 222.4210
209.2400, 227.3930
209.7221, 231.0699
210.2042, 233.6546
210.6863, 235.0748
211.1685, 234.7308
211.6506, 232.7527
212.1327, 230.4241
212.6148, 229.6561
213.0969, 231.6203
213.5790, 232.7690
214.0612, 232.5777
214.5433, 231.9624
215.0254, 231.5928
215.5075, 231.6396
215.9896, 231.9391
216.4717, 232.3420
216.9539, 233.2203
217.4360, 233.1313
217.9181, 231.0827
218.4002, 228.5377
218.8823, 226.8712
219.3644, 226.4215
219.8466, 226.7446
220.3287, 227.3910
220.8108, 228.4434
221.2929, 229.3559
221.7750, 230.8056
222.2571, 231.7929
222.7393, 230.5924
223.2214, 226.5827
223.7035, 221.9920
224.1856, 219.8193
224.6677, 219.8496
225.1498, 219.8457
225.6320, 219.1014
226.1141, 218.0076
226.5962, 217.2697
227.0783, 217.1105
227.5604, 216.9814
228.0425, 215.8845
228.5247, 214.1413
229.0068, 213.3289
229.4889, 215.0647
229.9710, 218.0738
230.4531, 219.3814
230.9352, 218.2044
231.4174, 216.3055
231.8995, 214.7021
232.3816, 213.4308
232.8637, 212.6925
233.3458, 212.8173
233.8279, 213.5714
234.3101, 214.2852
234.7922, 215.1898
235.2743, 215.5721
235.7564, 214.7930
236.2385, 213.2806
236.7206, 211.8776
237.2028, 211.0282
237.6849, 210.6703
238.1670, 210.5285
238.6491, 210.6069
239.1312, 210.9343
239.6133, 211.8644
240.0955, 212.9758
240.5776, 213.5196
241.0597, 212.8685
241.5418, 211.3445
242.0239, 210.5507
242.5060, 211.0432
242.9882, 211.5481
243.4703, 211.9573
243.9524, 212.0874
244.4345, 211.5801
244.9166, 210.0948
245.3987, 207.9689
245.8809, 206.8406
246.3630, 207.3397
246.8451, 208.1355
247.3272, 209.7557
247.8093, 211.2796
248.2914, 211.2174
248.7736, 208.6137
249.2557, 204.4329
249.7378, 202.6860
250.2199, 206.2304
250.7020, 208.7822
251.1841, 208.9055
251.6663, 207.8178
252.1484, 207.0544
252.6305, 207.3648
253.1126, 208.2764
253.5947, 208.2866
254.0768, 206.2678
254.5590, 204.6487
255.0411, 203.5356
255.5232, 202.9044
256.0053, 202.9063
256.4874, 203.5981
256.9695, 204.5377
257.4517, 204.6531
257.9338, 202.3249
258.4159, 201.1184
258.8980, 202.0473
259.3801, 203.6779
259.8622, 204.4584
260.3444, 203.8600
260.8265, 202.5437
261.3086, 201.7685
261.7907, 202.3232
262.2728, 202.1359
262.7549, 200.1328
263.2371, 197.8822
263.7192, 197.2353
264.2013, 198.6374
264.6834, 200.6690
265.1655, 201.1418
265.6476, 198.9635
266.1298, 197.8674
266.6119, 198.8496
267.0940, 200.4304
267.5761, 201.3730
268.0582, 201.4175
268.5403, 200.7365
269.0225, 199.2945
269.5046, 196.7186
269.9867, 195.3980
270.4688, 195.9336
270.9509, 197.4117
271.4330, 199.3711
271.9152, 201.6838
272.3973, 203.8372
272.8794, 205.4753
273.3615, 206.5088
273.8436, 206.4439
274.3257, 204.0981
274.8079, 201.4781
275.2900, 200.2137
275.7721, 200.3472
276.2542, 200.9158
276.7363, 201.1945
277.2184, 201.2866
277.7006, 201.8999
278.1827, 203.7873
278.6648, 205.5929
279.1469, 206.1174
279.6290, 205.5106
280.1111, 205.1013
280.5933, 205.8546
281.0754, 207.3487
281.5575, 208.0308
282.0396, 206.9641
282.5217, 206.2240
283.0038, 207.7491
283.4860, 211.0157
283.9681, 213.1517
284.4502, 212.3605
284.9323, 210.0464
285.4144, 209.2053
285.8965, 210.1294
286.3787, 211.6885
286.8608, 213.7924
287.3429, 216.1470
287.8250, 217.5478
288.3071, 217.1383
288.7892, 216.2370
289.2714, 217.0715
289.7535, 219.9270
290.2356, 222.0527
290.7177, 221.2417
291.1998, 218.6953
291.6819, 217.5728
292.1641, 218.6301
292.6462, 221.2018
293.1283, 225.2116
293.6104, 230.4375
294.0925, 234.8028
294.5746, 237.1513
295.0568, 238.1254
295.5389, 238.9000
296.0210, 239.5357
296.5031, 240.1885
296.9852, 240.8125
297.4673, 241.5167
297.9495, 242.7426
298.4316, 244.6463
298.9137, 247.1418
299.3958, 250.4520
299.8779, 254.8647
300.3600, 258.6870
300.8422, 260.0244
301.3243, 260.0921
301.8064, 260.9311
302.2885, 263.2707
302.7706, 266.2977
303.2527, 268.9195
303.7349, 271.0682
304.2170, 273.9825
304.6991, 278.8839
305.1812, 284.6133
305.6633, 289.3518
306.1454, 292.2863
306.6276, 295.6739
307.1097, 302.1068
307.5918, 311.3649
308.0739, 319.7804
308.5560, 325.5226
309.0381, 330.3574
309.5203, 336.6237
310.0024, 344.6044
310.4845, 351.9112
310.9666, 357.5796
311.4487, 361.4198
311.9308, 362.3402
312.4130, 359.8779
312.8951, 354.5168
313.3772, 346.6470
313.8593, 336.4946
314.3414, 325.4684
314.8235, 313.3294
315.3057, 300.8520
315.7878, 289.9008
316.2699, 280.8345
316.7520, 272.9588
317.2341, 265.7220
317.7162, 259.2483
318.1984, 254.0135
318.6805, 250.9704
319.1626, 248.9344
319.6447, 245.9011
320.1268, 241.6248
320.6089, 237.6023
321.0911, 235.0115
321.5732, 233.1001
322.0553, 230.7562
322.5374, 227.3028
323.0195, 224.0878
323.5016, 222.9927
323.9838, 224.0329
324.4659, 224.3594
324.9480, 222.4444
325.4301, 219.5440
325.9122, 217.2136
326.3943, 215.5670
326.8765, 214.2125
327.3586, 212.9789
327.8407, 211.8295
328.3228, 210.5003
328.8049, 208.6145
329.2870, 207.0041
329.7692, 206.6627
330.2513, 207.4769
330.7334, 208.2558
331.2155, 208.5830
331.6976, 208.4500
332.1797, 207.5923
332.6619, 205.6100
333.1440, 203.9523
333.6261, 204.5547
334.1082, 206.4701
334.5903, 207.3944
335.0724, 205.9118
335.5546, 203.4303
336.0367, 201.7745
336.5188, 201.0283
337.0009, 200.3250
337.4830, 198.7427
337.9651, 197.0484
338.4473, 196.7648
338.9294, 198.7897
339.4115, 201.0921
339.8936, 202.0786
340.3757, 201.8755
340.8578, 201.3416
341.3400, 200.5971
341.8221, 199.8695
342.3042, 199.5142
342.7863, 199.5845
343.2684, 199.6815
343.7505, 199.4341
344.2327, 199.0740
344.7148, 199.2527
345.1969, 200.2458
345.6790, 201.4245
346.1611, 202.0344
346.6432, 202.1667
347.1254, 202.2755
347.6075, 202.3539
348.0896, 202.5311
348.5717, 203.1170
349.0538, 204.1624
349.5359, 204.9787
350.0181, 204.8393
350.5002, 204.0204
350.9823, 203.8098
351.4644, 204.6852
351.9465, 205.8382
352.4286, 206.8621
352.9108, 207.7374
353.3929, 208.3697
353.8750, 208.6489
354.3571, 208.7102
354.8392, 208.9729
355.3214, 209.7852
355.8035, 210.0347
356.2856, 208.8613
356.7677, 206.9400
357.2498, 205.3433
357.7319, 204.3185
358.2141, 204.0043
358.6962, 204.8710
359.1783, 207.1983
359.6604, 208.9068
360.1425, 209.3891
360.6246, 209.3909
361.1068, 209.3125
361.5889, 209.2834
362.0710, 209.9365
362.5531, 212.0882
363.0352, 215.6763
363.5173, 217.7325
363.9995, 216.8753
364.4816, 216.0195
364.9637, 216.6450
365.4458, 218.3869
365.9279, 220.3560
366.4100, 222.2135
366.8922, 223.6982
367.3743, 223.8450
367.8564, 221.4365
368.3385, 219.5107
368.8206, 218.2662
369.3027, 217.7787
369.7849, 218.4771
370.2670, 220.4072
370.7491, 222.5844
371.2312, 223.5522
371.7133, 222.5578
372.1954, 222.6657
372.6776, 225.0157
373.1597, 227.4257
373.6418, 228.5132
374.1239, 228.3543
374.6060, 227.7596
375.0881, 227.2492
375.5703, 226.8570
376.0524, 227.6199
376.5345, 230.6481
377.0166, 233.5357
377.4987, 235.7157
377.9808, 237.4376
378.4630, 238.9558
378.9451, 240.3815
379.4272, 242.0273
379.9093, 244.7063
380.3914, 249.4339
380.8735, 253.5401
381.3557, 256.3063
381.8378, 258.9161
382.3199, 262.0899
382.8020, 266.0257
383.2841, 270.6406
383.7662, 275.6829
384.2484, 280.9956
384.7305, 287.9915
385.2126, 298.0760
385.6947, 308.6155
386.1768, 318.5328
386.6589, 328.3056
387.1411, 338.9447
387.6232, 351.0493
388.1053, 364.5751
388.5874, 379.4449
389.0695, 396.6344
389.5516, 413.2947
390.0338, 428.4845
390.5159, 443.1782
390.9980, 458.4673
391.4801, 474.6697
391.9622, 490.4887
392.4443, 504.0396
392.9265, 514.9842
393.4086, 526.6700
393.8907, 538.6791
394.3728, 552.4554
394.8549, 568.2609
395.3370, 586.3204
395.8192, 607.1757
396.3013, 631.4772
396.7834, 658.8874
397.2655, 687.9652
397.7476, 718.3270
398.2297, 751.2326
398.7119, 786.9916
399.1940, 825.8260
399.6761, 868.3253
400.1582, 914.6641
400.6403, 964.6743
401.1224, 1018.786
401.6046, 1077.230
402.0867, 1137.079
402.5688, 1199.161
403.0509, 1260.369
403.5330, 1319.939
404.0151, 1378.270
404.4973, 1425.968
404.9794, 1463.074
405.4615, 1485.740
405.9436, 1487.269
406.4257, 1466.830
406.9078, 1426.181
407.3900, 1362.193
407.8721, 1277.152
408.3542, 1186.333
408.8363, 1083.937
409.3184, 982.3800
409.8005, 889.0756
410.2827, 803.5797
410.7648, 725.2260
411.2469, 653.4324
411.7290, 589.1747
412.2111, 536.3712
412.6932, 496.8911
413.1754, 461.8618
413.6575, 430.6219
414.1396, 402.7255
414.6217, 377.3719
415.1038, 354.5641
415.5859, 335.1756
416.0681, 320.4265
416.5502, 310.7813
417.0323, 301.2719
417.5144, 291.2635
417.9965, 282.0156
418.4786, 274.4143
418.9608, 267.9216
419.4429, 261.2918
419.9250, 253.8572
420.4071, 246.1967
420.8892, 239.9432
421.3713, 236.2690
421.8535, 232.3532
422.3356, 227.4436
422.8177, 222.7139
423.2998, 219.0832
423.7819, 216.6470
424.2640, 214.9999
424.7462, 213.9339
425.2283, 213.5489
425.7104, 212.1645
426.1925, 208.4482
426.6746, 205.1462
427.1567, 203.3497
427.6389, 202.4040
428.1210, 201.2151
428.6031, 199.2059
429.0852, 196.9074
429.5673, 195.4398
430.0494, 194.9937
430.5316, 194.6751
431.0137, 195.1114
431.4958, 195.0205
431.9779, 192.8978
432.4600, 188.9015
432.9421, 185.5240
433.4243, 185.4141
433.9064, 187.6593
434.3885, 188.1604
434.8706, 186.2234
435.3527, 183.7146
435.8348, 181.2206
436.3170, 179.0553
436.7991, 177.8814
437.2812, 178.1620
437.7633, 179.0686
438.2454, 180.0900
438.7275, 181.1653
439.2097, 181.8641
439.6918, 182.0802
440.1739, 181.7819
440.6560, 180.5026
441.1381, 178.0403
441.6202, 176.7510
442.1024, 178.5921
442.5845, 181.2335
443.0666, 181.7781
443.5487, 180.0609
444.0308, 178.0626
444.5129, 177.2086
444.9951, 177.4092
445.4772, 177.6508
445.9593, 177.9455
446.4414, 178.2588
446.9235, 178.8968
447.4056, 179.4558
447.8878, 179.0967
448.3699, 177.5620
448.8520, 175.7998
449.3341, 175.3235
449.8162, 176.8097
450.2983, 177.6922
450.7805, 177.9101
451.2626, 177.6836
451.7447, 176.7963
452.2268, 175.5445
452.7089, 174.6887
453.1910, 174.8491
453.6732, 175.5830
454.1553, 174.8178
454.6374, 170.6404
455.1195, 168.2944
455.6016, 169.9482
456.0837, 172.6569
456.5659, 173.9032
457.0480, 173.2626
457.5301, 172.1003
458.0122, 171.6348
458.4943, 171.8632
458.9764, 172.9043
459.4586, 175.8945
459.9407, 177.9426
460.4228, 176.8344
460.9049, 173.9897
461.3870, 171.9870
461.8691, 172.0328
462.3513, 172.7699
462.8334, 172.4591
463.3155, 171.1510
463.7976, 170.1853
464.2797, 170.1037
464.7618, 170.3949
465.2440, 170.3965
465.7261, 170.1050
466.2082, 169.8670
466.6903, 169.7790
467.1724, 169.8164
467.6545, 170.1187
468.1367, 170.6524
468.6188, 170.7471
469.1009, 169.6819
469.5830, 167.8885
470.0651, 167.5390
470.5472, 170.1253
471.0294, 172.0621
471.5115, 171.7543
471.9936, 170.5832
472.4757, 170.3892
472.9578, 171.6064
473.4399, 173.2620
473.9221, 174.2175
474.4042, 174.3875
474.8863, 174.3167
475.3684, 173.9826
475.8505, 173.4641
476.3326, 172.5853
476.8148, 171.5835
477.2969, 170.8544
477.7790, 170.5990
478.2611, 170.6269
478.7432, 170.5080
479.2253, 170.0904
479.7075, 169.9648
480.1896, 170.3611
480.6717, 170.9322
481.1538, 171.5584
481.6359, 172.2052
482.1180, 172.8389
482.6002, 173.5197
483.0823, 174.1448
483.5644, 174.2952
484.0465, 173.7568
484.5286, 173.5613
485.0107, 174.9787
485.4929, 176.5450
485.9750, 176.2992
486.4571, 173.7210
486.9392, 171.0194
487.4213, 169.5678
487.9034, 168.9482
488.3856, 168.2177
488.8677, 167.1922
489.3498, 166.3054
489.8319, 166.0089
490.3140, 166.2563
490.7961, 166.2542
491.2783, 165.7808
491.7604, 165.2959
492.2425, 165.1436
492.7246, 165.1017
493.2067, 164.6624
493.6888, 163.6493
494.1710, 162.4910
494.6531, 161.8809
495.1352, 162.0522
495.6173, 162.0543
496.0994, 161.9238
496.5815, 161.6176
497.0637, 160.8501
497.5458, 159.9094
498.0279, 159.3936
498.5100, 159.6601
498.9921, 160.4473
499.4742, 161.2394
499.9564, 162.4077
500.4385, 162.5996
500.9206, 160.2753
501.4027, 157.9908
501.8848, 157.4382
502.3669, 158.5233
502.8491, 159.9886
503.3312, 161.1706
503.8133, 162.0629
504.2954, 162.6332
504.7775, 162.8715
505.2596, 162.7876
505.7418, 161.8372
506.2239, 160.8863
506.7060, 161.4754
507.1881, 164.2433
507.6702, 166.1581
508.1523, 164.5224
508.6345, 161.4327
509.1166, 160.8192
509.5987, 163.2696
510.0808, 165.7448
510.5629, 165.5958
511.0450, 163.1148
511.5272, 161.8896
512.0093, 162.5821
512.4914, 163.5512
512.9735, 164.7556
513.4556, 165.7849
513.9377, 165.9280
514.4199, 165.0707
514.9020, 164.0192
515.3841, 163.8079
515.8662, 164.5651
516.3483, 165.2790
516.8304, 166.5343
517.3126, 167.1000
517.7947, 166.0899
518.2768, 164.3255
518.7589, 162.9442
519.2410, 162.3923
519.7231, 162.4055
520.2053, 162.9423
520.6874, 164.1092
521.1695, 163.9922
521.6516, 160.7673
522.1337, 158.2662
522.6158, 159.9953
523.0980, 164.5018
523.5801, 167.5600
524.0622, 166.6316
524.5443, 164.6553
525.0264, 164.7676
525.5085, 166.6575
525.9907, 168.5898
526.4728, 170.1206
526.9549, 171.1012
527.4370, 171.1327
527.9191, 170.0355
528.4012, 169.2189
528.8834, 169.1474
529.3655, 169.1196
529.8476, 168.4017
530.3297, 167.2885
530.8118, 166.7912
531.2939, 167.5014
531.7761, 168.8366
532.2582, 169.2549
532.7403, 167.8430
533.2224, 167.1969
533.7045, 167.5468
534.1866, 168.3958
534.6688, 170.0077
535.1509, 171.9084
535.6330, 172.8941
536.1151, 171.9885
536.5972, 169.8889
537.0793, 168.3810
537.5615, 167.5087
538.0436, 167.0957
538.5257, 167.5168
539.0078, 168.0701
539.4899, 168.1467
539.9720, 167.7420
540.4542, 167.2052
540.9363, 166.5553
541.4184, 165.9500
541.9005, 165.5871
542.3826, 165.4766
542.8647, 165.6691
543.3469, 166.3008
543.8290, 167.1426
544.3111, 167.6325
544.7932, 167.8870
545.2753, 167.6001
545.7574, 165.8303
546.2396, 164.1370
546.7217, 164.1543
547.2038, 165.6673
547.6859, 167.1650
548.1680, 167.5662
548.6501, 167.1499
549.1323, 167.1633
549.6144, 167.8727
550.0965, 168.5645
550.5786, 169.5905
551.0607, 170.2542
551.5428, 169.6564
552.0250, 168.0271
552.5071, 166.7768
552.9892, 167.2709
553.4713, 168.7876
553.9534, 169.1372
554.4355, 168.1080
554.9177, 166.9267
555.3998, 165.7275
555.8819, 164.9002
556.3640, 165.1346
556.8461, 166.6290
557.3282, 167.6186
557.8104, 166.8931
558.2925, 165.6123
558.7746, 165.2474
559.2567, 165.7849
559.7388, 166.2312
560.2209, 165.9430
560.7031, 165.2133
561.1852, 164.9827
561.6673, 166.2740
562.1494, 166.5951
562.6315, 165.0380
563.1136, 163.1866
563.5958, 162.1705
564.0779, 161.9638
564.5600, 161.9584
565.0421, 161.7198
565.5242, 161.3690
566.0063, 161.2712
566.4885, 161.3606
566.9706, 161.8949
567.4527, 163.5098
567.9348, 165.1658
568.4169, 166.3530
568.8990, 166.9740
569.3812, 166.8025
569.8633, 165.0449
570.3454, 162.7767
570.8275, 161.6413
571.3096, 161.5841
571.7917, 161.5869
572.2739, 161.2104
572.7560, 160.6859
573.2381, 160.4655
573.7202, 160.6764
574.2023, 160.6695
574.6844, 160.0339
575.1666, 159.4671
575.6487, 159.5914
576.1308, 160.1887
576.6129, 160.5821
577.0950, 160.4063
577.5771, 159.9892
578.0593, 160.1550
578.5414, 161.3646
579.0235, 161.8916
579.5056, 161.1124
579.9877, 160.1248
580.4698, 159.2422
580.9520, 158.5434
581.4341, 158.0356
581.9162, 157.5726
582.3983, 157.6212
582.8804, 159.4243
583.3625, 162.7195
583.8447, 164.6519
584.3268, 164.5672
584.8089, 162.8995
585.2910, 158.6957
585.7731, 152.4915
586.2552, 150.1118
586.7374, 155.3790
587.2195, 161.1145
587.7016, 163.5543
588.1837, 163.9360
588.6658, 164.3706
589.1479, 165.5344
589.6301, 167.1869
590.1122, 169.1708
590.5943, 171.6111
591.0764, 173.1520
591.5585, 173.7302
592.0406, 173.3979
592.5228, 171.3211
593.0049, 168.7440
593.4870, 167.0032
593.9691, 166.4474
594.4512, 166.7962
594.9333, 168.1742
595.4155, 170.3014
595.8976, 171.9582
596.3797, 173.0556
596.8618, 173.7588
597.3439, 173.9474
597.8260, 173.8763
598.3082, 174.2602
598.7903, 175.5283
599.2724, 176.1707
599.7545, 175.5115
600.2366, 174.1077
600.7188, 172.0086
601.2009, 169.5717
601.6830, 168.2620
602.1651, 169.2280
602.6472, 171.6637
603.1293, 172.4717
603.6115, 170.1110
604.0936, 168.9698
604.5757, 170.6720
605.0578, 172.3843
605.5399, 172.1654
606.0220, 170.3795
606.5042, 168.6242
606.9863, 167.7565
607.4684, 167.4480
607.9505, 167.1136
608.4326, 166.7660
608.9147, 167.0609
609.3969, 168.6108
609.8790, 170.0364
610.3611, 169.4772
610.8432, 167.1316
611.3253, 165.4825
611.8074, 165.1251
612.2896, 165.1722
612.7717, 165.4447
613.2538, 165.7240
613.7359, 165.6935
614.2180, 165.2539
614.7001, 164.4318
615.1823, 163.0901
615.6644, 161.1463
616.1465, 160.4646
616.6286, 162.5423
617.1107, 163.8133
617.5928, 162.5452
618.0750, 160.5529
618.5571, 159.9341
619.0392, 161.0272
619.5213, 161.9893
620.0034, 160.7798
620.4855, 158.6022
620.9677, 158.5513
621.4498, 160.8323
621.9319, 162.6526
622.4140, 162.5317
622.8961, 161.2331
623.3782, 160.2388
623.8604, 159.3923
624.3425, 159.2766
624.8246, 160.8438
625.3067, 162.3788
625.7888, 162.4297
626.2709, 161.5025
626.7531, 161.1916
627.2352, 162.3055
627.7173, 163.7094
628.1994, 162.9758
628.6815, 159.4500
629.1636, 157.4505
629.6458, 158.1164
630.1279, 159.2006
630.6100, 159.5185
631.0921, 159.4575
631.5742, 159.8092
632.0563, 161.0218
632.5385, 161.9023
633.0206, 161.0675
633.5027, 159.4256
633.9848, 158.8095
634.4669, 159.4813
634.9490, 160.7012
635.4312, 162.0313
635.9133, 163.4113
636.3954, 164.5669
636.8775, 164.9380
637.3596, 165.8434
637.8417, 168.2658
638.3239, 170.4627
638.8060, 170.7924
639.2881, 169.7124
639.7702, 168.9571
640.2523, 169.5633
640.7344, 171.0699
641.2166, 172.7847
641.6987, 174.7412
642.1808, 176.1824
642.6629, 176.6386
643.1450, 177.0756
643.6271, 178.1367
644.1093, 179.8491
644.5914, 182.5175
645.0735, 187.4856
645.5556, 191.9129
646.0377, 193.7304
646.5198, 194.5077
647.0020, 196.5569
647.4841, 200.2406
647.9662, 204.3614
648.4483, 207.8535
648.9304, 210.8256
649.4125, 214.1275
649.8947, 217.2510
650.3768, 221.6679
650.8589, 229.0934
651.3410, 236.6458
651.8231, 241.9162
652.3052, 245.2457
652.7874, 249.0970
653.2695, 254.6520
653.7516, 261.3815
654.2337, 269.0499
654.7158, 277.4088
655.1979, 285.1312
655.6801, 291.7086
656.1622, 298.3017
656.6443, 306.1963
657.1264, 315.4145
657.6085, 325.2355
658.0906, 336.7231
658.5728, 347.3813
659.0549, 355.8599
659.5370, 363.7561
660.0191, 373.2751
660.5012, 384.4158
660.9833, 394.8351
661.4655, 402.4492
661.9476, 408.0154
662.4297, 414.3213
662.9118, 421.8929
663.3939, 425.8517
663.8760, 423.6570
664.3582, 418.4334
664.8403, 413.9064
665.3224, 409.9675
665.8045, 404.2986
666.2866, 395.6764
666.7687, 386.1352
667.2509, 376.8597
667.7330, 367.4376
668.2151, 356.9019
668.6972, 345.0882
669.1793, 333.1081
669.6614, 321.9286
670.1436, 311.5351
670.6257, 301.8063
671.1078, 293.1934
671.5899, 284.2581
672.0720, 273.5219
672.5541, 262.9832
673.0363, 254.1679
673.5184, 247.1125
674.0005, 240.8839
674.4826, 235.6430
674.9647, 230.5239
675.4468, 224.1859
675.9290, 217.2118
676.4111, 211.4761
676.8932, 207.5813
677.3753, 204.5205
677.8574, 201.1812
678.3395, 197.5471
678.8217, 194.0637
679.3038, 190.3608
679.7859, 187.3185
680.2680, 186.0128
680.7501, 184.8264
681.2322, 181.8595
681.7144, 177.2593
682.1965, 173.2555
682.6786, 171.9159
683.1607, 171.6648
683.6428, 169.6889
684.1249, 166.2236
684.6071, 163.4141
685.0892, 161.9743
685.5713, 161.0971
686.0534, 159.8030
686.5355, 158.0357
687.0176, 157.0229
687.4998, 157.4808
687.9819, 157.7210
688.4640, 157.2440
688.9461, 156.3954
689.4282, 155.6218
689.9103, 154.9119
690.3925, 153.7469
690.8746, 151.4045
691.3567, 148.6651
691.8388, 147.4323
692.3209, 147.7395
692.8030, 148.8290
693.2852, 150.8871
693.7673, 152.9635
694.2494, 154.1833
694.7315, 154.5434
695.2136, 154.2735
695.6957, 152.2399
696.1779, 150.9615
696.6600, 152.1620
697.1421, 154.0592
697.6242, 154.4130
698.1063, 153.1734
698.5884, 152.1238
699.0706, 152.7223
699.5527, 154.3039
700.0348, 154.9397
700.5169, 154.4952
700.9990, 153.9340
701.4811, 153.3755
701.9633, 152.8404
702.4454, 152.0179
702.9275, 151.1793
703.4096, 151.3685
703.8917, 153.8184
704.3738, 155.8064
704.8560, 155.5498
705.3381, 154.5958
705.8202, 154.9770
706.3023, 156.7088
706.7844, 158.4170
707.2665, 159.2026
707.7487, 159.1553
708.2308, 158.3303
708.7129, 156.4749
709.1950, 155.0076
709.6771, 154.0371
710.1592, 153.5745
710.6414, 153.7685
711.1235, 154.4289
711.6056, 155.2318
712.0877, 156.3426
712.5698, 157.0748
713.0519, 156.7673
713.5341, 156.0943
714.0162, 155.9176
714.4983, 156.1974
714.9804, 156.3754
715.4625, 156.1407
715.9446, 155.5572
716.4268, 154.6223
716.9089, 153.0912
717.3910, 152.3706
717.8731, 153.4155
718.3552, 153.9948
718.8373, 152.1006
719.3195, 149.5108
719.8016, 149.0853
720.2837, 151.6398
720.7658, 153.9036
721.2479, 154.0114
721.7300, 153.2600
722.2122, 152.7460
722.6943, 152.6330
723.1764, 153.3364
723.6585, 155.0588
724.1406, 156.6644
724.6227, 156.2195
725.1049, 153.4142
725.5870, 151.4972
726.0691, 150.8481
726.5512, 150.4969
727.0333, 150.0222
727.5154, 149.7338
727.9976, 150.2066
728.4797, 151.4462
728.9618, 152.1526
729.4439, 150.8354
729.9260, 149.5604
730.4081, 150.9133
730.8903, 153.7116
731.3724, 154.8056
731.8545, 153.3630
732.3366, 151.4283
732.8187, 151.1437
733.3008, 152.3895
733.7830, 153.7648
734.2651, 155.5269
734.7472, 156.8593
735.2293, 156.9573
735.7114, 157.0798
736.1935, 158.2772
736.6757, 160.3344
737.1578, 162.2167
737.6399, 164.1414
738.1220, 165.1064
738.6041, 163.3798
739.0862, 160.6814
739.5684, 159.7612
740.0505, 160.9614
740.5326, 163.1820
741.0147, 165.7231
741.4968, 168.4494
741.9789, 170.9344
742.4611, 173.0670
742.9432, 175.3876
743.4253, 178.3794
743.9074, 180.9951
744.3895, 182.5028
744.8716, 183.2908
745.3538, 183.8491
745.8359, 183.8107
746.3180, 185.0117
746.8001, 189.3739
747.2822, 194.5692
747.7643, 197.8506
748.2465, 199.7376
748.7286, 202.8709
749.2107, 208.4432
749.6928, 214.3783
750.1749, 217.0608
750.6570, 216.2316
751.1392, 217.8628
751.6213, 222.6352
752.1034, 228.3639
752.5855, 234.7871
753.0676, 241.3442
753.5497, 247.2137
754.0319, 252.3626
754.5140, 257.7286
754.9961, 263.1388
755.4782, 269.2380
755.9603, 276.7693
756.4424, 285.0657
756.9246, 293.2673
757.4067, 301.1485
757.8888, 308.6888
758.3709, 315.7737
758.8530, 322.7693
759.3351, 330.9988
759.8173, 340.5514
760.2994, 350.3976
760.7815, 360.5100
761.2636, 370.3974
761.7457, 379.4909
762.2278, 387.9210
762.7100, 396.5123
763.1921, 406.7203
763.6742, 414.8075
764.1563, 419.6075
764.6384, 422.1681
765.1205, 423.2306
765.6027, 422.8269
766.0848, 420.6759
766.5669, 416.6219
767.0490, 411.1842
767.5311, 405.0241
768.0132, 398.0819
768.4954, 390.1382
768.9775, 381.2178
769.4596, 370.6356
769.9417, 357.5612
770.4238, 343.2733
770.9059, 329.9351
771.3881, 317.7988
771.8702, 305.8263
772.3523, 292.9712
772.8344, 281.4461
773.3165, 272.4823
773.7986, 265.0286
774.2808, 257.9801
774.7629, 251.1451
775.2450, 244.6927
775.7271, 238.8115
776.2092, 233.3441
776.6913, 228.1237
777.1735, 223.1400
777.6556, 218.3117
778.1377, 213.5874
778.6198, 209.3834
779.1019, 206.1003
779.5840, 203.6176
780.0662, 201.4052
780.5483, 199.8946
781.0304, 197.8236
781.5125, 194.2905
781.9946, 191.0362
782.4767, 189.1660
782.9589, 188.1058
783.4410, 186.7143
783.9231, 184.6412
784.4052, 182.5623
784.8873, 181.2231
785.3694, 179.8723
785.8516, 177.1174
786.3337, 173.4731
786.8158, 170.8552
787.2979, 170.0256
787.7800, 170.1735
788.2621, 170.3200
788.7443, 170.4652
789.2264, 170.6850
789.7085, 171.1451
790.1906, 171.2219
790.6727, 170.7436
791.1548, 169.7866
791.6370, 168.3752
792.1191, 166.5443
792.6012, 164.5459
793.0833, 161.1448
793.5654, 159.1516
794.0475, 160.5148
794.5297, 163.1907
795.0118, 165.4522
795.4939, 167.0001
795.9760, 168.0024
796.4581, 168.5655
796.9402, 168.5479
797.4224, 167.3092
797.9045, 165.1377
798.3866, 164.2501
798.8687, 165.0013
799.3508, 165.3845
799.8329, 164.1613
800.3151, 162.3274
800.7972, 161.9081
801.2793, 163.6875
801.7614, 163.7500
802.2435, 159.5956
802.7256, 156.9531
803.2078, 158.3421
803.6899, 161.5014
804.1720, 164.5372
804.6541, 166.9978
805.1362, 168.5430
805.6183, 168.4027
806.1005, 167.9434
806.5826, 168.7157
807.0647, 170.2259
807.5468, 171.2497
808.0289, 171.6458
808.5110, 172.2596
808.9932, 173.7135
809.4753, 175.7245
809.9574, 177.7009
810.4395, 179.8636
810.9216, 180.9682
811.4037, 180.4675
811.8859, 179.7142
812.3680, 179.8424
812.8501, 179.8943
813.3322, 178.1843
813.8143, 174.3167
814.2964, 171.1340
814.7786, 170.1193
815.2607, 169.0623
815.7428, 166.4275
816.2249, 163.0661
816.7070, 160.0789
817.1891, 157.7744
817.6713, 156.2148
818.1534, 155.8119
818.6355, 155.6459
819.1176, 153.4918
819.5997, 149.6940
820.0818, 147.0747
820.5640, 146.2078
821.0461, 145.8038
821.5282, 144.9230
822.0103, 144.8162
822.4924, 144.9292
822.9745, 144.7836
823.4567, 145.5717
823.9388, 145.9507
824.4209, 146.0800
824.9030, 145.8298
825.3851, 145.4592
825.8672, 145.5081
826.3494, 146.0210
826.8315, 145.8040
827.3136, 143.0188
827.7957, 140.4937
828.2778, 140.9570
828.7599, 143.3031
829.2421, 146.1105
829.7242, 148.7135
830.2063, 149.5262
830.6884, 147.0038
831.1705, 142.8087
831.6526, 141.3411
832.1348, 142.7178
832.6169, 143.2961
833.0990, 142.4915
833.5811, 141.3557
834.0632, 140.2671
834.5453, 139.4289
835.0275, 139.3728
835.5096, 140.5354
835.9917, 141.1703
836.4738, 140.4430
836.9559, 140.1599
837.4380, 141.1936
837.9202, 142.8908
838.4023, 144.9799
838.8844, 147.1314
839.3665, 148.0460
839.8486, 146.3229
840.3307, 143.9441
840.8129, 143.1821
841.2950, 143.1668
841.7771, 142.1465
842.2592, 139.9286
842.7413, 137.0466
843.2234, 133.7400
843.7056, 130.7236
844.1877, 129.4276
844.6698, 129.8921
845.1519, 131.9482
845.6340, 136.5403
846.1161, 139.9955
846.5983, 140.5307
847.0804, 139.3748
847.5625, 137.8949
848.0446, 136.0185
848.5267, 134.9828
849.0089, 135.1595
849.4910, 135.7657
849.9731, 137.7073
850.4552, 139.1186
850.9373, 137.6236
851.4194, 134.0487
851.9016, 131.3997
852.3837, 131.0265
852.8658, 131.7262
853.3479, 133.3910
853.8300, 134.9223
854.3121, 133.7098
854.7943, 130.2635
855.2764, 127.5427
855.7585, 126.8299
856.2406, 127.7892
856.7227, 130.6471
857.2048, 135.0088
857.6870, 135.0078
858.1691, 128.8987
858.6512, 125.6455
859.1333, 129.1882
859.6154, 133.4505
860.0975, 132.4973
860.5797, 127.4847
861.0618, 125.1079
861.5439, 127.6796
862.0260, 128.9578
862.5081, 127.0931
862.9902, 124.9697
863.4724, 124.2313
863.9545, 124.4346
864.4366, 124.7344
864.9187, 124.9149
865.4008, 125.0490
865.8829, 125.1515
866.3651, 125.2615
866.8472, 125.4864
867.3293, 125.7446
867.8114, 125.7285
868.2935, 125.4364
868.7756, 125.4766
869.2578, 126.4289
869.7399, 127.6467
870.2220, 127.4067
870.7041, 125.6411
871.1862, 123.6029
871.6683, 121.0194
872.1505, 119.6359
872.6326, 120.7995
873.1147, 123.1796
873.5968, 124.5919
874.0789, 124.8875
874.5610, 124.9891
875.0432, 125.4705
875.5253, 125.0203
876.0074, 121.8166
876.4895, 118.7850
876.9716, 118.8506
877.4537, 121.3775
877.9359, 123.4248
878.4180, 124.1634
878.9001, 123.8890
879.3822, 121.9428
879.8643, 119.6940
880.3464, 118.7801
880.8286, 118.9377
881.3107, 119.1494
881.7928, 119.0290
882.2749, 118.7494
882.7570, 118.4953
883.2391, 118.2282
883.7213, 117.6941
884.2034, 116.9328
884.6855, 116.6806
885.1676, 117.1464
885.6497, 117.9547
886.1318, 118.9901
886.6140, 119.9438
887.0961, 119.6235
887.5782, 117.0945
888.0603, 115.7533
888.5424, 116.9215
889.0245, 117.4757
889.5067, 115.2456
889.9888, 112.3009
890.4709, 110.9138
890.9530, 111.1760
891.4351, 112.2744
891.9172, 115.3049
892.3994, 117.5705
892.8815, 117.6652
893.3636, 116.7201
893.8457, 115.2310
894.3278, 113.7704
894.8099, 113.5885
895.2921, 115.3564
895.7742, 117.3097
896.2563, 117.5309
896.7384, 118.6840
897.2205, 117.5272
897.7026, 118.8464
898.1848, 118.9831
898.6669, 117.3596
899.1490, 114.9003
899.6311, 112.2424
900.1132, 109.7983
900.5953, 109.3484
901.0775, 111.0550
901.5596, 113.0829
902.0417, 115.5585
902.5238, 117.0073
903.0059, 116.1219
903.4880, 114.0978
903.9702, 113.5465
904.4523, 115.2245
904.9344, 115.3162
905.4165, 111.8898
905.8986, 109.3818
906.3807, 109.7246
906.8629, 110.6081
907.3450, 109.7419
907.8271, 107.5425
908.3092, 106.2235
908.7913, 106.6636
909.2734, 107.3838
909.7556, 107.9812
910.2377, 108.3515
910.7198, 107.8049
911.2019, 107.1312
911.6840, 108.4246
912.1661, 112.0166
912.6483, 114.7666
913.1304, 113.3378
913.6125, 110.1203
914.0946, 108.7350
914.5767, 108.8820
915.0588, 109.8968
915.5410, 111.5481
916.0231, 113.0909
916.5052, 114.1221
916.9873, 114.4040
917.4694, 113.1394
917.9515, 110.2324
918.4337, 108.4783
918.9158, 108.0834
919.3979, 107.9151
919.8800, 107.5322
920.3621, 107.4005
920.8442, 108.3421
921.3264, 110.1210
921.8085, 110.1661
922.2906, 106.4281
922.7727, 104.3155
923.2548, 104.7943
923.7369, 106.0714
924.2191, 107.8953
924.7012, 109.7305
925.1833, 110.8032
925.6654, 111.0130
926.1475, 110.8884
926.6296, 110.1292
927.1118, 109.6092
927.5939, 109.9636
928.0760, 110.6497
928.5581, 111.3248
929.0402, 111.7550
929.5223, 111.4100
930.0045, 109.9397
930.4866, 108.4442
930.9687, 108.0828
931.4508, 108.2319
931.9329, 108.0810
932.4150, 107.5643
932.8972, 106.4445
933.3793, 104.7558
933.8614, 103.3245
934.3435, 102.8554
934.8256, 103.1893
935.3077, 104.1829
935.7899, 105.7598
936.2720, 106.8630
936.7541, 107.3817
937.2362, 107.2202
937.7183, 106.1547
938.2004, 104.9457
938.6826, 104.8121
939.1647, 105.7877
939.6468, 106.2327
940.1289, 105.7931
940.6110, 105.7031
941.0931, 106.4748
941.5753, 107.2829
942.0574, 107.4872
942.5395, 107.3022
943.0216, 107.3052
943.5037, 107.5031
943.9858, 107.8703
944.4680, 108.7978
944.9501, 109.4169
945.4322, 109.0657
945.9143, 108.4925
946.3964, 108.8154
946.8785, 109.7397
947.3607, 109.4752
947.8428, 106.4753
948.3249, 104.2569
948.8070, 105.4061
949.2891, 107.6101
949.7712, 108.8389
950.2534, 109.3569
950.7355, 110.2464
951.2176, 111.6628
951.6997, 112.3102
952.1818, 110.6302
952.6639, 108.4005
953.1461, 108.4059
953.6282, 109.6620
954.1103, 109.6362
954.5924, 108.2993
955.0745, 107.4601
955.5566, 108.0150
956.0388, 109.3172
956.5209, 110.6988
957.0030, 112.0507
957.4851, 112.8217
957.9672, 113.0154
958.4493, 112.8244
958.9315, 112.3469
959.4136, 110.7596
959.8957, 106.9274
960.3778, 102.6006
960.8599, 102.8409
961.3420, 109.1233
961.8242, 112.2171
962.3063, 110.7975
962.7884, 109.3992
963.2705, 109.4529
963.7526, 110.1425
964.2347, 110.7434
964.7169, 111.2689
965.1990, 111.8270
965.6811, 112.9423
966.1632, 113.2698
966.6453, 111.9885
967.1274, 110.8609
967.6096, 110.5132
968.0917, 110.7980
968.5738, 111.8366
969.0559, 113.5303
969.5380, 114.4166
970.0201, 113.6106
970.5023, 112.6633
970.9844, 111.9935
971.4665, 111.5148
971.9486, 110.8740
972.4307, 110.4479
972.9128, 111.3847
973.3950, 113.9220
973.8771, 115.4914
974.3592, 113.4200
974.8413, 110.8988
975.3234, 111.0280
975.8055, 112.3486
976.2877, 112.6819
976.7698, 111.9749
977.2519, 111.2611
977.7340, 111.0185
978.2161, 111.0148
978.6982, 111.1769
979.1804, 111.3140
979.6625, 110.9045
980.1446, 110.1455
980.6267, 109.6440
981.1088, 109.5587
981.5909, 109.9912
982.0731, 111.0764
982.5552, 112.3389
983.0373, 112.8666
983.5194, 112.7613
984.0015, 112.7319
984.4836, 112.8025
984.9658, 113.0593
985.4479, 113.5628
985.9300, 114.0000
986.4121, 114.1576
986.8942, 113.9050
987.3763, 112.4245
987.8585, 109.2543
988.3406, 108.1154
988.8227, 109.8104
989.3048, 111.4063
989.7869, 111.6482
990.2690, 111.3682
990.7512, 111.5422
991.2333, 112.1206
991.7154, 112.5025
992.1975, 112.8354
992.6796, 112.6142
993.1617, 111.0805
993.6439, 109.9947
994.1260, 110.4102
994.6081, 111.6225
995.0902, 112.9622
995.5723, 114.4829
996.0544, 114.6240
996.5366, 111.4148
997.0187, 109.5684
997.5008, 111.3603
997.9829, 113.1731
998.4650, 112.3744
998.9471, 110.2603
999.4293, 109.2489
999.9114, 109.7114
1000.393, 109.9444
1000.876, 109.3263
1001.358, 108.5853
1001.840, 107.8038
1002.322, 107.2214
1002.804, 107.2708
1003.286, 107.6343
1003.768, 107.5140
1004.250, 106.6626
1004.733, 105.9125
1005.215, 105.9576
1005.697, 106.0053
1006.179, 104.9707
1006.661, 103.8996
1007.143, 104.5199
1007.625, 106.4244
1008.107, 107.7850
1008.589, 107.8232
1009.072, 107.3794
1009.554, 106.8161
1010.036, 106.4371
1010.518, 106.9299
1011.000, 107.7705
1011.482, 107.7091
1011.964, 106.7899
1012.446, 106.3289
1012.929, 107.0966
1013.411, 108.0581
1013.893, 107.8401
1014.375, 106.9868
1014.857, 106.8793
1015.339, 107.1351
1015.821, 105.6665
1016.303, 102.4084
1016.785, 100.8831
1017.268, 103.7253
1017.750, 108.0937
1018.232, 109.1951
1018.714, 107.8172
1019.196, 107.1609
1019.678, 107.2642
1020.160, 107.3651
1020.642, 107.2575
1021.125, 107.5472
1021.607, 108.8858
1022.089, 110.3542
1022.571, 109.3702
1023.053, 106.1307
1023.535, 104.8358
1024.017, 105.7122
1024.499, 106.4530
1024.981, 106.3069
1025.464, 106.0422
1025.946, 106.3425
1026.428, 107.0835
1026.910, 108.0046
1027.392, 109.1963
1027.874, 109.6329
1028.356, 109.1612
1028.838, 108.3604
1029.321, 107.1146
1029.803, 106.6309
1030.285, 108.4798
1030.767, 111.8319
1031.249, 112.8486
1031.731, 110.8686
1032.213, 109.0571
1032.695, 107.4813
1033.177, 106.0612
1033.660, 104.4992
1034.142, 103.5661
1034.624, 104.3250
1035.106, 106.4259
1035.588, 107.6583
1036.070, 107.7566
1036.552, 107.5966
1037.034, 106.9594
1037.516, 106.4501
1037.999, 106.0534
1038.481, 106.1563
1038.963, 107.5547
1039.445, 109.9650
1039.927, 111.1580
1040.409, 109.9540
1040.891, 109.6289
1041.373, 111.2625
1041.855, 112.4137
1042.338, 111.5223
1042.820, 110.2049
1043.302, 110.4708
1043.784, 111.9989
1044.266, 112.2608
1044.748, 109.9046
1045.230, 108.4399
1045.712, 108.4856
1046.195, 108.9257
1046.677, 109.5768
1047.159, 110.2188
1047.641, 110.5361
1048.123, 110.5984
1048.605, 110.9600
1049.087, 112.3089
1049.569, 112.8134
1050.052, 111.2605
1050.534, 109.9303
1051.016, 110.3001
1051.498, 111.1273
1051.980, 111.0748
1052.462, 110.1334
1052.944, 108.8194
1053.426, 106.3887
1053.908, 105.2854
1054.391, 107.0390
1054.873, 109.1195
1055.355, 111.0464
1055.837, 112.0608
1056.319, 110.6057
1056.801, 107.3316
1057.283, 105.7332
1057.765, 107.5877
1058.248, 108.8780
1058.730, 107.0697
1059.212, 105.9467
1059.694, 108.9730
1060.176, 112.8849
1060.658, 113.3917
1061.140, 111.0313
1061.622, 109.9629
1062.104, 112.1112
1062.587, 113.2969
1063.069, 110.5479
1063.551, 108.0843
1064.033, 108.7413
1064.515, 110.7633
1064.997, 112.3647
1065.479, 113.2950
1065.961, 113.5191
1066.443, 112.5611
1066.926, 112.5840
1067.408, 115.6202
1067.890, 118.5749
1068.372, 119.8898
1068.854, 119.9160
1069.336, 118.5817
1069.818, 116.4550
1070.300, 115.0632
1070.782, 114.9924
1071.265, 114.9026
1071.747, 113.9790
1072.229, 113.1151
1072.711, 112.7869
1073.193, 112.8484
1073.675, 113.6422
1074.157, 114.6021
1074.639, 113.9383
1075.122, 110.7882
1075.604, 108.9133
1076.086, 111.3368
1076.568, 113.9817
1077.050, 114.5188
1077.532, 114.0275
1078.014, 113.3559
1078.496, 112.7476
1078.979, 112.3807
1079.461, 112.2940
1079.943, 112.5520
1080.425, 114.2294
1080.907, 114.9754
1081.389, 112.0007
1081.871, 108.7593
1082.353, 109.1656
1082.835, 111.7767
1083.318, 112.8015
1083.800, 111.4069
1084.282, 110.5069
1084.764, 112.1080
1085.246, 113.5437
1085.728, 113.1140
1086.210, 112.2900
1086.692, 112.5425
1087.175, 113.2780
1087.657, 113.3489
1088.139, 112.5361
1088.621, 111.1406
1089.103, 108.1078
1089.585, 106.1630
1090.067, 107.2798
1090.549, 109.1380
1091.031, 109.9968
1091.514, 110.3773
1091.996, 111.5472
1092.478, 113.4492
1092.960, 114.2687
1093.442, 112.7978
1093.924, 111.2922
1094.406, 110.1622
1094.888, 109.7240
1095.370, 110.7985
1095.853, 112.2850
1096.335, 112.3667
1096.817, 111.3855
1097.299, 111.9883
1097.781, 115.9616
1098.263, 118.7466
1098.745, 118.1749
1099.227, 116.9163
1099.709, 116.5766
1100.192, 116.1053
1100.674, 113.3381
1101.156, 109.4066
1101.638, 108.5624
1102.120, 112.6466
1102.602, 115.8310
1103.084, 116.2989
1103.566, 116.1327
1104.049, 115.6606
1104.531, 115.3383
1105.013, 115.6247
1105.495, 116.3175
1105.977, 117.0998
1106.459, 118.1198
1106.941, 117.9407
1107.423, 114.2587
1107.906, 112.2281
1108.388, 115.0062
1108.870, 118.0280
1109.352, 117.9529
1109.834, 116.2313
1110.316, 115.7722
1110.798, 116.8508
1111.280, 116.4325
1111.762, 111.4566
1112.245, 109.2348
1112.727, 112.5113
1113.209, 116.5921
1113.691, 120.1642
1114.173, 122.6694
1114.655, 122.9237
1115.137, 121.1461
1115.619, 120.3354
1116.102, 121.1058
1116.584, 121.7733
1117.066, 122.5660
1117.548, 122.8624
1118.030, 122.0242
1118.512, 121.0566
1118.994, 120.9543
1119.476, 121.5145
1119.958, 121.9694
1120.441, 122.5128
1120.923, 122.2796
1121.405, 120.8695
1121.887, 119.5361
1122.369, 118.4606
1122.851, 117.7848
1123.333, 117.5402
1123.815, 117.8663
1124.297, 119.2317
1124.780, 121.7877
1125.262, 123.3727
1125.744, 123.8240
1126.226, 123.6684
1126.708, 122.5177
1127.190, 122.6084
1127.672, 125.7752
1128.154, 129.2570
1128.636, 128.6555
1129.119, 124.6746
1129.601, 123.5345
1130.083, 125.5724
1130.565, 126.5309
1131.047, 125.8540
1131.529, 125.3164
1132.011, 125.6178
1132.493, 126.4000
1132.976, 127.3622
1133.458, 128.4042
1133.940, 129.3148
1134.422, 130.0731
1134.904, 130.3743
1135.386, 130.2102
1135.868, 129.7840
1136.350, 129.1437
1136.833, 127.8438
1137.315, 125.4921
1137.797, 122.7657
1138.279, 120.5819
1138.761, 119.0171
1139.243, 118.7233
1139.725, 119.3315
1140.207, 118.9023
1140.689, 117.4388
1141.172, 117.3587
1141.654, 119.7880
1142.136, 122.5692
1142.618, 123.3837
1143.100, 123.1005
1143.582, 122.8036
1144.064, 122.6899
1144.546, 123.3480
1145.029, 124.5654
1145.511, 125.7545
1145.993, 126.6451
1146.475, 126.6295
1146.957, 124.7221
1147.439, 123.2301
1147.921, 125.2953
1148.403, 128.3377
1148.885, 129.4194
1149.368, 129.0419
1149.850, 128.2241
1150.332, 127.2333
1150.814, 125.8968
1151.296, 123.9208
1151.778, 123.0280
1152.260, 125.7883
1152.742, 128.2079
1153.224, 126.8989
1153.707, 124.3940
1154.189, 123.3864
1154.671, 123.5233
1155.153, 123.2284
1155.635, 122.1717
1156.117, 121.8575
1156.599, 123.4156
1157.081, 124.8480
1157.563, 125.7476
1158.046, 126.1030
1158.528, 125.9026
1159.010, 125.1552
1159.492, 123.4972
1159.974, 121.1418
1160.456, 119.7160
1160.938, 119.2697
1161.420, 119.9333
1161.903, 123.1683
1162.385, 125.4212
1162.867, 125.1937
1163.349, 124.2504
1163.831, 123.7233
1164.313, 123.6164
1164.795, 124.0045
1165.277, 124.9731
1165.760, 125.7543
1166.242, 126.4108
1166.724, 126.5820
1167.206, 125.9423
1167.688, 125.7501
1168.170, 126.8162
1168.652, 128.1422
1169.134, 128.3177
1169.616, 127.7527
1170.099, 128.7525
1170.581, 128.7718
1171.063, 128.6269
1171.545, 129.9002
1172.027, 128.9470
1172.509, 129.9888
1172.991, 131.4943
1173.473, 132.3404
1173.956, 132.7200
1174.438, 132.6415
1174.920, 132.4533
1175.402, 133.4922
1175.884, 135.4272
1176.366, 137.3952
1176.848, 139.0233
1177.330, 139.1488
1177.813, 137.3494
1178.295, 135.5243
1178.777, 135.5181
1179.259, 134.6424
1179.741, 135.6508
1180.223, 134.9435
1180.705, 135.5979
1181.187, 136.8454
1181.669, 136.8257
1182.151, 135.3640
1182.634, 133.5804
1183.116, 131.6298
1183.598, 130.7935
1184.080, 132.6295
1184.562, 134.9051
1185.044, 136.6730
1185.526, 137.6626
1186.008, 137.0796
1186.490, 135.7134
1186.973, 135.4949
1187.455, 136.8179
1187.937, 137.7605
1188.419, 138.2328
1188.901, 137.8692
1189.383, 135.1725
1189.865, 133.2921
1190.347, 134.7918
1190.830, 137.1358
1191.312, 137.2375
1191.794, 135.7924
1192.276, 136.4780
1192.758, 140.7553
1193.240, 141.9235
1193.722, 138.5411
1194.204, 136.4312
1194.687, 137.2367
1195.169, 138.6562
1195.651, 139.4360
1196.133, 139.3971
1196.615, 137.9845
1197.097, 135.6071
1197.579, 134.8988
1198.061, 135.7682
1198.543, 136.4895
1199.026, 136.9143
1199.508, 137.5995
1199.990, 138.6911
1200.472, 139.1313
1200.954, 137.8749
1201.436, 136.5098
1201.918, 138.1789
1202.400, 141.0421
1202.883, 141.3046
1203.365, 139.7364
1203.847, 137.9157
1204.329, 136.3495
1204.811, 135.5049
1205.293, 135.5544
1205.775, 136.2233
1206.257, 137.7363
1206.740, 139.2280
1207.222, 139.7522
1207.704, 140.2828
1208.186, 142.6068
1208.668, 144.9884
1209.150, 144.3399
1209.632, 141.0706
1210.114, 138.7275
1210.596, 138.3682
1211.078, 138.0534
1211.561, 137.9215
1212.043, 137.0537
1212.525, 133.9131
1213.007, 131.3323
1213.489, 131.8736
1213.971, 133.4955
1214.453, 132.8204
1214.935, 130.0344
1215.417, 128.5696
1215.900, 128.6086
1216.382, 129.4023
1216.864, 131.1398
1217.346, 132.6167
1217.828, 133.4472
1218.310, 134.0224
1218.792, 134.6996
1219.274, 135.0901
1219.757, 134.1897
1220.239, 132.4302
1220.721, 132.0207
1221.203, 132.6827
1221.685, 133.1610
1222.167, 133.2588
1222.649, 132.9184
1223.131, 132.1526
1223.614, 131.2396
1224.096, 130.2613
1224.578, 129.6222
1225.060, 130.1447
1225.542, 130.9190
1226.024, 130.9589
1226.506, 130.4243
1226.988, 129.2548
1227.470, 127.8881
1227.953, 127.3484
1228.435, 127.9274
1228.917, 129.1798
1229.399, 132.2373
1229.881, 134.0547
1230.363, 132.6495
1230.845, 130.8606
1231.327, 130.6855
1231.810, 130.7890
1232.292, 128.9053
1232.774, 125.8636
1233.256, 125.1178
1233.738, 127.2178
1234.220, 129.3428
1234.702, 131.6876
1235.184, 133.4467
1235.667, 134.5641
1236.149, 134.5805
1236.631, 133.0847
1237.113, 131.1545
1237.595, 130.0155
1238.077, 129.5501
1238.559, 129.4212
1239.041, 129.6272
1239.523, 130.5305
1240.005, 131.8048
1240.488, 131.6295
1240.970, 129.8830
1241.452, 128.0693
1241.934, 126.9106
1242.416, 126.8192
1242.898, 129.4002
1243.380, 131.8136
1243.862, 130.3920
1244.344, 127.9527
1244.827, 127.7027
1245.309, 128.7896
1245.791, 129.2531
1246.273, 129.0685
1246.755, 129.9330
1247.237, 133.1727
1247.719, 134.3410
1248.201, 130.2445
1248.684, 127.0402
1249.166, 126.7621
1249.648, 127.6767
1250.130, 129.6614
1250.612, 131.4202
1251.094, 131.0417
1251.576, 128.8802
1252.058, 127.1306
1252.541, 125.7346
1253.023, 125.2972
1253.505, 125.9110
1253.987, 126.6016
1254.469, 127.1490
1254.951, 127.4819
1255.433, 127.5628
1255.915, 127.3013
1256.397, 126.2948
1256.880, 125.2808
1257.362, 125.5732
1257.844, 127.0098
1258.326, 130.5472
1258.808, 134.5290
1259.290, 134.3210
1259.772, 130.3278
1260.254, 128.3031
1260.737, 130.8060
1261.219, 133.5579
1261.701, 134.7721
1262.183, 135.0543
1262.665, 134.5157
1263.147, 133.3482
1263.629, 130.8200
1264.111, 128.2942
1264.594, 127.8261
1265.076, 129.1498
1265.558, 130.3889
1266.040, 131.3869
1266.522, 132.8823
1267.004, 134.9404
1267.486, 137.4535
1267.968, 140.6850
1268.450, 142.8388
1268.932, 142.8510
1269.415, 142.3929
1269.897, 143.3521
1270.379, 145.2148
1270.861, 146.7564
1271.343, 148.1679
1271.825, 150.3006
1272.307, 152.7709
1272.789, 154.2405
1273.271, 154.7167
1273.754, 155.3081
1274.236, 156.4186
1274.718, 157.0827
1275.200, 156.1248
1275.682, 155.3671
1276.164, 156.4119
1276.646, 157.4609
1277.128, 157.6807
1277.611, 156.8278
1278.093, 153.4881
1278.575, 149.0343
1279.057, 148.3222
1279.539, 152.1298
1280.021, 154.1870
1280.503, 154.0917
1280.985, 153.2138
1281.468, 151.5510
1281.950, 149.7720
1282.432, 148.0901
1282.914, 146.4148
1283.396, 144.5440
1283.878, 143.1665
1284.360, 143.9792
1284.842, 146.0638
1285.324, 146.8517
##END=



