##NAMES=Spiroffite
##RRUFFID=R070744
##IDEAL CHEMISTRY=Mn^2+^_2_Te^4+^_3_O_8_
##LOCALITY=Bambollita mine (Oriental mine), Moctezuma, Municipio de Moctezuma, Sonora, Mexico
##OWNER=RRUFF
##SOURCE=Michael Scott
##DESCRIPTION=Massive red-orange/purple crystals; associated with yellow tellurite and quartz
##STATUS=The identification of this mineral has been confirmed by single-crystal X-ray diffraction.
##URL=rruff.info/R070744
119.6452, 14528.12
120.1273, 13226.10
120.6094, 12095.23
121.0915, 11182.37
121.5737, 10488.19
122.0558, 9948.329
122.5379, 9551.424
123.0200, 9277.628
123.5021, 9091.114
123.9842, 9019.029
124.4664, 9008.528
124.9485, 9008.430
125.4306, 9023.759
125.9127, 9018.065
126.3948, 8967.807
126.8769, 8869.199
127.3591, 8703.236
127.8412, 8434.142
128.3233, 8088.264
128.8054, 7724.907
129.2875, 7338.488
129.7696, 6948.469
130.2518, 6586.002
130.7339, 6258.134
131.2160, 5991.203
131.6981, 5800.474
132.1802, 5680.405
132.6623, 5580.020
133.1445, 5487.565
133.6266, 5401.096
134.1087, 5314.578
134.5908, 5229.684
135.0729, 5139.129
135.5550, 5031.716
136.0372, 4907.719
136.5193, 4769.129
137.0014, 4614.276
137.4835, 4444.153
137.9656, 4261.158
138.4477, 4056.381
138.9299, 3842.750
139.4120, 3658.419
139.8941, 3503.167
140.3762, 3375.255
140.8583, 3268.641
141.3404, 3181.525
141.8225, 3124.101
142.3047, 3105.670
142.7868, 3127.690
143.2689, 3137.531
143.7510, 3126.453
144.2331, 3110.839
144.7152, 3110.150
145.1974, 3120.755
145.6795, 3151.299
146.1616, 3205.675
146.6437, 3288.331
147.1258, 3382.165
147.6079, 3489.236
148.0901, 3607.896
148.5722, 3729.299
149.0543, 3872.492
149.5364, 4002.988
150.0185, 4105.038
150.5006, 4195.261
150.9828, 4237.829
151.4649, 4227.016
151.9470, 4164.589
152.4291, 4069.032
152.9112, 3915.747
153.3933, 3744.005
153.8755, 3579.709
154.3576, 3420.575
154.8397, 3274.954
155.3218, 3145.979
155.8039, 3033.350
156.2860, 2930.347
156.7682, 2824.189
157.2503, 2730.760
157.7324, 2669.481
158.2145, 2669.010
158.6966, 2683.371
159.1787, 2694.975
159.6609, 2702.135
160.1430, 2705.156
160.6251, 2698.024
161.1072, 2686.373
161.5893, 2683.300
162.0714, 2695.629
162.5536, 2717.119
163.0357, 2744.224
163.5178, 2785.595
163.9999, 2822.037
164.4820, 2842.234
164.9641, 2848.282
165.4463, 2852.327
165.9284, 2869.880
166.4105, 2885.545
166.8926, 2882.711
167.3747, 2830.683
167.8568, 2775.424
168.3390, 2755.269
168.8211, 2774.252
169.3032, 2785.168
169.7853, 2749.569
170.2674, 2685.364
170.7495, 2623.854
171.2317, 2578.596
171.7138, 2543.389
172.1959, 2512.989
172.6780, 2487.194
173.1601, 2465.259
173.6422, 2443.545
174.1244, 2424.336
174.6065, 2415.319
175.0886, 2422.335
175.5707, 2441.845
176.0528, 2469.218
176.5349, 2504.434
177.0171, 2545.395
177.4992, 2588.766
177.9813, 2634.720
178.4634, 2688.417
178.9455, 2758.411
179.4276, 2838.834
179.9098, 2917.899
180.3919, 2991.121
180.8740, 3060.749
181.3561, 3135.783
181.8382, 3215.960
182.3203, 3292.732
182.8025, 3356.131
183.2846, 3407.800
183.7667, 3456.994
184.2488, 3505.745
184.7309, 3555.107
185.2130, 3603.626
185.6951, 3650.726
186.1773, 3702.348
186.6594, 3764.225
187.1415, 3836.713
187.6236, 3924.844
188.1057, 4034.994
188.5878, 4164.034
189.0700, 4303.911
189.5521, 4453.064
190.0342, 4608.961
190.5163, 4767.014
190.9984, 4925.506
191.4805, 5092.618
191.9627, 5275.536
192.4448, 5472.875
192.9269, 5671.925
193.4090, 5877.393
193.8911, 6079.033
194.3732, 6251.326
194.8554, 6397.739
195.3375, 6504.555
195.8196, 6561.831
196.3017, 6569.873
196.7838, 6528.006
197.2659, 6430.965
197.7481, 6283.025
198.2302, 6105.408
198.7123, 5893.064
199.1944, 5666.221
199.6765, 5449.203
200.1586, 5241.282
200.6408, 5033.079
201.1229, 4813.559
201.6050, 4583.903
202.0871, 4383.132
202.5692, 4214.009
203.0513, 4069.037
203.5335, 3936.044
204.0156, 3814.077
204.4977, 3707.445
204.9798, 3623.907
205.4619, 3569.119
205.9440, 3498.152
206.4262, 3400.187
206.9083, 3292.056
207.3904, 3218.295
207.8725, 3185.956
208.3546, 3168.426
208.8367, 3151.100
209.3189, 3132.841
209.8010, 3118.995
210.2831, 3109.368
210.7652, 3104.374
211.2473, 3104.369
211.7294, 3106.096
212.2116, 3119.357
212.6937, 3154.412
213.1758, 3219.023
213.6579, 3281.204
214.1400, 3335.546
214.6221, 3383.104
215.1043, 3434.867
215.5864, 3493.585
216.0685, 3553.617
216.5506, 3611.958
217.0327, 3676.912
217.5148, 3720.416
217.9970, 3734.251
218.4791, 3717.077
218.9612, 3690.586
219.4433, 3653.610
219.9254, 3608.636
220.4075, 3555.854
220.8897, 3486.276
221.3718, 3428.106
221.8539, 3394.609
222.3360, 3392.933
222.8181, 3377.536
223.3002, 3339.212
223.7824, 3292.950
224.2645, 3267.002
224.7466, 3267.781
225.2287, 3277.520
225.7108, 3290.466
226.1929, 3307.876
226.6750, 3324.984
227.1572, 3341.157
227.6393, 3357.131
228.1214, 3375.556
228.6035, 3398.787
229.0856, 3420.781
229.5677, 3436.771
230.0499, 3438.331
230.5320, 3453.388
231.0141, 3489.146
231.4962, 3539.303
231.9783, 3578.161
232.4604, 3598.422
232.9426, 3616.182
233.4247, 3641.408
233.9068, 3676.542
234.3889, 3713.162
234.8710, 3749.654
235.3531, 3786.805
235.8353, 3829.812
236.3174, 3885.872
236.7995, 3939.766
237.2816, 3978.551
237.7637, 3991.327
238.2458, 4010.787
238.7280, 4047.253
239.2101, 4100.195
239.6922, 4131.064
240.1743, 4129.264
240.6564, 4115.905
241.1385, 4110.291
241.6207, 4116.095
242.1028, 4122.917
242.5849, 4128.521
243.0670, 4132.591
243.5491, 4137.909
244.0313, 4137.493
244.5134, 4144.130
244.9955, 4174.654
245.4776, 4243.197
245.9597, 4311.155
246.4418, 4367.006
246.9240, 4406.166
247.4061, 4460.105
247.8882, 4529.340
248.3703, 4612.385
248.8524, 4709.106
249.3345, 4830.695
249.8167, 4946.857
250.2988, 5046.805
250.7809, 5123.590
251.2630, 5213.925
251.7451, 5328.724
252.2272, 5449.706
252.7094, 5542.399
253.1915, 5597.675
253.6736, 5640.453
254.1557, 5682.269
254.6378, 5732.587
255.1199, 5753.188
255.6021, 5741.656
256.0842, 5701.591
256.5663, 5639.416
257.0484, 5551.162
257.5305, 5447.021
258.0126, 5329.643
258.4948, 5192.449
258.9769, 5058.581
259.4590, 4930.523
259.9411, 4804.856
260.4232, 4665.329
260.9053, 4499.396
261.3875, 4342.181
261.8696, 4210.932
262.3517, 4115.436
262.8338, 4021.793
263.3159, 3926.717
263.7980, 3833.019
264.2802, 3754.334
264.7623, 3692.869
265.2444, 3640.480
265.7265, 3589.402
266.2086, 3535.985
266.6907, 3501.803
267.1729, 3495.337
267.6550, 3508.364
268.1371, 3507.629
268.6192, 3486.722
269.1013, 3466.196
269.5834, 3458.889
270.0656, 3464.948
270.5477, 3484.808
271.0298, 3523.855
271.5119, 3575.803
271.9940, 3612.330
272.4761, 3627.584
272.9583, 3641.750
273.4404, 3670.306
273.9225, 3715.131
274.4046, 3764.993
274.8867, 3820.252
275.3688, 3879.094
275.8510, 3935.986
276.3331, 3991.970
276.8152, 4041.957
277.2973, 4080.060
277.7794, 4105.179
278.2615, 4130.355
278.7437, 4162.937
279.2258, 4196.933
279.7079, 4201.603
280.1900, 4172.423
280.6721, 4131.631
281.1542, 4096.657
281.6364, 4067.440
282.1185, 4042.809
282.6006, 4020.824
283.0827, 4003.361
283.5648, 3998.425
284.0469, 4006.634
284.5291, 4024.243
285.0112, 4044.888
285.4933, 4068.962
285.9754, 4110.600
286.4575, 4175.938
286.9396, 4260.377
287.4217, 4347.577
287.9038, 4437.012
288.3860, 4532.360
288.8681, 4635.790
289.3502, 4746.785
289.8323, 4871.405
290.3144, 5016.420
290.7965, 5173.208
291.2787, 5314.055
291.7608, 5438.221
292.2429, 5559.748
292.7250, 5699.792
293.2071, 5853.073
293.6892, 5992.432
294.1714, 6095.456
294.6535, 6183.476
295.1356, 6313.504
295.6177, 6488.247
296.0998, 6661.100
296.5819, 6785.208
297.0641, 6872.583
297.5462, 6960.469
298.0283, 7060.659
298.5104, 7169.040
298.9925, 7277.164
299.4746, 7385.464
299.9568, 7504.052
300.4389, 7638.956
300.9210, 7791.146
301.4031, 7967.409
301.8852, 8181.520
302.3673, 8411.662
302.8495, 8635.371
303.3316, 8850.618
303.8137, 9060.513
304.2958, 9273.239
304.7779, 9480.296
305.2600, 9662.597
305.7422, 9819.470
306.2243, 9944.514
306.7064, 10038.12
307.1885, 10100.14
307.6706, 10109.98
308.1527, 10055.93
308.6349, 9940.609
309.1170, 9769.006
309.5991, 9520.789
310.0812, 9231.439
310.5633, 8917.570
311.0454, 8577.622
311.5276, 8227.570
312.0097, 7854.828
312.4918, 7485.476
312.9739, 7143.941
313.4560, 6846.970
313.9381, 6576.169
314.4203, 6322.162
314.9024, 6082.689
315.3845, 5875.578
315.8666, 5719.741
316.3487, 5595.129
316.8308, 5482.800
317.3130, 5368.958
317.7951, 5273.307
318.2772, 5209.256
318.7593, 5174.699
319.2414, 5150.375
319.7235, 5132.032
320.2057, 5120.275
320.6878, 5115.597
321.1699, 5115.386
321.6520, 5125.165
322.1341, 5141.674
322.6162, 5166.419
323.0984, 5214.423
323.5805, 5296.989
324.0626, 5398.954
324.5447, 5510.113
325.0268, 5646.495
325.5089, 5773.167
325.9911, 5870.831
326.4732, 5944.226
326.9553, 6052.445
327.4374, 6237.742
327.9195, 6432.509
328.4016, 6598.914
328.8838, 6685.214
329.3659, 6807.469
329.8480, 6985.072
330.3301, 7209.002
330.8122, 7427.453
331.2943, 7643.893
331.7765, 7852.945
332.2586, 8048.975
332.7407, 8211.742
333.2228, 8399.671
333.7049, 8627.469
334.1870, 8884.394
334.6692, 9127.941
335.1513, 9352.124
335.6334, 9576.655
336.1155, 9812.327
336.5976, 10068.17
337.0797, 10312.27
337.5619, 10540.88
338.0440, 10756.45
338.5261, 10956.64
339.0082, 11135.87
339.4903, 11314.33
339.9724, 11511.17
340.4546, 11735.53
340.9367, 11907.03
341.4188, 12011.04
341.9009, 12075.41
342.3830, 12167.78
342.8651, 12293.87
343.3473, 12394.42
343.8294, 12437.79
344.3115, 12426.36
344.7936, 12378.10
345.2757, 12288.81
345.7578, 12175.67
346.2400, 12064.53
346.7221, 11955.75
347.2042, 11831.47
347.6863, 11680.72
348.1684, 11506.38
348.6505, 11315.39
349.1327, 11104.87
349.6148, 10881.85
350.0969, 10652.18
350.5790, 10415.61
351.0611, 10172.17
351.5432, 9920.749
352.0254, 9663.521
352.5075, 9397.892
352.9896, 9124.173
353.4717, 8849.919
353.9538, 8584.446
354.4359, 8324.511
354.9181, 8071.443
355.4002, 7826.939
355.8823, 7588.807
356.3644, 7355.409
356.8465, 7126.878
357.3286, 6903.884
357.8108, 6678.273
358.2929, 6459.667
358.7750, 6255.792
359.2571, 6084.051
359.7392, 5916.009
360.2213, 5729.138
360.7035, 5525.551
361.1856, 5338.667
361.6677, 5189.751
362.1498, 5061.117
362.6319, 4935.637
363.1140, 4808.031
363.5962, 4683.848
364.0783, 4564.447
364.5604, 4449.739
365.0425, 4339.189
365.5246, 4234.026
366.0067, 4131.866
366.4889, 4031.387
366.9710, 3925.028
367.4531, 3827.991
367.9352, 3744.959
368.4173, 3673.382
368.8994, 3601.764
369.3815, 3531.821
369.8636, 3460.539
370.3458, 3386.910
370.8279, 3303.555
371.3100, 3229.386
371.7921, 3165.098
372.2742, 3109.383
372.7563, 3059.220
373.2385, 3016.311
373.7206, 2976.817
374.2027, 2940.996
374.6848, 2911.477
375.1669, 2874.399
375.6490, 2826.036
376.1312, 2773.976
376.6133, 2729.762
377.0954, 2694.116
377.5775, 2662.998
378.0596, 2634.018
378.5417, 2607.764
379.0239, 2588.015
379.5060, 2575.564
379.9881, 2567.808
380.4702, 2562.055
380.9523, 2558.275
381.4344, 2557.184
381.9166, 2561.713
382.3987, 2568.541
382.8808, 2566.411
383.3629, 2554.866
383.8450, 2541.300
384.3271, 2527.557
384.8093, 2516.668
385.2914, 2519.339
385.7735, 2544.245
386.2556, 2578.785
386.7377, 2608.000
387.2198, 2631.740
387.7020, 2649.738
388.1841, 2654.457
388.6662, 2655.324
389.1483, 2665.188
389.6304, 2688.722
390.1125, 2719.608
390.5947, 2757.002
391.0768, 2799.090
391.5589, 2838.939
392.0410, 2872.662
392.5231, 2903.123
393.0052, 2930.634
393.4874, 2949.877
393.9695, 2979.510
394.4516, 3038.412
394.9337, 3111.637
395.4158, 3171.831
395.8979, 3196.575
396.3801, 3219.362
396.8622, 3255.245
397.3443, 3311.190
397.8264, 3359.310
398.3085, 3395.127
398.7906, 3421.123
399.2728, 3440.021
399.7549, 3459.395
400.2370, 3463.333
400.7191, 3444.113
401.2012, 3399.778
401.6833, 3362.527
402.1655, 3336.683
402.6476, 3314.229
403.1297, 3290.050
403.6118, 3268.514
404.0939, 3234.111
404.5760, 3182.238
405.0582, 3115.668
405.5403, 3049.532
406.0224, 2984.505
406.5045, 2919.727
406.9866, 2851.852
407.4688, 2779.763
407.9509, 2721.505
408.4330, 2682.068
408.9151, 2652.260
409.3972, 2611.386
409.8793, 2559.588
410.3615, 2510.188
410.8436, 2474.212
411.3257, 2446.708
411.8078, 2409.560
412.2899, 2359.394
412.7720, 2308.643
413.2542, 2273.104
413.7363, 2249.759
414.2184, 2229.010
414.7005, 2208.544
415.1826, 2187.535
415.6647, 2162.212
416.1469, 2132.547
416.6290, 2109.180
417.1111, 2107.987
417.5932, 2115.606
418.0753, 2114.651
418.5574, 2091.168
419.0396, 2064.724
419.5217, 2044.988
420.0038, 2031.250
420.4859, 2017.437
420.9680, 2000.291
421.4501, 1982.896
421.9323, 1967.671
422.4144, 1953.226
422.8965, 1943.120
423.3786, 1941.599
423.8607, 1945.292
424.3428, 1944.405
424.8250, 1931.536
425.3071, 1919.961
425.7892, 1914.637
426.2713, 1918.022
426.7534, 1921.060
427.2355, 1924.337
427.7177, 1926.883
428.1998, 1926.083
428.6819, 1917.693
429.1640, 1915.413
429.6461, 1924.532
430.1282, 1944.635
430.6104, 1963.534
431.0925, 1982.002
431.5746, 1996.945
432.0567, 2002.712
432.5388, 1998.922
433.0209, 1998.958
433.5031, 2006.511
433.9852, 2018.909
434.4673, 2029.150
434.9494, 2037.309
435.4315, 2047.784
435.9136, 2065.752
436.3958, 2088.424
436.8779, 2108.005
437.3600, 2122.055
437.8421, 2136.257
438.3242, 2155.935
438.8063, 2180.693
439.2885, 2209.378
439.7706, 2245.542
440.2527, 2282.894
440.7348, 2313.492
441.2169, 2335.789
441.6990, 2362.698
442.1812, 2402.360
442.6633, 2450.525
443.1454, 2502.650
443.6275, 2555.813
444.1096, 2614.007
444.5917, 2682.068
445.0739, 2759.236
445.5560, 2831.256
446.0381, 2886.047
446.5202, 2940.911
447.0023, 3005.907
447.4844, 3100.102
447.9666, 3180.462
448.4487, 3235.004
448.9308, 3276.738
449.4129, 3342.903
449.8950, 3444.909
450.3771, 3550.101
450.8592, 3644.528
451.3413, 3723.825
451.8235, 3814.994
452.3056, 3923.933
452.7877, 4035.698
453.2698, 4128.295
453.7519, 4198.959
454.2340, 4277.701
454.7162, 4378.637
455.1983, 4493.422
455.6804, 4596.857
456.1625, 4689.151
456.6446, 4772.289
457.1267, 4849.887
457.6089, 4919.900
458.0910, 4982.420
458.5731, 5039.993
459.0552, 5083.982
459.5373, 5101.373
460.0194, 5095.383
460.5016, 5076.599
460.9837, 5048.879
461.4658, 5012.348
461.9479, 4967.307
462.4300, 4914.210
462.9121, 4851.525
463.3943, 4773.402
463.8764, 4686.940
464.3585, 4602.452
464.8406, 4528.128
465.3227, 4451.117
465.8048, 4365.758
466.2870, 4271.978
466.7691, 4180.216
467.2512, 4087.256
467.7333, 3998.727
468.2154, 3917.719
468.6975, 3844.917
469.1797, 3778.226
469.6618, 3717.546
470.1439, 3663.691
470.6260, 3622.167
471.1081, 3600.006
471.5902, 3572.989
472.0724, 3527.847
472.5545, 3462.494
473.0366, 3407.729
473.5187, 3365.175
474.0008, 3330.099
474.4829, 3297.012
474.9651, 3266.180
475.4472, 3241.123
475.9293, 3225.885
476.4114, 3215.115
476.8935, 3195.672
477.3756, 3168.631
477.8578, 3144.745
478.3399, 3133.084
478.8220, 3129.351
479.3041, 3127.112
479.7862, 3124.692
480.2683, 3124.774
480.7505, 3130.226
481.2326, 3139.658
481.7147, 3150.106
482.1968, 3159.877
482.6789, 3170.693
483.1610, 3183.908
483.6432, 3199.885
484.1253, 3215.202
484.6074, 3233.761
485.0895, 3248.571
485.5716, 3253.694
486.0537, 3226.848
486.5359, 3216.563
487.0180, 3234.899
487.5001, 3274.526
487.9822, 3300.880
488.4643, 3306.956
488.9464, 3310.912
489.4286, 3320.847
489.9107, 3336.823
490.3928, 3359.306
490.8749, 3390.842
491.3570, 3424.613
491.8391, 3448.681
492.3213, 3462.975
492.8034, 3482.966
493.2855, 3513.635
493.7676, 3553.723
494.2497, 3602.870
494.7318, 3660.584
495.2140, 3721.005
495.6961, 3780.688
496.1782, 3839.444
496.6603, 3892.538
497.1424, 3934.073
497.6245, 3982.735
498.1067, 4057.688
498.5888, 4151.562
499.0709, 4247.450
499.5530, 4341.663
500.0351, 4433.471
500.5172, 4521.088
500.9994, 4601.353
501.4815, 4690.435
501.9636, 4801.071
502.4457, 4918.107
502.9278, 5027.652
503.4099, 5106.780
503.8921, 5208.181
504.3742, 5343.855
504.8563, 5506.113
505.3384, 5663.319
505.8205, 5814.702
506.3026, 5963.164
506.7848, 6103.706
507.2669, 6232.657
507.7490, 6394.563
508.2311, 6596.039
508.7132, 6816.993
509.1953, 7035.832
509.6775, 7252.125
510.1596, 7472.365
510.6417, 7695.486
511.1238, 7923.514
511.6059, 8159.565
512.0880, 8404.577
512.5701, 8657.650
513.0522, 8927.189
513.5344, 9203.209
514.0165, 9471.439
514.4986, 9725.194
514.9807, 9982.582
515.4628, 10249.05
515.9449, 10528.72
516.4271, 10824.36
516.9092, 11172.86
517.3913, 11507.10
517.8734, 11806.64
518.3555, 12070.72
518.8376, 12298.81
519.3198, 12474.25
519.8019, 12625.40
520.2840, 12774.89
520.7661, 12955.04
521.2482, 13066.00
521.7303, 13090.72
522.2125, 13051.00
522.6946, 12996.29
523.1767, 12930.08
523.6588, 12832.82
524.1409, 12690.28
524.6230, 12508.83
525.1052, 12318.80
525.5873, 12121.38
526.0694, 11905.34
526.5515, 11655.64
527.0336, 11379.74
527.5157, 11098.64
527.9979, 10821.11
528.4800, 10545.22
528.9621, 10274.93
529.4442, 10008.50
529.9263, 9731.963
530.4084, 9423.397
530.8906, 9115.375
531.3727, 8835.891
531.8548, 8586.917
532.3369, 8346.097
532.8190, 8101.785
533.3011, 7863.200
533.7833, 7642.572
534.2654, 7456.942
534.7475, 7268.317
535.2296, 7073.846
535.7117, 6872.322
536.1938, 6659.757
536.6760, 6421.902
537.1581, 6194.153
537.6402, 5988.379
538.1223, 5806.240
538.6044, 5639.496
539.0865, 5487.125
539.5687, 5348.227
540.0508, 5226.950
540.5329, 5120.066
541.0150, 5015.289
541.4971, 4909.323
541.9792, 4804.105
542.4614, 4700.783
542.9435, 4601.129
543.4256, 4513.418
543.9077, 4451.410
544.3898, 4398.639
544.8719, 4338.122
545.3541, 4266.717
545.8362, 4198.380
546.3183, 4137.860
546.8004, 4084.054
547.2825, 4035.245
547.7646, 3994.798
548.2468, 3955.734
548.7289, 3916.714
549.2110, 3877.985
549.6931, 3840.078
550.1752, 3795.752
550.6573, 3762.413
551.1395, 3752.747
551.6216, 3775.076
552.1037, 3765.537
552.5858, 3711.187
553.0679, 3653.101
553.5500, 3647.994
554.0322, 3693.262
554.5143, 3721.238
554.9964, 3709.078
555.4785, 3679.964
555.9606, 3678.435
556.4427, 3699.817
556.9249, 3718.838
557.4070, 3708.774
557.8891, 3693.939
558.3712, 3705.187
558.8533, 3747.761
559.3354, 3791.260
559.8176, 3818.689
560.2997, 3838.719
560.7818, 3860.340
561.2639, 3881.662
561.7460, 3909.002
562.2281, 3942.765
562.7103, 3983.610
563.1924, 4033.561
563.6745, 4104.349
564.1566, 4168.224
564.6387, 4211.928
565.1208, 4232.651
565.6030, 4265.129
566.0851, 4313.410
566.5672, 4363.545
567.0493, 4397.981
567.5314, 4417.319
568.0135, 4448.310
568.4957, 4499.580
568.9778, 4557.713
569.4599, 4604.804
569.9420, 4640.495
570.4241, 4661.154
570.9063, 4657.681
571.3884, 4642.922
571.8705, 4631.547
572.3526, 4624.168
572.8347, 4607.514
573.3168, 4565.702
573.7990, 4516.457
574.2811, 4476.111
574.7632, 4466.234
575.2453, 4438.543
575.7274, 4374.167
576.2095, 4288.506
576.6917, 4213.939
577.1738, 4161.057
577.6559, 4101.537
578.1380, 4023.801
578.6201, 3929.857
579.1022, 3854.729
579.5844, 3801.817
580.0665, 3754.997
580.5486, 3704.053
581.0307, 3648.650
581.5128, 3587.485
581.9949, 3518.041
582.4771, 3451.257
582.9592, 3404.140
583.4413, 3370.454
583.9234, 3334.763
584.4055, 3282.976
584.8876, 3232.756
585.3698, 3199.562
585.8519, 3180.952
586.3340, 3162.341
586.8161, 3133.203
587.2982, 3106.315
587.7803, 3090.874
588.2625, 3096.304
588.7446, 3090.483
589.2267, 3061.066
589.7088, 3027.246
590.1909, 3010.056
590.6730, 3014.707
591.1552, 3022.604
591.6373, 3032.345
592.1194, 3042.378
592.6015, 3046.422
593.0836, 3043.944
593.5657, 3044.168
594.0479, 3055.499
594.5300, 3073.012
595.0121, 3080.929
595.4942, 3078.557
595.9763, 3078.790
596.4584, 3092.410
596.9406, 3115.057
597.4227, 3140.864
597.9048, 3166.025
598.3869, 3198.221
598.8690, 3254.748
599.3511, 3319.354
599.8333, 3361.617
600.3154, 3350.455
600.7975, 3341.706
601.2796, 3348.512
601.7617, 3370.864
602.2438, 3405.788
602.7260, 3462.649
603.2081, 3516.047
603.6902, 3542.257
604.1723, 3537.285
604.6544, 3563.113
605.1365, 3627.988
605.6187, 3706.955
606.1008, 3766.980
606.5829, 3811.739
607.0650, 3855.626
607.5471, 3899.749
608.0292, 3949.905
608.5114, 4014.973
608.9935, 4091.786
609.4756, 4171.081
609.9577, 4234.909
610.4398, 4307.994
610.9219, 4411.871
611.4041, 4555.613
611.8862, 4681.241
612.3683, 4757.099
612.8504, 4824.759
613.3325, 4915.621
613.8146, 5040.874
614.2968, 5169.822
614.7789, 5300.457
615.2610, 5435.461
615.7431, 5575.646
616.2252, 5719.592
616.7073, 5876.947
617.1895, 6051.417
617.6716, 6241.037
618.1537, 6435.420
618.6358, 6637.241
619.1179, 6850.049
619.6000, 7073.500
620.0822, 7311.310
620.5643, 7566.083
621.0464, 7839.878
621.5285, 8136.015
622.0106, 8459.432
622.4927, 8802.515
622.9749, 9155.844
623.4570, 9481.545
623.9391, 9861.092
624.4212, 10329.76
624.9033, 10857.28
625.3854, 11365.96
625.8676, 11825.89
626.3497, 12321.53
626.8318, 12883.71
627.3139, 13508.16
627.7960, 14156.03
628.2781, 14827.32
628.7603, 15520.88
629.2424, 16220.51
629.7245, 16939.52
630.2066, 17732.01
630.6887, 18607.22
631.1708, 19543.14
631.6530, 20522.67
632.1351, 21549.45
632.6172, 22633.52
633.0993, 23746.15
633.5814, 24935.53
634.0635, 26238.56
634.5457, 27641.34
635.0278, 29099.01
635.5099, 30696.38
635.9920, 32228.90
636.4741, 33628.49
636.9562, 34900.67
637.4384, 36144.80
637.9205, 37423.86
638.4026, 38548.69
638.8847, 39377.74
639.3668, 39915.54
639.8489, 40159.53
640.3311, 40106.47
640.8132, 39758.80
641.2953, 39073.05
641.7774, 38097.09
642.2595, 36914.73
642.7416, 35508.09
643.2238, 33974.26
643.7059, 32316.96
644.1880, 30581.82
644.6701, 28857.15
645.1522, 27169.64
645.6343, 25539.40
646.1165, 23993.08
646.5986, 22515.64
647.0807, 21127.06
647.5628, 19808.78
648.0449, 18585.00
648.5270, 17474.44
649.0092, 16480.04
649.4913, 15565.85
649.9734, 14723.75
650.4555, 13951.41
650.9376, 13251.53
651.4197, 12612.83
651.9019, 12018.49
652.3840, 11458.10
652.8661, 10943.40
653.3482, 10498.97
653.8303, 10111.43
654.3124, 9741.879
654.7946, 9368.039
655.2767, 9008.118
655.7588, 8664.966
656.2408, 8337.526
656.7230, 8049.952
657.2051, 7817.140
657.6872, 7607.652
658.1693, 7402.270
658.6514, 7197.005
659.1335, 7018.924
659.6157, 6874.404
660.0978, 6739.741
660.5799, 6578.104
661.0620, 6395.984
661.5441, 6233.607
662.0262, 6104.110
662.5084, 5995.032
662.9905, 5895.757
663.4726, 5805.046
663.9547, 5719.178
664.4368, 5638.860
664.9189, 5561.659
665.4011, 5487.010
665.8832, 5414.654
666.3653, 5342.662
666.8474, 5260.070
667.3295, 5187.141
667.8116, 5136.008
668.2938, 5114.837
668.7759, 5077.429
669.2580, 5015.327
669.7401, 4955.214
670.2222, 4935.527
670.7043, 4950.808
671.1865, 4940.970
671.6686, 4888.078
672.1507, 4825.015
672.6328, 4790.636
673.1149, 4777.992
673.5970, 4770.756
674.0792, 4762.690
674.5613, 4757.136
675.0434, 4759.871
675.5255, 4768.286
676.0076, 4768.732
676.4897, 4741.083
676.9719, 4721.438
677.4540, 4723.986
677.9361, 4750.956
678.4182, 4779.303
678.9003, 4811.502
679.3824, 4839.814
679.8646, 4852.196
680.3467, 4850.988
680.8288, 4867.148
681.3109, 4905.204
681.7930, 4953.990
682.2751, 5005.573
682.7573, 5058.140
683.2394, 5108.982
683.7215, 5150.906
684.2036, 5197.838
684.6857, 5259.784
685.1678, 5332.666
685.6500, 5408.617
686.1321, 5475.983
686.6142, 5556.697
687.0963, 5660.852
687.5784, 5784.304
688.0605, 5899.936
688.5427, 6003.216
689.0248, 6108.265
689.5069, 6219.632
689.9890, 6338.153
690.4711, 6479.385
690.9532, 6644.144
691.4354, 6823.139
691.9175, 7016.900
692.3996, 7216.463
692.8817, 7404.359
693.3638, 7573.346
693.8459, 7747.938
694.3281, 7954.593
694.8102, 8172.303
695.2923, 8370.489
695.7744, 8533.786
696.2565, 8690.386
696.7386, 8841.438
697.2208, 8988.001
697.7029, 9130.269
698.1850, 9264.121
698.6671, 9408.930
699.1492, 9569.800
699.6313, 9746.063
700.1135, 9931.834
700.5956, 10127.45
701.0777, 10339.59
701.5598, 10572.52
702.0419, 10824.49
702.5240, 11092.58
703.0062, 11373.87
703.4883, 11679.03
703.9704, 12004.21
704.4525, 12360.28
704.9346, 12756.08
705.4167, 13179.51
705.8989, 13663.50
706.3810, 14222.24
706.8631, 14828.74
707.3452, 15450.80
707.8273, 16082.95
708.3094, 16786.71
708.7916, 17582.60
709.2737, 18448.30
709.7558, 19339.37
710.2379, 20254.36
710.7200, 21251.66
711.2021, 22350.14
711.6843, 23549.88
712.1664, 24828.35
712.6485, 26196.50
713.1306, 27688.31
713.6127, 29334.44
714.0948, 31077.57
714.5770, 32860.20
715.0591, 34661.72
715.5412, 36657.68
716.0233, 38843.25
716.5054, 41191.66
716.9875, 43691.04
717.4697, 46320.45
717.9518, 49121.40
718.4339, 52047.00
718.9160, 55142.81
719.3981, 58416.68
719.8802, 61867.34
720.3624, 65421.93
720.8445, 69119.53
721.3266, 72902.01
721.8087, 76775.94
722.2908, 80689.77
722.7729, 84468.69
723.2551, 88254.34
723.7372, 91743.46
724.2193, 94989.73
724.7014, 97910.62
725.1835, 100217.5
725.6656, 101917.1
726.1478, 102973.5
726.6299, 103427.8
727.1120, 103202.4
727.5941, 101992.5
728.0762, 99823.80
728.5583, 97051.35
729.0405, 93745.22
729.5226, 90070.55
730.0047, 86028.43
730.4868, 81641.23
730.9689, 77206.77
731.4510, 72716.26
731.9332, 68314.02
732.4153, 64093.43
732.8974, 59975.96
733.3795, 56128.23
733.8616, 52577.05
734.3438, 49312.98
734.8259, 46363.70
735.3080, 43725.79
735.7901, 41284.34
736.2722, 39018.14
736.7543, 36950.07
737.2365, 35167.95
737.7186, 33616.38
738.2007, 32201.88
738.6828, 30899.94
739.1649, 29714.89
739.6470, 28642.09
740.1292, 27687.72
740.6113, 26864.79
741.0934, 26228.71
741.5755, 25672.47
742.0576, 25185.67
742.5397, 24766.79
743.0219, 24418.25
743.5040, 24139.85
743.9861, 23933.63
744.4682, 23803.09
744.9503, 23745.46
745.4324, 23750.53
745.9146, 23818.19
746.3967, 23951.98
746.8788, 24178.73
747.3609, 24454.28
747.8430, 24746.04
748.3251, 25053.71
748.8073, 25366.72
749.2894, 25701.68
749.7715, 26032.82
750.2536, 26343.04
750.7357, 26638.95
751.2178, 26910.54
751.7000, 27176.55
752.1821, 27380.40
752.6642, 27462.17
753.1463, 27424.51
753.6284, 27267.89
754.1105, 26972.04
754.5927, 26620.99
755.0748, 26300.97
755.5569, 25978.84
756.0390, 25593.63
756.5211, 25066.23
757.0032, 24549.46
757.4854, 24088.42
757.9675, 23669.02
758.4496, 23263.59
758.9317, 22838.77
759.4138, 22495.25
759.8959, 22267.24
760.3781, 22130.06
760.8602, 22008.61
761.3423, 21904.69
761.8244, 21838.87
762.3065, 21838.80
762.7886, 21874.25
763.2708, 21912.87
763.7529, 21953.97
764.2350, 21995.73
764.7171, 22071.35
765.1992, 22118.05
765.6813, 22109.20
766.1635, 22042.74
766.6456, 21899.34
767.1277, 21683.93
767.6098, 21382.07
768.0919, 20986.32
768.5740, 20495.74
769.0562, 19940.34
769.5383, 19321.79
770.0204, 18628.32
770.5025, 17809.71
770.9846, 16918.69
771.4667, 16050.86
771.9489, 15208.94
772.4310, 14388.06
772.9131, 13569.44
773.3952, 12777.22
773.8773, 12037.27
774.3594, 11367.43
774.8416, 10723.02
775.3237, 10089.01
775.8058, 9495.526
776.2879, 8968.650
776.7700, 8508.606
777.2521, 8086.004
777.7343, 7697.596
778.2164, 7337.659
778.6985, 6999.082
779.1806, 6684.073
779.6627, 6388.869
780.1448, 6113.818
780.6270, 5861.068
781.1091, 5634.262
781.5912, 5430.067
782.0733, 5244.684
782.5554, 5083.487
783.0375, 4925.777
783.5197, 4765.939
784.0018, 4607.837
784.4839, 4462.702
784.9660, 4330.028
785.4481, 4209.139
785.9302, 4101.116
786.4124, 4001.789
786.8945, 3908.514
787.3766, 3820.186
787.8587, 3734.737
788.3408, 3650.405
788.8229, 3570.184
789.3051, 3498.908
789.7872, 3437.339
790.2693, 3370.107
790.7514, 3292.725
791.2335, 3218.513
791.7156, 3155.900
792.1978, 3104.231
792.6799, 3054.816
793.1620, 3007.804
793.6441, 2963.061
794.1262, 2921.591
794.6083, 2882.405
795.0905, 2844.327
795.5726, 2806.872
796.0547, 2770.090
796.5368, 2737.329
797.0189, 2702.886
797.5010, 2660.702
797.9832, 2600.600
798.4653, 2559.097
798.9474, 2543.245
799.4295, 2534.842
799.9116, 2514.136
800.3937, 2482.314
800.8759, 2457.764
801.3580, 2445.154
801.8401, 2429.053
802.3222, 2386.548
802.8043, 2331.883
803.2864, 2286.059
803.7686, 2254.590
804.2507, 2233.005
804.7328, 2232.148
805.2149, 2235.160
805.6970, 2216.853
806.1791, 2163.274
806.6613, 2124.419
807.1434, 2109.976
807.6255, 2106.704
808.1076, 2092.376
808.5897, 2068.329
809.0718, 2041.642
809.5540, 2010.800
810.0361, 1984.887
810.5182, 1981.282
811.0003, 1988.034
811.4824, 1981.871
811.9645, 1941.669
812.4467, 1903.304
812.9288, 1874.437
813.4109, 1853.590
813.8930, 1838.835
814.3751, 1831.644
814.8572, 1824.286
815.3394, 1814.656
815.8215, 1803.211
816.3036, 1791.745
816.7857, 1779.546
817.2678, 1763.969
817.7499, 1737.487
818.2321, 1712.328
818.7142, 1696.700
819.1963, 1689.626
819.6784, 1686.415
820.1605, 1692.512
820.6426, 1694.616
821.1247, 1687.860
821.6068, 1674.023
822.0889, 1664.758
822.5710, 1660.683
823.0532, 1654.584
823.5353, 1641.542
824.0174, 1624.342
824.4995, 1605.980
824.9816, 1587.363
825.4637, 1572.028
825.9459, 1563.161
826.4280, 1557.286
826.9101, 1554.216
827.3922, 1554.009
827.8743, 1548.932
828.3564, 1537.311
828.8386, 1523.774
829.3207, 1508.220
829.8028, 1491.924
830.2849, 1485.894
830.7670, 1490.018
831.2491, 1493.735
831.7313, 1490.323
832.2134, 1481.863
832.6955, 1468.444
833.1776, 1450.269
833.6597, 1436.031
834.1418, 1429.369
834.6240, 1426.923
835.1061, 1428.356
835.5882, 1434.802
836.0703, 1433.087
836.5524, 1422.072
837.0345, 1407.499
837.5167, 1390.214
837.9988, 1372.861
838.4809, 1365.063
838.9630, 1367.163
839.4451, 1368.452
839.9272, 1357.437
840.4094, 1345.411
840.8915, 1342.867
841.3736, 1354.370
841.8557, 1359.151
842.3378, 1352.782
842.8199, 1343.767
843.3021, 1338.023
843.7842, 1335.701
844.2663, 1327.829
844.7484, 1313.554
845.2305, 1301.463
845.7126, 1303.536
846.1948, 1310.529
846.6769, 1307.974
847.1590, 1292.595
847.6411, 1280.313
848.1232, 1282.182
848.6053, 1285.857
849.0875, 1282.211
849.5696, 1268.707
850.0517, 1257.980
850.5338, 1250.623
851.0159, 1244.467
851.4980, 1237.731
851.9802, 1230.676
852.4623, 1222.933
852.9444, 1214.172
853.4265, 1209.297
853.9086, 1216.956
854.3907, 1227.193
854.8729, 1230.386
855.3550, 1221.591
855.8371, 1216.297
856.3192, 1216.693
856.8013, 1219.068
857.2834, 1221.119
857.7656, 1222.872
858.2477, 1222.649
858.7298, 1220.167
859.2119, 1217.413
859.6940, 1216.921
860.1761, 1217.040
860.6583, 1215.971
861.1404, 1213.768
861.6225, 1208.564
862.1046, 1193.914
862.5867, 1180.354
863.0688, 1176.490
863.5510, 1186.127
864.0331, 1190.732
864.5152, 1189.937
864.9973, 1185.428
865.4794, 1176.352
865.9615, 1164.966
866.4437, 1157.059
866.9258, 1153.224
867.4079, 1153.101
867.8900, 1159.268
868.3721, 1167.213
868.8542, 1173.675
869.3364, 1179.290
869.8185, 1179.469
870.3006, 1171.519
870.7827, 1162.634
871.2648, 1158.895
871.7469, 1159.821
872.2291, 1159.486
872.7112, 1157.451
873.1933, 1156.824
873.6754, 1162.900
874.1575, 1170.290
874.6396, 1173.095
875.1218, 1169.740
875.6039, 1165.822
876.0860, 1160.950
876.5681, 1157.383
877.0502, 1156.407
877.5323, 1158.124
878.0145, 1161.605
878.4966, 1166.982
878.9787, 1173.085
879.4608, 1180.834
879.9429, 1187.904
880.4250, 1189.631
880.9072, 1185.497
881.3893, 1180.961
881.8714, 1180.344
882.3535, 1178.831
882.8356, 1171.754
883.3177, 1157.568
883.7999, 1152.138
884.2820, 1157.589
884.7641, 1165.298
885.2462, 1170.341
885.7283, 1172.871
886.2104, 1172.743
886.6926, 1170.121
887.1747, 1167.725
887.6568, 1165.378
888.1389, 1165.445
888.6210, 1171.393
889.1031, 1184.178
889.5853, 1190.812
890.0674, 1188.348
890.5495, 1184.749
891.0316, 1184.318
891.5137, 1186.213
891.9958, 1185.245
892.4780, 1181.463
892.9601, 1175.662
893.4422, 1162.114
893.9243, 1151.542
894.4064, 1156.867
894.8885, 1176.634
895.3707, 1191.282
895.8528, 1194.263
896.3349, 1194.186
896.8170, 1193.238
897.2991, 1191.356
897.7813, 1186.815
898.2634, 1179.629
898.7455, 1175.984
899.2276, 1182.517
899.7097, 1192.360
900.1918, 1196.547
900.6740, 1196.543
901.1561, 1197.818
901.6382, 1206.075
902.1203, 1211.550
902.6024, 1209.623
903.0845, 1203.029
903.5667, 1203.367
904.0488, 1212.066
904.5309, 1214.345
905.0130, 1201.058
905.4951, 1183.319
905.9772, 1177.719
906.4594, 1181.918
906.9415, 1189.596
907.4236, 1206.182
907.9057, 1216.852
908.3878, 1211.280
908.8699, 1197.619
909.3521, 1192.500
909.8342, 1198.625
910.3163, 1202.033
910.7984, 1199.168
911.2805, 1193.618
911.7626, 1189.262
912.2448, 1187.122
912.7269, 1190.226
913.2090, 1203.694
913.6911, 1215.740
914.1732, 1219.385
914.6553, 1218.836
915.1375, 1220.479
915.6196, 1226.891
916.1017, 1228.582
916.5838, 1223.959
917.0659, 1216.339
917.5480, 1209.225
918.0302, 1202.673
918.5123, 1197.017
918.9944, 1192.563
919.4765, 1188.125
919.9586, 1179.448
920.4407, 1172.469
920.9229, 1174.119
921.4050, 1191.340
921.8871, 1199.018
922.3692, 1193.855
922.8513, 1186.268
923.3334, 1187.699
923.8156, 1194.984
924.2977, 1194.436
924.7798, 1184.800
925.2619, 1177.182
925.7440, 1181.169
926.2261, 1189.306
926.7083, 1197.303
927.1904, 1205.560
927.6725, 1206.207
928.1546, 1196.408
928.6367, 1184.677
929.1188, 1176.229
929.6010, 1170.107
930.0831, 1158.572
930.5652, 1142.895
931.0473, 1134.586
931.5294, 1152.207
932.0115, 1170.761
932.4937, 1169.750
932.9758, 1150.495
933.4579, 1135.498
933.9400, 1125.901
934.4221, 1121.229
934.9042, 1122.232
935.3864, 1127.320
935.8685, 1132.655
936.3506, 1137.900
936.8327, 1141.413
937.3148, 1143.410
937.7969, 1142.275
938.2791, 1133.812
938.7612, 1121.602
939.2433, 1114.170
939.7254, 1115.497
940.2075, 1116.587
940.6896, 1115.853
941.1718, 1114.826
941.6539, 1118.553
942.1360, 1125.282
942.6181, 1124.446
943.1002, 1110.456
943.5823, 1096.114
944.0645, 1089.891
944.5466, 1089.847
945.0287, 1093.887
945.5108, 1109.347
945.9929, 1114.785
946.4750, 1106.642
946.9572, 1094.358
947.4393, 1086.301
947.9214, 1082.446
948.4035, 1084.343
948.8856, 1092.641
949.3677, 1099.273
949.8499, 1097.974
950.3320, 1092.541
950.8141, 1084.965
951.2962, 1074.360
951.7783, 1068.757
952.2604, 1069.597
952.7426, 1072.781
953.2247, 1077.313
953.7068, 1082.300
954.1889, 1082.673
954.6710, 1078.889
955.1531, 1075.043
955.6353, 1074.424
956.1174, 1073.934
956.5995, 1071.630
957.0816, 1067.540
957.5637, 1062.276
958.0458, 1053.849
958.5280, 1049.229
959.0101, 1051.565
959.4922, 1057.816
959.9743, 1062.137
960.4564, 1064.174
960.9385, 1062.453
961.4207, 1053.482
961.9028, 1044.496
962.3849, 1041.007
962.8670, 1039.564
963.3491, 1033.384
963.8312, 1017.201
964.3134, 1009.726
964.7955, 1013.924
965.2776, 1024.294
965.7597, 1038.751
966.2418, 1053.045
966.7239, 1053.730
967.2061, 1034.786
967.6882, 1020.913
968.1703, 1035.409
968.6524, 1053.271
969.1345, 1051.897
969.6166, 1024.823
970.0988, 1013.252
970.5809, 1019.459
971.0630, 1031.159
971.5451, 1042.980
972.0272, 1052.388
972.5093, 1053.712
972.9915, 1047.433
973.4736, 1039.780
973.9557, 1028.661
974.4378, 1022.103
974.9199, 1027.130
975.4020, 1039.978
975.8842, 1041.543
976.3663, 1030.433
976.8484, 1021.801
977.3305, 1023.263
977.8126, 1027.987
978.2947, 1025.387
978.7769, 1018.317
979.2590, 1013.221
979.7411, 1012.088
980.2232, 1013.726
980.7053, 1021.117
981.1874, 1028.609
981.6696, 1026.760
982.1517, 1015.244
982.6338, 1008.929
983.1159, 1010.408
983.5980, 1014.460
984.0801, 1016.607
984.5623, 1017.974
985.0444, 1020.430
985.5264, 1025.466
986.0085, 1026.598
986.4907, 1022.629
986.9728, 1015.664
987.4549, 1004.533
987.9370, 990.3907
988.4191, 986.6453
988.9012, 992.8473
989.3834, 1001.019
989.8655, 1007.845
990.3476, 1012.972
990.8297, 1015.755
991.3118, 1016.482
991.7939, 1016.941
992.2761, 1017.005
992.7582, 1017.417
993.2403, 1018.384
993.7224, 1019.799
994.2045, 1022.663
994.6866, 1025.887
995.1688, 1025.440
995.6509, 1017.024
996.1330, 1009.966
996.6151, 1010.575
997.0972, 1014.621
997.5793, 1016.314
998.0615, 1014.044
998.5436, 1015.662
999.0257, 1022.795
999.5078, 1028.471
999.9899, 1021.355
1000.472, 1009.403
1000.954, 1007.468
1001.436, 1017.340
1001.918, 1027.815
1002.401, 1040.022
1002.883, 1045.433
1003.365, 1037.166
1003.847, 1017.522
1004.329, 1009.653
1004.811, 1013.696
1005.293, 1021.907
1005.775, 1036.779
1006.257, 1048.045
1006.740, 1038.760
1007.222, 1017.521
1007.704, 1005.134
1008.186, 1018.386
1008.668, 1025.435
1009.150, 1020.692
1009.632, 1011.048
1010.114, 1006.046
1010.596, 1005.359
1011.079, 1008.449
1011.561, 1016.059
1012.043, 1022.512
1012.525, 1020.621
1013.007, 1017.290
1013.489, 1018.946
1013.971, 1026.777
1014.453, 1037.171
1014.936, 1052.928
1015.418, 1062.188
1015.900, 1050.636
1016.382, 1028.980
1016.864, 1023.548
1017.346, 1031.727
1017.828, 1038.977
1018.310, 1037.592
1018.792, 1034.903
1019.275, 1033.204
1019.757, 1032.336
1020.239, 1032.665
1020.721, 1034.402
1021.203, 1032.303
1021.685, 1023.577
1022.167, 1015.023
1022.649, 1015.431
1023.132, 1020.490
1023.614, 1024.296
1024.096, 1025.183
1024.578, 1025.705
1025.060, 1026.137
1025.542, 1026.192
1026.024, 1025.162
1026.506, 1023.412
1026.989, 1023.603
1027.471, 1025.655
1027.953, 1027.720
1028.435, 1028.220
1028.917, 1028.688
1029.399, 1030.912
1029.881, 1034.172
1030.363, 1034.564
1030.845, 1031.723
1031.328, 1026.597
1031.810, 1017.613
1032.292, 1009.769
1032.774, 1013.590
1033.256, 1024.146
1033.738, 1031.598
1034.220, 1031.793
1034.702, 1030.865
1035.184, 1030.137
1035.667, 1029.058
1036.149, 1026.906
1036.631, 1023.666
1037.113, 1021.514
1037.595, 1020.534
1038.077, 1019.231
1038.559, 1014.899
1039.041, 1010.967
1039.524, 1009.389
1040.006, 1010.622
1040.488, 1017.980
1040.970, 1037.746
1041.452, 1047.440
1041.934, 1036.016
1042.416, 1015.945
1042.898, 1012.698
1043.380, 1021.494
1043.863, 1029.210
1044.345, 1030.632
1044.827, 1031.922
1045.309, 1039.067
1045.791, 1044.514
1046.273, 1038.067
1046.755, 1016.987
1047.237, 1015.873
1047.719, 1037.365
1048.202, 1058.185
1048.684, 1055.829
1049.166, 1045.364
1049.648, 1042.746
1050.130, 1048.155
1050.612, 1049.856
1051.094, 1044.113
1051.576, 1039.573
1052.059, 1039.028
1052.541, 1040.713
1053.023, 1040.421
1053.505, 1038.803
1053.987, 1037.869
1054.469, 1038.071
1054.951, 1039.505
1055.433, 1042.862
1055.916, 1047.097
1056.398, 1050.955
1056.880, 1054.095
1057.362, 1060.508
1057.844, 1070.934
1058.326, 1077.223
1058.808, 1068.232
1059.290, 1054.725
1059.772, 1045.891
1060.255, 1042.767
1060.737, 1050.321
1061.219, 1081.958
1061.701, 1099.738
1062.183, 1089.418
1062.665, 1066.290
1063.147, 1064.232
1063.629, 1077.229
1064.111, 1085.763
1064.594, 1084.443
1065.076, 1077.647
1065.558, 1060.492
1066.040, 1044.099
1066.522, 1037.983
1067.004, 1043.241
1067.486, 1053.506
1067.968, 1069.626
1068.450, 1080.335
1068.933, 1072.761
1069.415, 1059.228
1069.897, 1051.051
1070.379, 1048.235
1070.861, 1049.386
1071.343, 1056.757
1071.825, 1063.292
1072.307, 1067.991
1072.790, 1070.844
1073.272, 1069.667
1073.754, 1066.683
1074.236, 1069.363
1074.718, 1081.755
1075.200, 1089.557
1075.682, 1085.149
1076.164, 1074.035
1076.646, 1057.287
1077.129, 1034.838
1077.611, 1027.347
1078.093, 1034.771
1078.575, 1045.222
1079.057, 1053.344
1079.539, 1059.477
1080.021, 1064.234
1080.503, 1067.107
1080.985, 1065.903
1081.468, 1055.682
1081.950, 1054.984
1082.432, 1069.858
1082.914, 1084.366
1083.396, 1073.766
1083.878, 1049.608
1084.360, 1034.236
1084.842, 1031.085
1085.325, 1031.652
1085.807, 1033.504
1086.289, 1038.174
1086.771, 1048.137
1087.253, 1061.192
1087.735, 1066.101
1088.217, 1063.374
1088.699, 1056.846
1089.182, 1044.278
1089.664, 1034.021
1090.146, 1032.556
1090.628, 1036.703
1091.110, 1042.418
1091.592, 1051.146
1092.074, 1055.111
1092.556, 1053.614
1093.038, 1049.800
1093.521, 1046.429
1094.003, 1042.545
1094.485, 1035.647
1094.967, 1026.216
1095.449, 1020.120
1095.931, 1017.229
1096.413, 1020.953
1096.895, 1035.674
1097.377, 1053.403
1097.860, 1054.611
1098.342, 1044.025
1098.824, 1036.117
1099.306, 1034.208
1099.788, 1036.885
1100.270, 1049.698
1100.752, 1061.610
1101.234, 1063.573
1101.717, 1055.302
1102.199, 1052.300
1102.681, 1054.466
1103.163, 1055.786
1103.645, 1049.439
1104.127, 1043.404
1104.609, 1047.381
1105.091, 1056.494
1105.573, 1056.858
1106.056, 1043.367
1106.538, 1035.744
1107.020, 1037.600
1107.502, 1041.542
1107.984, 1037.794
1108.466, 1030.728
1108.948, 1026.824
1109.430, 1026.882
1109.912, 1029.169
1110.395, 1037.131
1110.877, 1041.256
1111.359, 1036.107
1111.841, 1026.074
1112.323, 1024.540
1112.805, 1029.962
1113.287, 1037.853
1113.769, 1051.694
1114.252, 1057.976
1114.734, 1044.340
1115.216, 1024.857
1115.698, 1011.102
1116.180, 1002.919
1116.662, 1005.693
1117.144, 1019.581
1117.626, 1031.385
1118.109, 1030.924
1118.591, 1025.365
1119.073, 1016.723
1119.555, 1007.693
1120.037, 1006.997
1120.519, 1017.150
1121.001, 1027.749
1121.483, 1038.411
1121.965, 1044.239
1122.448, 1034.255
1122.930, 1017.518
1123.412, 1006.721
1123.894, 1003.932
1124.376, 1005.360
1124.858, 1013.389
1125.340, 1019.451
1125.822, 1019.406
1126.304, 1015.167
1126.787, 1009.963
1127.269, 1005.047
1127.751, 1004.451
1128.233, 1013.729
1128.715, 1021.308
1129.197, 1025.141
1129.679, 1024.629
1130.161, 1015.759
1130.644, 999.5745
1131.126, 996.9087
1131.608, 1007.713
1132.090, 1018.597
1132.572, 1024.153
1133.054, 1023.653
1133.536, 1010.859
1134.018, 992.4351
1134.500, 987.1426
1134.983, 996.8387
1135.465, 1000.906
1135.947, 994.2079
1136.429, 988.6141
1136.911, 1001.106
1137.393, 1018.223
1137.875, 1025.940
1138.357, 1021.421
1138.839, 1013.837
1139.322, 1001.318
1139.804, 992.8824
1140.286, 993.8149
1140.768, 999.2172
1141.250, 999.9781
1141.732, 999.0711
1142.214, 1002.612
1142.696, 1020.032
1143.179, 1026.943
1143.661, 1016.545
1144.143, 1005.158
1144.625, 1008.796
1145.107, 1021.668
1145.589, 1023.596
1146.071, 1016.056
1146.553, 1010.228
1147.036, 1012.686
1147.518, 1015.964
1148.000, 1018.367
1148.482, 1019.797
1148.964, 1019.007
1149.446, 1016.695
1149.928, 1017.614
1150.410, 1022.566
1150.892, 1029.128
1151.375, 1038.604
1151.857, 1046.460
1152.339, 1049.870
1152.821, 1049.206
1153.303, 1044.979
1153.785, 1037.248
1154.267, 1030.097
1154.749, 1024.079
1155.231, 1020.863
1155.714, 1023.273
1156.196, 1028.539
1156.678, 1034.080
1157.160, 1040.432
1157.642, 1041.898
1158.124, 1037.631
1158.606, 1034.706
1159.088, 1039.163
1159.571, 1046.154
1160.053, 1051.764
1160.535, 1055.365
1161.017, 1054.975
1161.499, 1046.822
1161.981, 1043.905
1162.463, 1049.118
1162.945, 1053.284
1163.427, 1042.667
1163.910, 1026.739
1164.392, 1020.762
1164.874, 1024.977
1165.356, 1029.777
1165.838, 1032.757
1166.320, 1036.736
1166.802, 1043.757
1167.284, 1049.790
1167.766, 1044.623
1168.249, 1033.702
1168.731, 1030.861
1169.213, 1040.836
1169.695, 1046.433
1170.177, 1038.151
1170.659, 1028.916
1171.141, 1025.106
1171.623, 1024.174
1172.106, 1013.754
1172.588, 997.6985
1173.070, 991.0779
1173.552, 1006.460
1174.034, 1020.566
1174.516, 1024.192
1174.998, 1022.598
1175.480, 1018.335
1175.963, 1011.624
1176.445, 1006.704
1176.927, 1003.618
1177.409, 1002.261
1177.891, 1003.066
1178.373, 1005.097
1178.855, 1011.403
1179.337, 1016.836
1179.819, 1011.821
1180.302, 996.0347
1180.784, 984.6343
1181.266, 978.7923
1181.748, 981.2487
1182.230, 1004.600
1182.712, 1027.543
1183.194, 1032.464
1183.676, 1023.097
1184.158, 1014.822
1184.641, 1007.482
1185.123, 1002.660
1185.605, 1001.194
1186.087, 1000.550
1186.569, 997.8474
1187.051, 995.0015
1187.533, 994.4656
1188.015, 996.5277
1188.498, 996.0032
1188.980, 992.4211
1189.462, 989.6511
1189.944, 989.1009
1190.426, 990.5040
1190.908, 994.8694
1191.390, 1000.473
1191.872, 1005.389
1192.354, 1012.183
1192.837, 1007.845
1193.319, 989.9794
1193.801, 972.8718
1194.283, 965.4803
1194.765, 965.1594
1195.247, 972.2098
1195.729, 983.2491
1196.211, 989.0004
1196.693, 984.6016
1197.176, 983.1918
1197.658, 986.3212
1198.140, 990.0533
1198.622, 990.1507
1199.104, 988.4976
1199.586, 988.7390
1200.068, 990.3917
1200.550, 987.8101
1201.033, 973.0764
1201.515, 970.4254
1201.997, 988.7407
1202.479, 1009.591
1202.961, 1001.506
1203.443, 980.0452
1203.925, 971.2407
1204.407, 979.3278
1204.890, 988.7181
1205.372, 1001.019
1205.854, 1005.015
1206.336, 992.9261
1206.818, 976.3931
1207.300, 984.8510
1207.782, 1005.038
1208.264, 1007.947
1208.746, 978.3885
1209.229, 962.4279
1209.711, 970.6052
1210.193, 984.2563
1210.675, 996.5772
1211.157, 1005.343
1211.639, 1000.295
1212.121, 987.7095
1212.603, 984.3048
1213.085, 1007.470
1213.568, 1020.211
1214.050, 1016.348
1214.532, 1005.828
1215.014, 992.9256
1215.496, 980.3241
1215.978, 978.3033
1216.460, 984.6537
1216.942, 990.1239
1217.425, 985.9518
1217.907, 988.9526
1218.389, 1007.141
1218.871, 1023.888
1219.353, 1013.238
1219.835, 986.8619
1220.317, 980.1288
1220.799, 993.0349
1221.281, 1002.384
1221.764, 993.5365
1222.246, 986.8982
1222.728, 987.9643
1223.210, 992.2280
1223.692, 990.3517
1224.174, 986.0290
1224.656, 991.8612
1225.138, 1010.141
1225.620, 1021.753
1226.103, 1015.801
1226.585, 1005.571
1227.067, 992.7422
1227.549, 980.2608
1228.031, 975.8318
1228.513, 977.0421
1228.995, 977.3077
1229.477, 974.6677
1229.960, 973.4030
1230.442, 973.5280
1230.924, 977.4999
1231.406, 988.9114
1231.888, 1003.158
1232.370, 1006.274
1232.852, 1001.178
1233.334, 995.8106
1233.816, 992.4561
1234.299, 989.6425
1234.781, 986.6949
1235.263, 984.7393
1235.745, 985.5362
1236.227, 987.5424
1236.709, 983.9416
1237.191, 977.1213
1237.673, 974.7575
1238.156, 983.4186
1238.638, 992.0909
1239.120, 1001.596
1239.602, 1006.852
1240.084, 999.7820
1240.566, 985.7980
1241.048, 979.3393
1241.530, 979.7800
1242.012, 982.4720
1242.495, 986.9333
1242.977, 992.4462
1243.459, 1000.962
1243.941, 1006.282
1244.423, 995.9205
1244.905, 978.8022
1245.387, 975.8962
1245.869, 986.9244
1246.351, 999.2493
1246.834, 1013.950
1247.316, 1020.629
1247.798, 1014.837
1248.280, 1006.167
1248.762, 1008.347
1249.244, 1016.882
1249.726, 1026.142
1250.208, 1035.281
1250.691, 1032.532
1251.173, 1004.497
1251.655, 990.6534
1252.137, 1005.744
1252.619, 1028.538
1253.101, 1021.508
1253.583, 1001.439
1254.065, 997.2798
1254.547, 1015.315
1255.030, 1025.248
1255.512, 1022.338
1255.994, 1017.853
1256.476, 1015.669
1256.958, 1014.092
1257.440, 1009.984
1257.922, 1005.003
1258.404, 1001.836
1258.886, 1001.746
1259.369, 998.6797
1259.851, 990.5032
1260.333, 988.3895
1260.815, 1001.940
1261.297, 1017.391
1261.779, 1014.556
1262.261, 1002.446
1262.743, 993.7222
1263.226, 988.9020
1263.708, 995.8977
1264.190, 1017.844
1264.672, 1030.121
1265.154, 1007.372
1265.636, 980.2163
1266.118, 984.7924
1266.600, 1004.720
1267.083, 1012.544
1267.565, 1003.278
1268.047, 997.0626
1268.529, 994.0747
1269.011, 991.5879
1269.493, 984.8341
1269.975, 980.7291
1270.457, 989.6321
1270.939, 1002.817
1271.422, 1003.526
1271.904, 989.2684
1272.386, 985.2454
1272.868, 992.3183
1273.350, 1000.634
1273.832, 1006.087
1274.314, 1007.578
1274.796, 1000.711
1275.278, 991.1268
1275.761, 987.5946
1276.243, 989.9531
1276.725, 995.5508
1277.207, 1004.009
1277.689, 1008.601
1278.171, 1001.175
1278.653, 993.3564
1279.135, 990.1284
1279.618, 989.9841
1280.100, 991.7888
1280.582, 994.6789
1281.064, 993.0493
1281.546, 986.3632
1282.028, 980.9548
1282.510, 980.3758
1282.992, 981.5394
1283.474, 983.7039
1283.957, 986.4839
1284.439, 990.2058
1284.921, 993.8370
1285.403, 993.7500
1285.885, 989.3374
1286.367, 985.6899
1286.849, 981.6009
1287.331, 984.2412
1287.813, 999.3475
1288.296, 1015.628
1288.778, 1009.331
1289.260, 991.6526
1289.742, 983.7475
1290.224, 990.1151
1290.706, 991.6406
1291.188, 983.3703
1291.670, 978.9160
1292.153, 983.8797
1292.635, 991.9511
1293.117, 995.6960
1293.599, 995.8065
1294.081, 991.6026
1294.563, 981.8503
1295.045, 980.8573
1295.527, 990.5493
1296.010, 997.1258
1296.492, 994.2715
1296.974, 989.2269
1297.456, 991.3784
1297.938, 994.7919
1298.420, 990.6369
1298.902, 978.7593
1299.384, 976.8157
1299.866, 984.7513
1300.349, 991.1877
1300.831, 991.3812
##END=



