##NAMES=Spodumene
##RRUFFID=R040050
##IDEAL CHEMISTRY=LiAlSi_2_O_6_
##LOCALITY=Minas Gerais, Brazil
##OWNER=RRUFF
##SOURCE=University of Arizona Mineral Museum
##DESCRIPTION=Pale pink fragment of a single crystal, variety kunzite
##STATUS=The identification of this mineral has been confirmed by X-ray diffraction and chemical analysis
##URL=rruff.info/R040050
##MEASURED CHEMISTRY=(Li_0.99_Na_0.01_)Al_1.00_Si_2.00_O_6_
137.5874, 5355.240
138.0696, 5366.485
138.5517, 5346.387
139.0338, 5333.465
139.5159, 5339.348
139.9980, 5361.249
140.4801, 5368.282
140.9623, 5352.939
141.4444, 5335.893
141.9265, 5342.606
142.4086, 5383.547
142.8907, 5417.167
143.3728, 5430.200
143.8550, 5419.027
144.3371, 5418.265
144.8192, 5431.028
145.3013, 5451.716
145.7834, 5472.094
146.2655, 5494.247
146.7477, 5513.580
147.2298, 5528.467
147.7119, 5536.814
148.1940, 5546.624
148.6761, 5556.248
149.1582, 5567.842
149.6404, 5586.003
150.1225, 5625.000
150.6046, 5656.657
151.0867, 5669.781
151.5688, 5642.971
152.0509, 5629.768
152.5331, 5637.000
153.0152, 5658.468
153.4973, 5675.966
153.9794, 5680.794
154.4615, 5686.886
154.9436, 5700.267
155.4258, 5734.465
155.9079, 5760.174
156.3900, 5770.403
156.8721, 5768.129
157.3542, 5768.292
157.8363, 5770.515
158.3185, 5777.778
158.8006, 5791.983
159.2827, 5828.396
159.7648, 5856.849
160.2469, 5866.125
160.7290, 5858.333
161.2112, 5852.274
161.6933, 5860.668
162.1754, 5870.283
162.6575, 5870.107
163.1396, 5837.998
163.6217, 5812.338
164.1039, 5812.417
164.5860, 5837.983
165.0681, 5865.465
165.5502, 5887.897
166.0323, 5905.191
166.5145, 5917.576
166.9966, 5916.390
167.4787, 5916.729
167.9608, 5931.497
168.4429, 5962.151
168.9250, 5988.157
169.4071, 5987.418
169.8893, 5975.230
170.3714, 5975.484
170.8535, 6015.889
171.3356, 6062.543
171.8177, 6085.399
172.2998, 6080.146
172.7820, 6068.001
173.2641, 6059.081
173.7462, 6055.127
174.2283, 6059.699
174.7104, 6085.405
175.1925, 6115.997
175.6747, 6130.306
176.1568, 6123.719
176.6389, 6112.673
177.1210, 6111.401
177.6031, 6118.401
178.0852, 6128.874
178.5674, 6141.100
179.0495, 6154.897
179.5316, 6172.230
180.0137, 6196.056
180.4958, 6216.074
180.9779, 6211.557
181.4601, 6188.422
181.9422, 6176.024
182.4243, 6206.385
182.9064, 6260.068
183.3885, 6290.771
183.8706, 6284.510
184.3528, 6267.548
184.8349, 6282.323
185.3170, 6325.874
185.7991, 6370.641
186.2812, 6395.141
186.7633, 6404.272
187.2455, 6416.370
187.7276, 6436.904
188.2097, 6458.327
188.6918, 6466.262
189.1739, 6460.631
189.6560, 6449.505
190.1382, 6433.190
190.6203, 6414.100
191.1024, 6408.726
191.5845, 6424.958
192.0666, 6452.414
192.5487, 6462.498
193.0309, 6453.475
193.5130, 6448.780
193.9951, 6476.656
194.4772, 6534.742
194.9593, 6573.823
195.4414, 6581.437
195.9236, 6565.417
196.4057, 6547.556
196.8878, 6526.683
197.3699, 6510.295
197.8520, 6506.922
198.3341, 6516.840
198.8163, 6526.039
199.2984, 6529.604
199.7805, 6530.281
200.2626, 6543.724
200.7447, 6573.103
201.2268, 6602.783
201.7090, 6614.175
202.1911, 6604.652
202.6732, 6602.419
203.1553, 6615.436
203.6374, 6641.412
204.1195, 6666.363
204.6017, 6691.466
205.0838, 6712.648
205.5659, 6722.887
206.0480, 6719.118
206.5301, 6723.374
207.0122, 6747.862
207.4944, 6788.481
207.9765, 6792.605
208.4586, 6746.457
208.9407, 6691.906
209.4228, 6674.758
209.9049, 6703.787
210.3871, 6735.686
210.8692, 6760.770
211.3513, 6779.236
211.8334, 6798.142
212.3155, 6818.531
212.7976, 6837.730
213.2798, 6852.869
213.7619, 6863.644
214.2440, 6871.402
214.7261, 6875.692
215.2082, 6876.458
215.6903, 6878.167
216.1725, 6878.721
216.6546, 6883.103
217.1367, 6898.334
217.6188, 6929.223
218.1009, 6959.002
218.5830, 6986.692
219.0651, 7013.090
219.5473, 7018.759
220.0294, 6989.997
220.5115, 6957.034
220.9936, 6957.801
221.4757, 7008.239
221.9578, 7055.493
222.4400, 7088.278
222.9221, 7106.186
223.4042, 7113.607
223.8863, 7103.928
224.3684, 7091.087
224.8505, 7092.333
225.3327, 7115.366
225.8148, 7136.179
226.2969, 7147.836
226.7790, 7149.351
227.2611, 7156.604
227.7432, 7174.232
228.2254, 7193.401
228.7075, 7202.318
229.1896, 7191.747
229.6717, 7190.077
230.1538, 7208.256
230.6359, 7249.510
231.1181, 7274.008
231.6002, 7274.447
232.0823, 7265.032
232.5644, 7259.949
233.0465, 7254.477
233.5286, 7262.440
234.0108, 7290.932
234.4929, 7342.747
234.9750, 7385.111
235.4571, 7419.070
235.9392, 7441.971
236.4213, 7448.313
236.9035, 7424.294
237.3856, 7409.306
237.8677, 7413.020
238.3498, 7436.811
238.8319, 7462.413
239.3140, 7492.136
239.7962, 7521.642
240.2783, 7546.630
240.7604, 7565.208
241.2425, 7583.001
241.7246, 7601.898
242.2067, 7622.389
242.6889, 7637.700
243.1710, 7647.762
243.6531, 7652.597
244.1352, 7649.234
244.6173, 7622.630
245.0994, 7617.539
245.5816, 7652.798
246.0637, 7729.643
246.5458, 7772.339
247.0279, 7758.117
247.5100, 7733.206
247.9921, 7743.543
248.4743, 7811.886
248.9564, 7870.030
249.4385, 7904.884
249.9206, 7916.973
250.4027, 7929.399
250.8848, 7945.160
251.3670, 7957.965
251.8491, 7962.436
252.3312, 7958.131
252.8133, 7945.598
253.2954, 7918.678
253.7775, 7879.351
254.2597, 7862.769
254.7418, 7879.411
255.2239, 7905.437
255.7060, 7922.159
256.1881, 7926.273
256.6702, 7928.277
257.1523, 7925.501
257.6345, 7920.125
258.1166, 7934.337
258.5987, 7980.378
259.0808, 8027.497
259.5629, 8052.380
260.0450, 8047.302
260.5272, 8039.177
261.0093, 8027.384
261.4914, 8014.587
261.9735, 8018.643
262.4556, 8049.250
262.9377, 8079.767
263.4199, 8090.331
263.9020, 8073.479
264.3841, 8060.566
264.8662, 8053.296
265.3483, 8052.237
265.8304, 8059.872
266.3126, 8077.659
266.7947, 8101.126
267.2768, 8131.593
267.7589, 8176.564
268.2410, 8198.792
268.7231, 8186.886
269.2053, 8155.640
269.6874, 8150.120
270.1695, 8178.117
270.6516, 8211.047
271.1337, 8232.802
271.6158, 8240.786
272.0980, 8252.543
272.5801, 8271.137
273.0622, 8291.598
273.5443, 8298.359
274.0264, 8285.359
274.5085, 8279.896
274.9907, 8299.787
275.4728, 8349.026
275.9549, 8388.113
276.4370, 8415.023
276.9191, 8433.229
277.4012, 8447.184
277.8834, 8455.841
278.3655, 8466.745
278.8476, 8486.248
279.3297, 8515.305
279.8118, 8532.371
280.2939, 8534.028
280.7761, 8531.157
281.2582, 8541.348
281.7403, 8565.959
282.2224, 8589.618
282.7045, 8606.740
283.1866, 8617.640
283.6688, 8623.021
284.1509, 8619.755
284.6330, 8620.547
285.1151, 8645.668
285.5972, 8694.916
286.0793, 8740.543
286.5615, 8773.805
287.0436, 8795.688
287.5257, 8807.918
288.0078, 8808.628
288.4899, 8810.020
288.9720, 8826.223
289.4542, 8856.060
289.9363, 8887.407
290.4184, 8918.871
290.9005, 8948.557
291.3826, 8968.876
291.8647, 8979.222
292.3469, 8991.889
292.8290, 9017.007
293.3111, 9053.587
293.7932, 9100.638
294.2753, 9165.876
294.7574, 9233.529
295.2396, 9267.419
295.7217, 9269.188
296.2038, 9264.674
296.6859, 9276.834
297.1680, 9298.392
297.6501, 9307.895
298.1323, 9297.440
298.6144, 9280.689
299.0965, 9278.623
299.5786, 9289.237
300.0607, 9299.022
300.5428, 9301.229
301.0250, 9296.503
301.5071, 9286.881
301.9892, 9273.595
302.4713, 9252.146
302.9534, 9204.602
303.4355, 9141.277
303.9177, 9094.695
304.3998, 9090.820
304.8819, 9112.008
305.3640, 9138.809
305.8461, 9170.854
306.3282, 9201.309
306.8104, 9231.420
307.2925, 9255.840
307.7746, 9262.689
308.2567, 9217.577
308.7388, 9169.828
309.2209, 9174.516
309.7031, 9236.725
310.1852, 9296.843
310.6673, 9312.304
311.1494, 9300.682
311.6315, 9287.264
312.1136, 9277.054
312.5958, 9271.727
313.0779, 9268.076
313.5600, 9267.018
314.0421, 9281.410
314.5242, 9332.554
315.0063, 9396.385
315.4885, 9448.959
315.9706, 9482.528
316.4527, 9504.222
316.9348, 9513.600
317.4169, 9512.691
317.8990, 9510.840
318.3812, 9513.782
318.8633, 9516.085
319.3454, 9513.317
319.8275, 9498.448
320.3096, 9488.440
320.7917, 9491.115
321.2739, 9502.927
321.7560, 9514.681
322.2381, 9520.362
322.7202, 9528.537
323.2023, 9543.600
323.6844, 9568.047
324.1666, 9594.867
324.6487, 9624.988
325.1308, 9656.102
325.6129, 9684.411
326.0950, 9716.666
326.5771, 9738.993
327.0593, 9740.459
327.5414, 9709.975
328.0235, 9702.996
328.5056, 9744.476
328.9877, 9801.521
329.4698, 9839.402
329.9520, 9841.012
330.4341, 9843.813
330.9162, 9856.283
331.3983, 9879.067
331.8804, 9892.423
332.3625, 9892.721
332.8447, 9886.889
333.3268, 9878.564
333.8089, 9858.677
334.2910, 9853.786
334.7731, 9872.696
335.2552, 9910.171
335.7374, 9935.331
336.2195, 9938.194
336.7016, 9945.033
337.1837, 9973.100
337.6658, 10030.12
338.1479, 10082.58
338.6301, 10131.32
339.1122, 10172.28
339.5943, 10191.35
340.0764, 10180.77
340.5585, 10173.08
341.0406, 10183.47
341.5227, 10213.00
342.0049, 10246.47
342.4870, 10286.50
342.9691, 10325.56
343.4512, 10352.74
343.9333, 10368.06
344.4154, 10374.20
344.8976, 10361.50
345.3797, 10339.40
345.8618, 10363.71
346.3439, 10440.78
346.8260, 10523.89
347.3081, 10564.49
347.7903, 10568.01
348.2724, 10570.45
348.7545, 10573.78
349.2366, 10588.14
349.7187, 10641.33
350.2008, 10731.59
350.6830, 10825.66
351.1651, 10902.34
351.6472, 10965.00
352.1293, 11018.00
352.6114, 11059.06
353.0935, 11097.08
353.5757, 11143.22
354.0578, 11195.41
354.5399, 11247.00
355.0220, 11309.70
355.5041, 11363.20
355.9862, 11380.04
356.4684, 11355.86
356.9505, 11308.70
357.4326, 11229.52
357.9147, 11139.89
358.3968, 11074.96
358.8789, 11083.64
359.3611, 11095.26
359.8432, 11046.38
360.3253, 10939.32
360.8074, 10853.59
361.2895, 10848.16
361.7716, 10873.69
362.2538, 10884.68
362.7359, 10851.29
363.2180, 10820.65
363.7001, 10813.74
364.1822, 10824.79
364.6643, 10832.18
365.1465, 10827.70
365.6286, 10819.66
366.1107, 10811.76
366.5928, 10801.67
367.0749, 10797.69
367.5570, 10797.16
368.0392, 10804.03
368.5213, 10825.25
369.0034, 10879.08
369.4855, 10929.92
369.9676, 10970.88
370.4497, 11003.19
370.9319, 11015.33
371.4140, 10984.99
371.8961, 10948.16
372.3782, 10942.05
372.8603, 10991.56
373.3424, 11027.56
373.8246, 11033.11
374.3067, 11013.21
374.7888, 11011.67
375.2709, 11037.63
375.7530, 11067.27
376.2351, 11084.11
376.7173, 11083.42
377.1994, 11091.03
377.6815, 11110.70
378.1636, 11138.41
378.6457, 11163.29
379.1278, 11184.19
379.6100, 11210.82
380.0921, 11259.65
380.5742, 11328.18
381.0563, 11346.83
381.5384, 11305.12
382.0205, 11252.68
382.5027, 11255.21
382.9848, 11307.39
383.4669, 11361.60
383.9490, 11406.43
384.4311, 11441.09
384.9132, 11462.60
385.3954, 11471.07
385.8775, 11473.02
386.3596, 11458.73
386.8417, 11442.85
387.3238, 11461.57
387.8059, 11535.12
388.2881, 11619.00
388.7702, 11664.96
389.2523, 11680.63
389.7344, 11689.45
390.2165, 11697.00
390.6986, 11707.93
391.1808, 11728.75
391.6629, 11761.56
392.1450, 11794.20
392.6271, 11825.33
393.1092, 11849.80
393.5913, 11860.52
394.0735, 11842.98
394.5556, 11822.35
395.0377, 11807.95
395.5198, 11800.23
396.0019, 11799.60
396.4840, 11823.16
396.9662, 11843.44
397.4483, 11840.69
397.9304, 11774.40
398.4125, 11736.22
398.8946, 11757.11
399.3767, 11815.74
399.8589, 11859.54
400.3410, 11878.89
400.8231, 11887.84
401.3052, 11887.20
401.7873, 11871.11
402.2694, 11867.88
402.7516, 11883.80
403.2337, 11907.74
403.7158, 11928.06
404.1979, 11945.58
404.6800, 11958.11
405.1621, 11966.46
405.6443, 11970.03
406.1264, 11959.37
406.6085, 11925.63
407.0906, 11901.21
407.5727, 11917.33
408.0548, 11979.09
408.5370, 12014.96
409.0191, 12010.87
409.5012, 11991.21
409.9833, 12001.59
410.4654, 12041.66
410.9475, 12083.60
411.4297, 12113.26
411.9118, 12134.02
412.3939, 12159.32
412.8760, 12189.40
413.3581, 12215.21
413.8402, 12224.42
414.3224, 12222.24
414.8045, 12221.68
415.2866, 12226.02
415.7687, 12234.47
416.2508, 12248.66
416.7329, 12267.23
417.2151, 12283.98
417.6972, 12289.43
418.1793, 12294.61
418.6614, 12314.49
419.1435, 12356.74
419.6256, 12390.17
420.1078, 12384.29
420.5899, 12361.12
421.0720, 12353.01
421.5541, 12385.74
422.0362, 12422.31
422.5183, 12449.47
423.0005, 12466.48
423.4826, 12479.42
423.9647, 12477.44
424.4468, 12479.39
424.9289, 12497.51
425.4110, 12551.21
425.8932, 12598.33
426.3753, 12637.60
426.8574, 12668.87
427.3395, 12692.47
427.8216, 12708.23
428.3037, 12715.30
428.7859, 12707.58
429.2680, 12678.88
429.7501, 12679.81
430.2322, 12721.75
430.7143, 12776.66
431.1964, 12814.49
431.6786, 12833.12
432.1607, 12845.26
432.6428, 12851.46
433.1249, 12854.15
433.6070, 12859.63
434.0891, 12867.80
434.5713, 12881.98
435.0534, 12914.46
435.5355, 12957.84
436.0176, 12971.24
436.4997, 12946.38
436.9818, 12914.15
437.4640, 12908.89
437.9461, 12926.76
438.4282, 12955.84
438.9103, 13001.41
439.3924, 13049.09
439.8745, 13078.09
440.3566, 13090.14
440.8387, 13102.31
441.3209, 13129.90
441.8030, 13161.15
442.2851, 13182.69
442.7672, 13186.84
443.2493, 13191.67
443.7314, 13205.08
444.2136, 13225.71
444.6957, 13250.87
445.1778, 13290.40
445.6599, 13324.70
446.1420, 13347.27
446.6241, 13357.72
447.1063, 13355.93
447.5884, 13318.66
448.0705, 13283.07
448.5526, 13277.75
449.0347, 13336.10
449.5168, 13376.60
449.9990, 13384.19
450.4811, 13372.79
450.9632, 13386.55
451.4453, 13449.54
451.9274, 13491.54
452.4095, 13475.18
452.8917, 13393.75
453.3738, 13343.79
453.8559, 13328.76
454.3380, 13338.23
454.8201, 13368.48
455.3022, 13419.59
455.7844, 13464.13
456.2665, 13494.54
456.7486, 13516.10
457.2307, 13542.10
457.7128, 13571.62
458.1949, 13595.29
458.6771, 13604.12
459.1592, 13603.24
459.6413, 13600.99
460.1234, 13597.45
460.6055, 13597.21
461.0876, 13602.48
461.5698, 13614.18
462.0519, 13634.08
462.5340, 13678.89
463.0161, 13717.39
463.4982, 13720.05
463.9803, 13695.65
464.4625, 13683.37
464.9446, 13711.48
465.4267, 13748.10
465.9088, 13772.22
466.3909, 13773.72
466.8730, 13784.39
467.3552, 13822.18
467.8373, 13868.50
468.3194, 13899.60
468.8015, 13901.50
469.2836, 13902.78
469.7657, 13905.31
470.2479, 13909.52
470.7300, 13922.17
471.2121, 13950.00
471.6942, 13975.27
472.1763, 13983.92
472.6584, 13968.77
473.1406, 13975.42
473.6227, 14011.70
474.1048, 14058.58
474.5869, 14088.41
475.0690, 14101.13
475.5511, 14106.85
476.0333, 14105.72
476.5154, 14101.75
476.9975, 14106.08
477.4796, 14118.49
477.9617, 14132.11
478.4438, 14139.55
478.9260, 14145.23
479.4081, 14158.83
479.8902, 14183.72
480.3723, 14207.65
480.8544, 14217.99
481.3365, 14220.37
481.8187, 14224.57
482.3008, 14232.09
482.7829, 14244.58
483.2650, 14263.50
483.7471, 14288.65
484.2292, 14317.63
484.7114, 14356.86
485.1935, 14395.00
485.6756, 14424.59
486.1577, 14441.09
486.6398, 14457.51
487.1219, 14479.00
487.6041, 14499.74
488.0862, 14510.67
488.5683, 14501.03
489.0504, 14499.90
489.5325, 14514.90
490.0146, 14543.95
490.4968, 14573.18
490.9789, 14605.97
491.4610, 14629.01
491.9431, 14626.55
492.4252, 14597.83
492.9073, 14590.23
493.3895, 14609.74
493.8716, 14640.22
494.3537, 14665.19
494.8358, 14683.78
495.3179, 14689.66
495.8000, 14666.13
496.2822, 14641.53
496.7643, 14666.69
497.2464, 14734.99
497.7285, 14806.77
498.2106, 14869.00
498.6927, 14915.66
499.1749, 14934.94
499.6570, 14918.84
500.1391, 14907.95
500.6212, 14931.66
501.1033, 14969.81
501.5854, 14999.07
502.0676, 14997.56
502.5497, 15001.83
503.0318, 15026.01
503.5139, 15066.15
503.9960, 15099.41
504.4781, 15126.08
504.9603, 15144.68
505.4424, 15153.43
505.9245, 15149.75
506.4066, 15146.99
506.8887, 15141.22
507.3708, 15141.70
507.8530, 15161.13
508.3351, 15203.05
508.8172, 15243.24
509.2993, 15277.60
509.7814, 15307.57
510.2635, 15335.99
510.7457, 15363.01
511.2278, 15388.66
511.7099, 15416.88
512.1920, 15442.90
512.6741, 15450.51
513.1563, 15438.76
513.6384, 15431.79
514.1205, 15454.73
514.6026, 15494.26
515.0847, 15530.63
515.5668, 15554.90
516.0490, 15581.63
516.5311, 15620.87
517.0132, 15669.10
517.4953, 15719.16
517.9774, 15790.05
518.4595, 15842.67
518.9417, 15851.76
519.4238, 15814.04
519.9059, 15790.05
520.3880, 15795.34
520.8701, 15809.02
521.3522, 15820.77
521.8344, 15833.32
522.3165, 15835.52
522.7986, 15814.67
523.2807, 15794.07
523.7628, 15825.81
524.2449, 15927.73
524.7271, 15984.52
525.2092, 15941.46
525.6913, 15835.78
526.1734, 15811.32
526.6555, 15869.72
527.1376, 15931.67
527.6198, 15927.42
528.1019, 15886.27
528.5840, 15878.94
529.0661, 15914.78
529.5482, 15961.18
530.0303, 15992.70
530.5125, 16014.09
530.9946, 16033.68
531.4767, 16058.26
531.9588, 16076.11
532.4409, 16075.66
532.9230, 16062.53
533.4052, 16053.38
533.8873, 16051.84
534.3694, 16056.67
534.8515, 16066.23
535.3336, 16079.46
535.8157, 16105.85
536.2979, 16168.25
536.7800, 16224.52
537.2621, 16238.43
537.7442, 16180.62
538.2263, 16163.26
538.7084, 16209.20
539.1906, 16283.95
539.6727, 16318.85
540.1548, 16312.12
540.6369, 16295.24
541.1190, 16271.50
541.6011, 16248.83
542.0833, 16254.71
542.5654, 16288.24
543.0475, 16330.42
543.5296, 16368.07
544.0117, 16404.93
544.4938, 16449.66
544.9760, 16505.64
545.4581, 16554.91
545.9402, 16581.29
546.4223, 16593.67
546.9044, 16603.49
547.3865, 16608.09
547.8687, 16617.00
548.3508, 16637.58
548.8329, 16665.46
549.3150, 16686.82
549.7971, 16691.90
550.2792, 16698.13
550.7614, 16711.38
551.2435, 16732.30
551.7256, 16756.76
552.2077, 16796.70
552.6898, 16822.72
553.1719, 16800.85
553.6541, 16720.87
554.1362, 16679.79
554.6183, 16692.42
555.1004, 16732.67
555.5825, 16760.19
556.0646, 16777.18
556.5468, 16797.14
557.0289, 16825.44
557.5110, 16858.62
557.9931, 16894.31
558.4752, 16931.32
558.9573, 16963.22
559.4395, 16981.24
559.9216, 16995.71
560.4037, 17019.02
560.8858, 17054.56
561.3679, 17079.56
561.8500, 17077.38
562.3322, 17064.63
562.8143, 17055.75
563.2964, 17057.71
563.7785, 17057.93
564.2606, 17043.04
564.7427, 17029.44
565.2249, 17054.64
565.7070, 17144.48
566.1891, 17216.16
566.6712, 17240.51
567.1533, 17225.80
567.6354, 17230.11
568.1176, 17255.46
568.5997, 17287.73
569.0818, 17325.49
569.5639, 17363.49
570.0460, 17374.45
570.5281, 17352.87
571.0103, 17334.78
571.4924, 17370.19
571.9745, 17431.14
572.4566, 17466.63
572.9387, 17442.46
573.4208, 17419.39
573.9030, 17445.38
574.3851, 17501.23
574.8672, 17544.81
575.3493, 17543.03
575.8314, 17544.91
576.3135, 17575.85
576.7957, 17636.22
577.2778, 17672.88
577.7599, 17666.50
578.2420, 17655.80
578.7241, 17659.96
579.2062, 17681.53
579.6884, 17710.03
580.1705, 17751.36
580.6526, 17788.74
581.1347, 17789.90
581.6168, 17757.27
582.0989, 17761.70
582.5811, 17828.63
583.0632, 17920.82
583.5453, 17986.92
584.0274, 18029.89
584.5095, 18058.10
584.9916, 18066.84
585.4738, 18069.08
585.9559, 18076.73
586.4380, 18089.22
586.9201, 18100.92
587.4022, 18109.43
587.8843, 18115.99
588.3664, 18116.65
588.8485, 18099.94
589.3306, 18112.21
589.8127, 18201.79
590.2949, 18296.65
590.7770, 18328.69
591.2591, 18260.15
591.7412, 18217.55
592.2233, 18218.51
592.7054, 18247.61
593.1876, 18274.89
593.6697, 18300.83
594.1518, 18321.01
594.6339, 18330.81
595.1160, 18335.13
595.5981, 18346.34
596.0803, 18363.81
596.5624, 18381.12
597.0445, 18396.34
597.5266, 18407.78
598.0087, 18408.42
598.4908, 18396.29
598.9730, 18394.38
599.4551, 18427.26
599.9372, 18469.80
600.4193, 18497.63
600.9014, 18486.97
601.3835, 18489.18
601.8657, 18524.42
602.3478, 18572.58
602.8299, 18604.10
603.3120, 18612.41
603.7941, 18616.34
604.2762, 18616.18
604.7584, 18615.53
605.2405, 18631.89
605.7226, 18668.07
606.2047, 18702.98
606.6868, 18726.08
607.1689, 18739.53
607.6511, 18752.39
608.1332, 18764.86
608.6153, 18770.47
609.0974, 18743.59
609.5795, 18714.77
610.0616, 18734.70
610.5438, 18829.35
611.0259, 18908.19
611.5080, 18897.50
611.9901, 18851.92
612.4722, 18836.32
612.9543, 18903.53
613.4365, 18957.40
613.9186, 18967.41
614.4007, 18954.87
614.8828, 18971.09
615.3649, 19032.71
615.8470, 19087.80
616.3292, 19118.48
616.8113, 19128.69
617.2934, 19148.29
617.7755, 19178.34
618.2576, 19210.08
618.7397, 19238.78
619.2219, 19264.57
619.7040, 19291.52
620.1861, 19320.21
620.6682, 19338.09
621.1503, 19326.48
621.6324, 19301.21
622.1146, 19278.71
622.5967, 19254.42
623.0788, 19253.94
623.5609, 19316.67
624.0430, 19402.29
624.5251, 19453.03
625.0073, 19415.63
625.4894, 19395.70
625.9715, 19416.55
626.4536, 19464.74
626.9357, 19494.89
627.4178, 19499.16
627.9000, 19506.21
628.3821, 19527.94
628.8642, 19561.89
629.3463, 19592.03
629.8284, 19617.82
630.3105, 19643.65
630.7927, 19672.78
631.2748, 19703.77
631.7569, 19731.79
632.2390, 19755.57
632.7211, 19786.90
633.2032, 19852.51
633.6854, 19922.19
634.1675, 19961.11
634.6496, 19945.94
635.1317, 19928.26
635.6138, 19917.37
636.0959, 19913.76
636.5781, 19918.33
637.0602, 19936.78
637.5423, 19954.12
638.0244, 19965.83
638.5065, 19975.88
638.9886, 20001.23
639.4708, 20045.63
639.9529, 20079.57
640.4350, 20083.04
640.9171, 20067.05
641.3992, 20068.05
641.8813, 20084.77
642.3635, 20104.11
642.8456, 20116.43
643.3277, 20125.92
643.8098, 20135.05
644.2919, 20143.31
644.7740, 20160.81
645.2562, 20200.37
645.7383, 20246.87
646.2204, 20288.30
646.7025, 20334.11
647.1846, 20355.39
647.6667, 20330.18
648.1489, 20294.08
648.6310, 20292.50
649.1131, 20333.10
649.5952, 20385.85
650.0773, 20454.35
650.5594, 20522.62
651.0416, 20552.60
651.5237, 20546.26
652.0058, 20533.96
652.4879, 20522.83
652.9700, 20517.74
653.4521, 20525.31
653.9343, 20545.19
654.4164, 20575.22
654.8985, 20625.95
655.3806, 20677.55
655.8627, 20719.54
656.3448, 20751.59
656.8270, 20765.15
657.3091, 20729.70
657.7912, 20698.52
658.2733, 20703.08
658.7554, 20755.28
659.2375, 20807.18
659.7197, 20860.58
660.2018, 20909.98
660.6839, 20951.50
661.1660, 20984.73
661.6481, 21000.54
662.1302, 20993.72
662.6124, 20979.46
663.0945, 20972.59
663.5766, 20974.62
664.0587, 20990.19
664.5408, 21030.96
665.0229, 21073.89
665.5051, 21099.16
665.9872, 21114.46
666.4693, 21138.69
666.9514, 21186.96
667.4335, 21236.04
667.9156, 21289.82
668.3978, 21343.62
668.8799, 21352.95
669.3620, 21293.13
669.8441, 21236.94
670.3262, 21216.08
670.8083, 21229.65
671.2905, 21262.68
671.7726, 21317.24
672.2547, 21372.10
672.7368, 21410.02
673.2189, 21434.27
673.7010, 21445.47
674.1832, 21441.52
674.6653, 21445.23
675.1474, 21483.01
675.6295, 21532.38
676.1116, 21566.95
676.5938, 21562.87
677.0759, 21575.04
677.5580, 21632.43
678.0401, 21704.78
678.5222, 21753.06
679.0043, 21766.87
679.4865, 21778.28
679.9686, 21792.87
680.4507, 21806.69
680.9328, 21802.24
681.4149, 21779.93
681.8970, 21787.84
682.3792, 21864.82
682.8613, 21964.30
683.3434, 21993.94
683.8255, 21970.89
684.3076, 21965.78
684.7897, 22061.85
685.2719, 22154.64
685.7540, 22148.85
686.2361, 22050.50
686.7182, 21991.22
687.2003, 22042.49
687.6824, 22107.33
688.1646, 22136.21
688.6467, 22118.86
689.1288, 22137.65
689.6109, 22200.05
690.0930, 22281.58
690.5751, 22370.13
691.0573, 22463.92
691.5394, 22548.22
692.0215, 22621.81
692.5036, 22678.60
692.9857, 22699.30
693.4678, 22700.42
693.9500, 22709.94
694.4321, 22734.70
694.9142, 22767.95
695.3963, 22813.43
695.8784, 22862.09
696.3605, 22902.13
696.8427, 22929.49
697.3248, 22949.13
697.8069, 22945.10
698.2890, 22940.79
698.7711, 22990.80
699.2532, 23112.82
699.7354, 23220.71
700.2175, 23289.79
700.6996, 23335.20
701.1817, 23388.84
701.6638, 23451.16
702.1459, 23523.94
702.6281, 23618.33
703.1102, 23716.84
703.5923, 23798.13
704.0744, 23866.02
704.5565, 23939.87
705.0386, 24042.13
705.5208, 24139.90
706.0029, 24218.43
706.4850, 24274.71
706.9671, 24313.60
707.4492, 24332.91
707.9313, 24336.42
708.4135, 24325.98
708.8956, 24301.28
709.3777, 24256.33
709.8598, 24188.33
710.3419, 24115.69
710.8240, 24059.27
711.3062, 24010.45
711.7883, 23942.55
712.2704, 23848.54
712.7525, 23766.60
713.2346, 23735.23
713.7167, 23727.33
714.1989, 23714.52
714.6810, 23684.12
715.1631, 23662.14
715.6452, 23654.47
716.1273, 23657.33
716.6094, 23668.12
717.0916, 23689.47
717.5737, 23711.18
718.0558, 23732.65
718.5379, 23752.92
719.0200, 23769.75
719.5021, 23783.38
719.9843, 23796.70
720.4664, 23808.79
720.9485, 23823.20
721.4306, 23844.22
721.9127, 23870.83
722.3948, 23899.91
722.8770, 23942.43
723.3591, 23974.83
723.8412, 23978.85
724.3233, 23962.36
724.8054, 23958.76
725.2875, 23969.22
725.7697, 23993.80
726.2518, 24042.20
726.7339, 24104.42
727.2160, 24121.01
727.6981, 24087.46
728.1802, 24065.21
728.6624, 24106.41
729.1445, 24177.46
729.6266, 24203.54
730.1087, 24188.73
730.5908, 24170.72
731.0729, 24162.29
731.5551, 24167.35
732.0372, 24199.19
732.5193, 24262.23
733.0014, 24297.83
733.4835, 24267.89
733.9656, 24233.27
734.4478, 24224.17
734.9299, 24245.27
735.4120, 24256.80
735.8941, 24253.37
736.3762, 24259.10
736.8583, 24298.10
737.3405, 24364.46
737.8226, 24444.22
738.3047, 24539.26
738.7868, 24610.41
739.2689, 24598.54
739.7510, 24556.37
740.2332, 24545.49
740.7153, 24590.09
741.1974, 24634.78
741.6795, 24663.22
742.1616, 24684.25
742.6437, 24706.23
743.1259, 24728.46
743.6080, 24752.57
744.0901, 24779.50
744.5722, 24806.69
745.0543, 24838.84
745.5364, 24872.67
746.0186, 24869.91
746.5007, 24809.60
746.9828, 24749.03
747.4649, 24751.44
747.9470, 24799.65
748.4291, 24864.27
748.9113, 24962.79
749.3934, 25042.70
749.8755, 25071.83
750.3576, 25072.96
750.8397, 25092.10
751.3218, 25152.04
751.8040, 25185.62
752.2861, 25171.13
752.7682, 25131.39
753.2503, 25118.58
753.7324, 25132.29
754.2145, 25164.04
754.6967, 25220.34
755.1788, 25280.93
755.6609, 25312.12
756.1430, 25322.96
756.6251, 25337.73
757.1072, 25371.16
757.5894, 25408.17
758.0715, 25448.47
758.5536, 25488.39
759.0357, 25511.87
759.5178, 25502.35
759.9999, 25503.43
760.4821, 25532.90
760.9642, 25582.15
761.4463, 25609.79
761.9284, 25615.12
762.4105, 25614.89
762.8926, 25608.34
763.3748, 25606.08
763.8569, 25632.85
764.3390, 25683.42
764.8211, 25729.41
765.3032, 25750.11
765.7853, 25767.17
766.2675, 25792.13
766.7496, 25825.75
767.2317, 25864.01
767.7138, 25914.81
768.1959, 25958.99
768.6780, 25984.85
769.1602, 25994.78
769.6423, 26018.19
770.1244, 26056.10
770.6065, 26094.99
771.0886, 26131.02
771.5707, 26159.47
772.0529, 26161.88
772.5350, 26140.47
773.0171, 26135.65
773.4992, 26185.34
773.9813, 26247.19
774.4634, 26287.96
774.9456, 26298.26
775.4277, 26340.83
775.9098, 26453.23
776.3919, 26549.12
776.8740, 26577.26
777.3561, 26536.87
777.8383, 26487.13
778.3204, 26425.04
778.8025, 26391.81
779.2846, 26443.69
779.7667, 26540.45
780.2488, 26615.48
780.7310, 26663.87
781.2131, 26696.26
781.6952, 26708.17
782.1773, 26714.48
782.6594, 26725.11
783.1415, 26741.68
783.6237, 26758.84
784.1058, 26772.54
784.5879, 26791.17
785.0699, 26823.74
785.5521, 26869.89
786.0342, 26903.41
786.5163, 26922.62
786.9984, 26937.40
787.4805, 26951.01
787.9626, 26968.76
788.4448, 27006.88
788.9269, 27072.01
789.4090, 27116.29
789.8911, 27090.74
790.3732, 27054.21
790.8553, 27053.03
791.3375, 27099.51
791.8196, 27155.02
792.3017, 27230.46
792.7838, 27296.64
793.2659, 27323.81
793.7480, 27315.07
794.2302, 27307.13
794.7123, 27300.45
795.1944, 27313.96
795.6765, 27395.96
796.1586, 27493.47
796.6407, 27532.96
797.1229, 27489.75
797.6050, 27454.57
798.0871, 27473.22
798.5692, 27503.56
799.0513, 27509.59
799.5334, 27473.40
800.0156, 27475.78
800.4977, 27530.79
800.9798, 27590.67
801.4619, 27598.17
801.9440, 27567.80
802.4261, 27565.32
802.9083, 27597.02
803.3904, 27655.31
803.8725, 27777.89
804.3546, 27899.15
804.8367, 27937.61
805.3188, 27848.71
805.8010, 27790.99
806.2831, 27835.84
806.7652, 27895.72
807.2473, 27905.06
807.7294, 27841.24
808.2115, 27844.89
808.6937, 27933.26
809.1758, 28024.13
809.6579, 28020.04
810.1400, 27959.21
810.6221, 27938.51
811.1042, 27970.41
811.5864, 28019.36
812.0685, 28073.01
812.5506, 28125.77
813.0327, 28171.41
813.5148, 28204.18
813.9969, 28247.16
814.4791, 28317.46
814.9612, 28377.40
815.4433, 28390.46
815.9254, 28354.00
816.4075, 28352.06
816.8896, 28388.99
817.3718, 28436.75
817.8539, 28476.47
818.3360, 28507.70
818.8181, 28525.48
819.3002, 28528.28
819.7823, 28539.49
820.2645, 28573.39
820.7466, 28617.22
821.2287, 28667.36
821.7108, 28730.14
822.1929, 28762.90
822.6750, 28755.32
823.1572, 28743.95
823.6393, 28751.36
824.1214, 28777.21
824.6035, 28828.51
825.0856, 28904.60
825.5677, 28974.11
826.0499, 29014.73
826.5320, 29033.75
827.0141, 29027.41
827.4962, 28993.04
827.9783, 28979.89
828.4604, 29014.42
828.9426, 29059.81
829.4247, 29106.80
829.9068, 29156.28
830.3889, 29161.23
830.8710, 29114.16
831.3531, 29081.25
831.8353, 29124.37
832.3174, 29208.93
832.7995, 29265.57
833.2816, 29295.09
833.7637, 29324.21
834.2458, 29389.43
834.7280, 29439.96
835.2101, 29434.60
835.6922, 29369.49
836.1743, 29337.38
836.6564, 29345.87
837.1385, 29373.02
837.6207, 29417.16
838.1028, 29471.04
838.5849, 29495.50
839.0670, 29492.84
839.5491, 29495.52
840.0313, 29513.95
840.5134, 29553.63
840.9955, 29645.65
841.4776, 29771.43
841.9597, 29849.14
842.4418, 29802.57
842.9240, 29760.84
843.4061, 29760.41
843.8882, 29794.55
844.3703, 29844.83
844.8524, 29917.69
845.3345, 29953.75
845.8167, 29910.23
846.2988, 29838.49
846.7809, 29840.86
847.2630, 29894.51
847.7451, 29931.28
848.2272, 29889.70
848.7094, 29856.11
849.1915, 29872.69
849.6736, 29926.87
850.1557, 29983.59
850.6378, 30052.03
851.1199, 30099.17
851.6021, 30112.22
852.0842, 30109.07
852.5663, 30126.00
853.0484, 30159.70
853.5305, 30191.86
854.0126, 30206.70
854.4948, 30237.30
854.9769, 30340.09
855.4590, 30468.48
855.9411, 30553.31
856.4232, 30535.12
856.9053, 30523.57
857.3875, 30517.04
857.8696, 30529.95
858.3517, 30600.11
858.8338, 30733.01
859.3159, 30793.17
859.7980, 30750.92
860.2802, 30679.33
860.7623, 30647.86
861.2444, 30647.83
861.7265, 30671.71
862.2086, 30731.60
862.6907, 30771.01
863.1729, 30733.86
863.6550, 30692.53
864.1371, 30710.97
864.6192, 30815.99
865.1013, 30881.03
865.5834, 30896.42
866.0656, 30905.93
866.5477, 30959.00
867.0298, 31035.61
867.5119, 31080.28
867.9940, 31087.43
868.4761, 31097.16
868.9583, 31153.22
869.4404, 31206.27
869.9225, 31207.91
870.4046, 31140.52
870.8867, 31139.35
871.3688, 31240.92
871.8510, 31338.98
872.3331, 31371.86
872.8152, 31353.54
873.2973, 31357.42
873.7794, 31382.45
874.2615, 31412.08
874.7437, 31436.93
875.2258, 31461.19
875.7079, 31496.94
876.1900, 31538.65
876.6721, 31557.14
877.1542, 31515.45
877.6364, 31486.09
878.1185, 31483.18
878.6006, 31505.29
879.0827, 31557.26
879.5648, 31638.31
880.0469, 31706.51
880.5291, 31743.67
881.0112, 31763.88
881.4933, 31777.95
881.9754, 31789.46
882.4575, 31805.79
882.9396, 31815.26
883.4218, 31847.90
883.9039, 31933.69
884.3860, 32033.88
884.8681, 32092.12
885.3502, 32102.44
885.8323, 32108.22
886.3145, 32115.46
886.7966, 32121.20
887.2787, 32121.01
887.7608, 32116.72
888.2429, 32109.61
888.7250, 32096.52
889.2072, 32093.55
889.6893, 32116.91
890.1714, 32147.32
890.6535, 32162.64
891.1356, 32145.66
891.6177, 32187.86
892.0999, 32305.15
892.5820, 32426.68
893.0641, 32497.19
893.5462, 32523.95
894.0283, 32511.43
894.5104, 32462.76
894.9926, 32422.94
895.4747, 32403.62
895.9568, 32414.93
896.4389, 32482.72
896.9210, 32605.83
897.4031, 32674.25
897.8853, 32666.25
898.3674, 32656.96
898.8495, 32682.29
899.3316, 32726.77
899.8137, 32734.88
900.2958, 32716.03
900.7780, 32716.81
901.2601, 32794.82
901.7422, 32868.57
902.2243, 32866.52
902.7064, 32821.96
903.1885, 32823.33
903.6707, 32912.23
904.1528, 32979.07
904.6349, 33000.80
905.1170, 33001.61
905.5991, 33024.23
906.0812, 33064.47
906.5634, 33102.52
907.0455, 33134.29
907.5276, 33160.86
908.0097, 33175.35
908.4918, 33188.96
908.9739, 33215.24
909.4561, 33266.66
909.9382, 33310.06
910.4203, 33347.32
910.9024, 33373.27
911.3845, 33372.30
911.8666, 33350.24
912.3488, 33376.08
912.8309, 33453.45
913.3130, 33519.55
913.7951, 33505.02
914.2772, 33474.41
914.7593, 33490.75
915.2415, 33557.31
915.7236, 33615.23
916.2057, 33652.98
916.6878, 33684.27
917.1699, 33713.43
917.6520, 33738.84
918.1342, 33741.23
918.6163, 33724.49
919.0984, 33744.04
919.5805, 33859.73
920.0626, 33985.77
920.5447, 34037.52
921.0269, 34037.70
921.5090, 34035.81
921.9911, 34028.50
922.4732, 34044.45
922.9553, 34096.63
923.4374, 34163.68
923.9196, 34218.86
924.4017, 34262.00
924.8838, 34272.49
925.3659, 34239.26
925.8480, 34220.44
926.3301, 34304.50
926.8123, 34416.23
927.2944, 34466.34
927.7765, 34419.29
928.2586, 34388.90
928.7407, 34386.88
929.2228, 34404.65
929.7050, 34440.50
930.1871, 34493.15
930.6692, 34558.49
931.1513, 34635.82
931.6334, 34684.83
932.1155, 34651.48
932.5977, 34598.79
933.0798, 34573.03
933.5619, 34577.50
934.0440, 34616.54
934.5261, 34737.78
935.0082, 34829.81
935.4904, 34860.35
935.9725, 34854.91
936.4546, 34882.11
936.9367, 34936.94
937.4188, 34968.97
937.9009, 34955.76
938.3831, 34934.58
938.8652, 34926.30
939.3473, 34937.39
939.8294, 34979.17
940.3115, 35104.39
940.7936, 35165.98
941.2758, 35134.62
941.7579, 35077.32
942.2400, 35047.48
942.7221, 35044.88
943.2042, 35075.60
943.6863, 35139.55
944.1685, 35199.25
944.6506, 35223.39
945.1327, 35233.13
945.6148, 35239.82
946.0969, 35244.81
946.5790, 35263.90
947.0612, 35304.64
947.5433, 35345.99
948.0254, 35384.53
948.5075, 35415.91
948.9896, 35409.87
949.4717, 35379.03
949.9539, 35390.82
950.4360, 35509.39
950.9181, 35627.14
951.4002, 35663.27
951.8823, 35655.27
952.3644, 35662.61
952.8466, 35710.28
953.3287, 35729.22
953.8108, 35702.52
954.2929, 35677.70
954.7750, 35718.08
955.2571, 35804.22
955.7393, 35877.57
956.2214, 35932.06
956.7035, 35972.04
957.1856, 35991.70
957.6677, 36004.60
958.1498, 36017.39
958.6320, 36030.21
959.1141, 36050.11
959.5962, 36076.32
960.0783, 36111.68
960.5604, 36162.51
961.0425, 36218.45
961.5247, 36250.55
962.0068, 36268.45
962.4889, 36302.51
962.9710, 36400.86
963.4531, 36477.09
963.9352, 36472.29
964.4174, 36438.45
964.8995, 36454.50
965.3816, 36536.50
965.8637, 36590.96
966.3458, 36603.73
966.8279, 36615.48
967.3101, 36688.83
967.7922, 36783.60
968.2743, 36826.43
968.7564, 36805.69
969.2385, 36795.95
969.7206, 36835.61
970.2028, 36881.47
970.6849, 36907.88
971.1670, 36919.85
971.6491, 36980.04
972.1312, 37088.63
972.6133, 37169.80
973.0955, 37157.10
973.5776, 37127.61
974.0597, 37189.38
974.5418, 37298.85
975.0239, 37369.34
975.5060, 37328.06
975.9882, 37311.27
976.4703, 37341.75
976.9524, 37392.11
977.4345, 37436.19
977.9166, 37473.04
978.3987, 37477.30
978.8809, 37445.23
979.3630, 37412.67
979.8451, 37388.43
980.3272, 37392.90
980.8093, 37464.98
981.2914, 37614.10
981.7736, 37688.22
982.2557, 37644.37
982.7377, 37614.85
983.2198, 37663.23
983.7020, 37755.53
984.1841, 37802.88
984.6662, 37812.39
985.1483, 37811.79
985.6304, 37806.56
986.1125, 37801.04
986.5947, 37771.81
987.0768, 37755.66
987.5589, 37811.83
988.0410, 37979.38
988.5231, 38068.54
989.0052, 38057.08
989.4874, 38022.83
989.9695, 38050.18
990.4516, 38104.51
990.9337, 38120.61
991.4158, 38095.52
991.8979, 38093.20
992.3801, 38170.43
992.8622, 38242.05
993.3443, 38275.38
993.8264, 38278.10
994.3085, 38278.20
994.7906, 38276.32
995.2728, 38280.81
995.7549, 38291.20
996.2370, 38316.70
996.7191, 38383.78
997.2012, 38465.91
997.6833, 38524.25
998.1655, 38531.32
998.6476, 38542.45
999.1297, 38556.50
999.6118, 38577.47
1000.094, 38609.72
1000.576, 38651.24
1001.058, 38691.80
1001.540, 38731.24
1002.022, 38775.41
1002.505, 38840.42
1002.987, 38899.05
1003.469, 38924.26
1003.951, 38926.41
1004.433, 38953.79
1004.915, 39018.68
1005.397, 39059.27
1005.879, 39053.82
1006.361, 39037.06
1006.844, 39060.65
1007.326, 39111.26
1007.808, 39166.21
1008.290, 39221.32
1008.772, 39276.34
1009.254, 39340.68
1009.736, 39395.21
1010.218, 39427.32
1010.701, 39437.03
1011.183, 39436.94
1011.665, 39427.45
1012.147, 39432.84
1012.629, 39479.98
1013.111, 39538.30
1013.593, 39572.18
1014.075, 39594.42
1014.557, 39643.55
1015.040, 39751.64
1015.522, 39833.18
1016.004, 39869.37
1016.486, 39892.70
1016.968, 39970.55
1017.450, 40071.61
1017.932, 40073.59
1018.414, 39950.16
1018.896, 39872.38
1019.379, 39993.89
1019.861, 40140.52
1020.343, 40203.03
1020.825, 40188.89
1021.307, 40184.45
1021.789, 40191.06
1022.271, 40193.41
1022.753, 40182.36
1023.236, 40168.31
1023.718, 40158.79
1024.200, 40158.01
1024.682, 40173.37
1025.164, 40214.73
1025.646, 40264.16
1026.128, 40332.34
1026.610, 40390.23
1027.093, 40397.63
1027.575, 40367.10
1028.057, 40390.24
1028.539, 40466.02
1029.021, 40529.04
1029.503, 40499.63
1029.985, 40477.65
1030.467, 40548.00
1030.949, 40679.39
1031.432, 40738.63
1031.914, 40699.08
1032.396, 40705.02
1032.878, 40802.04
1033.360, 40910.69
1033.842, 40912.54
1034.324, 40854.54
1034.806, 40802.80
1035.288, 40763.19
1035.771, 40766.71
1036.253, 40860.10
1036.735, 40952.42
1037.217, 40998.68
1037.699, 41007.41
1038.181, 41017.90
1038.663, 41032.47
1039.145, 41065.68
1039.628, 41156.35
1040.110, 41233.56
1040.592, 41235.10
1041.074, 41197.42
1041.556, 41182.25
1042.038, 41200.32
1042.520, 41207.59
1043.002, 41193.43
1043.484, 41201.37
1043.967, 41301.87
1044.449, 41438.00
1044.931, 41517.11
1045.413, 41537.33
1045.895, 41555.04
1046.377, 41598.10
1046.859, 41629.28
1047.341, 41631.57
1047.823, 41620.39
1048.306, 41632.84
1048.788, 41666.75
1049.270, 41711.68
1049.752, 41769.97
1050.234, 41817.88
1050.716, 41820.33
1051.198, 41815.24
1051.680, 41840.38
1052.163, 41899.75
1052.645, 41968.03
1053.127, 42056.08
1053.609, 42102.03
1054.091, 42037.96
1054.573, 41942.48
1055.055, 41947.56
1055.537, 42023.28
1056.020, 42100.30
1056.502, 42196.60
1056.984, 42225.44
1057.466, 42131.91
1057.948, 42033.92
1058.430, 42078.16
1058.912, 42235.46
1059.394, 42321.88
1059.876, 42328.95
1060.359, 42324.78
1060.841, 42335.76
1061.323, 42365.69
1061.805, 42426.23
1062.287, 42507.79
1062.769, 42583.92
1063.251, 42656.74
1063.733, 42701.74
1064.215, 42705.15
1064.698, 42711.70
1065.180, 42800.03
1065.662, 42909.95
1066.144, 42953.45
1066.626, 42898.23
1067.108, 42891.67
1067.590, 42976.62
1068.072, 43049.59
1068.555, 43052.66
1069.037, 43015.77
1069.519, 43017.38
1070.001, 43054.24
1070.483, 43116.98
1070.965, 43215.94
1071.447, 43316.21
1071.929, 43418.25
1072.411, 43504.31
1072.894, 43559.89
1073.376, 43584.35
1073.858, 43578.50
1074.340, 43542.55
1074.822, 43510.09
1075.304, 43526.95
1075.786, 43539.63
1076.268, 43473.86
1076.750, 43364.97
1077.233, 43339.45
1077.715, 43440.11
1078.197, 43524.60
1078.679, 43575.96
1079.161, 43600.15
1079.643, 43577.36
1080.125, 43542.17
1080.607, 43570.37
1081.090, 43671.99
1081.572, 43731.58
1082.054, 43652.16
1082.536, 43599.59
1083.018, 43635.61
1083.500, 43726.32
1083.982, 43778.37
1084.464, 43799.03
1084.946, 43823.45
1085.429, 43859.80
1085.911, 43908.22
1086.393, 43997.79
1086.875, 44077.18
1087.357, 44088.11
1087.839, 44022.97
1088.321, 44068.19
1088.803, 44232.17
1089.286, 44351.84
1089.768, 44294.34
1090.250, 44195.92
1090.732, 44192.11
1091.214, 44250.43
1091.696, 44311.98
1092.178, 44378.95
1092.660, 44420.23
1093.142, 44425.43
1093.625, 44433.80
1094.107, 44499.17
1094.589, 44586.11
1095.071, 44613.47
1095.553, 44589.41
1096.035, 44581.08
1096.517, 44643.21
1096.999, 44685.00
1097.481, 44670.74
1097.964, 44642.61
1098.446, 44677.80
1098.928, 44763.55
1099.410, 44840.15
1099.892, 44898.71
1100.374, 44929.58
1100.856, 44896.34
1101.338, 44861.33
1101.821, 44861.16
1102.303, 44892.29
1102.785, 44951.68
1103.267, 45040.90
1103.749, 45090.06
1104.231, 45064.81
1104.713, 45028.70
1105.195, 45038.63
1105.677, 45076.25
1106.160, 45128.83
1106.642, 45205.80
1107.124, 45229.20
1107.606, 45181.79
1108.088, 45147.05
1108.570, 45173.00
1109.052, 45232.43
1109.534, 45288.42
1110.016, 45340.53
1110.499, 45389.57
1110.981, 45441.19
1111.463, 45478.50
1111.945, 45496.89
1112.427, 45508.33
1112.909, 45504.63
1113.391, 45503.66
1113.873, 45609.05
1114.356, 45795.55
1114.838, 45905.45
1115.320, 45757.73
1115.802, 45654.11
1116.284, 45733.68
1116.766, 45877.39
1117.248, 45914.86
1117.730, 45854.36
1118.213, 45830.00
1118.695, 45854.48
1119.177, 45898.52
1119.659, 45947.82
1120.141, 46002.34
1120.623, 46064.56
1121.105, 46131.64
1121.587, 46195.69
1122.069, 46257.04
1122.552, 46314.19
1123.034, 46370.61
1123.516, 46405.71
1123.998, 46369.11
1124.480, 46319.29
1124.962, 46329.48
1125.444, 46415.32
1125.926, 46443.73
1126.408, 46398.00
1126.891, 46350.03
1127.373, 46321.85
1127.855, 46311.64
1128.337, 46315.27
1128.819, 46335.25
1129.301, 46381.93
1129.783, 46476.23
1130.265, 46530.52
1130.748, 46516.17
1131.230, 46505.97
1131.712, 46544.79
1132.194, 46614.79
1132.676, 46678.66
1133.158, 46729.88
1133.640, 46751.76
1134.122, 46701.26
1134.604, 46677.63
1135.087, 46718.34
1135.569, 46775.05
1136.051, 46799.65
1136.533, 46801.07
1137.015, 46864.04
1137.497, 46980.67
1137.979, 47089.48
1138.461, 47176.58
1138.943, 47226.97
1139.426, 47197.67
1139.908, 47147.30
1140.390, 47158.05
1140.872, 47230.08
1141.354, 47264.36
1141.836, 47253.81
1142.318, 47241.86
1142.800, 47262.75
1143.283, 47292.38
1143.765, 47303.47
1144.247, 47312.00
1144.729, 47364.88
1145.211, 47466.91
1145.693, 47598.81
1146.175, 47768.57
1146.657, 47887.57
1147.140, 47805.13
1147.622, 47674.14
1148.104, 47652.76
1148.586, 47744.37
1149.068, 47794.24
1149.550, 47781.29
1150.032, 47805.18
1150.514, 47903.63
1150.996, 48007.58
1151.479, 48017.95
1151.961, 47980.61
1152.443, 47950.02
1152.925, 47933.66
1153.407, 47930.96
1153.889, 47939.69
1154.371, 47969.41
1154.853, 48033.44
1155.335, 48106.87
1155.818, 48130.40
1156.300, 48132.20
1156.782, 48164.86
1157.264, 48251.42
1157.746, 48338.66
1158.228, 48438.38
1158.710, 48502.50
1159.192, 48492.72
1159.675, 48437.70
1160.157, 48402.84
1160.639, 48385.63
1161.121, 48379.48
1161.603, 48377.51
1162.085, 48397.83
1162.567, 48474.14
1163.049, 48530.73
1163.531, 48489.48
1164.014, 48383.86
1164.496, 48378.38
1164.978, 48457.27
1165.460, 48550.91
1165.942, 48644.07
1166.424, 48724.58
1166.906, 48792.92
1167.388, 48844.51
1167.870, 48869.53
1168.353, 48871.20
1168.835, 48877.20
1169.317, 48888.32
1169.799, 48906.40
1170.281, 48939.00
1170.763, 48970.67
1171.245, 48993.52
1171.727, 49011.54
1172.210, 49024.52
1172.692, 49033.42
1173.174, 49071.61
1173.656, 49139.43
1174.138, 49196.76
1174.620, 49219.79
1175.102, 49221.63
1175.584, 49183.05
1176.067, 49139.92
1176.549, 49163.09
1177.031, 49253.36
1177.513, 49352.49
1177.995, 49455.41
1178.477, 49526.35
1178.959, 49501.88
1179.441, 49467.51
1179.923, 49476.54
1180.406, 49525.12
1180.888, 49610.98
1181.370, 49736.27
1181.852, 49820.16
1182.334, 49845.11
1182.816, 49850.82
1183.298, 49853.09
1183.780, 49866.29
1184.262, 49919.18
1184.745, 49997.26
1185.227, 50020.39
1185.709, 49984.07
1186.191, 49935.54
1186.673, 49880.50
1187.155, 49843.46
1187.637, 49848.14
1188.119, 49882.89
1188.602, 49949.34
1189.084, 50043.82
1189.566, 50102.83
1190.048, 50122.50
1190.530, 50150.17
1191.012, 50205.38
1191.494, 50263.79
1191.976, 50302.13
1192.458, 50326.75
1192.941, 50337.89
1193.423, 50333.87
1193.905, 50358.09
1194.387, 50414.89
1194.869, 50463.48
1195.351, 50484.94
1195.833, 50494.21
1196.315, 50484.17
1196.797, 50484.61
1197.280, 50544.02
1197.762, 50679.55
1198.244, 50774.34
1198.726, 50826.96
1199.208, 50847.47
1199.690, 50823.46
1200.172, 50796.98
1200.654, 50818.74
1201.137, 50867.84
1201.619, 50916.54
1202.101, 50962.23
1202.583, 51009.83
1203.065, 51062.54
1203.547, 51093.68
1204.029, 51071.66
1204.511, 51039.81
1204.994, 51047.29
1205.476, 51078.96
1205.958, 51111.86
1206.440, 51146.02
1206.922, 51163.41
1207.404, 51157.61
1207.886, 51178.74
1208.368, 51281.72
1208.850, 51406.50
1209.333, 51511.84
1209.815, 51581.31
1210.297, 51567.67
1210.779, 51411.44
1211.261, 51366.75
1211.743, 51447.66
1212.225, 51545.70
1212.707, 51598.76
1213.189, 51619.35
1213.672, 51600.40
1214.154, 51565.05
1214.636, 51559.42
1215.118, 51583.02
1215.600, 51658.27
1216.082, 51795.53
1216.564, 51903.27
1217.046, 51871.61
1217.529, 51809.23
1218.011, 51816.33
1218.493, 51877.52
1218.975, 51957.79
1219.457, 52069.87
1219.939, 52125.47
1220.421, 52113.26
1220.903, 52103.65
1221.385, 52152.26
1221.868, 52228.56
1222.350, 52323.46
1222.832, 52420.63
1223.314, 52484.25
1223.796, 52506.80
1224.278, 52530.23
1224.760, 52558.08
1225.242, 52576.99
1225.724, 52557.23
1226.207, 52543.11
1226.689, 52581.50
1227.171, 52654.41
1227.653, 52716.34
1228.135, 52772.23
1228.617, 52783.62
1229.099, 52747.08
1229.581, 52693.17
1230.064, 52594.37
1230.546, 52536.95
1231.028, 52626.48
1231.510, 52796.93
1231.992, 52885.80
1232.474, 52883.31
1232.956, 52908.57
1233.438, 52971.80
1233.921, 53044.77
1234.403, 53145.55
1234.885, 53208.70
1235.367, 53141.14
1235.849, 53021.82
1236.331, 53010.61
1236.813, 53108.66
1237.295, 53178.67
1237.777, 53208.72
1238.260, 53231.79
1238.742, 53287.27
1239.224, 53326.79
1239.706, 53304.53
1240.188, 53257.82
1240.670, 53244.60
1241.152, 53263.38
1241.634, 53297.81
1242.116, 53345.86
1242.599, 53403.45
1243.081, 53477.95
1243.563, 53547.16
1244.045, 53594.13
1244.527, 53635.11
1245.009, 53706.63
1245.491, 53799.11
1245.973, 53864.24
1246.456, 53896.63
1246.938, 53916.14
1247.420, 53929.48
1247.902, 53934.95
1248.384, 53922.54
1248.866, 53915.75
1249.348, 53961.23
1249.830, 54043.75
1250.313, 54113.83
1250.795, 54166.38
1251.277, 54196.84
1251.759, 54167.42
1252.241, 54166.79
1252.723, 54222.65
1253.205, 54300.73
1253.687, 54357.37
1254.169, 54395.02
1254.651, 54411.48
1255.134, 54410.16
1255.616, 54426.34
1256.098, 54489.18
1256.580, 54539.21
1257.062, 54566.54
1257.544, 54576.45
1258.026, 54555.35
1258.508, 54531.70
1258.991, 54555.88
1259.473, 54626.03
1259.955, 54698.65
1260.437, 54778.91
1260.919, 54828.77
1261.401, 54838.71
1261.883, 54829.86
1262.365, 54797.22
1262.848, 54779.36
1263.330, 54830.61
1263.812, 54945.06
1264.294, 55072.02
1264.776, 55233.15
1265.258, 55291.73
1265.740, 55217.25
1266.222, 55130.91
1266.704, 55174.70
1267.187, 55236.99
1267.669, 55186.56
1268.151, 55071.17
1268.633, 55084.79
1269.115, 55240.62
1269.597, 55316.60
1270.079, 55279.33
1270.561, 55278.90
1271.043, 55511.23
1271.526, 55739.97
1272.008, 55762.76
1272.490, 55688.20
1272.972, 55724.39
1273.454, 55858.23
1273.936, 55894.54
1274.418, 55818.35
1274.900, 55765.25
1275.383, 55872.58
1275.865, 55952.85
1276.347, 55909.25
1276.829, 55828.80
1277.311, 55849.32
1277.793, 55943.62
1278.275, 56005.71
1278.757, 56028.86
1279.239, 56033.75
1279.722, 55997.64
1280.204, 55992.02
1280.686, 56036.45
1281.168, 56102.84
1281.650, 56167.14
1282.132, 56224.08
1282.614, 56252.68
1283.096, 56260.01
1283.578, 56294.25
1284.061, 56393.77
1284.543, 56466.18
1285.025, 56496.51
1285.507, 56516.54
1285.989, 56567.65
1286.471, 56619.96
1286.953, 56616.09
1287.435, 56580.35
1287.917, 56604.74
1288.400, 56721.16
1288.882, 56790.35
1289.364, 56798.86
##END=



