##NAMES=Spodumene
##RRUFFID=R050252
##IDEAL CHEMISTRY=LiAlSi_2_O_6_
##LOCALITY=Minas Gerais, Brazil
##OWNER=RRUFF
##SOURCE=Marcus Origlieri
##DESCRIPTION=Pale lavendar cleavage fragment
##STATUS=The identification of this mineral has been confirmed by X-ray diffraction and chemical analysis
##URL=rruff.info/R050252
##MEASURED CHEMISTRY=Li_1.00_Al_1.00_Si_2.00_O_6_
93.12335, 0.0000000E+00
93.60547, 765.7145
94.08759, 739.3124
94.56970, 751.2240
95.05182, 796.3407
95.53394, 858.2299
96.01605, 936.9216
96.49817, 1027.879
96.98029, 1116.565
97.46240, 1201.901
97.94452, 1293.533
98.42664, 1399.867
98.90875, 1521.256
99.39087, 1659.840
99.87299, 1816.832
100.3551, 1991.411
100.8372, 2179.964
101.3193, 2382.054
101.8015, 2596.592
102.2836, 2820.703
102.7657, 3061.469
103.2478, 3295.348
103.7299, 3508.711
104.2120, 3701.787
104.6942, 3880.442
105.1763, 4043.779
105.6584, 4194.124
106.1405, 4345.151
106.6226, 4488.334
107.1047, 4640.825
107.5869, 4810.350
108.0690, 5001.493
108.5511, 5206.566
109.0332, 5427.362
109.5153, 5665.506
109.9974, 5908.776
110.4795, 6151.976
110.9617, 6405.446
111.4438, 6676.376
111.9259, 6986.023
112.4080, 7295.292
112.8901, 7596.762
113.3722, 7891.655
113.8544, 8192.528
114.3365, 8513.260
114.8186, 8835.388
115.3007, 9143.877
115.7828, 9431.203
116.2649, 9705.766
116.7471, 9965.010
117.2292, 10210.97
117.7113, 10451.07
118.1934, 10691.41
118.6755, 10927.52
119.1576, 11151.26
119.6398, 11361.89
120.1219, 11560.88
120.6040, 11745.22
121.0861, 11910.86
121.5682, 12074.81
122.0503, 12243.91
122.5325, 12418.88
123.0146, 12601.69
123.4967, 12800.05
123.9788, 13003.52
124.4609, 13201.77
124.9430, 13380.26
125.4252, 13564.59
125.9073, 13782.52
126.3894, 14030.53
126.8715, 14287.65
127.3536, 14546.73
127.8357, 14802.62
128.3179, 15051.36
128.8000, 15287.25
129.2821, 15515.49
129.7642, 15745.53
130.2463, 15977.38
130.7284, 16199.75
131.2106, 16407.21
131.6927, 16598.05
132.1748, 16763.29
132.6569, 16885.67
133.1390, 16968.20
133.6211, 17002.43
134.1033, 16982.55
134.5854, 16972.14
135.0675, 16947.77
135.5496, 16909.86
136.0317, 16877.38
136.5138, 16858.03
136.9960, 16851.37
137.4781, 16848.64
137.9602, 16851.34
138.4423, 16854.87
138.9244, 16850.45
139.4065, 16835.66
139.8887, 16823.48
140.3708, 16819.73
140.8529, 16825.75
141.3350, 16830.81
141.8171, 16835.25
142.2992, 16837.95
142.7814, 16834.34
143.2635, 16817.50
143.7456, 16807.78
144.2277, 16815.71
144.7098, 16848.51
145.1919, 16880.45
145.6741, 16911.21
146.1562, 16940.61
146.6383, 16965.57
147.1204, 16982.38
147.6025, 16999.45
148.0846, 17021.09
148.5668, 17045.19
149.0489, 17076.99
149.5310, 17122.07
150.0131, 17177.29
150.4952, 17220.52
150.9773, 17239.99
151.4595, 17255.13
151.9416, 17277.31
152.4237, 17308.62
152.9058, 17343.88
153.3879, 17388.21
153.8700, 17440.42
154.3522, 17478.73
154.8343, 17487.27
155.3164, 17489.96
155.7985, 17504.19
156.2806, 17551.86
156.7627, 17591.56
157.2449, 17612.08
157.7270, 17612.51
158.2091, 17612.21
158.6912, 17607.44
159.1733, 17606.60
159.6554, 17617.54
160.1376, 17647.17
160.6197, 17684.05
161.1018, 17728.73
161.5839, 17782.49
162.0660, 17826.70
162.5481, 17844.33
163.0303, 17851.67
163.5124, 17868.44
163.9945, 17911.25
164.4766, 17957.62
164.9587, 17994.99
165.4408, 18021.06
165.9230, 18047.99
166.4051, 18083.92
166.8872, 18124.57
167.3693, 18163.31
167.8514, 18197.84
168.3335, 18229.16
168.8157, 18257.12
169.2978, 18281.00
169.7799, 18304.98
170.2620, 18331.25
170.7441, 18359.57
171.2262, 18389.34
171.7084, 18419.45
172.1905, 18451.18
172.6726, 18486.32
173.1547, 18525.98
173.6368, 18566.59
174.1189, 18607.61
174.6011, 18647.81
175.0832, 18683.35
175.5653, 18705.95
176.0474, 18724.40
176.5295, 18749.15
177.0116, 18781.40
177.4938, 18821.71
177.9759, 18877.13
178.4580, 18943.92
178.9401, 19004.75
179.4222, 19047.08
179.9043, 19076.96
180.3865, 19104.96
180.8686, 19133.28
181.3507, 19159.91
181.8328, 19180.62
182.3149, 19196.18
182.7970, 19211.40
183.2792, 19222.19
183.7613, 19234.89
184.2434, 19268.64
184.7255, 19333.73
185.2076, 19411.61
185.6897, 19470.76
186.1718, 19511.83
186.6540, 19553.51
187.1361, 19618.35
187.6182, 19698.14
188.1003, 19755.82
188.5824, 19780.50
189.0645, 19783.86
189.5467, 19785.90
190.0288, 19786.29
190.5109, 19793.61
190.9930, 19820.68
191.4751, 19864.11
191.9572, 19898.46
192.4394, 19916.99
192.9215, 19925.21
193.4036, 19933.54
193.8857, 19941.03
194.3678, 19960.70
194.8499, 20020.98
195.3321, 20118.35
195.8142, 20173.14
196.2963, 20154.42
196.7784, 20087.56
197.2605, 20059.44
197.7426, 20074.04
198.2248, 20105.50
198.7069, 20130.83
199.1890, 20149.60
199.6711, 20176.09
200.1532, 20217.02
200.6353, 20266.93
201.1175, 20299.28
201.5996, 20308.66
202.0817, 20316.77
202.5638, 20344.49
203.0459, 20393.24
203.5280, 20445.22
204.0102, 20500.30
204.4923, 20555.95
204.9744, 20594.97
205.4565, 20614.20
205.9386, 20625.76
206.4207, 20637.68
206.9029, 20647.94
207.3850, 20671.66
207.8671, 20718.59
208.3492, 20784.33
208.8313, 20825.04
209.3134, 20831.50
209.7956, 20832.77
210.2777, 20858.12
210.7598, 20913.93
211.2419, 20968.40
211.7240, 21015.05
212.2061, 21054.69
212.6883, 21098.38
213.1704, 21149.08
213.6525, 21198.77
214.1346, 21237.19
214.6167, 21259.08
215.0988, 21288.30
215.5810, 21334.71
216.0631, 21395.78
216.5452, 21434.89
217.0273, 21440.44
217.5094, 21441.59
217.9915, 21465.57
218.4737, 21518.54
218.9558, 21578.73
219.4379, 21645.70
219.9200, 21718.74
220.4021, 21772.92
220.8842, 21798.61
221.3664, 21817.55
221.8485, 21848.93
222.3306, 21897.31
222.8127, 21947.65
223.2948, 21998.28
223.7769, 22049.40
224.2591, 22091.40
224.7412, 22117.62
225.2233, 22143.83
225.7054, 22185.10
226.1875, 22247.29
226.6696, 22312.26
227.1518, 22379.26
227.6339, 22448.67
228.1160, 22505.38
228.5981, 22545.35
229.0802, 22578.17
229.5623, 22611.02
230.0445, 22645.80
230.5266, 22677.01
231.0087, 22699.00
231.4908, 22713.46
231.9729, 22748.91
232.4550, 22816.60
232.9372, 22891.03
233.4193, 22951.05
233.9014, 22988.77
234.3835, 23027.47
234.8656, 23070.06
235.3477, 23115.73
235.8299, 23161.03
236.3120, 23205.81
236.7941, 23250.89
237.2762, 23296.59
237.7583, 23340.88
238.2404, 23390.18
238.7226, 23448.96
239.2047, 23515.12
239.6868, 23566.75
240.1689, 23592.57
240.6510, 23618.64
241.1331, 23664.25
241.6153, 23742.90
242.0974, 23812.15
242.5795, 23863.31
243.0616, 23900.35
243.5437, 23946.76
244.0258, 24006.04
244.5080, 24070.45
244.9901, 24136.55
245.4722, 24208.97
245.9543, 24271.96
246.4364, 24313.21
246.9185, 24343.34
247.4007, 24417.13
247.8828, 24573.01
248.3649, 24718.16
248.8470, 24794.21
249.3291, 24764.56
249.8112, 24754.41
250.2934, 24781.81
250.7755, 24831.88
251.2576, 24849.84
251.7397, 24816.13
252.2218, 24780.18
252.7039, 24767.95
253.1861, 24789.80
253.6682, 24808.22
254.1503, 24819.29
254.6324, 24826.89
255.1145, 24842.10
255.5966, 24866.82
256.0788, 24895.23
256.5609, 24924.30
257.0430, 24953.27
257.5251, 24985.17
258.0072, 25021.21
258.4893, 25059.21
258.9715, 25094.70
259.4536, 25124.89
259.9357, 25157.72
260.4178, 25198.19
260.8999, 25249.11
261.3820, 25295.59
261.8642, 25340.78
262.3463, 25378.84
262.8284, 25396.65
263.3105, 25383.66
263.7926, 25374.73
264.2747, 25381.58
264.7569, 25405.38
265.2390, 25440.51
265.7211, 25492.71
266.2032, 25550.58
266.6853, 25598.17
267.1674, 25632.93
267.6496, 25664.62
268.1317, 25695.17
268.6138, 25725.08
269.0959, 25754.97
269.5780, 25782.56
270.0602, 25814.08
270.5423, 25860.32
271.0244, 25926.85
271.5065, 25985.99
271.9886, 26026.34
272.4707, 26049.18
272.9529, 26079.40
273.4350, 26117.53
273.9171, 26160.90
274.3992, 26206.29
274.8813, 26252.17
275.3634, 26307.27
275.8456, 26377.61
276.3277, 26459.53
276.8098, 26525.04
277.2919, 26568.45
277.7740, 26612.36
278.2561, 26680.69
278.7382, 26775.88
279.2203, 26864.97
279.7025, 26940.99
280.1846, 27006.01
280.6667, 27067.59
281.1488, 27124.21
281.6309, 27185.28
282.1130, 27261.11
282.5952, 27351.87
283.0773, 27437.71
283.5594, 27515.54
284.0415, 27587.16
284.5236, 27654.70
285.0057, 27718.02
285.4879, 27780.58
285.9700, 27843.38
286.4521, 27906.56
286.9342, 27974.71
287.4163, 28050.32
287.8984, 28127.45
288.3806, 28188.78
288.8627, 28234.87
289.3448, 28289.78
289.8269, 28369.56
290.3090, 28471.45
290.7911, 28582.42
291.2733, 28707.74
291.7554, 28826.26
292.2375, 28894.87
292.7196, 28920.51
293.2017, 28954.64
293.6838, 29033.14
294.1660, 29139.99
294.6481, 29227.66
295.1302, 29294.24
295.6123, 29344.07
296.0944, 29377.51
296.5765, 29396.39
297.0587, 29409.52
297.5408, 29424.42
298.0229, 29434.38
298.5050, 29423.92
298.9871, 29392.68
299.4692, 29351.44
299.9514, 29304.70
300.4335, 29255.65
300.9156, 29215.22
301.3977, 29195.75
301.8798, 29178.88
302.3619, 29131.61
302.8441, 29057.25
303.3262, 28990.38
303.8083, 28961.89
304.2904, 28957.27
304.7725, 28950.11
305.2546, 28929.08
305.7368, 28910.92
306.2189, 28914.71
306.7010, 28937.13
307.1831, 28965.36
307.6652, 28997.29
308.1473, 29027.93
308.6295, 29048.48
309.1116, 29051.56
309.5937, 29059.80
310.0758, 29095.50
310.5579, 29150.13
311.0400, 29203.15
311.5222, 29239.12
312.0043, 29272.04
312.4864, 29316.30
312.9685, 29377.32
313.4506, 29428.85
313.9327, 29436.30
314.4149, 29427.93
314.8970, 29447.47
315.3791, 29545.97
315.8612, 29651.59
316.3433, 29721.32
316.8254, 29752.23
317.3076, 29772.32
317.7897, 29779.46
318.2718, 29787.57
318.7539, 29810.90
319.2360, 29865.90
319.7181, 29925.76
320.2003, 29985.15
320.6824, 30043.12
321.1645, 30089.55
321.6466, 30115.93
322.1287, 30133.31
322.6108, 30149.29
323.0930, 30159.13
323.5751, 30175.07
324.0572, 30203.19
324.5393, 30240.19
325.0214, 30274.56
325.5035, 30297.71
325.9857, 30323.36
326.4678, 30357.94
326.9499, 30405.48
327.4320, 30455.86
327.9141, 30509.98
328.3962, 30566.17
328.8784, 30622.46
329.3605, 30684.66
329.8426, 30740.10
330.3247, 30781.12
330.8068, 30797.72
331.2889, 30833.69
331.7711, 30903.07
332.2532, 30984.13
332.7353, 31051.25
333.2174, 31099.61
333.6995, 31142.37
334.1816, 31175.35
334.6638, 31198.07
335.1459, 31250.59
335.6280, 31345.91
336.1101, 31454.64
336.5922, 31547.18
337.0743, 31609.68
337.5565, 31698.22
338.0386, 31831.45
338.5207, 31994.93
339.0028, 32128.93
339.4849, 32224.45
339.9670, 32312.05
340.4492, 32412.13
340.9313, 32524.33
341.4134, 32635.55
341.8955, 32744.99
342.3776, 32850.67
342.8597, 32945.32
343.3419, 33026.65
343.8240, 33111.87
344.3061, 33213.26
344.7882, 33328.11
345.2703, 33431.44
345.7524, 33519.73
346.2346, 33608.88
346.7167, 33718.61
347.1988, 33848.70
347.6809, 33982.75
348.1630, 34109.67
348.6451, 34238.35
349.1273, 34395.63
349.6094, 34580.73
350.0915, 34775.70
350.5736, 34954.52
351.0557, 35126.54
351.5378, 35326.93
352.0200, 35580.75
352.5021, 35839.98
352.9842, 36048.70
353.4663, 36211.05
353.9484, 36339.10
354.4305, 36455.97
354.9127, 36539.05
355.3948, 36558.27
355.8769, 36507.07
356.3590, 36398.17
356.8411, 36223.32
357.3232, 35999.38
357.8054, 35760.81
358.2875, 35503.39
358.7696, 35251.96
359.2517, 35025.23
359.7338, 34824.18
360.2159, 34651.23
360.6981, 34502.74
361.1802, 34385.72
361.6623, 34308.99
362.1444, 34308.88
362.6265, 34317.13
363.1086, 34301.15
363.5908, 34264.82
364.0729, 34239.66
364.5550, 34241.34
365.0371, 34253.96
365.5192, 34267.53
366.0013, 34278.57
366.4835, 34293.27
366.9656, 34315.60
367.4477, 34342.79
367.9298, 34367.90
368.4119, 34379.80
368.8940, 34399.61
369.3762, 34437.21
369.8583, 34501.71
370.3404, 34559.08
370.8225, 34606.57
371.3046, 34648.60
371.7867, 34689.77
372.2689, 34725.29
372.7510, 34766.39
373.2331, 34818.16
373.7152, 34880.11
374.1973, 34930.16
374.6794, 34956.21
375.1616, 34987.77
375.6437, 35052.29
376.1258, 35166.96
376.6079, 35254.65
377.0900, 35298.84
377.5721, 35317.17
378.0543, 35358.73
378.5364, 35427.39
379.0185, 35502.38
379.5006, 35572.05
379.9827, 35637.16
380.4648, 35709.36
380.9470, 35791.92
381.4291, 35872.64
381.9112, 35934.34
382.3933, 35977.64
382.8754, 36017.61
383.3575, 36055.65
383.8397, 36095.18
384.3218, 36144.20
384.8039, 36202.63
385.2860, 36268.53
385.7681, 36346.98
386.2502, 36431.93
386.7324, 36507.96
387.2145, 36568.90
387.6966, 36625.88
388.1787, 36689.48
388.6608, 36759.91
389.1429, 36838.26
389.6251, 36930.20
390.1072, 37027.91
390.5893, 37126.66
391.0714, 37228.39
391.5535, 37314.26
392.0356, 37367.28
392.5178, 37396.66
392.9999, 37416.65
393.4820, 37422.09
393.9641, 37429.81
394.4462, 37462.09
394.9283, 37515.03
395.4105, 37535.40
395.8926, 37472.85
396.3747, 37389.45
396.8568, 37328.41
397.3389, 37295.23
397.8210, 37287.16
398.3032, 37321.89
398.7853, 37381.21
399.2674, 37419.37
399.7495, 37394.43
400.2316, 37379.19
400.7137, 37398.16
401.1959, 37458.55
401.6780, 37524.65
402.1601, 37614.16
402.6422, 37696.63
403.1243, 37736.70
403.6064, 37714.33
404.0885, 37689.09
404.5706, 37667.60
405.0528, 37652.19
405.5349, 37656.73
406.0170, 37682.30
406.4991, 37728.21
406.9812, 37808.11
407.4633, 37931.49
407.9455, 38004.65
408.4276, 38007.50
408.9097, 37978.86
409.3918, 37989.17
409.8739, 38038.66
410.3560, 38092.94
410.8382, 38134.37
411.3203, 38167.13
411.8024, 38211.16
412.2845, 38267.02
412.7666, 38326.78
413.2487, 38384.93
413.7309, 38442.20
414.2130, 38500.82
414.6951, 38565.64
415.1772, 38627.42
415.6593, 38670.85
416.1414, 38699.95
416.6236, 38728.87
417.1057, 38766.60
417.5878, 38809.05
418.0699, 38854.30
418.5520, 38905.12
419.0341, 38947.65
419.5163, 38964.29
419.9984, 38970.64
420.4805, 38988.38
420.9626, 39028.07
421.4447, 39078.51
421.9268, 39142.80
422.4090, 39219.08
422.8911, 39280.63
423.3732, 39302.20
423.8553, 39319.13
424.3374, 39352.82
424.8195, 39401.66
425.3017, 39471.45
425.7838, 39583.85
426.2659, 39714.57
426.7480, 39814.29
427.2301, 39854.10
427.7122, 39899.79
428.1944, 39975.43
428.6765, 40086.55
429.1586, 40168.13
429.6407, 40204.14
430.1228, 40232.60
430.6049, 40291.41
431.0871, 40388.51
431.5692, 40481.71
432.0513, 40565.32
432.5334, 40641.27
433.0155, 40718.28
433.4977, 40798.47
433.9798, 40863.52
434.4619, 40887.45
434.9440, 40881.80
435.4261, 40916.80
435.9082, 40999.04
436.3904, 41101.79
436.8725, 41202.89
437.3546, 41299.66
437.8367, 41380.36
438.3188, 41430.80
438.8009, 41472.71
439.2831, 41539.41
439.7652, 41626.68
440.2473, 41707.18
440.7294, 41766.80
441.2115, 41809.86
441.6936, 41833.92
442.1758, 41828.44
442.6579, 41838.84
443.1400, 41912.19
443.6221, 42013.32
444.1042, 42090.80
444.5863, 42114.41
445.0685, 42121.65
445.5506, 42123.59
446.0327, 42120.58
446.5148, 42112.92
446.9969, 42086.28
447.4790, 42064.59
447.9612, 42062.79
448.4433, 42104.93
448.9254, 42134.18
449.4075, 42145.54
449.8896, 42146.07
450.3717, 42148.25
450.8539, 42150.08
451.3360, 42158.74
451.8181, 42178.88
452.3002, 42211.29
452.7823, 42235.64
453.2644, 42247.00
453.7466, 42264.17
454.2287, 42310.95
454.7108, 42389.63
455.1929, 42449.77
455.6750, 42480.57
456.1571, 42496.30
456.6393, 42523.93
457.1214, 42562.75
457.6035, 42602.86
458.0856, 42630.79
458.5677, 42657.87
459.0498, 42716.11
459.5320, 42806.76
460.0141, 42898.35
460.4962, 42958.47
460.9783, 43002.64
461.4604, 43055.81
461.9425, 43134.21
462.4247, 43209.05
462.9068, 43248.07
463.3889, 43264.99
463.8710, 43295.87
464.3531, 43376.95
464.8352, 43460.05
465.3174, 43511.65
465.7995, 43521.68
466.2816, 43546.42
466.7637, 43616.03
467.2458, 43697.84
467.7279, 43763.09
468.2101, 43801.43
468.6922, 43831.96
469.1743, 43850.76
469.6564, 43862.84
470.1385, 43885.89
470.6206, 43925.04
471.1028, 43967.95
471.5849, 44008.09
472.0670, 44043.73
472.5491, 44098.90
473.0312, 44184.84
473.5133, 44270.68
473.9955, 44317.07
474.4776, 44322.48
474.9597, 44331.82
475.4418, 44351.18
475.9239, 44384.02
476.4060, 44446.71
476.8882, 44536.43
477.3703, 44618.98
477.8524, 44660.96
478.3345, 44684.24
478.8166, 44734.89
479.2987, 44817.02
479.7809, 44902.44
480.2630, 44969.39
480.7451, 45022.24
481.2272, 45065.49
481.7093, 45083.70
482.1914, 45113.10
482.6736, 45189.20
483.1557, 45295.79
483.6378, 45385.11
484.1199, 45420.56
484.6020, 45448.27
485.0841, 45490.14
485.5663, 45550.05
486.0484, 45612.78
486.5305, 45683.66
487.0126, 45752.27
487.4947, 45809.43
487.9768, 45842.37
488.4590, 45882.93
488.9411, 45939.60
489.4232, 46005.10
489.9053, 46056.47
490.3874, 46089.60
490.8695, 46120.06
491.3517, 46154.07
491.8338, 46192.14
492.3159, 46233.75
492.7980, 46280.15
493.2801, 46328.14
493.7622, 46372.37
494.2444, 46414.59
494.7265, 46462.68
495.2086, 46521.09
495.6907, 46582.52
496.1728, 46637.66
496.6549, 46686.93
497.1371, 46732.70
497.6192, 46766.89
498.1013, 46803.17
498.5834, 46853.64
499.0655, 46919.23
499.5476, 46998.59
500.0298, 47100.05
500.5119, 47209.82
500.9940, 47314.61
501.4761, 47410.43
501.9582, 47502.90
502.4403, 47598.29
502.9225, 47690.57
503.4046, 47766.36
503.8867, 47791.65
504.3688, 47832.34
504.8509, 47912.00
505.3330, 48031.67
505.8152, 48126.51
506.2973, 48187.93
506.7794, 48235.49
507.2615, 48279.84
507.7436, 48319.49
508.2257, 48368.04
508.7079, 48428.36
509.1900, 48496.00
509.6721, 48565.84
510.1542, 48637.72
510.6363, 48705.78
511.1184, 48761.31
511.6006, 48814.91
512.0826, 48898.37
512.5648, 49008.63
513.0469, 49110.72
513.5290, 49173.94
514.0111, 49215.98
514.4932, 49257.25
514.9753, 49298.18
515.4575, 49352.48
515.9396, 49429.46
516.4217, 49525.99
516.9038, 49637.96
517.3859, 49809.49
517.8680, 49950.30
518.3502, 50004.84
518.8323, 49995.63
519.3144, 50018.68
519.7965, 50121.91
520.2786, 50232.10
520.7607, 50322.43
521.2429, 50391.48
521.7250, 50447.97
522.2071, 50489.57
522.6892, 50519.97
523.1713, 50539.16
523.6534, 50541.57
524.1356, 50553.34
524.6177, 50578.86
525.0998, 50613.23
525.5819, 50652.09
526.0640, 50695.09
526.5461, 50719.38
527.0283, 50697.03
527.5104, 50650.63
527.9925, 50642.11
528.4746, 50671.00
528.9567, 50708.33
529.4388, 50732.63
529.9210, 50752.30
530.4031, 50782.36
530.8852, 50834.86
531.3673, 50874.65
531.8494, 50860.37
532.3315, 50824.86
532.8137, 50818.77
533.2958, 50878.09
533.7779, 50948.65
534.2600, 51010.46
534.7421, 51064.65
535.2242, 51135.52
535.7064, 51243.30
536.1885, 51347.07
536.6706, 51427.00
537.1527, 51474.44
537.6348, 51527.69
538.1169, 51589.18
538.5991, 51651.51
539.0812, 51704.88
539.5633, 51747.88
540.0454, 51794.51
540.5275, 51848.90
541.0096, 51907.01
541.4918, 51962.04
541.9739, 52014.34
542.4560, 52064.10
542.9381, 52104.70
543.4202, 52145.99
543.9023, 52211.13
544.3845, 52298.06
544.8666, 52375.73
545.3487, 52405.94
545.8308, 52421.44
546.3129, 52458.06
546.7950, 52531.37
547.2772, 52600.85
547.7593, 52639.89
548.2414, 52666.89
548.7235, 52707.63
549.2056, 52791.22
549.6877, 52861.83
550.1699, 52901.76
550.6520, 52918.63
551.1341, 52949.93
551.6162, 53007.61
552.0983, 53063.92
552.5804, 53105.67
553.0626, 53131.88
553.5447, 53168.09
554.0268, 53218.32
554.5089, 53268.16
554.9910, 53290.11
555.4731, 53291.14
555.9553, 53335.49
556.4374, 53448.76
556.9195, 53572.85
557.4016, 53615.53
557.8837, 53600.43
558.3658, 53597.96
558.8480, 53639.58
559.3301, 53708.65
559.8122, 53805.23
560.2943, 53923.24
560.7764, 54023.53
561.2585, 54079.66
561.7407, 54119.93
562.2228, 54159.98
562.7049, 54201.70
563.1870, 54246.76
563.6691, 54295.16
564.1512, 54348.03
564.6334, 54406.45
565.1155, 54468.49
565.5976, 54541.00
566.0797, 54632.05
566.5618, 54729.58
567.0439, 54795.82
567.5261, 54825.61
568.0082, 54860.57
568.4903, 54921.43
568.9724, 54999.24
569.4545, 55057.23
569.9366, 55096.20
570.4188, 55135.68
570.9009, 55198.56
571.3830, 55271.62
571.8651, 55328.74
572.3472, 55364.82
572.8293, 55406.64
573.3115, 55483.89
573.7936, 55575.91
574.2757, 55656.11
574.7578, 55712.03
575.2399, 55760.47
575.7220, 55790.27
576.2042, 55814.92
576.6863, 55874.02
577.1684, 56009.26
577.6505, 56133.14
578.1326, 56218.08
578.6147, 56262.84
579.0969, 56322.52
579.5790, 56398.49
580.0611, 56482.93
580.5432, 56576.97
581.0253, 56679.74
581.5074, 56755.42
581.9896, 56798.14
582.4717, 56830.02
582.9538, 56873.38
583.4359, 56927.53
583.9180, 56991.99
584.4001, 57073.04
584.8823, 57153.97
585.3644, 57215.49
585.8465, 57264.11
586.3286, 57314.47
586.8107, 57383.98
587.2928, 57448.21
587.7750, 57480.91
588.2571, 57483.70
588.7392, 57519.48
589.2213, 57649.65
589.7034, 57773.64
590.1855, 57834.34
590.6677, 57796.98
591.1498, 57803.08
591.6319, 57867.39
592.1140, 57954.18
592.5961, 58029.90
593.0782, 58095.23
593.5604, 58134.77
594.0425, 58138.95
594.5246, 58127.52
595.0067, 58133.01
595.4888, 58154.20
595.9709, 58184.93
596.4531, 58231.30
596.9352, 58280.88
597.4173, 58318.86
597.8994, 58346.55
598.3815, 58371.18
598.8636, 58393.59
599.3458, 58418.13
599.8279, 58448.98
600.3100, 58487.98
600.7921, 58528.10
601.2742, 58578.89
601.7563, 58623.99
602.2385, 58648.54
602.7206, 58625.17
603.2027, 58633.11
603.6848, 58682.05
604.1669, 58756.02
604.6490, 58832.76
605.1312, 58914.40
605.6133, 58978.50
606.0954, 59008.49
606.5775, 59023.86
607.0596, 59076.42
607.5417, 59161.68
608.0239, 59244.12
608.5060, 59287.24
608.9881, 59322.74
609.4702, 59400.05
609.9523, 59518.71
610.4344, 59629.14
610.9166, 59699.09
611.3987, 59752.49
611.8808, 59809.86
612.3629, 59881.80
612.8450, 59939.55
613.3271, 59951.34
613.8093, 59959.42
614.2914, 60011.70
614.7735, 60145.81
615.2556, 60249.63
615.7377, 60302.43
616.2198, 60323.46
616.7020, 60359.14
617.1841, 60411.63
617.6662, 60452.52
618.1483, 60457.84
618.6304, 60450.59
619.1125, 60496.80
619.5947, 60592.68
620.0768, 60694.93
620.5589, 60788.38
621.0410, 60866.66
621.5231, 60913.43
622.0052, 60927.74
622.4874, 60948.58
622.9695, 61004.32
623.4516, 61071.38
623.9337, 61129.82
624.4158, 61165.87
624.8979, 61211.86
625.3801, 61268.15
625.8622, 61335.57
626.3443, 61417.70
626.8264, 61525.29
627.3085, 61615.26
627.7906, 61670.73
628.2728, 61709.88
628.7549, 61788.30
629.2370, 61905.38
629.7191, 62011.63
630.2012, 62084.85
630.6833, 62133.54
631.1655, 62163.96
631.6476, 62180.26
632.1297, 62211.40
632.6118, 62293.26
633.0939, 62389.36
633.5760, 62472.90
634.0582, 62541.84
634.5403, 62592.05
635.0224, 62603.48
635.5045, 62609.03
635.9866, 62634.07
636.4688, 62688.04
636.9509, 62750.35
637.4330, 62824.63
637.9151, 62902.92
638.3972, 62973.30
638.8793, 63034.47
639.3615, 63090.54
639.8436, 63139.79
640.3257, 63185.26
640.8078, 63234.97
641.2899, 63287.82
641.7720, 63340.87
642.2542, 63393.05
642.7363, 63444.72
643.2184, 63500.36
643.7005, 63558.72
644.1826, 63610.36
644.6647, 63643.88
645.1469, 63676.67
645.6290, 63720.82
646.1111, 63778.68
646.5932, 63842.09
647.0753, 63911.26
647.5574, 63985.72
648.0396, 64066.24
648.5217, 64161.46
649.0038, 64238.99
649.4859, 64293.99
649.9680, 64339.53
650.4501, 64389.57
650.9323, 64443.75
651.4144, 64494.86
651.8965, 64537.04
652.3786, 64585.11
652.8607, 64661.26
653.3428, 64758.63
653.8250, 64861.79
654.3071, 64983.27
654.7892, 65090.02
655.2713, 65138.77
655.7534, 65152.16
656.2355, 65207.61
656.7177, 65385.38
657.1998, 65552.30
657.6819, 65655.40
658.1640, 65694.64
658.6461, 65742.04
659.1282, 65794.06
659.6104, 65858.16
660.0925, 65939.53
660.5746, 66037.60
661.0567, 66147.04
661.5388, 66271.20
662.0209, 66378.86
662.5031, 66426.40
662.9852, 66435.95
663.4673, 66459.92
663.9494, 66510.30
664.4315, 66564.51
664.9136, 66598.74
665.3958, 66629.63
665.8779, 66678.57
666.3600, 66776.13
666.8421, 66865.96
667.3242, 66939.34
667.8063, 66997.10
668.2885, 67038.70
668.7706, 67046.14
669.2527, 67073.51
669.7348, 67134.24
670.2169, 67222.14
670.6990, 67318.26
671.1812, 67423.14
671.6633, 67524.66
672.1454, 67619.38
672.6275, 67704.31
673.1096, 67773.52
673.5917, 67828.02
674.0739, 67881.10
674.5560, 67925.84
675.0381, 67981.89
675.5202, 68078.86
676.0023, 68224.86
676.4844, 68341.76
676.9666, 68373.26
677.4487, 68389.91
677.9308, 68443.47
678.4129, 68557.30
678.8950, 68656.67
679.3771, 68741.52
679.8593, 68812.63
680.3414, 68860.77
680.8235, 68885.79
681.3056, 68932.03
681.7877, 69007.62
682.2698, 69104.78
682.7520, 69217.16
683.2341, 69342.50
683.7162, 69469.45
684.1983, 69605.93
684.6804, 69730.30
685.1625, 69815.27
685.6447, 69876.35
686.1268, 69951.56
686.6089, 70068.38
687.0910, 70183.87
687.5731, 70283.98
688.0552, 70370.37
688.5374, 70448.98
689.0195, 70503.07
689.5016, 70587.84
689.9837, 70736.47
690.4658, 70941.40
690.9479, 71126.90
691.4301, 71293.86
691.9122, 71446.11
692.3943, 71580.55
692.8764, 71708.60
693.3585, 71850.90
693.8406, 72009.01
694.3228, 72176.15
694.8049, 72355.55
695.2870, 72535.92
695.7691, 72708.17
696.2512, 72864.98
696.7333, 73027.42
697.2155, 73189.23
697.6976, 73364.83
698.1797, 73567.80
698.6618, 73800.21
699.1439, 74053.50
699.6260, 74328.46
700.1082, 74614.67
700.5903, 74896.89
701.0724, 75175.18
701.5545, 75452.36
702.0366, 75731.54
702.5187, 76006.27
703.0009, 76268.01
703.4830, 76517.77
703.9651, 76755.03
704.4472, 77001.70
704.9293, 77214.20
705.4114, 77368.48
705.8936, 77473.02
706.3757, 77558.99
706.8578, 77679.55
707.3399, 77712.76
707.8220, 77615.84
708.3041, 77401.70
708.7863, 77142.87
709.2684, 76835.02
709.7505, 76526.05
710.2325, 76236.01
710.7147, 75965.42
711.1968, 75722.59
711.6789, 75507.73
712.1610, 75310.62
712.6431, 75114.21
713.1252, 74940.75
713.6074, 74806.83
714.0895, 74714.24
714.5716, 74659.99
715.0537, 74669.20
715.5358, 74696.27
716.0179, 74712.99
716.5001, 74719.47
716.9822, 74710.63
717.4643, 74672.47
717.9464, 74645.22
718.4285, 74688.57
718.9106, 74792.82
719.3928, 74841.69
719.8749, 74811.05
720.3570, 74771.95
720.8391, 74805.84
721.3212, 74885.61
721.8033, 74967.73
722.2855, 75044.48
722.7676, 75110.46
723.2497, 75156.39
723.7318, 75192.58
724.2139, 75234.79
724.6960, 75272.82
725.1782, 75334.15
725.6603, 75428.47
726.1424, 75543.58
726.6245, 75655.92
727.1066, 75767.19
727.5887, 75860.20
728.0709, 75920.30
728.5530, 75969.08
729.0351, 76052.56
729.5172, 76162.42
729.9993, 76265.69
730.4814, 76352.30
730.9636, 76422.70
731.4457, 76471.32
731.9278, 76502.76
732.4099, 76533.48
732.8920, 76553.80
733.3741, 76591.74
733.8563, 76663.66
734.3384, 76765.63
734.8205, 76849.83
735.3026, 76909.13
735.7847, 76975.43
736.2668, 77077.10
736.7490, 77200.28
737.2311, 77271.66
737.7132, 77292.67
738.1953, 77316.35
738.6774, 77387.02
739.1595, 77475.58
739.6417, 77551.55
740.1238, 77611.93
740.6059, 77670.93
741.0880, 77721.52
741.5701, 77782.91
742.0522, 77878.70
742.5344, 78032.30
743.0165, 78118.80
743.4986, 78105.66
743.9807, 78089.30
744.4628, 78169.67
744.9449, 78338.34
745.4271, 78429.73
745.9092, 78421.62
746.3913, 78408.84
746.8734, 78494.46
747.3555, 78633.58
747.8376, 78754.06
748.3198, 78835.65
748.8019, 78919.59
749.2840, 79029.43
749.7661, 79147.70
750.2482, 79258.38
750.7303, 79379.14
751.2125, 79457.16
751.6946, 79471.89
752.1767, 79466.67
752.6588, 79495.72
753.1409, 79560.21
753.6230, 79653.34
754.1052, 79787.93
754.5873, 79914.52
755.0694, 79949.05
755.5515, 79928.91
756.0336, 79934.16
756.5157, 79994.89
756.9979, 80082.89
757.4800, 80210.02
757.9621, 80349.02
758.4442, 80449.98
758.9263, 80472.84
759.4084, 80502.41
759.8906, 80543.64
760.3727, 80599.73
760.8548, 80682.86
761.3369, 80795.14
761.8190, 80905.87
762.3011, 81004.65
762.7833, 81098.51
763.2654, 81201.55
763.7475, 81308.43
764.2296, 81405.48
764.7117, 81479.46
765.1938, 81545.64
765.6760, 81602.14
766.1581, 81656.55
766.6402, 81731.11
767.1223, 81861.14
767.6044, 81970.17
768.0865, 82032.48
768.5687, 82062.63
769.0508, 82127.95
769.5329, 82231.91
770.0150, 82332.95
770.4971, 82410.73
770.9792, 82474.74
771.4614, 82547.36
771.9435, 82624.58
772.4256, 82689.66
772.9077, 82717.83
773.3898, 82744.90
773.8719, 82787.38
774.3541, 82847.55
774.8362, 82934.07
775.3183, 83080.50
775.8004, 83215.93
776.2825, 83318.14
776.7646, 83390.98
777.2468, 83449.89
777.7289, 83494.34
778.2110, 83541.64
778.6931, 83591.63
779.1752, 83654.89
779.6573, 83767.81
780.1395, 83921.37
780.6216, 84060.79
781.1037, 84123.52
781.5858, 84182.52
782.0679, 84295.33
782.5500, 84464.77
783.0322, 84593.72
783.5143, 84640.96
783.9964, 84690.14
784.4785, 84784.20
784.9606, 84918.30
785.4427, 85009.68
785.9249, 85055.73
786.4070, 85094.22
786.8891, 85141.16
787.3712, 85203.95
787.8533, 85312.90
788.3354, 85463.59
788.8176, 85579.95
789.2997, 85593.53
789.7818, 85578.80
790.2639, 85568.55
790.7460, 85560.92
791.2281, 85614.30
791.7103, 85762.61
792.1924, 85915.02
792.6745, 86016.23
793.1566, 86068.52
793.6387, 86139.19
794.1208, 86229.02
794.6030, 86318.30
795.0851, 86386.07
795.5672, 86446.23
796.0493, 86521.08
796.5314, 86612.75
797.0135, 86694.95
797.4957, 86735.13
797.9778, 86780.45
798.4599, 86873.41
798.9420, 87029.44
799.4241, 87124.63
799.9063, 87130.30
800.3884, 87137.42
800.8705, 87212.58
801.3526, 87346.74
801.8347, 87454.61
802.3168, 87534.59
802.7990, 87624.52
803.2811, 87771.70
803.7632, 87932.42
804.2453, 88053.70
804.7274, 88128.03
805.2095, 88205.95
805.6917, 88315.10
806.1738, 88421.80
806.6559, 88502.77
807.1380, 88551.39
807.6201, 88632.27
808.1022, 88754.60
808.5844, 88878.79
809.0665, 88978.16
809.5486, 89057.02
810.0307, 89124.26
810.5128, 89181.04
810.9949, 89244.15
811.4771, 89356.95
811.9592, 89460.16
812.4413, 89484.91
812.9234, 89414.15
813.4055, 89403.02
813.8876, 89531.60
814.3698, 89663.92
814.8519, 89725.77
815.3340, 89714.49
815.8161, 89761.62
816.2982, 89872.20
816.7803, 89993.45
817.2625, 90085.75
817.7446, 90161.70
818.2267, 90246.95
818.7088, 90340.55
819.1909, 90422.83
819.6730, 90460.11
820.1552, 90500.61
820.6373, 90582.28
821.1194, 90713.98
821.6015, 90812.55
822.0836, 90855.74
822.5657, 90906.27
823.0479, 91005.38
823.5300, 91143.66
824.0121, 91250.16
824.4942, 91326.45
824.9763, 91400.83
825.4584, 91514.00
825.9406, 91623.23
826.4227, 91673.48
826.9048, 91669.34
827.3869, 91680.11
827.8690, 91702.20
828.3511, 91774.16
828.8333, 91935.28
829.3154, 92175.41
829.7975, 92327.10
830.2796, 92371.80
830.7617, 92407.19
831.2438, 92486.41
831.7260, 92591.23
832.2081, 92672.64
832.6902, 92735.73
833.1723, 92814.34
833.6544, 92950.55
834.1365, 93088.29
834.6187, 93197.09
835.1008, 93277.67
835.5829, 93334.39
836.0650, 93351.05
836.5471, 93376.16
837.0292, 93428.50
837.5114, 93500.79
837.9935, 93564.16
838.4756, 93620.18
838.9577, 93672.70
839.4398, 93727.69
839.9219, 93778.61
840.4041, 93803.55
840.8862, 93817.16
841.3683, 93860.98
841.8504, 93979.52
842.3325, 94101.14
842.8146, 94191.03
843.2968, 94268.93
843.7789, 94396.66
844.2610, 94591.23
844.7431, 94757.60
845.2252, 94853.42
845.7073, 94920.87
846.1895, 95044.98
846.6716, 95209.11
847.1537, 95364.66
847.6358, 95480.67
848.1179, 95590.76
848.6000, 95716.64
849.0822, 95846.75
849.5643, 95958.82
850.0464, 96050.58
850.5285, 96123.34
851.0106, 96173.23
851.4927, 96211.78
851.9749, 96264.06
852.4570, 96329.56
852.9391, 96376.45
853.4212, 96391.42
853.9033, 96413.64
854.3854, 96492.45
854.8676, 96604.59
855.3497, 96716.63
855.8318, 96830.30
856.3139, 96925.98
856.7960, 96970.42
857.2781, 97014.31
857.7603, 97116.27
858.2424, 97286.83
858.7245, 97426.85
859.2066, 97520.71
859.6887, 97603.00
860.1708, 97712.66
860.6530, 97839.51
861.1351, 97964.59
861.6172, 98086.48
862.0993, 98199.12
862.5814, 98305.77
863.0635, 98399.30
863.5457, 98472.27
864.0278, 98517.88
864.5099, 98570.50
864.9920, 98632.39
865.4741, 98697.14
865.9562, 98759.64
866.4384, 98820.61
866.9205, 98876.17
867.4026, 98927.28
867.8847, 98987.03
868.3668, 99094.80
868.8489, 99194.25
869.3311, 99225.09
869.8132, 99177.48
870.2953, 99166.45
870.7774, 99200.98
871.2595, 99278.08
871.7416, 99417.33
872.2238, 99604.75
872.7059, 99718.01
873.1880, 99760.14
873.6701, 99792.52
874.1522, 99836.91
874.6343, 99903.48
875.1165, 100011.4
875.5986, 100153.1
876.0807, 100293.6
876.5628, 100410.1
877.0449, 100533.4
877.5270, 100671.6
878.0092, 100819.2
878.4913, 100969.0
878.9734, 101121.5
879.4555, 101252.4
879.9376, 101348.9
880.4197, 101426.8
880.9019, 101506.8
881.3840, 101589.1
881.8661, 101674.2
882.3482, 101778.6
882.8303, 101869.4
883.3124, 101932.7
883.7946, 101979.9
884.2767, 102025.8
884.7588, 102065.9
885.2409, 102131.0
885.7230, 102232.1
886.2051, 102342.2
886.6873, 102423.0
887.1694, 102481.9
887.6515, 102533.6
888.1336, 102573.0
888.6157, 102637.1
889.0978, 102769.4
889.5800, 102922.2
890.0621, 103049.0
890.5442, 103131.1
891.0263, 103228.2
891.5084, 103347.2
891.9905, 103463.7
892.4727, 103562.8
892.9548, 103642.6
893.4369, 103687.9
893.9190, 103699.1
894.4011, 103714.1
894.8832, 103751.7
895.3654, 103811.2
895.8475, 103893.9
896.3296, 104000.9
896.8117, 104122.8
897.2938, 104280.8
897.7759, 104415.9
898.2581, 104494.0
898.7402, 104529.1
899.2223, 104571.7
899.7044, 104624.1
900.1865, 104710.5
900.6686, 104893.7
901.1508, 105076.0
901.6329, 105145.1
902.1150, 105143.3
902.5971, 105188.7
903.0792, 105367.6
903.5613, 105521.9
904.0435, 105623.0
904.5256, 105691.4
905.0077, 105769.1
905.4898, 105856.5
905.9719, 105929.5
906.4540, 105975.1
906.9362, 106027.4
907.4183, 106141.5
907.9004, 106278.1
908.3825, 106381.4
908.8646, 106408.1
909.3467, 106457.1
909.8289, 106548.8
910.3110, 106659.1
910.7931, 106770.9
911.2752, 106883.4
911.7573, 106989.5
912.2394, 107086.6
912.7216, 107194.4
913.2037, 107354.5
913.6858, 107520.0
914.1679, 107627.1
914.6500, 107668.3
915.1321, 107696.2
915.6143, 107699.1
916.0964, 107721.7
916.5785, 107792.0
917.0606, 107903.0
917.5427, 107984.6
918.0248, 108036.0
918.5070, 108088.6
918.9891, 108153.1
919.4712, 108234.0
919.9533, 108360.5
920.4354, 108510.7
920.9175, 108617.2
921.3997, 108602.9
921.8818, 108607.0
922.3639, 108676.9
922.8460, 108778.9
923.3281, 108843.0
923.8102, 108863.5
924.2924, 108915.6
924.7745, 109020.9
925.2566, 109138.8
925.7387, 109212.4
926.2208, 109267.1
926.7029, 109346.2
927.1851, 109477.3
927.6672, 109588.3
928.1493, 109650.7
928.6314, 109690.1
929.1135, 109711.4
929.5956, 109702.9
930.0778, 109780.0
930.5599, 109952.1
931.0420, 110119.9
931.5241, 110181.0
932.0062, 110197.2
932.4883, 110251.1
932.9705, 110344.6
933.4526, 110440.0
933.9347, 110508.0
934.4168, 110596.0
934.8989, 110729.8
935.3810, 110897.8
935.8632, 111036.6
936.3453, 111148.2
936.8274, 111229.7
937.3095, 111261.2
937.7916, 111291.1
938.2737, 111394.6
938.7559, 111542.5
939.2380, 111676.0
939.7201, 111744.0
940.2022, 111834.1
940.6843, 111978.5
941.1664, 112133.5
941.6486, 112249.1
942.1307, 112322.4
942.6128, 112390.6
943.0949, 112457.4
943.5770, 112519.7
944.0591, 112556.2
944.5413, 112597.0
945.0234, 112687.6
945.5055, 112840.7
945.9876, 112978.6
946.4697, 113064.2
946.9518, 113154.5
947.4340, 113285.7
947.9161, 113449.2
948.3982, 113555.5
948.8803, 113606.3
949.3624, 113633.4
949.8445, 113626.4
950.3267, 113627.9
950.8088, 113684.9
951.2909, 113785.1
951.7730, 113896.2
952.2551, 114004.4
952.7372, 114131.6
953.2194, 114289.5
953.7015, 114456.5
954.1836, 114590.7
954.6657, 114695.3
955.1478, 114824.9
955.6299, 114998.3
956.1121, 115150.9
956.5942, 115192.9
957.0763, 115201.9
957.5583, 115261.3
958.0405, 115400.8
958.5226, 115540.9
959.0047, 115692.2
959.4868, 115821.1
959.9689, 115895.7
960.4510, 115927.9
960.9332, 115984.7
961.4153, 116065.1
961.8974, 116151.6
962.3795, 116241.7
962.8616, 116327.7
963.3438, 116403.7
963.8259, 116471.7
964.3080, 116539.2
964.7901, 116602.7
965.2722, 116673.9
965.7543, 116751.3
966.2365, 116843.6
966.7186, 116982.4
967.2007, 117149.1
967.6828, 117296.4
968.1649, 117412.6
968.6470, 117502.4
969.1292, 117506.6
969.6113, 117527.1
970.0934, 117671.7
970.5755, 117988.6
971.0576, 118203.5
971.5397, 118305.1
972.0219, 118360.5
972.5040, 118382.0
972.9861, 118406.6
973.4682, 118526.0
973.9503, 118724.7
974.4324, 118908.7
974.9146, 119009.9
975.3967, 119117.4
975.8788, 119297.5
976.3609, 119499.1
976.8430, 119565.0
977.3251, 119480.7
977.8073, 119457.8
978.2894, 119559.7
978.7715, 119707.3
979.2536, 119827.9
979.7357, 119925.0
980.2178, 119996.3
980.7000, 120010.7
981.1821, 120090.8
981.6642, 120324.9
982.1463, 120549.0
982.6284, 120640.4
983.1105, 120605.1
983.5927, 120599.4
984.0748, 120623.5
984.5569, 120666.6
985.0390, 120725.5
985.5211, 120796.6
986.0032, 120872.6
986.4854, 120955.7
986.9675, 121061.7
987.4496, 121204.7
987.9317, 121337.5
988.4138, 121445.2
988.8959, 121539.7
989.3781, 121647.5
989.8602, 121761.1
990.3423, 121852.3
990.8244, 121907.8
991.3065, 121965.9
991.7886, 122059.7
992.2708, 122159.9
992.7529, 122242.2
993.2350, 122305.9
993.7171, 122363.1
994.1992, 122417.0
994.6813, 122455.2
995.1635, 122441.9
995.6456, 122422.6
996.1277, 122501.2
996.6098, 122654.1
997.0919, 122781.7
997.5740, 122825.1
998.0562, 122858.8
998.5383, 122902.5
999.0204, 122952.8
999.5025, 122994.6
999.9846, 123027.1
1000.467, 123117.2
1000.949, 123286.5
1001.431, 123467.0
1001.913, 123588.7
1002.395, 123683.7
1002.877, 123789.6
1003.359, 123913.0
1003.842, 124032.8
1004.324, 124135.9
1004.806, 124251.4
1005.288, 124390.3
1005.770, 124552.4
1006.252, 124745.0
1006.734, 124961.6
1007.216, 125159.3
1007.698, 125313.2
1008.181, 125445.9
1008.663, 125558.3
1009.145, 125659.5
1009.627, 125774.8
1010.109, 125919.4
1010.591, 126017.9
1011.073, 126051.3
1011.555, 126082.5
1012.038, 126204.0
1012.520, 126363.3
1013.002, 126474.9
1013.484, 126527.6
1013.966, 126576.8
1014.448, 126637.8
1014.930, 126708.6
1015.412, 126788.5
1015.894, 126879.0
1016.377, 126988.2
1016.859, 127114.9
1017.341, 127229.4
1017.823, 127312.6
1018.305, 127389.0
1018.787, 127470.9
1019.269, 127564.1
1019.751, 127679.6
1020.234, 127855.2
1020.716, 127975.9
1021.198, 128024.0
1021.680, 128052.0
1022.162, 128092.7
1022.644, 128151.9
1023.126, 128254.6
1023.608, 128397.5
1024.090, 128545.3
1024.573, 128709.7
1025.055, 128839.8
1025.537, 128898.1
1026.019, 128906.1
1026.501, 128919.2
1026.983, 128936.9
1027.465, 128975.1
1027.947, 129042.1
1028.430, 129123.8
1028.912, 129196.6
1029.394, 129280.1
1029.876, 129412.4
1030.358, 129641.5
1030.840, 129786.8
1031.322, 129811.4
1031.804, 129802.5
1032.286, 129798.8
1032.769, 129806.3
1033.251, 129855.1
1033.733, 129941.4
1034.215, 130048.6
1034.697, 130196.1
1035.179, 130330.0
1035.661, 130367.0
1036.143, 130389.9
1036.625, 130576.7
1037.108, 130983.4
1037.590, 131229.1
1038.072, 131251.2
1038.554, 131211.3
1039.036, 131263.6
1039.518, 131368.6
1040.000, 131492.7
1040.482, 131633.9
1040.965, 131714.7
1041.447, 131641.2
1041.929, 131626.6
1042.411, 131763.1
1042.893, 131995.9
1043.375, 132151.6
1043.857, 132250.0
1044.339, 132382.9
1044.822, 132606.8
1045.304, 132821.5
1045.786, 132961.6
1046.268, 133059.8
1046.750, 133145.2
1047.232, 133206.1
1047.714, 133310.2
1048.196, 133463.6
1048.678, 133614.0
1049.161, 133726.6
1049.643, 133811.6
1050.125, 133876.0
1050.607, 133926.1
1051.089, 133981.1
1051.571, 134050.3
1052.053, 134130.2
1052.535, 134240.1
1053.017, 134338.1
1053.500, 134310.3
1053.982, 134203.3
1054.464, 134237.0
1054.946, 134458.1
1055.428, 134685.5
1055.910, 134825.1
1056.392, 134912.9
1056.874, 134942.5
1057.357, 134927.4
1057.839, 135019.8
1058.321, 135229.0
1058.803, 135463.6
1059.285, 135719.7
1059.767, 135932.5
1060.249, 135956.8
1060.731, 135904.8
1061.214, 135961.2
1061.696, 136262.9
1062.178, 136504.4
1062.660, 136655.3
1063.142, 136776.7
1063.624, 136880.2
1064.106, 136995.6
1064.588, 137279.2
1065.070, 137701.9
1065.552, 138070.7
1066.035, 138272.2
1066.517, 138402.6
1066.999, 138463.7
1067.481, 138500.0
1067.963, 138596.9
1068.445, 138757.3
1068.927, 138895.9
1069.409, 139002.0
1069.892, 139081.0
1070.374, 139102.5
1070.856, 139128.2
1071.338, 139249.1
1071.820, 139483.4
1072.302, 139587.4
1072.784, 139511.7
1073.266, 139431.9
1073.749, 139410.4
1074.231, 139425.5
1074.713, 139447.3
1075.195, 139469.8
1075.677, 139472.9
1076.159, 139413.8
1076.641, 139416.6
1077.123, 139584.4
1077.605, 139750.6
1078.088, 139772.9
1078.570, 139666.6
1079.052, 139680.3
1079.534, 139804.4
1080.016, 139933.1
1080.498, 139998.1
1080.980, 140053.1
1081.462, 140135.9
1081.944, 140230.9
1082.427, 140299.8
1082.909, 140332.4
1083.391, 140377.5
1083.873, 140437.2
1084.355, 140526.8
1084.837, 140680.4
1085.319, 140862.4
1085.801, 141044.8
1086.283, 141223.3
1086.766, 141348.4
1087.248, 141367.2
1087.730, 141421.0
1088.212, 141562.7
1088.694, 141738.5
1089.176, 141830.9
1089.658, 141867.7
1090.140, 141922.1
1090.623, 142017.1
1091.105, 142110.5
1091.587, 142185.5
1092.069, 142251.8
1092.551, 142307.2
1093.033, 142355.6
1093.515, 142442.3
1093.997, 142564.9
1094.479, 142694.7
1094.962, 142846.4
1095.444, 142962.8
1095.926, 142973.5
1096.408, 142932.8
1096.890, 142921.3
1097.372, 142940.9
1097.854, 142995.1
1098.336, 143088.3
1098.818, 143193.4
1099.301, 143314.0
1099.783, 143418.5
1100.265, 143445.0
1100.747, 143417.1
1101.229, 143439.6
1101.711, 143583.4
1102.193, 143702.9
1102.675, 143776.5
1103.158, 143821.3
1103.640, 143838.2
1104.122, 143850.6
1104.604, 143924.1
1105.086, 144068.5
1105.568, 144225.5
1106.050, 144393.8
1106.532, 144538.2
1107.015, 144629.6
1107.497, 144690.7
1107.979, 144803.3
1108.461, 144961.8
1108.943, 145123.9
1109.425, 145289.5
1109.907, 145423.0
1110.389, 145478.4
1110.871, 145507.8
1111.354, 145556.5
1111.836, 145625.5
1112.318, 145708.4
1112.800, 145803.0
1113.282, 145955.8
1113.764, 146254.5
1114.246, 146555.5
1114.728, 146657.5
1115.210, 146657.5
1115.693, 146725.7
1116.175, 146960.5
1116.657, 147098.8
1117.139, 147108.5
1117.621, 147110.2
1118.103, 147221.3
1118.585, 147386.3
1119.067, 147517.0
1119.550, 147614.3
1120.032, 147698.6
1120.514, 147765.1
1120.996, 147843.8
1121.478, 147956.4
1121.960, 148064.1
1122.442, 148086.7
1122.924, 148059.1
1123.406, 148095.3
1123.889, 148208.8
1124.371, 148371.7
1124.853, 148657.4
1125.335, 148887.5
1125.817, 148953.6
1126.299, 148920.7
1126.781, 148976.7
1127.263, 149112.5
1127.745, 149252.3
1128.228, 149376.0
1128.710, 149499.3
1129.192, 149633.3
1129.674, 149771.1
1130.156, 149918.9
1130.638, 150074.8
1131.120, 150173.0
1131.602, 150208.5
1132.085, 150261.4
1132.567, 150383.3
1133.049, 150507.1
1133.531, 150548.2
1134.013, 150556.8
1134.495, 150610.6
1134.977, 150757.3
1135.459, 150812.4
1135.942, 150749.8
1136.424, 150708.2
1136.906, 150816.5
1137.388, 150982.0
1137.870, 151056.5
1138.352, 151069.6
1138.834, 151089.5
1139.316, 151111.7
1139.798, 151189.6
1140.281, 151350.0
1140.763, 151516.0
1141.245, 151605.0
1141.727, 151647.2
1142.209, 151698.2
1142.691, 151766.2
1143.173, 151892.7
1143.655, 152190.8
1144.137, 152411.3
1144.620, 152467.7
1145.102, 152462.9
1145.584, 152578.3
1146.066, 152772.2
1146.548, 152852.6
1147.030, 152796.9
1147.512, 152791.5
1147.994, 153019.1
1148.477, 153238.5
1148.959, 153333.7
1149.441, 153350.0
1149.923, 153399.7
1150.405, 153483.5
1150.887, 153626.8
1151.369, 153845.5
1151.851, 154050.8
1152.333, 154164.8
1152.816, 154248.5
1153.298, 154326.6
1153.780, 154406.2
1154.262, 154590.8
1154.744, 154878.8
1155.226, 155095.9
1155.708, 155156.6
1156.190, 155162.2
1156.672, 155163.1
1157.155, 155182.3
1157.637, 155262.4
1158.119, 155418.0
1158.601, 155516.1
1159.083, 155554.5
1159.565, 155568.1
1160.047, 155556.6
1160.529, 155554.8
1161.012, 155609.0
1161.494, 155698.2
1161.976, 155784.9
1162.458, 155848.0
1162.940, 155949.1
1163.422, 156090.1
1163.904, 156258.4
1164.386, 156457.1
1164.869, 156667.1
1165.351, 156875.5
1165.833, 157074.5
1166.315, 157239.8
1166.797, 157345.2
1167.279, 157456.1
1167.761, 157581.6
1168.243, 157692.1
1168.725, 157731.8
1169.208, 157748.0
1169.690, 157841.4
1170.172, 157999.0
1170.654, 158127.5
1171.136, 158170.8
1171.618, 158226.8
1172.100, 158310.7
1172.582, 158413.7
1173.064, 158538.4
1173.547, 158671.8
1174.029, 158795.0
1174.511, 158906.6
1174.993, 158989.0
1175.475, 158980.8
1175.957, 159023.8
1176.439, 159178.0
1176.921, 159365.2
1177.404, 159417.1
1177.886, 159385.4
1178.368, 159419.0
1178.850, 159546.6
1179.332, 159679.3
1179.814, 159784.5
1180.296, 159885.0
1180.778, 160002.7
1181.260, 160114.3
1181.743, 160123.8
1182.225, 160074.7
1182.707, 160131.6
1183.189, 160365.6
1183.671, 160585.6
1184.153, 160721.6
1184.635, 160797.0
1185.117, 160801.8
1185.599, 160764.9
1186.082, 160813.2
1186.564, 160934.9
1187.046, 161080.6
1187.528, 161240.8
1188.010, 161400.9
1188.492, 161543.9
1188.974, 161686.4
1189.456, 161838.7
1189.939, 161998.5
1190.421, 162172.1
1190.903, 162352.1
1191.385, 162481.1
1191.867, 162522.2
1192.349, 162525.9
1192.831, 162471.3
1193.313, 162430.8
1193.796, 162476.0
1194.278, 162607.0
1194.760, 162712.6
1195.242, 162795.5
1195.724, 162883.8
1196.206, 163016.6
1196.688, 163130.7
1197.170, 163149.9
1197.652, 163163.1
1198.135, 163295.9
1198.617, 163552.0
1199.099, 163643.6
1199.581, 163572.4
1200.063, 163510.9
1200.545, 163552.9
1201.027, 163651.3
1201.509, 163840.8
1201.991, 164042.5
1202.474, 164123.3
1202.956, 164083.3
1203.438, 164119.0
1203.920, 164241.8
1204.402, 164383.5
1204.884, 164522.2
1205.366, 164640.3
1205.848, 164700.2
1206.331, 164741.2
1206.813, 164827.5
1207.295, 164958.1
1207.777, 165135.7
1208.259, 165359.3
1208.741, 165536.5
1209.223, 165520.6
1209.705, 165505.1
1210.188, 165651.8
1210.670, 165879.4
1211.152, 165994.1
1211.634, 165998.7
1212.116, 166087.2
1212.598, 166293.9
1213.080, 166496.0
1213.562, 166577.5
1214.044, 166647.1
1214.526, 166792.5
1215.009, 166981.7
1215.491, 167119.7
1215.973, 167208.0
1216.455, 167296.5
1216.937, 167392.7
1217.419, 167506.5
1217.901, 167696.5
1218.383, 167859.3
1218.866, 167901.6
1219.348, 167866.8
1219.830, 167905.7
1220.312, 168014.4
1220.794, 168116.3
1221.276, 168194.8
1221.758, 168261.2
1222.240, 168303.3
1222.723, 168358.4
1223.205, 168450.0
1223.687, 168575.8
1224.169, 168759.5
1224.651, 168988.2
1225.133, 169091.3
1225.615, 168984.8
1226.097, 168921.7
1226.579, 169104.9
1227.062, 169356.5
1227.544, 169569.0
1228.026, 169742.1
1228.508, 169869.6
1228.990, 169955.0
1229.472, 170020.1
1229.954, 170059.6
1230.436, 170115.0
1230.918, 170210.2
1231.401, 170327.3
1231.883, 170454.2
1232.365, 170589.2
1232.847, 170742.8
1233.329, 170906.4
1233.811, 171035.0
1234.293, 171111.3
1234.775, 171159.0
1235.258, 171146.5
1235.740, 171159.5
1236.222, 171287.0
1236.704, 171481.3
1237.186, 171439.0
1237.668, 171227.0
1238.150, 171118.7
1238.632, 171269.4
1239.115, 171419.3
1239.597, 171474.1
1240.079, 171497.9
1240.561, 171495.6
1241.043, 171500.8
1241.525, 171691.4
1242.007, 172015.0
1242.489, 172282.3
1242.971, 172389.1
1243.453, 172501.7
1243.936, 172671.5
1244.418, 172831.0
1244.900, 172904.0
1245.382, 172943.5
1245.864, 173172.6
1246.346, 173519.9
1246.828, 173788.1
1247.310, 173853.3
1247.793, 173933.4
1248.275, 174059.8
1248.757, 174193.0
1249.239, 174311.3
1249.721, 174416.6
1250.203, 174515.2
1250.685, 174602.3
1251.167, 174664.1
1251.650, 174689.6
1252.132, 174698.2
1252.614, 174668.5
1253.096, 174695.3
1253.578, 174917.6
1254.060, 175198.2
1254.542, 175274.7
1255.024, 175220.2
1255.506, 175191.9
1255.989, 175234.6
1256.471, 175280.1
1256.953, 175316.2
1257.435, 175394.0
1257.917, 175594.3
1258.399, 175819.8
1258.881, 175929.4
1259.363, 175973.6
1259.845, 176061.8
1260.328, 176239.3
1260.810, 176355.7
1261.292, 176403.7
1261.774, 176447.8
1262.256, 176534.5
1262.738, 176637.8
1263.220, 176696.6
1263.702, 176770.3
1264.185, 176990.7
1264.667, 177430.0
1265.149, 177598.4
1265.631, 177482.0
1266.113, 177387.9
1266.595, 177574.1
1267.077, 177797.8
1267.559, 177907.3
1268.042, 177940.4
1268.524, 177939.4
1269.006, 177899.5
1269.488, 177965.7
1269.970, 178137.9
1270.452, 178345.8
1270.934, 178602.3
1271.416, 178825.9
1271.898, 178954.8
1272.380, 179044.9
1272.863, 179143.2
1273.345, 179248.7
1273.827, 179373.9
1274.309, 179510.8
1274.791, 179609.4
1275.273, 179558.3
1275.755, 179587.8
1276.237, 179800.3
1276.720, 180042.5
1277.202, 180160.7
1277.684, 180197.0
1278.166, 180311.6
1278.648, 180486.7
1279.130, 180638.2
1279.612, 180722.2
1280.094, 180799.8
1280.577, 180879.4
1281.059, 180952.4
1281.541, 181000.6
1282.023, 181042.0
1282.505, 181099.8
1282.987, 181180.4
1283.469, 181305.5
1283.951, 181511.1
1284.433, 181695.8
1284.916, 181856.9
1285.398, 181981.4
1285.880, 182061.8
1286.362, 182097.5
1286.844, 182049.7
1287.326, 181969.5
1287.808, 181970.1
1288.290, 182080.1
1288.772, 182188.9
1289.255, 182297.5
1289.737, 182403.2
1290.219, 182538.9
1290.701, 182638.3
1291.183, 182600.8
1291.665, 182525.1
1292.147, 182559.6
1292.629, 182712.9
1293.112, 182832.5
1293.594, 182917.3
1294.076, 183002.2
1294.558, 183082.1
1295.040, 183191.8
1295.522, 183403.2
1296.004, 183604.1
1296.486, 183660.2
1296.969, 183605.0
1297.451, 183690.2
1297.933, 183884.8
1298.415, 184045.8
1298.897, 184052.8
1299.379, 184111.9
1299.861, 184272.4
1300.343, 184476.8
1300.825, 184653.4
1301.307, 184804.8
1301.790, 185019.6
1302.272, 185252.1
1302.754, 185378.4
1303.236, 185220.9
1303.718, 185206.9
1304.200, 185357.0
1304.682, 185446.5
1305.164, 185277.0
##END=



