##NAMES=Spurrite
##RRUFFID=R050236
##IDEAL CHEMISTRY=Ca_5_(SiO_4_)_2_(CO_3_)
##LOCALITY=South Sister Peak, Luna County, New Mexico, USA
##OWNER=RRUFF
##SOURCE=Marcus Origlieri
##DESCRIPTION=Lavendar-gray massive
##STATUS=The identification of this mineral has been confirmed by X-ray diffraction and chemical analysis
##URL=rruff.info/R050236
##MEASURED CHEMISTRY=Ca_5.00_(Si_1.00_O_4_)_2_(CO_3_)
92.35352, 82.83378
92.83563, 82.41699
93.31775, 82.33360
93.79987, 83.40198
94.28198, 84.10243
94.76410, 84.52642
95.24622, 84.87276
95.72833, 85.16118
96.21045, 85.31007
96.69257, 85.27001
97.17468, 85.30202
97.65680, 85.58695
98.13892, 85.98495
98.62103, 86.39938
99.10315, 86.68952
99.58527, 86.80607
100.0674, 86.92860
100.5495, 86.98875
101.0316, 87.18791
101.5137, 87.70242
101.9958, 88.33620
102.4780, 88.77751
102.9601, 88.77344
103.4422, 88.28960
103.9243, 88.11266
104.4064, 88.41613
104.8885, 88.75565
105.3707, 89.02973
105.8528, 89.18791
106.3349, 89.10284
106.8170, 88.63255
107.2991, 87.72968
107.7813, 86.47981
108.2634, 84.66624
108.7455, 82.57676
109.2276, 80.54430
109.7097, 78.62044
110.1918, 76.78835
110.6740, 75.00721
111.1561, 73.26299
111.6382, 71.63279
112.1203, 70.18798
112.6024, 68.91016
113.0845, 67.66923
113.5666, 66.27715
114.0488, 65.07491
114.5309, 64.34610
115.0130, 64.11150
115.4951, 64.07316
115.9772, 63.83443
116.4593, 63.23708
116.9415, 62.90278
117.4236, 63.01583
117.9057, 63.32173
118.3878, 63.66084
118.8699, 63.96922
119.3520, 64.27003
119.8342, 64.61662
120.3163, 64.87914
120.7984, 65.36880
121.2805, 66.27177
121.7626, 67.37822
122.2447, 68.39755
122.7269, 69.15334
123.2090, 69.68900
123.6911, 70.37411
124.1732, 71.35067
124.6553, 72.29533
125.1374, 73.08053
125.6196, 73.72279
126.1017, 74.31129
126.5838, 74.89722
127.0659, 75.47762
127.5480, 76.04482
128.0302, 76.63110
128.5123, 77.18239
128.9944, 77.68001
129.4765, 78.14648
129.9586, 78.44222
130.4407, 78.32479
130.9229, 77.95385
131.4050, 77.61143
131.8871, 77.41122
132.3692, 77.32522
132.8513, 77.24717
133.3334, 77.07042
133.8155, 77.07043
134.2977, 77.40343
134.7798, 78.00608
135.2619, 78.70967
135.7440, 79.37344
136.2261, 79.98533
136.7082, 80.70888
137.1904, 81.59597
137.6725, 82.56152
138.1546, 83.55717
138.6367, 84.59492
139.1188, 85.71736
139.6009, 86.96716
140.0831, 88.34397
140.5652, 89.89320
141.0473, 91.81462
141.5294, 93.74430
142.0115, 95.40097
142.4936, 96.71634
142.9758, 97.83601
143.4579, 99.00620
143.9400, 100.4385
144.4221, 101.5209
144.9042, 102.1417
145.3863, 102.4110
145.8685, 102.3729
146.3506, 101.9842
146.8327, 101.4918
147.3148, 101.4890
147.7969, 102.0765
148.2790, 102.7171
148.7612, 103.2066
149.2433, 103.5795
149.7254, 103.9544
150.2075, 104.3948
150.6896, 104.8495
151.1717, 105.2192
151.6539, 105.4575
152.1360, 105.7243
152.6181, 106.1400
153.1002, 106.7089
153.5823, 107.4020
154.0644, 108.3105
154.5466, 109.2951
155.0287, 110.2631
155.5108, 111.1935
155.9929, 112.0844
156.4750, 112.8487
156.9571, 113.2385
157.4393, 114.0865
157.9214, 115.7918
158.4035, 117.9063
158.8856, 120.0802
159.3677, 122.1844
159.8498, 124.1133
160.3320, 125.4663
160.8141, 125.9325
161.2962, 126.1084
161.7783, 126.0707
162.2604, 125.8204
162.7425, 125.3380
163.2247, 124.6073
163.7068, 123.6351
164.1889, 122.5315
164.6710, 121.1282
165.1531, 119.7818
165.6352, 118.5532
166.1174, 117.4537
166.5995, 116.5407
167.0816, 115.8852
167.5637, 115.4824
168.0458, 114.8541
168.5279, 113.8767
169.0101, 112.8247
169.4922, 111.7987
169.9743, 110.8181
170.4564, 109.9375
170.9385, 109.2877
171.4206, 108.8180
171.9028, 108.0299
172.3849, 106.6809
172.8670, 105.1299
173.3491, 103.6600
173.8312, 102.2763
174.3133, 101.0738
174.7955, 100.1474
175.2776, 99.45972
175.7597, 99.00497
176.2418, 98.83151
176.7239, 98.88304
177.2060, 99.09594
177.6882, 99.56323
178.1703, 99.99284
178.6524, 100.1920
179.1345, 100.2225
179.6166, 100.1994
180.0987, 100.2234
180.5809, 100.2609
181.0630, 100.1064
181.5451, 99.64806
182.0272, 99.10725
182.5093, 98.55132
182.9914, 97.99283
183.4736, 97.44414
183.9557, 96.88744
184.4378, 96.31649
184.9199, 95.92780
185.4020, 96.05917
185.8841, 96.08403
186.3663, 95.62330
186.8484, 94.83826
187.3305, 94.22823
187.8126, 94.33268
188.2947, 95.36715
188.7768, 95.81914
189.2590, 95.22869
189.7411, 94.54827
190.2232, 94.20869
190.7053, 94.21140
191.1874, 94.28297
191.6695, 94.11314
192.1517, 93.56645
192.6338, 93.37786
193.1159, 93.98917
193.5980, 94.57438
194.0801, 94.56999
194.5622, 93.93098
195.0444, 93.02293
195.5265, 92.21700
196.0086, 91.52555
196.4907, 90.97709
196.9728, 90.66395
197.4549, 90.43889
197.9371, 90.16411
198.4192, 89.81464
198.9013, 89.46445
199.3834, 89.21585
199.8655, 89.06847
200.3476, 88.88040
200.8298, 88.69448
201.3119, 88.43085
201.7940, 87.96006
202.2761, 87.23780
202.7582, 86.39956
203.2403, 85.61389
203.7225, 84.85678
204.2046, 83.98595
204.6867, 82.82816
205.1688, 81.52256
205.6509, 80.34961
206.1330, 79.27905
206.6152, 78.47641
207.0973, 78.16505
207.5794, 78.22196
208.0615, 78.26833
208.5436, 78.00792
209.0257, 77.53294
209.5079, 77.30888
209.9900, 77.52530
210.4721, 77.79002
210.9542, 77.81027
211.4363, 77.67347
211.9184, 77.63909
212.4006, 78.00496
212.8827, 78.74074
213.3648, 79.15952
213.8469, 78.91200
214.3290, 78.68462
214.8111, 78.79221
215.2933, 79.15681
215.7754, 79.53413
216.2575, 79.69500
216.7396, 79.62051
217.2217, 79.71978
217.7038, 80.16723
218.1859, 80.64620
218.6681, 81.05959
219.1502, 81.42345
219.6323, 81.80240
220.1144, 82.23474
220.5965, 82.70773
221.0786, 83.38560
221.5608, 84.57999
222.0429, 85.68542
222.5250, 86.40419
223.0071, 86.82141
223.4892, 87.24996
223.9713, 88.00297
224.4535, 89.16922
224.9356, 89.80920
225.4177, 89.42491
225.8998, 89.08582
226.3819, 89.27360
226.8640, 89.93339
227.3462, 90.74169
227.8283, 91.43300
228.3104, 91.99586
228.7925, 92.59182
229.2746, 93.14479
229.7567, 93.78867
230.2389, 94.61361
230.7210, 95.60110
231.2031, 96.64042
231.6852, 97.64084
232.1673, 98.60218
232.6494, 99.66537
233.1316, 100.8412
233.6137, 102.0897
234.0958, 103.4489
234.5779, 104.8903
235.0600, 106.2651
235.5421, 107.4724
236.0243, 108.5061
236.5064, 109.4939
236.9885, 110.2859
237.4706, 111.1460
237.9527, 112.3256
238.4348, 113.7989
238.9170, 115.2295
239.3991, 116.3590
239.8812, 117.2924
240.3633, 118.4047
240.8454, 119.8398
241.3275, 121.3519
241.8097, 122.7008
242.2918, 123.9008
242.7739, 125.2280
243.2560, 126.9475
243.7381, 128.8632
244.2202, 130.5570
244.7024, 131.8307
245.1845, 133.0937
245.6666, 134.8411
246.1487, 137.0829
246.6308, 139.1145
247.1129, 140.3584
247.5951, 141.3389
248.0772, 142.7539
248.5593, 144.8456
249.0414, 147.0020
249.5235, 148.5146
250.0056, 149.3277
250.4878, 150.2761
250.9699, 151.7620
251.4520, 153.4529
251.9341, 155.1259
252.4162, 156.7801
252.8983, 158.2103
253.3805, 159.1498
253.8626, 159.5652
254.3447, 159.8254
254.8268, 160.2180
255.3089, 160.3252
255.7910, 159.7743
256.2732, 158.5215
256.7553, 156.9458
257.2374, 155.3886
257.7195, 153.8477
258.2016, 152.3641
258.6837, 150.9927
259.1659, 149.6522
259.6480, 148.2690
260.1301, 146.8524
260.6122, 145.4965
261.0943, 144.2744
261.5764, 143.1830
262.0586, 142.2836
262.5407, 141.7063
263.0228, 141.2326
263.5049, 140.7659
263.9870, 140.3128
264.4691, 139.9547
264.9513, 139.8226
265.4334, 139.9697
265.9155, 139.9205
266.3976, 139.7575
266.8797, 139.3019
267.3618, 138.3062
267.8440, 136.9184
268.3261, 135.5230
268.8082, 134.4511
269.2903, 133.7132
269.7724, 133.0155
270.2545, 132.4955
270.7367, 131.8834
271.2188, 131.0863
271.7009, 130.1330
272.1830, 129.0729
272.6651, 127.8988
273.1472, 126.6363
273.6294, 125.7039
274.1115, 125.4393
274.5936, 125.1900
275.0757, 124.8434
275.5578, 124.4206
276.0399, 123.9545
276.5221, 123.4525
277.0042, 122.9478
277.4863, 122.6431
277.9684, 122.7500
278.4505, 122.8457
278.9326, 122.8766
279.4148, 122.8686
279.8969, 122.8759
280.3790, 122.9277
280.8611, 122.9857
281.3432, 122.9259
281.8253, 122.5843
282.3075, 122.3151
282.7896, 122.1115
283.2717, 121.9995
283.7538, 122.0284
284.2359, 122.2133
284.7180, 122.4910
285.2002, 122.7278
285.6823, 122.8968
286.1644, 123.0568
286.6465, 123.0920
287.1286, 123.1812
287.6107, 123.5390
288.0929, 124.2050
288.5750, 124.9710
289.0571, 125.5231
289.5392, 125.7058
290.0213, 126.0100
290.5034, 126.5593
290.9856, 127.1339
291.4677, 127.5842
291.9498, 127.8843
292.4319, 128.0780
292.9140, 128.1889
293.3961, 128.1615
293.8783, 128.3186
294.3604, 128.7314
294.8425, 129.2403
295.3246, 129.8129
295.8067, 130.4114
296.2888, 130.9456
296.7710, 131.3378
297.2531, 131.5800
297.7352, 131.7543
298.2173, 131.7780
298.6994, 131.8269
299.1815, 132.0502
299.6637, 132.3712
300.1458, 132.5665
300.6279, 132.4682
301.1100, 132.1249
301.5921, 131.9507
302.0742, 132.0164
302.5564, 132.1355
303.0385, 132.2469
303.5206, 132.3779
304.0027, 132.6213
304.4848, 133.0415
304.9669, 133.5279
305.4491, 133.7349
305.9312, 133.4926
306.4133, 133.2233
306.8954, 132.9862
307.3775, 132.7519
307.8596, 132.4776
308.3418, 132.1495
308.8239, 131.7920
309.3060, 131.4473
309.7881, 131.1004
310.2702, 130.8042
310.7523, 130.6256
311.2345, 130.4614
311.7166, 130.1814
312.1987, 129.7706
312.6808, 129.3674
313.1629, 129.1439
313.6451, 129.1638
314.1272, 129.1084
314.6093, 128.9716
315.0914, 128.7669
315.5735, 128.4541
316.0556, 128.0580
316.5378, 127.7098
317.0199, 127.5433
317.5020, 127.5639
317.9841, 127.3540
318.4662, 126.6008
318.9483, 125.9614
319.4305, 125.7894
319.9126, 125.9806
320.3947, 126.2349
320.8768, 126.3931
321.3589, 126.4534
321.8410, 126.3921
322.3232, 126.1609
322.8053, 125.8903
323.2874, 125.5338
323.7695, 125.1739
324.2516, 124.9460
324.7337, 124.9094
325.2159, 125.0058
325.6980, 125.1075
326.1801, 125.1260
326.6622, 125.3081
327.1443, 125.6272
327.6264, 126.1389
328.1086, 126.9829
328.5907, 128.1728
329.0728, 129.4596
329.5549, 130.5146
330.0370, 131.2307
330.5191, 132.0574
331.0013, 133.0091
331.4834, 134.0508
331.9655, 135.1270
332.4476, 136.2538
332.9297, 137.5251
333.4118, 139.0418
333.8940, 140.8161
334.3761, 142.6263
334.8582, 144.4134
335.3403, 146.2874
335.8224, 148.3934
336.3045, 150.6250
336.7867, 152.7721
337.2688, 154.6919
337.7509, 156.4350
338.2330, 158.2197
338.7151, 160.1159
339.1972, 161.9713
339.6793, 163.7085
340.1614, 165.4190
340.6436, 167.1952
341.1257, 169.0894
341.6078, 171.1118
342.0899, 173.2957
342.5720, 175.7012
343.0541, 178.1885
343.5363, 180.9802
344.0184, 183.7150
344.5005, 186.0674
344.9826, 188.0134
345.4647, 189.7930
345.9468, 191.6514
346.4290, 193.5860
346.9111, 195.6671
347.3932, 198.0477
347.8753, 200.3860
348.3574, 202.6019
348.8395, 204.6446
349.3217, 206.4395
349.8038, 207.9147
350.2859, 209.0914
350.7680, 210.1423
351.2501, 211.0370
351.7322, 211.8394
352.2144, 212.7289
352.6965, 213.4787
353.1786, 213.7756
353.6607, 213.4798
354.1428, 212.7154
354.6249, 211.7366
355.1071, 210.2903
355.5892, 209.0515
356.0713, 208.1564
356.5534, 207.3894
357.0355, 206.6400
357.5176, 205.8603
357.9998, 204.9904
358.4819, 203.9207
358.9640, 202.5554
359.4461, 201.3940
359.9282, 200.6040
360.4103, 199.8374
360.8925, 198.8697
361.3746, 197.7919
361.8567, 196.8898
362.3388, 196.4054
362.8209, 196.2793
363.3030, 195.9626
363.7852, 195.3620
364.2673, 194.6673
364.7494, 193.7075
365.2315, 192.7561
365.7136, 192.1981
366.1957, 192.2107
366.6779, 192.5227
367.1600, 192.5804
367.6421, 192.2776
368.1242, 191.9788
368.6063, 191.6114
369.0884, 191.3509
369.5706, 191.3209
370.0527, 191.5376
370.5348, 191.9385
371.0169, 192.5401
371.4990, 193.3648
371.9811, 194.0148
372.4633, 194.3520
372.9454, 194.6377
373.4275, 195.0504
373.9096, 195.5121
374.3917, 195.8184
374.8738, 195.7534
375.3560, 195.4873
375.8381, 195.5228
376.3202, 195.8537
376.8023, 196.5197
377.2844, 197.8267
377.7665, 199.3324
378.2487, 200.5453
378.7308, 201.3029
379.2129, 201.8790
379.6950, 202.5758
380.1771, 203.3966
380.6592, 204.2475
381.1414, 205.1007
381.6235, 205.9909
382.1056, 207.0071
382.5877, 208.1371
383.0698, 209.1384
383.5519, 209.6072
384.0341, 209.8273
384.5162, 210.8042
384.9983, 212.9176
385.4804, 215.0421
385.9625, 216.1223
386.4446, 216.5841
386.9268, 217.2706
387.4089, 218.7444
387.8910, 220.2786
388.3731, 221.0206
388.8552, 220.9925
389.3373, 220.8242
389.8195, 220.8056
390.3016, 220.8069
390.7837, 220.5785
391.2658, 220.0546
391.7479, 219.5024
392.2300, 218.9431
392.7122, 218.4596
393.1943, 218.3016
393.6764, 218.5883
394.1585, 218.9543
394.6406, 218.8998
395.1227, 218.4088
395.6049, 218.1429
396.0870, 218.1087
396.5691, 218.3872
397.0512, 219.2498
397.5333, 220.6113
398.0154, 221.7825
398.4976, 222.1837
398.9797, 222.0321
399.4618, 222.7043
399.9439, 224.6424
400.4260, 226.7366
400.9081, 228.7903
401.3903, 230.7599
401.8724, 232.5419
402.3545, 234.0959
402.8366, 235.5234
403.3187, 236.9717
403.8008, 238.4054
404.2830, 239.9594
404.7651, 241.5616
405.2472, 243.3338
405.7293, 245.4716
406.2114, 247.8948
406.6935, 250.2780
407.1757, 252.3290
407.6578, 254.0480
408.1399, 255.9550
408.6220, 258.1275
409.1041, 260.3970
409.5862, 262.6544
410.0684, 265.0120
410.5505, 267.7441
411.0326, 270.9468
411.5147, 274.3065
411.9968, 277.1852
412.4789, 279.2704
412.9611, 281.5380
413.4432, 283.8931
413.9253, 286.5418
414.4074, 289.8042
414.8895, 293.5681
415.3716, 297.2740
415.8538, 300.3648
416.3359, 302.8928
416.8180, 305.7342
417.3001, 308.9029
417.7822, 312.4085
418.2643, 316.5591
418.7465, 320.9068
419.2286, 324.8004
419.7107, 327.9352
420.1928, 330.7355
420.6749, 333.8801
421.1570, 337.4244
421.6392, 340.9043
422.1213, 343.8948
422.6034, 347.0504
423.0855, 351.0446
423.5676, 355.8504
424.0497, 360.4497
424.5319, 363.9922
425.0140, 366.8592
425.4961, 370.1785
425.9782, 374.1602
426.4603, 378.0764
426.9424, 381.2827
427.4246, 384.0370
427.9067, 386.8073
428.3888, 389.5038
428.8709, 392.4255
429.3530, 395.9082
429.8351, 399.8465
430.3173, 403.8074
430.7994, 407.6924
431.2815, 411.3840
431.7636, 414.5942
432.2457, 417.2477
432.7278, 420.0004
433.2100, 423.0492
433.6921, 426.2333
434.1742, 429.4190
434.6563, 432.5819
435.1384, 435.5996
435.6205, 438.2896
436.1027, 440.6944
436.5848, 443.5948
437.0669, 447.3317
437.5490, 451.0959
438.0311, 454.8203
438.5132, 458.3653
438.9954, 461.3926
439.4775, 463.7809
439.9596, 466.0155
440.4417, 468.9053
440.9238, 472.5872
441.4059, 476.6938
441.8881, 481.5819
442.3702, 486.5274
442.8523, 491.1163
443.3344, 495.3526
443.8165, 499.4371
444.2986, 503.4307
444.7808, 507.4189
445.2629, 511.9335
445.7450, 517.3671
446.2271, 522.7646
446.7092, 527.6182
447.1913, 532.5161
447.6735, 538.0583
448.1556, 544.3845
448.6377, 551.1197
449.1198, 557.9329
449.6019, 564.8178
450.0840, 571.6769
450.5662, 578.6339
451.0483, 585.4439
451.5304, 591.7304
452.0125, 597.7686
452.4946, 604.2950
452.9767, 611.8663
453.4589, 619.9285
453.9410, 627.6310
454.4231, 634.9186
454.9052, 642.2222
455.3873, 649.6433
455.8694, 657.2245
456.3516, 665.0579
456.8337, 673.1699
457.3158, 681.1830
457.7979, 688.8895
458.2800, 696.3534
458.7621, 703.6362
459.2443, 710.7223
459.7264, 717.7580
460.2085, 725.0088
460.6906, 732.3239
461.1727, 738.8384
461.6548, 744.0362
462.1370, 748.9252
462.6191, 753.9064
463.1012, 758.9156
463.5833, 763.8889
464.0654, 768.8583
464.5475, 773.4713
465.0297, 777.1845
465.5118, 779.9764
465.9939, 781.6890
466.4760, 781.7524
466.9581, 781.3183
467.4402, 781.0384
467.9224, 780.8743
468.4045, 780.6166
468.8866, 780.2211
469.3687, 779.4273
469.8508, 776.9027
470.3329, 771.1058
470.8151, 766.0235
471.2972, 763.1670
471.7793, 760.5277
472.2614, 756.3389
472.7435, 750.3544
473.2256, 743.6490
473.7078, 737.2499
474.1899, 731.1223
474.6720, 724.7836
475.1541, 718.1084
475.6362, 711.3997
476.1183, 704.8912
476.6005, 698.3803
477.0826, 691.5931
477.5647, 684.3957
478.0468, 676.9644
478.5289, 669.3884
479.0110, 661.7156
479.4932, 653.9849
479.9753, 646.3322
480.4574, 638.5328
480.9395, 630.3650
481.4216, 621.8538
481.9037, 613.1536
482.3859, 604.2777
482.8680, 595.3039
483.3501, 586.2399
483.8322, 577.1136
484.3143, 567.9333
484.7964, 558.6017
485.2786, 549.2768
485.7607, 540.4303
486.2428, 532.5666
486.7249, 524.2678
487.2070, 514.8339
487.6891, 505.1581
488.1713, 496.1357
488.6534, 487.8272
489.1355, 479.7459
489.6176, 471.4966
490.0997, 463.0426
490.5818, 454.9126
491.0640, 447.3246
491.5461, 439.8703
492.0282, 432.6990
492.5103, 425.5436
492.9924, 418.0277
493.4745, 410.0806
493.9567, 402.3644
494.4388, 395.8054
494.9209, 390.5424
495.4030, 385.1789
495.8851, 379.7480
496.3672, 374.1143
496.8494, 367.8843
497.3315, 361.4825
497.8136, 355.7147
498.2957, 351.0458
498.7778, 346.9237
499.2599, 342.7393
499.7421, 338.4872
500.2242, 334.1953
500.7063, 329.7071
501.1884, 325.3462
501.6705, 321.5895
502.1526, 318.3854
502.6348, 315.2356
503.1169, 311.9557
503.5990, 308.6811
504.0811, 305.4734
504.5632, 302.3561
505.0453, 299.4077
505.5274, 296.6877
506.0096, 294.1076
506.4917, 291.4160
506.9738, 288.2626
507.4559, 285.5811
507.9380, 283.8622
508.4201, 282.3113
508.9023, 280.2893
509.3844, 277.7513
509.8665, 274.9275
510.3486, 271.9562
510.8307, 268.8839
511.3128, 266.2044
511.7950, 263.8837
512.2771, 262.0626
512.7592, 261.1544
513.2413, 260.4602
513.7234, 259.3242
514.2056, 257.6282
514.6877, 255.7876
515.1698, 254.2655
515.6519, 253.0020
516.1340, 251.3235
516.6161, 248.9223
517.0983, 246.7079
517.5804, 245.4741
518.0625, 244.6778
518.5446, 243.5076
519.0267, 241.7061
519.5089, 239.7754
519.9910, 238.1216
520.4731, 236.6240
520.9552, 234.9390
521.4373, 232.9642
521.9194, 230.8822
522.4016, 228.8038
522.8837, 226.7379
523.3658, 224.9153
523.8479, 223.6991
524.3300, 222.3416
524.8121, 220.2842
525.2943, 217.9031
525.7764, 215.9065
526.2585, 214.5557
526.7406, 213.4122
527.2227, 211.7753
527.7048, 209.3813
528.1870, 207.4492
528.6691, 206.2253
529.1512, 205.1867
529.6333, 204.1761
530.1154, 203.2053
530.5975, 202.3283
531.0797, 201.5659
531.5618, 200.9296
532.0439, 200.5091
532.5260, 200.3592
533.0081, 199.9676
533.4902, 198.9853
533.9724, 198.0456
534.4545, 197.6571
534.9366, 197.6982
535.4187, 197.7062
535.9008, 197.6224
536.3829, 197.3271
536.8651, 196.4048
537.3472, 195.0069
537.8293, 194.2761
538.3114, 194.7861
538.7935, 195.8214
539.2756, 196.2265
539.7578, 195.8502
540.2399, 195.6740
540.7220, 195.8105
541.2041, 196.1532
541.6862, 196.8117
542.1683, 197.6233
542.6505, 198.1414
543.1326, 198.1084
543.6147, 197.7910
544.0968, 197.8709
544.5789, 198.6956
545.0610, 199.2066
545.5432, 199.2074
546.0253, 199.0798
546.5074, 198.9486
546.9895, 198.8683
547.4716, 198.9248
547.9537, 199.2132
548.4359, 199.5986
548.9180, 199.7781
549.4001, 199.7272
549.8822, 199.6257
550.3643, 199.3719
550.8464, 199.2408
551.3286, 199.5559
551.8107, 200.2779
552.2928, 200.9436
552.7749, 201.4399
553.2570, 201.7483
553.7391, 201.6884
554.2213, 201.3532
554.7034, 201.3086
555.1855, 201.8771
555.6676, 202.7274
556.1497, 203.1920
556.6318, 203.0576
557.1140, 203.0083
557.5961, 202.9971
558.0782, 203.1243
558.5603, 203.7192
559.0424, 204.5116
559.5245, 204.8020
560.0067, 204.1700
560.4888, 202.9567
560.9709, 201.9844
561.4530, 201.2915
561.9351, 200.7434
562.4172, 200.5686
562.8994, 200.3314
563.3815, 199.7075
563.8636, 198.8129
564.3457, 198.0541
564.8278, 197.7135
565.3099, 197.5288
565.7921, 197.0149
566.2742, 196.1983
566.7563, 195.7376
567.2384, 196.0011
567.7205, 196.4381
568.2026, 196.1933
568.6848, 195.2764
569.1669, 194.7465
569.6490, 195.1944
570.1311, 195.6856
570.6132, 195.5354
571.0953, 194.9207
571.5775, 194.3342
572.0596, 193.9884
572.5417, 193.7725
573.0238, 193.5204
573.5059, 193.2955
573.9880, 192.8292
574.4702, 191.7673
574.9523, 190.8464
575.4344, 190.4248
575.9165, 190.3345
576.3986, 190.2751
576.8807, 190.1186
577.3629, 189.9371
577.8450, 189.8658
578.3271, 189.9024
578.8092, 189.7940
579.2913, 189.4047
579.7734, 189.0405
580.2556, 189.0471
580.7377, 189.2645
581.2198, 189.2834
581.7019, 188.9176
582.1840, 188.4801
582.6661, 188.1312
583.1483, 187.8552
583.6304, 187.6546
584.1125, 187.5278
584.5946, 187.3426
585.0767, 186.9294
585.5588, 186.2737
586.0409, 185.8345
586.5230, 185.8441
587.0051, 185.7695
587.4872, 185.4434
587.9694, 185.0023
588.4515, 184.5683
588.9336, 184.1815
589.4157, 183.8692
589.8978, 183.6716
590.3799, 183.5789
590.8621, 183.5311
591.3442, 183.6085
591.8263, 183.5292
592.3084, 183.0235
592.7905, 182.3671
593.2726, 181.8668
593.7548, 181.5643
594.2369, 181.3022
594.7190, 181.1774
595.2011, 180.9601
595.6832, 180.1509
596.1653, 178.8088
596.6475, 177.7063
597.1296, 177.3506
597.6117, 177.4962
598.0938, 177.4450
598.5759, 177.0951
599.0580, 176.6977
599.5402, 176.2890
600.0223, 175.8052
600.5044, 175.1890
600.9865, 174.4624
601.4686, 173.6616
601.9507, 172.7920
602.4329, 171.9322
602.9150, 171.2472
603.3971, 170.7380
603.8792, 170.4128
604.3613, 170.5566
604.8434, 170.5391
605.3256, 169.8046
605.8077, 168.5407
606.2898, 167.3560
606.7719, 166.4506
607.2540, 165.6368
607.7361, 164.7400
608.2183, 163.8150
608.7004, 163.0292
609.1825, 162.4310
609.6646, 161.9067
610.1467, 161.3679
610.6288, 160.8233
611.1110, 160.0581
611.5931, 158.6783
612.0752, 157.5796
612.5573, 157.1965
613.0394, 157.0696
613.5215, 156.7033
614.0037, 156.0049
614.4858, 155.2151
614.9679, 154.5041
615.4500, 153.8853
615.9321, 153.5108
616.4142, 153.5280
616.8964, 153.2803
617.3785, 152.3078
617.8606, 151.0685
618.3427, 150.1096
618.8248, 149.4574
619.3069, 148.8459
619.7891, 148.1808
620.2712, 147.5054
620.7533, 146.7983
621.2354, 146.1049
621.7175, 145.5865
622.1996, 145.3231
622.6818, 145.2454
623.1639, 145.2708
623.6460, 145.5991
624.1281, 145.4324
624.6102, 144.1787
625.0923, 143.1059
625.5745, 142.9247
626.0566, 143.2010
626.5387, 143.1686
627.0208, 142.5399
627.5029, 141.7962
627.9850, 141.5129
628.4672, 141.6302
628.9493, 141.7433
629.4314, 141.8346
629.9135, 141.8668
630.3956, 141.8423
630.8777, 141.7267
631.3599, 141.4378
631.8420, 140.8640
632.3241, 140.3660
632.8062, 139.9958
633.2883, 139.7950
633.7704, 139.8828
634.2526, 140.2028
634.7347, 140.5229
635.2168, 140.6967
635.6989, 140.7655
636.1810, 140.8605
636.6631, 141.0359
637.1453, 141.0972
637.6274, 140.8731
638.1095, 140.6741
638.5916, 140.7216
639.0737, 140.9077
639.5558, 140.9168
640.0380, 140.4845
640.5201, 140.1680
641.0022, 140.6859
641.4843, 141.8072
641.9664, 142.7634
642.4485, 143.4194
642.9307, 143.8241
643.4128, 143.9569
643.8949, 143.8581
644.3770, 143.8936
644.8591, 144.1128
645.3412, 144.3799
645.8234, 144.6859
646.3055, 145.0220
646.7876, 145.3681
647.2697, 145.7318
647.7518, 146.1691
648.2339, 146.7557
648.7161, 147.3707
649.1982, 147.6139
649.6803, 147.3812
650.1624, 147.4438
650.6445, 148.0486
651.1266, 148.8997
651.6088, 149.8487
652.0909, 150.8442
652.5730, 151.6481
653.0551, 152.0891
653.5372, 152.4624
654.0193, 152.9923
654.5015, 153.5622
654.9836, 153.9182
655.4657, 154.0278
655.9478, 154.1434
656.4299, 154.4883
656.9120, 155.0561
657.3942, 155.8074
657.8763, 156.9766
658.3584, 157.9266
658.8405, 158.2905
659.3226, 158.6421
659.8047, 159.4306
660.2869, 160.6220
660.7690, 161.8965
661.2511, 163.2703
661.7332, 164.4355
662.2153, 164.7314
662.6974, 164.3520
663.1796, 164.4763
663.6617, 165.4916
664.1438, 166.7706
664.6259, 167.6733
665.1080, 168.1922
665.5901, 168.7643
666.0723, 169.3986
666.5544, 170.0686
667.0365, 170.8141
667.5186, 171.5642
668.0007, 172.3072
668.4828, 173.0011
668.9650, 173.4930
669.4471, 173.5805
669.9292, 173.4665
670.4113, 173.7460
670.8934, 174.4563
671.3755, 175.2488
671.8577, 176.0804
672.3398, 176.8945
672.8219, 177.6486
673.3040, 178.3446
673.7861, 178.9208
674.2682, 179.2092
674.7504, 179.5520
675.2325, 180.2892
675.7146, 181.1117
676.1967, 181.5118
676.6788, 181.4301
677.1609, 181.2121
677.6431, 181.1128
678.1252, 181.1823
678.6073, 181.8053
679.0894, 183.3528
679.5715, 184.5264
680.0536, 184.8605
680.5358, 184.8878
681.0179, 184.8509
681.5000, 184.7977
681.9821, 184.8503
682.4642, 185.0737
682.9464, 185.3926
683.4285, 185.8114
683.9106, 186.2698
684.3927, 186.6623
684.8748, 186.9598
685.3569, 187.0723
685.8391, 186.8317
686.3212, 186.3511
686.8033, 186.6287
687.2854, 188.3936
687.7675, 189.7568
688.2496, 190.5474
688.7318, 190.9024
689.2139, 190.6529
689.6960, 190.0253
690.1781, 189.6579
690.6602, 189.9056
691.1423, 190.4433
691.6245, 190.9936
692.1066, 191.5191
692.5887, 191.8386
693.0708, 191.8995
693.5529, 191.9499
694.0350, 192.1873
694.5172, 192.5908
694.9993, 193.0344
695.4814, 193.6052
695.9635, 194.0945
696.4456, 194.3315
696.9277, 194.6186
697.4099, 195.3213
697.8920, 196.2617
698.3741, 196.8956
698.8562, 196.8966
699.3383, 196.6900
699.8204, 196.9322
700.3026, 197.5490
700.7847, 198.0040
701.2668, 198.2315
701.7489, 198.2372
702.2310, 197.9154
702.7131, 197.3997
703.1953, 197.1988
703.6774, 197.5307
704.1595, 197.7115
704.6416, 197.6575
705.1237, 197.4168
705.6058, 196.7946
706.0880, 196.0429
706.5701, 195.7769
707.0522, 196.3074
707.5343, 196.9955
708.0164, 196.8128
708.4985, 195.8315
708.9807, 195.1305
709.4628, 194.7907
709.9449, 194.7068
710.4270, 195.0830
710.9091, 195.5380
711.3912, 195.1999
711.8734, 193.8075
712.3555, 192.6851
712.8376, 192.3633
713.3197, 192.1286
713.8018, 191.3657
714.2839, 190.3461
714.7661, 189.7495
715.2482, 189.7994
715.7303, 189.9198
716.2124, 189.2674
716.6945, 187.9218
717.1766, 187.1586
717.6588, 187.1851
718.1409, 187.1233
718.6230, 186.5904
719.1051, 185.8266
719.5872, 185.1581
720.0693, 184.5862
720.5515, 183.9736
721.0336, 183.3424
721.5157, 182.6108
721.9978, 181.6144
722.4799, 180.5290
722.9620, 179.6449
723.4442, 179.0229
723.9263, 178.5083
724.4084, 177.9569
724.8905, 177.3770
725.3726, 176.8102
725.8547, 176.2645
726.3369, 175.7105
726.8190, 175.1641
727.3011, 174.5796
727.7832, 173.9514
728.2653, 173.2627
728.7474, 172.4267
729.2296, 171.1773
729.7117, 170.0672
730.1938, 169.5120
730.6759, 169.1394
731.1580, 168.4509
731.6401, 167.4384
732.1223, 166.4595
732.6044, 165.7648
733.0865, 165.2500
733.5686, 164.6692
734.0507, 164.0219
734.5328, 163.2991
735.0150, 162.4270
735.4971, 161.5967
735.9792, 161.0273
736.4613, 160.5711
736.9434, 159.9129
737.4255, 158.9627
737.9077, 157.9787
738.3898, 156.9171
738.8719, 155.9568
739.3540, 155.3220
739.8361, 154.9182
740.3182, 154.4845
740.8004, 153.9019
741.2825, 153.1925
741.7646, 152.3320
742.2467, 151.3164
742.7288, 150.5124
743.2109, 150.0338
743.6931, 149.4402
744.1752, 148.4506
744.6573, 147.3221
745.1394, 146.4331
745.6215, 145.7981
746.1036, 145.1523
746.5858, 144.3967
747.0679, 143.6721
747.5500, 143.1214
748.0321, 142.6302
748.5142, 142.0085
748.9963, 141.2244
749.4785, 140.4024
749.9606, 139.6357
750.4427, 138.9226
750.9248, 138.2882
751.4069, 137.7484
751.8890, 137.1519
752.3712, 136.4682
752.8533, 135.7076
753.3354, 134.8102
753.8175, 133.8252
754.2996, 133.0332
754.7817, 132.5660
755.2639, 132.1105
755.7460, 131.6082
756.2281, 131.0763
756.7102, 130.4834
757.1923, 129.8715
757.6744, 129.3619
758.1566, 129.0207
758.6387, 128.7250
759.1208, 128.3240
759.6029, 127.8148
760.0850, 127.1485
760.5671, 126.2679
761.0493, 125.5308
761.5314, 125.1318
762.0135, 124.9710
762.4956, 124.8876
762.9777, 124.9395
763.4598, 124.8548
763.9420, 124.5527
764.4241, 124.1985
764.9062, 123.8408
765.3883, 123.4841
765.8704, 123.1105
766.3525, 122.7277
766.8347, 122.3926
767.3168, 122.1122
767.7989, 121.9384
768.2810, 122.0764
768.7631, 122.4654
769.2452, 122.5713
769.7274, 122.2190
770.2095, 121.8157
770.6916, 121.7433
771.1737, 121.9642
771.6558, 122.1684
772.1379, 122.3486
772.6201, 122.5216
773.1022, 122.9204
773.5843, 123.0936
774.0664, 122.5532
774.5485, 121.6050
775.0306, 120.9373
775.5128, 120.8030
775.9949, 120.9077
776.4770, 121.0575
776.9591, 121.2665
777.4412, 121.6609
777.9233, 122.1839
778.4055, 122.3973
778.8876, 122.0718
779.3697, 121.6074
779.8518, 121.7034
780.3339, 122.4808
780.8160, 122.6366
781.2982, 121.5134
781.7803, 120.8441
782.2624, 121.5816
782.7445, 122.6476
783.2266, 123.0938
783.7087, 122.9291
784.1909, 122.7427
784.6730, 122.7347
785.1551, 122.7613
785.6372, 122.6988
786.1193, 122.6259
786.6014, 122.7232
787.0836, 122.9651
787.5657, 123.0852
788.0478, 122.8862
788.5299, 122.5091
789.0120, 122.3049
789.4941, 122.3006
789.9763, 122.1174
790.4584, 121.6229
790.9405, 121.1813
791.4226, 121.0053
791.9047, 121.0177
792.3868, 121.0674
792.8690, 121.1672
793.3511, 121.2488
793.8332, 121.4395
794.3153, 121.4636
794.7974, 121.0688
795.2795, 120.4611
795.7617, 119.9157
796.2438, 119.5033
796.7259, 119.1631
797.2080, 118.8580
797.6901, 118.5847
798.1722, 118.3504
798.6544, 118.1486
799.1365, 117.9262
799.6186, 117.6725
800.1007, 117.3804
800.5828, 117.0490
801.0649, 116.6731
801.5471, 116.2225
802.0292, 115.5355
802.5113, 115.0511
802.9934, 115.0681
803.4755, 114.9734
803.9576, 114.3742
804.4398, 113.4948
804.9219, 112.6988
805.4040, 112.0683
805.8861, 111.5884
806.3682, 111.3596
806.8503, 111.2016
807.3325, 110.9563
807.8146, 110.5993
808.2967, 110.0530
808.7788, 109.3046
809.2609, 108.5245
809.7430, 107.8933
810.2252, 107.3808
810.7073, 106.7885
811.1894, 106.1082
811.6715, 105.3649
812.1536, 104.3663
812.6357, 103.5791
813.1179, 103.6725
813.6000, 104.2623
814.0821, 104.1352
814.5642, 102.7844
815.0463, 101.6348
815.5284, 101.2308
816.0106, 100.9488
816.4927, 100.3073
816.9748, 99.45201
817.4569, 98.76173
817.9390, 98.35134
818.4211, 97.94552
818.9033, 97.22190
819.3854, 96.32355
819.8675, 95.54420
820.3496, 94.89394
820.8317, 94.50681
821.3138, 94.46072
821.7960, 94.40188
822.2781, 93.94173
822.7602, 93.14611
823.2423, 92.59994
823.7244, 92.42097
824.2065, 92.28032
824.6887, 92.24208
825.1708, 92.14338
825.6529, 91.83081
826.1350, 91.41552
826.6171, 91.12843
827.0992, 91.04662
827.5814, 90.93990
828.0635, 90.52055
828.5456, 90.17432
829.0277, 90.31861
829.5098, 90.82024
829.9919, 91.37516
830.4741, 91.87770
830.9562, 92.30941
831.4383, 92.57674
831.9204, 92.81971
832.4025, 93.59024
832.8846, 94.91647
833.3668, 96.25723
833.8489, 97.47002
834.3310, 98.76875
834.8131, 100.2545
835.2952, 101.9796
835.7773, 104.1320
836.2595, 106.6694
836.7416, 109.7353
837.2237, 113.7738
837.7058, 117.8398
838.1879, 121.4431
838.6700, 124.8306
839.1522, 128.5083
839.6343, 132.5424
840.1164, 136.3050
840.5985, 139.2063
841.0806, 141.8333
841.5627, 144.7920
842.0449, 147.9755
842.5270, 151.0939
843.0091, 154.1032
843.4912, 157.2740
843.9733, 160.8116
844.4554, 164.6408
844.9376, 168.5931
845.4197, 172.6576
845.9018, 176.7488
846.3839, 180.7077
846.8660, 185.0460
847.3481, 190.0214
847.8303, 195.4905
848.3124, 201.1901
848.7945, 207.5095
849.2766, 213.5454
849.7587, 221.3575
850.2408, 229.1944
850.7230, 237.2739
851.2051, 244.7208
851.6872, 251.3138
852.1693, 256.5695
852.6514, 259.1655
853.1335, 258.2729
853.6157, 254.9285
854.0978, 249.3706
854.5799, 242.3489
855.0620, 234.8340
855.5441, 227.1610
856.0262, 219.9245
856.5084, 213.4502
856.9905, 207.8034
857.4726, 203.1340
857.9547, 199.4323
858.4368, 197.0843
858.9189, 196.3382
859.4011, 195.9117
859.8832, 195.1188
860.3653, 194.9894
860.8474, 196.6243
861.3295, 199.9072
861.8116, 203.6244
862.2938, 207.9221
862.7759, 212.4209
863.2580, 217.9067
863.7401, 222.7386
864.2222, 226.5669
864.7043, 228.8001
865.1865, 228.7968
865.6686, 226.3932
866.1507, 221.1064
866.6328, 211.6331
867.1149, 199.8388
867.5970, 187.2760
868.0792, 174.3267
868.5613, 161.6579
869.0434, 149.5376
869.5255, 138.3758
870.0076, 128.4888
870.4897, 119.8416
870.9719, 112.3289
871.4540, 105.9686
871.9361, 100.6227
872.4182, 96.41531
872.9003, 92.79237
873.3824, 89.47800
873.8646, 86.57925
874.3467, 84.30814
874.8288, 82.78024
875.3109, 81.34676
875.7930, 79.99529
876.2751, 78.74958
876.7573, 77.67614
877.2394, 76.66239
877.7215, 75.50251
878.2036, 74.31200
878.6857, 73.48299
879.1678, 73.27393
879.6500, 73.12820
880.1321, 72.68516
880.6142, 72.14124
881.0963, 71.72227
881.5784, 71.39346
882.0605, 71.00228
882.5427, 70.50161
883.0248, 69.99419
883.5069, 69.57450
883.9890, 69.23473
884.4711, 68.97553
884.9532, 68.79173
885.4354, 68.59257
885.9175, 68.35342
886.3996, 68.15287
886.8817, 68.07123
887.3638, 68.04003
887.8459, 67.84582
888.3281, 67.36581
888.8102, 67.10310
889.2923, 67.21712
889.7744, 67.32295
890.2565, 67.26437
890.7386, 67.14875
891.2208, 67.04099
891.7029, 66.95631
892.1850, 67.01117
892.6671, 67.40056
893.1492, 67.71148
893.6313, 67.80012
894.1135, 67.74370
894.5956, 67.56626
895.0777, 67.31371
895.5598, 67.08289
896.0419, 66.91165
896.5240, 66.67410
897.0062, 66.17710
897.4883, 65.58871
897.9704, 65.14561
898.4525, 64.85396
898.9346, 64.73306
899.4167, 64.77851
899.8989, 64.85042
900.3810, 64.82354
900.8631, 64.76645
901.3452, 64.89184
901.8273, 65.21730
902.3094, 65.52739
902.7916, 65.84282
903.2737, 66.00021
903.7558, 65.87261
904.2379, 65.60660
904.7200, 65.41373
905.2021, 65.29874
905.6843, 65.20969
906.1664, 65.22896
906.6485, 65.15923
907.1306, 64.85194
907.6127, 64.55808
908.0948, 64.46435
908.5770, 64.51964
909.0591, 64.61723
909.5412, 64.78799
910.0233, 64.76173
910.5054, 64.22013
910.9875, 63.63135
911.4697, 63.37537
911.9518, 63.32258
912.4339, 63.19176
912.9160, 62.96385
913.3981, 62.90212
913.8802, 63.23973
914.3624, 63.71117
914.8445, 63.89985
915.3265, 63.92371
915.8087, 64.08178
916.2908, 64.41416
916.7729, 64.92459
917.2550, 65.61412
917.7371, 66.52328
918.2192, 67.77858
918.7014, 69.32687
919.1835, 70.46120
919.6656, 71.07713
920.1477, 71.86182
920.6298, 73.02641
921.1119, 74.25813
921.5941, 75.37157
922.0762, 76.35830
922.5583, 77.17741
923.0404, 77.81506
923.5225, 78.32433
924.0046, 78.67130
924.4868, 78.94009
924.9689, 79.00397
925.4510, 79.11143
925.9331, 79.51737
926.4152, 80.20870
926.8973, 80.99818
927.3795, 81.94103
927.8616, 82.80039
928.3437, 83.32203
928.8258, 83.84082
929.3079, 84.74763
929.7900, 85.85042
930.2722, 86.74197
930.7543, 87.30637
931.2364, 87.77509
931.7185, 88.47559
932.2006, 89.04565
932.6827, 88.97799
933.1649, 88.39233
933.6470, 87.65963
934.1291, 86.77295
934.6112, 85.30352
935.0933, 82.99507
935.5754, 80.14031
936.0576, 77.12751
936.5397, 73.96999
937.0218, 70.67844
937.5039, 67.21651
937.9860, 64.34972
938.4681, 62.39411
938.9503, 60.76899
939.4324, 58.99366
939.9145, 57.12222
940.3966, 55.36261
940.8787, 53.63102
941.3608, 52.24514
941.8430, 51.33028
942.3251, 50.56513
942.8072, 49.89965
943.2893, 49.26159
943.7714, 48.48607
944.2535, 47.59620
944.7357, 47.01454
945.2178, 47.07119
945.6999, 47.01684
946.1820, 46.54311
946.6641, 46.06976
947.1462, 45.96474
947.6284, 46.02431
948.1105, 45.86945
948.5926, 45.42056
949.0747, 44.89101
949.5568, 44.38793
950.0389, 43.83970
950.5211, 43.13667
951.0032, 42.39041
951.4853, 41.74387
951.9674, 41.20159
952.4495, 40.70681
952.9316, 40.23618
953.4138, 39.78790
953.8959, 39.35999
954.3780, 38.95720
954.8601, 38.58866
955.3422, 38.25174
955.8243, 37.94339
956.3065, 37.65884
956.7886, 37.36982
957.2707, 37.05923
957.7528, 36.70338
958.2349, 36.17623
958.7170, 35.50021
959.1992, 35.15117
959.6813, 35.18020
960.1634, 35.19620
960.6455, 35.05391
961.1276, 34.85844
961.6097, 34.72728
962.0919, 34.64379
962.5740, 34.50106
963.0561, 34.28285
963.5382, 34.05015
964.0203, 33.77877
964.5024, 33.54071
964.9846, 33.35715
965.4667, 33.23724
965.9488, 33.21478
966.4309, 33.29912
966.9130, 33.33797
967.3951, 33.25943
967.8773, 33.23760
968.3594, 33.39156
968.8415, 33.51482
969.3236, 33.42642
969.8057, 33.23808
970.2878, 33.15692
970.7700, 33.21949
971.2521, 33.31510
971.7342, 33.47847
972.2163, 33.58204
972.6984, 33.46830
973.1805, 33.33105
973.6627, 33.36435
974.1448, 33.55727
974.6269, 33.83430
975.1090, 34.17928
975.5911, 34.47092
976.0732, 34.54572
976.5554, 34.58875
977.0375, 34.88430
977.5196, 35.26473
978.0017, 35.34919
978.4838, 35.14331
978.9659, 35.01556
979.4481, 35.19238
979.9302, 35.12265
980.4123, 35.46441
980.8944, 35.35912
981.3765, 35.47185
981.8586, 35.77234
982.3408, 36.04778
982.8229, 36.24114
983.3050, 36.43386
983.7871, 36.69159
984.2692, 36.93286
984.7513, 37.26094
985.2335, 37.51162
985.7156, 37.81514
986.1977, 38.18486
986.6798, 38.44118
987.1619, 38.51278
987.6440, 38.47755
988.1262, 38.40602
988.6083, 38.30568
989.0904, 38.23729
989.5725, 38.25550
990.0546, 38.02248
990.5367, 37.38894
991.0189, 36.84162
991.5010, 36.61460
991.9831, 36.53714
992.4652, 36.38545
992.9473, 36.16654
993.4294, 36.06730
993.9116, 36.22392
994.3937, 36.24890
994.8758, 35.94720
995.3579, 35.71083
995.8400, 35.76342
996.3221, 35.96592
996.8043, 36.15575
997.2864, 36.33016
997.7685, 36.43898
998.2506, 36.35411
998.7327, 36.38009
999.2148, 36.65827
999.6970, 36.98491
1000.179, 37.31022
1000.661, 37.56055
1001.143, 37.58638
1001.625, 37.36364
1002.108, 37.20695
1002.590, 37.27529
1003.072, 37.36036
1003.554, 37.38842
1004.036, 37.37341
1004.518, 37.29320
1005.000, 37.19141
1005.482, 37.17748
1005.964, 37.28041
1006.447, 37.31762
1006.929, 37.19558
1007.411, 36.95348
1007.893, 36.49596
1008.375, 36.01707
1008.857, 35.78621
1009.339, 35.77379
1009.821, 35.80663
1010.304, 35.81792
1010.786, 35.81484
1011.268, 35.84351
1011.750, 35.82862
1012.232, 35.58635
1012.714, 35.26008
1013.196, 35.15338
1013.678, 35.27176
1014.160, 35.44454
1014.643, 35.59059
1015.125, 35.66616
1015.607, 35.54268
1016.089, 35.34950
1016.571, 35.39952
1017.053, 35.63183
1017.535, 35.85014
1018.017, 36.01505
1018.500, 36.12776
1018.982, 36.18737
1019.464, 36.22805
1019.946, 36.31226
1020.428, 36.33058
1020.910, 36.44151
1021.392, 36.38910
1021.874, 36.37330
1022.356, 36.41602
1022.839, 36.46042
1023.321, 36.47143
1023.803, 36.45740
1024.285, 36.40381
1024.767, 36.32501
1025.249, 36.46694
1025.731, 36.85034
1026.213, 37.08344
1026.696, 37.06147
1027.178, 37.03189
1027.660, 37.17344
1028.142, 37.37667
1028.624, 37.40987
1029.106, 37.26325
1029.588, 37.20298
1030.070, 37.25794
1030.552, 37.24811
1031.035, 37.09340
1031.517, 36.99406
1031.999, 37.10956
1032.481, 37.34344
1032.963, 37.47127
1033.445, 37.46305
1033.927, 37.63488
1034.409, 38.16691
1034.891, 38.37924
1035.374, 37.92413
1035.856, 37.47657
1036.338, 37.49813
1036.820, 37.85243
1037.302, 38.27511
1037.784, 38.82750
1038.266, 39.09146
1038.748, 38.86453
1039.231, 38.71847
1039.713, 38.80384
1040.195, 38.94858
1040.677, 39.06372
1041.159, 39.14732
1041.641, 39.19314
1042.123, 39.19419
1042.605, 39.18962
1043.088, 39.06353
1043.570, 39.09706
1044.052, 39.51819
1044.534, 39.92662
1045.016, 40.03096
1045.498, 39.96349
1045.980, 39.98418
1046.462, 40.11438
1046.944, 40.24928
1047.427, 40.35609
1047.909, 40.50312
1048.391, 40.75758
1048.873, 41.00364
1049.355, 41.12758
1049.837, 41.20404
1050.319, 41.39434
1050.801, 41.72711
1051.283, 41.98182
1051.766, 42.09500
1052.248, 42.16737
1052.730, 42.19001
1053.212, 42.21569
1053.694, 42.28250
1054.176, 42.37552
1054.658, 42.43070
1055.140, 42.43998
1055.623, 42.62164
1056.105, 43.26387
1056.587, 43.75622
1057.069, 43.84095
1057.551, 43.78881
1058.033, 43.59415
1058.515, 43.48268
1058.997, 43.87401
1059.479, 44.78760
1059.962, 45.57450
1060.444, 46.08706
1060.926, 46.38420
1061.408, 46.16972
1061.890, 46.06240
1062.372, 46.62915
1062.854, 47.51622
1063.336, 48.10295
1063.818, 48.36690
1064.301, 48.90069
1064.783, 49.82543
1065.265, 51.17109
1065.747, 52.78716
1066.229, 55.01253
1066.711, 58.40563
1067.193, 62.37697
1067.675, 66.31601
1068.158, 70.04854
1068.640, 73.25300
1069.122, 75.81583
1069.604, 77.81786
1070.086, 78.87711
1070.568, 79.82987
1071.050, 81.12295
1071.532, 82.72709
1072.015, 84.46047
1072.497, 86.40210
1072.979, 88.90353
1073.461, 92.19552
1073.943, 95.72079
1074.425, 99.36963
1074.907, 103.0091
1075.389, 106.4746
1075.871, 109.8935
1076.354, 113.4164
1076.836, 117.0332
1077.318, 120.5692
1077.800, 123.8250
1078.282, 127.7627
1078.764, 133.7972
1079.246, 139.5055
1079.728, 144.9672
1080.210, 148.1526
1080.693, 146.9817
1081.175, 141.7543
1081.657, 133.3246
1082.139, 121.6460
1082.621, 109.8612
1083.103, 98.28284
1083.585, 88.25198
1084.067, 80.55858
1084.549, 74.63100
1085.032, 70.42086
1085.514, 67.39472
1085.996, 64.68537
1086.478, 62.09785
1086.960, 59.92204
1087.442, 58.35469
1087.924, 57.14220
1088.406, 56.29686
1088.889, 55.63953
1089.371, 54.97071
1089.853, 54.40956
1090.335, 54.25371
1090.817, 54.49590
1091.299, 54.62297
1091.781, 54.31791
1092.263, 54.09070
1092.745, 54.27892
1093.228, 54.48124
1093.710, 54.33928
1094.192, 54.08739
1094.674, 54.07827
1095.156, 54.30477
1095.638, 54.46493
1096.120, 54.34296
1096.602, 54.48026
1097.084, 55.47551
1097.567, 56.30892
1098.049, 56.27258
1098.531, 55.87759
1099.013, 55.56867
1099.495, 55.42068
1099.977, 55.47154
1100.459, 55.75151
1100.941, 56.13027
1101.424, 56.73346
1101.906, 57.22380
1102.388, 57.41383
1102.870, 57.47788
1103.352, 57.48954
1103.834, 57.51661
1104.316, 57.55692
1104.798, 57.55395
1105.281, 58.27031
1105.763, 60.87514
1106.245, 62.79139
1106.727, 63.17694
1107.209, 62.80088
1107.691, 61.61972
1108.173, 60.28485
1108.655, 59.80856
1109.137, 60.23271
1109.620, 60.51048
1110.102, 60.27789
1110.584, 60.24971
1111.066, 60.64693
1111.548, 61.11020
1112.030, 61.62873
1112.512, 62.02223
1112.994, 61.97975
1113.476, 61.60170
1113.959, 61.52206
1114.441, 61.95029
1114.923, 62.27781
1115.405, 62.36870
1115.887, 62.52637
1116.369, 62.85177
1116.851, 63.25089
1117.333, 63.67786
1117.816, 64.11631
1118.298, 64.53180
1118.780, 64.94996
1119.262, 65.20892
1119.744, 65.14869
1120.226, 65.24613
1120.708, 65.68517
1121.190, 66.12902
1121.672, 66.34316
1122.155, 66.48981
1122.637, 66.86810
1123.119, 66.98801
1123.601, 67.73666
1124.083, 67.47688
1124.565, 67.51144
1125.047, 68.02048
1125.529, 68.54153
1126.011, 68.88289
1126.494, 69.15341
1126.976, 69.45708
1127.458, 69.79826
1127.940, 70.20741
1128.422, 70.70971
1128.904, 71.11002
1129.386, 71.38834
1129.868, 71.62697
1130.351, 71.82608
1130.833, 72.10635
1131.315, 72.57404
1131.797, 73.13741
1132.279, 73.61974
1132.761, 74.02136
1133.243, 74.38277
1133.725, 74.70296
1134.208, 74.90951
1134.690, 74.98431
1135.172, 75.35591
1135.654, 76.27409
1136.136, 77.17050
1136.618, 77.26527
1137.100, 76.90320
1137.582, 77.20207
1138.064, 78.04057
1138.547, 78.73479
1139.029, 79.25199
1139.511, 79.91306
1139.993, 80.79617
1140.475, 81.43258
1140.957, 81.38824
1141.439, 81.17226
1141.921, 81.67278
1142.403, 82.58681
1142.886, 83.21513
1143.368, 83.60795
1143.850, 83.95995
1144.332, 84.32665
1144.814, 84.72047
1145.296, 85.14750
1145.778, 85.70937
1146.260, 86.61347
1146.743, 87.61905
1147.225, 88.47493
1147.707, 89.18176
1148.189, 89.61864
1148.671, 89.93620
1149.153, 90.58374
1149.635, 91.62914
1150.117, 92.53965
1150.599, 92.92017
1151.082, 93.24072
1151.564, 93.76926
1152.046, 94.47907
1152.528, 95.44681
1153.010, 96.51545
1153.492, 97.45170
1153.974, 98.25716
1154.456, 99.09630
1154.938, 100.0560
1155.421, 100.8709
1155.903, 101.2343
1156.385, 101.6742
1156.867, 102.4663
1157.349, 103.4265
1157.831, 104.4587
1158.313, 105.5159
1158.795, 106.5494
1159.278, 107.5539
1159.760, 108.5498
1160.242, 109.5203
1160.724, 110.5152
1161.206, 111.5249
1161.688, 112.5762
1162.170, 113.6251
1162.652, 114.9242
1163.135, 115.7848
1163.617, 116.9817
1164.099, 118.0955
1164.581, 119.0876
1165.063, 120.4355
1165.545, 121.3884
1166.027, 122.5383
1166.509, 124.1907
1166.991, 125.6368
1167.474, 126.3170
1167.956, 126.7505
1168.438, 127.7809
1168.920, 129.3631
1169.402, 131.0968
1169.884, 133.0326
1170.366, 134.6586
1170.848, 135.8896
1171.330, 137.3634
1171.813, 139.3519
1172.295, 141.2196
1172.777, 142.3419
1173.259, 143.2009
1173.741, 145.0248
1174.223, 147.5172
1174.705, 149.0723
1175.187, 149.8636
1175.670, 151.0590
1176.152, 152.8459
1176.634, 154.8772
1177.116, 156.9925
1177.598, 159.0712
1178.080, 161.0084
1178.562, 162.8365
1179.044, 164.6031
1179.526, 166.3086
1180.009, 167.9083
1180.491, 169.4847
1180.973, 171.2148
1181.455, 173.1403
1181.937, 175.2018
1182.419, 177.4470
1182.901, 179.4612
1183.383, 180.6524
1183.865, 181.7971
1184.348, 183.5101
1184.830, 185.5239
1185.312, 187.5053
1185.794, 189.5105
1186.276, 191.8372
1186.758, 194.5355
1187.240, 196.8911
1187.722, 198.3108
1188.205, 199.9207
1188.687, 202.0903
1189.169, 204.4261
1189.651, 206.9151
1190.133, 209.3214
1190.615, 211.3168
1191.097, 213.0183
1191.579, 215.0137
1192.062, 217.3993
1192.544, 219.7148
1193.026, 222.0882
1193.508, 224.0875
1193.990, 225.4507
1194.472, 226.8280
1194.954, 228.5398
1195.436, 230.5228
1195.918, 232.7011
1196.401, 235.0530
1196.883, 237.4783
1197.365, 239.9780
1197.847, 242.4404
1198.329, 244.8590
1198.811, 247.2909
1199.293, 249.7631
1199.775, 251.9412
1200.257, 253.5778
1200.740, 255.2274
1201.222, 257.9596
1201.704, 259.9188
1202.186, 262.2043
1202.668, 264.7851
1203.150, 266.8011
1203.632, 269.3288
1204.114, 271.6226
1204.597, 273.5042
1205.079, 275.3790
1205.561, 277.4905
1206.043, 279.7718
1206.525, 282.2381
1207.007, 284.7883
1207.489, 287.4477
1207.971, 290.0311
1208.453, 292.0363
1208.936, 293.7980
1209.418, 296.3199
1209.900, 299.8352
1210.382, 303.2835
1210.864, 306.5811
1211.346, 309.3530
1211.828, 310.9720
1212.310, 312.6873
1212.792, 315.1284
1213.275, 318.0401
1213.757, 321.4427
1214.239, 325.0473
1214.721, 327.7464
1215.203, 329.2040
1215.685, 331.2860
1216.167, 333.9486
1216.649, 337.4788
1217.132, 342.3828
1217.614, 346.5508
1218.096, 348.7292
1218.578, 350.3900
1219.060, 353.2607
1219.542, 357.0571
1220.024, 361.0681
1220.506, 365.2244
1220.989, 368.8550
1221.471, 372.0424
1221.953, 375.5799
1222.435, 379.5955
1222.917, 383.6094
1223.399, 387.3766
1223.881, 391.3929
1224.363, 396.2298
1224.845, 401.5251
1225.328, 407.1778
1225.810, 412.7156
1226.292, 417.1930
1226.774, 421.1015
1227.256, 425.3951
1227.738, 430.3052
1228.220, 435.8136
1228.702, 442.0849
1229.184, 448.1217
1229.667, 453.2614
1230.149, 458.3868
1230.631, 463.6945
1231.113, 469.3658
1231.595, 475.7847
1232.077, 482.5065
1232.559, 488.8273
1233.041, 494.7564
1233.524, 500.8432
1234.006, 506.7770
1234.488, 513.7597
1234.970, 522.4000
1235.452, 530.5715
1235.934, 537.6347
1236.416, 544.5957
1236.898, 552.0251
1237.380, 559.8991
1237.863, 568.1674
1238.345, 576.6896
1238.827, 584.6779
1239.309, 592.2670
1239.791, 600.7911
1240.273, 610.2056
1240.755, 619.5037
1241.237, 628.5007
1241.719, 637.9863
1242.202, 648.4183
1242.684, 658.9813
1243.166, 668.7957
1243.648, 678.3602
1244.130, 687.9362
1244.612, 697.9197
1245.094, 709.2685
1245.576, 721.2343
1246.059, 732.1179
1246.541, 742.0643
1247.023, 752.8453
1247.505, 765.2225
1247.987, 777.3404
1248.469, 788.0340
1248.951, 799.3250
1249.433, 812.2639
1249.916, 825.5123
1250.398, 838.2258
1250.880, 850.6729
1251.362, 863.1918
1251.844, 875.8324
1252.326, 889.1802
1252.808, 902.4825
1253.290, 916.1415
1253.772, 930.3792
1254.255, 944.3498
1254.737, 959.4335
1255.219, 974.4342
1255.701, 988.6321
1256.183, 1002.810
1256.665, 1017.867
1257.147, 1033.142
1257.629, 1047.129
1258.111, 1060.620
1258.594, 1075.770
1259.076, 1091.730
1259.558, 1106.352
1260.040, 1119.621
1260.522, 1132.877
1261.004, 1146.586
1261.486, 1160.260
1261.968, 1173.874
1262.451, 1186.933
1262.933, 1197.977
1263.415, 1209.702
1263.897, 1225.053
1264.379, 1241.079
1264.861, 1254.154
1265.343, 1265.241
1265.825, 1278.470
1266.307, 1289.659
1266.790, 1300.204
1267.272, 1312.734
1267.754, 1323.365
1268.236, 1333.349
1268.718, 1345.373
1269.200, 1355.741
1269.682, 1365.999
1270.164, 1377.464
1270.646, 1386.647
1271.129, 1398.054
1271.611, 1405.550
1272.093, 1414.213
1272.575, 1423.568
1273.057, 1432.000
1273.539, 1439.820
1274.021, 1449.012
1274.503, 1459.702
1274.986, 1469.394
1275.468, 1476.605
1275.950, 1483.378
1276.432, 1490.884
1276.914, 1498.545
1277.396, 1506.003
1277.878, 1513.434
1278.360, 1520.865
1278.843, 1528.409
1279.325, 1536.237
1279.807, 1544.297
1280.289, 1551.984
1280.771, 1559.018
1281.253, 1566.320
1281.735, 1574.121
1282.217, 1581.597
1282.699, 1588.422
1283.182, 1595.613
1283.664, 1603.819
1284.146, 1611.510
1284.628, 1616.795
1285.110, 1620.996
1285.592, 1626.651
1286.074, 1633.987
##END=



