##NAMES=Stannite
##RRUFFID=R050187
##IDEAL CHEMISTRY=Cu^1+^_2_Fe^2+^Sn^4+^S^2-^_4_
##LOCALITY=Yaogangxian mine, Yizhang County, Hunan Province, China
##OWNER=RRUFF
##SOURCE=Marcus Origlieri and George Guanghua Liu
##DESCRIPTION=Bluish-black octahedron associated with fluorite and quartz. According to Kissin & Owens (1989), since 2a is significantly larger than c, this sample is stannite.
##STATUS=The identification of this mineral is confirmed by single-crystal X-ray diffraction and chemical analysis.
##URL=rruff.info/R050187
##MEASURED CHEMISTRY=Cu_2.00_(Fe_0.66_Zn_0.34_)Sn_1.00_S_4.00_
92.96582, 60.99190
93.44794, 61.20678
93.93005, 61.39626
94.41217, 60.72916
94.89429, 59.95546
95.37640, 59.38496
95.85852, 58.97616
96.34064, 58.57929
96.82275, 58.14063
97.30487, 57.66233
97.78699, 57.22384
98.26910, 56.73700
98.75122, 56.39507
99.23334, 56.48856
99.71545, 56.97585
100.1976, 57.09819
100.6797, 56.32247
101.1618, 55.10223
101.6439, 54.08862
102.1260, 53.45026
102.6081, 53.08329
103.0903, 52.81022
103.5724, 52.64809
104.0545, 52.53911
104.5366, 52.43138
105.0187, 52.33726
105.5008, 52.28649
105.9830, 52.33033
106.4651, 52.48020
106.9472, 52.51218
107.4293, 52.28870
107.9114, 52.04144
108.3935, 51.83735
108.8757, 51.68713
109.3578, 51.57525
109.8399, 51.15865
110.3220, 51.59198
110.8041, 51.84563
111.2862, 51.92925
111.7684, 51.33359
112.2505, 51.61509
112.7326, 51.54506
113.2147, 51.46061
113.6968, 51.86556
114.1789, 51.36870
114.6611, 51.76589
115.1432, 51.80619
115.6253, 52.00984
116.1074, 51.85978
116.5895, 51.81897
117.0716, 51.97335
117.5538, 52.08468
118.0359, 52.11314
118.5180, 52.12336
119.0001, 52.16872
119.4822, 52.25071
119.9643, 52.30983
120.4465, 52.29440
120.9286, 52.24453
121.4107, 52.19426
121.8928, 52.13567
122.3749, 52.09849
122.8570, 52.17479
123.3392, 52.50327
123.8213, 52.67134
124.3034, 52.43760
124.7855, 52.00614
125.2676, 51.64236
125.7497, 51.51531
126.2319, 51.61047
126.7140, 51.72092
127.1961, 51.94641
127.6782, 52.09263
128.1603, 52.08411
128.6424, 51.94928
129.1246, 51.76228
129.6067, 51.58410
130.0888, 51.40973
130.5709, 51.28286
131.0530, 51.23047
131.5351, 51.19246
132.0173, 51.13783
132.4994, 51.06108
132.9815, 50.97329
133.4636, 50.89235
133.9457, 50.83130
134.4278, 50.72119
134.9100, 50.46451
135.3921, 50.18999
135.8742, 50.09447
136.3563, 50.26643
136.8384, 50.49287
137.3205, 50.39687
137.8027, 49.96369
138.2848, 49.59037
138.7669, 49.50533
139.2490, 49.63534
139.7311, 49.68690
140.2132, 49.54156
140.6954, 49.31202
141.1775, 49.11427
141.6596, 48.95231
142.1417, 48.82240
142.6238, 48.74143
143.1059, 48.72241
143.5881, 48.66362
144.0702, 48.50135
144.5523, 48.30987
145.0344, 48.12612
145.5165, 47.96097
145.9986, 47.82172
146.4807, 47.73735
146.9629, 47.78796
147.4450, 47.73696
147.9271, 47.46894
148.4092, 47.13262
148.8913, 46.87573
149.3734, 46.76941
149.8556, 46.77842
150.3377, 46.76262
150.8198, 46.70070
151.3019, 46.63264
151.7840, 46.57473
152.2661, 46.51172
152.7483, 46.42162
153.2304, 46.29110
153.7125, 46.11979
154.1946, 45.91200
154.6767, 45.57189
155.1588, 45.29646
155.6410, 45.20733
156.1231, 45.26606
156.6052, 45.32041
157.0873, 45.24519
157.5694, 45.05217
158.0515, 44.95315
158.5337, 45.01960
159.0158, 45.12852
159.4979, 45.21112
159.9800, 45.26469
160.4621, 45.24075
160.9442, 45.00245
161.4264, 44.63938
161.9085, 44.43337
162.3906, 44.53279
162.8727, 44.80666
163.3548, 45.06965
163.8369, 45.35114
164.3191, 45.52565
164.8012, 45.43137
165.2833, 45.16967
165.7654, 44.95775
166.2475, 44.93703
166.7296, 44.41542
167.2118, 45.26590
167.6939, 45.75700
168.1760, 45.90804
168.6581, 44.70050
169.1402, 45.24728
169.6223, 45.09101
170.1045, 44.90592
170.5866, 45.69962
171.0687, 44.68968
171.5508, 45.46785
172.0329, 45.53224
172.5150, 45.92331
172.9972, 45.60700
173.4793, 45.50917
173.9614, 46.11896
174.4435, 46.33693
174.9256, 45.93917
175.4077, 46.35101
175.8899, 45.58070
176.3720, 45.64606
176.8541, 45.80464
177.3362, 46.00573
177.8183, 46.18748
178.3004, 46.37006
178.7826, 46.47057
179.2647, 46.39034
179.7468, 46.29138
180.2289, 46.32825
180.7110, 46.53598
181.1931, 46.80580
181.6752, 46.97741
182.1574, 47.03932
182.6395, 47.03125
183.1216, 46.84533
183.6037, 46.62471
184.0858, 46.59926
184.5679, 46.86711
185.0501, 47.22864
185.5322, 47.33335
186.0143, 47.17211
186.4964, 47.01040
186.9785, 46.92203
187.4606, 46.90065
187.9428, 46.93199
188.4249, 47.01835
188.9070, 47.15237
189.3891, 47.33036
189.8712, 47.55550
190.3533, 47.77183
190.8355, 47.97170
191.3176, 48.14739
191.7997, 48.21511
192.2818, 48.04051
192.7639, 47.85084
193.2460, 47.85548
193.7282, 48.06909
194.2103, 48.31964
194.6924, 48.43021
195.1745, 48.38146
195.6566, 48.39033
196.1387, 48.58153
196.6209, 48.79313
197.1030, 48.94657
197.5851, 49.02732
198.0672, 49.05059
198.5493, 49.00726
199.0314, 48.84332
199.5136, 48.79303
199.9957, 48.99279
200.4778, 49.22993
200.9599, 49.36034
201.4420, 49.35404
201.9241, 49.29704
202.4063, 49.33486
202.8884, 49.55672
203.3705, 49.69863
203.8526, 49.71784
204.3347, 49.68859
204.8168, 49.66192
205.2990, 49.65445
205.7811, 49.65509
206.2632, 49.64275
206.7453, 49.59793
207.2274, 49.56746
207.7095, 49.54067
208.1917, 49.53138
208.6738, 49.55607
209.1559, 49.61964
209.6380, 49.70918
210.1201, 49.80077
210.6022, 49.92565
211.0844, 50.00217
211.5665, 49.95272
212.0486, 49.87892
212.5307, 49.92957
213.0128, 50.16407
213.4949, 50.46360
213.9771, 50.56833
214.4592, 50.38439
214.9413, 50.23387
215.4234, 50.15290
215.9055, 50.14431
216.3876, 50.23006
216.8698, 50.43375
217.3519, 50.69004
217.8340, 50.88918
218.3161, 51.05010
218.7982, 51.12868
219.2803, 51.00164
219.7625, 50.78199
220.2446, 50.76184
220.7267, 51.10650
221.2088, 51.55132
221.6909, 51.67857
222.1730, 51.45952
222.6552, 51.24670
223.1373, 51.19107
223.6194, 51.27614
224.1015, 51.46338
224.5836, 51.81151
225.0657, 52.17010
225.5479, 52.38331
226.0300, 52.45148
226.5121, 52.43850
226.9942, 52.30669
227.4763, 52.09001
227.9584, 52.03357
228.4406, 52.27433
228.9227, 52.61304
229.4048, 52.90507
229.8869, 53.14593
230.3690, 53.33567
230.8511, 53.44665
231.3333, 53.48156
231.8154, 53.55825
232.2975, 53.69395
232.7796, 53.88012
233.2617, 54.15519
233.7438, 54.49787
234.2260, 54.79372
234.7081, 54.89919
235.1902, 54.79527
235.6723, 54.78914
236.1544, 55.02122
236.6365, 55.25726
237.1187, 55.37094
237.6008, 55.37897
238.0829, 55.38655
238.5650, 55.48577
239.0471, 55.68138
239.5292, 55.93232
240.0114, 56.30662
240.4935, 56.68122
240.9756, 57.01515
241.4577, 57.30835
241.9398, 57.57796
242.4219, 57.83885
242.9041, 58.08814
243.3862, 58.34406
243.8683, 58.61948
244.3504, 58.89016
244.8325, 59.14009
245.3146, 59.37481
245.7968, 59.60910
246.2789, 59.84535
246.7610, 60.07434
247.2431, 60.40812
247.7252, 60.92556
248.2073, 61.46538
248.6895, 61.96803
249.1716, 62.44106
249.6537, 62.91326
250.1358, 63.40772
250.6179, 63.92527
251.1000, 64.46741
251.5822, 65.09533
252.0643, 65.68622
252.5464, 66.08258
253.0285, 66.38876
253.5106, 66.87426
253.9927, 67.76881
254.4748, 69.06543
254.9570, 70.21825
255.4391, 71.04382
255.9212, 71.94267
256.4033, 73.03234
256.8854, 74.30659
257.3676, 75.73366
257.8497, 77.29873
258.3318, 78.99683
258.8139, 80.81770
259.2960, 82.75499
259.7781, 84.78588
260.2603, 86.89849
260.7424, 89.10387
261.2245, 91.46053
261.7066, 94.01186
262.1887, 96.71507
262.6708, 99.31605
263.1530, 101.8227
263.6351, 104.2629
264.1172, 106.6905
264.5993, 109.0627
265.0814, 111.3098
265.5635, 113.3924
266.0457, 115.3328
266.5278, 117.1677
267.0099, 118.8244
267.4920, 120.5250
267.9741, 122.2956
268.4562, 124.1598
268.9384, 126.1887
269.4204, 128.4322
269.9026, 130.7921
270.3847, 133.0684
270.8668, 135.2624
271.3489, 137.3928
271.8310, 139.3334
272.3131, 141.2115
272.7953, 143.3260
273.2774, 145.8132
273.7595, 148.4393
274.2416, 150.8221
274.7237, 152.9384
275.2058, 155.1005
275.6880, 157.3884
276.1701, 159.7985
276.6522, 162.3519
277.1343, 165.1251
277.6164, 167.8882
278.0985, 170.4105
278.5807, 172.7174
279.0628, 174.7634
279.5449, 176.5640
280.0270, 178.0837
280.5091, 179.3574
280.9912, 180.4429
281.4734, 181.0307
281.9555, 180.6895
282.4376, 179.5645
282.9197, 177.9712
283.4018, 175.9808
283.8839, 173.5662
284.3661, 170.6147
284.8482, 167.0799
285.3303, 163.2867
285.8124, 159.1909
286.2945, 155.0269
286.7766, 151.4301
287.2588, 148.7111
287.7409, 146.5361
288.2230, 144.4924
288.7051, 142.5534
289.1872, 141.1224
289.6693, 140.6232
290.1515, 140.7850
290.6336, 141.1311
291.1157, 141.5521
291.5978, 142.1915
292.0799, 143.0676
292.5620, 144.1772
293.0442, 145.9073
293.5263, 148.3834
294.0084, 151.6895
294.4905, 155.7977
294.9726, 160.7011
295.4547, 166.4689
295.9369, 173.0000
296.4190, 180.3298
296.9011, 188.9901
297.3832, 199.3369
297.8653, 210.9976
298.3474, 223.3869
298.8296, 236.4799
299.3117, 250.2372
299.7938, 265.0347
300.2759, 280.6198
300.7580, 295.4970
301.2401, 309.3576
301.7223, 322.3757
302.2044, 334.9164
302.6865, 346.9937
303.1686, 358.1350
303.6507, 367.8314
304.1328, 376.4227
304.6150, 384.8835
305.0971, 393.2603
305.5792, 401.5822
306.0613, 409.7513
306.5434, 417.8614
307.0255, 426.0832
307.5077, 434.4604
307.9898, 443.0098
308.4719, 451.7521
308.9540, 460.6516
309.4361, 469.8177
309.9182, 479.3104
310.4004, 489.0630
310.8825, 499.1036
311.3646, 509.3874
311.8467, 520.0290
312.3288, 531.1602
312.8109, 542.8861
313.2931, 554.5884
313.7752, 565.7261
314.2573, 576.7509
314.7394, 588.2629
315.2215, 600.5166
315.7036, 612.7314
316.1858, 624.6703
316.6679, 636.3026
317.1500, 645.8333
317.6321, 653.6830
318.1142, 657.9368
318.5963, 657.4777
319.0785, 652.2333
319.5606, 642.1862
320.0427, 627.1611
320.5248, 607.2137
321.0069, 582.7880
321.4890, 552.9141
321.9712, 519.6464
322.4533, 484.3211
322.9354, 447.0873
323.4175, 410.3055
323.8996, 374.2457
324.3817, 339.3375
324.8639, 307.0158
325.3460, 277.4221
325.8281, 250.2095
326.3102, 225.3072
326.7923, 202.6488
327.2744, 182.4345
327.7566, 165.1728
328.2387, 150.2813
328.7208, 137.0421
329.2029, 125.5192
329.6850, 115.5029
330.1671, 107.2442
330.6493, 100.3763
331.1314, 94.39059
331.6135, 89.25303
332.0956, 84.94836
332.5777, 81.63250
333.0598, 79.28572
333.5420, 77.26944
334.0241, 75.45584
334.5062, 73.81335
334.9883, 72.22755
335.4704, 70.67194
335.9525, 69.30989
336.4347, 68.32396
336.9168, 67.64079
337.3989, 66.99665
337.8810, 66.32014
338.3631, 65.68903
338.8452, 65.23022
339.3274, 64.92585
339.8094, 64.52641
340.2916, 63.81500
340.7737, 62.97985
341.2558, 62.38052
341.7379, 62.09704
342.2200, 61.85107
342.7021, 61.38782
343.1843, 60.77338
343.6664, 60.20865
344.1485, 59.79509
344.6306, 59.40303
345.1127, 58.87127
345.5948, 58.20317
346.0770, 57.58088
346.5591, 57.12720
347.0412, 56.78381
347.5233, 56.38245
348.0054, 55.86849
348.4875, 55.37823
348.9697, 54.99088
349.4518, 54.69300
349.9339, 54.44758
350.4160, 54.24794
350.8981, 54.08481
351.3802, 53.96556
351.8624, 53.91756
352.3445, 53.78042
352.8266, 53.40271
353.3087, 52.93584
353.7908, 52.64474
354.2729, 52.59753
354.7551, 52.58230
355.2372, 52.37626
355.7193, 51.97299
356.2014, 51.51057
356.6835, 50.96582
357.1656, 50.39296
357.6478, 49.85843
358.1299, 49.35352
358.6120, 48.75975
359.0941, 47.95286
359.5762, 46.98706
360.0583, 46.21094
360.5405, 44.20271
361.0226, 43.53247
361.5047, 43.25450
361.9868, 42.79684
362.4689, 42.16910
362.9510, 40.86212
363.4332, 40.43213
363.9153, 39.65073
364.3974, 38.85497
364.8795, 38.54860
365.3616, 37.34037
365.8438, 37.02606
366.3259, 36.58709
366.8080, 36.47579
367.2901, 36.40673
367.7722, 36.12774
368.2543, 35.56044
368.7365, 35.11738
369.2186, 34.82751
369.7007, 34.62733
370.1828, 34.53711
370.6649, 34.51486
371.1470, 34.44114
371.6292, 34.22001
372.1113, 33.86801
372.5934, 33.58778
373.0755, 33.42492
373.5576, 33.27699
374.0397, 33.15781
374.5219, 33.03192
375.0040, 32.83192
375.4861, 32.52814
375.9682, 32.19384
376.4503, 31.99015
376.9324, 32.02754
377.4146, 32.02721
377.8967, 31.94406
378.3788, 31.85605
378.8609, 31.86741
379.3430, 31.96325
379.8251, 31.98562
380.3073, 31.71189
380.7894, 31.05116
381.2715, 30.74705
381.7536, 31.21629
382.2357, 31.62652
382.7178, 31.65414
383.2000, 31.41564
383.6821, 31.17938
384.1642, 31.11112
384.6463, 31.16625
385.1284, 31.16313
385.6105, 31.03056
386.0927, 30.96017
386.5748, 31.05986
387.0569, 31.19059
387.5390, 31.21152
388.0211, 31.08342
388.5032, 30.89328
388.9854, 30.75044
389.4675, 30.65817
389.9496, 30.59735
390.4317, 30.60349
390.9138, 30.61163
391.3959, 30.58130
391.8781, 30.52079
392.3602, 30.46961
392.8423, 30.46306
393.3244, 30.49090
393.8065, 30.50320
394.2886, 30.49588
394.7708, 30.48030
395.2529, 30.49405
395.7350, 30.49508
396.2171, 30.41243
396.6992, 30.19946
397.1813, 29.94600
397.6635, 29.73413
398.1456, 29.56098
398.6277, 29.51246
399.1098, 29.74373
399.5919, 30.00146
400.0740, 29.98486
400.5562, 29.67345
401.0383, 29.37492
401.5204, 29.30494
402.0025, 29.37453
402.4846, 29.33978
402.9667, 29.13846
403.4489, 28.93593
403.9310, 28.91513
404.4131, 29.02228
404.8952, 29.06648
405.3773, 28.99390
405.8594, 28.85980
406.3416, 28.67919
406.8237, 28.46458
407.3058, 28.30177
407.7879, 28.24588
408.2700, 28.26001
408.7521, 28.25235
409.2343, 28.23308
409.7164, 28.17717
410.1985, 28.05249
410.6806, 27.89465
411.1627, 27.74623
411.6448, 27.61698
412.1269, 27.52278
412.6090, 27.49441
413.0912, 27.55523
413.5733, 27.54918
414.0554, 27.38820
414.5375, 27.24126
415.0196, 27.24775
415.5017, 27.36090
415.9839, 27.41572
416.4660, 27.30076
416.9481, 27.05917
417.4302, 26.89775
417.9123, 26.88565
418.3944, 26.87189
418.8766, 26.84285
419.3587, 26.80684
419.8408, 26.78904
420.3229, 26.78964
420.8050, 26.75986
421.2871, 26.61493
421.7693, 26.28833
422.2514, 26.09594
422.7335, 26.14438
423.2156, 26.21488
423.6977, 26.23916
424.1798, 26.21243
424.6620, 26.14531
425.1441, 26.04079
425.6262, 25.90677
426.1083, 25.76310
426.5904, 25.56111
427.0725, 25.44723
427.5547, 25.51134
428.0368, 25.63390
428.5189, 25.71498
429.0010, 25.73111
429.4831, 25.71330
429.9652, 25.69595
430.4474, 25.67900
430.9295, 25.62771
431.4116, 25.49768
431.8937, 25.38682
432.3758, 25.37125
432.8579, 25.42203
433.3401, 25.45861
433.8222, 25.44371
434.3043, 25.39497
434.7864, 25.32999
435.2685, 25.24483
435.7506, 25.18315
436.2328, 25.18760
436.7149, 25.21248
437.1970, 25.18706
437.6791, 25.10294
438.1612, 24.99153
438.6433, 24.82588
439.1255, 24.65094
439.6076, 24.58719
440.0897, 24.67517
440.5718, 24.76789
441.0539, 24.68242
441.5360, 24.42042
442.0182, 24.29813
442.5003, 24.46326
442.9824, 24.65504
443.4645, 24.69665
443.9466, 24.62103
444.4287, 24.54977
444.9109, 24.54486
445.3930, 24.58231
445.8751, 24.59870
446.3572, 24.61194
446.8393, 24.57421
447.3214, 24.41253
447.8036, 24.24363
448.2857, 24.19088
448.7678, 24.25649
449.2499, 24.33088
449.7320, 24.30270
450.2141, 24.16606
450.6963, 24.04754
451.1784, 23.93069
451.6605, 23.85046
452.1426, 23.82607
452.6247, 23.84085
453.1068, 23.88621
453.5890, 23.95919
454.0711, 24.02278
454.5532, 23.99178
455.0353, 23.82198
455.5174, 23.71249
455.9995, 23.76013
456.4817, 23.81580
456.9638, 23.81070
457.4459, 23.74475
457.9280, 23.64315
458.4101, 23.46813
458.8922, 23.27952
459.3744, 23.31508
459.8565, 23.67264
460.3386, 23.93659
460.8207, 23.80230
461.3028, 23.50836
461.7849, 23.32360
462.2671, 23.29803
462.7492, 23.34063
463.2313, 23.42938
463.7134, 23.53733
464.1955, 23.57294
464.6776, 23.50438
465.1598, 23.40449
465.6419, 23.35126
466.1240, 23.33859
466.6061, 23.29509
467.0882, 23.14720
467.5703, 23.02251
468.0525, 23.03787
468.5346, 23.15772
469.0167, 23.26493
469.4988, 23.30823
469.9809, 23.29179
470.4630, 23.21802
470.9452, 22.99834
471.4273, 22.88238
471.9094, 22.99397
472.3915, 23.13188
472.8736, 23.11503
473.3557, 22.94807
473.8379, 22.76768
474.3200, 22.68982
474.8021, 22.70710
475.2842, 22.70833
475.7663, 22.67546
476.2484, 22.64823
476.7306, 22.62874
477.2127, 22.61996
477.6948, 22.63272
478.1769, 22.66792
478.6590, 22.69987
479.1411, 22.69468
479.6233, 22.64993
480.1054, 22.59381
480.5875, 22.50743
481.0696, 22.43478
481.5517, 22.38904
482.0338, 22.37213
482.5159, 22.39114
482.9980, 22.46685
483.4802, 22.55511
483.9623, 22.59294
484.4444, 22.58029
484.9265, 22.55001
485.4086, 22.49911
485.8907, 22.44990
486.3729, 22.43629
486.8550, 22.45978
487.3371, 22.47267
487.8192, 22.47450
488.3013, 22.44860
488.7834, 22.33523
489.2656, 22.14381
489.7477, 22.03098
490.2298, 22.12484
490.7119, 22.36664
491.1940, 22.45973
491.6761, 22.29300
492.1583, 22.15546
492.6404, 22.11105
493.1225, 22.11665
493.6046, 22.13339
494.0867, 22.14959
494.5688, 22.16127
495.0510, 22.16217
495.5331, 22.15034
496.0152, 22.15345
496.4973, 22.21354
496.9794, 22.24174
497.4615, 22.17779
497.9437, 22.08307
498.4258, 22.04723
498.9079, 22.10393
499.3900, 22.19299
499.8721, 22.22183
500.3542, 22.18121
500.8364, 22.15064
501.3185, 22.13468
501.8006, 22.13468
502.2827, 22.18234
502.7648, 22.24667
503.2469, 22.24573
503.7291, 22.11238
504.2112, 21.92808
504.6933, 21.78732
505.1754, 21.69081
505.6575, 21.67007
506.1396, 21.77916
506.6218, 21.91932
507.1039, 21.92733
507.5860, 21.79251
508.0681, 21.69745
508.5502, 21.73129
509.0323, 21.80069
509.5145, 21.81276
509.9966, 21.76648
510.4787, 21.69975
510.9608, 21.62947
511.4429, 21.56500
511.9250, 21.54626
512.4072, 21.62006
512.8893, 21.67744
513.3714, 21.70074
513.8535, 21.71212
514.3356, 21.73367
514.8177, 21.76554
515.2999, 21.79034
515.7820, 21.79194
516.2641, 21.77147
516.7462, 21.74230
517.2283, 21.69496
517.7104, 21.65344
518.1926, 21.64138
518.6747, 21.62786
519.1568, 21.57037
519.6389, 21.46050
520.1210, 21.35556
520.6031, 21.30481
521.0853, 21.30615
521.5674, 21.35447
522.0495, 21.46906
522.5316, 21.58413
523.0137, 21.66652
523.4958, 21.71614
523.9780, 21.72140
524.4601, 21.64796
524.9422, 21.58251
525.4243, 21.60278
525.9064, 21.67191
526.3885, 21.69694
526.8707, 21.65107
527.3528, 21.59041
527.8349, 21.58321
528.3170, 21.63964
528.7991, 21.65143
529.2813, 21.57985
529.7634, 21.50884
530.2455, 21.44220
530.7276, 21.40752
531.2097, 21.47274
531.6918, 21.66040
532.1740, 21.86904
532.6561, 21.91450
533.1382, 21.71899
533.6203, 21.62634
534.1024, 21.72785
534.5845, 21.84778
535.0667, 21.94658
535.5488, 22.01345
536.0309, 22.03502
536.5130, 21.99793
536.9951, 21.93431
537.4772, 21.88818
537.9594, 21.85962
538.4415, 21.83602
538.9236, 21.78653
539.4057, 21.78115
539.8878, 21.93458
540.3699, 22.20961
540.8521, 22.39356
541.3342, 22.37003
541.8163, 22.27801
542.2984, 22.20672
542.7805, 22.16564
543.2626, 22.19100
543.7448, 22.30738
544.2269, 22.45835
544.7090, 22.54693
545.1911, 22.54792
545.6732, 22.54737
546.1553, 22.50528
546.6375, 22.49847
547.1196, 22.61923
547.6017, 22.80865
548.0838, 22.92530
548.5659, 22.89102
549.0480, 22.76302
549.5302, 22.65921
550.0123, 22.56438
550.4944, 22.54008
550.9765, 22.68280
551.4586, 22.82226
551.9407, 22.86750
552.4229, 22.83586
552.9050, 22.79221
553.3871, 22.75647
553.8692, 22.74119
554.3513, 22.81083
554.8334, 22.96121
555.3156, 22.96079
555.7977, 22.65211
556.2798, 22.27544
556.7619, 22.18895
557.2440, 22.38375
557.7261, 22.54025
558.2083, 22.58703
558.6904, 22.58319
559.1725, 22.54615
559.6546, 22.49602
560.1367, 22.48144
560.6188, 22.52626
561.1010, 22.61230
561.5831, 22.70659
562.0652, 22.84127
562.5473, 22.90921
563.0294, 22.90039
563.5115, 22.84547
563.9937, 22.71444
564.4758, 22.55335
564.9579, 22.45570
565.4400, 22.47637
565.9221, 22.55756
566.4042, 22.58653
566.8864, 22.55235
567.3685, 22.55837
567.8506, 22.65445
568.3327, 22.75788
568.8148, 22.80833
569.2969, 22.81380
569.7791, 22.80383
570.2612, 22.76805
570.7433, 22.73848
571.2254, 22.74190
571.7075, 22.77570
572.1896, 22.75718
572.6718, 22.37973
573.1539, 22.82215
573.6360, 23.08489
574.1181, 23.17760
574.6002, 22.59101
575.0823, 22.88159
575.5645, 22.82065
576.0466, 22.74528
576.5287, 23.15931
577.0108, 22.67153
577.4929, 23.07780
577.9750, 23.12717
578.4572, 22.94022
578.9393, 22.85866
579.4214, 22.83790
579.9035, 22.90283
580.3856, 23.00281
580.8677, 23.14202
581.3499, 23.29021
581.8320, 23.39816
582.3141, 23.44852
582.7962, 23.46518
583.2783, 23.44509
583.7604, 23.40692
584.2426, 23.41469
584.7247, 23.48311
585.2068, 23.57161
585.6889, 23.64291
586.1710, 23.70272
586.6531, 23.80069
587.1352, 23.99720
587.6173, 24.15453
588.0994, 24.23080
588.5815, 24.24892
589.0637, 24.20028
589.5458, 24.10376
590.0279, 24.05883
590.5100, 24.18098
590.9921, 24.44606
591.4742, 24.55570
591.9564, 24.37168
592.4385, 24.26655
592.9206, 24.40431
593.4027, 24.59771
593.8848, 24.65856
594.3669, 24.57692
594.8491, 24.53041
595.3312, 24.69036
595.8133, 24.95510
596.2954, 25.09886
596.7775, 25.11397
597.2596, 25.14741
597.7418, 25.28101
598.2239, 25.45904
598.7060, 25.56160
599.1881, 25.56759
599.6702, 25.59888
600.1523, 25.68687
600.6345, 25.79445
601.1166, 25.90094
601.5987, 26.00314
602.0808, 26.10475
602.5629, 26.20925
603.0450, 26.30243
603.5272, 26.34505
604.0093, 26.30140
604.4914, 26.31488
604.9735, 26.41194
605.4556, 26.55142
605.9377, 26.77037
606.4199, 27.01119
606.9020, 27.14783
607.3841, 27.09398
607.8662, 27.02435
608.3483, 27.16268
608.8304, 27.45812
609.3126, 27.67594
609.7947, 27.76358
610.2768, 27.80432
610.7589, 27.86041
611.2410, 27.93192
611.7231, 28.01137
612.2053, 28.10915
612.6874, 28.20181
613.1695, 28.26545
613.6516, 28.32924
614.1337, 28.42337
614.6158, 28.55413
615.0980, 28.71913
615.5801, 28.92575
616.0622, 29.16242
616.5443, 29.35562
617.0264, 29.50439
617.5085, 29.60874
617.9907, 29.56064
618.4728, 29.54616
618.9549, 29.76175
619.4370, 30.18965
619.9191, 30.56372
620.4012, 30.68080
620.8834, 30.70141
621.3655, 30.85696
621.8476, 31.13090
622.3297, 31.38333
622.8118, 31.55853
623.2939, 31.69838
623.7761, 31.86999
624.2582, 32.08989
624.7403, 32.26374
625.2224, 32.31496
625.7045, 32.40429
626.1866, 32.67171
626.6688, 33.00227
627.1509, 33.19361
627.6330, 33.18401
628.1151, 33.12761
628.5972, 33.25265
629.0793, 33.56044
629.5615, 33.72302
630.0436, 33.66031
630.5257, 33.61154
631.0078, 33.68733
631.4899, 33.84633
631.9720, 34.07269
632.4542, 34.38828
632.9363, 34.63399
633.4184, 34.68476
633.9005, 34.64686
634.3826, 34.66542
634.8647, 34.73816
635.3469, 34.76953
635.8290, 34.70234
636.3111, 34.56895
636.7932, 34.44888
637.2753, 34.33644
637.7574, 34.24999
638.2396, 34.30253
638.7217, 34.26664
639.2038, 33.92065
639.6859, 33.42220
640.1680, 33.11843
640.6501, 33.18185
641.1323, 33.29298
641.6144, 32.96675
642.0965, 32.27681
642.5786, 31.81876
643.0607, 31.73702
643.5428, 31.65518
644.0250, 31.30482
644.5071, 30.74233
644.9892, 30.19356
645.4713, 29.59712
645.9534, 29.12314
646.4355, 28.87774
646.9177, 28.74201
647.3998, 28.65528
647.8819, 28.57130
648.3640, 28.37427
648.8461, 27.97366
649.3282, 27.45604
649.8104, 27.08738
650.2925, 26.92882
650.7746, 26.71963
651.2567, 26.36330
651.7388, 26.01401
652.2209, 25.75034
652.7031, 25.55965
653.1852, 25.41161
653.6673, 25.33502
654.1494, 25.22351
654.6315, 24.93558
655.1136, 24.55246
655.5958, 24.27073
656.0779, 24.12713
656.5600, 24.03544
657.0421, 23.92425
657.5242, 23.80289
658.0063, 23.73995
658.4885, 23.88385
658.9706, 23.88455
659.4527, 23.59162
659.9348, 23.25507
660.4169, 23.04766
660.8990, 22.96774
661.3812, 22.93524
661.8633, 22.91249
662.3454, 22.89239
662.8275, 22.86722
663.3096, 22.83655
663.7917, 22.78149
664.2739, 22.68768
664.7560, 22.59516
665.2381, 22.55216
665.7202, 22.54677
666.2023, 22.49473
666.6844, 22.33811
667.1666, 22.20388
667.6487, 22.16538
668.1308, 22.15015
668.6129, 22.07410
669.0950, 21.93301
669.5771, 21.77666
670.0593, 21.63968
670.5414, 21.52110
671.0235, 21.41680
671.5056, 21.32739
671.9877, 21.24994
672.4698, 21.21067
672.9520, 21.15341
673.4341, 21.01690
673.9162, 20.82842
674.3983, 20.68220
674.8804, 20.63528
675.3625, 20.59110
675.8447, 20.45176
676.3268, 20.28055
676.8089, 20.21740
677.2910, 20.27645
677.7731, 20.31729
678.2552, 20.21682
678.7374, 20.00602
679.2195, 19.85689
679.7016, 19.79863
680.1837, 19.75077
680.6658, 19.74041
681.1479, 19.70629
681.6301, 19.58500
682.1122, 19.40635
682.5943, 19.26179
683.0764, 19.20069
683.5585, 19.17125
684.0406, 19.12850
684.5228, 19.07191
685.0049, 18.99269
685.4870, 18.88726
685.9691, 18.79644
686.4512, 18.76154
686.9333, 18.76819
687.4155, 18.73088
687.8976, 18.52855
688.3797, 18.45152
688.8618, 18.65658
689.3439, 18.86946
689.8260, 18.87821
690.3082, 18.72609
690.7903, 18.57702
691.2724, 18.51204
691.7545, 18.49784
692.2366, 18.49888
692.7188, 18.51216
693.2009, 18.50716
693.6830, 18.47239
694.1651, 18.44877
694.6472, 18.47046
695.1293, 18.52638
695.6115, 18.57064
696.0936, 18.60872
696.5757, 18.62749
697.0578, 18.59817
697.5399, 18.57101
698.0220, 18.59287
698.5042, 18.65121
698.9863, 18.70353
699.4684, 18.72794
699.9505, 18.74014
700.4326, 18.76977
700.9147, 18.81659
701.3969, 18.83817
701.8790, 18.82243
702.3611, 18.80274
702.8432, 18.79481
703.3253, 18.79823
703.8074, 18.81162
704.2896, 18.83832
704.7717, 18.86478
705.2538, 18.87332
705.7359, 18.89187
706.2180, 18.96582
706.7001, 19.06812
707.1823, 19.12402
707.6644, 19.10061
708.1465, 19.04148
708.6286, 19.00782
709.1107, 19.00002
709.5928, 19.01465
710.0750, 19.07339
710.5571, 19.10843
711.0392, 19.07611
711.5213, 19.00909
712.0034, 18.94291
712.4855, 18.87789
712.9677, 18.82963
713.4498, 18.82740
713.9319, 18.82267
714.4140, 18.75010
714.8961, 18.64735
715.3782, 18.62253
715.8604, 18.70765
716.3425, 18.79248
716.8246, 18.72944
717.3067, 18.52241
717.7888, 18.37126
718.2709, 18.27643
718.7531, 18.23706
719.2352, 18.33173
719.7173, 18.42468
720.1994, 18.36268
720.6815, 18.15630
721.1636, 18.00536
721.6458, 18.05954
722.1279, 18.10899
722.6100, 17.96972
723.0921, 17.72416
723.5742, 17.52588
724.0563, 17.41195
724.5385, 17.33232
725.0206, 17.23909
725.5027, 17.14091
725.9848, 17.09862
726.4669, 17.14770
726.9490, 17.15772
727.4312, 17.04559
727.9132, 16.94451
728.3953, 16.96898
728.8774, 17.08012
729.3596, 17.14508
729.8417, 17.10496
730.3238, 17.05170
730.8059, 17.06556
731.2880, 17.08991
731.7701, 17.03023
732.2523, 16.88682
732.7344, 16.72869
733.2165, 16.59794
733.6986, 16.49965
734.1807, 16.44639
734.6628, 16.43869
735.1450, 16.47813
735.6271, 16.60949
736.1092, 16.73028
736.5913, 16.19511
737.0734, 16.59798
737.5555, 16.82116
738.0377, 16.87431
738.5198, 16.24818
739.0019, 16.49920
739.4840, 16.39870
739.9661, 16.28378
740.4482, 16.65826
740.9304, 16.13093
741.4125, 16.49765
741.8946, 16.50748
742.3767, 16.68065
742.8588, 16.50012
743.3409, 16.42884
743.8231, 16.71137
744.3052, 16.79799
744.7873, 16.57675
745.2694, 16.76030
745.7515, 16.37495
746.2336, 16.43745
746.7158, 16.51908
747.1979, 16.65911
747.6800, 16.76478
748.1621, 16.75468
748.6442, 16.67329
749.1263, 16.58460
749.6085, 16.50811
750.0906, 16.44898
750.5727, 16.41187
751.0548, 16.39582
751.5369, 16.40335
752.0190, 16.44574
752.5012, 16.45983
752.9833, 16.41182
753.4654, 16.36309
753.9475, 16.38935
754.4296, 16.45006
754.9117, 16.42774
755.3939, 16.22952
755.8760, 16.10021
756.3581, 16.19775
756.8402, 16.35374
757.3223, 16.41530
757.8044, 16.38518
758.2866, 16.31862
758.7687, 16.24121
759.2508, 16.18170
759.7329, 16.19584
760.2150, 16.28149
760.6971, 16.34509
761.1793, 16.38317
761.6614, 16.40102
762.1435, 16.40041
762.6256, 16.38113
763.1077, 16.32861
763.5898, 16.23339
764.0720, 16.19234
764.5541, 16.30013
765.0362, 16.37270
765.5183, 16.26756
766.0004, 16.10143
766.4825, 16.03234
766.9647, 16.08516
767.4468, 16.18187
767.9289, 16.27923
768.4110, 16.35522
768.8931, 16.34072
769.3752, 16.23924
769.8574, 16.16088
770.3395, 16.13264
770.8216, 16.11897
771.3037, 16.08208
771.7858, 16.03321
772.2679, 16.04051
772.7501, 16.17772
773.2322, 16.26145
773.7143, 16.23952
774.1964, 16.19933
774.6785, 16.19858
775.1606, 16.22199
775.6428, 16.22264
776.1249, 16.18073
776.6070, 16.14957
777.0891, 16.21981
777.5712, 16.32635
778.0533, 16.29627
778.5355, 16.13430
779.0176, 16.00042
779.4997, 15.96173
779.9818, 15.98844
780.4639, 16.04922
780.9460, 16.15471
781.4282, 16.18870
781.9103, 16.07156
782.3924, 15.99312
782.8745, 16.02555
783.3566, 16.08317
783.8387, 16.08045
784.3209, 16.02880
784.8030, 16.01719
785.2851, 16.12472
785.7672, 16.22492
786.2493, 16.18429
786.7314, 16.07830
787.2136, 16.03665
787.6957, 16.07455
788.1778, 16.15300
788.6599, 16.25343
789.1420, 16.34298
789.6241, 16.32062
790.1063, 16.14554
790.5884, 16.09784
791.0705, 16.27498
791.5526, 16.42802
792.0347, 16.42015
792.5168, 16.32446
792.9990, 16.23069
793.4811, 16.13860
793.9632, 16.08191
794.4453, 16.11351
794.9274, 16.13705
795.4095, 16.03684
795.8917, 15.91494
796.3738, 15.96602
796.8559, 16.20005
797.3380, 16.41389
797.8201, 16.44208
798.3022, 16.33308
798.7844, 16.15260
799.2665, 15.90620
799.7486, 15.81736
800.2307, 15.95862
800.7128, 16.14822
801.1949, 16.26310
801.6771, 16.31315
802.1592, 16.33560
802.6413, 16.31416
803.1234, 16.29196
803.6055, 16.25647
804.0876, 16.23357
804.5698, 16.25458
805.0519, 16.28935
805.5340, 16.29145
806.0161, 16.24955
806.4982, 16.18828
806.9803, 16.10460
807.4625, 16.02520
807.9446, 15.98080
808.4267, 15.97381
808.9088, 16.02295
809.3909, 16.13205
809.8730, 16.24356
810.3552, 16.30473
810.8373, 16.31717
811.3194, 16.28155
811.8015, 16.16207
812.2836, 16.09890
812.7657, 16.14557
813.2479, 16.21281
813.7300, 16.25953
814.2121, 16.28190
814.6942, 16.26481
815.1763, 16.18929
815.6584, 16.12599
816.1406, 16.08064
816.6227, 16.07220
817.1048, 16.15268
817.5869, 16.27211
818.0690, 16.33467
818.5511, 16.31152
819.0333, 16.24514
819.5154, 16.15273
819.9975, 16.06009
820.4796, 16.07088
820.9617, 16.18188
821.4438, 16.23278
821.9260, 16.17047
822.4081, 16.09024
822.8902, 16.08525
823.3723, 16.13665
823.8544, 16.12344
824.3365, 15.91939
824.8187, 15.85398
825.3008, 16.10645
825.7829, 16.31770
826.2650, 16.23233
826.7471, 16.00397
827.2292, 15.90900
827.7114, 16.01981
828.1935, 16.15366
828.6756, 16.20906
829.1577, 16.23103
829.6398, 16.28766
830.1219, 16.34815
830.6041, 16.30438
831.0862, 16.13934
831.5683, 15.99284
832.0504, 16.00429
832.5325, 16.12864
833.0146, 16.19187
833.4968, 16.18402
833.9789, 16.19745
834.4610, 16.27034
834.9431, 16.31124
835.4252, 16.22683
835.9073, 16.07063
836.3895, 16.01143
836.8716, 16.09530
837.3537, 16.14517
837.8358, 16.10998
838.3179, 16.07801
838.8000, 16.10928
839.2822, 16.16115
839.7643, 16.16158
840.2464, 16.10508
840.7285, 16.07296
841.2106, 16.14114
841.6927, 16.23907
842.1749, 16.28115
842.6570, 16.28315
843.1391, 16.29626
843.6212, 16.32558
844.1033, 16.31017
844.5854, 16.19859
845.0676, 16.04720
845.5497, 16.01445
846.0318, 16.13094
846.5139, 16.17513
846.9960, 16.09821
847.4781, 16.03655
847.9603, 16.05802
848.4424, 16.12482
848.9245, 16.17903
849.4066, 16.21817
849.8887, 16.28371
850.3708, 16.48917
850.8530, 16.58659
851.3351, 16.37084
851.8172, 16.08811
852.2993, 15.99106
852.7814, 16.06530
853.2635, 16.14899
853.7457, 16.17295
854.2278, 16.14140
854.7099, 16.01069
855.1920, 15.84303
855.6741, 15.78125
856.1563, 15.82512
856.6384, 15.90408
857.1205, 15.99027
857.6026, 16.05284
858.0847, 16.03987
858.5668, 15.95520
859.0490, 15.92869
859.5311, 15.99192
860.0132, 16.01515
860.4953, 15.93481
860.9774, 15.84687
861.4595, 15.84718
861.9417, 15.90821
862.4238, 15.92554
862.9059, 15.85602
863.3880, 15.81739
863.8701, 15.85750
864.3522, 15.90777
864.8344, 15.92940
865.3165, 15.92919
865.7986, 15.92568
866.2807, 15.92270
866.7628, 15.90585
867.2449, 15.84701
867.7271, 15.78119
868.2092, 15.75625
868.6913, 15.76282
869.1733, 15.77829
869.6555, 15.79689
870.1376, 15.81813
870.6197, 15.84499
871.1018, 15.86084
871.5839, 15.81547
872.0660, 15.69905
872.5482, 15.60793
873.0303, 15.53791
873.5124, 15.52303
873.9945, 15.62176
874.4766, 15.73960
874.9587, 15.71886
875.4409, 15.53867
875.9230, 15.45555
876.4051, 15.56986
876.8872, 15.64900
877.3693, 15.60254
877.8514, 15.53389
878.3336, 15.54185
878.8157, 15.59679
879.2978, 15.59578
879.7799, 15.48968
880.2620, 15.39297
880.7441, 15.40087
881.2263, 15.45138
881.7084, 15.48132
882.1905, 15.48741
882.6726, 15.45496
883.1547, 15.38868
883.6368, 15.37338
884.1190, 15.51375
884.6011, 15.73278
885.0832, 15.78834
885.5653, 15.68139
886.0474, 15.54198
886.5295, 15.37128
887.0117, 15.28191
887.4938, 15.38270
887.9759, 15.56027
888.4580, 15.54571
888.9401, 15.25214
889.4222, 15.10190
889.9044, 15.16729
890.3865, 15.28552
890.8686, 15.50557
891.3507, 15.69199
891.8328, 15.70780
892.3149, 15.57327
892.7971, 15.42099
893.2792, 15.21755
893.7613, 15.11406
894.2434, 15.25946
894.7255, 15.46181
895.2076, 15.57161
895.6898, 15.58726
896.1719, 15.52066
896.6540, 15.38352
897.1361, 15.26960
897.6182, 15.30468
898.1003, 15.39688
898.5825, 15.37184
899.0646, 15.25202
899.5467, 15.10055
900.0288, 14.93708
900.5109, 14.85591
900.9930, 14.93456
901.4752, 15.11005
901.9573, 15.23560
902.4394, 15.30869
902.9215, 15.34478
903.4036, 15.33680
903.8857, 15.31219
904.3679, 15.27788
904.8500, 15.23597
905.3321, 15.18070
905.8142, 15.11259
906.2963, 15.08264
906.7784, 15.09904
907.2606, 15.14067
907.7427, 15.25284
908.2248, 15.34283
908.7069, 15.35058
909.1890, 15.29459
909.6711, 15.20532
910.1533, 15.08589
910.6354, 14.98272
911.1175, 14.89075
911.5996, 14.85083
912.0817, 14.95224
912.5638, 15.10243
913.0460, 15.14215
913.5281, 15.06581
914.0102, 14.98754
914.4923, 14.97505
914.9744, 15.00560
915.4565, 15.07519
915.9387, 15.15829
916.4208, 15.14683
916.9029, 15.04640
917.3850, 15.00018
917.8671, 15.06616
918.3492, 15.17999
918.8314, 15.27627
919.3135, 15.35108
919.7956, 15.38103
920.2777, 15.36701
920.7598, 15.29524
921.2419, 15.12393
921.7241, 14.97543
922.2062, 14.92784
922.6883, 14.94986
923.1704, 14.98139
923.6525, 15.03181
924.1346, 15.05520
924.6168, 15.01393
925.0989, 14.99434
925.5810, 15.04657
926.0631, 15.10755
926.5452, 15.11518
927.0273, 15.08242
927.5095, 15.06869
927.9916, 15.10007
928.4737, 15.12329
928.9558, 15.10515
929.4379, 15.07469
929.9200, 15.04657
930.4022, 15.02907
930.8843, 15.04340
931.3664, 15.08710
931.8485, 15.11427
932.3306, 15.08110
932.8127, 15.03285
933.2949, 15.05359
933.7770, 15.10539
934.2591, 15.04688
934.7412, 14.89372
935.2233, 14.88636
935.7054, 15.14365
936.1876, 15.42499
936.6697, 15.36957
937.1518, 15.04284
937.6339, 14.94780
938.1160, 15.11457
938.5981, 15.19728
939.0803, 15.10975
939.5624, 14.97480
940.0445, 14.86028
940.5266, 14.78285
941.0087, 14.79624
941.4908, 14.94371
941.9730, 15.02645
942.4551, 14.99929
942.9372, 14.97529
943.4193, 14.99172
943.9014, 15.02143
944.3835, 15.04333
944.8657, 15.05861
945.3478, 15.07633
945.8299, 15.12083
946.3120, 15.12409
946.7941, 15.02712
947.2762, 14.93215
947.7584, 14.89482
948.2405, 14.90047
948.7226, 14.93116
949.2047, 14.97934
949.6868, 15.02473
950.1689, 15.07633
950.6511, 15.09520
951.1332, 14.98767
951.6153, 14.87224
952.0974, 14.95315
952.5795, 15.16472
953.0616, 15.26028
953.5438, 15.15132
954.0259, 15.00868
954.5080, 15.01662
954.9901, 15.09692
955.4722, 15.10304
955.9543, 15.04491
956.4365, 14.92533
956.9186, 14.75891
957.4007, 14.70284
957.8828, 14.86525
958.3649, 15.09179
958.8470, 15.08424
959.3292, 14.85596
959.8113, 14.76003
960.2934, 14.81338
960.7755, 14.84621
961.2576, 14.80879
961.7397, 14.75266
962.2219, 14.72077
962.7040, 14.70448
963.1861, 14.67027
963.6682, 14.59904
964.1503, 14.57143
964.6324, 14.63533
965.1146, 14.65947
965.5967, 14.55543
966.0788, 14.42733
966.5609, 14.40135
967.0430, 14.45903
967.5251, 14.47256
968.0073, 14.36159
968.4894, 14.32401
968.9715, 14.49958
969.4536, 14.62154
969.9357, 14.48975
970.4178, 14.25608
970.9000, 14.11906
971.3821, 14.10087
971.8642, 14.13125
972.3463, 14.24058
972.8284, 14.32188
973.3105, 14.30276
973.7927, 14.25059
974.2748, 14.22508
974.7569, 14.21861
975.2390, 14.20822
975.7211, 14.18525
976.2032, 14.13313
976.6854, 13.99910
977.1675, 13.86908
977.6496, 13.83943
978.1317, 13.87654
978.6138, 13.95127
979.0959, 14.03657
979.5781, 14.05145
980.0602, 13.95961
980.5423, 13.86031
981.0244, 13.89487
981.5065, 13.99565
981.9886, 13.98440
982.4708, 13.88552
982.9529, 13.81417
983.4350, 13.79105
983.9171, 13.77322
984.3992, 13.73347
984.8813, 13.68640
985.3635, 13.65044
985.8456, 13.62759
986.3277, 13.65882
986.8098, 13.74977
987.2919, 13.81846
987.7740, 13.84820
988.2562, 13.82332
988.7383, 13.71703
989.2204, 13.56974
989.7025, 13.49130
990.1846, 13.48140
990.6667, 13.55355
991.1489, 13.76120
991.6310, 13.90733
992.1131, 13.90617
992.5952, 13.86226
993.0773, 13.89585
993.5594, 13.96661
994.0416, 13.87862
994.5237, 13.45556
995.0058, 13.24597
995.4879, 13.42097
995.9700, 13.59344
996.4521, 13.64498
996.9343, 13.64001
997.4164, 13.63096
997.8985, 13.62019
998.3806, 13.61067
998.8627, 13.61912
999.3448, 13.59805
999.8270, 13.46797
1000.309, 13.38709
1000.791, 13.50681
1001.273, 13.67743
1001.755, 13.70035
1002.238, 13.57864
1002.720, 13.47565
1003.202, 13.45242
1003.684, 13.43650
1004.166, 13.39295
1004.648, 13.34784
1005.130, 13.31174
1005.612, 13.29338
1006.094, 13.30613
1006.577, 13.35001
1007.059, 13.41086
1007.541, 13.50394
1008.023, 13.56984
1008.505, 13.55200
1008.987, 13.49043
1009.469, 13.40524
1009.951, 13.32393
1010.433, 13.30193
1010.916, 13.34786
1011.398, 13.40986
1011.880, 13.46909
1012.362, 13.49209
1012.844, 13.40433
1013.326, 13.26705
1013.808, 13.19743
1014.290, 13.18861
1014.773, 13.17515
1015.255, 13.13571
1015.737, 13.10184
1016.219, 13.10633
1016.701, 13.12740
1017.183, 13.13860
1017.665, 13.13044
1018.147, 13.04283
1018.629, 12.89015
1019.112, 12.80597
1019.594, 12.84318
1020.076, 12.92916
1020.558, 12.99907
1021.040, 13.04300
1021.522, 13.00766
1022.004, 12.90830
1022.486, 12.90995
1022.969, 13.02831
1023.451, 13.06566
1023.933, 12.92666
1024.415, 12.75546
1024.897, 12.72661
1025.379, 12.80666
1025.861, 12.82929
1026.343, 12.78987
1026.825, 12.79779
1027.308, 12.87803
1027.790, 12.89824
1028.272, 12.77669
1028.754, 12.64073
1029.236, 12.66074
1029.718, 12.81321
1030.200, 12.92112
1030.682, 12.98540
1031.165, 12.99233
1031.647, 12.92147
1032.129, 12.85166
1032.611, 12.81511
1033.093, 12.80673
1033.575, 12.83120
1034.057, 12.88194
1034.539, 12.85776
1035.021, 12.70934
1035.504, 12.62500
1035.986, 12.66125
1036.468, 12.67940
1036.950, 12.59095
1037.432, 12.48073
1037.914, 12.46064
1038.396, 12.52664
1038.878, 12.59697
1039.360, 12.71418
1039.843, 12.75097
1040.325, 12.65196
1040.807, 12.53789
1041.289, 12.43043
1041.771, 12.35806
1042.253, 12.36939
1042.735, 12.45999
1043.217, 12.53651
1043.700, 12.62671
1044.182, 12.66023
1044.664, 12.61561
1045.146, 12.53746
1045.628, 12.40780
1046.110, 12.27864
1046.592, 12.20594
1047.074, 12.18845
1047.557, 12.20273
1048.039, 12.24529
1048.521, 12.32241
1049.003, 12.51795
1049.485, 12.65025
1049.967, 12.57963
1050.449, 12.44424
1050.931, 12.39954
1051.413, 12.43835
1051.896, 12.46102
1052.378, 12.44093
1052.860, 12.42778
1053.342, 12.44795
1053.824, 12.45668
1054.306, 12.43115
1054.788, 12.38430
1055.270, 12.32297
1055.752, 12.25317
1056.235, 12.18864
1056.717, 12.11337
1057.199, 12.09313
1057.681, 12.18953
1058.163, 12.29233
1058.645, 12.37895
1059.127, 12.42028
1059.609, 12.34968
1060.092, 12.20882
1060.574, 12.14305
1061.056, 12.19964
1061.538, 12.27878
1062.020, 12.38962
1062.502, 12.46466
1062.984, 12.46800
1063.466, 12.42002
1063.948, 12.31484
1064.431, 12.18098
1064.913, 12.08896
1065.395, 12.06160
1065.877, 12.03980
1066.359, 11.97951
1066.841, 11.94563
1067.323, 12.03192
1067.805, 12.11161
1068.287, 12.00254
1068.770, 11.79530
1069.252, 11.76208
1069.734, 11.98333
1070.216, 12.10912
1070.698, 11.90724
1071.180, 11.68358
1071.662, 11.57309
1072.144, 11.53307
1072.627, 11.55564
1073.109, 11.60218
1073.591, 11.60362
1074.073, 11.54600
1074.555, 11.49265
1075.037, 11.48036
1075.519, 11.46602
1076.001, 11.41744
1076.484, 11.36786
1076.966, 11.34699
1077.448, 11.34571
1077.930, 11.34962
1078.412, 11.35385
1078.894, 11.34322
1079.376, 11.26883
1079.858, 11.24685
1080.340, 11.40240
1080.823, 11.56311
1081.305, 11.59362
1081.787, 11.53818
1082.269, 11.45063
1082.751, 11.35462
1083.233, 11.30891
1083.715, 11.36031
1084.197, 11.40582
1084.679, 11.36300
1085.161, 11.33455
1085.644, 11.42634
1086.126, 11.55277
1086.608, 11.60004
1087.090, 11.57239
1087.572, 11.54863
1088.054, 11.55967
1088.536, 11.55055
1089.018, 11.46015
1089.501, 11.38612
1089.983, 11.40157
1090.465, 11.45285
1090.947, 11.50362
1091.429, 11.53379
1091.911, 11.50320
1092.393, 11.39453
1092.875, 11.29073
1093.358, 11.18466
1093.840, 11.13986
1094.322, 11.25984
1094.804, 11.38888
1095.286, 11.38235
1095.768, 11.27967
1096.250, 11.16631
1096.732, 11.05775
1097.214, 10.98949
1097.697, 10.95978
1098.179, 10.99087
1098.661, 11.20928
1099.143, 11.36987
1099.625, 11.20584
1100.107, 10.91945
1100.589, 10.84930
1101.071, 11.00507
1101.553, 11.08566
1102.036, 10.93614
1102.518, 10.84210
1103.000, 10.93675
1103.482, 11.03903
1103.964, 11.05162
1104.446, 11.02040
1104.928, 11.00714
1105.410, 11.00455
1105.893, 10.95663
1106.375, 10.83404
1106.857, 10.72321
1107.339, 10.63694
1107.821, 10.56895
1108.303, 10.51697
1108.785, 10.48221
1109.267, 10.50005
1109.750, 10.52938
1110.232, 10.44093
1110.714, 10.17450
1111.196, 10.06494
1111.678, 10.27763
1112.160, 10.46360
1112.642, 10.55347
1113.124, 10.59235
1113.606, 10.61559
1114.089, 10.60175
1114.571, 10.48344
1115.053, 10.25233
1115.535, 10.13768
1116.017, 10.25739
1116.499, 10.30204
1116.981, 10.23226
1117.463, 10.11485
1117.945, 9.939109
1118.428, 9.762389
1118.910, 9.636855
1119.392, 9.565207
1119.874, 9.567387
1120.356, 9.682841
1120.838, 9.770770
1121.320, 9.820239
1121.802, 9.870538
1122.285, 9.985624
1122.767, 10.00896
1123.249, 9.753188
1123.731, 9.373334
1124.213, 9.270236
1124.695, 9.487128
1125.177, 9.572301
1125.659, 9.474851
1126.141, 9.416390
1126.624, 9.452344
1127.106, 9.480186
1127.588, 9.440907
1128.070, 9.364795
1128.552, 9.282537
1129.034, 9.205165
1129.516, 9.255982
1129.998, 9.465137
1130.480, 9.536456
1130.963, 9.425120
1131.445, 9.320448
1131.927, 9.299373
1132.409, 9.269916
1132.891, 9.135415
1133.373, 8.949449
1133.855, 8.875941
1134.337, 8.905385
1134.820, 8.846339
1135.302, 8.697092
1135.784, 8.565457
1136.266, 8.476773
1136.748, 8.409628
1137.230, 8.348204
1137.712, 8.324031
1138.194, 8.419086
1138.677, 8.573292
1139.159, 8.552584
1139.641, 8.398474
1140.123, 8.292512
1140.605, 8.256364
1141.087, 8.250960
1141.569, 8.260827
1142.051, 8.305991
1142.533, 8.420650
1143.016, 8.544559
1143.498, 8.569967
1143.980, 8.536806
1144.462, 8.530194
1144.944, 8.542081
1145.426, 8.535055
1145.908, 8.499679
1146.390, 8.425612
1146.872, 8.295204
1147.355, 8.221088
1147.837, 8.385120
1148.319, 8.598901
1148.801, 8.652917
1149.283, 8.597497
1149.765, 8.472592
1150.247, 8.327596
1150.729, 8.285056
1151.212, 8.373236
1151.694, 8.394608
1152.176, 8.126866
1152.658, 7.899729
1153.140, 7.974574
1153.622, 8.135844
1154.104, 8.221252
1154.586, 8.241400
1155.068, 8.215107
1155.551, 8.161528
1156.033, 8.144308
1156.515, 8.193640
1156.997, 8.247442
1157.479, 8.281693
1157.961, 8.320521
1158.443, 8.382862
1158.925, 8.447665
1159.407, 8.515794
1159.890, 8.566280
1160.372, 8.532245
1160.854, 8.388720
1161.336, 8.345910
1161.818, 8.553763
1162.300, 8.659913
1162.782, 8.510159
1163.264, 8.395641
1163.747, 8.496984
1164.229, 8.645719
1164.711, 8.651195
1165.193, 8.534406
1165.675, 8.398515
1166.157, 8.187148
1166.639, 8.158403
1167.121, 8.396479
1167.604, 8.566357
1168.086, 8.581405
1168.568, 8.509563
1169.050, 8.384734
1169.532, 8.228474
1170.014, 8.067181
1170.496, 7.908733
1170.978, 7.853028
1171.460, 7.904356
1171.943, 7.838339
1172.425, 7.627316
1172.907, 7.471458
1173.389, 7.450534
1173.871, 7.437300
1174.353, 7.309455
1174.835, 7.140571
1175.317, 7.095177
1175.799, 7.132521
1176.282, 7.122989
1176.764, 7.066607
1177.246, 6.987157
1177.728, 6.884988
1178.210, 6.714428
1178.692, 6.455532
1179.174, 6.225554
1179.656, 6.178457
1180.139, 6.179560
1180.621, 6.021133
1181.103, 5.826418
1181.585, 5.791945
1182.067, 5.867030
1182.549, 5.922473
1183.031, 5.923791
1183.513, 5.869523
1183.995, 5.739058
1184.478, 5.624188
1184.960, 5.619091
1185.442, 5.599803
1185.924, 5.439900
1186.406, 5.261024
1186.888, 5.180550
1187.370, 5.187796
1187.852, 5.260192
1188.334, 5.397453
1188.817, 5.443652
1189.299, 5.232100
1189.781, 5.133748
1190.263, 5.355838
1190.745, 5.528928
1191.227, 5.438416
1191.709, 5.262856
1192.191, 5.179828
1192.674, 5.149022
1193.156, 5.024348
1193.638, 4.774905
1194.120, 4.580623
1194.602, 4.439627
1195.084, 4.377073
1195.566, 4.439692
1196.048, 4.427221
1196.531, 4.219149
1197.013, 3.933803
1197.495, 3.712256
1197.977, 3.548761
1198.459, 3.419805
1198.941, 3.326724
1199.423, 3.292893
1199.905, 3.312819
1200.387, 3.310554
1200.870, 3.267512
1201.352, 3.190684
1201.834, 3.080152
1202.316, 3.028774
1202.798, 3.231461
1203.280, 3.503074
1203.762, 3.470840
1204.244, 3.276883
1204.726, 3.200967
1205.209, 3.214940
1205.691, 3.123849
1206.173, 2.910442
1206.655, 2.809582
1207.137, 3.002928
1207.619, 3.123851
1208.101, 2.793011
1208.583, 2.445293
1209.066, 2.401502
1209.548, 2.509601
1210.030, 2.674683
1210.512, 2.821764
1210.994, 2.805264
1211.476, 2.604337
1211.958, 2.467065
1212.440, 2.398387
1212.922, 2.465387
1213.405, 2.853906
1213.887, 3.146905
1214.369, 3.089446
1214.851, 2.991593
1215.333, 3.142296
1215.815, 3.434595
1216.297, 3.593975
1216.779, 3.611064
1217.261, 3.638987
1217.744, 3.672691
1218.226, 3.755189
1218.708, 3.902781
1219.190, 4.006652
1219.672, 4.011622
1220.154, 4.042501
1220.636, 4.233422
1221.118, 4.479776
1221.600, 4.555286
1222.083, 4.492749
1222.565, 4.378808
1223.047, 4.243303
1223.529, 4.173432
1224.011, 4.186556
1224.493, 4.309405
1224.975, 4.541963
1225.457, 4.737280
1225.940, 4.772455
1226.422, 4.743216
1226.904, 4.729310
1227.386, 4.710211
1227.868, 4.633728
1228.350, 4.557539
1228.832, 4.564674
1229.314, 4.651762
1229.797, 4.784513
1230.279, 4.963130
1230.761, 5.096786
1231.243, 5.113196
1231.725, 5.149147
1232.207, 5.283598
1232.689, 5.393807
1233.171, 5.356673
1233.653, 5.317504
1234.135, 5.455940
1234.618, 5.702693
1235.100, 5.815002
1235.582, 5.774809
1236.064, 5.697042
1236.546, 5.548594
1237.028, 5.564370
1237.510, 5.809651
1237.992, 6.016377
1238.475, 6.059290
1238.957, 6.044757
1239.439, 6.075173
1239.921, 6.143846
1240.403, 6.250253
1240.885, 6.379040
1241.367, 6.513369
1241.849, 6.622573
1242.332, 6.552447
1242.814, 6.356558
1243.296, 6.367167
1243.778, 6.689651
1244.260, 6.948188
1244.742, 6.821678
1245.224, 6.653820
1245.706, 6.697073
1246.188, 6.814116
1246.671, 6.920095
1247.153, 7.010047
1247.635, 7.077974
1248.117, 7.134478
1248.599, 7.218812
1249.081, 7.347661
1249.563, 7.402650
1250.045, 7.337316
1250.527, 7.246115
1251.010, 7.082687
1251.492, 6.995450
1251.974, 7.085395
1252.456, 7.185838
1252.938, 7.139543
1253.420, 7.018692
1253.902, 6.984796
1254.384, 7.033708
1254.867, 7.109469
1255.349, 7.209700
1255.831, 7.296629
1256.313, 7.361158
1256.795, 7.344213
1257.277, 7.232547
1257.759, 7.110542
1258.241, 7.036473
1258.724, 6.991317
1259.206, 6.961748
1259.688, 6.939608
1260.170, 6.923240
1260.652, 6.901341
1261.134, 6.841497
1261.616, 6.769499
1262.098, 6.775141
1262.580, 6.848819
1263.063, 6.798440
1263.545, 6.485066
1264.027, 6.248950
1264.509, 6.247869
1264.991, 6.243383
1265.473, 6.173801
1265.955, 6.053398
1266.437, 5.890665
1266.919, 5.684117
1267.402, 5.418687
1267.884, 5.109879
1268.366, 4.860985
1268.848, 4.683604
1269.330, 4.482436
1269.812, 4.259625
1270.294, 3.774687
1270.776, 2.992644
1271.259, 2.659809
1271.741, 3.151071
1272.223, 3.744838
1272.705, 3.692693
1273.187, 3.342149
1273.669, 3.206846
1274.151, 3.130201
1274.633, 2.807942
1275.115, 2.395364
1275.598, 2.245504
1276.080, 2.286366
1276.562, 2.129089
1277.044, 1.673676
1277.526, 1.378070
1278.008, 1.559194
1278.490, 1.691490
1278.972, 1.572236
1279.454, 1.464725
1279.937, 1.529273
1280.419, 1.603325
1280.901, 1.520229
1281.383, 1.407345
1281.865, 1.529366
1282.347, 1.865223
1282.829, 2.108335
1283.311, 2.262144
1283.794, 2.227893
1284.276, 2.002272
1284.758, 1.903342
1285.240, 2.006791
1285.722, 2.118765
1286.204, 2.128659
##END=



