##NAMES=Starkeyite
##RRUFFID=R070589
##IDEAL CHEMISTRY=MgS^6+^O_4_&#183;4H_2_O
##LOCALITY=Basque Lake, near Ashcroft, British Columbia, Canada
##OWNER=RRUFF
##SOURCE=James Shigley
##DESCRIPTION=Fine white powder
##STATUS=The identification of this mineral has been confirmed by X-ray diffraction.
##URL=rruff.info/R070589
93.23199, 1363.238
93.71411, 1407.388
94.19623, 1450.078
94.67834, 1492.324
95.16046, 1536.886
95.64258, 1587.736
96.12469, 1649.062
96.60681, 1706.809
97.08893, 1753.623
97.57104, 1800.926
98.05316, 1860.427
98.53528, 1936.333
99.01740, 2020.707
99.49951, 2094.472
99.98163, 2154.182
100.4637, 2211.143
100.9459, 2270.757
101.4280, 2330.642
101.9101, 2382.558
102.3922, 2417.823
102.8743, 2378.600
103.3564, 2352.134
103.8386, 2344.004
104.3207, 2341.918
104.8028, 2332.375
105.2849, 2312.834
105.7670, 2300.393
106.2491, 2321.272
106.7313, 2354.598
107.2134, 2367.491
107.6955, 2336.120
108.1776, 2270.904
108.6597, 2214.301
109.1419, 2167.691
109.6240, 2128.188
110.1061, 2093.261
110.5882, 2063.060
111.0703, 2038.407
111.5524, 2020.134
112.0346, 2008.068
112.5167, 2002.177
112.9988, 2006.914
113.4809, 2013.678
113.9630, 2019.351
114.4451, 2022.593
114.9273, 2022.035
115.4094, 2014.732
115.8915, 1994.704
116.3736, 1974.905
116.8557, 1955.145
117.3378, 1936.089
117.8200, 1918.160
118.3021, 1901.517
118.7842, 1886.402
119.2663, 1875.103
119.7484, 1872.949
120.2305, 1868.342
120.7127, 1853.311
121.1948, 1830.886
121.6769, 1812.647
122.1590, 1808.113
122.6411, 1818.216
123.1232, 1826.480
123.6054, 1837.721
124.0875, 1844.557
124.5696, 1836.107
125.0517, 1808.729
125.5338, 1780.476
126.0159, 1775.654
126.4981, 1788.831
126.9802, 1795.307
127.4623, 1776.909
127.9444, 1743.335
128.4265, 1726.134
128.9086, 1739.790
129.3907, 1761.782
129.8729, 1772.662
130.3550, 1772.102
130.8371, 1767.929
131.3192, 1767.943
131.8013, 1773.422
132.2834, 1773.480
132.7656, 1757.840
133.2477, 1740.388
133.7298, 1730.657
134.2119, 1731.598
134.6940, 1737.497
135.1761, 1737.190
135.6583, 1725.956
136.1404, 1716.426
136.6225, 1709.197
137.1046, 1704.978
137.5867, 1705.699
138.0689, 1713.005
138.5510, 1725.109
139.0331, 1730.137
139.5152, 1722.891
139.9973, 1713.295
140.4794, 1702.750
140.9616, 1691.285
141.4437, 1677.855
141.9258, 1660.639
142.4079, 1638.494
142.8900, 1627.296
143.3721, 1638.746
143.8543, 1649.363
144.3364, 1643.817
144.8185, 1621.971
145.3006, 1596.706
145.7827, 1581.793
146.2648, 1580.453
146.7470, 1579.570
147.2291, 1578.361
147.7112, 1577.575
148.1933, 1578.745
148.6754, 1582.684
149.1575, 1586.690
149.6397, 1584.767
150.1218, 1575.851
150.6039, 1570.847
151.0860, 1581.088
151.5681, 1599.533
152.0502, 1602.139
152.5324, 1570.067
153.0145, 1530.693
153.4966, 1524.552
153.9787, 1560.798
154.4608, 1599.691
154.9429, 1606.772
155.4251, 1580.571
155.9072, 1555.645
156.3893, 1545.699
156.8714, 1543.180
157.3535, 1542.412
157.8356, 1542.584
158.3178, 1542.928
158.7999, 1540.970
159.2820, 1533.348
159.7641, 1531.969
160.2462, 1549.432
160.7283, 1571.953
161.2105, 1582.857
161.6926, 1571.594
162.1747, 1544.198
162.6568, 1526.353
163.1389, 1522.753
163.6210, 1524.509
164.1032, 1529.807
164.5853, 1538.305
165.0674, 1550.856
165.5495, 1570.122
166.0316, 1596.935
166.5137, 1607.600
166.9959, 1588.173
167.4780, 1565.625
167.9601, 1543.811
168.4422, 1525.827
168.9243, 1516.421
169.4064, 1522.061
169.8886, 1549.212
170.3707, 1566.170
170.8528, 1568.781
171.3349, 1566.485
171.8170, 1564.293
172.2991, 1563.230
172.7813, 1561.775
173.2634, 1557.407
173.7455, 1545.471
174.2276, 1541.426
174.7097, 1551.978
175.1918, 1567.245
175.6740, 1577.273
176.1561, 1578.958
176.6382, 1576.579
177.1203, 1578.466
177.6024, 1588.085
178.0845, 1593.392
178.5667, 1587.378
179.0488, 1575.935
179.5309, 1570.161
180.0130, 1575.127
180.4951, 1586.344
180.9772, 1594.311
181.4594, 1599.350
181.9415, 1601.626
182.4236, 1598.145
182.9057, 1590.756
183.3878, 1588.276
183.8699, 1596.800
184.3521, 1611.418
184.8342, 1621.466
185.3163, 1624.220
185.7984, 1626.189
186.2805, 1634.636
186.7626, 1649.912
187.2448, 1660.935
187.7269, 1657.737
188.2090, 1648.372
188.6911, 1643.228
189.1732, 1646.349
189.6553, 1652.525
190.1375, 1652.497
190.6196, 1642.303
191.1017, 1639.292
191.5838, 1660.581
192.0659, 1691.257
192.5480, 1713.127
193.0302, 1715.052
193.5123, 1705.048
193.9944, 1704.650
194.4765, 1721.221
194.9586, 1734.517
195.4408, 1731.300
195.9229, 1720.537
196.4050, 1717.276
196.8871, 1734.559
197.3692, 1767.609
197.8513, 1784.044
198.3335, 1766.860
198.8156, 1751.207
199.2977, 1749.504
199.7798, 1758.135
200.2619, 1768.535
200.7440, 1773.349
201.2262, 1772.265
201.7083, 1777.272
202.1904, 1797.990
202.6725, 1816.527
203.1546, 1827.649
203.6367, 1831.605
204.1189, 1830.907
204.6010, 1827.105
205.0831, 1819.011
205.5652, 1814.514
206.0473, 1813.169
206.5294, 1815.268
207.0116, 1825.607
207.4937, 1841.628
207.9758, 1853.271
208.4579, 1847.390
208.9400, 1813.121
209.4221, 1796.223
209.9043, 1808.259
210.3864, 1825.535
210.8685, 1833.949
211.3506, 1831.335
211.8327, 1823.475
212.3148, 1817.205
212.7970, 1810.148
213.2791, 1811.964
213.7612, 1833.683
214.2433, 1856.956
214.7254, 1865.225
215.2075, 1855.086
215.6897, 1837.606
216.1718, 1829.237
216.6539, 1835.720
217.1360, 1841.404
217.6181, 1845.286
218.1002, 1848.598
218.5824, 1853.309
219.0645, 1860.059
219.5466, 1866.434
220.0287, 1867.869
220.5108, 1862.168
220.9929, 1856.747
221.4751, 1848.205
221.9572, 1841.677
222.4393, 1848.040
222.9214, 1873.186
223.4035, 1902.733
223.8856, 1903.875
224.3678, 1863.479
224.8499, 1835.950
225.3320, 1841.266
225.8141, 1867.840
226.2962, 1895.176
226.7783, 1917.389
227.2605, 1935.131
227.7426, 1949.774
228.2247, 1961.899
228.7068, 1970.851
229.1889, 1975.023
229.6710, 1975.681
230.1532, 1975.460
230.6353, 1974.068
231.1174, 1974.025
231.5995, 1980.394
232.0816, 1995.415
232.5637, 2009.485
233.0459, 2015.061
233.5280, 2014.793
234.0101, 2019.360
234.4922, 2033.790
234.9743, 2054.293
235.4564, 2075.297
235.9386, 2098.876
236.4207, 2117.279
236.9028, 2119.613
237.3849, 2109.080
237.8670, 2108.929
238.3491, 2135.601
238.8313, 2170.645
239.3134, 2187.291
239.7955, 2180.664
240.2776, 2167.644
240.7597, 2158.576
241.2418, 2153.421
241.7240, 2152.498
242.2061, 2159.303
242.6882, 2168.256
243.1703, 2173.336
243.6524, 2174.252
244.1345, 2170.685
244.6167, 2160.437
245.0988, 2143.442
245.5809, 2127.703
246.0630, 2117.380
246.5451, 2108.709
247.0272, 2098.459
247.5094, 2086.623
247.9915, 2071.762
248.4736, 2050.013
248.9557, 2020.553
249.4378, 1995.898
249.9199, 1985.674
250.4021, 1978.700
250.8842, 1964.651
251.3663, 1940.902
251.8484, 1914.414
252.3305, 1894.664
252.8126, 1883.322
253.2948, 1864.026
253.7769, 1818.746
254.2590, 1770.856
254.7411, 1740.260
255.2232, 1732.251
255.7053, 1731.345
256.1875, 1720.282
256.6696, 1697.714
257.1517, 1673.413
257.6338, 1648.549
258.1159, 1623.753
258.5981, 1597.705
259.0802, 1569.588
259.5623, 1546.110
260.0444, 1539.926
260.5265, 1555.729
261.0086, 1561.412
261.4908, 1535.678
261.9729, 1504.147
262.4550, 1484.547
262.9371, 1480.932
263.4192, 1481.168
263.9013, 1469.521
264.3835, 1443.181
264.8656, 1420.032
265.3477, 1406.334
265.8298, 1395.928
266.3119, 1385.287
266.7940, 1373.731
267.2762, 1362.824
267.7583, 1355.198
268.2404, 1351.772
268.7225, 1346.759
269.2046, 1335.182
269.6867, 1324.170
270.1689, 1320.192
270.6510, 1323.992
271.1331, 1326.988
271.6152, 1317.026
272.0973, 1290.682
272.5794, 1270.495
273.0616, 1266.491
273.5437, 1265.536
274.0258, 1260.553
274.5079, 1250.543
274.9900, 1239.374
275.4721, 1230.664
275.9543, 1224.415
276.4364, 1220.541
276.9185, 1222.972
277.4006, 1225.022
277.8827, 1222.871
278.3648, 1216.338
278.8470, 1208.344
279.3291, 1200.591
279.8112, 1192.483
280.2933, 1189.238
280.7754, 1200.850
281.2575, 1209.959
281.7397, 1204.997
282.2218, 1187.117
282.7039, 1168.678
283.1860, 1162.236
283.6681, 1168.785
284.1502, 1173.438
284.6324, 1174.099
285.1145, 1173.739
285.5966, 1173.790
286.0787, 1174.168
286.5608, 1173.998
287.0429, 1172.091
287.5251, 1168.410
288.0072, 1165.700
288.4893, 1164.138
288.9714, 1163.585
289.4535, 1165.219
289.9356, 1168.075
290.4178, 1169.358
290.8999, 1166.850
291.3820, 1160.667
291.8641, 1152.613
292.3462, 1138.505
292.8283, 1127.786
293.3105, 1125.206
293.7926, 1129.058
294.2747, 1134.996
294.7568, 1140.907
295.2389, 1146.656
295.7210, 1151.851
296.2032, 1159.280
296.6853, 1161.674
297.1674, 1151.251
297.6495, 1134.523
298.1316, 1124.190
298.6137, 1129.888
299.0959, 1146.539
299.5780, 1155.502
300.0601, 1152.822
300.5422, 1149.261
301.0243, 1150.079
301.5064, 1152.774
301.9886, 1153.413
302.4707, 1149.040
302.9528, 1142.508
303.4349, 1140.443
303.9170, 1143.540
304.3991, 1149.650
304.8813, 1163.728
305.3634, 1178.228
305.8455, 1183.228
306.3276, 1173.217
306.8097, 1155.808
307.2918, 1141.732
307.7740, 1130.071
308.2561, 1125.361
308.7382, 1140.711
309.2203, 1158.776
309.7024, 1162.001
310.1845, 1143.137
310.6667, 1116.951
311.1488, 1100.499
311.6309, 1094.474
312.1130, 1092.814
312.5951, 1096.393
313.0772, 1102.151
313.5594, 1107.707
314.0415, 1112.688
314.5236, 1117.475
315.0057, 1124.123
315.4878, 1132.553
315.9699, 1134.779
316.4521, 1124.138
316.9342, 1110.249
317.4163, 1102.706
317.8984, 1102.223
318.3805, 1101.529
318.8626, 1091.805
319.3448, 1075.736
319.8269, 1071.103
320.3090, 1089.583
320.7911, 1109.195
321.2732, 1105.789
321.7553, 1081.207
322.2375, 1061.307
322.7196, 1064.150
323.2017, 1081.763
323.6838, 1091.453
324.1659, 1088.464
324.6480, 1081.491
325.1302, 1076.810
325.6123, 1074.252
326.0944, 1074.201
326.5765, 1077.716
327.0586, 1083.515
327.5407, 1091.056
328.0229, 1101.241
328.5050, 1108.156
328.9871, 1105.297
329.4692, 1094.935
329.9513, 1084.150
330.4334, 1069.798
330.9156, 1058.280
331.3977, 1059.118
331.8798, 1072.525
332.3619, 1084.449
332.8440, 1084.422
333.3261, 1075.904
333.8083, 1073.300
334.2904, 1081.175
334.7725, 1091.322
335.2546, 1100.011
335.7367, 1106.978
336.2188, 1110.347
336.7010, 1107.943
337.1831, 1102.206
337.6652, 1100.437
338.1473, 1104.100
338.6294, 1108.974
339.1115, 1114.656
339.5937, 1120.329
340.0758, 1123.759
340.5579, 1123.670
341.0400, 1122.138
341.5221, 1123.948
342.0042, 1131.374
342.4864, 1136.512
342.9685, 1137.946
343.4506, 1136.280
343.9327, 1129.667
344.4148, 1117.578
344.8969, 1107.647
345.3791, 1111.245
345.8612, 1135.762
346.3433, 1156.068
346.8254, 1173.933
347.3075, 1186.421
347.7896, 1187.459
348.2718, 1178.099
348.7539, 1169.547
349.2360, 1173.903
349.7181, 1194.412
350.2002, 1206.854
350.6823, 1203.722
351.1645, 1200.857
351.6466, 1205.813
352.1287, 1217.879
352.6108, 1233.909
353.0929, 1253.000
353.5750, 1274.327
354.0572, 1282.343
354.5393, 1259.498
355.0214, 1242.935
355.5035, 1245.176
355.9856, 1258.185
356.4677, 1269.249
356.9499, 1271.720
357.4320, 1267.813
357.9141, 1264.105
358.3962, 1253.949
358.8783, 1254.569
359.3604, 1282.065
359.8426, 1312.970
360.3247, 1322.333
360.8068, 1302.773
361.2889, 1270.941
361.7710, 1255.058
362.2531, 1262.499
362.7353, 1266.120
363.2174, 1263.158
363.6995, 1256.689
364.1816, 1245.334
364.6637, 1230.550
365.1458, 1219.238
365.6280, 1222.009
366.1101, 1240.688
366.5922, 1248.231
367.0743, 1235.776
367.5564, 1220.051
368.0385, 1209.087
368.5207, 1201.433
369.0028, 1191.987
369.4849, 1174.616
369.9670, 1152.874
370.4491, 1142.477
370.9312, 1150.350
371.4134, 1155.237
371.8955, 1142.385
372.3776, 1121.034
372.8597, 1105.476
373.3418, 1103.856
373.8239, 1105.993
374.3061, 1096.212
374.7882, 1073.118
375.2703, 1051.463
375.7524, 1035.930
376.2345, 1026.245
376.7166, 1022.709
377.1988, 1027.402
377.6809, 1032.384
378.1630, 1030.894
378.6451, 1024.611
379.1272, 1021.073
379.6093, 1023.552
380.0915, 1027.650
380.5736, 1027.602
381.0557, 1023.578
381.5378, 1017.192
382.0199, 1006.323
382.5020, 994.3433
382.9842, 986.6119
383.4663, 984.1901
383.9484, 982.9019
384.4305, 977.3159
384.9126, 966.9274
385.3947, 965.8116
385.8769, 990.7784
386.3590, 1011.815
386.8411, 1002.436
387.3232, 967.9753
387.8053, 935.2471
388.2874, 921.7483
388.7696, 925.6388
389.2517, 932.8079
389.7338, 947.3112
390.2159, 959.8290
390.6980, 968.2650
391.1801, 973.1200
391.6623, 976.4705
392.1444, 979.2715
392.6265, 978.2084
393.1086, 964.7253
393.5907, 915.5394
394.0728, 890.0011
394.5550, 904.2399
395.0371, 930.0189
395.5192, 946.6540
396.0013, 950.4493
396.4834, 950.8026
396.9655, 960.1872
397.4477, 982.7470
397.9298, 992.1381
398.4119, 971.6638
398.8940, 953.3505
399.3761, 950.2599
399.8582, 959.1785
400.3404, 970.6882
400.8225, 980.2218
401.3046, 986.7198
401.7867, 983.7244
402.2688, 963.2289
402.7509, 947.9695
403.2331, 947.5212
403.7152, 954.9644
404.1973, 963.7140
404.6794, 972.8578
405.1615, 978.2398
405.6436, 970.9117
406.1258, 949.3123
406.6079, 934.8216
407.0900, 935.0945
407.5721, 943.9133
408.0542, 956.3500
408.5363, 972.4675
409.0185, 987.0027
409.5006, 997.4163
409.9827, 1003.868
410.4648, 1005.958
410.9469, 1002.817
411.4290, 997.9695
411.9112, 994.2318
412.3933, 991.5217
412.8754, 989.7272
413.3575, 988.6770
413.8396, 988.6533
414.3217, 990.1122
414.8039, 992.9621
415.2860, 996.9886
415.7681, 1003.171
416.2502, 1010.000
416.7323, 1009.958
417.2144, 990.4913
417.6966, 979.9978
418.1787, 993.4985
418.6608, 1018.839
419.1429, 1038.560
419.6250, 1046.667
420.1071, 1046.251
420.5893, 1041.711
421.0714, 1025.384
421.5535, 1021.633
422.0356, 1042.064
422.5177, 1064.880
422.9998, 1074.770
423.4820, 1071.996
423.9641, 1067.067
424.4462, 1069.332
424.9283, 1078.844
425.4104, 1087.702
425.8925, 1094.172
426.3747, 1101.998
426.8568, 1113.526
427.3389, 1126.652
427.8210, 1137.884
428.3031, 1145.274
428.7852, 1151.175
429.2674, 1160.418
429.7495, 1173.818
430.2316, 1187.682
430.7137, 1201.934
431.1958, 1215.649
431.6779, 1227.814
432.1601, 1238.258
432.6422, 1248.564
433.1243, 1259.371
433.6064, 1270.877
434.0885, 1284.369
434.5706, 1300.273
435.0528, 1317.486
435.5349, 1336.780
436.0170, 1357.143
436.4991, 1374.395
436.9812, 1381.971
437.4633, 1389.684
437.9455, 1411.874
438.4276, 1446.669
438.9097, 1472.260
439.3918, 1472.951
439.8739, 1458.370
440.3560, 1462.026
440.8382, 1497.682
441.3203, 1528.017
441.8024, 1540.176
442.2845, 1542.040
442.7666, 1542.318
443.2487, 1543.680
443.7309, 1548.037
444.2130, 1558.852
444.6951, 1580.336
445.1772, 1593.932
445.6593, 1595.786
446.1415, 1594.448
446.6236, 1591.575
447.1057, 1589.155
447.5878, 1591.036
448.0699, 1600.559
448.5521, 1615.954
449.0342, 1627.029
449.5163, 1631.080
449.9984, 1634.755
450.4805, 1630.908
450.9626, 1631.547
451.4448, 1654.717
451.9269, 1705.926
452.4090, 1758.062
452.8911, 1770.947
453.3732, 1742.816
453.8553, 1732.919
454.3375, 1762.020
454.8196, 1797.507
455.3017, 1810.345
455.7838, 1806.107
456.2659, 1811.890
456.7480, 1853.145
457.2302, 1906.478
457.7123, 1930.082
458.1944, 1921.166
458.6765, 1917.170
459.1586, 1943.515
459.6407, 1989.977
460.1229, 2021.759
460.6050, 2029.082
461.0871, 2036.392
461.5692, 2055.996
462.0513, 2081.863
462.5334, 2104.576
463.0156, 2121.410
463.4977, 2132.150
463.9798, 2136.188
464.4619, 2131.829
464.9440, 2125.002
465.4261, 2116.897
465.9083, 2105.520
466.3904, 2088.890
466.8725, 2067.796
467.3546, 2045.604
467.8367, 2025.319
468.3188, 2004.779
468.8010, 1972.943
469.2831, 1922.498
469.7652, 1871.369
470.2473, 1820.812
470.7294, 1772.279
471.2115, 1727.561
471.6937, 1687.081
472.1758, 1648.492
472.6579, 1608.648
473.1400, 1567.670
473.6221, 1530.548
474.1042, 1500.800
474.5864, 1471.034
475.0685, 1435.614
475.5506, 1396.010
476.0327, 1356.329
476.5148, 1315.984
476.9969, 1277.831
477.4791, 1245.319
477.9612, 1218.341
478.4433, 1195.927
478.9254, 1179.592
479.4075, 1165.974
479.8896, 1145.786
480.3718, 1112.157
480.8539, 1088.281
481.3360, 1090.910
481.8181, 1101.160
482.3002, 1094.209
482.7823, 1067.083
483.2645, 1038.623
483.7466, 1029.450
484.2287, 1042.418
484.7108, 1041.943
485.1929, 1012.219
485.6750, 987.4801
486.1572, 980.8421
486.6393, 985.4644
487.1214, 991.4968
487.6035, 994.7578
488.0856, 993.3889
488.5677, 981.0179
489.0499, 951.5301
489.5320, 932.0800
490.0141, 936.6916
490.4962, 944.6292
490.9783, 945.5350
491.4604, 939.0264
491.9426, 928.8528
492.4247, 912.1873
492.9068, 894.4972
493.3889, 890.7634
493.8710, 903.7445
494.3531, 916.6901
494.8353, 921.0296
495.3174, 918.4847
495.7995, 914.0513
496.2816, 907.1223
496.7637, 899.6211
497.2458, 889.3008
497.7280, 879.7361
498.2101, 879.7166
498.6922, 891.6502
499.1743, 904.6452
499.6564, 905.6150
500.1385, 891.9132
500.6207, 878.5338
501.1028, 862.1624
501.5849, 849.2216
502.0670, 842.4975
502.5491, 841.3376
503.0313, 844.6202
503.5134, 851.9732
503.9955, 861.7987
504.4776, 871.0134
504.9597, 881.8715
505.4418, 886.2532
505.9240, 876.9370
506.4061, 865.6719
506.8882, 858.9505
507.3703, 857.3280
507.8524, 858.6447
508.3345, 866.3983
508.8167, 875.6636
509.2988, 868.6478
509.7809, 840.3969
510.2630, 817.4777
510.7451, 819.0858
511.2272, 835.0096
511.7094, 842.3414
512.1915, 836.1221
512.6736, 828.2803
513.1557, 820.0626
513.6378, 815.2033
514.1199, 823.8188
514.6021, 848.4492
515.0842, 874.0390
515.5663, 883.4495
516.0484, 873.9174
516.5305, 865.8682
517.0126, 858.5826
517.4948, 853.2245
517.9769, 851.2039
518.4590, 851.2260
518.9411, 851.2301
519.4232, 850.2653
519.9053, 848.7286
520.3875, 847.2816
520.8696, 845.7709
521.3517, 844.9308
521.8338, 848.3939
522.3159, 849.4687
522.7980, 840.9333
523.2802, 825.4598
523.7623, 784.2247
524.2444, 822.6935
524.7265, 844.9307
525.2086, 851.8083
525.6907, 797.3227
526.1729, 822.0753
526.6550, 815.0727
527.1371, 806.7678
527.6192, 842.6724
528.1013, 797.1120
528.5834, 832.3154
529.0656, 835.2798
529.5477, 852.9990
530.0298, 838.7671
530.5119, 834.4040
530.9940, 862.0021
531.4761, 871.9029
531.9583, 853.9934
532.4404, 872.6506
532.9225, 825.9739
533.4046, 836.6286
533.8867, 872.0191
534.3688, 855.7156
534.8510, 874.9573
535.3331, 880.6612
535.8152, 854.0334
536.2973, 855.9841
536.7794, 854.5468
537.2615, 855.1910
537.7437, 858.8895
538.2258, 863.6973
538.7079, 871.3064
539.1900, 878.9568
539.6721, 879.9266
540.1542, 867.9376
540.6364, 854.6803
541.1185, 849.5804
541.6006, 851.1356
542.0827, 854.6257
542.5648, 858.6494
543.0469, 863.9619
543.5291, 872.2087
544.0112, 885.2716
544.4933, 893.5330
544.9754, 890.5056
545.4575, 888.9084
545.9396, 900.0313
546.4218, 917.5714
546.9039, 926.1859
547.3860, 917.2474
547.8681, 899.5243
548.3502, 894.1661
548.8323, 907.6295
549.3145, 914.6817
549.7966, 904.8430
550.2787, 893.6340
550.7608, 889.8071
551.2429, 892.5293
551.7250, 895.3809
552.2072, 895.4362
552.6893, 893.2056
553.1714, 887.0469
553.6535, 876.9526
554.1356, 874.1745
554.6177, 886.5153
555.0999, 906.1109
555.5820, 916.8683
556.0641, 916.9614
556.5462, 916.7123
557.0283, 917.3303
557.5104, 918.9504
557.9926, 923.3358
558.4747, 929.3386
558.9568, 931.9483
559.4389, 926.7991
559.9210, 916.3599
560.4031, 912.8985
560.8853, 918.0947
561.3674, 927.9078
561.8495, 950.6592
562.3316, 970.9535
562.8137, 971.6704
563.2958, 953.7744
563.7780, 939.4107
564.2601, 953.6320
564.7422, 984.5566
565.2243, 992.1379
565.7064, 971.3436
566.1885, 952.8489
566.6707, 955.3973
567.1528, 969.7537
567.6349, 973.4150
568.1170, 959.9505
568.5991, 950.9207
569.0812, 956.7620
569.5634, 969.1697
570.0455, 980.1933
570.5276, 988.0314
571.0097, 990.6657
571.4918, 984.9252
571.9739, 972.4670
572.4561, 971.9532
572.9382, 997.8419
573.4203, 1016.260
573.9024, 1016.178
574.3845, 1010.568
574.8666, 1011.298
575.3488, 1020.542
575.8309, 1032.920
576.3130, 1046.097
576.7951, 1058.859
577.2772, 1064.561
577.7593, 1061.141
578.2415, 1058.323
578.7236, 1063.919
579.2057, 1073.062
579.6878, 1073.300
580.1699, 1056.990
580.6520, 1047.018
581.1342, 1056.062
581.6163, 1074.371
582.0984, 1091.070
582.5805, 1104.033
583.0626, 1114.047
583.5447, 1121.753
584.0269, 1127.174
584.5090, 1130.047
584.9911, 1123.953
585.4732, 1124.281
585.9553, 1139.508
586.4374, 1158.142
586.9196, 1169.010
587.4017, 1170.370
587.8838, 1169.697
588.3659, 1173.559
588.8480, 1180.564
589.3301, 1184.696
589.8123, 1184.503
590.2944, 1188.183
590.7765, 1201.728
591.2586, 1221.825
591.7407, 1240.206
592.2228, 1257.985
592.7050, 1271.773
593.1871, 1278.399
593.6692, 1281.719
594.1513, 1284.995
594.6334, 1289.022
595.1155, 1294.176
595.5977, 1300.673
596.0798, 1308.598
596.5619, 1318.391
597.0440, 1330.831
597.5261, 1343.891
598.0082, 1361.120
598.4904, 1376.062
598.9725, 1381.018
599.4546, 1376.520
599.9367, 1373.890
600.4188, 1383.545
600.9009, 1399.691
601.3831, 1410.027
601.8652, 1414.149
602.3473, 1417.328
602.8294, 1422.652
603.3115, 1428.073
603.7936, 1428.224
604.2758, 1420.284
604.7579, 1415.291
605.2400, 1416.777
605.7221, 1420.184
606.2042, 1423.023
606.6863, 1424.607
607.1685, 1424.219
607.6506, 1421.247
608.1327, 1416.481
608.6148, 1412.212
609.0969, 1408.820
609.5790, 1404.740
610.0612, 1399.664
610.5433, 1393.791
611.0254, 1387.209
611.5075, 1379.939
611.9896, 1372.074
612.4717, 1361.840
612.9539, 1352.298
613.4360, 1348.810
613.9181, 1349.475
614.4002, 1345.313
614.8823, 1332.460
615.3644, 1316.048
615.8466, 1303.314
616.3287, 1294.291
616.8108, 1289.579
617.2929, 1296.926
617.7750, 1300.092
618.2571, 1288.590
618.7393, 1269.014
619.2214, 1252.808
619.7035, 1244.657
620.1856, 1240.109
620.6677, 1233.641
621.1498, 1225.248
621.6320, 1215.771
622.1141, 1204.491
622.5962, 1193.776
623.0783, 1185.941
623.5604, 1179.968
624.0425, 1172.993
624.5247, 1163.379
625.0068, 1154.618
625.4889, 1147.570
625.9710, 1142.605
626.4531, 1141.243
626.9352, 1143.293
627.4174, 1145.516
627.8995, 1145.465
628.3816, 1142.900
628.8637, 1133.155
629.3458, 1107.938
629.8279, 1088.814
630.3101, 1085.322
630.7922, 1085.852
631.2743, 1079.321
631.7564, 1064.543
632.2385, 1049.929
632.7206, 1040.637
633.2028, 1035.207
633.6849, 1032.424
634.1670, 1032.009
634.6491, 1029.297
635.1312, 1021.590
635.6133, 1011.032
636.0955, 1002.104
636.5776, 996.2180
637.0597, 989.1588
637.5418, 981.0313
638.0239, 971.6027
638.5060, 958.8199
638.9882, 944.7264
639.4703, 933.6562
639.9524, 927.7800
640.4345, 925.6944
640.9166, 926.9482
641.3987, 931.8500
641.8809, 929.9573
642.3630, 915.8452
642.8451, 901.2166
643.3272, 899.4189
643.8093, 905.4971
644.2914, 902.4138
644.7736, 875.3666
645.2557, 852.7987
645.7378, 852.7881
646.2199, 863.3627
646.7020, 867.6578
647.1841, 861.8911
647.6663, 850.8999
648.1484, 838.7454
648.6305, 825.6129
649.1126, 813.8218
649.5947, 800.9725
650.0768, 794.0218
650.5590, 801.2126
651.0411, 810.5674
651.5232, 811.0273
652.0053, 801.6205
652.4874, 791.1258
652.9695, 783.4293
653.4517, 777.7920
653.9338, 772.5482
654.4159, 768.1437
654.8980, 767.9003
655.3801, 773.7797
655.8622, 783.0344
656.3444, 791.7434
656.8265, 804.5058
657.3086, 803.4341
657.7907, 770.6083
658.2728, 744.4453
658.7549, 747.4059
659.2371, 766.7372
659.7192, 779.0377
660.2013, 775.1030
660.6834, 765.6292
661.1655, 763.0140
661.6476, 765.3464
662.1298, 763.6049
662.6119, 756.4753
663.0940, 745.8462
663.5761, 729.5645
664.0582, 711.0873
664.5403, 707.6101
665.0225, 734.6011
665.5046, 752.9265
665.9867, 751.6653
666.4688, 742.9368
666.9509, 734.7309
667.4330, 728.9059
667.9152, 726.4586
668.3973, 729.2636
668.8794, 733.5781
669.3615, 728.4139
669.8436, 712.1258
670.3257, 700.9387
670.8079, 699.6730
671.2900, 702.9258
671.7721, 706.8684
672.2542, 711.2300
672.7363, 714.1406
673.2184, 713.6642
673.7006, 713.4513
674.1827, 716.3981
674.6648, 720.4022
675.1469, 722.0532
675.6290, 720.6434
676.1111, 718.0012
676.5933, 715.5461
677.0754, 713.4557
677.5575, 714.6188
678.0396, 721.5596
678.5217, 725.9722
679.0038, 722.5281
679.4860, 717.0008
679.9681, 715.5422
680.4502, 718.5357
680.9323, 719.6464
681.4144, 714.8569
681.8965, 708.4183
682.3787, 704.5725
682.8608, 702.4838
683.3429, 698.0440
683.8250, 689.4985
684.3071, 682.4628
684.7892, 687.5657
685.2714, 708.9770
685.7535, 717.0451
686.2356, 700.0419
686.7177, 685.0099
687.1998, 682.1799
687.6819, 686.2285
688.1641, 690.7250
688.6462, 694.4951
689.1283, 698.1565
689.6104, 705.4105
690.0925, 711.1039
690.5746, 704.8900
691.0568, 688.1650
691.5389, 673.3284
692.0210, 666.8486
692.5031, 666.8417
692.9852, 669.1401
693.4673, 674.0838
693.9495, 680.5181
694.4316, 693.1493
694.9137, 702.4348
695.3958, 703.7073
695.8779, 699.0836
696.3600, 691.3459
696.8422, 679.7177
697.3243, 671.8318
697.8064, 680.1436
698.2885, 695.4188
698.7706, 693.9042
699.2527, 673.8187
699.7349, 658.5945
700.2170, 665.5673
700.6991, 686.7301
701.1812, 693.8885
701.6633, 675.3261
702.1454, 662.9026
702.6276, 659.4691
703.1097, 659.7825
703.5918, 662.3137
704.0739, 666.0675
704.5560, 669.3669
705.0381, 671.0610
705.5203, 673.2435
706.0024, 680.7312
706.4845, 690.3679
706.9666, 690.0115
707.4487, 677.3180
707.9308, 669.2957
708.4130, 681.5057
708.8951, 708.0386
709.3772, 717.6155
709.8593, 694.4264
710.3414, 677.3305
710.8235, 669.5854
711.3057, 667.0724
711.7878, 670.6451
712.2699, 677.2168
712.7520, 678.1375
713.2341, 665.2743
713.7162, 652.9019
714.1984, 663.1185
714.6805, 688.2485
715.1626, 699.5626
715.6447, 690.6822
716.1268, 679.3296
716.6089, 680.4822
717.0911, 692.2569
717.5732, 701.0812
718.0553, 708.9655
718.5374, 710.5912
719.0195, 700.0806
719.5016, 687.9874
719.9838, 680.8436
720.4659, 678.8287
720.9480, 679.8586
721.4301, 684.7272
721.9122, 689.1946
722.3943, 687.2562
722.8765, 680.6141
723.3586, 674.5374
723.8407, 670.0208
724.3228, 668.4938
724.8049, 671.9554
725.2870, 679.5474
725.7692, 683.4525
726.2513, 681.5726
726.7334, 678.9578
727.2155, 673.8295
727.6976, 669.9559
728.1797, 671.0288
728.6619, 675.9446
729.1440, 679.9408
729.6261, 679.3795
730.1082, 679.1406
730.5903, 688.6667
731.0724, 702.6250
731.5546, 702.7243
732.0367, 685.3238
732.5188, 667.7706
733.0009, 665.3288
733.4830, 675.5700
733.9651, 681.5210
734.4473, 680.3282
734.9294, 679.6960
735.4115, 682.4860
735.8936, 684.2883
736.3757, 681.4201
736.8578, 674.9562
737.3400, 668.7462
737.8221, 662.9243
738.3042, 660.0070
738.7863, 666.4850
739.2684, 676.4208
739.7505, 674.9788
740.2327, 660.5191
740.7148, 647.2694
741.1969, 647.1129
741.6790, 656.5422
742.1611, 658.8922
742.6432, 647.5120
743.1254, 644.7372
743.6075, 663.8503
744.0896, 682.3697
744.5717, 685.9008
745.0538, 678.3469
745.5359, 672.0277
746.0181, 671.6169
746.5002, 670.7930
746.9823, 662.9144
747.4644, 653.5206
747.9465, 651.4025
748.4286, 656.8702
748.9108, 664.6014
749.3929, 671.4431
749.8750, 676.6418
750.3571, 677.9058
750.8392, 674.5617
751.3214, 670.2407
751.8035, 664.9103
752.2856, 659.2561
752.7677, 651.4418
753.2498, 643.8292
753.7319, 642.5229
754.2141, 651.5988
754.6962, 660.2175
755.1783, 665.4340
755.6604, 667.7507
756.1425, 666.4012
756.6246, 662.5323
757.1068, 659.0737
757.5889, 657.5693
758.0710, 657.5181
758.5531, 658.7098
759.0352, 661.0991
759.5173, 660.4936
759.9995, 654.1677
760.4816, 652.9479
760.9637, 668.2996
761.4458, 691.2357
761.9279, 696.2194
762.4100, 672.8343
762.8922, 659.2619
763.3743, 669.5125
763.8564, 681.8386
764.3385, 683.6679
764.8206, 677.2749
765.3027, 667.2413
765.7849, 655.1552
766.2670, 646.3015
766.7491, 648.5998
767.2312, 658.4073
767.7133, 665.0591
768.1954, 667.9662
768.6776, 666.6531
769.1597, 659.5015
769.6418, 651.3152
770.1239, 651.3130
770.6060, 663.5814
771.0881, 668.7389
771.5703, 661.0037
772.0524, 653.2813
772.5345, 646.5988
773.0166, 643.5263
773.4987, 649.9253
773.9808, 666.1113
774.4630, 677.1766
774.9451, 667.5696
775.4272, 652.5223
775.9093, 652.9581
776.3914, 664.6464
776.8735, 672.5757
777.3557, 671.9261
777.8378, 664.7466
778.3199, 651.1379
778.8020, 632.0446
779.2841, 629.6667
779.7662, 655.3277
780.2484, 672.5200
780.7305, 664.9250
781.2126, 651.0440
781.6947, 646.8524
782.1768, 651.3639
782.6589, 654.3163
783.1411, 653.3718
783.6232, 650.2727
784.1053, 643.2922
784.5874, 636.0815
785.0695, 634.5685
785.5516, 638.3996
786.0338, 640.6107
786.5159, 635.0266
786.9980, 627.2725
787.4801, 633.5085
787.9622, 653.7599
788.4443, 661.1172
788.9265, 647.8387
789.4086, 631.5362
789.8907, 624.1869
790.3728, 624.6780
790.8549, 628.1208
791.3370, 637.8092
791.8192, 645.3196
792.3013, 649.1720
792.7834, 651.6938
793.2655, 653.1006
793.7476, 654.4825
794.2297, 658.7277
794.7119, 667.7092
795.1940, 674.0909
795.6761, 669.9244
796.1582, 659.1563
796.6403, 647.5738
797.1224, 636.2641
797.6046, 628.7031
798.0867, 626.7192
798.5688, 627.9537
799.0509, 628.4124
799.5330, 627.8263
800.0151, 628.3650
800.4973, 630.6304
800.9794, 633.0172
801.4615, 636.3193
801.9436, 638.6113
802.4257, 636.1929
802.9078, 628.6463
803.3900, 626.0081
803.8721, 636.9758
804.3542, 647.3695
804.8363, 646.2683
805.3184, 640.0576
805.8005, 640.0770
806.2827, 647.5399
806.7648, 652.9136
807.2469, 647.5457
807.7290, 635.4730
808.2111, 625.4419
808.6932, 617.5145
809.1754, 614.8526
809.6575, 619.4546
810.1396, 623.8184
810.6217, 620.3795
811.1038, 611.0087
811.5859, 608.0825
812.0681, 618.0518
812.5502, 624.9761
813.0323, 626.1423
813.5144, 626.1297
813.9965, 629.4257
814.4786, 633.3922
814.9608, 630.9230
815.4429, 617.7005
815.9250, 605.9171
816.4071, 606.2885
816.8893, 611.5108
817.3714, 611.7366
817.8535, 607.3937
818.3356, 603.3751
818.8177, 601.8950
819.2999, 602.3283
819.7820, 604.1132
820.2641, 607.2599
820.7462, 609.5207
821.2283, 610.0347
821.7104, 612.9386
822.1926, 621.0992
822.6747, 630.9950
823.1568, 638.3340
823.6389, 643.1959
824.1210, 644.5229
824.6031, 639.8029
825.0853, 634.6283
825.5674, 631.0378
826.0495, 627.6226
826.5316, 621.2900
827.0137, 613.1769
827.4958, 609.4274
827.9780, 615.1943
828.4601, 624.1084
828.9422, 629.3264
829.4243, 632.0837
829.9064, 636.9301
830.3885, 643.8715
830.8707, 644.3460
831.3528, 631.1575
831.8349, 612.2868
832.3170, 609.9725
832.7991, 629.1893
833.2813, 639.3253
833.7634, 633.5046
834.2455, 628.3068
834.7276, 634.7338
835.2097, 646.2799
835.6918, 650.2681
836.1740, 644.4884
836.6561, 640.0981
837.1382, 641.5953
837.6203, 641.8923
838.1024, 635.0565
838.5845, 625.7460
839.0667, 620.7335
839.5488, 621.2237
840.0309, 623.2421
840.5130, 623.5920
840.9951, 623.8802
841.4772, 629.7238
841.9594, 637.8934
842.4415, 633.3630
842.9236, 613.0806
843.4057, 596.4176
843.8878, 601.4137
844.3699, 621.2985
844.8521, 626.8718
845.3342, 611.8285
845.8163, 605.7667
846.2984, 618.5591
846.7805, 631.1743
847.2626, 629.3262
847.7448, 619.0480
848.2269, 614.3842
848.7090, 617.7360
849.1911, 621.4485
849.6732, 624.9987
850.1553, 627.6625
850.6375, 629.7964
851.1196, 630.4445
851.6017, 626.7474
852.0838, 618.3691
852.5659, 612.0858
853.0480, 614.6228
853.5302, 621.6049
854.0123, 628.2347
854.4944, 633.5151
854.9765, 632.6373
855.4586, 624.5833
855.9407, 617.9871
856.4229, 621.8476
856.9050, 632.9226
857.3871, 635.1575
857.8692, 625.1832
858.3513, 622.1693
858.8334, 634.6656
859.3156, 644.3933
859.7977, 635.4508
860.2798, 614.2827
860.7619, 601.7906
861.2440, 599.6098
861.7261, 602.2389
862.2083, 616.9524
862.6904, 628.1679
863.1725, 623.1655
863.6546, 610.7585
864.1367, 605.4490
864.6188, 610.5265
865.1010, 616.8437
865.5831, 618.8336
866.0652, 618.5466
866.5473, 617.8320
867.0294, 616.8741
867.5115, 615.5096
867.9937, 613.8998
868.4758, 613.8914
868.9579, 617.6746
869.4400, 623.2750
869.9221, 623.6995
870.4042, 618.5010
870.8864, 616.2737
871.3685, 619.3636
871.8506, 621.8047
872.3327, 618.5821
872.8148, 612.4741
873.2969, 611.7902
873.7791, 620.5977
874.2612, 625.8096
874.7433, 623.9588
875.2254, 622.7471
875.7075, 626.6874
876.1896, 632.0342
876.6718, 633.9371
877.1539, 631.7252
877.6360, 628.6185
878.1181, 624.2341
878.6002, 621.1813
879.0823, 623.1706
879.5645, 626.7275
880.0466, 626.7720
880.5287, 622.7070
881.0108, 616.2569
881.4929, 607.2969
881.9750, 600.0641
882.4572, 603.6688
882.9393, 615.4267
883.4214, 623.2863
883.9035, 625.8448
884.3856, 627.0124
884.8677, 629.1201
885.3499, 630.2977
885.8320, 625.8698
886.3141, 613.8518
886.7962, 610.0782
887.2783, 619.3371
887.7604, 627.0256
888.2426, 625.4601
888.7247, 622.4626
889.2068, 629.0051
889.6889, 644.2769
890.1710, 652.4865
890.6531, 646.9237
891.1353, 641.2720
891.6174, 640.7555
892.0995, 640.1403
892.5816, 634.2377
893.0637, 624.4329
893.5458, 614.5291
894.0280, 604.6284
894.5101, 600.5220
894.9922, 609.9841
895.4743, 625.5802
895.9564, 640.8041
896.4385, 653.0960
896.9207, 656.4109
897.4028, 648.8214
897.8849, 635.6138
898.3670, 618.6542
898.8491, 602.3323
899.3312, 608.3594
899.8134, 636.5571
900.2955, 649.9439
900.7776, 637.9825
901.2597, 620.0659
901.7418, 611.1635
902.2239, 609.8990
902.7061, 610.4212
903.1882, 613.7627
903.6703, 616.4221
904.1524, 619.2094
904.6345, 620.0728
905.1166, 614.9952
905.5988, 608.7511
906.0809, 609.0930
906.5630, 617.4561
907.0451, 624.3508
907.5272, 628.8168
908.0093, 630.6538
908.4915, 626.7222
908.9736, 622.1039
909.4557, 624.2989
909.9378, 632.0181
910.4199, 634.8666
910.9020, 623.7864
911.3842, 614.0295
911.8663, 624.6805
912.3484, 642.8187
912.8305, 646.4874
913.3126, 637.1955
913.7947, 630.2650
914.2769, 632.8064
914.7590, 638.1885
915.2411, 636.0973
915.7232, 628.9948
916.2053, 630.8644
916.6874, 641.6208
917.1696, 647.5020
917.6517, 644.0566
918.1338, 636.2287
918.6159, 627.6429
919.0980, 619.2910
919.5801, 617.8828
920.0623, 626.7554
920.5444, 632.9946
921.0265, 634.1948
921.5086, 634.3267
921.9907, 635.9499
922.4728, 637.9376
922.9550, 637.4822
923.4371, 633.2122
923.9192, 631.8945
924.4013, 637.8379
924.8834, 642.4100
925.3655, 640.8228
925.8477, 637.1735
926.3298, 636.3250
926.8119, 638.1459
927.2940, 638.3306
927.7761, 633.1227
928.2582, 629.0056
928.7404, 630.6254
929.2225, 635.3060
929.7046, 641.1324
930.1867, 647.0277
930.6688, 651.0157
931.1509, 652.2659
931.6331, 653.0312
932.1152, 657.9083
932.5973, 663.1721
933.0794, 658.0635
933.5615, 645.1066
934.0436, 637.2691
934.5258, 638.0280
935.0079, 642.9974
935.4900, 648.7609
935.9721, 654.9594
936.4542, 661.8210
936.9363, 669.9752
937.4185, 667.2780
937.9006, 648.4134
938.3827, 635.3503
938.8648, 642.0193
939.3469, 658.3852
939.8290, 666.4799
940.3112, 664.7289
940.7933, 664.2980
941.2754, 668.0550
941.7575, 668.6548
942.2396, 657.6115
942.7217, 648.4462
943.2039, 655.0967
943.6860, 673.5746
944.1681, 685.2139
944.6502, 683.4235
945.1323, 682.5292
945.6144, 689.9949
946.0966, 694.7030
946.5787, 685.5193
947.0608, 670.3540
947.5429, 662.0402
948.0250, 663.3279
948.5071, 669.0306
948.9893, 678.9452
949.4714, 689.5006
949.9535, 700.8256
950.4356, 709.4766
950.9177, 706.7217
951.3998, 695.3048
951.8820, 691.1668
952.3641, 704.4359
952.8462, 720.6970
953.3283, 721.8852
953.8104, 712.6276
954.2925, 698.7664
954.7747, 683.6837
955.2568, 683.2822
955.7389, 703.0462
956.2210, 726.5037
956.7031, 736.3028
957.1852, 735.6009
957.6674, 734.2187
958.1495, 732.0421
958.6316, 740.2218
959.1137, 762.3032
959.5958, 784.2206
960.0779, 797.4886
960.5601, 804.6166
961.0422, 810.8504
961.5243, 815.9368
962.0064, 821.5270
962.4885, 826.8948
962.9706, 834.3578
963.4528, 844.0441
963.9349, 856.7571
964.4170, 873.4059
964.8991, 893.8996
965.3812, 916.7296
965.8633, 942.8096
966.3455, 969.7325
966.8276, 997.1108
967.3097, 1025.654
967.7918, 1046.544
968.2739, 1072.753
968.7560, 1132.232
969.2382, 1231.137
969.7203, 1307.977
970.2024, 1318.270
970.6845, 1335.280
971.1666, 1379.620
971.6487, 1457.852
972.1309, 1571.061
972.6130, 1723.341
973.0951, 1926.044
973.5772, 2187.766
974.0593, 2485.878
974.5414, 2817.625
975.0236, 3169.263
975.5057, 3526.529
975.9878, 3892.167
976.4699, 4268.361
976.9520, 4658.858
977.4341, 5079.788
977.9163, 5542.628
978.3984, 6044.554
978.8805, 6581.170
979.3626, 7151.037
979.8447, 7755.380
980.3268, 8390.676
980.8090, 9034.222
981.2911, 9678.646
981.7732, 10321.31
982.2553, 11008.04
982.7374, 11690.46
983.2195, 12193.47
983.7017, 12507.07
984.1838, 12424.59
984.6659, 11889.14
985.1480, 11062.29
985.6301, 10031.76
986.1122, 8879.240
986.5944, 7802.782
987.0765, 6795.097
987.5586, 5896.756
988.0407, 5118.908
988.5228, 4425.265
989.0049, 3800.283
989.4871, 3252.269
989.9692, 2786.370
990.4513, 2403.059
990.9334, 2090.144
991.4155, 1860.639
991.8976, 1672.911
992.3798, 1534.396
992.8619, 1422.394
993.3440, 1329.092
993.8261, 1251.938
994.3082, 1188.740
994.7903, 1141.840
995.2725, 1095.501
995.7546, 1042.430
996.2367, 999.5015
996.7188, 973.2938
997.2009, 956.1279
997.6830, 946.9640
998.1652, 941.7025
998.6473, 929.9491
999.1294, 908.7814
999.6115, 885.1537
1000.094, 852.3694
1000.576, 826.9882
1001.058, 824.5221
1001.540, 829.8120
1002.022, 821.6403
1002.504, 800.8931
1002.986, 789.0435
1003.468, 803.2656
1003.951, 811.6110
1004.433, 786.7885
1004.915, 757.0140
1005.397, 749.7829
1005.879, 757.5174
1006.361, 761.5302
1006.843, 757.1367
1007.325, 753.5382
1007.807, 759.9614
1008.290, 766.7139
1008.772, 765.1171
1009.254, 757.5883
1009.736, 744.1821
1010.218, 728.2937
1010.700, 720.1213
1011.182, 724.3234
1011.664, 730.2853
1012.147, 727.6076
1012.629, 719.5806
1013.111, 709.2784
1013.593, 698.5624
1014.075, 692.3371
1014.557, 691.1807
1015.039, 691.7784
1015.521, 692.1143
1016.003, 692.3891
1016.486, 692.7850
1016.968, 693.3892
1017.450, 695.9988
1017.932, 699.6362
1018.414, 696.2109
1018.896, 683.5070
1019.378, 673.0451
1019.860, 676.1097
1020.343, 686.6791
1020.825, 688.7761
1021.307, 683.2532
1021.789, 679.1265
1022.271, 677.1915
1022.753, 676.5188
1023.235, 676.8364
1023.717, 677.0825
1024.199, 675.4725
1024.682, 672.8203
1025.164, 675.0281
1025.646, 682.7427
1026.128, 687.0135
1026.610, 686.2128
1027.092, 683.4214
1027.574, 679.7932
1028.056, 676.6617
1028.538, 676.6283
1029.021, 679.8134
1029.503, 681.1137
1029.985, 679.8708
1030.467, 679.5504
1030.949, 681.6184
1031.431, 682.6422
1031.913, 679.2120
1032.395, 673.9114
1032.878, 673.8972
1033.360, 680.8907
1033.842, 685.1277
1034.324, 684.9228
1034.806, 685.7839
1035.288, 689.5468
1035.770, 694.6746
1036.252, 701.6613
1036.734, 708.6793
1037.217, 706.9843
1037.699, 687.5757
1038.181, 679.8724
1038.663, 694.8929
1039.145, 704.7506
1039.627, 694.5745
1040.109, 679.0506
1040.591, 673.6445
1041.073, 677.5726
1041.556, 681.7808
1042.038, 685.6773
1042.520, 690.7892
1043.002, 700.3181
1043.484, 707.3939
1043.966, 708.0401
1044.448, 705.2735
1044.930, 701.8908
1045.413, 697.9955
1045.895, 696.9938
1046.377, 709.8483
1046.859, 709.9439
1047.341, 675.6972
1047.823, 646.3025
1048.305, 647.4338
1048.787, 666.5697
1049.270, 684.5983
1049.752, 700.0279
1050.234, 712.6959
1050.716, 729.1158
1051.198, 733.8781
1051.680, 709.3452
1052.162, 684.9549
1052.644, 683.1705
1053.126, 696.5623
1053.609, 707.8120
1054.091, 713.8247
1054.573, 723.5488
1055.055, 749.8831
1055.537, 766.3437
1056.019, 754.1211
1056.501, 735.6132
1056.983, 731.1682
1057.465, 736.2516
1057.948, 734.3241
1058.430, 719.6132
1058.912, 711.4196
1059.394, 718.4366
1059.876, 729.9172
1060.358, 746.8781
1060.840, 761.0925
1061.322, 760.7620
1061.805, 750.7515
1062.287, 748.7352
1062.769, 761.6563
1063.251, 772.9448
1063.733, 775.2571
1064.215, 775.6224
1064.697, 777.7043
1065.179, 780.2151
1065.661, 780.1170
1066.144, 778.7348
1066.626, 782.2018
1067.108, 794.3900
1067.590, 805.3292
1068.072, 811.3658
1068.554, 814.4307
1069.036, 812.1631
1069.518, 809.9843
1070.001, 816.3821
1070.483, 829.9426
1070.965, 839.4845
1071.447, 839.2906
1071.929, 839.4340
1072.411, 843.3556
1072.893, 850.3607
1073.375, 861.2569
1073.858, 874.1254
1074.340, 888.2568
1074.822, 902.2997
1075.304, 911.2372
1075.786, 911.0850
1076.268, 909.9318
1076.750, 911.6413
1077.232, 913.6981
1077.714, 910.6063
1078.197, 908.6021
1078.679, 921.4476
1079.161, 947.1641
1079.643, 961.5868
1080.125, 949.8874
1080.607, 935.7800
1081.089, 927.0165
1081.571, 923.6354
1082.053, 930.7767
1082.536, 940.6252
1083.018, 938.3790
1083.500, 924.5403
1083.982, 920.2426
1084.464, 944.2083
1084.946, 961.2214
1085.428, 946.2144
1085.910, 926.8601
1086.393, 925.7335
1086.875, 933.9364
1087.357, 935.9933
1087.839, 929.9391
1088.321, 923.9566
1088.803, 923.4465
1089.285, 919.9118
1089.767, 902.8784
1090.250, 888.2828
1090.732, 893.5761
1091.214, 906.6617
1091.696, 908.0813
1092.178, 895.7236
1092.660, 881.1258
1093.142, 863.3630
1093.624, 851.5280
1094.106, 856.1711
1094.589, 860.7919
1095.071, 851.1634
1095.553, 835.1052
1096.035, 824.7363
1096.517, 821.5552
1096.999, 820.7105
1097.481, 823.1699
1097.963, 824.2260
1098.445, 824.3574
1098.928, 820.5615
1099.410, 806.6798
1099.892, 789.8763
1100.374, 780.7760
1100.856, 780.0262
1101.338, 779.9073
1101.820, 781.5703
1102.302, 779.2137
1102.785, 765.7628
1103.267, 754.0527
1103.749, 753.9177
1104.231, 758.7062
1104.713, 759.9240
1105.195, 756.7708
1105.677, 750.5523
1106.159, 736.0181
1106.641, 726.6102
1107.124, 726.1266
1107.606, 729.5841
1108.088, 736.0351
1108.570, 743.9758
1109.052, 755.2361
1109.534, 768.4900
1110.016, 767.9389
1110.498, 733.2943
1110.980, 714.1348
1111.463, 727.5961
1111.945, 741.9208
1112.427, 744.7853
1112.909, 740.5848
1113.391, 732.5297
1113.873, 721.2844
1114.355, 713.8688
1114.837, 713.0139
1115.320, 711.3948
1115.802, 707.1133
1116.284, 704.5030
1116.766, 703.4310
1117.248, 706.5334
1117.730, 721.0062
1118.212, 743.1927
1118.694, 747.3949
1119.177, 717.6638
1119.659, 707.3625
1120.141, 730.0468
1120.623, 746.6960
1121.105, 741.6191
1121.587, 729.2604
1122.069, 723.6462
1122.551, 722.2377
1123.033, 713.1495
1123.516, 690.7018
1123.998, 681.1161
1124.480, 687.7559
1124.962, 698.3948
1125.444, 712.0744
1125.926, 721.6439
1126.408, 719.7760
1126.890, 710.5930
1127.372, 705.3542
1127.855, 703.6237
1128.337, 711.8464
1128.819, 733.2567
1129.301, 742.6064
1129.783, 730.8029
1130.265, 719.7341
1130.747, 726.8824
1131.229, 742.7657
1131.712, 745.3481
1132.194, 735.3584
1132.676, 735.8489
1133.158, 746.8434
1133.640, 758.7648
1134.122, 769.5740
1134.604, 777.7472
1135.086, 782.0576
1135.568, 784.7310
1136.051, 790.9908
1136.533, 798.5394
1137.015, 793.2656
1137.497, 778.4041
1137.979, 774.7465
1138.461, 784.9984
1138.943, 801.1905
1139.425, 819.5662
1139.907, 833.0679
1140.390, 828.0511
1140.872, 816.1315
1141.354, 826.5203
1141.836, 850.1683
1142.318, 862.7928
1142.800, 862.9328
1143.282, 857.9781
1143.764, 851.3173
1144.247, 848.2618
1144.729, 855.9370
1145.211, 866.6858
1145.693, 872.3983
1146.175, 873.3558
1146.657, 866.0732
1147.139, 855.1708
1147.621, 854.1324
1148.104, 865.0714
1148.586, 871.9201
1149.068, 863.6452
1149.550, 849.2460
1150.032, 830.5269
1150.514, 813.9652
1150.996, 806.9781
1151.478, 806.4301
1151.960, 808.7286
1152.443, 811.5858
1152.925, 807.4130
1153.407, 787.5882
1153.889, 773.3395
1154.371, 784.0864
1154.853, 792.4697
1155.335, 772.9474
1155.817, 746.8051
1156.299, 745.3586
1156.782, 762.7164
1157.264, 762.6714
1157.746, 729.1473
1158.228, 705.2216
1158.710, 702.6343
1159.192, 706.3090
1159.674, 717.9489
1160.156, 727.4633
1160.639, 725.6985
1161.121, 715.5099
1161.603, 704.4136
1162.085, 690.8383
1162.567, 683.9977
1163.049, 687.4095
1163.531, 691.2281
1164.013, 695.9346
1164.495, 696.8520
1164.978, 689.6851
1165.460, 678.7347
1165.942, 670.7113
1166.424, 665.6302
1166.906, 666.0394
1167.388, 674.3196
1167.870, 675.3304
1168.352, 665.8143
1168.834, 655.5822
1169.317, 648.4558
1169.799, 645.2275
1170.281, 647.6638
1170.763, 653.6557
1171.245, 655.3202
1171.727, 652.9301
1172.209, 648.9472
1172.691, 643.8284
1173.174, 641.7134
1173.656, 643.8165
1174.138, 646.4211
1174.620, 646.3321
1175.102, 646.0389
1175.584, 653.7449
1176.066, 662.8240
1176.548, 651.1914
1177.031, 627.4005
1177.513, 621.6307
1177.995, 635.7720
1178.477, 646.0574
1178.959, 640.0889
1179.441, 628.7090
1179.923, 616.8181
1180.405, 609.7741
1180.887, 619.6336
1181.370, 633.9930
1181.852, 631.2416
1182.334, 617.3947
1182.816, 616.2524
1183.298, 634.5356
1183.780, 647.6555
1184.262, 638.6703
1184.744, 627.7569
1185.226, 622.9618
1185.709, 621.7991
1186.191, 627.2394
1186.673, 632.3190
1187.155, 622.4695
1187.637, 598.4869
1188.119, 587.7382
1188.601, 603.0609
1189.083, 617.7444
1189.566, 635.0903
1190.048, 643.6951
1190.530, 633.3820
1191.012, 619.0457
1191.494, 613.8527
1191.976, 615.8486
1192.458, 618.5997
1192.940, 622.7161
1193.422, 624.7750
1193.905, 624.6140
1194.387, 622.8060
1194.869, 619.2202
1195.351, 614.4338
1195.833, 607.8708
1196.315, 603.4467
1196.797, 609.5207
1197.279, 623.2601
1197.761, 623.7347
1198.244, 612.5947
1198.726, 612.2959
1199.208, 624.4452
1199.690, 633.7580
1200.172, 634.1375
1200.654, 628.9777
1201.136, 620.1790
1201.618, 610.7221
1202.101, 605.8796
1202.583, 603.8389
1203.065, 599.3791
1203.547, 595.1173
1204.029, 600.0673
1204.511, 613.8632
1204.993, 625.7471
1205.475, 630.6833
1205.958, 630.4607
1206.440, 624.4236
1206.922, 615.8859
1207.404, 603.0720
1207.886, 592.6010
1208.368, 593.4677
1208.850, 602.6514
1209.332, 612.2161
1209.814, 621.0143
1210.297, 624.9370
1210.779, 621.5588
1211.261, 615.3501
1211.743, 603.4953
1212.225, 593.4001
1212.707, 589.2324
1213.189, 589.0686
1213.671, 591.3007
1214.153, 595.6327
1214.636, 599.3749
1215.118, 601.3004
1215.600, 607.0435
1216.082, 617.8945
1216.564, 629.0807
1217.046, 640.3503
1217.528, 645.5651
1218.010, 638.3851
1218.493, 627.4047
1218.975, 632.7161
1219.457, 650.0420
1219.939, 647.2590
1220.421, 627.7180
1220.903, 612.2703
1221.385, 604.1354
1221.867, 601.5114
1222.349, 603.4521
1222.832, 607.1957
1223.314, 610.6430
1223.796, 613.7857
1224.278, 619.7159
1224.760, 623.0743
1225.242, 610.8326
1225.724, 592.0314
1226.206, 586.8677
1226.688, 596.3133
1227.171, 604.1757
1227.653, 604.0367
1228.135, 601.6310
1228.617, 597.5810
1229.099, 594.4196
1229.581, 594.3177
1230.063, 594.9031
1230.545, 593.1379
1231.028, 590.6542
1231.510, 591.7702
1231.992, 597.2673
1232.474, 601.5073
1232.956, 606.9190
1233.438, 605.1603
1233.920, 590.5310
1234.402, 580.2562
1234.885, 582.4666
1235.367, 589.3011
1235.849, 592.5911
1236.331, 594.2621
1236.813, 602.5003
1237.295, 616.4941
1237.777, 616.2736
1238.259, 603.0875
1238.741, 600.9183
1239.224, 613.1978
1239.706, 616.7527
1240.188, 598.6218
1240.670, 581.3883
1241.152, 598.4694
1241.634, 623.4658
1242.116, 610.0268
1242.598, 582.9589
1243.080, 583.4134
1243.563, 602.6722
1244.045, 612.1192
1244.527, 607.0966
1245.009, 606.2852
1245.491, 621.9661
1245.973, 632.0414
1246.455, 623.9281
1246.937, 612.0336
1247.420, 601.3994
1247.902, 592.6563
1248.384, 584.7742
1248.866, 579.4399
1249.348, 582.4721
1249.830, 595.5786
1250.312, 600.4350
1250.794, 593.0657
1251.276, 588.9390
1251.759, 590.4451
1252.241, 593.3793
1252.723, 596.2433
1253.205, 598.6879
1253.687, 600.3633
1254.169, 601.3714
1254.651, 602.0186
1255.133, 602.2573
1255.615, 601.7681
1256.098, 600.6488
1256.580, 599.9966
1257.062, 599.4670
1257.544, 594.6706
1258.026, 583.5174
1258.508, 576.9526
1258.990, 590.5388
1259.472, 605.9099
1259.955, 605.6444
1260.437, 599.3685
1260.919, 595.9910
1261.401, 594.5145
1261.883, 591.2952
1262.365, 586.5076
1262.847, 584.0626
1263.329, 584.0264
1263.812, 588.2071
1264.294, 603.4195
1264.776, 613.1797
1265.258, 610.2714
1265.740, 606.2504
1266.222, 610.3237
1266.704, 614.7971
1267.186, 605.3036
1267.668, 584.5497
1268.151, 578.6323
1268.633, 587.6238
1269.115, 593.5170
1269.597, 594.7784
1270.079, 590.5232
1270.561, 580.8599
1271.043, 570.3551
1271.525, 561.1984
1272.007, 559.6197
1272.490, 581.0778
1272.972, 608.2952
1273.454, 617.3406
1273.936, 615.5598
1274.418, 614.8044
1274.900, 613.9572
1275.382, 603.9310
1275.864, 583.8230
1276.347, 571.3463
1276.829, 578.3236
1277.311, 583.9775
1277.793, 580.6785
1278.275, 578.0076
1278.757, 582.9128
1279.239, 587.1091
1279.721, 581.6614
1280.203, 572.6133
1280.686, 574.3420
1281.168, 587.0452
1281.650, 597.0772
1282.132, 604.7148
1282.614, 604.5675
1283.096, 595.9611
##END=



