##NAMES=Staurolite
##RRUFFID=R080120
##IDEAL CHEMISTRY=Fe^2+^_2_Al_9_Si_4_O_23_(OH)
##LOCALITY=Bahia, Brazil
##OWNER=RRUFF
##SOURCE=Shinichi Kihara
##DESCRIPTION=Brown cruciform twins
##STATUS=The identification of this mineral has been confirmed by single-crystal X-ray diffraction.
##URL=rruff.info/R080120
93.78320, 97.62463
94.26532, 98.91347
94.74744, 99.20602
95.22955, 98.24577
95.71167, 96.94005
96.19379, 96.21796
96.67590, 96.50766
97.15802, 96.61484
97.64014, 96.41624
98.12225, 95.93022
98.60437, 95.13950
99.08649, 93.96972
99.56860, 92.67527
100.0507, 91.56763
100.5328, 90.43414
101.0150, 89.55952
101.4971, 89.21591
101.9792, 89.41101
102.4613, 89.79895
102.9434, 90.48413
103.4255, 91.17907
103.9077, 91.66901
104.3898, 91.88245
104.8719, 91.89297
105.3540, 91.87870
105.8361, 92.01958
106.3182, 91.76933
106.8004, 90.86840
107.2825, 89.61384
107.7646, 88.31568
108.2467, 87.14461
108.7288, 86.09856
109.2109, 85.21335
109.6931, 84.39149
110.1752, 83.80630
110.6573, 83.55673
111.1394, 83.59538
111.6215, 83.82467
112.1036, 84.19941
112.5858, 84.76354
113.0679, 85.00500
113.5500, 84.66438
114.0321, 84.21211
114.5142, 83.93999
114.9964, 83.89479
115.4785, 84.04914
115.9606, 84.56420
116.4427, 85.41940
116.9248, 85.83139
117.4069, 85.25710
117.8891, 84.13646
118.3712, 83.38653
118.8533, 83.28044
119.3354, 83.45936
119.8175, 83.58273
120.2996, 83.65458
120.7818, 83.70730
121.2639, 83.79661
121.7460, 83.92793
122.2281, 83.93764
122.7102, 83.62208
123.1923, 83.28715
123.6745, 83.09961
124.1566, 83.08550
124.6387, 83.15160
125.1208, 83.14922
125.6029, 82.98436
126.0850, 82.95970
126.5672, 83.25746
127.0493, 83.59274
127.5314, 83.72775
128.0135, 83.56982
128.4956, 83.20307
128.9777, 82.85654
129.4599, 82.50708
129.9420, 82.21304
130.4241, 81.96221
130.9062, 81.77199
131.3883, 81.66430
131.8705, 81.65019
132.3526, 81.73161
132.8347, 81.91553
133.3168, 82.33070
133.7989, 82.69905
134.2810, 82.83356
134.7632, 82.78407
135.2453, 82.82528
135.7274, 83.20771
136.2095, 83.81345
136.6916, 84.20152
137.1737, 84.14346
137.6559, 83.98485
138.1380, 84.20394
138.6201, 84.93204
139.1022, 85.41032
139.5843, 84.70911
140.0664, 83.48862
140.5486, 82.72171
141.0307, 83.04196
141.5128, 84.06327
141.9949, 84.63329
142.4770, 84.52845
142.9591, 84.26443
143.4413, 83.99975
143.9234, 83.76198
144.4055, 83.59102
144.8876, 83.52237
145.3697, 83.55640
145.8518, 83.62315
146.3340, 83.87617
146.8161, 84.02342
147.2982, 83.94360
147.7803, 83.66578
148.2624, 83.28688
148.7445, 82.87123
149.2267, 82.35101
149.7088, 82.12183
150.1909, 82.57803
150.6730, 82.95154
151.1551, 82.65866
151.6372, 81.69421
152.1194, 80.63301
152.6015, 80.20417
153.0836, 80.77039
153.5657, 81.04807
154.0478, 80.91779
154.5299, 80.55802
155.0121, 80.08146
155.4942, 79.50376
155.9763, 78.95255
156.4584, 78.70483
156.9405, 78.80447
157.4227, 78.73370
157.9048, 78.20936
158.3869, 77.42246
158.8690, 76.77205
159.3511, 76.36368
159.8332, 76.12907
160.3154, 76.01331
160.7975, 76.02345
161.2796, 75.97231
161.7617, 75.69624
162.2438, 75.21336
162.7259, 74.77444
163.2081, 74.33869
163.6902, 74.06531
164.1723, 74.21492
164.6544, 74.80392
165.1365, 75.30774
165.6186, 75.06104
166.1008, 73.86156
166.5829, 72.82767
167.0650, 72.05650
167.5471, 71.55900
168.0292, 71.41829
168.5113, 71.64258
168.9935, 72.10749
169.4756, 72.68372
169.9577, 73.72484
170.4398, 74.14301
170.9219, 73.51344
171.4040, 72.52973
171.8862, 71.74818
172.3683, 71.37749
172.8504, 71.26037
173.3325, 71.01928
173.8146, 70.43571
174.2967, 69.98952
174.7789, 69.77335
175.2610, 69.67353
175.7431, 69.58237
176.2252, 69.45444
176.7073, 69.27126
177.1894, 68.96255
177.6716, 68.27862
178.1537, 67.78228
178.6358, 67.71835
179.1179, 67.90901
179.6000, 68.00471
180.0821, 67.82035
180.5643, 67.44573
181.0464, 67.16672
181.5285, 67.01391
182.0106, 66.88738
182.4927, 66.76575
182.9749, 66.64025
183.4570, 66.45776
183.9391, 66.13880
184.4212, 65.78430
184.9033, 65.58579
185.3854, 65.56374
185.8676, 65.66846
186.3497, 65.96885
186.8318, 66.47614
187.3139, 66.78248
187.7960, 66.58701
188.2781, 66.12940
188.7603, 65.62743
189.2424, 65.07583
189.7245, 64.59002
190.2066, 64.33602
190.6887, 64.35703
191.1708, 64.45882
191.6530, 64.67844
192.1351, 64.89616
192.6172, 64.99252
193.0993, 64.91457
193.5814, 64.73827
194.0635, 64.61994
194.5457, 64.60745
195.0278, 64.55640
195.5099, 64.40915
195.9920, 64.22730
196.4741, 64.05395
196.9562, 63.90495
197.4384, 63.80340
197.9205, 63.82590
198.4026, 64.11988
198.8847, 64.34024
199.3668, 64.51797
199.8489, 64.58033
200.3311, 64.36909
200.8132, 63.79214
201.2953, 63.01593
201.7774, 62.70575
202.2595, 63.59017
202.7416, 64.15135
203.2238, 63.97142
203.7059, 63.43503
204.1880, 63.11586
204.6701, 63.33514
205.1522, 63.94043
205.6344, 64.24537
206.1165, 64.07621
206.5986, 63.84816
207.0807, 63.52982
207.5628, 63.21809
208.0449, 63.12148
208.5271, 63.38521
209.0092, 63.89167
209.4913, 64.14822
209.9734, 64.01359
210.4555, 63.85973
210.9376, 63.81525
211.4198, 63.85331
211.9019, 63.89513
212.3840, 63.89030
212.8661, 63.87627
213.3482, 63.94745
213.8303, 64.11187
214.3125, 64.33549
214.7946, 64.66625
215.2767, 65.07145
215.7588, 65.36001
216.2409, 65.42110
216.7230, 65.32220
217.2052, 65.20348
217.6873, 65.02738
218.1694, 64.91713
218.6515, 64.96175
219.1336, 65.15971
219.6157, 65.47750
220.0979, 66.05049
220.5800, 66.64368
221.0621, 66.99490
221.5442, 67.04793
222.0263, 66.97285
222.5084, 66.93710
222.9906, 66.95074
223.4727, 66.88422
223.9548, 66.41734
224.4369, 66.03239
224.9190, 66.20700
225.4011, 67.05545
225.8833, 68.01498
226.3654, 68.37444
226.8475, 67.99529
227.3296, 67.67435
227.8117, 67.59729
228.2938, 67.61708
228.7760, 67.67210
229.2581, 67.74505
229.7402, 67.82034
230.2223, 67.89940
230.7044, 68.02493
231.1866, 68.01093
231.6687, 67.52445
232.1508, 67.11983
232.6329, 67.22938
233.1150, 67.89702
233.5971, 68.75378
234.0793, 69.29089
234.5614, 69.40293
235.0435, 69.43526
235.5256, 69.28110
236.0077, 69.14700
236.4898, 69.19389
236.9720, 69.43224
237.4541, 69.72678
237.9362, 69.88362
238.4183, 69.80269
238.9004, 69.82722
239.3825, 69.90388
239.8647, 70.09986
240.3468, 70.60746
240.8289, 71.37547
241.3110, 72.03251
241.7931, 72.08249
242.2752, 71.20024
242.7574, 70.62920
243.2395, 70.41318
243.7216, 70.42068
244.2037, 70.71914
244.6858, 71.24108
245.1679, 71.66319
245.6501, 71.57877
246.1322, 70.76537
246.6143, 70.37077
247.0964, 70.78469
247.5785, 71.27659
248.0606, 71.32594
248.5428, 70.91284
249.0249, 70.38969
249.5070, 70.09272
249.9891, 70.06421
250.4712, 70.00822
250.9533, 69.82441
251.4355, 69.69146
251.9176, 69.73938
252.3997, 69.96814
252.8818, 70.29792
253.3639, 70.70960
253.8460, 71.19228
254.3282, 71.44485
254.8103, 71.35794
255.2924, 71.13605
255.7745, 70.89103
256.2566, 70.63147
256.7387, 70.34363
257.2209, 69.96458
257.7030, 69.55230
258.1851, 69.38190
258.6672, 69.71787
259.1493, 70.08116
259.6314, 70.09345
260.1136, 69.78884
260.5957, 69.51447
261.0778, 69.50316
261.5599, 69.66506
262.0420, 69.69810
262.5241, 69.55797
263.0063, 69.33804
263.4884, 69.13687
263.9705, 68.93762
264.4526, 68.56385
264.9347, 67.79421
265.4168, 66.89142
265.8990, 66.38145
266.3811, 66.44005
266.8632, 66.51353
267.3453, 66.13371
267.8275, 65.36525
268.3096, 64.72102
268.7917, 64.46735
269.2738, 64.35754
269.7559, 64.01370
270.2380, 63.37255
270.7202, 62.81492
271.2023, 62.65880
271.6844, 62.84987
272.1665, 63.03901
272.6486, 63.24281
273.1307, 63.28248
273.6129, 62.92358
274.0950, 62.16989
274.5771, 61.50274
275.0592, 61.23764
275.5413, 61.33223
276.0234, 61.55611
276.5056, 61.93653
276.9877, 62.36822
277.4698, 62.82215
277.9519, 63.27369
278.4340, 63.60462
278.9161, 63.59981
279.3983, 63.37600
279.8804, 63.48180
280.3625, 64.07607
280.8446, 64.82001
281.3267, 65.52277
281.8088, 66.19487
282.2910, 66.86142
282.7731, 67.44731
283.2552, 68.03901
283.7373, 68.98472
284.2194, 70.53205
284.7015, 71.96571
285.1837, 72.80434
285.6658, 73.36452
286.1479, 74.13452
286.6300, 75.38316
287.1121, 76.92136
287.5942, 78.30538
288.0764, 79.44551
288.5585, 80.64558
289.0406, 82.02033
289.5227, 83.50257
290.0048, 85.04225
290.4869, 86.65793
290.9691, 88.25545
291.4512, 89.59935
291.9333, 90.50476
292.4154, 91.75108
292.8975, 93.75704
293.3796, 96.04485
293.8618, 98.28323
294.3439, 100.3884
294.8260, 102.4433
295.3081, 104.4826
295.7902, 106.4288
296.2723, 108.7138
296.7545, 111.8677
297.2366, 115.0605
297.7187, 117.6530
298.2008, 119.6599
298.6829, 121.7618
299.1650, 124.7527
299.6472, 128.7590
300.1293, 132.5141
300.6114, 135.8635
301.0935, 138.9782
301.5756, 141.9471
302.0577, 144.7381
302.5399, 147.3013
303.0220, 149.7363
303.5041, 152.0047
303.9862, 153.2506
304.4683, 152.9088
304.9504, 152.0896
305.4326, 151.5330
305.9147, 150.8049
306.3968, 149.0364
306.8789, 145.5584
307.3610, 140.7206
307.8431, 136.0575
308.3253, 131.6013
308.8074, 127.2960
309.2895, 123.1668
309.7716, 119.1277
310.2537, 115.0842
310.7358, 110.9514
311.2180, 106.8906
311.7001, 103.3208
312.1822, 100.3703
312.6643, 97.58517
313.1464, 94.84258
313.6285, 92.20950
314.1107, 89.67386
314.5928, 87.24351
315.0749, 85.04920
315.5570, 83.36561
316.0392, 82.36136
316.5213, 81.25688
317.0034, 79.77237
317.4855, 78.31339
317.9676, 77.11416
318.4497, 76.18632
318.9319, 75.38844
319.4140, 74.61871
319.8961, 73.89098
320.3782, 73.06581
320.8603, 71.83337
321.3424, 70.81144
321.8246, 70.36082
322.3067, 70.32486
322.7888, 70.29140
323.2709, 69.94759
323.7530, 69.34539
324.2351, 68.88395
324.7173, 68.64201
325.1994, 68.44022
325.6815, 68.23136
326.1636, 68.01875
326.6457, 67.81207
327.1278, 67.62183
327.6100, 67.42772
328.0921, 67.14339
328.5742, 66.62891
329.0563, 66.33904
329.5384, 66.50497
330.0205, 66.84120
330.5027, 67.14080
330.9848, 67.34392
331.4669, 67.44299
331.9490, 67.37521
332.4311, 67.06756
332.9132, 66.91592
333.3954, 67.06155
333.8775, 67.32446
334.3596, 67.66150
334.8417, 68.04744
335.3238, 68.41303
335.8059, 68.67217
336.2881, 68.82346
336.7702, 69.02427
337.2523, 69.32236
337.7344, 69.62273
338.2165, 69.97229
338.6986, 70.29499
339.1808, 70.42471
339.6629, 70.22224
340.1450, 69.75742
340.6271, 69.27256
341.1092, 68.71967
341.5913, 68.24583
342.0735, 67.85922
342.5556, 67.58672
343.0377, 67.54340
343.5198, 67.85797
344.0019, 68.15591
344.4840, 67.72063
344.9662, 66.34126
345.4483, 65.14615
345.9304, 64.60773
346.4125, 64.30994
346.8946, 64.01482
347.3767, 63.67981
347.8589, 63.33128
348.3410, 62.98740
348.8231, 62.64729
349.3052, 62.32948
349.7873, 62.03186
350.2694, 61.76374
350.7516, 61.53306
351.2337, 61.33502
351.7158, 61.15444
352.1979, 61.06351
352.6800, 60.98777
353.1621, 60.60548
353.6443, 59.70620
354.1264, 58.97609
354.6085, 59.03671
355.0906, 59.48358
355.5727, 59.67345
356.0548, 59.27591
356.5370, 58.67602
357.0191, 58.41465
357.5012, 58.52606
357.9833, 58.60486
358.4654, 58.38610
358.9475, 58.11291
359.4297, 58.14043
359.9118, 58.58346
360.3939, 58.92600
360.8760, 58.67983
361.3581, 57.96349
361.8402, 57.36309
362.3224, 56.99183
362.8045, 56.81808
363.2866, 56.81837
363.7687, 56.97882
364.2508, 57.23096
364.7329, 57.78917
365.2151, 58.34874
365.6972, 58.28556
366.1793, 57.45325
366.6614, 56.56977
367.1436, 56.16451
367.6257, 56.14190
368.1078, 56.20290
368.5899, 56.34589
369.0720, 56.53149
369.5541, 56.80157
370.0363, 57.12455
370.5184, 57.25285
371.0005, 56.98024
371.4826, 56.52349
371.9647, 56.40348
372.4468, 56.78088
372.9290, 57.05158
373.4111, 56.88281
373.8932, 56.46700
374.3753, 56.16399
374.8574, 56.07555
375.3395, 56.05561
375.8217, 55.86354
376.3038, 55.44622
376.7859, 55.36515
377.2680, 56.09681
377.7501, 56.89822
378.2322, 57.10020
378.7144, 56.69682
379.1965, 56.08883
379.6786, 55.49442
380.1607, 54.95044
380.6428, 54.77946
381.1249, 55.29412
381.6071, 55.77861
382.0892, 55.93309
382.5713, 55.88607
383.0534, 55.90960
383.5355, 56.12854
384.0176, 56.42094
384.4998, 56.51857
384.9819, 56.21141
385.4640, 56.04948
385.9461, 56.17458
386.4282, 56.36901
386.9103, 56.46144
387.3925, 56.42085
387.8746, 56.28851
388.3567, 56.08691
388.8388, 55.78276
389.3209, 55.66154
389.8030, 55.76452
390.2852, 55.97400
390.7673, 56.39113
391.2494, 56.87091
391.7315, 57.12070
392.2136, 56.95161
392.6957, 56.49565
393.1779, 56.26673
393.6600, 56.45964
394.1421, 56.61744
394.6242, 56.68763
395.1063, 56.71365
395.5884, 56.68862
396.0706, 56.63012
396.5527, 56.64357
397.0348, 56.92917
397.5169, 57.61931
397.9990, 58.04486
398.4811, 58.02005
398.9633, 57.88630
399.4454, 57.72655
399.9275, 57.56523
400.4096, 57.40795
400.8917, 57.23000
401.3738, 57.07490
401.8560, 57.17459
402.3381, 57.75542
402.8202, 58.15540
403.3023, 58.00825
403.7844, 57.68328
404.2665, 57.59529
404.7487, 57.88120
405.2308, 58.23338
405.7129, 58.21465
406.1950, 57.79616
406.6771, 57.55462
407.1592, 57.69862
407.6414, 57.94635
408.1235, 58.14519
408.6056, 58.27891
409.0877, 58.29752
409.5698, 58.00502
410.0519, 57.60044
410.5341, 57.62476
411.0162, 58.20271
411.4983, 58.77237
411.9804, 58.88579
412.4625, 58.79044
412.9446, 58.92040
413.4268, 59.49024
413.9089, 60.04988
414.3910, 60.15999
414.8731, 59.91686
415.3553, 59.80635
415.8374, 60.03526
416.3195, 60.37354
416.8016, 60.40718
417.2837, 60.10249
417.7658, 60.03686
418.2480, 60.51714
418.7301, 61.23423
419.2122, 61.88123
419.6943, 62.41819
420.1764, 62.83142
420.6585, 63.05140
421.1407, 63.11774
421.6228, 63.43628
422.1049, 64.24911
422.5870, 65.02554
423.0691, 65.49277
423.5512, 65.78873
424.0334, 66.16336
424.5155, 66.71291
424.9976, 67.39761
425.4797, 68.15844
425.9618, 69.17300
426.4439, 69.87791
426.9261, 69.97588
427.4082, 70.00903
427.8903, 70.37842
428.3724, 71.07636
428.8545, 71.83323
429.3366, 72.42244
429.8188, 72.86004
430.3009, 73.41438
430.7830, 74.26390
431.2651, 75.04202
431.7472, 75.58390
432.2293, 76.06466
432.7115, 76.73134
433.1936, 77.66788
433.6757, 78.66968
434.1578, 79.32692
434.6399, 79.44688
435.1220, 79.89654
435.6042, 81.19157
436.0863, 82.44327
436.5684, 83.08091
437.0505, 83.26264
437.5326, 83.61455
438.0147, 84.67321
438.4969, 86.19506
438.9790, 87.28802
439.4611, 87.80055
439.9432, 88.26218
440.4253, 88.95811
440.9074, 89.69221
441.3896, 90.24412
441.8717, 90.55476
442.3538, 90.77664
442.8359, 91.01961
443.3180, 91.28508
443.8001, 91.59515
444.2823, 92.02869
444.7644, 92.37243
445.2465, 92.35961
445.7286, 92.06245
446.2107, 91.76309
446.6928, 91.63349
447.1750, 91.47258
447.6571, 91.12125
448.1392, 90.56943
448.6213, 89.72703
449.1034, 88.44119
449.5855, 86.92906
450.0677, 85.80862
450.5498, 85.17690
451.0319, 84.64015
451.5140, 84.25825
451.9961, 83.84741
452.4782, 83.15215
452.9604, 82.13452
453.4425, 80.99375
453.9246, 79.93113
454.4067, 78.96062
454.8888, 77.92046
455.3709, 76.66045
455.8531, 75.51128
456.3352, 74.60992
456.8173, 73.89977
457.2994, 73.26812
457.7815, 72.66585
458.2636, 72.12038
458.7458, 71.71964
459.2279, 71.66724
459.7100, 71.31991
460.1921, 70.57384
460.6742, 69.64266
461.1563, 68.46651
461.6385, 67.17784
462.1206, 66.15517
462.6027, 65.75344
463.0848, 65.84418
463.5669, 65.76383
464.0491, 65.46584
464.5312, 65.08541
465.0133, 64.57783
465.4954, 64.06266
465.9775, 63.65396
466.4597, 63.37588
466.9418, 63.19660
467.4239, 63.14983
467.9060, 63.20225
468.3881, 63.10675
468.8702, 62.75896
469.3524, 62.39198
469.8345, 62.18767
470.3166, 62.11823
470.7987, 62.13374
471.2808, 62.26535
471.7629, 62.44374
472.2451, 62.62867
472.7272, 62.81366
473.2093, 62.98022
473.6914, 63.14552
474.1735, 63.24461
474.6556, 63.13171
475.1378, 62.78317
475.6199, 62.35111
476.1020, 61.59592
476.5841, 60.94219
477.0662, 60.87621
477.5483, 61.35272
478.0305, 61.85527
478.5126, 61.96766
478.9947, 61.76015
479.4768, 61.85131
479.9589, 62.66986
480.4410, 63.26557
480.9232, 63.46727
481.4053, 63.41359
481.8874, 63.16487
482.3695, 62.77432
482.8516, 62.42022
483.3337, 62.35640
483.8159, 62.63498
484.2980, 62.75208
484.7801, 62.45736
485.2622, 62.28675
485.7443, 62.63447
486.2264, 63.17564
486.7086, 63.35284
487.1907, 62.88179
487.6728, 62.14860
488.1549, 61.63713
488.6370, 61.34550
489.1191, 61.36187
489.6013, 61.88789
490.0834, 62.53329
490.5655, 63.01179
491.0476, 63.32093
491.5297, 63.43122
492.0118, 63.12535
492.4940, 62.73016
492.9761, 62.74926
493.4582, 63.16548
493.9403, 63.44831
494.4224, 63.27599
494.9045, 62.84426
495.3867, 62.65542
495.8688, 62.76232
496.3509, 62.91900
496.8330, 63.11459
497.3151, 63.30593
497.7972, 63.47721
498.2794, 63.61105
498.7615, 63.62393
499.2436, 63.41545
499.7257, 63.00688
500.2078, 62.78053
500.6899, 62.78611
501.1721, 62.91622
501.6542, 63.29458
502.1363, 63.72052
502.6184, 63.99117
503.1005, 64.05140
503.5826, 63.97310
504.0648, 63.82078
504.5469, 63.58434
505.0290, 63.37798
505.5111, 63.20568
505.9932, 63.06133
506.4753, 63.03548
506.9575, 63.01158
507.4396, 62.76469
507.9217, 62.15260
508.4038, 61.49617
508.8859, 61.28862
509.3680, 61.49345
509.8502, 61.43756
510.3323, 60.87878
510.8144, 60.17140
511.2965, 59.61054
511.7786, 59.18861
512.2607, 58.89880
512.7429, 58.92057
513.2250, 58.93102
513.7071, 58.51641
514.1892, 57.80463
514.6713, 57.42004
515.1534, 57.72040
515.6356, 58.25002
516.1177, 58.07486
516.5998, 56.71736
517.0819, 55.70831
517.5640, 55.30478
518.0461, 55.08299
518.5283, 54.78593
519.0104, 54.40637
519.4925, 54.03432
519.9746, 53.72573
520.4567, 53.47701
520.9388, 53.28469
521.4210, 53.21463
521.9031, 53.07509
522.3852, 52.76585
522.8673, 52.44623
523.3494, 52.27123
523.8315, 52.21935
524.3137, 52.10397
524.7958, 51.68045
525.2779, 51.09452
525.7600, 50.95056
526.2421, 51.40884
526.7242, 51.69868
527.2064, 51.25673
527.6885, 50.58142
528.1706, 50.36235
528.6527, 50.74444
529.1348, 51.03733
529.6169, 50.84156
530.0991, 50.34754
530.5812, 49.77753
531.0633, 49.16586
531.5454, 48.75623
532.0275, 48.78764
532.5096, 49.17657
532.9918, 49.33890
533.4739, 49.09037
533.9560, 48.88995
534.4381, 48.94673
534.9202, 49.03658
535.4023, 48.82268
535.8845, 48.29690
536.3666, 47.85187
536.8487, 47.94604
537.3308, 48.57692
537.8129, 48.76221
538.2951, 48.04021
538.7772, 47.46604
539.2593, 47.29576
539.7415, 47.37685
540.2236, 47.61211
540.7057, 47.96477
541.1878, 48.25896
541.6699, 48.23651
542.1520, 47.96051
542.6342, 47.92003
543.1163, 48.27046
543.5984, 48.55712
544.0805, 48.40298
544.5626, 47.99662
545.0447, 47.67196
545.5269, 47.46569
546.0090, 47.35994
546.4911, 47.37804
546.9732, 47.48127
547.4553, 47.57958
547.9374, 47.65406
548.4196, 47.80453
548.9017, 48.18100
549.3838, 48.79719
549.8659, 49.01939
550.3480, 48.30035
550.8301, 47.91087
551.3123, 48.70345
551.7944, 49.79376
552.2765, 49.93659
552.7586, 48.87770
553.2407, 47.55713
553.7228, 47.12381
554.2050, 47.62859
554.6871, 48.10481
555.1692, 48.66837
555.6513, 49.02375
556.1334, 48.94714
556.6155, 48.67359
557.0977, 48.49592
557.5798, 48.49293
558.0619, 48.57737
558.5440, 48.74684
559.0261, 48.94828
559.5082, 48.96611
559.9904, 48.74611
560.4725, 48.45594
560.9546, 48.22989
561.4367, 48.03962
561.9188, 47.74268
562.4009, 46.96873
562.8831, 46.55396
563.3652, 47.11623
563.8473, 48.09676
564.3294, 48.75526
564.8115, 48.92751
565.2936, 48.81986
565.7758, 48.60247
566.2579, 48.27382
566.7400, 48.09514
567.2221, 48.05229
567.7042, 48.19608
568.1863, 48.83965
568.6685, 49.50430
569.1506, 49.62188
569.6327, 49.10909
570.1148, 48.47309
570.5969, 48.19934
571.0790, 48.23712
571.5612, 48.30692
572.0433, 48.46013
572.5254, 48.47818
573.0075, 48.07669
573.4896, 47.54740
573.9717, 47.35487
574.4539, 47.63066
574.9360, 47.89874
575.4181, 47.90618
575.9002, 47.78522
576.3823, 47.73908
576.8644, 47.78051
577.3466, 47.74787
577.8287, 47.49187
578.3108, 47.09402
578.7929, 46.95688
579.2750, 47.38289
579.7571, 47.67828
580.2393, 47.77450
580.7214, 47.75219
581.2035, 47.64031
581.6856, 47.46551
582.1677, 47.27881
582.6498, 47.11985
583.1320, 46.97756
583.6141, 46.79387
584.0962, 46.52003
584.5783, 46.37267
585.0604, 46.51667
585.5425, 46.73059
586.0247, 46.78474
586.5068, 46.69492
586.9889, 46.72429
587.4710, 47.23077
587.9531, 47.75638
588.4352, 47.64660
588.9174, 47.00568
589.3995, 46.47980
589.8816, 46.34501
590.3637, 46.47818
590.8458, 46.70052
591.3279, 47.12872
591.8101, 47.28695
592.2922, 46.89594
592.7743, 46.51420
593.2564, 46.48655
593.7385, 46.68147
594.2206, 46.80808
594.7028, 46.73293
595.1849, 46.56591
595.6670, 46.49258
596.1491, 46.52766
596.6312, 46.54413
597.1133, 46.50557
597.5955, 46.48578
598.0776, 46.45453
598.5597, 46.47937
599.0418, 46.73448
599.5239, 47.40476
600.0060, 47.99786
600.4882, 48.08025
600.9703, 47.79286
601.4524, 47.42305
601.9345, 47.01770
602.4166, 46.71331
602.8987, 46.63053
603.3809, 46.76229
603.8630, 47.01844
604.3451, 47.66483
604.8272, 48.07831
605.3093, 47.95063
605.7914, 47.65572
606.2736, 47.58997
606.7557, 47.77893
607.2378, 47.94381
607.7199, 47.82989
608.2020, 47.50194
608.6841, 47.28137
609.1663, 47.19141
609.6484, 47.14197
610.1305, 47.09113
610.6126, 47.08471
611.0947, 47.20043
611.5768, 47.43072
612.0590, 47.59850
612.5411, 47.63757
613.0232, 47.57167
613.5053, 47.35551
613.9874, 47.03754
614.4695, 46.84607
614.9517, 46.88971
615.4338, 47.03997
615.9159, 47.09180
616.3980, 47.02671
616.8801, 46.91649
617.3622, 46.64431
617.8444, 46.45416
618.3265, 46.45633
618.8086, 46.60604
619.2907, 46.86991
619.7728, 47.23141
620.2549, 47.55223
620.7371, 47.62075
621.2192, 47.44813
621.7013, 47.32935
622.1834, 47.29200
622.6655, 47.27501
623.1476, 47.13489
623.6298, 47.03158
624.1119, 47.32059
624.5940, 48.25744
625.0761, 48.89268
625.5582, 48.55462
626.0403, 47.80410
626.5225, 47.32386
627.0046, 47.16185
627.4867, 47.05983
627.9688, 46.84911
628.4509, 46.57756
628.9330, 46.40002
629.4152, 46.37651
629.8973, 46.34212
630.3794, 46.18353
630.8615, 46.11330
631.3436, 46.38730
631.8257, 46.84354
632.3079, 47.05230
632.7900, 46.74137
633.2721, 46.27505
633.7542, 46.20052
634.2363, 46.47057
634.7184, 46.64988
635.2006, 46.63795
635.6827, 46.57285
636.1648, 46.55642
636.6469, 46.58995
637.1291, 46.65776
637.6112, 46.70599
638.0933, 46.85360
638.5754, 47.36988
639.0576, 47.87739
639.5397, 47.82579
640.0218, 47.22494
640.5039, 46.63779
640.9860, 46.53635
641.4681, 46.81793
641.9503, 46.97114
642.4324, 46.94777
642.9145, 46.91566
643.3966, 46.88678
643.8787, 46.87897
644.3608, 46.91378
644.8430, 46.98433
645.3251, 47.05511
645.8072, 47.10579
646.2893, 47.15599
646.7714, 47.20709
647.2535, 47.27269
647.7357, 47.45513
648.2178, 47.80031
648.6999, 48.03567
649.1820, 47.80069
649.6641, 47.05715
650.1462, 46.63599
650.6284, 46.72167
651.1105, 46.88144
651.5926, 47.11435
652.0747, 47.33030
652.5568, 47.40242
653.0389, 47.34058
653.5211, 47.32407
654.0032, 47.57251
654.4853, 47.93983
654.9674, 47.95789
655.4495, 47.58809
655.9316, 47.31092
656.4138, 47.33351
656.8959, 47.46172
657.3780, 47.49574
657.8601, 47.44520
658.3422, 47.17303
658.8243, 46.23655
659.3065, 45.51207
659.7886, 45.62415
660.2707, 46.22650
660.7528, 46.84741
661.2349, 47.30364
661.7170, 47.44117
662.1992, 46.97065
662.6813, 45.93701
663.1634, 45.47058
663.6455, 45.91377
664.1276, 46.24248
664.6097, 46.02792
665.0919, 45.61950
665.5740, 45.29981
666.0561, 45.08729
666.5382, 44.87646
667.0203, 44.56085
667.5024, 44.26701
667.9846, 44.13921
668.4667, 44.15281
668.9488, 44.23420
669.4309, 44.36324
669.9130, 44.46922
670.3951, 44.46347
670.8773, 44.34548
671.3594, 44.12207
671.8415, 43.62134
672.3236, 43.21772
672.8057, 43.04318
673.2878, 42.97441
673.7700, 42.89581
674.2521, 42.78338
674.7342, 42.65532
675.2163, 42.50796
675.6984, 42.36106
676.1805, 42.24314
676.6627, 42.15530
677.1448, 42.14074
677.6269, 42.22582
678.1090, 42.36908
678.5911, 42.53516
679.0732, 42.74802
679.5554, 42.82319
680.0375, 42.59655
680.5196, 42.42444
681.0017, 42.51239
681.4838, 42.69655
681.9659, 42.78094
682.4481, 42.71507
682.9302, 42.54856
683.4123, 42.27448
683.8944, 41.94673
684.3765, 41.80550
684.8586, 41.88819
685.3408, 41.95161
685.8229, 41.97335
686.3050, 41.87279
686.7871, 41.38115
687.2692, 40.51162
687.7513, 40.12096
688.2335, 40.81103
688.7156, 41.50721
689.1977, 41.62583
689.6798, 41.37452
690.1619, 41.05137
690.6440, 40.75414
691.1262, 40.50367
691.6083, 40.32028
692.0904, 40.20237
692.5725, 40.10300
693.0546, 39.92855
693.5367, 40.06644
694.0189, 41.01571
694.5010, 41.98112
694.9831, 42.17094
695.4652, 41.67000
695.9473, 41.22557
696.4294, 41.11527
696.9116, 41.06851
697.3937, 40.85376
697.8758, 40.58344
698.3579, 40.50438
698.8400, 40.65581
699.3221, 40.81660
699.8043, 40.75817
700.2864, 40.52708
700.7685, 40.49857
701.2506, 40.81288
701.7327, 41.03052
702.2148, 40.95260
702.6970, 40.84377
703.1791, 40.86833
703.6612, 41.01124
704.1433, 41.18614
704.6254, 41.43228
705.1075, 41.60361
705.5897, 41.41360
706.0718, 41.09703
706.5539, 41.32444
707.0360, 42.16486
707.5181, 42.70886
708.0002, 42.12821
708.4824, 40.72425
708.9645, 40.04054
709.4466, 40.52142
709.9287, 40.87552
710.4108, 40.93145
710.8929, 40.89264
711.3751, 40.83628
711.8572, 40.77789
712.3393, 40.73061
712.8214, 40.69175
713.3035, 40.68372
713.7856, 40.73414
714.2678, 40.82730
714.7499, 40.93028
715.2320, 41.03852
715.7141, 41.19159
716.1962, 41.44538
716.6783, 41.70313
717.1605, 41.63570
717.6426, 40.81128
718.1247, 40.51505
718.6068, 41.42242
719.0889, 42.12782
719.5710, 41.64471
720.0532, 40.63023
720.5353, 40.33870
721.0174, 41.22377
721.4995, 42.16306
721.9816, 42.10368
722.4637, 41.51789
722.9459, 41.35437
723.4280, 41.65049
723.9101, 41.99564
724.3922, 42.20917
724.8743, 42.28938
725.3564, 42.21310
725.8386, 41.89905
726.3207, 41.72072
726.8028, 41.70183
727.2849, 41.78590
727.7670, 42.13649
728.2491, 42.48816
728.7313, 42.42784
729.2134, 41.91004
729.6955, 41.50709
730.1776, 41.76615
730.6597, 42.30696
731.1418, 42.50397
731.6240, 42.41032
732.1061, 42.39339
732.5882, 42.58493
733.0703, 42.86498
733.5524, 43.11178
734.0345, 43.33122
734.5167, 43.37567
734.9988, 42.97221
735.4809, 42.75158
735.9631, 42.95721
736.4452, 43.26847
736.9273, 43.39495
737.4094, 43.35651
737.8915, 43.40183
738.3737, 43.73167
738.8558, 44.10175
739.3379, 44.25188
739.8200, 44.21904
740.3021, 44.04934
740.7842, 43.75529
741.2664, 43.62181
741.7485, 43.92901
742.2306, 44.54285
742.7127, 44.78635
743.1948, 44.30335
743.6769, 44.09977
744.1591, 44.54829
744.6412, 44.95780
745.1233, 44.86934
745.6054, 44.48932
746.0875, 44.26786
746.5696, 44.35474
747.0518, 44.58209
747.5339, 44.97913
748.0160, 45.36467
748.4981, 45.34020
748.9802, 44.94177
749.4623, 44.60765
749.9445, 44.55882
750.4266, 44.70132
750.9087, 44.88845
751.3908, 45.16974
751.8729, 45.24773
752.3550, 44.80029
752.8372, 44.58249
753.3193, 44.94847
753.8014, 45.58097
754.2835, 46.17426
754.7656, 46.68893
755.2477, 47.11921
755.7299, 47.60661
756.2120, 47.88989
756.6941, 47.49796
757.1762, 46.73084
757.6583, 46.34598
758.1404, 46.53728
758.6226, 46.89568
759.1047, 47.01302
759.5868, 46.93950
760.0689, 47.03872
760.5510, 47.38788
761.0331, 47.70398
761.5153, 47.91082
761.9974, 48.09517
762.4795, 48.44645
762.9616, 48.83567
763.4437, 48.80443
763.9258, 47.87588
764.4080, 47.19886
764.8901, 47.60917
765.3722, 48.38432
765.8543, 48.68972
766.3364, 48.53658
766.8185, 48.35999
767.3007, 48.39500
767.7828, 48.54080
768.2649, 48.64907
768.7470, 48.72183
769.2291, 48.64510
769.7112, 48.31388
770.1934, 48.10592
770.6755, 48.31871
771.1576, 48.68591
771.6397, 48.72350
772.1218, 48.37451
772.6039, 48.13808
773.0861, 48.14448
773.5682, 48.22794
774.0503, 48.29392
774.5324, 48.38584
775.0145, 48.62472
775.4966, 49.00062
775.9788, 49.30873
776.4609, 49.40749
776.9430, 49.29435
777.4251, 48.84475
777.9072, 48.07326
778.3893, 47.56491
778.8715, 47.46997
779.3536, 47.60749
779.8357, 47.87675
780.3178, 48.24751
780.7999, 48.50824
781.2820, 48.60092
781.7642, 48.67009
782.2463, 48.83535
782.7284, 48.87318
783.2105, 48.47396
783.6926, 47.87346
784.1747, 47.58193
784.6569, 47.79881
785.1390, 48.12806
785.6211, 48.25447
786.1032, 48.23179
786.5853, 48.13695
787.0674, 47.98540
787.5496, 47.81892
788.0317, 47.64806
788.5138, 47.53919
788.9959, 47.60180
789.4780, 47.85114
789.9601, 48.06406
790.4423, 48.31562
790.9244, 48.40674
791.4065, 48.20220
791.8886, 47.89564
792.3707, 47.63275
792.8528, 47.41012
793.3350, 47.14812
793.8171, 46.76080
794.2992, 46.40653
794.7813, 46.19811
795.2634, 46.07321
795.7455, 45.97107
796.2277, 45.86743
796.7098, 45.70269
797.1919, 45.42949
797.6740, 45.14976
798.1561, 45.16218
798.6382, 45.49343
799.1204, 45.30613
799.6025, 44.32994
800.0846, 43.49043
800.5667, 43.37935
801.0488, 43.57848
801.5309, 43.27755
802.0131, 42.37794
802.4952, 41.68528
802.9773, 41.46591
803.4594, 41.23808
803.9415, 40.70320
804.4236, 40.09755
804.9058, 39.74657
805.3879, 39.66695
805.8700, 39.60089
806.3521, 39.35982
806.8342, 39.06168
807.3163, 38.87948
807.7985, 38.79876
808.2806, 38.79670
808.7627, 38.87224
809.2448, 38.84406
809.7269, 38.55171
810.2090, 38.11031
810.6912, 37.88247
811.1733, 37.97396
811.6554, 38.02592
812.1375, 38.04170
812.6196, 38.01060
813.1017, 37.93398
813.5839, 37.80602
814.0660, 37.57008
814.5481, 37.21110
815.0302, 36.99856
815.5123, 37.25401
815.9944, 37.50355
816.4766, 37.34603
816.9587, 36.91491
817.4408, 36.36064
817.9229, 35.78186
818.4050, 35.48128
818.8871, 35.77909
819.3693, 36.40668
819.8514, 36.61198
820.3335, 36.37442
820.8156, 36.18676
821.2977, 36.11916
821.7798, 36.13866
822.2620, 36.31001
822.7441, 36.51208
823.2262, 36.35036
823.7083, 35.48418
824.1904, 35.04763
824.6725, 35.40155
825.1547, 35.82323
825.6368, 36.05112
826.1189, 36.11711
826.6010, 36.04665
827.0831, 35.86381
827.5652, 35.71401
828.0474, 35.66868
828.5295, 35.72371
829.0116, 36.00775
829.4937, 36.37288
829.9758, 36.34081
830.4579, 35.84823
830.9401, 35.41777
831.4222, 35.46510
831.9043, 35.83620
832.3864, 36.07121
832.8685, 36.13689
833.3506, 36.24063
833.8328, 36.47859
834.3149, 36.60194
834.7971, 36.41033
835.2792, 36.04625
835.7613, 35.71929
836.2434, 35.38444
836.7255, 35.34689
837.2076, 36.00698
837.6898, 36.58067
838.1719, 36.58100
838.6540, 36.34230
839.1361, 36.33519
839.6182, 36.57731
840.1003, 36.66988
840.5825, 36.25540
841.0646, 35.74473
841.5467, 35.76413
842.0288, 36.15490
842.5109, 36.42107
842.9930, 36.49309
843.4752, 36.47285
843.9573, 36.40720
844.4394, 36.34828
844.9215, 36.44410
845.4036, 36.77870
845.8857, 36.80642
846.3679, 36.23444
846.8500, 35.87761
847.3321, 36.25631
847.8142, 36.83604
848.2963, 37.06278
848.7784, 36.94067
849.2606, 36.76043
849.7427, 36.46427
850.2248, 36.25696
850.7069, 36.27644
851.1890, 36.38214
851.6711, 36.42489
852.1533, 36.41830
852.6354, 36.48426
853.1175, 36.69653
853.5996, 36.89103
854.0817, 36.82543
854.5638, 36.60854
855.0460, 36.53682
855.5281, 36.61478
856.0102, 36.69375
856.4923, 36.71045
856.9744, 36.74209
857.4565, 36.89387
857.9387, 37.16125
858.4208, 37.40685
858.9029, 37.64313
859.3850, 37.82856
859.8671, 37.98767
860.3492, 38.05488
860.8314, 37.87281
861.3135, 37.56924
861.7956, 37.51546
862.2777, 37.88342
862.7598, 38.18034
863.2419, 38.22766
863.7241, 38.21391
864.2062, 38.23728
864.6883, 38.30106
865.1704, 38.39955
865.6525, 38.52815
866.1346, 38.66092
866.6168, 38.74259
867.0989, 38.84524
867.5810, 39.17015
868.0631, 39.61693
868.5452, 39.81145
869.0273, 39.68809
869.5095, 39.45185
869.9916, 39.22914
870.4737, 39.06958
870.9558, 39.10838
871.4379, 39.36464
871.9200, 39.73043
872.4022, 40.27416
872.8843, 40.77055
873.3664, 41.15090
873.8485, 41.40892
874.3306, 41.43989
874.8127, 41.22377
875.2949, 41.30194
875.7770, 41.95280
876.2591, 42.58525
876.7412, 43.08504
877.2233, 43.45045
877.7054, 43.61571
878.1876, 43.65028
878.6697, 43.71579
879.1518, 43.85775
879.6339, 44.12360
880.1160, 44.66562
880.5981, 45.28154
881.0803, 45.64540
881.5624, 45.82359
882.0445, 46.11204
882.5266, 46.60586
883.0087, 47.15076
883.4908, 47.57681
883.9730, 47.92862
884.4551, 48.39075
884.9372, 48.96912
885.4193, 49.55331
885.9014, 50.17298
886.3835, 50.59497
886.8657, 50.55943
887.3478, 50.28483
887.8299, 50.37334
888.3120, 50.91046
888.7941, 51.58220
889.2762, 52.84845
889.7584, 53.68910
890.2405, 53.49489
890.7226, 52.93678
891.2047, 52.65700
891.6868, 52.69316
892.1689, 52.82028
892.6511, 53.07825
893.1332, 53.26322
893.6153, 53.27935
894.0974, 53.16600
894.5795, 52.83307
895.0616, 52.41861
895.5438, 52.28882
896.0259, 52.59314
896.5080, 53.03792
896.9901, 53.44365
897.4722, 53.70779
897.9543, 53.53538
898.4365, 52.97606
898.9186, 52.26543
899.4007, 51.46980
899.8828, 50.75126
900.3649, 50.24068
900.8470, 49.93200
901.3292, 49.86231
901.8113, 50.14042
902.2934, 50.06569
902.7755, 49.35699
903.2576, 48.81958
903.7397, 49.02630
904.2219, 49.50804
904.7040, 49.45119
905.1861, 48.75074
905.6682, 48.31573
906.1503, 48.37074
906.6324, 48.41475
907.1146, 48.33744
907.5967, 48.19409
908.0788, 47.93750
908.5609, 47.66238
909.0430, 47.65931
909.5251, 48.12756
910.0073, 48.43186
910.4894, 47.90552
910.9715, 47.28708
911.4536, 47.36327
911.9357, 47.92082
912.4178, 48.51475
912.9000, 48.99115
913.3821, 49.26022
913.8642, 49.16935
914.3463, 48.96151
914.8284, 49.15502
915.3105, 49.64701
915.7927, 49.94269
916.2748, 49.98044
916.7569, 50.04485
917.2390, 50.29223
917.7211, 50.64568
918.2032, 50.97417
918.6854, 51.38726
919.1675, 51.69707
919.6496, 52.30150
920.1317, 52.87992
920.6138, 53.39244
921.0959, 53.85042
921.5781, 54.22919
922.0602, 54.55924
922.5423, 54.99221
923.0244, 55.57939
923.5065, 56.17296
923.9886, 56.84706
924.4708, 57.43602
924.9529, 57.72733
925.4350, 57.97266
925.9171, 58.49396
926.3992, 59.31365
926.8813, 60.20567
927.3635, 61.38189
927.8456, 62.24821
928.3277, 62.13868
928.8098, 61.77266
929.2919, 61.90749
929.7740, 62.53094
930.2562, 63.46061
930.7383, 64.61552
931.2204, 65.50376
931.7025, 65.38364
932.1846, 64.80348
932.6667, 64.78521
933.1489, 65.22179
933.6310, 65.74283
934.1132, 66.23792
934.5953, 66.52723
935.0774, 66.46236
935.5595, 66.15948
936.0416, 65.82214
936.5237, 65.44692
937.0059, 65.44841
937.4880, 65.97517
937.9701, 66.09109
938.4522, 65.34693
938.9343, 64.21269
939.4164, 63.18036
939.8986, 62.25613
940.3807, 61.54710
940.8628, 61.08028
941.3449, 60.79144
941.8270, 61.02066
942.3091, 61.02154
942.7913, 60.23047
943.2734, 59.04449
943.7555, 58.09333
944.2376, 57.43911
944.7197, 56.76807
945.2018, 55.95631
945.6840, 55.21349
946.1661, 54.73735
946.6482, 54.27351
947.1303, 53.52864
947.6124, 52.58718
948.0945, 51.78358
948.5767, 51.26723
949.0588, 50.69157
949.5409, 49.76042
950.0230, 48.72863
950.5051, 47.68475
950.9872, 46.78548
951.4694, 46.47192
951.9515, 46.68279
952.4336, 46.60241
952.9157, 45.58408
953.3978, 44.24530
953.8799, 43.43914
954.3621, 43.03167
954.8442, 42.69294
955.3263, 42.39003
955.8084, 42.12434
956.2905, 41.89650
956.7726, 41.72081
957.2548, 41.63820
957.7369, 41.60042
958.2190, 41.39924
958.7011, 41.03243
959.1832, 40.49877
959.6653, 39.75553
960.1475, 39.02532
960.6296, 38.40290
961.1117, 37.92864
961.5938, 37.69403
962.0759, 37.72524
962.5580, 37.73455
963.0402, 37.70149
963.5223, 37.69425
964.0044, 37.80102
964.4865, 37.84931
964.9686, 37.70017
965.4507, 37.38840
965.9329, 37.01296
966.4150, 36.50857
966.8971, 36.11885
967.3792, 36.01191
967.8613, 35.83776
968.3434, 35.29321
968.8256, 34.74906
969.3077, 34.70695
969.7898, 35.04575
970.2719, 35.08212
970.7540, 34.54066
971.2361, 33.87179
971.7183, 33.05247
972.2004, 32.37665
972.6825, 32.13615
973.1646, 32.17492
973.6467, 32.25509
974.1288, 32.31622
974.6110, 32.38707
975.0931, 32.54646
975.5752, 32.61851
976.0573, 32.32355
976.5394, 31.90466
977.0215, 31.74204
977.5037, 31.79848
977.9858, 31.84255
978.4679, 31.78881
978.9500, 31.70639
979.4321, 31.65786
979.9142, 31.63080
980.3964, 31.54802
980.8785, 31.46464
981.3606, 31.73329
981.8427, 32.32954
982.3248, 32.45018
982.8069, 31.63512
983.2891, 30.60406
983.7712, 30.48362
984.2533, 31.11484
984.7354, 31.29428
985.2175, 31.00868
985.6996, 30.71313
986.1818, 30.48414
986.6639, 30.41467
987.1460, 30.61274
987.6281, 30.91829
988.1102, 30.94832
988.5923, 30.65226
989.0745, 30.45683
989.5566, 30.37807
990.0387, 30.35668
990.5208, 30.40455
991.0029, 30.45681
991.4850, 30.46049
991.9672, 30.42149
992.4493, 30.35889
992.9314, 30.24524
993.4135, 30.17685
993.8956, 30.26954
994.3777, 30.25141
994.8599, 29.90256
995.3420, 29.50959
995.8241, 29.32502
996.3062, 29.33489
996.7883, 29.43441
997.2704, 29.82414
997.7526, 29.92926
998.2347, 29.46542
998.7168, 28.93331
999.1989, 28.43093
999.6810, 28.09246
1000.163, 28.16391
1000.645, 28.59697
1001.127, 28.89811
1001.609, 28.86992
1002.092, 28.76797
1002.574, 28.61056
1003.056, 28.49876
1003.538, 28.55705
1004.020, 28.69938
1004.502, 28.79068
1004.984, 28.80100
1005.466, 28.75542
1005.949, 28.62612
1006.431, 28.50378
1006.913, 28.46843
1007.395, 28.46669
1007.877, 28.49808
1008.359, 28.49583
1008.841, 28.23497
1009.323, 27.68995
1009.805, 27.32990
1010.288, 27.65798
1010.770, 28.19530
1011.252, 28.43323
1011.734, 28.42908
1012.216, 28.20895
1012.698, 27.84365
1013.180, 27.49632
1013.662, 27.24143
1014.145, 27.14150
1014.627, 27.34803
1015.109, 27.67665
1015.591, 27.78325
1016.073, 27.69161
1016.555, 27.39263
1017.037, 26.93897
1017.519, 26.66119
1018.001, 26.72880
1018.484, 26.91762
1018.966, 26.91738
1019.448, 26.80601
1019.930, 26.94305
1020.412, 27.27757
1020.894, 27.28818
1021.376, 26.89092
1021.858, 26.52706
1022.341, 26.45108
1022.823, 26.53660
1023.305, 26.61679
1023.787, 26.67839
1024.269, 26.53842
1024.751, 26.17727
1025.233, 26.00321
1025.715, 26.10815
1026.198, 26.34666
1026.680, 26.66334
1027.162, 26.94968
1027.644, 26.97628
1028.126, 27.00094
1028.608, 26.90849
1029.090, 26.61424
1029.572, 26.44263
1030.054, 25.90754
1030.536, 25.48262
1031.019, 25.52279
1031.501, 25.84906
1031.983, 26.13370
1032.465, 26.43386
1032.947, 26.15125
1033.429, 24.92158
1033.911, 24.07190
1034.393, 24.00445
1034.876, 24.17716
1035.358, 24.25146
1035.840, 24.25869
1036.322, 24.25469
1036.804, 24.19772
1037.286, 24.34039
1037.768, 24.82542
1038.250, 25.25595
1038.733, 25.58516
1039.215, 25.79096
1039.697, 25.85368
1040.179, 25.78102
1040.661, 25.54977
1041.143, 25.03118
1041.625, 24.83023
1042.107, 25.26240
1042.589, 25.57860
1043.072, 25.55604
1043.554, 25.44601
1044.036, 25.40914
1044.518, 25.41822
1045.000, 25.40040
1045.482, 25.34235
1045.964, 25.30239
1046.446, 25.21541
1046.928, 25.24041
1047.411, 25.68292
1047.893, 26.00441
1048.375, 25.60482
1048.857, 24.82242
1049.339, 24.52741
1049.821, 24.93018
1050.303, 25.14406
1050.785, 24.87138
1051.268, 24.60595
1051.750, 24.46655
1052.232, 24.42798
1052.714, 24.58069
1053.196, 24.78771
1053.678, 24.71137
1054.160, 24.24200
1054.642, 23.91990
1055.125, 23.98581
1055.607, 24.06851
1056.089, 24.00525
1056.571, 23.92827
1057.053, 23.90449
1057.535, 23.96669
1058.017, 24.21982
1058.499, 24.71539
1058.981, 25.01755
1059.464, 24.88210
1059.946, 24.67311
1060.428, 24.50623
1060.910, 24.35557
1061.392, 24.11537
1061.874, 23.89606
1062.356, 24.01744
1062.838, 24.56375
1063.320, 24.78176
1063.803, 24.08046
1064.285, 23.41334
1064.767, 23.21677
1065.249, 23.22146
1065.731, 23.25136
1066.213, 23.28150
1066.695, 23.29083
1067.177, 23.27774
1067.660, 23.35480
1068.142, 23.81413
1068.624, 24.05209
1069.106, 23.49949
1069.588, 22.87516
1070.070, 22.80005
1070.552, 23.09488
1071.034, 23.40712
1071.516, 23.65292
1071.999, 23.76166
1072.481, 23.65576
1072.963, 23.46920
1073.445, 23.03393
1073.927, 22.76128
1074.409, 23.24359
1074.891, 24.00865
1075.373, 24.21307
1075.855, 23.76986
1076.338, 23.35681
1076.820, 23.13642
1077.302, 23.18017
1077.784, 23.96284
1078.266, 24.58561
1078.748, 24.08565
1079.230, 23.09096
1079.712, 22.63101
1080.195, 22.77436
1080.677, 22.83438
1081.159, 22.48961
1081.641, 22.15953
1082.123, 21.91481
1082.605, 21.89026
1083.087, 22.30024
1083.569, 22.92057
1084.052, 23.58329
1084.534, 24.17717
1085.016, 24.39713
1085.498, 24.04556
1085.980, 23.59422
1086.462, 23.11778
1086.944, 22.75438
1087.426, 22.66351
1087.908, 22.68729
1088.391, 22.62524
1088.873, 22.49698
1089.355, 22.47234
1089.837, 22.64115
1090.319, 22.73163
1090.801, 22.48554
1091.283, 22.30939
1091.765, 22.61258
1092.248, 22.95308
1092.730, 22.72553
1093.212, 22.16446
1093.694, 22.05366
1094.176, 22.65377
1094.658, 23.03551
1095.140, 22.61268
1095.622, 22.22896
1096.104, 22.26752
1096.587, 22.50508
1097.069, 22.96304
1097.551, 23.38765
1098.033, 23.21035
1098.515, 22.30615
1098.997, 21.64696
1099.479, 21.70292
1099.961, 21.78599
1100.443, 21.63186
1100.926, 21.45618
1101.408, 21.31521
1101.890, 21.30645
1102.372, 21.72793
1102.854, 22.55867
1103.336, 22.88877
1103.818, 21.97152
1104.300, 21.33987
1104.783, 21.52435
1105.265, 21.85349
1105.747, 22.10537
1106.229, 22.20257
1106.711, 21.97260
1107.193, 21.47817
1107.675, 21.19206
1108.157, 21.20784
1108.640, 21.36506
1109.122, 21.75075
1109.604, 22.14146
1110.086, 22.53528
1110.568, 22.82665
1111.050, 22.92597
1111.532, 22.83869
1112.014, 22.56339
1112.496, 21.92006
1112.979, 21.58526
1113.461, 21.86255
1113.943, 22.07350
1114.425, 21.99848
1114.907, 21.86452
1115.389, 21.81978
1115.871, 21.83563
1116.353, 21.87405
1116.835, 21.97275
1117.318, 21.85644
1117.800, 21.25911
1118.282, 20.94278
1118.764, 21.12954
1119.246, 21.46206
1119.728, 21.85304
1120.210, 22.16956
1120.692, 22.16681
1121.175, 21.85375
1121.657, 21.68988
1122.139, 21.69753
1122.621, 21.81216
1123.103, 22.12460
1123.585, 22.30997
1124.067, 22.22254
1124.549, 21.94637
1125.031, 21.48530
1125.514, 20.96186
1125.996, 21.04062
1126.478, 21.91329
1126.960, 22.29418
1127.442, 22.02380
1127.924, 21.83647
1128.406, 21.96499
1128.888, 22.20144
1129.370, 22.41912
1129.853, 22.54068
1130.335, 22.30425
1130.817, 21.71096
1131.299, 21.60286
1131.781, 22.00723
1132.263, 22.31426
1132.745, 22.40737
1133.227, 22.30583
1133.710, 22.00386
1134.192, 21.64046
1134.674, 21.38972
1135.156, 21.26599
1135.638, 21.37627
1136.120, 21.68748
1136.602, 21.98690
1137.084, 22.23354
1137.567, 22.24595
1138.049, 21.96029
1138.531, 21.71481
1139.013, 21.87207
1139.495, 21.64836
1139.977, 22.03757
1140.459, 21.65860
1140.941, 21.63820
1141.423, 21.91908
1141.906, 22.20161
1142.388, 22.37435
1142.870, 22.27138
1143.352, 21.74305
1143.834, 21.21383
1144.316, 21.32040
1144.798, 21.00914
1145.280, 21.45459
1145.762, 21.02561
1146.245, 20.92452
1146.727, 21.17212
1147.209, 21.54402
1147.691, 21.95019
1148.173, 22.20631
1148.655, 22.05865
1149.137, 21.83253
1149.619, 21.82537
1150.102, 21.88743
1150.584, 21.81581
1151.066, 21.68494
1151.548, 21.68984
1152.030, 21.85299
1152.512, 22.00247
1152.994, 22.03012
1153.476, 22.09738
1153.958, 22.47158
1154.441, 22.70277
1154.923, 22.31368
1155.405, 21.73245
1155.887, 21.48423
1156.369, 21.53432
1156.851, 21.54928
1157.333, 21.44140
1157.815, 21.39430
1158.297, 21.44266
1158.780, 21.56384
1159.262, 21.82931
1159.744, 22.08715
1160.226, 22.23933
1160.708, 22.30480
1161.190, 22.29587
1161.672, 22.20300
1162.154, 22.22112
1162.637, 22.43118
1163.119, 22.60411
1163.601, 22.75426
1164.083, 22.81615
1164.565, 22.78399
1165.047, 22.60654
1165.529, 22.14207
1166.011, 21.53015
1166.494, 21.36451
1166.976, 21.74111
1167.458, 22.09805
1167.940, 22.45096
1168.422, 22.70539
1168.904, 22.83630
1169.386, 22.88172
1169.868, 22.86543
1170.350, 22.77527
1170.833, 22.55645
1171.315, 22.25553
1171.797, 22.17138
1172.279, 22.28517
1172.761, 22.38261
1173.243, 22.44028
1173.725, 22.51440
1174.207, 22.62650
1174.689, 22.75991
1175.172, 22.93989
1175.654, 23.00980
1176.136, 22.51617
1176.618, 21.79013
1177.100, 21.61132
1177.582, 21.87253
1178.064, 22.27947
1178.546, 22.68468
1179.029, 22.74701
1179.511, 22.27333
1179.993, 21.88602
1180.475, 22.22547
1180.957, 22.79411
1181.439, 23.33038
1181.921, 23.63080
1182.403, 23.22280
1182.885, 22.45557
1183.368, 22.11285
1183.850, 22.33447
1184.332, 22.58825
1184.814, 22.64561
1185.296, 22.71483
1185.778, 22.89167
1186.260, 23.09229
1186.742, 23.34810
1187.225, 23.53649
1187.707, 23.46061
1188.189, 23.20567
1188.671, 23.11046
1189.153, 23.28967
1189.635, 23.30369
1190.117, 22.98348
1190.599, 22.71184
1191.082, 22.58361
1191.564, 22.44808
1192.046, 22.10311
1192.528, 21.85502
1193.010, 22.20589
1193.492, 23.05291
1193.974, 23.55122
1194.456, 23.69821
1194.938, 23.37289
1195.421, 22.38315
1195.903, 22.14900
1196.385, 23.22293
1196.867, 24.18591
1197.349, 23.93122
1197.831, 23.15039
1198.313, 23.18303
1198.795, 23.78807
1199.277, 23.70417
1199.760, 23.09301
1200.242, 22.79879
1200.724, 22.89635
1201.206, 23.07966
1201.688, 23.22724
1202.170, 23.39764
1202.652, 23.67904
1203.134, 23.90211
1203.617, 23.81856
1204.099, 23.56986
1204.581, 23.23879
1205.063, 22.95633
1205.545, 23.01445
1206.027, 23.33929
1206.509, 23.52428
1206.991, 23.41333
1207.474, 23.28867
1207.956, 23.39253
1208.438, 23.39985
1208.920, 22.94105
1209.402, 22.52133
1209.884, 22.68053
1210.366, 23.06782
1210.848, 23.04959
1211.330, 22.64564
1211.813, 22.54029
1212.295, 23.04207
1212.777, 23.35966
1213.259, 23.30295
1213.741, 23.35298
1214.223, 23.78168
1214.705, 24.10240
1215.187, 23.93244
1215.669, 23.50212
1216.152, 23.22893
1216.634, 23.10253
1217.116, 22.92868
1217.598, 22.68727
1218.080, 22.71622
1218.562, 23.06866
1219.044, 23.21231
1219.526, 22.95273
1220.009, 22.78974
1220.491, 23.16479
1220.973, 22.97223
1221.455, 23.59270
1221.937, 23.16734
1222.419, 23.24240
1222.901, 23.61121
1223.383, 23.65213
1223.865, 23.38093
1224.348, 23.21894
1224.830, 23.30398
1225.312, 23.40056
1225.794, 23.35431
1226.276, 23.25472
1226.758, 23.11410
1227.240, 23.00739
1227.722, 22.99767
1228.204, 23.06672
1228.687, 23.20176
1229.169, 23.38710
1229.651, 23.61899
1230.133, 23.93750
1230.615, 24.05158
1231.097, 23.67932
1231.579, 23.44123
1232.061, 23.61741
1232.544, 23.74456
1233.026, 23.54696
1233.508, 23.27369
1233.990, 23.18262
1234.472, 23.26032
1234.954, 23.49234
1235.436, 23.93704
1235.918, 24.10642
1236.401, 23.97448
1236.883, 23.82111
1237.365, 23.69729
1237.847, 23.74895
1238.329, 24.06689
1238.811, 24.32837
1239.293, 24.10059
1239.775, 24.25325
1240.257, 23.72517
1240.740, 24.01296
1241.222, 23.89149
1241.704, 23.51284
1242.186, 23.38303
1242.668, 23.56706
1243.150, 23.88574
1243.632, 24.28844
1244.114, 24.44901
1244.596, 23.78524
1245.079, 23.27347
1245.561, 23.76466
1246.043, 24.44107
1246.525, 24.70328
1247.007, 24.62357
1247.489, 24.18171
1247.971, 23.51571
1248.453, 23.48291
1248.936, 23.34801
1249.418, 23.09729
1249.900, 23.83793
1250.382, 23.18672
1250.864, 24.02435
1251.346, 24.78984
1251.828, 24.52073
1252.310, 23.94564
1252.792, 24.06610
1253.275, 24.66631
1253.757, 24.80756
1254.239, 24.53814
1254.721, 24.49696
1255.203, 24.67537
1255.685, 24.73102
1256.167, 24.59988
1256.649, 24.43776
1257.131, 24.32444
1257.614, 24.27460
1258.096, 24.33951
1258.578, 24.42758
1259.060, 24.41335
1259.542, 24.37496
1260.024, 24.30733
1260.506, 24.34256
1260.988, 24.87209
1261.471, 25.73054
1261.953, 26.06366
1262.435, 25.52375
1262.917, 25.03724
1263.399, 24.86474
1263.881, 24.73254
1264.363, 24.49850
1264.845, 24.37851
1265.328, 24.54819
1265.810, 24.81211
1266.292, 24.97448
1266.774, 25.03156
1267.256, 24.92424
1267.738, 24.61334
1268.220, 24.62703
1268.702, 24.98383
1269.184, 24.96424
1269.667, 24.45662
1270.149, 24.22294
1270.631, 24.60998
1271.113, 25.18641
1271.595, 25.63700
1272.077, 25.80362
1272.559, 25.16376
1273.041, 24.31416
1273.523, 24.20389
1274.006, 24.52715
1274.488, 24.67566
1274.970, 24.65633
1275.452, 24.85904
1275.934, 25.38814
1276.416, 25.65784
1276.898, 25.20775
1277.380, 24.83635
1277.863, 24.80441
1278.345, 24.84075
1278.827, 24.77801
1279.309, 24.77648
1279.791, 25.01011
1280.273, 25.36954
1280.755, 25.61291
1281.237, 25.74122
1281.719, 25.82813
1282.202, 25.86697
1282.684, 25.94317
1283.166, 26.06573
1283.648, 26.35225
1284.130, 26.82237
1284.612, 26.97763
1285.094, 26.43479
1285.576, 25.79491
1286.059, 25.92513
1286.541, 26.31499
1287.023, 26.39462
1287.505, 26.15992
##END=



