##NAMES=Staurolite
##RRUFFID=R080120
##IDEAL CHEMISTRY=Fe^2+^_2_Al_9_Si_4_O_23_(OH)
##LOCALITY=Bahia, Brazil
##OWNER=RRUFF
##SOURCE=Shinichi Kihara
##DESCRIPTION=Brown cruciform twins
##STATUS=The identification of this mineral has been confirmed by single-crystal X-ray diffraction.
##URL=rruff.info/R080120
91.00781, 4.489568
91.48993, 4.701138
91.97205, 4.785874
92.45416, 4.591468
92.93628, 4.276582
93.41840, 4.212678
93.90051, 4.513333
94.38263, 4.989586
94.86475, 5.371089
95.34686, 5.658061
95.82898, 5.873266
96.31110, 5.957850
96.79321, 5.935269
97.27533, 6.050095
97.75745, 6.330071
98.23956, 6.788253
98.72168, 7.435972
99.20380, 8.221552
99.68591, 9.335642
100.1680, 11.26674
100.6501, 14.28780
101.1323, 16.68626
101.6144, 17.71623
102.0965, 17.21774
102.5786, 17.30577
103.0607, 18.09806
103.5428, 19.37169
104.0250, 20.80350
104.5071, 22.41335
104.9892, 24.12788
105.4713, 25.91097
105.9534, 27.76549
106.4355, 29.67864
106.9177, 31.72320
107.3998, 33.82887
107.8819, 35.83564
108.3640, 37.35604
108.8461, 39.06445
109.3282, 41.30446
109.8104, 44.72639
110.2925, 47.88166
110.7746, 50.64682
111.2567, 53.03883
111.7388, 55.30381
112.2209, 57.09573
112.7031, 58.94015
113.1852, 61.22304
113.6673, 64.42109
114.1494, 67.65961
114.6315, 70.58212
115.1136, 73.18339
115.5958, 76.18214
116.0779, 80.17416
116.5600, 84.57552
117.0421, 88.71374
117.5242, 92.13482
118.0063, 95.44662
118.4885, 99.03356
118.9706, 102.9716
119.4527, 106.9463
119.9348, 110.8245
120.4169, 114.6021
120.8990, 118.3345
121.3812, 122.3234
121.8633, 126.1254
122.3454, 129.2592
122.8275, 131.6111
123.3096, 133.4603
123.7917, 134.8064
124.2739, 135.7721
124.7560, 136.8074
125.2381, 138.2022
125.7202, 139.8644
126.2023, 141.6122
126.6844, 143.4071
127.1666, 145.2899
127.6487, 147.3608
128.1308, 149.6196
128.6129, 151.8943
129.0950, 154.0211
129.5771, 156.0567
130.0593, 158.2338
130.5414, 160.7215
131.0235, 163.3354
131.5056, 165.2403
131.9877, 165.7349
132.4698, 165.6131
132.9520, 166.6724
133.4341, 168.8509
133.9162, 171.1834
134.3983, 173.4972
134.8804, 175.7428
135.3625, 177.4122
135.8447, 178.3699
136.3268, 179.1442
136.8089, 180.6241
137.2910, 182.9789
137.7731, 185.0680
138.2552, 186.4183
138.7374, 186.9493
139.2195, 187.4170
139.7016, 187.8646
140.1837, 188.2120
140.6658, 188.2356
141.1479, 187.7851
141.6301, 187.3473
142.1122, 187.1433
142.5943, 187.2310
143.0764, 187.3632
143.5585, 187.4957
144.0406, 187.6633
144.5228, 188.0461
145.0049, 188.8894
145.4870, 189.6369
145.9691, 189.9565
146.4512, 189.5193
146.9333, 189.2183
147.4155, 189.2831
147.8976, 189.6341
148.3797, 189.4707
148.8618, 188.1898
149.3439, 186.8294
149.8260, 186.0562
150.3082, 186.6912
150.7903, 186.9866
151.2724, 186.6256
151.7545, 185.5860
152.2366, 184.7869
152.7188, 184.5844
153.2009, 184.4666
153.6830, 184.0245
154.1651, 183.2203
154.6472, 182.0831
155.1293, 180.5582
155.6115, 178.6010
156.0936, 176.6055
156.5757, 174.5566
157.0578, 172.5261
157.5399, 170.6219
158.0220, 168.6564
158.5042, 166.9962
158.9863, 165.8768
159.4684, 165.4126
159.9505, 164.9794
160.4326, 164.1964
160.9147, 163.3657
161.3969, 162.9363
161.8790, 164.0871
162.3611, 164.9456
162.8432, 164.2791
163.3253, 161.4211
163.8074, 158.6441
164.2896, 156.9051
164.7717, 155.9742
165.2538, 155.3983
165.7359, 155.2081
166.2180, 155.1538
166.7001, 155.0571
167.1823, 154.8918
167.6644, 154.6625
168.1465, 154.3445
168.6286, 153.9582
169.1107, 153.5629
169.5928, 153.3376
170.0750, 153.0611
170.5571, 152.4514
171.0392, 151.2642
171.5213, 150.0477
172.0034, 149.2966
172.4855, 148.9335
172.9677, 148.6302
173.4498, 148.1991
173.9319, 147.6890
174.4140, 147.1476
174.8961, 146.4797
175.3782, 145.9091
175.8604, 145.7976
176.3425, 146.0862
176.8246, 146.2893
177.3067, 145.8879
177.7888, 145.1438
178.2709, 144.6181
178.7531, 144.6524
179.2352, 144.8430
179.7173, 144.5522
180.1994, 143.7943
180.6815, 142.9123
181.1636, 142.0811
181.6458, 141.3469
182.1279, 140.8841
182.6100, 140.8496
183.0921, 141.0730
183.5742, 141.2789
184.0563, 141.4707
184.5385, 141.5091
185.0206, 141.0958
185.5027, 140.3376
185.9848, 139.7798
186.4669, 139.7477
186.9490, 140.0376
187.4312, 140.0157
187.9133, 139.6540
188.3954, 139.1689
188.8775, 138.8210
189.3596, 138.5938
189.8417, 138.3128
190.3239, 137.8711
190.8060, 137.3095
191.2881, 136.8423
191.7702, 136.4725
192.2523, 136.2068
192.7344, 136.1102
193.2166, 136.1840
193.6987, 136.2071
194.1808, 136.0407
194.6629, 135.7112
195.1450, 135.5538
195.6271, 135.6230
196.1093, 135.7253
196.5914, 135.5296
197.0735, 135.0087
197.5556, 134.5194
198.0377, 134.1563
198.5198, 133.9143
199.0020, 134.0436
199.4841, 134.7065
199.9662, 135.4510
200.4483, 135.4225
200.9304, 134.4791
201.4125, 133.6232
201.8947, 133.3331
202.3768, 133.6525
202.8589, 134.0083
203.3410, 134.4516
203.8231, 134.8623
204.3052, 134.9646
204.7874, 134.6894
205.2695, 134.4068
205.7516, 134.3210
206.2337, 134.4846
206.7158, 134.4556
207.1979, 134.1303
207.6801, 133.7082
208.1622, 133.6292
208.6443, 133.9727
209.1264, 134.4081
209.6085, 134.8197
210.0906, 135.2335
210.5728, 135.4785
211.0549, 135.4611
211.5370, 135.3387
212.0191, 135.4771
212.5012, 135.9385
212.9833, 136.5117
213.4655, 137.1475
213.9476, 137.9369
214.4297, 138.4463
214.9118, 138.5584
215.3939, 138.4434
215.8760, 138.5429
216.3581, 138.9462
216.8403, 139.3775
217.3224, 139.6845
217.8045, 139.7973
218.2866, 140.0092
218.7687, 140.3611
219.2508, 140.7979
219.7330, 141.1550
220.2151, 141.3799
220.6972, 141.6125
221.1793, 141.9022
221.6614, 142.2264
222.1435, 142.6763
222.6257, 143.3088
223.1078, 144.0501
223.5899, 144.7269
224.0720, 145.3721
224.5541, 145.9043
225.0362, 146.2721
225.5184, 146.3694
226.0005, 146.5830
226.4826, 147.0328
226.9647, 147.5789
227.4468, 147.7927
227.9289, 147.4108
228.4111, 147.1067
228.8932, 147.2390
229.3753, 148.1064
229.8574, 148.6903
230.3395, 148.8414
230.8216, 148.7290
231.3038, 148.8468
231.7859, 149.4011
232.2680, 149.8791
232.7501, 150.0023
233.2322, 149.4703
233.7143, 149.2639
234.1965, 149.4819
234.6786, 150.0062
235.1607, 150.5113
235.6428, 150.9536
236.1249, 151.4349
236.6070, 152.0079
237.0892, 152.7296
237.5713, 153.4285
238.0534, 154.2071
238.5355, 154.9340
239.0176, 155.2383
239.4997, 154.8712
239.9819, 154.4413
240.4640, 154.2125
240.9461, 154.2716
241.4282, 154.3254
241.9103, 154.3806
242.3924, 154.4298
242.8746, 154.4417
243.3567, 154.3502
243.8388, 154.3262
244.3209, 154.4826
244.8030, 154.9942
245.2851, 155.2029
245.7673, 154.9492
246.2494, 154.4606
246.7315, 154.2430
247.2136, 154.4612
247.6957, 154.6900
248.1778, 154.7529
248.6600, 154.5672
249.1421, 154.4703
249.6242, 154.5002
250.1063, 154.5973
250.5884, 154.6420
251.0705, 154.5956
251.5527, 154.5590
252.0348, 154.5556
252.5169, 154.5641
252.9990, 154.7007
253.4811, 155.0794
253.9632, 155.5115
254.4454, 155.6136
254.9275, 155.1445
255.4096, 154.8087
255.8917, 154.9159
256.3738, 155.6310
256.8560, 155.9923
257.3381, 155.8153
257.8202, 155.4431
258.3023, 155.4491
258.7844, 156.0777
259.2665, 156.5543
259.7487, 156.6328
260.2308, 156.2723
260.7129, 155.7634
261.1950, 155.0349
261.6771, 154.2377
262.1592, 153.5665
262.6414, 153.0288
263.1235, 152.6235
263.6056, 152.4477
264.0877, 152.5406
264.5698, 152.1776
265.0519, 151.1395
265.5341, 149.9482
266.0162, 149.2583
266.4983, 149.2653
266.9804, 149.1874
267.4625, 148.8150
267.9446, 148.1562
268.4268, 147.4773
268.9089, 146.7717
269.3910, 146.0817
269.8731, 145.4166
270.3552, 144.7443
270.8373, 144.2561
271.3195, 144.0556
271.8016, 144.1035
272.2837, 143.9398
272.7658, 143.4679
273.2479, 142.9957
273.7300, 142.7972
274.2122, 142.8943
274.6943, 143.1302
275.1764, 143.4834
275.6585, 143.9519
276.1406, 144.5755
276.6227, 145.4174
277.1049, 146.2102
277.5870, 146.6119
278.0691, 146.5576
278.5512, 146.9130
279.0333, 147.9517
279.5154, 149.4252
279.9976, 150.3832
280.4797, 150.6994
280.9618, 151.1653
281.4439, 152.4761
281.9260, 154.6360
282.4081, 156.6056
282.8903, 158.0956
283.3724, 159.4933
283.8545, 161.9473
284.3366, 165.5668
284.8187, 169.0936
285.3008, 171.4176
285.7830, 172.6994
286.2651, 174.5958
286.7472, 177.3176
287.2293, 180.6125
287.7114, 184.1771
288.1935, 188.0076
288.6757, 191.7621
289.1578, 195.1875
289.6399, 198.3535
290.1220, 201.3762
290.6041, 204.2141
291.0862, 207.1230
291.5684, 210.4753
292.0505, 214.2635
292.5326, 218.2444
293.0147, 222.4034
293.4968, 226.6751
293.9789, 230.9768
294.4611, 235.2519
294.9432, 239.6470
295.4253, 244.1788
295.9074, 248.9355
296.3895, 254.1590
296.8716, 260.1997
297.3538, 266.7697
297.8359, 273.2994
298.3180, 279.8378
298.8001, 286.4865
299.2822, 293.5070
299.7643, 300.8207
300.2465, 308.1349
300.7286, 315.6443
301.2107, 322.8869
301.6928, 329.4164
302.1749, 335.1767
302.6570, 340.1806
303.1392, 344.7579
303.6213, 348.4973
304.1034, 350.6088
304.5855, 350.9224
305.0676, 349.4991
305.5497, 346.2309
306.0319, 341.2287
306.5140, 334.8917
306.9961, 327.0904
307.4782, 318.3275
307.9603, 308.9425
308.4424, 298.6580
308.9246, 288.5759
309.4067, 279.5994
309.8888, 271.5590
310.3709, 263.8025
310.8530, 256.0211
311.3351, 248.4389
311.8173, 241.2726
312.2994, 234.5004
312.7815, 228.0601
313.2636, 221.8126
313.7457, 215.9321
314.2278, 210.6946
314.7100, 206.3619
315.1921, 202.6728
315.6742, 199.6121
316.1563, 197.2822
316.6384, 194.9678
317.1205, 192.3633
317.6027, 189.6410
318.0848, 187.0324
318.5669, 184.5657
319.0490, 182.2643
319.5311, 180.1149
320.0132, 178.1135
320.4954, 176.3419
320.9775, 174.9394
321.4596, 173.7310
321.9417, 172.5914
322.4238, 171.3620
322.9059, 170.3338
323.3881, 169.6814
323.8702, 169.3721
324.3523, 168.9396
324.8344, 168.2137
325.3165, 167.4171
325.7986, 166.6757
326.2808, 165.9356
326.7629, 165.3292
327.2450, 164.9088
327.7271, 164.6414
328.2092, 164.3935
328.6913, 164.1720
329.1735, 163.9632
329.6556, 163.7446
330.1377, 163.4102
330.6198, 163.2671
331.1019, 163.3723
331.5840, 163.6491
332.0662, 163.9602
332.5483, 164.3128
333.0304, 164.6883
333.5125, 165.0799
333.9946, 165.4993
334.4767, 165.8987
334.9589, 166.3242
335.4410, 166.6783
335.9231, 166.8009
336.4052, 166.5793
336.8873, 166.4236
337.3694, 166.4501
337.8516, 166.6483
338.3336, 166.8385
338.8158, 167.0473
339.2979, 167.1989
339.7800, 167.1930
340.2621, 167.0000
340.7442, 166.8966
341.2263, 167.0072
341.7085, 167.2062
342.1906, 167.0168
342.6727, 166.3874
343.1548, 165.6848
343.6369, 165.1545
344.1190, 164.7884
344.6012, 164.3762
345.0833, 163.8670
345.5654, 163.3594
346.0475, 163.0747
346.5296, 162.9976
347.0117, 162.8857
347.4939, 162.5633
347.9760, 162.1013
348.4581, 161.7295
348.9402, 161.4693
349.4223, 161.2388
349.9044, 160.8163
350.3866, 160.3122
350.8687, 160.1003
351.3508, 160.7025
351.8329, 161.5244
352.3150, 161.5365
352.7971, 160.7586
353.2793, 159.8907
353.7614, 159.3880
354.2435, 159.1680
354.7256, 159.0950
355.2077, 159.1460
355.6898, 159.3076
356.1720, 159.6799
356.6541, 160.1953
357.1362, 160.5649
357.6183, 160.4871
358.1004, 160.2647
358.5826, 160.1865
359.0647, 160.3695
359.5468, 160.5353
360.0289, 160.5068
360.5110, 160.3572
360.9931, 160.2252
361.4753, 159.9667
361.9574, 159.8987
362.4395, 160.2373
362.9216, 161.0568
363.4037, 161.9214
363.8858, 162.9970
364.3680, 163.9392
364.8501, 164.3868
365.3322, 163.6433
365.8143, 163.0317
366.2964, 162.9041
366.7785, 163.2602
367.2607, 163.6680
367.7428, 164.2415
368.2249, 164.7574
368.7070, 165.0765
369.1891, 164.9175
369.6712, 164.9355
370.1534, 165.2417
370.6355, 165.7388
371.1176, 166.1138
371.5997, 166.2137
372.0818, 166.3814
372.5639, 166.7727
373.0461, 167.4776
373.5282, 168.1021
374.0103, 168.6102
374.4924, 169.0781
374.9745, 169.6493
375.4566, 170.4073
375.9388, 171.0150
376.4209, 171.3437
376.9030, 171.4144
377.3851, 171.4132
377.8672, 171.2550
378.3493, 171.3011
378.8315, 172.0699
379.3136, 173.5893
379.7957, 174.7593
380.2778, 175.2914
380.7599, 175.4560
381.2420, 175.9187
381.7242, 176.6715
382.2063, 177.4939
382.6884, 178.2054
383.1705, 178.8586
383.6526, 179.6477
384.1347, 180.6167
384.6169, 181.5961
385.0990, 182.3560
385.5811, 182.9324
386.0632, 183.4108
386.5453, 183.7626
387.0274, 184.0718
387.5096, 184.4382
387.9917, 184.8624
388.4738, 185.3343
388.9559, 185.8854
389.4380, 186.4607
389.9201, 186.9892
390.4023, 187.4119
390.8844, 187.8222
391.3665, 188.3471
391.8486, 188.9346
392.3307, 189.3713
392.8128, 189.3391
393.2950, 189.2612
393.7771, 189.4507
394.2592, 190.0634
394.7413, 190.6457
395.2234, 191.1393
395.7055, 191.4879
396.1877, 191.6050
396.6698, 191.1825
397.1519, 190.8003
397.6340, 190.6859
398.1161, 190.8923
398.5982, 190.9579
399.0804, 190.8955
399.5625, 190.6596
400.0446, 190.2022
400.5267, 189.2144
401.0088, 188.4656
401.4909, 188.0701
401.9731, 187.9716
402.4552, 187.9737
402.9373, 188.1752
403.4194, 188.3194
403.9015, 188.2746
404.3836, 187.9990
404.8658, 187.6727
405.3479, 187.2440
405.8300, 186.8336
406.3121, 186.6963
406.7942, 186.8952
407.2763, 186.8831
407.7585, 186.3434
408.2406, 185.4243
408.7227, 185.0063
409.2048, 185.1207
409.6869, 185.4548
410.1690, 185.8370
410.6512, 186.2300
411.1333, 186.4641
411.6154, 186.4865
412.0975, 186.3765
412.5796, 186.1602
413.0617, 185.8816
413.5439, 185.7484
414.0260, 186.0354
414.5081, 186.4813
414.9902, 186.5822
415.4723, 186.2479
415.9544, 186.1778
416.4366, 187.2881
416.9187, 188.9570
417.4008, 190.2470
417.8829, 190.5040
418.3650, 190.5509
418.8471, 190.8170
419.3293, 191.2826
419.8114, 191.8328
420.2935, 192.4112
420.7756, 193.0607
421.2577, 193.7936
421.7398, 194.6194
422.2220, 195.5370
422.7041, 196.6091
423.1862, 197.7711
423.6683, 198.9086
424.1504, 200.1337
424.6325, 201.2256
425.1147, 202.0767
425.5968, 202.6664
426.0789, 203.3115
426.5610, 204.0228
427.0431, 204.7799
427.5252, 205.5766
428.0074, 206.4820
428.4895, 207.2478
428.9716, 207.7663
429.4537, 208.1414
429.9358, 208.7123
430.4179, 209.5182
430.9001, 210.3676
431.3822, 211.1759
431.8643, 211.9430
432.3464, 212.5762
432.8285, 212.9923
433.3106, 213.5456
433.7928, 214.8871
434.2749, 216.9015
434.7570, 218.5910
435.2391, 219.4785
435.7212, 219.9889
436.2033, 221.0277
436.6855, 222.5335
437.1676, 223.9713
437.6497, 224.7447
438.1318, 225.2675
438.6139, 226.2780
439.0960, 228.0508
439.5782, 229.7396
440.0603, 230.4832
440.5424, 230.6628
441.0245, 230.9820
441.5066, 231.6850
441.9887, 232.6642
442.4709, 234.1004
442.9530, 235.9535
443.4351, 237.3384
443.9172, 237.7344
444.3993, 237.6289
444.8814, 237.3674
445.3636, 237.0704
445.8457, 236.5362
446.3278, 235.6084
446.8099, 234.4258
447.2920, 233.3084
447.7741, 232.3101
448.2563, 231.3238
448.7384, 230.3517
449.2205, 229.3950
449.7026, 228.4098
450.1847, 227.5210
450.6668, 226.4690
451.1490, 224.9561
451.6311, 222.8360
452.1132, 220.8043
452.5953, 218.9308
453.0774, 217.2195
453.5595, 215.6140
454.0417, 214.1190
454.5238, 212.6205
455.0059, 210.9797
455.4880, 209.2563
455.9701, 207.7095
456.4522, 206.3697
456.9344, 205.0973
457.4165, 203.7238
457.8986, 202.2884
458.3807, 200.9463
458.8628, 199.7544
459.3449, 198.6509
459.8271, 197.6243
460.3092, 196.6377
460.7913, 195.5161
461.2734, 193.6105
461.7555, 191.8603
462.2376, 191.2848
462.7198, 192.3416
463.2019, 193.0880
463.6840, 192.3247
464.1661, 190.8376
464.6482, 189.5771
465.1303, 188.7499
465.6125, 188.2133
466.0946, 188.0821
466.5767, 188.2952
467.0588, 188.3266
467.5409, 188.0838
468.0230, 187.7001
468.5052, 187.1974
468.9873, 186.4285
469.4694, 185.9097
469.9515, 185.6633
470.4336, 185.6499
470.9157, 185.9046
471.3979, 186.5905
471.8800, 186.9646
472.3621, 186.7252
472.8442, 186.0371
473.3263, 185.7226
473.8084, 185.8281
474.2906, 185.9453
474.7727, 185.6727
475.2548, 185.1233
475.7369, 184.8597
476.2190, 184.9585
476.7011, 185.2605
477.1833, 185.5963
477.6654, 185.9818
478.1475, 186.4629
478.6296, 187.1718
479.1117, 187.9077
479.5938, 188.4936
480.0760, 188.9338
480.5581, 189.2384
481.0402, 189.2931
481.5223, 189.2931
482.0044, 189.4253
482.4865, 189.8126
482.9687, 190.0885
483.4508, 189.8787
483.9329, 189.5493
484.4150, 189.6231
484.8971, 190.7490
485.3792, 191.6983
485.8614, 192.1564
486.3435, 192.1543
486.8256, 192.0736
487.3077, 191.6749
487.7898, 191.4791
488.2719, 191.8356
488.7541, 192.9821
489.2362, 193.8933
489.7183, 194.5358
490.2004, 194.9790
490.6825, 195.3122
491.1646, 195.5291
491.6468, 195.6931
492.1289, 195.7729
492.6110, 195.8391
493.0931, 196.1201
493.5752, 196.6160
494.0573, 197.1959
494.5395, 197.8301
495.0216, 198.4723
495.5037, 199.0893
495.9858, 199.6958
496.4679, 200.1029
496.9500, 199.9926
497.4322, 199.5827
497.9143, 199.2355
498.3964, 199.1434
498.8785, 199.1110
499.3606, 198.9991
499.8427, 198.8417
500.3249, 198.8021
500.8070, 199.1914
501.2891, 199.5148
501.7712, 199.4456
502.2533, 198.7120
502.7354, 198.2744
503.2176, 198.4124
503.6997, 198.7734
504.1818, 199.0319
504.6639, 199.3011
505.1460, 199.2254
505.6281, 198.6032
506.1103, 197.6138
506.5924, 197.0443
507.0745, 197.0298
507.5566, 196.9500
508.0387, 196.3426
508.5208, 195.2544
509.0030, 194.7462
509.4851, 194.9063
509.9672, 195.1528
510.4493, 194.7789
510.9314, 193.9641
511.4135, 193.3389
511.8957, 193.1740
512.3778, 193.0872
512.8599, 192.5459
513.3420, 191.7043
513.8242, 191.0107
514.3063, 190.7998
514.7884, 190.7491
515.2705, 190.6490
515.7526, 190.4860
516.2347, 190.2349
516.7169, 189.7692
517.1990, 189.2773
517.6811, 188.9029
518.1632, 188.7614
518.6453, 188.6070
519.1274, 188.3131
519.6096, 188.0059
520.0917, 187.9498
520.5738, 188.3954
521.0559, 188.6670
521.5380, 188.5281
522.0201, 188.0108
522.5023, 187.7006
522.9844, 187.6618
523.4665, 187.6490
523.9486, 187.4246
524.4307, 187.0075
524.9128, 186.8288
525.3950, 186.9514
525.8771, 187.2193
526.3592, 187.5203
526.8413, 187.8104
527.3234, 187.9396
527.8055, 187.8166
528.2877, 187.5357
528.7698, 187.1838
529.2519, 186.7632
529.7340, 186.2733
530.2161, 185.4291
530.6982, 184.7108
531.1804, 184.6013
531.6625, 185.2982
532.1446, 185.7617
532.6267, 185.4358
533.1088, 184.8276
533.5909, 184.4100
534.0731, 184.5671
534.5552, 184.5119
535.0373, 184.0376
535.5194, 183.3405
536.0015, 182.9087
536.4836, 182.8754
536.9658, 182.8345
537.4479, 182.5820
537.9300, 182.1394
538.4121, 182.0951
538.8942, 182.5265
539.3763, 183.0233
539.8585, 183.2527
540.3406, 183.2437
540.8227, 183.1272
541.3048, 182.8764
541.7869, 182.6741
542.2690, 182.9063
542.7512, 183.3729
543.2333, 183.5673
543.7154, 182.8643
544.1975, 182.1512
544.6796, 182.3103
545.1617, 183.1495
545.6439, 183.8155
546.1260, 183.6021
546.6081, 183.3418
547.0902, 183.5857
547.5723, 184.5480
548.0544, 185.3496
548.5366, 185.6449
549.0187, 185.8630
549.5008, 186.4115
549.9829, 187.6970
550.4650, 188.5728
550.9471, 188.8920
551.4293, 188.7762
551.9114, 188.4142
552.3935, 187.7116
552.8756, 187.2155
553.3577, 187.0980
553.8398, 187.3559
554.3220, 188.1964
554.8041, 189.6505
555.2862, 190.8488
555.7683, 190.9117
556.2504, 190.2788
556.7325, 189.7742
557.2147, 189.4790
557.6968, 189.4642
558.1789, 190.0656
558.6610, 190.9192
559.1431, 191.4825
559.6252, 191.1502
560.1074, 190.9101
560.5895, 191.3184
561.0716, 192.1606
561.5537, 192.7115
562.0358, 192.5226
562.5179, 192.3192
563.0001, 192.3844
563.4822, 192.7549
563.9643, 192.9993
564.4464, 193.0866
564.9285, 193.0932
565.4106, 193.0281
565.8928, 192.8504
566.3749, 192.9157
566.8570, 193.3161
567.3391, 193.8281
567.8212, 194.1706
568.3033, 194.3419
568.7855, 194.2789
569.2676, 193.8020
569.7497, 193.2408
570.2318, 193.2542
570.7139, 193.6796
571.1960, 193.8058
571.6782, 192.7477
572.1603, 191.5298
572.6424, 191.1044
573.1245, 191.6008
573.6066, 191.9896
574.0887, 191.7967
574.5709, 191.3876
575.0530, 191.0504
575.5351, 190.9752
576.0172, 190.7411
576.4993, 190.2272
576.9814, 189.6031
577.4636, 189.1897
577.9457, 189.1487
578.4278, 188.8600
578.9099, 188.0390
579.3920, 186.9113
579.8741, 186.4785
580.3563, 186.8036
580.8384, 186.9849
581.3205, 186.2480
581.8026, 184.9573
582.2847, 184.2632
582.7668, 184.2042
583.2490, 184.2285
583.7311, 183.7991
584.2132, 183.2057
584.6953, 182.8585
585.1774, 183.0002
585.6595, 183.0527
586.1416, 182.6100
586.6237, 181.9151
587.1058, 181.3295
587.5880, 181.2203
588.0701, 180.9202
588.5522, 180.0442
589.0343, 178.7870
589.5164, 178.0650
589.9985, 178.0369
590.4807, 178.2875
590.9628, 178.7787
591.4449, 179.5236
591.9270, 179.6931
592.4091, 179.1799
592.8912, 178.5449
593.3734, 178.2697
593.8555, 178.3043
594.3376, 178.4569
594.8197, 178.7332
595.3018, 178.9834
595.7839, 179.0807
596.2661, 179.0297
596.7482, 178.8331
597.2303, 178.2609
597.7124, 177.7859
598.1945, 177.8027
598.6766, 178.1538
599.1588, 178.3781
599.6409, 178.2567
600.1230, 178.0647
600.6051, 177.8471
601.0872, 177.5951
601.5693, 177.5727
602.0515, 177.9697
602.5336, 178.3349
603.0157, 178.2983
603.4978, 177.7202
603.9799, 177.6236
604.4620, 178.1015
604.9442, 178.8676
605.4263, 179.7872
605.9084, 180.7629
606.3905, 181.1168
606.8726, 180.5365
607.3547, 179.5922
607.8369, 178.7274
608.3190, 178.0468
608.8011, 177.7936
609.2832, 178.5459
609.7653, 179.3731
610.2474, 179.6604
610.7296, 179.4601
611.2117, 179.2806
611.6938, 179.3407
612.1759, 179.3839
612.6580, 179.2654
613.1401, 178.9325
613.6223, 178.6521
614.1044, 178.4075
614.5865, 178.2411
615.0686, 178.1786
615.5507, 178.2126
616.0328, 178.5071
616.5150, 179.2150
616.9971, 179.8603
617.4792, 179.5045
617.9613, 178.3813
618.4434, 177.5762
618.9255, 177.5816
619.4077, 177.9264
619.8898, 178.1367
620.3719, 178.2452
620.8540, 178.3552
621.3361, 178.6628
621.8182, 178.8622
622.3004, 178.6638
622.7825, 178.0672
623.2646, 177.7173
623.7467, 177.9508
624.2288, 178.2878
624.7109, 178.5062
625.1931, 178.6043
625.6752, 178.5628
626.1573, 178.3263
626.6394, 178.0353
627.1215, 177.7555
627.6036, 177.4809
628.0858, 177.6357
628.5679, 178.4378
629.0500, 179.2985
629.5321, 179.1098
630.0142, 176.5488
630.4963, 178.7197
630.9785, 179.9654
631.4606, 180.3355
631.9427, 177.2080
632.4248, 178.5971
632.9069, 178.1761
633.3890, 177.6809
633.8712, 179.7056
634.3533, 177.0868
634.8354, 179.0716
635.3175, 179.2187
635.7996, 180.2069
636.2817, 179.3738
636.7639, 179.1033
637.2460, 180.6546
637.7281, 181.1971
638.2102, 180.1544
638.6923, 181.1960
639.1744, 178.5136
639.6566, 179.0991
640.1387, 181.0945
640.6208, 180.1434
641.1029, 181.2183
641.5850, 181.5216
642.0671, 178.3182
642.5493, 179.7043
643.0314, 180.3965
643.5135, 180.9516
643.9956, 180.7957
644.4777, 180.1670
644.9598, 179.8062
645.4420, 180.2251
645.9241, 180.5788
646.4062, 180.4654
646.8883, 179.9295
647.3704, 180.0927
647.8525, 181.2814
648.3347, 182.4523
648.8168, 182.9581
649.2989, 182.8226
649.7810, 182.5394
650.2631, 182.0813
650.7452, 181.7191
651.2274, 181.8172
651.7095, 182.1879
652.1916, 182.4153
652.6737, 182.3616
653.1558, 182.3795
653.6379, 182.8888
654.1201, 183.5703
654.6022, 184.0070
655.0843, 183.8599
655.5664, 183.7044
656.0485, 183.7305
656.5306, 183.8273
657.0128, 183.7387
657.4949, 183.3775
657.9770, 182.9960
658.4591, 182.6589
658.9412, 182.3503
659.4233, 182.0080
659.9055, 181.6328
660.3876, 181.2074
660.8697, 180.5260
661.3518, 179.8211
661.8339, 179.9221
662.3160, 180.7619
662.7982, 181.2634
663.2803, 180.2543
663.7624, 178.7726
664.2445, 177.8594
664.7266, 177.7293
665.2087, 177.6271
665.6909, 177.2513
666.1730, 176.8267
666.6551, 176.5488
667.1372, 176.5809
667.6193, 176.4607
668.1014, 176.0665
668.5836, 175.6426
669.0657, 175.6454
669.5478, 176.1441
670.0299, 176.1480
670.5120, 175.2186
670.9941, 174.1183
671.4763, 174.5810
671.9584, 176.1542
672.4405, 177.0838
672.9226, 175.9057
673.4047, 174.3141
673.8868, 173.8831
674.3690, 174.3140
674.8511, 174.5282
675.3332, 173.7253
675.8153, 172.9778
676.2974, 172.8807
676.7795, 173.4820
677.2617, 173.5834
677.7438, 172.8386
678.2259, 172.1199
678.7080, 171.9168
679.1901, 172.2679
679.6722, 172.4653
680.1544, 172.4830
680.6365, 172.5134
681.1186, 172.7852
681.6007, 173.2049
682.0828, 173.5676
682.5649, 173.8552
683.0471, 173.9957
683.5292, 173.8912
684.0113, 173.6151
684.4934, 173.2402
684.9755, 172.5886
685.4576, 172.1361
685.9398, 172.0416
686.4219, 172.2092
686.9040, 172.4749
687.3861, 172.9264
687.8682, 173.2930
688.3503, 173.4905
688.8325, 173.6105
689.3146, 173.9718
689.7967, 174.5822
690.2788, 174.9277
690.7609, 174.6758
691.2430, 174.1222
691.7252, 173.6928
692.2073, 173.4040
692.6894, 173.3474
693.1715, 173.8053
693.6536, 174.3287
694.1357, 174.5137
694.6179, 174.3638
695.1000, 174.4387
695.5821, 175.2535
696.0642, 175.9741
696.5463, 176.1261
697.0284, 175.5569
697.5106, 175.5076
697.9927, 176.1994
698.4748, 176.8992
698.9569, 176.8934
699.4390, 176.2885
699.9211, 175.9826
700.4033, 176.0705
700.8854, 176.2342
701.3675, 176.0536
701.8496, 175.7683
702.3317, 175.8045
702.8138, 176.4174
703.2960, 176.9448
703.7781, 176.8378
704.2602, 176.5383
704.7423, 176.5874
705.2244, 177.4125
705.7065, 178.1677
706.1887, 178.9377
706.6708, 179.5159
707.1529, 179.3707
707.6350, 178.3017
708.1171, 177.7371
708.5992, 178.1909
709.0814, 179.1835
709.5635, 179.8521
710.0456, 180.2053
710.5277, 180.2769
711.0098, 179.8445
711.4919, 179.3323
711.9741, 179.0451
712.4562, 178.9849
712.9383, 179.1358
713.4204, 179.6333
713.9025, 180.2129
714.3846, 180.8545
714.8668, 181.5476
715.3489, 181.9082
715.8310, 181.7956
716.3131, 181.6357
716.7952, 181.6184
717.2773, 181.7412
717.7595, 182.0428
718.2416, 182.5370
718.7237, 182.9431
719.2058, 182.8887
719.6879, 182.6537
720.1700, 182.6853
720.6522, 183.0363
721.1343, 183.5113
721.6164, 184.1984
722.0985, 184.8360
722.5806, 185.1945
723.0627, 185.0354
723.5449, 185.0598
724.0270, 185.2941
724.5091, 185.7255
724.9912, 186.4491
725.4733, 187.6024
725.9554, 188.1966
726.4376, 188.0174
726.9197, 187.6625
727.4018, 188.0475
727.8839, 188.9383
728.3660, 189.5347
728.8481, 189.4530
729.3303, 189.4642
729.8124, 190.5245
730.2945, 192.0298
730.7766, 193.0479
731.2587, 192.9113
731.7408, 191.2229
732.2230, 193.7745
732.7051, 195.4007
733.1872, 196.1514
733.6693, 193.4044
734.1514, 195.1740
734.6335, 195.1335
735.1157, 195.0190
735.5978, 197.4242
736.0799, 195.1860
736.5620, 197.5513
737.0441, 198.0790
737.5262, 199.4476
738.0084, 198.9953
738.4905, 199.1052
738.9726, 201.0370
739.4547, 201.9601
739.9368, 201.2980
740.4189, 202.7201
740.9011, 200.4184
741.3832, 201.9136
741.8653, 202.7126
742.3474, 203.4221
742.8295, 204.0221
743.3116, 204.5142
743.7938, 204.7870
744.2759, 204.8248
744.7580, 205.1194
745.2401, 206.3303
745.7222, 207.8690
746.2043, 208.7851
746.6865, 209.0697
747.1686, 209.3040
747.6507, 209.7419
748.1328, 210.3039
748.6149, 211.0014
749.0970, 211.8945
749.5792, 212.5427
750.0613, 212.7707
750.5434, 212.9655
751.0255, 213.3098
751.5076, 213.7783
751.9897, 214.7671
752.4719, 216.3811
752.9540, 217.9778
753.4361, 218.9107
753.9182, 219.4223
754.4003, 219.9893
754.8824, 220.6596
755.3646, 221.4642
755.8467, 222.3782
756.3288, 223.4586
756.8109, 224.7307
757.2930, 226.2167
757.7751, 227.9442
758.2573, 230.4185
758.7394, 232.6729
759.2215, 233.5486
759.7036, 232.7446
760.1857, 232.7989
760.6678, 234.0225
761.1500, 235.8346
761.6321, 237.7848
762.1142, 239.7052
762.5963, 241.1109
763.0784, 241.6404
763.5605, 242.2977
764.0427, 244.0965
764.5248, 246.3190
765.0069, 248.0665
765.4890, 248.3651
765.9711, 249.2279
766.4532, 251.2360
766.9354, 253.5757
767.4175, 254.9677
767.8996, 255.2195
768.3817, 255.7563
768.8638, 256.8001
769.3459, 258.2923
769.8281, 260.4967
770.3102, 263.0861
770.7923, 265.0553
771.2744, 265.7490
771.7565, 266.2114
772.2386, 266.9209
772.7208, 267.9477
773.2029, 269.4146
773.6850, 272.0019
774.1671, 274.2089
774.6492, 275.8060
775.1313, 276.9152
775.6135, 277.6503
776.0956, 277.8956
776.5777, 278.5692
777.0598, 280.0224
777.5419, 281.8694
778.0240, 283.5463
778.5062, 285.0644
778.9883, 286.4628
779.4704, 287.5491
779.9525, 288.7145
780.4346, 290.4377
780.9167, 292.4114
781.3989, 293.9140
781.8810, 294.1747
782.3631, 294.7203
782.8452, 295.8505
783.3273, 297.4253
783.8094, 299.2008
784.2916, 301.2471
784.7737, 302.8229
785.2558, 303.5375
785.7379, 303.7994
786.2200, 304.2373
786.7021, 304.8533
787.1843, 305.6229
787.6664, 306.8458
788.1485, 307.9386
788.6306, 308.4312
789.1127, 308.4976
789.5948, 308.7968
790.0770, 309.7725
790.5591, 310.4283
791.0412, 310.4636
791.5233, 310.0291
792.0054, 309.6713
792.4875, 309.3943
792.9697, 308.9977
793.4518, 308.3867
793.9339, 307.6098
794.4160, 306.9359
794.8981, 306.2028
795.3802, 304.8736
795.8624, 302.2511
796.3445, 299.4134
796.8266, 297.0218
797.3087, 294.9201
797.7908, 292.1724
798.2729, 288.4568
798.7551, 284.7234
799.2372, 281.1672
799.7193, 277.7772
800.2014, 274.6061
800.6835, 271.6304
801.1656, 268.2572
801.6478, 263.8794
802.1299, 259.2218
802.6120, 255.0206
803.0941, 251.2164
803.5762, 247.5404
804.0583, 244.0217
804.5405, 240.5123
805.0226, 236.8411
805.5047, 233.1087
805.9868, 229.8363
806.4689, 227.3202
806.9510, 224.4000
807.4332, 220.5231
807.9153, 216.0824
808.3974, 212.2608
808.8795, 208.9969
809.3616, 205.9228
809.8438, 202.7700
810.3259, 199.8374
810.8080, 197.5788
811.2901, 195.7919
811.7722, 193.7402
812.2543, 190.7162
812.7365, 188.0127
813.2186, 185.9655
813.7007, 184.4578
814.1828, 183.1917
814.6649, 182.2080
815.1470, 181.0718
815.6292, 179.5726
816.1113, 177.8923
816.5934, 176.3178
817.0755, 174.8466
817.5576, 173.4998
818.0397, 172.1780
818.5219, 171.0924
819.0040, 170.6027
819.4861, 170.4606
819.9682, 169.8346
820.4503, 168.2595
820.9324, 166.9434
821.4146, 166.2147
821.8967, 165.8706
822.3788, 165.4191
822.8609, 164.8745
823.3430, 164.3958
823.8251, 164.1061
824.3073, 163.8222
824.7894, 163.3405
825.2715, 162.6930
825.7536, 161.9278
826.2357, 160.8194
826.7178, 159.8814
827.2000, 159.3300
827.6821, 159.0336
828.1642, 158.7796
828.6463, 158.5488
829.1284, 158.4474
829.6105, 158.5608
830.0927, 158.7010
830.5748, 158.4209
831.0569, 157.8604
831.5390, 157.5180
832.0211, 157.7209
832.5032, 157.9236
832.9854, 157.7027
833.4675, 157.2412
833.9496, 156.8195
834.4317, 156.4610
834.9138, 156.1984
835.3959, 156.0838
835.8781, 156.0221
836.3602, 155.8158
836.8423, 155.4681
837.3244, 155.3346
837.8065, 155.5218
838.2886, 155.8065
838.7708, 155.9403
839.2529, 155.9877
839.7350, 156.0623
840.2171, 156.2407
840.6992, 156.3541
841.1813, 156.2166
841.6635, 156.0636
842.1456, 156.1789
842.6277, 156.7442
843.1098, 157.0172
843.5919, 156.9467
844.0740, 156.6143
844.5562, 155.8140
845.0383, 154.8380
845.5204, 154.7403
846.0025, 155.8167
846.4846, 156.7991
846.9667, 156.5613
847.4489, 155.9217
847.9310, 155.6893
848.4131, 156.2591
848.8952, 156.4349
849.3773, 155.9156
849.8594, 155.3831
850.3416, 155.4434
850.8237, 156.0752
851.3058, 156.3664
851.7879, 156.2674
852.2700, 156.1425
852.7521, 156.3484
853.2343, 156.6727
853.7164, 156.8114
854.1985, 156.7221
854.6806, 156.8126
855.1627, 157.3641
855.6448, 158.0053
856.1270, 158.6101
856.6091, 159.1864
857.0912, 159.3779
857.5733, 159.1286
858.0554, 158.7919
858.5375, 158.4839
859.0197, 158.2797
859.5018, 158.4023
859.9839, 158.8091
860.4660, 159.2454
860.9481, 159.3923
861.4302, 159.6962
861.9124, 160.7824
862.3945, 162.4631
862.8766, 162.8146
863.3587, 161.1207
863.8408, 159.7592
864.3229, 159.6193
864.8051, 160.3449
865.2872, 160.9700
865.7693, 161.5122
866.2514, 162.0440
866.7335, 162.6763
867.2156, 163.2317
867.6978, 163.4692
868.1799, 163.5241
868.6620, 163.7103
869.1441, 164.2184
869.6262, 164.7075
870.1083, 165.1409
870.5905, 165.5315
871.0726, 165.8238
871.5547, 166.0303
872.0368, 166.5534
872.5189, 167.5743
873.0010, 168.7177
873.4832, 169.6446
873.9653, 170.3846
874.4474, 170.9620
874.9295, 171.1974
875.4116, 171.6067
875.8937, 172.3610
876.3759, 173.3105
876.8580, 174.3652
877.3401, 175.5771
877.8222, 176.5424
878.3043, 177.1807
878.7864, 177.8112
879.2686, 178.8400
879.7507, 180.0919
880.2328, 181.2395
880.7149, 182.2246
881.1970, 183.2305
881.6791, 184.5034
882.1613, 185.7085
882.6434, 186.5730
883.1255, 187.0331
883.6076, 187.6562
884.0897, 188.4405
884.5718, 189.4009
885.0540, 190.6567
885.5361, 192.0977
886.0182, 193.2777
886.5003, 194.2374
886.9824, 195.2514
887.4645, 196.5246
887.9467, 197.8663
888.4288, 199.2283
888.9109, 200.5677
889.3930, 201.6981
889.8751, 202.5398
890.3572, 203.3199
890.8394, 204.1347
891.3215, 204.9052
891.8036, 205.3562
892.2857, 205.5293
892.7678, 205.6658
893.2499, 205.8381
893.7321, 206.0535
894.2142, 206.3073
894.6963, 206.6155
895.1784, 207.0008
895.6605, 207.3925
896.1426, 208.0431
896.6248, 209.2387
897.1069, 210.4046
897.5890, 210.5127
898.0711, 209.6825
898.5532, 209.0817
899.0353, 208.9357
899.5175, 208.9547
899.9996, 208.9098
900.4817, 208.8454
900.9638, 208.7930
901.4459, 208.6926
901.9280, 208.8276
902.4102, 209.6587
902.8923, 210.2082
903.3744, 209.5189
903.8565, 207.5420
904.3386, 206.7678
904.8207, 207.2440
905.3029, 207.9743
905.7850, 208.2898
906.2671, 208.3711
906.7492, 208.3175
907.2313, 208.1651
907.7134, 208.2103
908.1956, 208.5489
908.6777, 209.1106
909.1598, 209.9134
909.6419, 210.9173
910.1240, 211.9335
910.6061, 212.9588
911.0883, 213.9997
911.5704, 215.0059
912.0525, 216.0812
912.5346, 217.5612
913.0167, 219.2077
913.4988, 220.5037
913.9810, 220.6614
914.4631, 221.2301
914.9452, 222.7583
915.4273, 224.6920
915.9094, 226.1376
916.3915, 227.0025
916.8737, 228.5295
917.3558, 230.9739
917.8379, 233.7320
918.3200, 236.3512
918.8021, 238.7462
919.2842, 240.6804
919.7664, 241.9232
920.2485, 243.4999
920.7306, 245.9637
921.2127, 248.6688
921.6948, 251.2032
922.1769, 253.5576
922.6591, 255.9927
923.1412, 258.5072
923.6233, 261.1964
924.1054, 264.4293
924.5875, 267.7326
925.0696, 270.3769
925.5518, 272.4651
926.0339, 274.6592
926.5160, 277.3005
926.9981, 279.9826
927.4802, 282.5911
927.9623, 285.1093
928.4445, 287.5072
928.9266, 289.7845
929.4087, 292.0788
929.8908, 294.5193
930.3729, 296.8744
930.8550, 298.9156
931.3372, 300.6454
931.8193, 301.9981
932.3014, 302.6487
932.7835, 303.4649
933.2656, 304.8915
933.7477, 306.3950
934.2299, 307.5522
934.7120, 308.3565
935.1941, 308.8433
935.6762, 309.0186
936.1583, 308.8569
936.6404, 308.2524
937.1226, 307.3364
937.6047, 306.2206
938.0868, 304.9178
938.5689, 303.6536
939.0510, 302.7292
939.5331, 301.6073
940.0153, 300.1178
940.4974, 298.2500
940.9795, 295.8503
941.4616, 292.8904
941.9437, 289.7878
942.4258, 286.6599
942.9080, 283.6149
943.3901, 280.9233
943.8722, 278.4551
944.3543, 275.9292
944.8364, 273.2286
945.3185, 270.5131
945.8007, 267.8103
946.2828, 265.1356
946.7649, 262.5276
947.2470, 259.9803
947.7291, 257.1064
948.2112, 253.7994
948.6934, 250.5866
949.1755, 247.9937
949.6576, 245.7182
950.1397, 243.3512
950.6218, 240.7818
951.1039, 238.4790
951.5861, 236.5654
952.0682, 234.8148
952.5503, 233.1546
953.0324, 231.5685
953.5145, 229.9486
953.9966, 228.3005
954.4788, 226.6191
954.9609, 224.8491
955.4430, 223.0761
955.9251, 221.2552
956.4072, 219.4882
956.8893, 218.0579
957.3715, 217.2677
957.8536, 216.3690
958.3357, 215.2633
958.8178, 214.0344
959.2999, 212.6350
959.7820, 211.1905
960.2642, 210.4544
960.7463, 210.7083
961.2284, 210.7954
961.7105, 209.5563
962.1926, 207.9832
962.6747, 206.9742
963.1569, 206.7422
963.6390, 206.3639
964.1211, 205.7615
964.6032, 205.2182
965.0853, 205.0566
965.5674, 205.0587
966.0496, 204.5502
966.5317, 203.6096
967.0138, 202.5822
967.4959, 201.4612
967.9780, 200.5086
968.4601, 199.9167
968.9423, 199.5942
969.4244, 199.3559
969.9065, 199.2099
970.3886, 199.1622
970.8707, 199.2937
971.3528, 199.2832
971.8350, 198.5811
972.3171, 197.4600
972.7992, 196.2886
973.2813, 194.9996
973.7634, 194.2901
974.2455, 194.9401
974.7277, 195.7986
975.2098, 196.2220
975.6919, 196.2080
976.1740, 195.7783
976.6561, 194.9083
977.1382, 194.1492
977.6204, 193.9593
978.1025, 193.9758
978.5846, 193.7577
979.0667, 193.3783
979.5488, 193.0596
980.0309, 192.7561
980.5131, 192.7111
980.9952, 193.1062
981.4773, 193.6198
981.9594, 193.7141
982.4415, 193.4237
982.9236, 192.9611
983.4058, 192.3158
983.8879, 191.8482
984.3700, 192.0358
984.8521, 192.4353
985.3342, 192.6440
985.8163, 192.5794
986.2985, 192.4690
986.7806, 192.3706
987.2627, 192.0981
987.7448, 191.4837
988.2269, 190.6521
988.7090, 189.8618
989.1912, 189.1697
989.6733, 188.8068
990.1554, 189.1454
990.6375, 189.5668
991.1196, 189.8617
991.6017, 190.0177
992.0839, 189.9958
992.5660, 189.7409
993.0481, 189.5531
993.5302, 189.4699
994.0123, 189.4324
994.4944, 189.4516
994.9766, 189.4341
995.4587, 189.1829
995.9408, 188.6548
996.4229, 188.2130
996.9050, 188.0563
997.3871, 187.9166
997.8693, 187.6353
998.3514, 187.2707
998.8335, 187.2254
999.3156, 187.4851
999.7977, 187.8097
1000.280, 188.2370
1000.762, 188.4904
1001.244, 188.3286
1001.726, 187.8128
1002.208, 187.0288
1002.690, 185.5735
1003.173, 184.6120
1003.655, 184.2987
1004.137, 184.2563
1004.619, 184.2825
1005.101, 184.2580
1005.583, 183.5853
1006.065, 182.2631
1006.547, 181.2300
1007.029, 181.2939
1007.512, 181.5549
1007.994, 181.5273
1008.476, 181.2442
1008.958, 180.8642
1009.440, 180.3568
1009.922, 179.9543
1010.404, 179.7998
1010.886, 179.6247
1011.369, 178.9072
1011.851, 177.9486
1012.333, 177.2840
1012.815, 177.2284
1013.297, 177.0241
1013.779, 176.4031
1014.261, 175.7664
1014.743, 175.4518
1015.225, 175.4303
1015.708, 175.0800
1016.190, 174.4235
1016.672, 173.8134
1017.154, 173.5721
1017.636, 173.3833
1018.118, 173.0040
1018.600, 172.4896
1019.082, 172.0245
1019.565, 171.5827
1020.047, 171.3098
1020.529, 171.2995
1021.011, 171.2788
1021.493, 170.7369
1021.975, 169.9306
1022.457, 169.4313
1022.939, 169.3652
1023.421, 169.3200
1023.904, 169.2404
1024.386, 168.9970
1024.868, 168.4365
1025.350, 167.6270
1025.832, 167.2961
1026.314, 167.4379
1026.796, 167.4117
1027.278, 166.7690
1027.760, 166.0283
1028.243, 165.8093
1028.725, 165.8227
1029.207, 165.5827
1029.689, 164.7762
1030.171, 164.0778
1030.653, 163.4994
1031.135, 163.0204
1031.617, 162.6329
1032.100, 162.3301
1032.582, 162.0877
1033.064, 161.8983
1033.546, 161.7109
1034.028, 161.4868
1034.510, 161.2680
1034.992, 161.1714
1035.474, 161.0769
1035.957, 160.5193
1036.439, 159.4433
1036.921, 158.8652
1037.403, 159.1998
1037.885, 159.4788
1038.367, 158.1341
1038.849, 156.3278
1039.331, 155.6784
1039.813, 156.8769
1040.296, 157.3740
1040.778, 156.8170
1041.260, 155.9637
1041.742, 155.1079
1042.224, 154.3167
1042.706, 153.8926
1043.188, 153.7756
1043.670, 153.7140
1044.152, 153.7362
1044.635, 153.6160
1045.117, 153.0048
1045.599, 152.3394
1046.081, 152.2727
1046.563, 152.9355
1047.045, 153.0750
1047.527, 152.5777
1048.009, 151.9741
1048.492, 151.7432
1048.974, 151.6530
1049.456, 151.4485
1049.938, 151.1309
1050.420, 150.9130
1050.902, 150.8873
1051.384, 150.7978
1051.866, 150.5210
1052.349, 150.2411
1052.831, 150.4117
1053.313, 150.8620
1053.795, 151.1013
1054.277, 150.9552
1054.759, 150.8104
1055.241, 150.9738
1055.723, 151.0724
1056.205, 150.8339
1056.688, 150.2685
1057.170, 149.8155
1057.652, 149.4737
1058.134, 149.2252
1058.616, 149.1823
1059.098, 149.0923
1059.580, 148.5460
1060.062, 147.8266
1060.544, 147.4888
1061.027, 147.8891
1061.509, 148.0956
1061.991, 148.0636
1062.473, 147.8660
1062.955, 147.5271
1063.437, 147.0882
1063.919, 146.5125
1064.401, 145.8587
1064.884, 145.5598
1065.366, 146.1432
1065.848, 146.7309
1066.330, 147.1080
1066.812, 147.2688
1067.294, 147.1530
1067.776, 146.7809
1068.258, 146.3042
1068.740, 145.7166
1069.223, 145.2646
1069.705, 145.3256
1070.187, 145.4719
1070.669, 145.2173
1071.151, 144.5053
1071.633, 144.4631
1072.115, 145.3033
1072.597, 145.7297
1073.079, 144.9082
1073.562, 143.7083
1074.044, 143.4577
1074.526, 143.7986
1075.008, 144.0701
1075.490, 144.1569
1075.972, 143.9762
1076.454, 143.2958
1076.936, 142.7439
1077.419, 143.0206
1077.901, 143.8701
1078.383, 144.0126
1078.865, 143.5295
1079.347, 143.0860
1079.829, 143.0049
1080.311, 143.0942
1080.793, 143.4086
1081.275, 143.7759
1081.758, 143.9319
1082.240, 143.8705
1082.722, 143.6897
1083.204, 143.3932
1083.686, 143.0402
1084.168, 142.5999
1084.650, 142.1824
1085.132, 141.8686
1085.615, 141.6764
1086.097, 141.6442
1086.579, 141.8073
1087.061, 142.0576
1087.543, 142.4421
1088.025, 142.7371
1088.507, 142.4962
1088.989, 141.9259
1089.471, 141.3557
1089.953, 140.8000
1090.436, 140.4867
1090.918, 140.5961
1091.400, 140.7690
1091.882, 140.7889
1092.364, 141.0110
1092.846, 140.9589
1093.328, 141.4245
1093.810, 141.8435
1094.293, 142.1280
1094.775, 142.2777
1095.257, 142.2444
1095.739, 142.1023
1096.221, 141.9016
1096.703, 141.6154
1097.185, 141.5225
1097.667, 141.6304
1098.150, 141.7981
1098.632, 141.9091
1099.114, 142.0425
1099.596, 142.3397
1100.078, 142.7158
1100.560, 142.8848
1101.042, 142.7445
1101.524, 142.6857
1102.006, 142.7944
1102.489, 142.8651
1102.971, 142.5519
1103.453, 142.1026
1103.935, 141.9191
1104.417, 142.0318
1104.899, 142.1556
1105.381, 142.0839
1105.863, 142.2878
1106.345, 143.1238
1106.828, 144.0244
1107.310, 143.4609
1107.792, 141.9308
1108.274, 140.9811
1108.756, 141.0355
1109.238, 141.3362
1109.720, 141.7909
1110.202, 142.1091
1110.685, 142.0765
1111.167, 141.7543
1111.649, 141.5966
1112.131, 141.5934
1112.613, 141.6531
1113.095, 141.7787
1113.577, 141.8809
1114.059, 141.7999
1114.542, 141.7156
1115.024, 141.8759
1115.506, 142.3848
1115.988, 142.6035
1116.470, 142.5113
1116.952, 142.3323
1117.434, 142.2226
1117.916, 142.1004
1118.398, 141.7151
1118.880, 141.2641
1119.363, 141.2676
1119.845, 142.1637
1120.327, 142.7077
1120.809, 142.7931
1121.291, 142.5951
1121.773, 141.9826
1122.255, 141.3481
1122.737, 141.6220
1123.220, 142.6643
1123.702, 143.2796
1124.184, 142.5380
1124.666, 142.0565
1125.148, 142.2089
1125.630, 142.6105
1126.112, 142.6333
1126.594, 142.3952
1127.077, 142.2994
1127.559, 142.4123
1128.041, 142.3757
1128.523, 141.6939
1129.005, 141.1909
1129.487, 141.2544
1129.969, 141.7299
1130.451, 142.3086
1130.933, 142.9218
1131.416, 142.9324
1131.898, 141.9917
1132.380, 141.1729
1132.862, 141.2830
1133.344, 141.7439
1133.826, 142.1598
1134.308, 142.5089
1134.790, 142.6120
1135.272, 142.4623
1135.755, 142.3291
1136.237, 142.3599
1136.719, 142.3847
1137.201, 142.1895
1137.683, 141.9237
1138.165, 141.7962
1138.647, 141.8668
1139.129, 141.8511
1139.612, 141.7305
1140.094, 141.6583
1140.576, 141.7878
1141.058, 141.9734
1141.540, 142.0234
1142.022, 141.9889
1142.504, 141.9823
1142.986, 142.1064
1143.469, 142.0771
1143.951, 141.8328
1144.433, 141.6022
1144.915, 141.6529
1145.397, 141.8166
1145.879, 141.7579
1146.361, 141.5241
1146.843, 141.3447
1147.325, 141.1651
1147.807, 141.2948
1148.290, 141.9571
1148.772, 142.5916
1149.254, 142.2992
1149.736, 141.4832
1150.218, 141.2554
1150.700, 141.6458
1151.182, 141.9665
1151.664, 141.8033
1152.147, 141.6648
1152.629, 141.6560
1153.111, 141.7887
1153.593, 142.2459
1154.075, 142.8785
1154.557, 143.0275
1155.039, 142.5681
1155.521, 142.0910
1156.004, 141.8722
1156.486, 141.7778
1156.968, 141.7859
1157.450, 141.8366
1157.932, 141.6805
1158.414, 141.3645
1158.896, 141.2454
1159.378, 141.4470
1159.860, 141.6780
1160.343, 141.8246
1160.825, 141.8544
1161.307, 141.7249
1161.789, 141.4621
1162.271, 141.1939
1162.753, 140.9286
1163.235, 140.8806
1163.717, 141.1722
1164.199, 141.5863
1164.682, 142.0840
1165.164, 142.5096
1165.646, 142.7138
1166.128, 142.6992
1166.610, 142.4048
1167.092, 141.8172
1167.574, 141.3573
1168.056, 141.3356
1168.539, 141.3823
1169.021, 141.1718
1169.503, 140.8172
1169.985, 140.4290
1170.467, 139.9225
1170.949, 139.8898
1171.431, 140.3839
1171.913, 140.8953
1172.396, 141.0508
1172.878, 141.1004
1173.360, 141.2798
1173.842, 141.5542
1174.324, 141.8900
1174.806, 142.4483
1175.288, 142.5275
1175.770, 142.0217
1176.252, 141.4993
1176.734, 141.4224
1177.217, 141.5683
1177.699, 141.6762
1178.181, 141.7768
1178.663, 142.0058
1179.145, 142.5999
1179.627, 142.7131
1180.109, 142.1723
1180.591, 141.6021
1181.074, 141.7321
1181.556, 142.1276
1182.038, 142.1496
1182.520, 141.8629
1183.002, 141.7208
1183.484, 141.8539
1183.966, 142.0440
1184.448, 142.3191
1184.931, 142.4895
1185.413, 142.1101
1185.895, 141.6004
1186.377, 141.7767
1186.859, 142.5807
1187.341, 143.0668
1187.823, 142.9329
1188.305, 142.7103
1188.787, 142.4728
1189.270, 142.2259
1189.752, 141.8276
1190.234, 141.4913
1190.716, 141.7422
1191.198, 142.6003
1191.680, 143.0417
1192.162, 142.5895
1192.644, 142.1994
1193.126, 142.0651
1193.609, 142.1624
1194.091, 142.7103
1194.573, 143.3670
1195.055, 143.3674
1195.537, 142.5588
1196.019, 142.0717
1196.501, 142.3218
1196.983, 142.6035
1197.466, 142.7105
1197.948, 142.8831
1198.430, 142.8547
1198.912, 143.0130
1199.394, 143.0642
1199.876, 142.9543
1200.358, 142.9437
1200.840, 143.1985
1201.323, 143.3331
1201.805, 143.1378
1202.287, 142.8378
1202.769, 143.0317
1203.251, 143.4509
1203.733, 143.4307
1204.215, 142.6364
1204.697, 142.3348
1205.179, 142.9852
1205.661, 143.6689
1206.144, 144.0090
1206.626, 144.0994
1207.108, 144.1048
1207.590, 144.0273
1208.072, 143.8422
1208.554, 143.4713
1209.036, 143.2476
1209.518, 143.2351
1210.001, 143.3253
1210.483, 143.4893
1210.965, 143.6930
1211.447, 143.8447
1211.929, 143.9689
1212.411, 144.1482
1212.893, 144.5105
1213.375, 144.6087
1213.858, 144.2838
1214.340, 143.9500
1214.822, 143.8338
1215.304, 143.8744
1215.786, 143.9652
1216.268, 144.0874
1216.750, 144.2133
1217.232, 144.4899
1217.714, 144.3393
1218.197, 143.4059
1218.679, 142.7807
1219.161, 143.4702
1219.643, 144.7196
1220.125, 144.8756
1220.607, 144.3017
1221.089, 143.8379
1221.571, 143.7236
1222.053, 143.8066
1222.536, 144.1975
1223.018, 144.4598
1223.500, 144.1259
1223.982, 143.5825
1224.464, 143.6321
1224.946, 144.0786
1225.428, 144.4763
1225.910, 144.7219
1226.393, 144.8460
1226.875, 144.8055
1227.357, 144.7757
1227.839, 145.0305
1228.321, 145.2851
1228.803, 144.8938
1229.285, 144.1516
1229.767, 143.7470
1230.250, 144.0818
1230.732, 144.2904
1231.214, 144.3572
1231.696, 144.3252
1232.178, 144.1649
1232.660, 143.9737
1233.142, 143.8520
1233.624, 143.8128
1234.106, 143.8933
1234.589, 144.1197
1235.071, 144.4444
1235.553, 144.9157
1236.035, 145.2214
1236.517, 144.9360
1236.999, 144.5025
1237.481, 144.4267
1237.963, 144.5986
1238.445, 144.7616
1238.928, 144.8894
1239.410, 145.0411
1239.892, 145.2365
1240.374, 145.2940
1240.856, 144.7883
1241.338, 144.3483
1241.820, 144.8001
1242.302, 145.6678
1242.785, 145.9025
1243.267, 145.2994
1243.749, 145.0378
1244.231, 145.1746
1244.713, 145.3724
1245.195, 145.5006
1245.677, 145.4836
1246.159, 145.0194
1246.641, 144.4790
1247.124, 144.5703
1247.606, 145.3724
1248.088, 145.8655
1248.570, 146.0024
1249.052, 145.9805
1249.534, 145.7695
1250.016, 145.6137
1250.498, 145.7567
1250.980, 145.9842
1251.463, 145.9892
1251.945, 145.7757
1252.427, 145.7276
1252.909, 145.8376
1253.391, 145.8354
1253.873, 145.4511
1254.355, 145.0439
1254.837, 144.7325
1255.320, 144.5105
1255.802, 144.3194
1256.284, 144.2013
1256.766, 144.4511
1257.248, 145.0624
1257.730, 145.8978
1258.212, 147.7112
1258.694, 148.5273
1259.177, 147.3650
1259.659, 145.7946
1260.141, 145.5559
1260.623, 146.2448
1261.105, 146.5931
1261.587, 146.5835
1262.069, 146.3849
1262.551, 145.7603
1263.033, 145.4359
1263.516, 145.5959
1263.998, 145.8503
1264.480, 145.6611
1264.962, 145.3600
1265.444, 145.8409
1265.926, 146.8545
1266.408, 147.4297
1266.890, 146.9244
1267.372, 146.7228
1267.855, 146.9927
1268.337, 147.2554
1268.819, 146.9806
1269.301, 146.5307
1269.783, 146.4215
1270.265, 146.5565
1270.747, 146.6478
1271.229, 146.6824
1271.712, 146.5776
1272.194, 146.2988
1272.676, 146.1081
1273.158, 146.3364
1273.640, 146.6238
1274.122, 146.5267
1274.604, 146.2844
1275.086, 146.3881
1275.568, 146.9187
1276.051, 147.3037
1276.533, 147.5299
1277.015, 147.6774
1277.497, 147.8467
1277.979, 147.9112
1278.461, 147.7181
1278.943, 147.4231
1279.425, 147.2072
1279.907, 147.0697
1280.390, 146.9496
1280.872, 146.8618
1281.354, 146.9221
1281.836, 147.3036
1282.318, 147.7106
1282.800, 148.1692
1283.282, 148.4662
1283.764, 148.2788
1284.247, 147.7537
1284.729, 147.6657
1285.211, 147.9218
1285.693, 148.1649
1286.175, 148.2336
1286.657, 148.3014
1287.139, 148.4010
1287.621, 148.4804
1288.104, 148.5559
1288.586, 148.5518
1289.068, 148.1442
1289.550, 147.5528
1290.032, 147.2861
1290.514, 147.6509
1290.996, 148.1214
1291.478, 148.8156
1291.960, 149.1129
1292.443, 148.0894
1292.925, 147.0210
1293.407, 147.8500
1293.889, 149.5633
1294.371, 150.4871
1294.853, 150.4558
1295.335, 150.0409
1295.817, 149.2249
1296.299, 148.6025
1296.782, 148.5432
1297.264, 148.6772
1297.746, 148.8082
1298.228, 148.9313
1298.710, 149.0888
1299.192, 149.0016
1299.674, 149.1481
1300.156, 148.7688
1300.639, 148.4309
1301.121, 148.2401
1301.603, 148.1485
1302.085, 148.1660
1302.567, 148.3029
1303.049, 148.5746
1303.531, 148.9539
##END=



