##NAMES=Staurolite
##RRUFFID=R050079
##IDEAL CHEMISTRY=Fe^2+^_2_Al_9_Si_4_O_23_(OH)
##LOCALITY=Keivy, Kola Peninsula, Russia
##OWNER=RRUFF
##SOURCE=Rock Currier
##DESCRIPTION=Brown cruciform twins
##STATUS=The identification of this mineral has been confirmed by X-ray diffraction and chemical analysis
##URL=rruff.info/R050079
##MEASURED CHEMISTRY=(Fe^2+^_0.77_Mg_0.23_)_2_(Al_0.99_Ti_0.01_)_9_(Si_0.99_Al_0.01_)_4_O_20_(O_0.76_(OH)_0.24_)_4_
124.5917, 320.9067
125.0739, 346.0121
125.5560, 371.4665
126.0381, 398.1563
126.5202, 428.6867
127.0023, 464.7831
127.4844, 503.6569
127.9666, 541.6892
128.4487, 578.8693
128.9308, 614.5067
129.4129, 645.5836
129.8950, 673.5799
130.3772, 704.6161
130.8593, 742.6054
131.3414, 785.1263
131.8235, 822.5087
132.3056, 853.2167
132.7877, 883.9082
133.2699, 923.1611
133.7520, 971.4582
134.2341, 1021.743
134.7162, 1070.983
135.1983, 1119.382
135.6804, 1170.167
136.1626, 1223.360
136.6447, 1278.092
137.1268, 1332.035
137.6089, 1383.926
138.0910, 1438.101
138.5731, 1497.524
139.0553, 1565.652
139.5374, 1626.505
140.0195, 1679.989
140.5016, 1725.270
140.9837, 1755.294
141.4658, 1763.751
141.9480, 1767.341
142.4301, 1779.485
142.9122, 1812.106
143.3943, 1827.596
143.8764, 1817.986
144.3585, 1783.873
144.8407, 1749.341
145.3228, 1718.144
145.8049, 1683.874
146.2870, 1640.312
146.7691, 1580.104
147.2512, 1520.965
147.7334, 1466.274
148.2155, 1415.753
148.6976, 1368.643
149.1797, 1323.256
149.6618, 1281.688
150.1439, 1247.050
150.6261, 1227.699
151.1082, 1208.176
151.5903, 1183.264
152.0724, 1146.101
152.5545, 1118.877
153.0366, 1109.807
153.5188, 1111.663
154.0009, 1110.242
154.4830, 1102.411
154.9651, 1091.717
155.4472, 1079.415
155.9293, 1063.731
156.4115, 1049.394
156.8936, 1037.502
157.3757, 1027.694
157.8578, 1018.504
158.3399, 1008.381
158.8221, 999.4122
159.3042, 992.8793
159.7863, 994.2082
160.2684, 993.0201
160.7505, 982.9791
161.2326, 965.4824
161.7148, 952.0566
162.1969, 950.8071
162.6790, 954.6924
163.1611, 956.9138
163.6432, 952.5653
164.1253, 948.1108
164.6075, 947.0618
165.0896, 949.5471
165.5717, 953.1005
166.0538, 956.6849
166.5359, 960.4200
167.0180, 964.4789
167.5002, 970.7977
167.9823, 976.3442
168.4644, 978.1437
168.9465, 975.4922
169.4286, 972.4836
169.9107, 974.0932
170.3929, 977.6400
170.8750, 977.5088
171.3571, 962.6111
171.8392, 946.1288
172.3213, 944.4896
172.8034, 963.2285
173.2856, 985.3624
173.7677, 996.7769
174.2498, 998.8292
174.7319, 996.0677
175.2140, 986.2474
175.6961, 974.5127
176.1783, 969.5950
176.6604, 975.3184
177.1425, 984.3597
177.6246, 985.8696
178.1067, 981.3009
178.5888, 980.2302
179.0710, 996.7812
179.5531, 1021.924
180.0352, 1033.930
180.5173, 1021.444
180.9994, 999.6365
181.4815, 993.6677
181.9637, 1003.146
182.4458, 1017.389
182.9279, 1029.960
183.4100, 1040.439
183.8921, 1047.236
184.3742, 1047.939
184.8564, 1045.542
185.3385, 1047.456
185.8206, 1053.977
186.3027, 1061.405
186.7848, 1066.283
187.2669, 1068.791
187.7491, 1070.306
188.2312, 1068.582
188.7133, 1066.098
189.1954, 1074.575
189.6775, 1095.986
190.1596, 1119.311
190.6418, 1129.497
191.1239, 1126.843
191.6060, 1125.787
192.0881, 1134.546
192.5702, 1151.474
193.0524, 1161.299
193.5345, 1162.639
194.0166, 1160.431
194.4987, 1161.496
194.9808, 1165.900
195.4629, 1172.585
195.9451, 1182.980
196.4272, 1197.058
196.9093, 1204.573
197.3914, 1203.052
197.8735, 1198.354
198.3556, 1201.910
198.8378, 1214.597
199.3199, 1229.742
199.8020, 1244.886
200.2841, 1260.105
200.7662, 1272.010
201.2483, 1279.747
201.7305, 1284.661
202.2126, 1290.059
202.6947, 1296.190
203.1768, 1301.883
203.6589, 1306.512
204.1410, 1310.019
204.6232, 1312.715
205.1053, 1314.960
205.5874, 1316.265
206.0695, 1314.933
206.5516, 1310.717
207.0337, 1304.510
207.5159, 1296.017
207.9980, 1284.452
208.4801, 1274.950
208.9622, 1267.738
209.4443, 1263.083
209.9264, 1263.444
210.4086, 1271.510
210.8907, 1279.211
211.3728, 1279.632
211.8549, 1270.515
212.3370, 1261.923
212.8191, 1255.742
213.3013, 1251.521
213.7834, 1244.453
214.2655, 1232.802
214.7476, 1221.058
215.2297, 1212.980
215.7118, 1208.689
216.1940, 1207.927
216.6761, 1212.704
217.1582, 1222.512
217.6403, 1224.710
218.1224, 1216.695
218.6045, 1204.537
219.0867, 1193.310
219.5688, 1182.078
220.0509, 1174.268
220.5330, 1171.194
221.0151, 1172.892
221.4972, 1176.122
221.9794, 1183.424
222.4615, 1189.466
222.9436, 1187.980
223.4257, 1175.337
223.9078, 1162.303
224.3899, 1150.123
224.8721, 1138.155
225.3542, 1133.833
225.8363, 1140.626
226.3184, 1151.729
226.8005, 1159.287
227.2827, 1162.090
227.7648, 1163.539
228.2469, 1164.594
228.7290, 1165.470
229.2111, 1163.767
229.6932, 1156.415
230.1754, 1148.987
230.6575, 1149.465
231.1396, 1162.745
231.6217, 1175.313
232.1038, 1183.507
232.5859, 1186.706
233.0681, 1188.783
233.5502, 1189.422
234.0323, 1189.168
234.5144, 1189.095
234.9965, 1190.779
235.4786, 1189.854
235.9608, 1183.610
236.4429, 1169.667
236.9250, 1162.135
237.4071, 1163.928
237.8892, 1170.397
238.3713, 1173.917
238.8535, 1171.719
239.3356, 1171.286
239.8177, 1176.232
240.2998, 1189.674
240.7819, 1195.834
241.2640, 1190.016
241.7462, 1179.748
242.2283, 1178.754
242.7104, 1193.467
243.1925, 1206.841
243.6746, 1212.417
244.1567, 1206.742
244.6389, 1205.370
245.1210, 1210.473
245.6031, 1218.572
246.0852, 1223.779
246.5673, 1226.269
247.0494, 1225.493
247.5316, 1219.953
248.0137, 1206.388
248.4958, 1199.296
248.9779, 1200.528
249.4600, 1207.253
249.9421, 1214.608
250.4243, 1223.667
250.9064, 1231.515
251.3885, 1236.668
251.8706, 1237.835
252.3527, 1241.008
252.8348, 1247.972
253.3170, 1255.834
253.7991, 1258.577
254.2812, 1253.658
254.7633, 1248.420
255.2454, 1245.208
255.7275, 1243.831
256.2097, 1245.575
256.6918, 1251.693
257.1739, 1260.047
257.6560, 1266.978
258.1381, 1272.648
258.6202, 1276.553
259.1024, 1278.117
259.5845, 1276.525
260.0666, 1275.969
260.5487, 1276.833
261.0308, 1278.442
261.5129, 1278.743
261.9951, 1275.503
262.4772, 1276.374
262.9593, 1286.737
263.4414, 1310.828
263.9235, 1324.335
264.4056, 1325.554
264.8878, 1317.865
265.3699, 1305.847
265.8520, 1287.197
266.3341, 1270.500
266.8162, 1259.240
267.2983, 1254.269
267.7805, 1250.445
268.2626, 1249.087
268.7447, 1247.424
269.2268, 1239.181
269.7089, 1221.736
270.1910, 1207.149
270.6732, 1200.376
271.1553, 1202.128
271.6374, 1205.550
272.1195, 1210.996
272.6016, 1217.603
273.0837, 1225.263
273.5659, 1235.276
274.0480, 1239.861
274.5301, 1232.106
275.0122, 1211.210
275.4943, 1204.488
275.9764, 1215.723
276.4586, 1234.021
276.9407, 1242.915
277.4228, 1241.324
277.9049, 1238.869
278.3870, 1238.407
278.8691, 1239.975
279.3513, 1244.543
279.8334, 1252.315
280.3155, 1262.569
280.7976, 1275.009
281.2798, 1289.619
281.7619, 1304.400
282.2440, 1319.975
282.7261, 1335.634
283.2082, 1344.476
283.6903, 1345.027
284.1725, 1344.188
284.6546, 1350.266
285.1367, 1363.059
285.6188, 1378.612
286.1009, 1394.689
286.5830, 1412.309
287.0652, 1437.386
287.5473, 1470.611
288.0294, 1505.775
288.5115, 1535.163
288.9936, 1559.693
289.4757, 1585.481
289.9579, 1613.355
290.4400, 1644.356
290.9221, 1683.114
291.4042, 1729.956
291.8863, 1780.472
292.3684, 1831.222
292.8506, 1882.096
293.3327, 1933.423
293.8148, 1986.667
294.2969, 2039.979
294.7790, 2087.816
295.2611, 2130.385
295.7433, 2178.251
296.2254, 2248.058
296.7075, 2332.307
297.1896, 2406.453
297.6717, 2458.630
298.1538, 2503.209
298.6360, 2559.689
299.1181, 2628.129
299.6002, 2703.065
300.0823, 2788.532
300.5644, 2877.353
301.0465, 2956.658
301.5287, 3021.988
302.0108, 3077.769
302.4929, 3129.163
302.9750, 3175.598
303.4571, 3210.893
303.9392, 3230.684
304.4214, 3237.291
304.9035, 3235.381
305.3856, 3230.850
305.8677, 3210.207
306.3498, 3153.802
306.8319, 3069.241
307.3141, 2981.829
307.7962, 2909.435
308.2783, 2841.230
308.7604, 2763.848
309.2425, 2671.001
309.7246, 2580.202
310.2068, 2500.705
310.6889, 2431.519
311.1710, 2369.042
311.6531, 2317.721
312.1352, 2268.565
312.6173, 2213.640
313.0995, 2148.285
313.5816, 2088.937
314.0637, 2045.661
314.5458, 2013.368
315.0279, 1982.052
315.5100, 1942.972
315.9922, 1907.563
316.4743, 1883.609
316.9564, 1874.909
317.4385, 1865.593
317.9206, 1848.692
318.4027, 1828.436
318.8849, 1810.740
319.3670, 1796.758
319.8491, 1785.981
320.3312, 1779.121
320.8133, 1776.931
321.2954, 1774.156
321.7776, 1769.861
322.2597, 1764.431
322.7418, 1758.274
323.2239, 1750.319
323.7060, 1742.769
324.1881, 1735.383
324.6703, 1727.926
325.1524, 1723.765
325.6345, 1728.538
326.1166, 1733.884
326.5987, 1733.016
327.0808, 1715.115
327.5630, 1703.733
328.0451, 1703.852
328.5272, 1714.872
329.0093, 1723.811
329.4914, 1729.575
329.9735, 1734.061
330.4557, 1738.474
330.9378, 1743.380
331.4199, 1747.357
331.9020, 1751.217
332.3841, 1754.240
332.8662, 1751.730
333.3484, 1738.115
333.8305, 1727.459
334.3126, 1729.153
334.7947, 1749.276
335.2768, 1762.894
335.7589, 1767.990
336.2411, 1766.313
336.7232, 1759.800
337.2053, 1744.401
337.6874, 1736.187
338.1695, 1746.754
338.6516, 1779.347
339.1338, 1800.899
339.6159, 1808.564
340.0980, 1808.410
340.5801, 1811.370
341.0622, 1818.332
341.5443, 1820.093
342.0265, 1806.950
342.5086, 1782.107
342.9907, 1777.678
343.4728, 1796.997
343.9549, 1823.822
344.4370, 1837.711
344.9192, 1839.903
345.4013, 1842.760
345.8834, 1851.062
346.3655, 1862.930
346.8476, 1873.029
347.3297, 1881.257
347.8119, 1889.485
348.2940, 1897.524
348.7761, 1906.681
349.2582, 1921.222
349.7403, 1946.376
350.2225, 1973.695
350.7046, 1991.658
351.1867, 2000.919
351.6688, 2005.263
352.1509, 1998.519
352.6331, 1990.903
353.1152, 2000.416
353.5973, 2039.814
354.0794, 2080.728
354.5615, 2098.660
355.0436, 2097.451
355.5258, 2088.786
356.0079, 2075.694
356.4900, 2059.833
356.9721, 2042.253
357.4542, 2022.632
357.9363, 2002.939
358.4185, 1979.960
358.9006, 1958.109
359.3827, 1945.027
359.8648, 1953.729
360.3469, 1964.014
360.8290, 1964.750
361.3112, 1953.761
361.7933, 1942.086
362.2754, 1932.079
362.7575, 1923.560
363.2396, 1916.299
363.7217, 1913.477
364.2039, 1908.780
364.6860, 1897.788
365.1681, 1880.349
365.6502, 1870.253
366.1323, 1877.319
366.6144, 1887.124
367.0966, 1889.693
367.5787, 1875.561
368.0608, 1865.436
368.5429, 1862.951
369.0250, 1866.222
369.5071, 1865.467
369.9893, 1857.306
370.4714, 1849.065
370.9535, 1844.969
371.4356, 1849.607
371.9177, 1847.747
372.3998, 1837.079
372.8820, 1820.840
373.3641, 1805.366
373.8462, 1789.188
374.3283, 1777.711
374.8104, 1774.697
375.2925, 1781.099
375.7747, 1784.771
376.2568, 1785.942
376.7389, 1783.999
377.2210, 1777.070
377.7031, 1764.792
378.1852, 1752.547
378.6674, 1740.275
379.1495, 1729.411
379.6316, 1727.295
380.1137, 1734.710
380.5958, 1743.947
381.0779, 1747.276
381.5601, 1745.963
382.0422, 1745.881
382.5243, 1748.016
383.0064, 1752.456
383.4885, 1760.999
383.9706, 1773.026
384.4528, 1783.386
384.9349, 1786.552
385.4170, 1786.345
385.8991, 1789.411
386.3812, 1797.356
386.8633, 1806.726
387.3455, 1816.572
387.8276, 1825.482
388.3097, 1830.338
388.7918, 1826.702
389.2739, 1820.117
389.7560, 1813.130
390.2382, 1805.435
390.7203, 1803.526
391.2024, 1813.982
391.6845, 1831.062
392.1666, 1848.318
392.6487, 1867.383
393.1309, 1882.611
393.6130, 1892.232
394.0951, 1896.231
394.5772, 1894.175
395.0593, 1878.932
395.5414, 1862.040
396.0236, 1850.858
396.5057, 1848.645
396.9878, 1849.492
397.4699, 1854.966
397.9520, 1863.439
398.4341, 1869.645
398.9163, 1870.053
399.3984, 1871.869
399.8805, 1878.248
400.3626, 1891.718
400.8447, 1902.373
401.3268, 1910.479
401.8090, 1915.552
402.2911, 1916.874
402.7732, 1913.961
403.2553, 1908.311
403.7374, 1898.860
404.2195, 1886.063
404.7017, 1879.917
405.1838, 1883.366
405.6659, 1885.414
406.1480, 1872.428
406.6301, 1844.005
407.1122, 1824.973
407.5944, 1822.555
408.0765, 1829.206
408.5586, 1826.472
409.0407, 1814.522
409.5228, 1802.188
410.0049, 1794.590
410.4871, 1791.193
410.9692, 1790.884
411.4513, 1793.955
411.9334, 1798.526
412.4155, 1803.572
412.8976, 1808.603
413.3798, 1812.053
413.8619, 1810.074
414.3440, 1808.043
414.8261, 1811.780
415.3082, 1821.440
415.7903, 1833.660
416.2725, 1845.287
416.7546, 1858.664
417.2367, 1877.112
417.7188, 1911.137
418.2009, 1939.510
418.6830, 1946.183
419.1652, 1937.366
419.6473, 1935.580
420.1294, 1955.641
420.6115, 1979.343
421.0937, 1996.588
421.5758, 2001.416
422.0579, 2009.088
422.5400, 2021.907
423.0221, 2038.672
423.5042, 2057.839
423.9864, 2085.453
424.4685, 2108.382
424.9506, 2123.276
425.4327, 2129.418
425.9148, 2133.603
426.3969, 2132.851
426.8791, 2133.525
427.3612, 2141.715
427.8433, 2159.744
428.3254, 2178.174
428.8075, 2196.609
429.2896, 2214.170
429.7718, 2227.065
430.2539, 2234.753
430.7360, 2240.881
431.2181, 2248.906
431.7002, 2258.303
432.1823, 2258.514
432.6645, 2245.940
433.1466, 2234.458
433.6287, 2249.071
434.1108, 2284.191
434.5929, 2311.877
435.0750, 2313.542
435.5572, 2303.407
436.0393, 2305.521
436.5214, 2319.602
437.0035, 2339.706
437.4856, 2365.420
437.9677, 2392.853
438.4499, 2416.310
438.9320, 2433.356
439.4141, 2447.780
439.8962, 2460.896
440.3783, 2473.291
440.8604, 2486.872
441.3426, 2506.275
441.8247, 2524.035
442.3068, 2534.834
442.7889, 2536.451
443.2710, 2539.082
443.7531, 2545.656
444.2353, 2554.531
444.7174, 2564.007
445.1995, 2575.052
445.6816, 2585.237
446.1637, 2594.075
446.6458, 2601.580
447.1280, 2608.657
447.6101, 2615.445
448.0922, 2621.678
448.5743, 2627.960
449.0564, 2637.295
449.5385, 2637.558
450.0207, 2623.819
450.5028, 2605.115
450.9849, 2599.101
451.4670, 2607.597
451.9491, 2619.772
452.4312, 2631.418
452.9134, 2643.068
453.3955, 2660.622
453.8776, 2684.839
454.3597, 2709.074
454.8418, 2724.186
455.3239, 2732.954
455.8061, 2745.376
456.2882, 2761.726
456.7703, 2786.151
457.2524, 2826.352
457.7345, 2880.264
458.2166, 2940.710
458.6988, 3006.124
459.1809, 3074.024
459.6630, 3139.314
460.1451, 3201.184
460.6272, 3267.699
461.1093, 3349.076
461.5915, 3436.234
462.0736, 3516.262
462.5557, 3594.734
463.0378, 3655.883
463.5199, 3695.530
464.0020, 3713.087
464.4842, 3705.852
464.9663, 3666.718
465.4484, 3607.132
465.9305, 3532.024
466.4126, 3432.257
466.8947, 3332.080
467.3769, 3233.011
467.8590, 3133.305
468.3411, 3025.884
468.8232, 2898.260
469.3053, 2789.322
469.7874, 2711.901
470.2696, 2664.378
470.7517, 2616.259
471.2338, 2565.872
471.7159, 2520.358
472.1980, 2489.742
472.6801, 2473.456
473.1623, 2450.961
473.6444, 2417.078
474.1265, 2379.893
474.6086, 2353.111
475.0907, 2335.778
475.5728, 2321.720
476.0550, 2305.469
476.5371, 2291.146
477.0192, 2287.919
477.5013, 2296.195
477.9834, 2304.644
478.4655, 2304.073
478.9477, 2298.559
479.4298, 2293.086
479.9119, 2285.137
480.3940, 2282.546
480.8761, 2296.474
481.3582, 2319.993
481.8404, 2332.964
482.3225, 2315.479
482.8046, 2296.955
483.2867, 2292.062
483.7688, 2307.057
484.2509, 2318.256
484.7331, 2319.531
485.2152, 2318.250
485.6973, 2320.937
486.1794, 2326.120
486.6615, 2338.617
487.1436, 2364.143
487.6258, 2397.809
488.1079, 2413.892
488.5900, 2405.688
489.0721, 2398.163
489.5542, 2408.078
490.0363, 2435.686
490.5185, 2452.216
491.0006, 2454.654
491.4827, 2453.157
491.9648, 2463.698
492.4470, 2483.302
492.9291, 2494.635
493.4112, 2485.431
493.8933, 2470.054
494.3754, 2472.886
494.8575, 2491.402
495.3397, 2509.540
495.8218, 2515.801
496.3039, 2516.806
496.7860, 2519.396
497.2681, 2524.676
497.7502, 2531.411
498.2324, 2541.036
498.7145, 2551.163
499.1966, 2558.729
499.6787, 2565.652
500.1608, 2566.919
500.6429, 2559.880
501.1251, 2544.878
501.6072, 2527.606
502.0893, 2496.032
502.5714, 2473.054
503.0535, 2471.993
503.5356, 2509.571
504.0178, 2528.241
504.4999, 2521.263
504.9820, 2501.265
505.4641, 2487.365
505.9462, 2481.165
506.4283, 2472.404
506.9105, 2455.430
507.3926, 2434.344
507.8747, 2427.006
508.3568, 2433.969
508.8389, 2444.482
509.3210, 2453.435
509.8032, 2459.836
510.2853, 2460.586
510.7674, 2454.730
511.2495, 2445.660
511.7316, 2434.403
512.2137, 2422.585
512.6959, 2413.671
513.1780, 2406.599
513.6601, 2404.860
514.1422, 2417.453
514.6243, 2440.954
515.1064, 2452.410
515.5886, 2424.403
516.0707, 2394.461
516.5528, 2387.271
517.0349, 2419.921
517.5170, 2445.887
517.9991, 2462.169
518.4813, 2468.734
518.9634, 2462.814
519.4455, 2426.836
519.9276, 2409.571
520.4097, 2428.692
520.8918, 2476.451
521.3740, 2502.984
521.8561, 2504.498
522.3382, 2497.335
522.8203, 2489.291
523.3024, 2480.695
523.7845, 2475.963
524.2667, 2475.299
524.7488, 2478.712
525.2309, 2490.817
525.7130, 2507.977
526.1951, 2516.962
526.6772, 2508.234
527.1594, 2493.964
527.6415, 2488.291
528.1236, 2489.718
528.6057, 2491.561
529.0878, 2495.852
529.5699, 2495.258
530.0521, 2482.208
530.5342, 2452.570
531.0163, 2424.586
531.4984, 2404.858
531.9805, 2389.148
532.4626, 2372.844
532.9448, 2353.888
533.4269, 2336.125
533.9090, 2320.855
534.3911, 2307.187
534.8732, 2292.009
535.3553, 2273.724
535.8375, 2256.712
536.3196, 2245.802
536.8017, 2241.786
537.2838, 2220.635
537.7659, 2177.025
538.2480, 2133.187
538.7302, 2118.359
539.2123, 2127.571
539.6944, 2126.473
540.1765, 2104.601
540.6586, 2074.755
541.1407, 2051.622
541.6229, 2034.866
542.1050, 2022.818
542.5871, 2020.094
543.0692, 2018.050
543.5513, 2006.222
544.0334, 1984.320
544.5156, 1967.522
544.9977, 1967.074
545.4798, 1972.280
545.9619, 1974.935
546.4440, 1974.186
546.9261, 1969.803
547.4083, 1955.846
547.8904, 1939.388
548.3725, 1933.909
548.8546, 1947.709
549.3367, 1958.782
549.8188, 1961.435
550.3010, 1956.309
550.7831, 1950.727
551.2652, 1944.686
551.7473, 1938.159
552.2294, 1928.095
552.7115, 1915.732
553.1937, 1916.260
553.6758, 1932.970
554.1579, 1953.892
554.6400, 1964.419
555.1221, 1967.175
555.6042, 1969.578
556.0864, 1975.554
556.5685, 1981.099
557.0506, 1980.598
557.5327, 1975.874
558.0148, 1973.725
558.4969, 1980.161
558.9791, 1988.176
559.4612, 1992.747
559.9433, 1992.097
560.4254, 1994.493
560.9075, 2002.612
561.3896, 2013.806
561.8718, 2025.952
562.3539, 2041.242
562.8360, 2053.850
563.3181, 2063.486
563.8002, 2070.006
564.2823, 2072.684
564.7645, 2070.926
565.2466, 2067.767
565.7287, 2063.299
566.2108, 2058.331
566.6929, 2057.585
567.1750, 2061.207
567.6572, 2065.895
568.1393, 2069.640
568.6214, 2072.294
569.1035, 2072.897
569.5856, 2070.691
570.0677, 2068.984
570.5499, 2071.387
571.0320, 2075.915
571.5141, 2079.430
571.9962, 2083.817
572.4783, 2083.968
572.9604, 2072.367
573.4426, 2052.701
573.9247, 2043.610
574.4068, 2066.171
574.8889, 2083.217
575.3710, 2077.899
575.8531, 2044.131
576.3353, 2020.337
576.8174, 2008.085
577.2995, 2003.825
577.7816, 2006.771
578.2637, 2018.079
578.7458, 2023.732
579.2280, 2021.050
579.7101, 2013.054
580.1922, 2002.988
580.6743, 1991.567
581.1564, 1982.824
581.6385, 1982.588
582.1207, 1983.957
582.6028, 1978.143
583.0849, 1965.583
583.5670, 1949.381
584.0491, 1920.099
584.5313, 1895.126
585.0134, 1891.540
585.4955, 1920.880
585.9776, 1941.971
586.4597, 1939.333
586.9418, 1925.063
587.4240, 1912.768
587.9061, 1904.521
588.3882, 1895.551
588.8703, 1883.387
589.3524, 1870.705
589.8345, 1866.665
590.3167, 1873.701
590.7988, 1880.148
591.2809, 1881.839
591.7630, 1878.869
592.2451, 1869.489
592.7272, 1853.409
593.2094, 1838.063
593.6915, 1830.495
594.1736, 1827.889
594.6557, 1824.108
595.1378, 1817.227
595.6199, 1813.508
596.1021, 1822.138
596.5842, 1835.742
597.0663, 1843.829
597.5485, 1837.830
598.0306, 1831.000
598.5127, 1827.672
598.9948, 1827.029
599.4769, 1825.204
599.9590, 1820.260
600.4412, 1816.148
600.9233, 1814.686
601.4054, 1816.173
601.8875, 1815.008
602.3696, 1809.978
602.8517, 1805.304
603.3339, 1807.171
603.8160, 1814.596
604.2981, 1811.724
604.7802, 1794.111
605.2623, 1775.505
605.7444, 1776.951
606.2266, 1792.019
606.7087, 1803.382
607.1908, 1803.295
607.6729, 1798.684
608.1550, 1795.487
608.6371, 1792.448
609.1193, 1785.366
609.6014, 1767.252
610.0835, 1749.270
610.5656, 1736.810
611.0477, 1730.590
611.5298, 1727.153
612.0120, 1728.815
612.4941, 1730.747
612.9762, 1729.557
613.4583, 1724.194
613.9404, 1718.841
614.4225, 1712.246
614.9047, 1708.282
615.3868, 1717.343
615.8689, 1737.795
616.3510, 1746.157
616.8331, 1731.448
617.3152, 1706.637
617.7974, 1685.981
618.2795, 1671.158
618.7616, 1667.344
619.2437, 1692.475
619.7258, 1718.499
620.2079, 1720.281
620.6901, 1696.789
621.1722, 1678.958
621.6543, 1685.393
622.1364, 1695.451
622.6185, 1694.604
623.1006, 1672.213
623.5828, 1661.363
624.0649, 1668.092
624.5470, 1680.825
625.0291, 1684.868
625.5112, 1677.984
625.9933, 1675.347
626.4755, 1682.195
626.9576, 1691.380
627.4397, 1684.291
627.9218, 1663.418
628.4039, 1647.758
628.8860, 1652.066
629.3682, 1664.151
629.8503, 1667.400
630.3324, 1662.730
630.8145, 1657.448
631.2966, 1650.198
631.7787, 1647.812
632.2609, 1659.721
632.7430, 1695.078
633.2251, 1712.906
633.7072, 1686.912
634.1893, 1651.248
634.6714, 1634.456
635.1536, 1646.206
635.6357, 1655.156
636.1178, 1656.869
636.5999, 1656.988
637.0820, 1669.626
637.5641, 1695.612
638.0463, 1711.091
638.5284, 1704.264
639.0105, 1685.883
639.4926, 1675.574
639.9747, 1672.733
640.4568, 1673.994
640.9390, 1679.113
641.4211, 1686.195
641.9032, 1696.346
642.3853, 1709.570
642.8674, 1714.373
643.3495, 1694.796
643.8317, 1672.777
644.3138, 1664.023
644.7959, 1680.645
645.2780, 1690.821
645.7601, 1692.614
646.2422, 1689.666
646.7244, 1684.698
647.2065, 1676.247
647.6886, 1674.223
648.1707, 1682.127
648.6528, 1694.839
649.1349, 1701.433
649.6171, 1702.899
650.0992, 1706.460
650.5813, 1719.956
651.0634, 1734.604
651.5455, 1737.223
652.0276, 1730.121
652.5098, 1725.571
652.9919, 1735.056
653.4740, 1745.305
653.9561, 1746.702
654.4382, 1736.231
654.9203, 1729.771
655.4025, 1730.389
655.8846, 1734.671
656.3667, 1741.492
656.8488, 1753.957
657.3309, 1759.004
657.8130, 1754.540
658.2952, 1745.652
658.7773, 1737.759
659.2594, 1731.065
659.7415, 1729.631
660.2236, 1737.110
660.7057, 1745.984
661.1879, 1742.884
661.6700, 1732.025
662.1521, 1725.214
662.6342, 1734.735
663.1163, 1744.461
663.5984, 1740.002
664.0806, 1723.917
664.5627, 1718.465
665.0448, 1744.747
665.5269, 1768.454
666.0090, 1772.787
666.4911, 1753.860
666.9733, 1744.072
667.4554, 1744.359
667.9375, 1751.932
668.4196, 1769.864
668.9017, 1797.398
669.3839, 1806.989
669.8660, 1793.687
670.3481, 1774.188
670.8302, 1764.893
671.3123, 1764.294
671.7944, 1770.065
672.2766, 1786.501
672.7587, 1800.866
673.2408, 1802.495
673.7229, 1796.401
674.2050, 1792.450
674.6871, 1795.091
675.1693, 1798.349
675.6514, 1801.960
676.1335, 1805.243
676.6156, 1803.576
677.0977, 1793.463
677.5798, 1786.526
678.0620, 1790.258
678.5441, 1802.906
679.0262, 1805.358
679.5083, 1797.005
679.9904, 1788.732
680.4725, 1792.257
680.9547, 1800.902
681.4368, 1800.857
681.9189, 1789.320
682.4010, 1780.884
682.8831, 1788.807
683.3652, 1803.187
683.8474, 1813.848
684.3295, 1814.454
684.8116, 1817.790
685.2937, 1832.505
685.7758, 1847.896
686.2579, 1847.754
686.7401, 1823.180
687.2222, 1808.193
687.7043, 1811.607
688.1864, 1825.575
688.6685, 1830.226
689.1506, 1826.274
689.6328, 1825.313
690.1149, 1835.372
690.5970, 1849.616
691.0791, 1859.989
691.5612, 1866.100
692.0433, 1865.881
692.5255, 1843.715
693.0076, 1826.536
693.4897, 1837.566
693.9718, 1881.833
694.4539, 1910.773
694.9360, 1907.288
695.4182, 1896.597
695.9003, 1891.160
696.3824, 1891.897
696.8645, 1894.548
697.3466, 1899.327
697.8287, 1905.459
698.3109, 1912.068
698.7930, 1919.275
699.2751, 1928.911
699.7572, 1942.653
700.2393, 1953.523
700.7214, 1949.699
701.2036, 1938.901
701.6857, 1934.098
702.1678, 1946.482
702.6499, 1957.965
703.1320, 1957.902
703.6141, 1952.075
704.0963, 1955.674
704.5784, 1980.374
705.0605, 1997.553
705.5426, 1998.685
706.0247, 1987.817
706.5068, 1981.401
706.9890, 1979.013
707.4711, 1984.205
707.9532, 2003.310
708.4353, 2030.369
708.9174, 2049.976
709.3995, 2062.569
709.8817, 2071.443
710.3638, 2076.431
710.8459, 2080.179
711.3280, 2085.351
711.8101, 2092.620
712.2922, 2098.070
712.7744, 2100.902
713.2565, 2101.269
713.7386, 2097.641
714.2207, 2081.070
714.7028, 2085.889
715.1849, 2119.594
715.6671, 2161.782
716.1492, 2192.488
716.6313, 2211.813
717.1134, 2222.531
717.5955, 2223.008
718.0776, 2221.390
718.5598, 2226.196
719.0419, 2236.307
719.5240, 2249.670
720.0061, 2269.697
720.4882, 2287.893
720.9703, 2302.552
721.4525, 2312.520
721.9346, 2314.930
722.4167, 2287.714
722.8988, 2282.654
723.3809, 2320.772
723.8630, 2387.113
724.3452, 2418.167
724.8273, 2409.258
725.3094, 2397.984
725.7915, 2399.785
726.2736, 2412.562
726.7557, 2433.235
727.2379, 2461.067
727.7200, 2490.229
728.2021, 2517.069
728.6842, 2543.442
729.1663, 2574.392
729.6484, 2610.524
730.1306, 2635.254
730.6127, 2630.782
731.0948, 2624.370
731.5769, 2631.644
732.0590, 2656.807
732.5411, 2678.412
733.0233, 2695.714
733.5054, 2711.129
733.9875, 2725.185
734.4696, 2738.698
734.9517, 2757.733
735.4338, 2783.566
735.9160, 2811.822
736.3981, 2844.655
736.8802, 2874.965
737.3623, 2890.944
737.8444, 2881.481
738.3266, 2872.859
738.8087, 2874.642
739.2908, 2883.408
739.7729, 2893.595
740.2551, 2897.441
740.7372, 2917.210
741.2193, 2962.523
741.7014, 3019.161
742.1835, 3057.396
742.6656, 3076.895
743.1478, 3089.154
743.6299, 3094.056
744.1120, 3098.724
744.5941, 3117.581
745.0762, 3146.117
745.5583, 3170.941
746.0405, 3178.188
746.5226, 3186.387
747.0047, 3207.410
747.4868, 3239.158
747.9689, 3268.343
748.4510, 3300.067
748.9332, 3319.438
749.4153, 3314.220
749.8974, 3288.533
750.3795, 3295.899
750.8616, 3340.559
751.3438, 3384.820
751.8259, 3398.908
752.3080, 3396.225
752.7901, 3411.654
753.2722, 3444.929
753.7543, 3476.176
754.2365, 3487.129
754.7186, 3494.053
755.2007, 3510.358
755.6828, 3539.449
756.1649, 3567.437
756.6470, 3590.775
757.1292, 3613.835
757.6113, 3639.302
758.0934, 3667.645
758.5755, 3697.004
759.0576, 3728.632
759.5397, 3757.975
760.0219, 3777.244
760.5040, 3790.386
760.9861, 3808.787
761.4682, 3833.805
761.9503, 3865.402
762.4324, 3914.832
762.9146, 3966.242
763.3967, 4000.687
763.8788, 4003.636
764.3609, 4005.458
764.8430, 4003.620
765.3251, 4007.270
765.8073, 4029.221
766.2894, 4074.760
766.7715, 4116.911
767.2536, 4150.309
767.7357, 4181.457
768.2178, 4227.167
768.7000, 4281.842
769.1821, 4319.476
769.6642, 4321.608
770.1463, 4320.772
770.6284, 4348.145
771.1105, 4392.351
771.5927, 4431.403
772.0748, 4457.370
772.5569, 4478.758
773.0390, 4496.041
773.5211, 4510.423
774.0032, 4522.958
774.4854, 4530.913
774.9675, 4548.298
775.4496, 4583.549
775.9317, 4627.193
776.4138, 4656.088
776.8959, 4671.500
777.3781, 4681.666
777.8602, 4681.057
778.3423, 4684.893
778.8244, 4712.248
779.3065, 4756.998
779.7886, 4792.909
780.2708, 4797.054
780.7529, 4807.251
781.2350, 4841.167
781.7171, 4894.786
782.1992, 4928.338
782.6813, 4936.869
783.1635, 4943.771
783.6456, 4959.694
784.1277, 4983.233
784.6098, 5013.271
785.0919, 5048.804
785.5740, 5081.044
786.0562, 5095.495
786.5383, 5111.072
787.0204, 5151.750
787.5025, 5218.644
787.9846, 5262.959
788.4667, 5256.271
788.9489, 5240.053
789.4310, 5230.153
789.9131, 5226.970
790.3952, 5224.352
790.8773, 5222.559
791.3594, 5220.206
791.8416, 5219.230
792.3237, 5216.542
792.8058, 5201.788
793.2879, 5174.541
793.7700, 5146.311
794.2521, 5131.137
794.7343, 5114.225
795.2164, 5082.092
795.6985, 5028.978
796.1806, 4978.194
796.6627, 4939.220
797.1448, 4895.311
797.6270, 4833.932
798.1091, 4752.143
798.5912, 4679.825
799.0733, 4619.358
799.5554, 4552.720
800.0375, 4454.441
800.5197, 4340.472
801.0018, 4241.333
801.4839, 4162.837
801.9660, 4089.612
802.4481, 4021.515
802.9302, 3948.933
803.4124, 3861.269
803.8945, 3739.927
804.3766, 3643.956
804.8587, 3584.444
805.3408, 3535.782
805.8229, 3475.965
806.3051, 3405.037
806.7872, 3328.880
807.2693, 3246.690
807.7514, 3165.713
808.2335, 3090.645
808.7156, 3021.558
809.1978, 2958.903
809.6799, 2903.457
810.1620, 2852.131
810.6441, 2805.110
811.1262, 2760.685
811.6083, 2717.951
812.0905, 2678.766
812.5726, 2635.603
813.0547, 2587.092
813.5368, 2537.807
814.0189, 2494.142
814.5010, 2455.030
814.9832, 2411.618
815.4653, 2360.300
815.9474, 2316.779
816.4295, 2302.379
816.9116, 2301.050
817.3937, 2292.481
817.8759, 2267.314
818.3580, 2243.628
818.8401, 2223.439
819.3222, 2207.674
819.8043, 2198.255
820.2864, 2196.946
820.7686, 2194.698
821.2507, 2191.814
821.7328, 2184.600
822.2149, 2162.920
822.6970, 2133.595
823.1791, 2115.448
823.6613, 2116.902
824.1434, 2116.532
824.6255, 2096.009
825.1076, 2067.832
825.5897, 2046.228
826.0718, 2037.937
826.5540, 2030.320
827.0361, 2023.500
827.5182, 2016.966
828.0003, 2009.027
828.4824, 1999.806
828.9645, 1994.594
829.4467, 1994.291
829.9288, 1997.835
830.4109, 2009.569
830.8930, 2022.565
831.3751, 2026.252
831.8572, 2017.030
832.3394, 2000.112
832.8215, 1965.064
833.3036, 1929.828
833.7857, 1914.595
834.2678, 1927.900
834.7499, 1936.820
835.2321, 1938.912
835.7142, 1937.352
836.1963, 1935.906
836.6784, 1934.163
837.1605, 1930.630
837.6426, 1924.997
838.1248, 1917.831
838.6069, 1909.247
839.0890, 1899.524
839.5711, 1888.602
840.0532, 1871.461
840.5353, 1863.037
841.0175, 1869.120
841.4996, 1878.765
841.9817, 1881.414
842.4638, 1876.977
842.9459, 1866.609
843.4280, 1848.719
843.9102, 1833.804
844.3923, 1836.289
844.8744, 1848.558
845.3565, 1859.590
845.8386, 1868.746
846.3207, 1870.906
846.8029, 1862.212
847.2850, 1846.535
847.7671, 1826.025
848.2492, 1793.787
848.7313, 1776.675
849.2134, 1777.637
849.6956, 1786.557
850.1777, 1794.932
850.6598, 1802.952
851.1419, 1812.734
851.6240, 1825.184
852.1061, 1832.705
852.5883, 1822.505
853.0704, 1809.092
853.5525, 1806.960
854.0346, 1823.893
854.5167, 1834.343
854.9988, 1832.842
855.4810, 1829.850
855.9631, 1833.994
856.4452, 1845.474
856.9273, 1850.522
857.4094, 1848.386
857.8915, 1845.579
858.3737, 1846.696
858.8558, 1851.079
859.3379, 1860.008
859.8200, 1874.170
860.3021, 1882.952
860.7842, 1877.494
861.2664, 1869.345
861.7485, 1863.498
862.2306, 1859.200
862.7127, 1866.448
863.1948, 1887.737
863.6769, 1909.845
864.1591, 1925.200
864.6412, 1934.089
865.1233, 1934.726
865.6054, 1927.982
866.0875, 1924.835
866.5696, 1931.636
867.0518, 1944.310
867.5339, 1963.102
868.0160, 1988.509
868.4981, 2004.810
868.9802, 2006.413
869.4623, 2010.866
869.9445, 2028.317
870.4266, 2055.185
870.9087, 2077.312
871.3908, 2094.522
871.8729, 2102.457
872.3550, 2084.681
872.8372, 2067.920
873.3193, 2076.746
873.8014, 2108.030
874.2835, 2140.498
874.7656, 2170.771
875.2477, 2200.203
875.7299, 2229.880
876.2120, 2258.708
876.6941, 2281.880
877.1762, 2299.319
877.6583, 2319.415
878.1404, 2346.376
878.6226, 2377.051
879.1047, 2406.599
879.5869, 2436.366
880.0690, 2470.514
880.5511, 2518.715
881.0332, 2561.988
881.5153, 2589.165
881.9974, 2609.583
882.4796, 2644.808
882.9617, 2698.497
883.4438, 2745.803
883.9259, 2778.736
884.4080, 2806.083
884.8901, 2840.092
885.3723, 2879.339
885.8544, 2920.506
886.3365, 2960.450
886.8186, 3004.783
887.3007, 3062.296
887.7828, 3122.500
888.2650, 3171.152
888.7471, 3206.344
889.2292, 3231.902
889.7113, 3244.606
890.1934, 3255.798
890.6755, 3282.830
891.1577, 3320.719
891.6398, 3355.603
892.1219, 3385.092
892.6040, 3408.665
893.0861, 3422.901
893.5682, 3432.463
894.0504, 3441.298
894.5325, 3448.761
895.0146, 3459.371
895.4967, 3476.761
895.9788, 3490.571
896.4609, 3490.469
896.9431, 3478.426
897.4252, 3466.431
897.9073, 3455.098
898.3894, 3441.756
898.8715, 3422.139
899.3536, 3400.948
899.8358, 3382.816
900.3179, 3368.842
900.8000, 3350.667
901.2821, 3327.375
901.7642, 3300.335
902.2463, 3268.269
902.7285, 3232.703
903.2106, 3201.733
903.6927, 3175.310
904.1748, 3148.876
904.6569, 3119.074
905.1390, 3087.964
905.6212, 3053.240
906.1033, 3018.125
906.5854, 2994.017
907.0675, 2997.039
907.5496, 2996.554
908.0317, 2984.964
908.5139, 2965.150
908.9960, 2942.237
909.4781, 2916.292
909.9602, 2901.332
910.4423, 2907.854
910.9244, 2918.872
911.4066, 2912.739
911.8887, 2896.446
912.3708, 2882.742
912.8529, 2876.213
913.3350, 2872.542
913.8171, 2872.125
914.2993, 2873.231
914.7814, 2872.725
915.2635, 2870.116
915.7456, 2873.293
916.2277, 2884.307
916.7098, 2897.259
917.1920, 2906.050
917.6741, 2911.960
918.1562, 2914.928
918.6383, 2911.407
919.1204, 2917.898
919.6025, 2948.419
920.0847, 2983.491
920.5668, 3009.957
921.0489, 3026.340
921.5310, 3044.310
922.0131, 3063.446
922.4952, 3086.842
922.9774, 3123.568
923.4595, 3162.880
923.9416, 3184.946
924.4237, 3190.085
924.9058, 3201.435
925.3879, 3233.081
925.8701, 3268.345
926.3522, 3301.073
926.8343, 3331.506
927.3164, 3360.185
927.7985, 3387.012
928.2806, 3414.332
928.7628, 3443.545
929.2449, 3473.164
929.7270, 3504.288
930.2091, 3534.128
930.6912, 3556.013
931.1733, 3556.174
931.6555, 3560.583
932.1376, 3582.692
932.6197, 3611.294
933.1018, 3626.388
933.5839, 3625.827
934.0660, 3629.398
934.5482, 3641.912
935.0303, 3655.927
935.5124, 3663.687
935.9945, 3665.798
936.4766, 3663.946
936.9587, 3660.266
937.4409, 3647.879
937.9230, 3613.838
938.4051, 3578.188
938.8872, 3557.801
939.3693, 3556.578
939.8514, 3547.641
940.3336, 3531.145
940.8157, 3505.910
941.2978, 3466.128
941.7799, 3419.112
942.2620, 3372.270
942.7441, 3326.907
943.2263, 3290.153
943.7084, 3273.955
944.1905, 3258.570
944.6726, 3236.368
945.1547, 3208.222
945.6368, 3180.700
946.1190, 3153.950
946.6011, 3120.767
947.0832, 3071.726
947.5653, 3021.245
948.0474, 2987.727
948.5295, 2967.434
949.0117, 2951.667
949.4938, 2945.218
949.9759, 2932.939
950.4580, 2911.438
950.9401, 2883.367
951.4222, 2848.041
951.9044, 2804.845
952.3865, 2782.853
952.8686, 2789.573
953.3507, 2804.395
953.8328, 2812.409
954.3149, 2812.097
954.7971, 2798.494
955.2792, 2764.778
955.7613, 2741.839
956.2434, 2741.890
956.7255, 2744.573
957.2076, 2736.752
957.6898, 2718.831
958.1719, 2706.195
958.6540, 2698.744
959.1361, 2696.100
959.6182, 2704.961
960.1003, 2712.979
960.5825, 2702.860
961.0646, 2679.094
961.5467, 2670.679
962.0288, 2697.614
962.5109, 2717.460
962.9930, 2718.022
963.4752, 2707.110
963.9573, 2705.102
964.4394, 2709.986
964.9215, 2707.967
965.4036, 2689.022
965.8857, 2672.885
966.3679, 2686.873
966.8500, 2708.409
967.3321, 2706.785
967.8142, 2654.565
968.2963, 2622.269
968.7784, 2614.829
969.2606, 2618.468
969.7427, 2622.106
970.2248, 2625.387
970.7069, 2627.353
971.1890, 2627.916
971.6711, 2625.996
972.1533, 2616.048
972.6354, 2607.408
973.1175, 2611.405
973.5996, 2627.346
974.0817, 2621.399
974.5638, 2585.660
975.0460, 2556.273
975.5281, 2550.228
976.0102, 2557.920
976.4923, 2564.239
976.9744, 2567.206
977.4565, 2561.022
977.9387, 2532.397
978.4208, 2506.782
978.9029, 2496.123
979.3850, 2492.199
979.8671, 2483.769
980.3492, 2469.826
980.8314, 2457.296
981.3135, 2446.793
981.7956, 2438.281
982.2777, 2432.040
982.7598, 2427.456
983.2419, 2424.038
983.7241, 2421.927
984.2062, 2419.072
984.6883, 2417.208
985.1704, 2411.590
985.6525, 2396.600
986.1346, 2374.378
986.6168, 2371.759
987.0989, 2388.024
987.5810, 2400.632
988.0631, 2393.632
988.5452, 2379.543
989.0273, 2365.555
989.5095, 2354.044
989.9916, 2351.601
990.4737, 2372.286
990.9558, 2381.182
991.4379, 2370.642
991.9200, 2351.732
992.4022, 2339.275
992.8843, 2333.208
993.3664, 2333.806
993.8485, 2341.953
994.3306, 2351.468
994.8127, 2364.662
995.2949, 2372.862
995.7770, 2365.249
996.2591, 2338.413
996.7412, 2321.447
997.2233, 2316.747
997.7054, 2313.680
998.1876, 2303.622
998.6697, 2291.612
999.1518, 2290.601
999.6339, 2298.033
1000.116, 2303.615
1000.598, 2298.345
1001.080, 2295.695
1001.562, 2305.810
1002.044, 2318.951
1002.527, 2315.471
1003.009, 2293.981
1003.491, 2276.617
1003.973, 2268.208
1004.455, 2262.463
1004.937, 2252.485
1005.419, 2241.225
1005.901, 2232.676
1006.384, 2228.177
1006.866, 2224.032
1007.348, 2222.173
1007.830, 2216.935
1008.312, 2202.525
1008.794, 2181.672
1009.276, 2171.596
1009.758, 2171.215
1010.240, 2171.077
1010.723, 2165.847
1011.205, 2158.938
1011.687, 2153.893
1012.169, 2148.585
1012.651, 2137.163
1013.133, 2116.791
1013.615, 2097.291
1014.097, 2078.591
1014.580, 2065.224
1015.062, 2069.178
1015.544, 2081.543
1016.026, 2084.394
1016.508, 2072.867
1016.990, 2061.013
1017.472, 2054.020
1017.954, 2048.890
1018.436, 2045.110
1018.919, 2042.401
1019.401, 2030.924
1019.883, 2010.642
1020.365, 1995.775
1020.847, 1997.936
1021.329, 2006.588
1021.811, 2014.551
1022.293, 2020.522
1022.776, 2021.364
1023.258, 2013.623
1023.740, 2005.315
1024.222, 1997.016
1024.704, 1988.686
1025.186, 1979.681
1025.668, 1970.616
1026.150, 1965.158
1026.632, 1964.256
1027.115, 1960.282
1027.597, 1945.474
1028.079, 1928.650
1028.561, 1915.106
1029.043, 1904.863
1029.525, 1897.355
1030.007, 1892.788
1030.489, 1890.506
1030.972, 1892.661
1031.454, 1894.205
1031.936, 1887.320
1032.418, 1874.456
1032.900, 1861.017
1033.382, 1852.897
1033.864, 1836.885
1034.346, 1805.616
1034.828, 1774.483
1035.311, 1764.650
1035.793, 1772.167
1036.275, 1769.692
1036.757, 1754.938
1037.239, 1742.530
1037.721, 1749.015
1038.203, 1756.222
1038.685, 1749.637
1039.167, 1730.475
1039.650, 1715.434
1040.132, 1704.961
1040.614, 1697.386
1041.096, 1693.078
1041.578, 1690.119
1042.060, 1687.623
1042.542, 1683.869
1043.024, 1674.931
1043.507, 1654.522
1043.989, 1639.458
1044.471, 1635.246
1044.953, 1634.063
1045.435, 1629.590
1045.917, 1622.247
1046.399, 1617.445
1046.881, 1615.240
1047.364, 1614.096
1047.846, 1616.557
1048.328, 1616.421
1048.810, 1604.967
1049.292, 1586.674
1049.774, 1581.755
1050.256, 1595.884
1050.738, 1603.340
1051.220, 1597.974
1051.703, 1586.806
1052.185, 1576.507
1052.667, 1568.744
1053.149, 1567.363
1053.631, 1574.610
1054.113, 1581.173
1054.595, 1588.442
1055.077, 1589.642
1055.559, 1577.325
1056.042, 1555.163
1056.524, 1549.088
1057.006, 1557.696
1057.488, 1569.502
1057.970, 1586.763
1058.452, 1596.448
1058.934, 1582.155
1059.416, 1557.153
1059.899, 1548.217
1060.381, 1563.198
1060.863, 1566.990
1061.345, 1555.217
1061.827, 1538.563
1062.309, 1524.415
1062.791, 1514.138
1063.273, 1511.678
1063.755, 1517.046
1064.238, 1520.688
1064.720, 1519.281
1065.202, 1516.613
1065.684, 1513.571
1066.166, 1510.146
1066.648, 1506.703
1067.130, 1503.004
1067.612, 1497.000
1068.094, 1485.641
1068.577, 1477.666
1069.059, 1480.231
1069.541, 1487.510
1070.023, 1494.737
1070.505, 1503.073
1070.987, 1502.914
1071.469, 1493.597
1071.951, 1482.365
1072.434, 1473.463
1072.916, 1465.875
1073.398, 1457.047
1073.880, 1448.237
1074.362, 1443.844
1074.844, 1444.195
1075.326, 1451.196
1075.808, 1469.365
1076.291, 1486.823
1076.773, 1484.038
1077.255, 1467.295
1077.737, 1453.390
1078.219, 1444.753
1078.701, 1440.688
1079.183, 1446.687
1079.665, 1451.363
1080.147, 1448.102
1080.630, 1438.624
1081.112, 1433.464
1081.594, 1432.465
1082.076, 1430.460
1082.558, 1423.795
1083.040, 1418.686
1083.522, 1421.782
1084.004, 1429.328
1084.486, 1436.970
1084.969, 1447.448
1085.451, 1448.109
1085.933, 1436.735
1086.415, 1423.902
1086.897, 1415.774
1087.379, 1412.558
1087.861, 1417.579
1088.343, 1428.544
1088.826, 1435.934
1089.308, 1435.062
1089.790, 1431.530
1090.272, 1425.897
1090.754, 1418.810
1091.236, 1409.983
1091.718, 1400.362
1092.200, 1395.106
1092.682, 1395.347
1093.165, 1395.220
1093.647, 1389.140
1094.129, 1383.309
1094.611, 1381.804
1095.093, 1384.078
1095.575, 1385.066
1096.057, 1384.451
1096.539, 1391.895
1097.022, 1416.365
1097.504, 1439.186
1097.986, 1437.542
1098.468, 1423.637
1098.950, 1414.232
1099.432, 1413.941
1099.914, 1412.681
1100.396, 1410.513
1100.879, 1407.270
1101.361, 1400.255
1101.843, 1393.280
1102.325, 1396.976
1102.807, 1407.858
1103.289, 1412.697
1103.771, 1395.855
1104.253, 1387.765
1104.735, 1397.086
1105.218, 1412.370
1105.700, 1419.639
1106.182, 1419.072
1106.664, 1407.702
1107.146, 1384.867
1107.628, 1367.953
1108.110, 1375.406
1108.592, 1383.719
1109.074, 1376.995
1109.557, 1360.272
1110.039, 1355.183
1110.521, 1361.846
1111.003, 1367.903
1111.485, 1368.835
1111.967, 1370.642
1112.449, 1386.478
1112.931, 1401.860
1113.414, 1395.990
1113.896, 1358.112
1114.378, 1351.551
1114.860, 1383.945
1115.342, 1414.258
1115.824, 1416.838
1116.306, 1405.528
1116.788, 1400.508
1117.271, 1399.156
1117.753, 1395.535
1118.235, 1382.647
1118.717, 1375.072
1119.199, 1373.202
1119.681, 1377.464
1120.163, 1394.401
1120.645, 1416.916
1121.127, 1422.944
1121.609, 1412.667
1122.092, 1397.639
1122.574, 1375.503
1123.056, 1359.813
1123.538, 1356.163
1124.020, 1359.984
1124.502, 1362.683
1124.984, 1364.540
1125.466, 1368.548
1125.949, 1375.558
1126.431, 1381.372
1126.913, 1384.327
1127.395, 1383.787
1127.877, 1376.922
1128.359, 1365.259
1128.841, 1361.146
1129.323, 1364.969
1129.806, 1369.609
1130.288, 1372.717
1130.770, 1375.066
1131.252, 1376.185
1131.734, 1377.616
1132.216, 1382.139
1132.698, 1392.550
1133.180, 1395.656
1133.662, 1389.481
1134.145, 1384.254
1134.627, 1386.583
1135.109, 1393.805
1135.591, 1408.521
1136.073, 1424.384
1136.555, 1424.952
1137.037, 1381.927
1137.519, 1360.116
1138.001, 1368.458
1138.484, 1387.685
1138.966, 1400.192
1139.448, 1407.480
1139.930, 1413.937
1140.412, 1419.244
1140.894, 1417.933
1141.376, 1398.372
1141.858, 1383.986
1142.341, 1381.287
1142.823, 1386.241
1143.305, 1395.486
1143.787, 1406.419
1144.269, 1403.944
1144.751, 1383.691
1145.233, 1371.153
1145.715, 1394.824
1146.198, 1415.705
1146.680, 1409.086
1147.162, 1382.544
1147.644, 1371.253
1148.126, 1374.585
1148.608, 1385.219
1149.090, 1404.276
1149.572, 1420.925
1150.054, 1423.959
1150.536, 1422.850
1151.019, 1428.669
1151.501, 1443.052
1151.983, 1440.529
1152.465, 1420.182
1152.947, 1405.621
1153.429, 1416.329
1153.911, 1430.915
1154.393, 1424.767
1154.876, 1409.643
1155.358, 1407.251
1155.840, 1424.910
1156.322, 1436.085
1156.804, 1439.533
1157.286, 1440.693
1157.768, 1445.444
1158.250, 1449.375
1158.733, 1444.812
1159.215, 1434.264
1159.697, 1427.726
1160.179, 1428.680
1160.661, 1429.145
1161.143, 1428.011
1161.625, 1426.753
1162.107, 1425.924
1162.589, 1426.661
1163.072, 1434.254
1163.554, 1447.990
1164.036, 1450.905
1164.518, 1428.564
1165.000, 1412.559
1165.482, 1411.399
1165.964, 1418.535
1166.446, 1426.778
1166.928, 1433.047
1167.411, 1427.834
1167.893, 1406.972
1168.375, 1392.741
1168.857, 1396.261
1169.339, 1403.496
1169.821, 1412.051
1170.303, 1418.621
1170.785, 1406.834
1171.268, 1384.401
1171.750, 1378.836
1172.232, 1409.172
1172.714, 1430.205
1173.196, 1410.126
1173.678, 1388.475
1174.160, 1391.351
1174.642, 1413.807
1175.125, 1422.325
1175.607, 1419.290
1176.089, 1417.443
1176.571, 1425.978
1177.053, 1432.848
1177.535, 1430.434
1178.017, 1425.610
1178.499, 1425.075
1178.981, 1428.747
1179.464, 1430.219
1179.946, 1429.354
1180.428, 1425.656
1180.910, 1413.956
1181.392, 1404.658
1181.874, 1404.938
1182.356, 1410.335
1182.838, 1414.292
1183.320, 1416.793
1183.803, 1419.492
1184.285, 1422.559
1184.767, 1424.519
1185.249, 1423.169
1185.731, 1421.405
1186.213, 1423.261
1186.695, 1425.917
1187.177, 1418.750
1187.660, 1400.352
1188.142, 1396.764
1188.624, 1414.246
1189.106, 1430.492
1189.588, 1420.663
1190.070, 1405.682
1190.552, 1405.757
1191.034, 1418.089
1191.516, 1414.582
1191.999, 1392.484
1192.481, 1381.735
1192.963, 1391.558
1193.445, 1408.099
1193.927, 1423.444
1194.409, 1434.491
1194.891, 1436.586
1195.373, 1429.415
1195.855, 1422.939
1196.338, 1417.172
1196.820, 1411.538
1197.302, 1405.275
1197.784, 1400.301
1198.266, 1401.706
1198.748, 1404.101
1199.230, 1398.112
1199.712, 1379.298
1200.195, 1378.979
1200.677, 1400.155
1201.159, 1418.849
1201.641, 1421.583
1202.123, 1416.116
1202.605, 1401.908
1203.087, 1388.960
1203.569, 1396.427
1204.052, 1440.804
1204.534, 1456.657
1205.016, 1439.397
1205.498, 1421.833
1205.980, 1433.421
1206.462, 1451.368
1206.944, 1445.822
1207.426, 1426.748
1207.908, 1418.404
1208.391, 1429.695
1208.873, 1429.624
1209.355, 1414.021
1209.837, 1402.647
1210.319, 1421.727
1210.801, 1446.926
1211.283, 1446.290
1211.765, 1427.256
1212.247, 1419.346
1212.730, 1429.156
1213.212, 1436.164
1213.694, 1438.303
1214.176, 1437.200
1214.658, 1430.568
1215.140, 1424.378
1215.622, 1428.578
1216.104, 1440.684
1216.587, 1443.118
1217.069, 1431.014
1217.551, 1423.193
1218.033, 1423.022
1218.515, 1426.403
1218.997, 1428.912
1219.479, 1432.359
1219.961, 1440.578
1220.443, 1452.989
1220.926, 1459.793
1221.408, 1460.596
1221.890, 1454.674
1222.372, 1439.583
1222.854, 1425.710
1223.336, 1427.364
1223.818, 1436.012
1224.300, 1443.672
1224.782, 1449.165
1225.265, 1446.206
1225.747, 1431.605
1226.229, 1424.923
1226.711, 1434.474
1227.193, 1447.924
1227.675, 1448.191
1228.157, 1445.088
1228.639, 1453.533
1229.122, 1477.165
1229.604, 1480.131
1230.086, 1458.679
1230.568, 1441.867
1231.050, 1442.078
1231.532, 1449.177
1232.014, 1454.492
1232.496, 1458.198
1232.979, 1460.062
1233.461, 1459.724
1233.943, 1463.482
1234.425, 1472.466
1234.907, 1472.707
1235.389, 1448.584
1235.871, 1427.595
1236.353, 1448.814
1236.835, 1482.932
1237.318, 1487.462
1237.800, 1455.432
1238.282, 1441.857
1238.764, 1447.574
1239.246, 1456.574
1239.728, 1460.255
1240.210, 1463.223
1240.692, 1472.920
1241.175, 1482.071
1241.657, 1479.970
1242.139, 1464.170
1242.621, 1452.186
1243.103, 1443.904
1243.585, 1440.312
1244.067, 1442.304
1244.549, 1448.643
1245.031, 1462.349
1245.514, 1477.839
1245.996, 1488.558
1246.478, 1494.869
1246.960, 1489.303
1247.442, 1472.513
1247.924, 1459.928
1248.406, 1466.398
1248.888, 1474.581
1249.370, 1475.332
1249.853, 1471.698
1250.335, 1467.146
1250.817, 1461.781
1251.299, 1457.603
1251.781, 1454.587
1252.263, 1450.854
1252.745, 1437.585
1253.227, 1432.752
1253.710, 1454.304
1254.192, 1480.556
1254.674, 1479.630
1255.156, 1456.813
1255.638, 1453.973
1256.120, 1471.458
1256.602, 1482.462
1257.084, 1458.151
1257.567, 1443.722
1258.049, 1458.128
1258.531, 1482.805
1259.013, 1493.471
1259.495, 1492.465
1259.977, 1486.985
1260.459, 1477.938
1260.941, 1467.927
1261.423, 1450.076
1261.906, 1444.190
1262.388, 1459.312
1262.870, 1479.909
1263.352, 1482.991
1263.834, 1474.363
1264.316, 1464.069
1264.798, 1453.979
1265.280, 1452.737
1265.762, 1475.390
1266.245, 1484.988
1266.727, 1470.130
1267.209, 1451.283
1267.691, 1462.590
1268.173, 1486.112
1268.655, 1489.308
1269.137, 1470.895
1269.619, 1461.981
1270.102, 1470.998
1270.584, 1475.792
1271.066, 1471.546
1271.548, 1462.458
1272.030, 1446.508
1272.512, 1433.733
1272.994, 1440.193
1273.476, 1465.421
1273.958, 1481.540
1274.441, 1486.734
1274.923, 1486.865
1275.405, 1482.172
1275.887, 1477.376
1276.369, 1476.247
1276.851, 1478.281
1277.333, 1485.990
1277.815, 1497.181
1278.297, 1498.179
1278.780, 1488.407
1279.262, 1480.600
1279.744, 1477.771
1280.226, 1476.974
1280.708, 1476.087
1281.190, 1476.118
1281.672, 1477.530
1282.154, 1480.448
1282.637, 1487.952
1283.119, 1498.844
1283.601, 1498.909
1284.083, 1482.839
1284.565, 1473.295
1285.047, 1496.236
1285.529, 1515.210
1286.011, 1511.150
1286.494, 1491.837
1286.976, 1474.114
1287.458, 1460.206
1287.940, 1461.651
1288.422, 1483.646
1288.904, 1496.542
1289.386, 1480.832
1289.868, 1465.149
1290.350, 1458.324
1290.833, 1457.354
1291.315, 1455.677
1291.797, 1455.631
1292.279, 1464.234
1292.761, 1484.727
1293.243, 1494.700
1293.725, 1487.597
1294.207, 1482.579
1294.689, 1487.743
1295.172, 1493.575
1295.654, 1482.100
1296.136, 1465.021
1296.618, 1459.172
1297.100, 1468.214
1297.582, 1470.214
1298.064, 1463.481
1298.546, 1460.884
1299.029, 1467.625
##END=



