##NAMES=Stellerite
##RRUFFID=R070535
##IDEAL CHEMISTRY=Ca_4_(Si_28_Al_8_)O_72_&#183;28H_2_O
##LOCALITY=Upper Clackamas River, Clackamas County, Oregon, USA
##OWNER=RRUFF
##SOURCE=James Shigley
##DESCRIPTION=Sheaflike aggregates of white, tabular crystals
##STATUS=The identification of this mineral has been confirmed by X-ray diffraction and chemical analysis
##URL=rruff.info/R070535
##MEASURED CHEMISTRY=(Ca_3.91_K_0.09_)_Σ=4_(Si_28.09_Al_7.91_)O_72_·22.5H_2_O; trace amounts of Na; H_2_O estimated by difference
130.8707, 1206.706
131.3528, 1287.277
131.8349, 1377.915
132.3170, 1476.084
132.7991, 1575.830
133.2813, 1677.381
133.7634, 1785.583
134.2455, 1910.909
134.7276, 2051.003
135.2097, 2184.374
135.6918, 2305.329
136.1740, 2415.527
136.6561, 2526.241
137.1382, 2637.339
137.6203, 2750.376
138.1024, 2869.561
138.5845, 2997.028
139.0667, 3123.307
139.5488, 3245.376
140.0309, 3363.135
140.5130, 3490.695
140.9951, 3630.605
141.4772, 3779.223
141.9594, 3930.977
142.4415, 4094.197
142.9236, 4245.661
143.4057, 4377.121
143.8878, 4478.950
144.3699, 4584.652
144.8521, 4694.169
145.3342, 4807.461
145.8163, 4921.499
146.2984, 5043.831
146.7805, 5159.240
147.2626, 5262.253
147.7448, 5348.964
148.2269, 5428.305
148.7090, 5504.667
149.1911, 5577.262
149.6732, 5625.240
150.1553, 5625.479
150.6375, 5615.750
151.1196, 5622.927
151.6017, 5661.067
152.0838, 5701.696
152.5659, 5739.739
153.0480, 5774.268
153.5302, 5817.144
154.0123, 5875.830
154.4944, 5940.593
154.9765, 6001.554
155.4586, 6064.463
155.9408, 6117.318
156.4229, 6151.332
156.9050, 6131.480
157.3871, 6098.757
157.8692, 6094.541
158.3513, 6108.874
158.8335, 6121.396
159.3156, 6134.406
159.7977, 6140.108
160.2798, 6134.116
160.7619, 6110.961
161.2440, 6087.325
161.7262, 6065.063
162.2083, 6045.809
162.6904, 6033.723
163.1725, 6043.830
163.6546, 6053.709
164.1367, 6047.355
164.6189, 6005.674
165.1010, 5965.774
165.5831, 5948.392
166.0652, 5949.198
166.5473, 5947.246
167.0294, 5935.340
167.5116, 5913.878
167.9937, 5883.208
168.4758, 5824.772
168.9579, 5770.872
169.4400, 5747.382
169.9221, 5752.859
170.4043, 5758.949
170.8864, 5747.371
171.3685, 5724.625
171.8506, 5700.133
172.3327, 5670.768
172.8148, 5645.536
173.2970, 5639.584
173.7791, 5655.896
174.2612, 5664.657
174.7433, 5622.269
175.2254, 5552.776
175.7076, 5508.004
176.1897, 5537.714
176.6718, 5597.860
177.1539, 5630.768
177.6360, 5628.354
178.1181, 5611.088
178.6003, 5599.938
179.0824, 5592.309
179.5645, 5578.444
180.0466, 5540.863
180.5287, 5494.336
181.0108, 5470.864
181.4930, 5480.738
181.9751, 5502.035
182.4572, 5504.428
182.9393, 5489.659
183.4214, 5471.587
183.9035, 5457.276
184.3857, 5446.919
184.8678, 5441.636
185.3499, 5443.246
185.8320, 5448.160
186.3141, 5450.610
186.7962, 5450.565
187.2784, 5447.660
187.7605, 5437.635
188.2426, 5422.857
188.7247, 5416.139
189.2068, 5425.688
189.6889, 5443.405
190.1711, 5445.456
190.6532, 5430.354
191.1353, 5412.193
191.6174, 5407.017
192.0995, 5413.720
192.5816, 5418.268
193.0638, 5414.522
193.5459, 5404.844
194.0280, 5399.884
194.5101, 5399.682
194.9922, 5404.049
195.4743, 5417.960
195.9565, 5441.623
196.4386, 5454.636
196.9207, 5443.939
197.4028, 5411.929
197.8849, 5389.545
198.3670, 5377.449
198.8492, 5373.176
199.3313, 5374.599
199.8134, 5382.472
200.2955, 5390.090
200.7776, 5394.224
201.2597, 5394.673
201.7419, 5396.516
202.2240, 5401.417
202.7061, 5405.374
203.1882, 5399.197
203.6703, 5380.675
204.1524, 5360.878
204.6346, 5343.113
205.1167, 5326.443
205.5988, 5320.034
206.0809, 5327.550
206.5630, 5342.937
207.0451, 5350.796
207.5273, 5349.738
208.0094, 5345.479
208.4915, 5341.348
208.9736, 5337.898
209.4557, 5331.644
209.9378, 5320.077
210.4200, 5306.354
210.9021, 5302.075
211.3842, 5309.312
211.8663, 5321.493
212.3484, 5336.681
212.8306, 5358.269
213.3127, 5369.534
213.7948, 5366.393
214.2769, 5351.247
214.7590, 5335.077
215.2411, 5312.830
215.7233, 5298.778
216.2054, 5307.068
216.6875, 5345.972
217.1696, 5381.366
217.6517, 5409.595
218.1338, 5430.534
218.6160, 5441.964
219.0981, 5442.313
219.5802, 5435.438
220.0623, 5423.089
220.5444, 5401.021
221.0265, 5384.042
221.5087, 5374.774
221.9908, 5373.176
222.4729, 5376.298
222.9550, 5386.248
223.4371, 5398.592
223.9192, 5409.549
224.4014, 5419.619
224.8835, 5427.312
225.3656, 5434.299
225.8477, 5441.373
226.3298, 5432.921
226.8119, 5397.493
227.2941, 5357.706
227.7762, 5338.796
228.2583, 5346.828
228.7404, 5364.407
229.2225, 5392.506
229.7046, 5434.513
230.1868, 5454.532
230.6689, 5441.555
231.1510, 5415.463
231.6331, 5401.670
232.1152, 5407.302
232.5973, 5412.664
233.0795, 5412.549
233.5616, 5405.988
234.0437, 5399.580
234.5258, 5388.391
235.0079, 5381.232
235.4900, 5394.190
235.9722, 5446.993
236.4543, 5486.471
236.9364, 5493.744
237.4185, 5459.622
237.9006, 5433.322
238.3827, 5415.426
238.8649, 5404.886
239.3470, 5399.858
239.8291, 5399.678
240.3112, 5405.964
240.7933, 5421.346
241.2754, 5451.029
241.7576, 5470.263
242.2397, 5476.389
242.7218, 5473.220
243.2039, 5466.880
243.6860, 5454.516
244.1681, 5443.370
244.6503, 5435.592
245.1324, 5430.689
245.6145, 5430.707
246.0966, 5436.210
246.5787, 5446.466
247.0608, 5461.095
247.5430, 5485.069
248.0251, 5505.409
248.5072, 5516.200
248.9893, 5512.896
249.4714, 5513.775
249.9535, 5520.050
250.4357, 5529.875
250.9178, 5540.800
251.3999, 5557.871
251.8820, 5567.295
252.3641, 5560.601
252.8462, 5527.505
253.3284, 5509.949
253.8105, 5515.119
254.2926, 5532.544
254.7747, 5538.247
255.2568, 5524.327
255.7389, 5512.710
256.2211, 5514.414
256.7032, 5537.740
257.1853, 5548.360
257.6674, 5540.071
258.1495, 5522.219
258.6317, 5516.440
259.1138, 5527.841
259.5959, 5541.439
260.0780, 5550.280
260.5601, 5551.703
261.0422, 5557.007
261.5244, 5567.704
262.0065, 5581.349
262.4886, 5591.409
262.9707, 5595.294
263.4528, 5601.379
263.9349, 5616.133
264.4171, 5646.451
264.8992, 5659.766
265.3813, 5648.114
265.8634, 5625.032
266.3455, 5623.905
266.8276, 5656.027
267.3098, 5681.703
267.7919, 5677.378
268.2740, 5631.075
268.7561, 5609.619
269.2382, 5621.183
269.7203, 5651.820
270.2025, 5673.021
270.6846, 5681.505
271.1667, 5689.916
271.6488, 5706.802
272.1309, 5735.570
272.6130, 5750.548
273.0952, 5747.535
273.5773, 5734.783
274.0594, 5727.151
274.5415, 5724.281
275.0236, 5728.112
275.5057, 5744.014
275.9879, 5774.529
276.4700, 5790.465
276.9521, 5788.070
277.4342, 5775.789
277.9163, 5766.746
278.3984, 5760.249
278.8806, 5761.247
279.3627, 5775.817
279.8448, 5804.386
280.3269, 5824.437
280.8090, 5833.015
281.2911, 5837.138
281.7733, 5854.622
282.2554, 5888.032
282.7375, 5905.322
283.2196, 5876.158
283.7017, 5804.323
284.1838, 5778.284
284.6660, 5809.727
285.1481, 5861.859
285.6302, 5880.179
286.1123, 5864.451
286.5944, 5842.055
287.0765, 5819.944
287.5587, 5799.715
288.0408, 5794.705
288.5229, 5807.376
289.0050, 5827.958
289.4871, 5848.244
289.9692, 5867.607
290.4514, 5876.009
290.9335, 5864.709
291.4156, 5838.003
291.8977, 5810.708
292.3798, 5781.275
292.8619, 5758.601
293.3441, 5757.500
293.8262, 5774.888
294.3083, 5793.379
294.7904, 5808.987
295.2725, 5820.282
295.7546, 5822.356
296.2368, 5814.669
296.7189, 5802.615
297.2010, 5791.118
297.6831, 5779.988
298.1652, 5768.227
298.6473, 5751.025
299.1295, 5734.477
299.6116, 5731.191
300.0937, 5741.534
300.5758, 5755.096
301.0579, 5761.142
301.5400, 5762.936
302.0222, 5768.346
302.5043, 5788.623
302.9864, 5809.322
303.4685, 5806.195
303.9506, 5780.239
304.4327, 5755.650
304.9149, 5752.910
305.3970, 5764.266
305.8791, 5777.337
306.3612, 5791.130
306.8433, 5802.198
307.3254, 5802.094
307.8076, 5792.683
308.2897, 5790.396
308.7718, 5816.482
309.2539, 5853.128
309.7360, 5877.901
310.2181, 5879.151
310.7003, 5871.737
311.1824, 5861.635
311.6645, 5850.180
312.1466, 5844.408
312.6287, 5850.087
313.1108, 5862.355
313.5930, 5877.743
314.0751, 5903.375
314.5572, 5921.102
315.0393, 5913.373
315.5214, 5887.790
316.0035, 5870.759
316.4857, 5879.979
316.9678, 5898.274
317.4499, 5914.416
317.9320, 5928.949
318.4141, 5936.367
318.8962, 5927.725
319.3784, 5910.051
319.8605, 5900.143
320.3426, 5908.351
320.8247, 5922.252
321.3068, 5936.614
321.7889, 5954.965
322.2711, 5964.264
322.7532, 5950.699
323.2353, 5926.855
323.7174, 5916.479
324.1995, 5941.154
324.6816, 5965.404
325.1638, 5974.417
325.6459, 5960.398
326.1280, 5950.523
326.6101, 5955.062
327.0922, 5963.344
327.5743, 5959.953
328.0565, 5923.869
328.5386, 5896.201
329.0207, 5890.623
329.5028, 5915.145
329.9849, 5927.434
330.4670, 5920.257
330.9492, 5905.071
331.4313, 5894.047
331.9134, 5888.699
332.3955, 5885.719
332.8776, 5885.818
333.3597, 5889.276
333.8419, 5887.488
334.3240, 5873.458
334.8061, 5861.125
335.2882, 5864.675
335.7704, 5893.548
336.2525, 5916.375
336.7346, 5927.777
337.2167, 5928.434
337.6988, 5925.126
338.1809, 5917.103
338.6631, 5906.241
339.1452, 5892.525
339.6273, 5874.090
340.1094, 5861.270
340.5915, 5855.179
341.0736, 5855.687
341.5558, 5864.866
342.0379, 5885.369
342.5200, 5903.200
343.0021, 5904.413
343.4842, 5889.096
343.9663, 5890.674
344.4485, 5917.755
344.9306, 5954.690
345.4127, 5969.297
345.8948, 5961.907
346.3769, 5947.969
346.8590, 5931.929
347.3412, 5915.557
347.8233, 5908.565
348.3054, 5912.695
348.7875, 5921.814
349.2696, 5926.713
349.7517, 5928.675
350.2339, 5934.623
350.7160, 5950.257
351.1981, 5971.227
351.6802, 5991.468
352.1623, 6010.979
352.6444, 6024.419
353.1266, 6018.375
353.6087, 6001.988
354.0908, 5995.454
354.5729, 6015.539
355.0550, 6044.147
355.5371, 6061.900
356.0193, 6069.503
356.5014, 6075.162
356.9835, 6088.957
357.4656, 6103.097
357.9477, 6107.306
358.4298, 6089.532
358.9120, 6071.165
359.3941, 6064.702
359.8762, 6069.200
360.3583, 6080.298
360.8404, 6100.831
361.3225, 6124.337
361.8047, 6146.164
362.2868, 6165.296
362.7689, 6182.512
363.2510, 6199.537
363.7331, 6214.746
364.2152, 6224.389
364.6974, 6222.752
365.1795, 6218.486
365.6616, 6214.233
366.1437, 6207.470
366.6258, 6208.019
367.1079, 6218.574
367.5901, 6237.110
368.0722, 6260.579
368.5543, 6299.474
369.0364, 6333.185
369.5185, 6357.007
370.0006, 6370.797
370.4828, 6377.206
370.9649, 6368.320
371.4470, 6357.419
371.9291, 6357.025
372.4112, 6370.210
372.8933, 6389.589
373.3755, 6418.012
373.8576, 6453.987
374.3397, 6471.939
374.8218, 6459.013
375.3039, 6447.427
375.7860, 6464.465
376.2682, 6519.788
376.7503, 6563.765
377.2324, 6587.367
377.7145, 6597.716
378.1966, 6617.111
378.6787, 6647.357
379.1609, 6677.425
379.6430, 6702.197
380.1251, 6721.613
380.6072, 6733.920
381.0893, 6737.103
381.5714, 6738.201
382.0536, 6747.168
382.5357, 6764.102
383.0178, 6786.852
383.4999, 6818.385
383.9820, 6855.211
384.4641, 6884.887
384.9463, 6906.636
385.4284, 6930.184
385.9105, 6968.492
386.3926, 7016.889
386.8747, 7063.624
387.3568, 7107.477
387.8390, 7145.563
388.3211, 7167.093
388.8032, 7174.824
389.2853, 7192.882
389.7674, 7253.061
390.2495, 7327.777
390.7317, 7380.837
391.2138, 7389.426
391.6959, 7397.458
392.1780, 7436.859
392.6601, 7499.392
393.1422, 7559.930
393.6244, 7595.896
394.1065, 7634.932
394.5886, 7701.220
395.0707, 7813.209
395.5528, 7904.443
396.0349, 7932.114
396.5171, 7931.104
396.9992, 7952.662
397.4813, 8024.874
397.9634, 8103.972
398.4455, 8177.534
398.9276, 8243.098
399.4098, 8313.512
399.8919, 8401.953
400.3740, 8488.493
400.8561, 8556.521
401.3382, 8584.093
401.8203, 8624.273
402.3025, 8688.407
402.7846, 8772.163
403.2667, 8846.974
403.7488, 8910.638
404.2309, 8967.951
404.7130, 9023.597
405.1952, 9081.231
405.6773, 9120.949
406.1594, 9138.402
406.6415, 9140.914
407.1236, 9140.550
407.6057, 9135.810
408.0879, 9136.671
408.5700, 9150.994
409.0521, 9177.195
409.5342, 9197.840
410.0163, 9214.735
410.4984, 9217.199
410.9806, 9183.921
411.4627, 9120.260
411.9448, 9063.206
412.4269, 9031.639
412.9090, 9008.414
413.3911, 8958.662
413.8733, 8883.934
414.3554, 8805.473
414.8375, 8739.778
415.3196, 8681.786
415.8017, 8624.325
416.2838, 8567.770
416.7660, 8508.486
417.2481, 8440.330
417.7302, 8367.550
418.2123, 8301.780
418.6944, 8255.634
419.1765, 8214.797
419.6587, 8170.328
420.1408, 8120.692
420.6229, 8068.519
421.1050, 8012.889
421.5871, 7956.318
422.0692, 7900.975
422.5514, 7843.658
423.0335, 7792.189
423.5156, 7751.615
423.9977, 7721.820
424.4798, 7686.382
424.9619, 7639.301
425.4441, 7589.362
425.9262, 7540.686
426.4083, 7484.391
426.8904, 7443.232
427.3725, 7423.346
427.8546, 7417.796
428.3368, 7409.596
428.8189, 7403.237
429.3010, 7386.019
429.7831, 7350.438
430.2652, 7293.988
430.7473, 7239.119
431.2295, 7182.293
431.7116, 7134.647
432.1937, 7116.470
432.6758, 7130.709
433.1579, 7137.168
433.6401, 7123.729
434.1222, 7094.809
434.6043, 7059.525
435.0864, 7017.145
435.5685, 6983.938
436.0507, 6976.667
436.5328, 6988.979
437.0149, 7004.174
437.4970, 7022.612
437.9791, 7034.755
438.4612, 7021.596
438.9434, 6990.585
439.4255, 6965.476
439.9076, 6966.195
440.3897, 6975.174
440.8718, 6972.875
441.3539, 6957.471
441.8361, 6944.890
442.3182, 6952.002
442.8003, 6964.919
443.2824, 6967.757
443.7645, 6944.298
444.2466, 6921.186
444.7288, 6906.050
445.2109, 6898.933
445.6930, 6900.359
446.1751, 6923.048
446.6572, 6944.526
447.1393, 6952.053
447.6215, 6928.479
448.1036, 6918.958
448.5857, 6930.340
449.0678, 6953.971
449.5499, 6976.621
450.0320, 6998.292
450.5142, 7018.724
450.9963, 7037.865
451.4784, 7055.867
451.9605, 7073.016
452.4426, 7089.895
452.9247, 7105.356
453.4069, 7120.102
453.8890, 7134.747
454.3711, 7140.855
454.8532, 7134.546
455.3353, 7121.788
455.8174, 7116.391
456.2996, 7118.056
456.7817, 7121.901
457.2638, 7128.585
457.7459, 7134.808
458.2280, 7132.167
458.7101, 7119.882
459.1923, 7100.397
459.6744, 7069.777
460.1565, 7034.102
460.6386, 7007.256
461.1207, 7004.352
461.6028, 7003.740
462.0850, 6984.995
462.5671, 6951.458
463.0492, 6921.072
463.5313, 6910.845
464.0134, 6902.551
464.4955, 6878.828
464.9777, 6820.352
465.4598, 6782.590
465.9419, 6799.795
466.4240, 6843.910
466.9061, 6869.169
467.3882, 6855.397
467.8704, 6834.631
468.3525, 6812.859
468.8346, 6790.083
469.3167, 6766.391
469.7988, 6733.546
470.2809, 6707.739
470.7631, 6705.060
471.2452, 6740.894
471.7273, 6754.862
472.2094, 6734.313
472.6915, 6694.297
473.1736, 6670.760
473.6558, 6665.506
474.1379, 6666.705
474.6200, 6670.268
475.1021, 6676.233
475.5842, 6683.624
476.0663, 6692.702
476.5485, 6702.967
477.0306, 6712.375
477.5127, 6722.256
477.9948, 6736.788
478.4769, 6758.539
478.9590, 6783.575
479.4412, 6803.621
479.9233, 6821.347
480.4054, 6848.311
480.8875, 6900.073
481.3696, 6958.359
481.8517, 7006.202
482.3339, 7038.762
482.8160, 7072.402
483.2981, 7118.378
483.7802, 7168.787
484.2623, 7212.382
484.7444, 7229.028
485.2266, 7257.740
485.7087, 7319.049
486.1908, 7409.513
486.6729, 7477.070
487.1550, 7504.507
487.6371, 7524.565
488.1193, 7552.378
488.6014, 7587.452
489.0835, 7631.347
489.5656, 7689.031
490.0477, 7751.147
490.5298, 7805.436
491.0120, 7852.783
491.4941, 7888.371
491.9762, 7904.125
492.4583, 7907.583
492.9404, 7937.415
493.4225, 7995.372
493.9047, 8061.412
494.3868, 8135.012
494.8689, 8205.172
495.3510, 8236.595
495.8331, 8218.214
496.3152, 8175.566
496.7974, 8129.312
497.2795, 8080.434
497.7616, 8032.855
498.2437, 7997.122
498.7258, 7956.357
499.2079, 7895.232
499.6901, 7814.068
500.1722, 7726.426
500.6543, 7626.769
501.1364, 7530.674
501.6185, 7449.711
502.1006, 7400.509
502.5828, 7347.048
503.0649, 7277.930
503.5470, 7200.764
504.0291, 7132.931
504.5112, 7078.940
504.9933, 7027.631
505.4755, 6975.880
505.9576, 6923.756
506.4397, 6875.925
506.9218, 6833.996
507.4039, 6793.970
507.8860, 6749.824
508.3682, 6699.854
508.8503, 6664.084
509.3324, 6648.247
509.8145, 6641.635
510.2966, 6621.247
510.7787, 6588.689
511.2609, 6563.544
511.7430, 6563.050
512.2251, 6574.244
512.7072, 6572.338
513.1893, 6557.204
513.6714, 6536.535
514.1536, 6505.713
514.6357, 6476.729
515.1178, 6467.651
515.5999, 6496.620
516.0820, 6520.880
516.5641, 6511.472
517.0463, 6481.413
517.5284, 6457.393
518.0105, 6451.191
518.4926, 6449.250
518.9747, 6446.084
519.4568, 6440.782
519.9390, 6441.122
520.4211, 6457.112
520.9032, 6470.511
521.3853, 6470.071
521.8674, 6456.403
522.3495, 6423.460
522.8317, 6355.392
523.3138, 6279.778
523.7959, 6265.444
524.2780, 6323.118
524.7601, 6372.315
525.2422, 6377.608
525.7244, 6349.324
526.2065, 6331.692
526.6886, 6325.027
527.1707, 6326.224
527.6528, 6336.810
528.1349, 6352.844
528.6171, 6366.280
529.0992, 6375.591
529.5813, 6381.823
530.0634, 6386.855
530.5455, 6389.351
531.0276, 6386.860
531.5098, 6366.520
531.9919, 6350.781
532.4740, 6354.196
532.9561, 6376.088
533.4382, 6396.627
533.9203, 6419.156
534.4025, 6432.462
534.8846, 6427.724
535.3667, 6380.823
535.8488, 6358.133
536.3309, 6373.396
536.8130, 6404.679
537.2952, 6418.049
537.7773, 6406.848
538.2594, 6396.722
538.7415, 6394.554
539.2236, 6398.773
539.7057, 6401.542
540.1879, 6403.283
540.6700, 6401.199
541.1521, 6389.301
541.6342, 6371.299
542.1163, 6361.179
542.5984, 6360.268
543.0806, 6365.712
543.5627, 6380.055
544.0448, 6397.902
544.5269, 6408.726
545.0090, 6405.068
545.4911, 6396.449
545.9733, 6385.331
546.4554, 6373.654
546.9375, 6368.884
547.4196, 6378.915
547.9017, 6392.635
548.3839, 6407.477
548.8660, 6428.175
549.3481, 6431.485
549.8302, 6397.668
550.3123, 6357.865
550.7944, 6340.376
551.2766, 6357.216
551.7587, 6370.652
552.2408, 6377.687
552.7229, 6378.183
553.2050, 6368.238
553.6871, 6345.417
554.1693, 6328.556
554.6514, 6327.286
555.1335, 6339.315
555.6156, 6358.387
556.0977, 6385.071
556.5798, 6404.768
557.0620, 6394.206
557.5441, 6369.489
558.0262, 6362.491
558.5083, 6386.340
558.9904, 6413.181
559.4725, 6425.635
559.9547, 6426.037
560.4368, 6418.522
560.9189, 6398.305
561.4010, 6376.787
561.8831, 6354.873
562.3652, 6333.391
562.8474, 6323.677
563.3295, 6339.306
563.8116, 6357.448
564.2937, 6368.169
564.7758, 6369.917
565.2579, 6367.125
565.7401, 6354.729
566.2222, 6343.918
566.7043, 6351.739
567.1864, 6380.433
567.6685, 6406.920
568.1506, 6427.806
568.6328, 6441.604
569.1149, 6439.637
569.5970, 6423.799
570.0791, 6414.507
570.5612, 6436.439
571.0433, 6466.881
571.5255, 6467.020
572.0076, 6434.232
572.4897, 6406.673
572.9718, 6414.941
573.4539, 6439.452
573.9360, 6461.647
574.4182, 6484.637
574.9003, 6492.495
575.3824, 6464.977
575.8645, 6421.232
576.3466, 6399.544
576.8287, 6425.000
577.3109, 6445.194
577.7930, 6445.697
578.2751, 6428.756
578.7572, 6425.045
579.2393, 6439.821
579.7214, 6455.058
580.2036, 6457.762
580.6857, 6448.179
581.1678, 6446.010
581.6499, 6453.532
582.1321, 6462.222
582.6142, 6462.057
583.0963, 6454.699
583.5784, 6444.152
584.0605, 6427.541
584.5427, 6414.250
585.0248, 6416.000
585.5069, 6429.231
585.9890, 6443.867
586.4711, 6459.379
586.9532, 6471.212
587.4354, 6475.075
587.9175, 6470.268
588.3996, 6467.312
588.8817, 6467.612
589.3638, 6470.654
589.8459, 6476.247
590.3281, 6485.721
590.8102, 6494.508
591.2923, 6501.916
591.7744, 6508.873
592.2565, 6518.780
592.7386, 6532.915
593.2208, 6537.648
593.7029, 6524.829
594.1850, 6503.792
594.6671, 6498.827
595.1492, 6508.809
595.6313, 6523.625
596.1135, 6540.002
596.5956, 6556.283
597.0777, 6572.156
597.5598, 6587.868
598.0419, 6597.148
598.5240, 6588.046
599.0062, 6575.203
599.4883, 6572.847
599.9704, 6592.891
600.4525, 6609.426
600.9346, 6610.856
601.4167, 6606.523
601.8989, 6613.009
602.3810, 6638.041
602.8631, 6660.835
603.3452, 6676.958
603.8273, 6687.108
604.3094, 6697.856
604.7916, 6710.739
605.2737, 6717.045
605.7558, 6705.272
606.2379, 6680.850
606.7200, 6672.956
607.2021, 6683.144
607.6843, 6700.444
608.1664, 6722.530
608.6485, 6743.004
609.1306, 6749.198
609.6127, 6731.136
610.0948, 6713.648
610.5770, 6714.134
611.0591, 6725.952
611.5412, 6737.744
612.0233, 6748.772
612.5054, 6756.522
612.9875, 6756.831
613.4697, 6751.177
613.9518, 6754.462
614.4339, 6776.810
614.9160, 6793.024
615.3981, 6789.621
615.8802, 6764.817
616.3624, 6742.630
616.8445, 6721.856
617.3266, 6708.231
617.8087, 6710.593
618.2908, 6726.081
618.7729, 6741.300
619.2551, 6754.702
619.7372, 6764.792
620.2193, 6768.513
620.7014, 6767.750
621.1835, 6766.639
621.6656, 6771.266
622.1478, 6772.118
622.6299, 6760.822
623.1120, 6740.308
623.5941, 6723.823
624.0762, 6719.185
624.5583, 6715.389
625.0405, 6706.965
625.5226, 6692.670
626.0047, 6683.938
626.4868, 6682.163
626.9689, 6683.708
627.4510, 6686.183
627.9332, 6689.569
628.4153, 6692.288
628.8974, 6693.713
629.3795, 6695.377
629.8616, 6698.610
630.3438, 6703.658
630.8259, 6712.915
631.3080, 6735.753
631.7901, 6752.357
632.2722, 6731.805
632.7543, 6686.751
633.2365, 6655.084
633.7186, 6664.588
634.2007, 6681.842
634.6828, 6694.240
635.1649, 6701.354
635.6470, 6695.602
636.1292, 6658.185
636.6113, 6625.113
637.0934, 6617.967
637.5755, 6647.177
638.0576, 6665.049
638.5397, 6669.246
639.0219, 6666.689
639.5040, 6663.938
639.9861, 6661.135
640.4682, 6661.358
640.9503, 6666.296
641.4324, 6671.919
641.9146, 6674.453
642.3967, 6673.141
642.8788, 6666.046
643.3609, 6640.023
643.8430, 6617.945
644.3251, 6621.174
644.8073, 6645.269
645.2894, 6662.392
645.7715, 6654.103
646.2536, 6645.947
646.7357, 6653.467
647.2178, 6682.274
647.7000, 6692.524
648.1821, 6672.439
648.6642, 6650.751
649.1463, 6655.227
649.6284, 6689.267
650.1105, 6705.924
650.5927, 6698.432
651.0748, 6681.728
651.5569, 6676.574
652.0390, 6679.601
652.5211, 6679.355
653.0032, 6629.892
653.4854, 6680.907
653.9675, 6709.088
654.4496, 6715.625
654.9317, 6637.736
655.4138, 6667.307
655.8959, 6652.858
656.3781, 6635.951
656.8602, 6678.698
657.3423, 6609.585
657.8244, 6650.014
658.3065, 6645.762
658.7886, 6669.811
659.2708, 6680.704
659.7529, 6607.521
660.2350, 6642.148
660.7171, 6633.108
661.1992, 6621.961
661.6813, 6670.819
662.1635, 6608.167
662.6456, 6655.409
663.1277, 6658.321
663.6098, 6681.042
664.0919, 6659.826
664.5740, 6651.749
665.0562, 6686.962
665.5383, 6697.692
666.0204, 6670.138
666.5025, 6692.158
666.9846, 6638.629
667.4667, 6673.102
667.9489, 6696.328
668.4310, 6692.365
668.9131, 6664.351
669.3952, 6651.142
669.8773, 6656.027
670.3594, 6664.624
670.8416, 6666.491
671.3237, 6663.672
671.8058, 6671.297
672.2879, 6690.121
672.7700, 6709.274
673.2521, 6721.695
673.7343, 6727.262
674.2164, 6723.692
674.6985, 6706.371
675.1806, 6693.792
675.6627, 6699.017
676.1448, 6713.555
676.6270, 6727.486
677.1091, 6748.242
677.5912, 6755.565
678.0733, 6738.005
678.5554, 6709.317
679.0375, 6701.807
679.5197, 6722.483
680.0018, 6739.417
680.4839, 6742.746
680.9660, 6735.704
681.4481, 6725.994
681.9302, 6714.116
682.4124, 6705.929
682.8945, 6708.416
683.3766, 6715.080
683.8587, 6718.015
684.3408, 6717.005
684.8229, 6714.157
685.3051, 6704.091
685.7872, 6697.221
686.2693, 6702.794
686.7514, 6729.376
687.2335, 6747.294
687.7156, 6752.126
688.1978, 6750.843
688.6799, 6749.594
689.1620, 6749.185
689.6441, 6742.965
690.1262, 6726.518
690.6083, 6711.844
691.0905, 6724.694
691.5726, 6758.536
692.0547, 6780.183
692.5368, 6772.311
693.0189, 6758.305
693.5010, 6770.395
693.9832, 6796.951
694.4653, 6809.176
694.9474, 6780.550
695.4295, 6749.076
695.9116, 6730.056
696.3937, 6723.412
696.8759, 6720.854
697.3580, 6726.942
697.8401, 6730.131
698.3222, 6722.094
698.8043, 6702.536
699.2864, 6705.611
699.7686, 6734.619
700.2507, 6767.463
700.7328, 6790.990
701.2149, 6804.211
701.6970, 6798.439
702.1791, 6770.284
702.6613, 6748.796
703.1434, 6766.312
703.6255, 6799.347
704.1076, 6821.647
704.5897, 6824.899
705.0718, 6820.665
705.5540, 6806.540
706.0361, 6788.763
706.5182, 6776.392
707.0003, 6776.557
707.4824, 6766.123
707.9645, 6734.182
708.4467, 6698.192
708.9288, 6702.240
709.4109, 6746.160
709.8930, 6785.625
710.3751, 6804.127
710.8572, 6808.990
711.3394, 6809.064
711.8215, 6805.136
712.3036, 6800.246
712.7857, 6792.699
713.2678, 6787.245
713.7499, 6789.633
714.2321, 6799.125
714.7142, 6802.173
715.1963, 6788.123
715.6784, 6774.136
716.1605, 6764.756
716.6426, 6758.730
717.1248, 6770.974
717.6069, 6807.774
718.0890, 6842.584
718.5711, 6850.614
719.0532, 6836.731
719.5353, 6819.739
720.0175, 6800.662
720.4996, 6784.590
720.9817, 6774.159
721.4638, 6770.437
721.9459, 6776.663
722.4280, 6802.374
722.9102, 6819.509
723.3923, 6809.994
723.8744, 6790.172
724.3565, 6781.765
724.8386, 6789.543
725.3207, 6801.430
725.8029, 6817.810
726.2850, 6835.998
726.7671, 6853.099
727.2492, 6869.107
727.7313, 6874.633
728.2134, 6860.457
728.6956, 6840.824
729.1777, 6839.049
729.6598, 6851.795
730.1419, 6867.638
730.6240, 6887.945
731.1061, 6903.208
731.5883, 6907.845
732.0704, 6902.221
732.5525, 6889.744
733.0346, 6857.066
733.5167, 6833.319
733.9988, 6830.963
734.4810, 6849.920
734.9631, 6860.977
735.4452, 6862.184
735.9273, 6864.338
736.4094, 6881.996
736.8915, 6907.032
737.3737, 6905.127
737.8558, 6874.498
738.3379, 6845.978
738.8200, 6846.296
739.3021, 6859.594
739.7842, 6869.979
740.2664, 6873.878
740.7485, 6877.733
741.2306, 6884.223
741.7127, 6890.693
742.1948, 6895.166
742.6769, 6898.153
743.1591, 6896.801
743.6412, 6888.036
744.1233, 6880.302
744.6054, 6886.958
745.0875, 6906.306
745.5696, 6924.716
746.0518, 6939.626
746.5339, 6951.809
747.0160, 6964.650
747.4981, 6974.704
747.9802, 6975.770
748.4623, 6946.451
748.9445, 6928.467
749.4266, 6951.480
749.9087, 6994.859
750.3908, 7006.453
750.8729, 6965.186
751.3550, 6929.745
751.8372, 6913.637
752.3193, 6912.375
752.8014, 6913.421
753.2835, 6916.950
753.7656, 6918.851
754.2477, 6910.858
754.7299, 6904.404
755.2120, 6928.311
755.6941, 6973.769
756.1762, 7000.233
756.6583, 6954.575
757.1404, 6911.496
757.6226, 6925.073
758.1047, 6997.312
758.5868, 7024.805
759.0689, 6966.997
759.5510, 6914.067
760.0331, 6909.472
760.5153, 6952.396
760.9974, 6982.793
761.4795, 7001.052
761.9616, 7007.413
762.4437, 6994.376
762.9258, 6972.319
763.4080, 6963.262
763.8901, 6969.358
764.3722, 6974.933
764.8543, 6962.332
765.3364, 6950.516
765.8185, 6956.972
766.3007, 6994.882
766.7828, 7019.050
767.2649, 7018.860
767.7470, 7012.600
768.2291, 7015.921
768.7112, 7030.139
769.1934, 7037.250
769.6755, 7034.142
770.1576, 7030.640
770.6397, 7040.421
771.1218, 7058.366
771.6039, 7072.997
772.0861, 7082.439
772.5682, 7086.906
773.0503, 7082.107
773.5324, 7074.395
774.0145, 7071.271
774.4966, 7081.018
774.9788, 7086.551
775.4609, 7086.038
775.9430, 7081.769
776.4251, 7074.121
776.9072, 7061.372
777.3893, 7063.680
777.8715, 7090.769
778.3536, 7122.500
778.8357, 7121.476
779.3179, 7098.591
779.8000, 7083.840
780.2821, 7090.552
780.7642, 7105.816
781.2463, 7127.499
781.7285, 7151.778
782.2106, 7170.056
782.6927, 7177.283
783.1748, 7182.512
783.6569, 7186.981
784.1390, 7190.015
784.6212, 7188.478
785.1033, 7181.431
785.5854, 7177.645
786.0675, 7180.100
786.5496, 7187.525
787.0317, 7199.722
787.5139, 7215.151
787.9960, 7228.592
788.4781, 7239.782
788.9602, 7245.808
789.4423, 7242.934
789.9244, 7232.761
790.4066, 7223.385
790.8887, 7213.243
791.3708, 7208.277
791.8529, 7211.882
792.3350, 7222.505
792.8171, 7231.247
793.2993, 7238.384
793.7814, 7242.408
794.2635, 7243.177
794.7456, 7240.221
795.2277, 7234.018
795.7098, 7223.946
796.1920, 7206.524
796.6741, 7156.075
797.1562, 7118.467
797.6383, 7131.673
798.1204, 7198.817
798.6025, 7229.644
799.0847, 7199.592
799.5668, 7173.712
800.0489, 7187.185
800.5310, 7234.578
801.0131, 7260.960
801.4952, 7266.131
801.9774, 7264.470
802.4595, 7267.371
802.9416, 7268.819
803.4237, 7259.237
803.9058, 7238.612
804.3879, 7218.311
804.8701, 7202.955
805.3522, 7189.882
805.8343, 7176.782
806.3164, 7163.147
806.7985, 7157.771
807.2806, 7165.303
807.7628, 7171.039
808.2449, 7160.016
808.7270, 7136.864
809.2091, 7136.983
809.6912, 7160.933
810.1733, 7179.016
810.6555, 7159.684
811.1376, 7127.638
811.6197, 7108.420
812.1018, 7105.900
812.5839, 7102.278
813.0660, 7088.418
813.5482, 7075.144
814.0303, 7068.651
814.5124, 7069.515
814.9945, 7073.819
815.4766, 7083.342
815.9587, 7089.986
816.4409, 7088.734
816.9230, 7079.394
817.4051, 7054.133
817.8872, 7012.103
818.3693, 6985.684
818.8514, 7014.861
819.3336, 7058.073
819.8157, 7083.070
820.2978, 7084.670
820.7799, 7069.054
821.2620, 7014.296
821.7441, 6970.484
822.2263, 6977.363
822.7084, 7038.718
823.1905, 7084.828
823.6726, 7114.756
824.1547, 7126.625
824.6368, 7106.665
825.1190, 7072.283
825.6011, 7051.086
826.0832, 7047.343
826.5653, 7045.759
827.0474, 7040.218
827.5295, 7033.223
828.0117, 7026.224
828.4938, 7018.773
828.9759, 7014.038
829.4580, 7011.071
829.9401, 7013.665
830.4222, 7034.031
830.9044, 7065.594
831.3865, 7063.232
831.8686, 7022.932
832.3507, 6983.510
832.8328, 6975.660
833.3149, 6986.905
833.7971, 7009.355
834.2792, 7045.714
834.7613, 7071.375
835.2434, 7082.589
835.7255, 7079.628
836.2076, 7057.242
836.6898, 7009.586
837.1719, 6983.397
837.6540, 6980.386
838.1361, 6989.782
838.6182, 7011.338
839.1003, 7036.241
839.5825, 7040.773
840.0646, 7021.833
840.5467, 7013.038
841.0288, 7050.123
841.5109, 7092.669
841.9930, 7108.776
842.4752, 7087.429
842.9573, 7075.682
843.4394, 7077.523
843.9215, 7081.405
844.4036, 7079.250
844.8857, 7071.631
845.3679, 7060.289
845.8500, 7045.055
846.3321, 7041.215
846.8142, 7079.313
847.2963, 7123.685
847.7784, 7132.514
848.2606, 7099.169
848.7427, 7071.458
849.2248, 7063.708
849.7069, 7063.824
850.1890, 7067.285
850.6711, 7074.343
851.1533, 7083.222
851.6354, 7095.469
852.1175, 7101.019
852.5996, 7082.136
853.0817, 7055.239
853.5638, 7062.040
854.0460, 7100.103
854.5281, 7123.642
855.0102, 7087.100
855.4923, 7044.870
855.9744, 7031.536
856.4565, 7050.009
856.9387, 7064.260
857.4208, 7070.820
857.9029, 7080.433
858.3850, 7102.155
858.8671, 7131.266
859.3492, 7144.080
859.8314, 7141.731
860.3135, 7138.773
860.7956, 7148.609
861.2777, 7158.579
861.7598, 7152.479
862.2419, 7133.365
862.7241, 7128.193
863.2062, 7160.760
863.6883, 7187.918
864.1704, 7196.644
864.6525, 7189.564
865.1346, 7180.805
865.6168, 7170.121
866.0989, 7161.897
866.5810, 7159.784
867.0631, 7160.195
867.5452, 7155.150
868.0273, 7147.715
868.5095, 7148.070
868.9916, 7169.966
869.4737, 7190.751
869.9558, 7207.929
870.4379, 7217.809
870.9200, 7200.868
871.4022, 7145.990
871.8843, 7113.104
872.3664, 7127.863
872.8485, 7165.804
873.3306, 7178.940
873.8127, 7172.877
874.2949, 7165.726
874.7770, 7162.645
875.2591, 7163.259
875.7412, 7171.432
876.2233, 7182.323
876.7054, 7184.668
877.1876, 7169.732
877.6697, 7162.044
878.1518, 7165.820
878.6339, 7177.053
879.1160, 7191.348
879.5981, 7207.633
880.0803, 7220.749
880.5624, 7231.289
881.0445, 7233.352
881.5266, 7209.598
882.0087, 7178.687
882.4908, 7165.667
882.9730, 7201.446
883.4551, 7219.181
883.9372, 7207.353
884.4193, 7185.032
884.9014, 7171.708
885.3835, 7167.454
885.8657, 7174.766
886.3478, 7196.349
886.8299, 7215.972
887.3120, 7209.061
887.7941, 7193.109
888.2762, 7194.956
888.7584, 7227.276
889.2405, 7247.554
889.7226, 7229.110
890.2047, 7205.061
890.6868, 7197.132
891.1689, 7208.005
891.6511, 7218.584
892.1332, 7229.226
892.6153, 7235.146
893.0974, 7227.685
893.5795, 7214.176
894.0616, 7207.215
894.5438, 7207.619
895.0259, 7209.908
895.5080, 7216.664
895.9901, 7220.343
896.4722, 7215.420
896.9543, 7202.225
897.4365, 7191.348
897.9186, 7182.438
898.4007, 7178.359
898.8828, 7181.887
899.3649, 7191.204
899.8470, 7204.687
900.3292, 7220.729
900.8113, 7230.873
901.2934, 7227.054
901.7755, 7219.157
902.2576, 7209.117
902.7397, 7198.413
903.2219, 7193.957
903.7040, 7195.004
904.1861, 7203.930
904.6682, 7225.009
905.1503, 7249.897
905.6324, 7260.886
906.1146, 7259.405
906.5967, 7250.907
907.0788, 7223.808
907.5609, 7208.985
908.0430, 7243.422
908.5251, 7299.644
909.0073, 7329.358
909.4894, 7313.460
909.9715, 7296.592
910.4536, 7279.626
910.9357, 7267.709
911.4178, 7275.482
911.9000, 7297.352
912.3821, 7299.175
912.8642, 7270.834
913.3463, 7239.466
913.8284, 7223.085
914.3105, 7217.689
914.7927, 7219.332
915.2748, 7227.884
915.7569, 7244.660
916.2390, 7277.970
916.7211, 7306.404
917.2032, 7310.287
917.6854, 7292.110
918.1675, 7276.625
918.6496, 7264.674
919.1317, 7253.903
919.6138, 7238.107
920.0959, 7225.784
920.5781, 7228.099
921.0602, 7245.949
921.5423, 7255.341
922.0244, 7245.053
922.5065, 7237.827
922.9886, 7243.737
923.4708, 7259.941
923.9529, 7273.977
924.4350, 7285.447
924.9171, 7288.794
925.3992, 7277.176
925.8813, 7259.255
926.3635, 7231.619
926.8456, 7203.490
927.3277, 7201.355
927.8098, 7275.832
928.2919, 7316.842
928.7740, 7291.967
929.2562, 7238.237
929.7383, 7237.335
930.2204, 7284.734
930.7025, 7309.851
931.1846, 7287.915
931.6667, 7258.851
932.1489, 7264.724
932.6310, 7286.539
933.1131, 7298.477
933.5952, 7286.603
934.0773, 7280.008
934.5594, 7284.806
935.0416, 7290.782
935.5237, 7288.164
936.0058, 7277.493
936.4879, 7265.651
936.9700, 7252.709
937.4521, 7247.920
937.9343, 7268.794
938.4164, 7295.255
938.8985, 7307.153
939.3806, 7301.613
939.8627, 7296.166
940.3448, 7289.763
940.8270, 7288.873
941.3091, 7297.895
941.7912, 7314.708
942.2733, 7327.168
942.7554, 7335.129
943.2375, 7340.098
943.7197, 7340.572
944.2018, 7339.958
944.6839, 7341.075
945.1660, 7343.407
945.6481, 7345.752
946.1302, 7350.765
946.6124, 7351.652
947.0945, 7348.333
947.5766, 7339.731
948.0587, 7317.240
948.5408, 7284.563
949.0229, 7271.789
949.5051, 7290.668
949.9872, 7315.457
950.4693, 7327.095
950.9514, 7331.100
951.4335, 7333.671
951.9156, 7336.866
952.3978, 7336.133
952.8799, 7329.267
953.3620, 7322.177
953.8441, 7314.964
954.3262, 7310.426
954.8083, 7332.810
955.2905, 7381.599
955.7726, 7422.689
956.2547, 7432.111
956.7368, 7424.146
957.2189, 7402.430
957.7010, 7368.772
958.1832, 7347.670
958.6653, 7339.564
959.1474, 7344.856
959.6295, 7368.064
960.1116, 7400.956
960.5938, 7427.233
961.0759, 7445.020
961.5580, 7446.916
962.0401, 7415.743
962.5222, 7386.084
963.0043, 7377.274
963.4865, 7382.567
963.9686, 7390.122
964.4507, 7399.353
964.9328, 7411.731
965.4149, 7428.592
965.8970, 7445.644
966.3792, 7461.863
966.8613, 7473.316
967.3434, 7464.664
967.8255, 7430.823
968.3076, 7407.928
968.7897, 7419.908
969.2719, 7444.716
969.7540, 7471.591
970.2361, 7501.169
970.7182, 7511.102
971.2003, 7498.681
971.6824, 7481.952
972.1646, 7470.568
972.6467, 7462.130
973.1288, 7452.194
973.6109, 7441.449
974.0930, 7432.445
974.5751, 7414.418
975.0573, 7413.190
975.5394, 7452.669
976.0215, 7505.366
976.5036, 7517.570
976.9858, 7486.600
977.4679, 7454.542
977.9500, 7427.243
978.4321, 7408.984
978.9142, 7406.281
979.3964, 7414.892
979.8785, 7430.130
980.3606, 7453.371
980.8427, 7476.965
981.3248, 7509.406
981.8069, 7530.452
982.2891, 7521.276
982.7712, 7483.950
983.2533, 7463.965
983.7354, 7461.284
984.2175, 7468.924
984.6996, 7493.527
985.1818, 7516.900
985.6639, 7522.356
986.1460, 7512.178
986.6281, 7500.915
987.1102, 7484.449
987.5923, 7477.565
988.0745, 7485.101
988.5566, 7501.011
989.0387, 7515.933
989.5208, 7529.023
990.0029, 7536.944
990.4850, 7536.714
990.9672, 7536.654
991.4493, 7546.032
991.9314, 7555.807
992.4135, 7556.004
992.8956, 7543.553
993.3777, 7531.386
993.8599, 7517.558
994.3420, 7512.625
994.8241, 7537.763
995.3062, 7572.812
995.7883, 7576.131
996.2704, 7549.917
996.7526, 7524.153
997.2347, 7509.121
997.7168, 7501.063
998.1989, 7495.817
998.6810, 7496.556
999.1631, 7519.672
999.6453, 7566.563
1000.127, 7596.530
1000.609, 7593.268
1001.092, 7579.500
1001.574, 7577.518
1002.056, 7583.874
1002.538, 7593.947
1003.020, 7609.154
1003.502, 7623.652
1003.984, 7639.558
1004.466, 7650.921
1004.949, 7652.094
1005.431, 7643.964
1005.913, 7628.520
1006.395, 7606.765
1006.877, 7594.563
1007.359, 7611.884
1007.841, 7634.243
1008.323, 7646.557
1008.805, 7648.599
1009.288, 7644.771
1009.770, 7629.458
1010.252, 7626.544
1010.734, 7644.790
1011.216, 7673.743
1011.698, 7707.914
1012.180, 7737.322
1012.662, 7735.570
1013.145, 7675.134
1013.627, 7630.371
1014.109, 7640.276
1014.591, 7667.776
1015.073, 7686.622
1015.555, 7696.773
1016.037, 7698.144
1016.519, 7690.168
1017.001, 7686.479
1017.484, 7708.895
1017.966, 7672.377
1018.448, 7741.967
1018.930, 7782.055
1019.412, 7794.229
1019.894, 7694.875
1020.376, 7739.535
1020.858, 7726.481
1021.341, 7711.065
1021.823, 7775.995
1022.305, 7692.863
1022.787, 7756.518
1023.269, 7761.578
1023.751, 7793.455
1024.233, 7767.263
1024.715, 7759.006
1025.197, 7808.838
1025.680, 7826.511
1026.162, 7793.633
1026.644, 7827.215
1027.126, 7742.055
1027.608, 7761.093
1028.090, 7825.087
1028.572, 7795.130
1029.054, 7829.773
1029.536, 7839.814
1030.019, 7738.044
1030.501, 7830.726
1030.983, 7839.312
1031.465, 7761.550
1031.947, 7847.569
1032.429, 7781.710
1032.911, 7770.063
1033.393, 7799.213
1033.875, 7785.833
1034.358, 7839.512
1034.840, 7828.587
1035.322, 7811.893
1035.804, 7820.384
1036.286, 7757.504
1036.768, 7827.033
1037.250, 7806.116
1037.732, 7830.157
1038.215, 7864.393
1038.697, 7820.597
1039.179, 7859.407
1039.661, 7770.113
1040.143, 7788.009
1040.625, 7794.362
1041.107, 7869.229
1041.589, 7780.560
1042.072, 7795.482
1042.554, 7854.505
1043.036, 7851.814
1043.518, 7874.926
1044.000, 7821.651
1044.482, 7840.136
1044.964, 7922.248
1045.446, 7930.932
1045.928, 7873.546
1046.411, 7792.529
1046.893, 7861.953
1047.375, 7901.876
1047.857, 7913.883
1048.339, 7814.365
1048.821, 7858.859
1049.303, 7845.639
1049.785, 7830.053
1050.267, 7894.816
1050.750, 7811.523
1051.232, 7875.012
1051.714, 7879.906
1052.196, 7911.619
1052.678, 7885.260
1053.160, 7876.837
1053.642, 7926.504
1054.124, 7944.006
1054.607, 7910.967
1055.089, 7944.383
1055.571, 7859.058
1056.053, 7877.930
1056.535, 7941.759
1057.017, 7911.635
1057.499, 7946.113
1057.981, 7955.987
1058.464, 7854.052
1058.946, 7946.568
1059.428, 7954.988
1059.910, 7877.061
1060.392, 7962.914
1060.874, 7896.890
1061.356, 7885.077
1061.838, 7914.061
1062.320, 7900.516
1062.802, 7954.023
1063.285, 7942.938
1063.767, 7926.077
1064.249, 7934.403
1064.731, 7871.357
1065.213, 7940.720
1065.695, 7951.029
1066.177, 7965.938
1066.659, 7967.450
1067.142, 7948.844
1067.624, 7937.019
1068.106, 7934.228
1068.588, 7935.252
1069.070, 7937.452
1069.552, 7906.841
1070.034, 7949.479
1070.516, 7974.415
1070.999, 7982.606
1071.481, 7923.877
1071.963, 7951.557
1072.445, 7944.607
1072.927, 7936.238
1073.409, 7976.079
1073.891, 7927.083
1074.373, 7966.159
1074.855, 7970.078
1075.338, 7990.092
1075.820, 7975.259
1076.302, 7971.188
1076.784, 8001.971
1077.266, 8013.455
1077.748, 7994.611
1078.230, 8015.644
1078.712, 7965.431
1079.195, 7977.741
1079.677, 8017.021
1080.159, 7999.930
1080.641, 8021.599
1081.123, 8028.506
1081.605, 7968.324
1082.087, 8024.817
1082.569, 8030.852
1083.052, 7985.082
1083.534, 8037.577
1084.016, 7998.945
1084.498, 7992.840
1084.980, 8031.267
1085.462, 8045.226
1085.944, 8017.830
1086.426, 7997.170
1086.908, 8013.667
1087.391, 8052.657
1087.873, 8058.203
1088.355, 8031.329
1088.837, 8006.884
1089.319, 7993.277
1089.801, 7990.756
1090.283, 8005.639
1090.765, 8028.481
1091.247, 8051.241
1091.730, 8077.298
1092.212, 8078.332
1092.694, 8045.966
1093.176, 8022.109
1093.658, 8044.240
1094.140, 8083.852
1094.622, 8085.503
1095.104, 8062.263
1095.587, 8049.046
1096.069, 8062.210
1096.551, 8080.128
1097.033, 8100.724
1097.515, 8123.566
1097.997, 8155.020
1098.479, 8188.796
1098.961, 8191.747
1099.443, 8163.052
1099.926, 8140.298
1100.408, 8151.637
1100.890, 8168.589
1101.372, 8179.455
1101.854, 8184.042
1102.336, 8179.488
1102.818, 8165.778
1103.300, 8157.370
1103.782, 8158.069
1104.265, 8165.168
1104.747, 8184.241
1105.229, 8203.780
1105.711, 8211.280
1106.193, 8204.639
1106.675, 8194.482
1107.157, 8180.271
1107.639, 8166.048
1108.122, 8150.536
1108.604, 8139.911
1109.086, 8146.333
1109.568, 8165.563
1110.050, 8188.496
1110.532, 8215.501
1111.014, 8241.790
1111.496, 8271.194
1111.979, 8292.212
1112.461, 8288.683
1112.943, 8267.648
1113.425, 8254.049
1113.907, 8248.923
1114.389, 8254.233
1114.871, 8283.565
1115.353, 8308.989
1115.835, 8322.906
1116.318, 8325.151
1116.800, 8309.071
1117.282, 8276.910
1117.764, 8261.563
1118.246, 8270.119
1118.728, 8279.869
1119.210, 8268.166
1119.692, 8254.588
1120.174, 8255.951
1120.657, 8271.542
1121.139, 8286.466
1121.621, 8300.080
1122.103, 8320.608
1122.585, 8357.379
1123.067, 8387.636
1123.549, 8370.704
1124.031, 8335.578
1124.514, 8324.879
1124.996, 8362.286
1125.478, 8374.479
1125.960, 8353.417
1126.442, 8327.583
1126.924, 8308.681
1127.406, 8300.295
1127.888, 8316.522
1128.370, 8349.739
1128.853, 8378.995
1129.335, 8404.020
1129.817, 8411.651
1130.299, 8393.421
1130.781, 8368.703
1131.263, 8353.682
1131.745, 8349.445
1132.227, 8368.819
1132.709, 8409.234
1133.192, 8436.879
1133.674, 8418.419
1134.156, 8400.050
1134.638, 8403.786
1135.120, 8418.481
1135.602, 8422.039
1136.084, 8415.183
1136.566, 8399.688
1137.049, 8373.382
1137.531, 8362.346
1138.013, 8410.413
1138.495, 8462.230
1138.977, 8468.681
1139.459, 8436.215
1139.941, 8408.071
1140.423, 8382.239
1140.906, 8386.319
1141.388, 8441.170
1141.870, 8499.795
1142.352, 8515.174
1142.834, 8503.854
1143.316, 8482.922
1143.798, 8449.876
1144.280, 8433.890
1144.762, 8440.480
1145.245, 8441.453
1145.727, 8410.472
1146.209, 8374.313
1146.691, 8385.927
1147.173, 8421.196
1147.655, 8428.982
1148.137, 8347.528
1148.619, 8316.681
1149.101, 8355.449
1149.584, 8407.847
1150.066, 8419.004
1150.548, 8407.538
1151.030, 8420.436
1151.512, 8451.975
1151.994, 8466.621
1152.476, 8423.827
1152.958, 8400.258
1153.441, 8418.421
1153.923, 8450.347
1154.405, 8454.702
1154.887, 8440.047
1155.369, 8441.069
1155.851, 8461.017
1156.333, 8467.900
1156.815, 8430.454
1157.297, 8393.164
1157.780, 8373.517
1158.262, 8366.552
1158.744, 8360.137
1159.226, 8354.754
1159.708, 8353.193
1160.190, 8355.618
1160.672, 8364.481
1161.154, 8395.582
1161.636, 8420.111
1162.119, 8414.493
1162.601, 8384.178
1163.083, 8372.117
1163.565, 8377.156
1164.047, 8369.065
1164.529, 8325.604
1165.011, 8290.365
1165.493, 8314.718
1165.976, 8354.260
1166.458, 8358.184
1166.940, 8320.104
1167.422, 8297.401
1167.904, 8290.491
1168.386, 8291.183
1168.868, 8298.718
1169.350, 8307.196
1169.833, 8311.999
1170.315, 8313.378
1170.797, 8310.965
1171.279, 8302.056
1171.761, 8299.277
1172.243, 8303.865
1172.725, 8308.330
1173.207, 8303.660
1173.689, 8298.136
1174.172, 8301.203
1174.654, 8311.813
1175.136, 8326.588
1175.618, 8350.726
1176.100, 8364.206
1176.582, 8364.875
1177.064, 8355.707
1177.546, 8331.714
1178.028, 8304.684
1178.511, 8290.341
1178.993, 8289.326
1179.475, 8295.360
1179.957, 8313.437
1180.439, 8322.133
1180.921, 8312.230
1181.403, 8303.053
1181.885, 8335.697
1182.368, 8383.138
1182.850, 8394.845
1183.332, 8362.615
1183.814, 8327.361
1184.296, 8285.241
1184.778, 8264.603
1185.260, 8281.659
1185.742, 8314.658
1186.224, 8316.556
1186.707, 8301.722
1187.189, 8302.701
1187.671, 8333.161
1188.153, 8349.362
1188.635, 8337.176
1189.117, 8316.795
1189.599, 8292.161
1190.081, 8269.600
1190.563, 8273.196
1191.046, 8293.302
1191.528, 8303.721
1192.010, 8290.335
1192.492, 8279.689
1192.974, 8276.495
1193.456, 8279.312
1193.938, 8293.618
1194.420, 8312.051
1194.903, 8298.555
1195.385, 8262.349
1195.867, 8236.090
1196.349, 8236.940
1196.831, 8246.294
1197.313, 8268.653
1197.795, 8287.036
1198.277, 8279.579
1198.760, 8254.552
1199.242, 8261.890
1199.724, 8295.065
1200.206, 8313.531
1200.688, 8272.015
1201.170, 8245.763
1201.652, 8265.516
1202.134, 8297.316
1202.616, 8297.111
1203.099, 8272.863
1203.581, 8270.717
1204.063, 8291.034
1204.545, 8305.350
1205.027, 8300.976
1205.509, 8283.779
1205.991, 8244.232
1206.473, 8205.932
1206.955, 8216.703
1207.438, 8264.831
1207.920, 8284.646
1208.402, 8269.198
1208.884, 8253.401
1209.366, 8263.313
1209.848, 8268.354
1210.330, 8249.900
1210.812, 8224.239
1211.295, 8231.886
1211.777, 8265.742
1212.259, 8287.472
1212.741, 8290.697
1213.223, 8287.840
1213.705, 8274.450
1214.187, 8270.520
1214.669, 8290.481
1215.151, 8322.542
1215.634, 8324.648
1216.116, 8305.006
1216.598, 8305.682
1217.080, 8340.671
1217.562, 8374.537
1218.044, 8387.437
1218.526, 8393.871
1219.008, 8400.560
1219.490, 8406.930
1219.973, 8407.643
1220.455, 8405.769
1220.937, 8419.669
1221.419, 8463.429
1221.901, 8494.698
1222.383, 8483.078
1222.865, 8461.762
1223.347, 8446.866
1223.830, 8438.694
1224.312, 8442.829
1224.794, 8455.575
1225.276, 8459.090
1225.758, 8442.085
1226.240, 8426.523
1226.722, 8426.365
1227.204, 8426.638
1227.687, 8416.918
1228.169, 8400.013
1228.651, 8391.466
1229.133, 8389.785
1229.615, 8388.502
1230.097, 8386.243
1230.579, 8381.680
1231.061, 8372.315
1231.543, 8362.607
1232.026, 8352.688
1232.508, 8344.755
1232.990, 8358.520
1233.472, 8387.906
1233.954, 8405.346
1234.436, 8378.679
1234.918, 8367.655
1235.400, 8395.105
1235.882, 8427.820
1236.365, 8437.216
1236.847, 8427.525
1237.329, 8410.060
1237.811, 8388.472
1238.293, 8377.406
1238.775, 8390.302
1239.257, 8406.086
1239.739, 8426.956
1240.222, 8439.602
1240.704, 8420.671
1241.186, 8384.896
1241.668, 8380.638
1242.150, 8402.521
1242.632, 8414.071
1243.114, 8387.789
1243.596, 8369.632
1244.078, 8366.965
1244.561, 8372.935
1245.043, 8385.860
1245.525, 8399.319
1246.007, 8392.167
1246.489, 8369.054
1246.971, 8363.762
1247.453, 8405.663
1247.935, 8436.602
1248.417, 8449.321
1248.900, 8448.339
1249.382, 8430.059
1249.864, 8406.026
1250.346, 8395.827
1250.828, 8399.683
1251.310, 8408.817
1251.792, 8421.942
1252.274, 8441.536
1252.757, 8472.769
1253.239, 8495.252
1253.721, 8472.794
1254.203, 8434.551
1254.685, 8424.846
1255.167, 8442.892
1255.649, 8439.721
1256.131, 8401.310
1256.614, 8381.611
1257.096, 8393.346
1257.578, 8417.438
1258.060, 8443.953
1258.542, 8462.722
1259.024, 8451.597
1259.506, 8415.313
1259.988, 8416.871
1260.470, 8464.145
1260.953, 8509.271
1261.435, 8544.867
1261.917, 8561.621
1262.399, 8526.706
1262.881, 8486.669
1263.363, 8494.502
1263.845, 8540.879
1264.327, 8551.451
1264.809, 8523.856
1265.292, 8507.893
1265.774, 8516.298
1266.256, 8530.379
1266.738, 8534.589
1267.220, 8538.188
1267.702, 8548.632
1268.184, 8564.329
1268.666, 8583.659
1269.149, 8605.329
1269.631, 8605.703
1270.113, 8575.095
1270.595, 8548.347
1271.077, 8552.528
1271.559, 8564.827
1272.041, 8576.606
1272.523, 8583.745
1273.005, 8565.160
1273.488, 8527.748
1273.970, 8506.400
1274.452, 8510.520
1274.934, 8521.206
1275.416, 8531.607
1275.898, 8545.632
1276.380, 8569.288
1276.862, 8593.624
1277.345, 8590.546
1277.827, 8568.911
1278.309, 8552.086
1278.791, 8545.291
1279.273, 8542.320
1279.755, 8539.109
1280.237, 8544.074
1280.719, 8563.101
1281.202, 8588.126
1281.684, 8610.774
1282.166, 8626.482
1282.648, 8621.660
1283.130, 8586.252
1283.612, 8582.880
1284.094, 8630.055
1284.576, 8662.544
1285.058, 8650.877
1285.541, 8623.009
1286.023, 8609.185
1286.505, 8608.779
1286.987, 8624.697
1287.469, 8659.595
1287.951, 8688.514
1288.433, 8712.520
1288.915, 8716.824
1289.397, 8689.604
1289.880, 8656.502
1290.362, 8640.719
1290.844, 8634.647
1291.326, 8630.542
1291.808, 8628.205
1292.290, 8636.468
1292.772, 8654.837
1293.254, 8667.317
1293.737, 8668.265
1294.219, 8663.523
1294.701, 8651.191
1295.183, 8640.659
##END=



