##NAMES=Stellerite
##RRUFFID=R040174
##IDEAL CHEMISTRY=Ca_4_(Si_28_Al_8_)O_72_&#183;28H_2_O
##LOCALITY=unknown
##OWNER=RRUFF
##SOURCE=University of Arizona Mineral Museum
##DESCRIPTION=Parallel aggregates of thin tabular brown crystals
##STATUS=The identification of this mineral has been confirmed by X-ray diffraction and chemical analysis
##URL=rruff.info/R040174
##MEASURED CHEMISTRY=(Ca_3.89_Na_0.06_K_0.05_)_Σ=4_(Si_28.11_Al_7.89_)O_72_·15.18H_2_O; H_2_O estimated by difference
139.3398, 1956.035
139.8220, 2000.370
140.3041, 2051.417
140.7862, 2108.068
141.2683, 2170.561
141.7504, 2235.704
142.2325, 2305.528
142.7147, 2386.916
143.1968, 2486.833
143.6789, 2605.724
144.1610, 2725.636
144.6431, 2845.197
145.1252, 2966.277
145.6074, 3096.560
146.0895, 3233.017
146.5716, 3358.362
147.0537, 3459.156
147.5358, 3532.755
148.0179, 3594.468
148.5001, 3644.499
148.9822, 3682.895
149.4643, 3709.965
149.9464, 3725.820
150.4285, 3729.743
150.9106, 3718.798
151.3928, 3693.195
151.8749, 3664.995
152.3570, 3635.528
152.8391, 3603.303
153.3212, 3565.331
153.8033, 3521.308
154.2855, 3476.347
154.7676, 3427.958
155.2497, 3380.677
155.7318, 3354.574
156.2139, 3375.492
156.6960, 3408.032
157.1782, 3406.821
157.6603, 3365.305
158.1424, 3320.616
158.6245, 3306.327
159.1066, 3311.448
159.5887, 3310.059
160.0709, 3291.125
160.5530, 3263.769
161.0351, 3240.103
161.5172, 3220.315
161.9993, 3204.967
162.4814, 3195.992
162.9636, 3191.700
163.4457, 3189.827
163.9278, 3195.681
164.4099, 3201.847
164.8920, 3191.006
165.3741, 3155.569
165.8563, 3124.627
166.3384, 3119.945
166.8205, 3131.477
167.3026, 3143.711
167.7847, 3153.161
168.2668, 3158.512
168.7490, 3157.332
169.2311, 3150.077
169.7132, 3134.507
170.1953, 3103.378
170.6774, 3064.754
171.1595, 3031.343
171.6417, 3010.389
172.1238, 2997.764
172.6059, 2983.803
173.0880, 2969.271
173.5701, 2951.512
174.0522, 2929.259
174.5344, 2903.401
175.0165, 2874.835
175.4986, 2842.117
175.9807, 2807.957
176.4628, 2779.946
176.9449, 2761.161
177.4271, 2743.109
177.9092, 2723.503
178.3913, 2702.349
178.8734, 2678.981
179.3555, 2651.327
179.8376, 2622.543
180.3197, 2602.553
180.8019, 2597.267
181.2840, 2590.561
181.7661, 2572.968
182.2482, 2552.398
182.7303, 2539.890
183.2124, 2542.519
183.6946, 2553.783
184.1767, 2554.796
184.6588, 2540.842
185.1409, 2524.108
185.6230, 2506.634
186.1051, 2489.249
186.5873, 2472.671
187.0694, 2457.164
187.5515, 2442.885
188.0336, 2430.141
188.5157, 2420.340
188.9978, 2409.823
189.4800, 2396.822
189.9621, 2383.301
190.4442, 2371.537
190.9263, 2362.788
191.4084, 2355.356
191.8905, 2344.239
192.3727, 2323.365
192.8548, 2310.083
193.3369, 2313.410
193.8190, 2321.486
194.3011, 2322.804
194.7832, 2312.761
195.2654, 2295.484
195.7475, 2278.907
196.2296, 2259.045
196.7117, 2247.996
197.1938, 2254.189
197.6759, 2264.502
198.1581, 2266.369
198.6402, 2255.749
199.1223, 2240.028
199.6044, 2233.072
200.0865, 2238.943
200.5686, 2246.101
201.0508, 2261.043
201.5329, 2272.202
202.0150, 2267.556
202.4971, 2244.725
202.9792, 2214.943
203.4613, 2196.624
203.9435, 2195.779
204.4256, 2193.342
204.9077, 2186.038
205.3898, 2178.676
205.8719, 2176.486
206.3540, 2179.610
206.8362, 2181.860
207.3183, 2172.385
207.8004, 2141.272
208.2825, 2124.453
208.7646, 2133.869
209.2467, 2146.671
209.7289, 2150.486
210.2110, 2143.581
210.6931, 2131.188
211.1752, 2118.159
211.6573, 2102.816
212.1395, 2093.572
212.6216, 2090.721
213.1037, 2093.157
213.5858, 2105.584
214.0679, 2124.704
214.5500, 2139.686
215.0322, 2138.054
215.5143, 2116.175
215.9964, 2101.889
216.4785, 2102.224
216.9606, 2103.451
217.4427, 2098.104
217.9249, 2088.674
218.4070, 2083.519
218.8891, 2090.805
219.3712, 2111.037
219.8533, 2125.377
220.3354, 2133.371
220.8176, 2135.363
221.2997, 2125.979
221.7818, 2110.546
222.2639, 2099.331
222.7460, 2100.333
223.2281, 2112.074
223.7103, 2118.535
224.1924, 2116.133
224.6745, 2111.782
225.1566, 2103.644
225.6387, 2095.094
226.1208, 2091.239
226.6030, 2095.433
227.0851, 2105.622
227.5672, 2113.431
228.0493, 2120.455
228.5314, 2122.293
229.0135, 2113.549
229.4957, 2101.307
229.9778, 2093.950
230.4599, 2095.357
230.9420, 2102.140
231.4241, 2105.633
231.9062, 2101.735
232.3884, 2101.759
232.8705, 2110.842
233.3526, 2121.841
233.8347, 2128.583
234.3168, 2129.024
234.7989, 2125.618
235.2811, 2123.044
235.7632, 2123.814
236.2453, 2109.923
236.7274, 2124.115
237.2095, 2133.075
237.6916, 2137.086
238.1738, 2121.320
238.6559, 2131.092
239.1380, 2130.629
239.6201, 2129.746
240.1022, 2143.112
240.5843, 2130.223
241.0665, 2143.363
241.5486, 2146.112
242.0307, 2153.616
242.5128, 2150.824
242.9949, 2164.689
243.4770, 2173.607
243.9592, 2180.183
244.4413, 2181.967
244.9234, 2183.636
245.4055, 2187.278
245.8876, 2192.298
246.3697, 2197.021
246.8519, 2200.964
247.3340, 2203.794
247.8161, 2201.675
248.2982, 2187.315
248.7803, 2177.987
249.2624, 2185.271
249.7446, 2200.134
250.2267, 2207.190
250.7088, 2196.187
251.1909, 2174.292
251.6730, 2161.906
252.1551, 2160.917
252.6373, 2166.228
253.1194, 2181.617
253.6015, 2199.444
254.0836, 2210.863
254.5657, 2211.986
255.0478, 2208.298
255.5300, 2208.528
256.0121, 2213.711
256.4942, 2218.905
256.9763, 2221.100
257.4584, 2223.720
257.9406, 2230.583
258.4227, 2242.660
258.9048, 2254.257
259.3869, 2257.251
259.8690, 2251.033
260.3511, 2250.743
260.8333, 2261.972
261.3154, 2278.089
261.7975, 2294.959
262.2796, 2312.261
262.7617, 2329.858
263.2438, 2350.706
263.7260, 2373.049
264.2081, 2384.756
264.6902, 2377.341
265.1723, 2370.319
265.6544, 2381.019
266.1365, 2404.450
266.6187, 2423.969
267.1008, 2427.984
267.5829, 2423.468
268.0650, 2425.723
268.5471, 2436.832
269.0292, 2449.048
269.5114, 2456.171
269.9935, 2460.788
270.4756, 2467.498
270.9577, 2479.241
271.4398, 2492.111
271.9219, 2500.760
272.4041, 2505.034
272.8862, 2511.388
273.3683, 2525.399
273.8504, 2542.362
274.3325, 2552.921
274.8146, 2553.534
275.2968, 2553.423
275.7789, 2559.741
276.2610, 2570.838
276.7431, 2579.702
277.2252, 2583.120
277.7073, 2584.206
278.1895, 2588.531
278.6716, 2596.833
279.1537, 2604.172
279.6358, 2609.348
280.1179, 2612.264
280.6000, 2612.673
281.0822, 2610.494
281.5643, 2605.972
282.0464, 2598.265
282.5285, 2586.969
283.0106, 2578.220
283.4927, 2574.813
283.9749, 2572.920
284.4570, 2568.617
284.9391, 2561.779
285.4212, 2555.751
285.9033, 2554.197
286.3854, 2556.814
286.8676, 2553.255
287.3497, 2543.144
287.8318, 2527.904
288.3139, 2502.141
288.7960, 2471.141
289.2781, 2450.191
289.7603, 2449.478
290.2424, 2462.313
290.7245, 2460.349
291.2066, 2426.811
291.6887, 2400.248
292.1708, 2391.598
292.6530, 2391.202
293.1351, 2385.788
293.6172, 2370.835
294.0993, 2353.645
294.5814, 2348.051
295.0635, 2367.299
295.5457, 2372.643
296.0278, 2353.781
296.5099, 2329.559
296.9920, 2311.891
297.4741, 2302.708
297.9562, 2298.863
298.4384, 2297.838
298.9205, 2300.554
299.4026, 2299.541
299.8847, 2293.046
300.3668, 2284.718
300.8489, 2273.536
301.3310, 2261.471
301.8131, 2252.613
302.2953, 2250.292
302.7774, 2252.636
303.2595, 2249.240
303.7416, 2230.547
304.2237, 2220.683
304.7058, 2231.751
305.1880, 2250.057
305.6701, 2261.233
306.1522, 2259.935
306.6343, 2250.607
307.1164, 2238.308
307.5985, 2220.358
308.0807, 2209.675
308.5628, 2218.448
309.0449, 2228.391
309.5270, 2226.016
310.0091, 2211.188
310.4912, 2197.829
310.9734, 2203.437
311.4555, 2225.166
311.9376, 2229.531
312.4197, 2203.271
312.9018, 2174.929
313.3839, 2161.800
313.8661, 2160.518
314.3482, 2162.923
314.8303, 2168.321
315.3124, 2173.854
315.7945, 2173.077
316.2766, 2164.646
316.7588, 2157.865
317.2409, 2159.499
317.7230, 2165.474
318.2051, 2169.295
318.6872, 2170.563
319.1693, 2168.925
319.6515, 2162.312
320.1336, 2151.968
320.6157, 2143.905
321.0978, 2141.423
321.5799, 2140.153
322.0620, 2131.308
322.5442, 2113.076
323.0263, 2099.836
323.5084, 2098.429
323.9905, 2103.050
324.4726, 2106.875
324.9547, 2108.753
325.4369, 2109.434
325.9190, 2110.228
326.4011, 2111.238
326.8832, 2106.848
327.3653, 2088.438
327.8474, 2072.682
328.3296, 2071.859
328.8117, 2082.040
329.2938, 2090.850
329.7759, 2091.183
330.2580, 2084.370
330.7401, 2076.404
331.2223, 2064.204
331.7044, 2054.637
332.1865, 2049.060
332.6686, 2046.140
333.1507, 2045.848
333.6328, 2047.750
334.1150, 2048.540
334.5971, 2042.281
335.0792, 2023.819
335.5613, 2012.538
336.0434, 2015.739
336.5255, 2018.808
337.0077, 2011.966
337.4898, 1997.687
337.9719, 1986.170
338.4540, 1987.036
338.9361, 1998.160
339.4182, 1999.671
339.9004, 1983.136
340.3825, 1969.276
340.8646, 1964.118
341.3467, 1964.747
341.8288, 1968.794
342.3109, 1976.274
342.7931, 1982.551
343.2752, 1976.791
343.7573, 1955.628
344.2394, 1946.975
344.7215, 1968.117
345.2036, 1996.059
345.6858, 2013.948
346.1679, 2020.863
346.6500, 2021.561
347.1321, 2014.404
347.6142, 2003.382
348.0963, 2000.422
348.5785, 2008.400
349.0606, 2019.131
349.5427, 2026.324
350.0248, 2031.147
350.5069, 2036.998
350.9890, 2045.509
351.4712, 2054.468
351.9533, 2062.140
352.4354, 2068.689
352.9175, 2075.123
353.3996, 2082.107
353.8817, 2089.043
354.3639, 2093.732
354.8460, 2093.090
355.3281, 2096.858
355.8102, 2109.476
356.2923, 2126.610
356.7744, 2144.896
357.2566, 2163.209
357.7387, 2177.434
358.2208, 2181.498
358.7029, 2171.548
359.1850, 2173.731
359.6671, 2199.181
360.1493, 2223.794
360.6314, 2232.650
361.1135, 2232.338
361.5956, 2239.800
362.0777, 2266.092
362.5598, 2304.013
363.0420, 2326.589
363.5241, 2320.502
364.0062, 2320.083
364.4883, 2333.092
364.9704, 2350.464
365.4525, 2363.835
365.9347, 2371.727
366.4168, 2380.070
366.8989, 2395.386
367.3810, 2418.078
367.8631, 2443.103
368.3452, 2470.327
368.8274, 2500.252
369.3095, 2537.083
369.7916, 2576.780
370.2737, 2609.280
370.7558, 2626.633
371.2379, 2636.828
371.7201, 2650.451
372.2022, 2666.721
372.6843, 2694.321
373.1664, 2745.015
373.6485, 2804.427
374.1306, 2849.990
374.6128, 2877.771
375.0949, 2903.388
375.5770, 2934.275
376.0591, 2968.572
376.5412, 3001.522
377.0233, 3031.682
377.5055, 3064.411
377.9876, 3106.733
378.4697, 3159.829
378.9518, 3207.493
379.4339, 3249.361
379.9160, 3285.763
380.3982, 3309.338
380.8803, 3326.699
381.3624, 3355.950
381.8445, 3407.882
382.3266, 3474.781
382.8087, 3534.244
383.2909, 3574.789
383.7730, 3622.331
384.2551, 3681.393
384.7372, 3744.829
385.2193, 3807.526
385.7014, 3868.342
386.1836, 3928.757
386.6657, 3989.029
387.1478, 4048.396
387.6299, 4117.904
388.1120, 4206.796
388.5941, 4296.265
389.0763, 4377.232
389.5584, 4455.277
390.0405, 4538.882
390.5226, 4633.306
391.0047, 4732.659
391.4868, 4828.480
391.9690, 4919.806
392.4511, 5012.960
392.9332, 5105.836
393.4153, 5204.655
393.8974, 5315.454
394.3795, 5438.534
394.8617, 5562.890
395.3438, 5682.460
395.8259, 5799.980
396.3080, 5921.898
396.7901, 6048.796
397.2722, 6173.977
397.7544, 6290.455
398.2365, 6401.030
398.7186, 6521.991
399.2007, 6669.923
399.6828, 6808.243
400.1649, 6914.660
400.6471, 7003.781
401.1292, 7103.708
401.6113, 7224.339
402.0934, 7346.873
402.5755, 7443.651
403.0576, 7502.794
403.5398, 7570.346
404.0219, 7668.365
404.5040, 7753.938
404.9861, 7799.076
405.4682, 7813.211
405.9503, 7823.935
406.4325, 7850.114
406.9146, 7882.735
407.3967, 7889.406
407.8788, 7864.923
408.3609, 7823.891
408.8430, 7765.965
409.3252, 7696.095
409.8073, 7614.616
410.2894, 7522.548
410.7715, 7428.186
411.2536, 7342.811
411.7357, 7262.491
412.2179, 7170.200
412.7000, 7066.155
413.1821, 6947.764
413.6642, 6800.488
414.1463, 6638.237
414.6284, 6492.613
415.1106, 6375.800
415.5927, 6268.230
416.0748, 6157.514
416.5569, 6044.425
417.0390, 5932.204
417.5211, 5822.611
418.0033, 5713.108
418.4854, 5599.890
418.9675, 5482.332
419.4496, 5363.434
419.9317, 5239.456
420.4138, 5118.197
420.8960, 5002.072
421.3781, 4892.584
421.8602, 4794.232
422.3423, 4710.823
422.8244, 4637.311
423.3065, 4551.519
423.7887, 4439.343
424.2708, 4336.523
424.7529, 4248.530
425.2350, 4169.058
425.7171, 4094.115
426.1992, 4022.456
426.6814, 3954.841
427.1635, 3896.065
427.6456, 3844.137
428.1277, 3778.373
428.6098, 3688.817
429.0919, 3604.791
429.5741, 3546.306
430.0562, 3501.068
430.5383, 3451.199
431.0204, 3390.173
431.5025, 3328.720
431.9846, 3271.606
432.4668, 3220.740
432.9489, 3186.143
433.4310, 3173.923
433.9131, 3166.430
434.3952, 3141.490
434.8773, 3096.949
435.3595, 3058.604
435.8416, 3033.159
436.3237, 3009.573
436.8058, 2980.206
437.2879, 2947.024
437.7701, 2914.540
438.2522, 2884.721
438.7343, 2859.460
439.2164, 2844.683
439.6985, 2851.430
440.1806, 2848.929
440.6628, 2831.822
441.1449, 2810.369
441.6270, 2788.538
442.1091, 2768.153
442.5912, 2751.454
443.0733, 2739.971
443.5555, 2733.665
444.0376, 2734.365
444.5197, 2746.560
445.0018, 2753.112
445.4839, 2739.446
445.9660, 2721.008
446.4482, 2714.653
446.9303, 2724.130
447.4124, 2732.288
447.8945, 2726.379
448.3766, 2712.148
448.8587, 2699.747
449.3409, 2690.102
449.8230, 2687.900
450.3051, 2700.073
450.7872, 2724.317
451.2693, 2737.104
451.7514, 2721.409
452.2336, 2714.888
452.7157, 2741.983
453.1978, 2781.317
453.6799, 2799.821
454.1620, 2789.009
454.6441, 2770.026
455.1263, 2771.236
455.6084, 2797.628
456.0905, 2815.860
456.5726, 2818.408
457.0547, 2819.972
457.5368, 2824.932
458.0190, 2831.800
458.5011, 2838.517
458.9832, 2844.755
459.4653, 2847.926
459.9474, 2845.425
460.4295, 2837.310
460.9117, 2818.990
461.3938, 2782.620
461.8759, 2745.238
462.3580, 2726.169
462.8401, 2721.153
463.3222, 2706.841
463.8044, 2665.027
464.2865, 2620.487
464.7686, 2598.984
465.2507, 2595.158
465.7328, 2586.384
466.2149, 2562.639
466.6971, 2529.573
467.1792, 2497.963
467.6613, 2465.448
468.1434, 2440.058
468.6255, 2428.302
469.1076, 2417.846
469.5898, 2398.617
470.0719, 2373.785
470.5540, 2354.917
471.0361, 2350.227
471.5182, 2353.645
472.0003, 2346.344
472.4825, 2323.765
472.9646, 2303.024
473.4467, 2282.545
473.9288, 2269.159
474.4109, 2271.691
474.8930, 2288.594
475.3752, 2304.222
475.8573, 2304.983
476.3394, 2300.590
476.8215, 2308.200
477.3036, 2328.270
477.7857, 2352.364
478.2679, 2376.765
478.7500, 2402.114
479.2321, 2430.128
479.7142, 2459.594
480.1963, 2493.390
480.6784, 2529.793
481.1606, 2572.274
481.6427, 2627.105
482.1248, 2692.537
482.6069, 2758.063
483.0890, 2815.722
483.5711, 2867.570
484.0533, 2925.893
484.5354, 2988.128
485.0175, 3062.251
485.4996, 3153.562
485.9817, 3252.561
486.4638, 3349.206
486.9460, 3443.912
487.4281, 3546.689
487.9102, 3671.773
488.3923, 3810.771
488.8744, 3938.535
489.3565, 4053.999
489.8387, 4161.164
490.3208, 4253.341
490.8029, 4342.673
491.2850, 4455.416
491.7671, 4603.188
492.2492, 4740.922
492.7314, 4847.500
493.2135, 4938.321
493.6956, 5039.394
494.1777, 5147.672
494.6598, 5227.301
495.1419, 5247.560
495.6241, 5217.732
496.1062, 5199.538
496.5883, 5229.396
497.0704, 5217.856
497.5525, 5141.509
498.0346, 5032.626
498.5168, 4918.109
498.9989, 4800.612
499.4810, 4665.205
499.9631, 4492.923
500.4452, 4292.846
500.9273, 4099.049
501.4095, 3909.249
501.8916, 3735.074
502.3737, 3588.942
502.8558, 3456.717
503.3379, 3314.984
503.8200, 3159.983
504.3022, 3012.064
504.7843, 2878.379
505.2664, 2756.465
505.7485, 2647.117
506.2306, 2548.981
506.7127, 2457.745
507.1949, 2369.845
507.6770, 2286.379
508.1591, 2213.186
508.6412, 2156.409
509.1233, 2101.065
509.6054, 2046.336
510.0876, 1992.661
510.5697, 1940.869
511.0518, 1890.797
511.5339, 1841.493
512.0161, 1792.051
512.4982, 1743.119
512.9803, 1692.830
513.4624, 1638.782
513.9445, 1601.337
514.4266, 1598.510
514.9088, 1606.682
515.3909, 1592.692
515.8730, 1554.471
516.3551, 1521.713
516.8372, 1509.375
517.3193, 1501.939
517.8015, 1485.137
518.2836, 1459.710
518.7657, 1431.009
519.2478, 1401.203
519.7299, 1373.348
520.2120, 1355.229
520.6942, 1352.943
521.1763, 1348.872
521.6584, 1342.787
522.1405, 1335.370
522.6226, 1326.872
523.1047, 1317.313
523.5869, 1306.533
524.0690, 1293.884
524.5511, 1281.093
525.0332, 1271.630
525.5153, 1265.468
525.9974, 1257.591
526.4796, 1245.464
526.9617, 1233.460
527.4438, 1228.330
527.9259, 1228.935
528.4080, 1224.408
528.8901, 1206.732
529.3723, 1189.936
529.8544, 1184.824
530.3365, 1186.089
530.8186, 1183.200
531.3007, 1172.552
531.7828, 1157.880
532.2650, 1143.453
532.7471, 1128.279
533.2292, 1119.373
533.7113, 1123.330
534.1934, 1126.113
534.6755, 1122.507
535.1577, 1115.594
535.6398, 1109.771
536.1219, 1106.369
536.6040, 1103.172
537.0861, 1097.612
537.5682, 1090.585
538.0504, 1085.388
538.5325, 1082.699
539.0146, 1079.614
539.4967, 1073.312
539.9788, 1065.011
540.4609, 1060.844
540.9431, 1065.760
541.4252, 1067.518
541.9073, 1062.153
542.3894, 1053.514
542.8715, 1042.912
543.3536, 1032.076
543.8358, 1026.150
544.3179, 1030.438
544.8000, 1041.731
545.2821, 1045.026
545.7642, 1036.416
546.2463, 1030.582
546.7285, 1035.913
547.2106, 1041.850
547.6926, 1039.520
548.1747, 1029.240
548.6569, 1018.663
549.1390, 1010.082
549.6211, 1003.642
550.1032, 999.8158
550.5853, 998.3831
551.0674, 998.4704
551.5496, 999.7218
552.0317, 1002.456
552.5138, 1007.578
552.9959, 1016.833
553.4780, 1022.516
553.9601, 1023.159
554.4423, 1022.375
554.9244, 1021.740
555.4065, 1020.598
555.8886, 1017.069
556.3707, 1010.351
556.8528, 1003.938
557.3350, 1002.636
557.8171, 1005.802
558.2992, 1009.186
558.7813, 1013.924
559.2634, 1013.718
559.7455, 1000.306
560.2277, 979.2045
560.7098, 968.3970
561.1919, 973.8807
561.6740, 979.3108
562.1561, 977.7493
562.6382, 974.7380
563.1204, 976.8365
563.6025, 984.0104
564.0846, 991.4600
564.5667, 995.7150
565.0488, 997.5894
565.5309, 1000.443
566.0131, 1004.897
566.4952, 1008.767
566.9773, 1013.046
567.4594, 1015.448
567.9415, 1012.265
568.4236, 1005.188
568.9058, 1001.955
569.3879, 1010.917
569.8700, 1020.553
570.3521, 1015.458
570.8342, 1000.736
571.3163, 995.3440
571.7985, 1005.801
572.2806, 1019.635
572.7627, 1021.264
573.2448, 1008.869
573.7269, 1001.509
574.2090, 1002.722
574.6912, 1004.384
575.1733, 1004.439
575.6554, 1003.916
576.1375, 1004.446
576.6196, 1006.236
577.1017, 1007.423
577.5839, 1005.460
578.0660, 1001.550
578.5481, 999.4326
579.0302, 999.0878
579.5123, 1001.580
579.9944, 1009.207
580.4766, 1018.374
580.9587, 1021.748
581.4408, 1018.545
581.9229, 1014.447
582.4050, 1008.366
582.8871, 1003.309
583.3693, 1002.243
583.8514, 1003.689
584.3335, 1003.103
584.8156, 998.3627
585.2977, 994.7819
585.7798, 1004.397
586.2620, 1029.464
586.7441, 1039.541
587.2262, 1024.901
587.7083, 1008.890
588.1904, 1003.498
588.6725, 1005.805
589.1547, 1012.535
589.6368, 1025.624
590.1189, 1036.857
590.6010, 1039.858
591.0831, 1040.115
591.5652, 1045.712
592.0474, 1056.325
592.5295, 1064.537
593.0116, 1064.755
593.4937, 1061.005
593.9758, 1067.131
594.4579, 1091.195
594.9401, 1105.878
595.4222, 1101.284
595.9043, 1093.563
596.3864, 1088.351
596.8685, 1086.432
597.3506, 1088.807
597.8328, 1097.141
598.3149, 1107.333
598.7970, 1117.160
599.2791, 1125.858
599.7612, 1130.141
600.2433, 1129.374
600.7255, 1129.970
601.2076, 1137.746
601.6897, 1151.710
602.1718, 1163.813
602.6539, 1176.005
603.1360, 1183.342
603.6182, 1182.316
604.1003, 1178.866
604.5824, 1176.077
605.0645, 1174.871
605.5466, 1176.387
606.0287, 1182.273
606.5109, 1189.878
606.9930, 1195.312
607.4751, 1198.795
607.9572, 1201.680
608.4393, 1203.965
608.9214, 1207.194
609.4036, 1213.446
609.8857, 1222.743
610.3678, 1229.604
610.8499, 1231.000
611.3320, 1234.004
611.8141, 1242.306
612.2963, 1251.719
612.7784, 1257.323
613.2605, 1259.109
613.7426, 1261.328
614.2247, 1267.917
614.7068, 1276.613
615.1890, 1282.085
615.6711, 1284.300
616.1532, 1283.473
616.6353, 1278.078
617.1174, 1272.514
617.5995, 1272.459
618.0817, 1278.052
618.5638, 1281.405
619.0459, 1282.333
619.5280, 1280.848
620.0101, 1274.625
620.4922, 1267.135
620.9744, 1262.730
621.4565, 1262.123
621.9386, 1263.094
622.4207, 1264.482
622.9028, 1265.496
623.3849, 1262.695
623.8671, 1255.604
624.3492, 1247.161
624.8313, 1236.687
625.3134, 1226.997
625.7955, 1223.331
626.2776, 1225.260
626.7598, 1222.673
627.2419, 1210.246
627.7240, 1197.272
628.2061, 1188.017
628.6882, 1181.408
629.1703, 1177.329
629.6525, 1174.893
630.1346, 1169.251
630.6167, 1153.478
631.0988, 1130.764
631.5809, 1120.149
632.0630, 1124.876
632.5452, 1129.084
633.0273, 1129.010
633.5094, 1125.379
633.9915, 1118.831
634.4736, 1109.493
634.9557, 1098.383
635.4379, 1082.356
635.9200, 1068.220
636.4021, 1061.952
636.8842, 1059.302
637.3663, 1053.394
637.8484, 1042.732
638.3306, 1030.495
638.8127, 1018.878
639.2948, 1008.634
639.7769, 1007.136
640.2590, 1019.679
640.7411, 1021.384
641.2233, 996.2934
641.7054, 965.9708
642.1875, 954.2982
642.6696, 959.6151
643.1517, 961.8763
643.6339, 954.2419
644.1160, 945.4394
644.5981, 940.4913
645.0802, 937.3770
645.5623, 931.4645
646.0444, 922.5993
646.5266, 917.3560
647.0087, 923.4041
647.4908, 937.2728
647.9729, 941.8640
648.4550, 934.9928
648.9371, 927.4695
649.4193, 922.4493
649.9014, 917.2283
650.3835, 908.5336
650.8656, 896.9465
651.3477, 886.3329
651.8298, 872.1894
652.3120, 864.9437
652.7941, 876.0977
653.2762, 893.8087
653.7583, 903.1794
654.2404, 901.5289
654.7225, 892.9269
655.2047, 879.0218
655.6868, 862.8921
656.1689, 856.2092
656.6510, 860.8818
657.1331, 863.1774
657.6152, 859.5884
658.0974, 853.8105
658.5795, 847.9744
659.0616, 842.4689
659.5437, 839.4189
660.0258, 841.2983
660.5079, 842.7983
660.9901, 840.7166
661.4722, 838.2614
661.9543, 840.4749
662.4364, 846.2441
662.9185, 848.8991
663.4006, 843.5903
663.8828, 833.6373
664.3649, 826.2520
664.8470, 821.5490
665.3291, 814.5121
665.8112, 801.3410
666.2933, 793.2341
666.7755, 802.8529
667.2576, 824.6009
667.7397, 833.9175
668.2218, 825.3821
668.7039, 813.4157
669.1860, 793.0846
669.6682, 776.6538
670.1503, 777.1425
670.6324, 789.9538
671.1145, 800.8003
671.5966, 802.6008
672.0787, 799.9402
672.5609, 798.6138
673.0430, 798.4935
673.5251, 798.7785
674.0072, 799.4717
674.4893, 800.2418
674.9714, 801.3809
675.4536, 802.0833
675.9357, 800.0026
676.4178, 792.7921
676.8999, 787.9302
677.3820, 786.8641
677.8641, 786.9007
678.3463, 785.6813
678.8284, 784.9150
679.3105, 789.3832
679.7926, 800.5763
680.2747, 808.7493
680.7568, 801.5172
681.2390, 785.2188
681.7211, 775.2256
682.2032, 771.9067
682.6853, 768.8541
683.1674, 763.2928
683.6495, 756.6732
684.1317, 750.7191
684.6138, 744.6403
685.0959, 743.5648
685.5780, 754.9945
686.0601, 762.4176
686.5422, 757.3293
687.0244, 749.0658
687.5065, 748.2684
687.9886, 755.7293
688.4707, 762.7471
688.9528, 757.7023
689.4349, 748.2335
689.9171, 760.4922
690.3992, 767.5197
690.8813, 769.5971
691.3634, 751.8982
691.8455, 759.7363
692.3276, 757.3402
692.8098, 754.5247
693.2919, 765.9569
693.7740, 751.1345
694.2561, 762.3408
694.7382, 763.1569
695.2203, 768.7284
695.7025, 764.0027
696.1846, 762.4573
696.6667, 771.2126
697.1488, 774.2645
697.6309, 768.3533
698.1130, 774.2271
698.5952, 759.0450
699.0773, 762.3397
699.5594, 762.1335
700.0415, 761.3593
700.5236, 755.2812
701.0057, 748.0861
701.4879, 750.1415
701.9700, 762.1628
702.4521, 767.7902
702.9342, 763.3912
703.4163, 758.1652
703.8984, 757.4315
704.3806, 759.6120
704.8627, 761.1212
705.3448, 762.4714
705.8269, 761.7828
706.3090, 754.4969
706.7911, 749.3898
707.2733, 755.3450
707.7554, 765.8906
708.2375, 768.5457
708.7196, 759.9534
709.2017, 751.0383
709.6838, 753.5370
710.1660, 763.2374
710.6481, 769.4985
711.1302, 772.3607
711.6123, 775.7397
712.0944, 781.5959
712.5765, 785.8750
713.0587, 782.7319
713.5408, 771.6191
714.0229, 764.7592
714.5050, 763.5588
714.9871, 764.9280
715.4692, 772.0202
715.9514, 778.6039
716.4335, 778.3910
716.9156, 772.5887
717.3977, 768.4117
717.8798, 770.1700
718.3619, 772.4780
718.8441, 770.5775
719.3262, 766.4938
719.8083, 763.6536
720.2904, 762.4412
720.7725, 761.0521
721.2546, 757.9883
721.7368, 755.2317
722.2189, 759.4916
722.7010, 773.0549
723.1831, 776.8442
723.6652, 764.5145
724.1473, 751.9588
724.6295, 747.6525
725.1116, 749.3278
725.5937, 752.5504
726.0758, 758.3798
726.5579, 761.9193
727.0400, 760.3478
727.5222, 758.2271
728.0043, 758.6932
728.4864, 760.3047
728.9685, 760.6320
729.4506, 758.9980
729.9327, 756.1450
730.4149, 750.8691
730.8970, 745.6223
731.3791, 748.2352
731.8612, 757.5048
732.3433, 761.2744
732.8254, 755.4686
733.3076, 746.6480
733.7897, 740.9264
734.2718, 738.3286
734.7539, 739.1416
735.2360, 746.3469
735.7181, 751.9965
736.2003, 752.7830
736.6824, 754.0592
737.1645, 761.8641
737.6466, 772.7463
738.1287, 776.6394
738.6108, 768.1789
739.0930, 759.0279
739.5751, 755.5094
740.0572, 754.9550
740.5393, 755.2394
741.0214, 755.6359
741.5035, 754.7751
741.9857, 752.0070
742.4678, 749.0950
742.9499, 749.9113
743.4320, 753.8344
743.9141, 751.3622
744.3962, 741.2131
744.8784, 730.4482
745.3605, 719.5289
745.8426, 712.6924
746.3247, 717.9520
746.8068, 737.6517
747.2889, 747.1254
747.7711, 736.7062
748.2532, 729.2806
748.7353, 733.0132
749.2174, 739.9067
749.6995, 743.0582
750.1816, 742.3213
750.6638, 740.9352
751.1459, 740.6627
751.6280, 739.8100
752.1101, 734.7813
752.5922, 728.7742
753.0743, 728.9163
753.5565, 735.1555
754.0386, 741.7845
754.5207, 745.6617
755.0028, 746.4911
755.4849, 742.5408
755.9670, 732.9380
756.4492, 726.8073
756.9313, 724.6993
757.4134, 725.0857
757.8955, 727.5762
758.3776, 732.0042
758.8597, 739.8394
759.3419, 752.0292
759.8240, 757.6047
760.3061, 751.7147
760.7882, 743.8165
761.2703, 733.6808
761.7524, 725.7910
762.2346, 726.5233
762.7167, 734.7713
763.1988, 742.0643
763.6809, 743.2887
764.1630, 742.0403
764.6451, 741.2505
765.1273, 741.4509
765.6094, 744.5259
766.0915, 750.4419
766.5736, 756.4861
767.0557, 760.9304
767.5378, 764.7181
768.0200, 771.0280
768.5021, 781.4666
768.9842, 783.6003
769.4663, 772.4526
769.9484, 763.2917
770.4305, 764.0077
770.9127, 769.4550
771.3948, 771.6275
771.8769, 770.0019
772.3590, 771.8884
772.8411, 783.3580
773.3232, 792.1746
773.8054, 790.4007
774.2875, 785.7375
774.7696, 787.8735
775.2517, 796.0178
775.7338, 800.7425
776.2159, 795.2265
776.6981, 787.7219
777.1802, 787.5588
777.6623, 792.4503
778.1444, 799.2796
778.6265, 806.6345
779.1086, 807.0958
779.5908, 795.6710
780.0729, 780.9693
780.5550, 780.2599
781.0371, 795.3870
781.5192, 806.3343
782.0013, 813.0447
782.4835, 815.3402
782.9656, 809.0203
783.4477, 802.1340
783.9298, 807.2926
784.4119, 824.8961
784.8940, 835.2844
785.3762, 833.3207
785.8583, 829.6022
786.3404, 824.9143
786.8225, 821.2515
787.3046, 820.3681
787.7867, 821.9922
788.2689, 824.7235
788.7510, 828.0493
789.2331, 832.0987
789.7152, 838.4459
790.1973, 844.8735
790.6794, 848.8372
791.1616, 849.6345
791.6437, 844.1693
792.1258, 831.0568
792.6079, 818.5420
793.0900, 819.0110
793.5721, 830.8667
794.0543, 838.1733
794.5364, 840.4825
795.0185, 840.8035
795.5006, 838.8645
795.9827, 837.7900
796.4648, 842.0836
796.9470, 850.7073
797.4291, 852.3531
797.9112, 837.5574
798.3933, 829.3680
798.8754, 833.8124
799.3575, 840.1255
799.8397, 843.5080
800.3218, 843.9095
800.8039, 840.7286
801.2860, 832.7430
801.7681, 829.0062
802.2502, 837.7771
802.7324, 849.5168
803.2145, 857.6726
803.6966, 861.6077
804.1787, 860.9084
804.6608, 855.6263
805.1429, 846.3648
805.6251, 831.8549
806.1072, 816.1238
806.5893, 810.6855
807.0714, 813.3912
807.5535, 805.9711
808.0356, 784.5736
808.5178, 765.6031
808.9999, 760.6086
809.4820, 763.8318
809.9641, 760.6115
810.4462, 748.5326
810.9283, 738.5983
811.4105, 729.7233
811.8926, 724.8516
812.3747, 733.5059
812.8568, 741.1682
813.3389, 726.6216
813.8210, 689.9750
814.3032, 665.1268
814.7853, 666.9666
815.2674, 668.7360
815.7495, 662.3818
816.2316, 651.2077
816.7137, 634.4164
817.1959, 615.8204
817.6780, 605.1221
818.1601, 607.6187
818.6422, 612.9071
819.1243, 613.0254
819.6064, 609.7446
820.0886, 605.1996
820.5707, 599.7833
821.0528, 593.8802
821.5349, 587.6321
822.0170, 581.8585
822.4991, 577.3447
822.9813, 574.0557
823.4634, 572.4907
823.9455, 572.8293
824.4276, 570.1297
824.9097, 562.2393
825.3918, 555.9597
825.8740, 557.4816
826.3561, 563.7314
826.8382, 564.0457
827.3203, 554.3674
827.8024, 548.1425
828.2845, 548.0584
828.7667, 548.1671
829.2488, 545.6439
829.7309, 542.5626
830.2130, 541.9775
830.6951, 544.0193
831.1772, 544.3532
831.6594, 541.4241
832.1415, 537.2220
832.6236, 529.9706
833.1057, 523.7841
833.5878, 524.0093
834.0699, 529.1807
834.5521, 533.1935
835.0342, 533.0482
835.5163, 532.7126
835.9984, 538.6110
836.4805, 545.2380
836.9626, 542.3577
837.4448, 531.6592
837.9269, 519.8387
838.4090, 509.5164
838.8911, 503.4913
839.3732, 505.5858
839.8553, 513.6776
840.3375, 521.2621
840.8196, 528.4302
841.3017, 529.4712
841.7838, 522.3415
842.2659, 513.9732
842.7480, 508.7719
843.2302, 505.8746
843.7123, 502.8602
844.1944, 498.6897
844.6765, 498.0932
845.1586, 504.5347
845.6407, 509.3871
846.1229, 510.3192
846.6050, 507.9213
847.0871, 499.9138
847.5692, 487.3420
848.0513, 482.2670
848.5334, 492.1891
849.0156, 501.8232
849.4977, 508.8041
849.9798, 512.3889
850.4619, 509.7748
850.9440, 503.8925
851.4261, 500.8482
851.9083, 502.6165
852.3904, 505.3558
852.8725, 507.6665
853.3546, 508.7508
853.8367, 507.8306
854.3188, 505.0238
854.8010, 498.7519
855.2831, 489.9876
855.7652, 485.9224
856.2473, 493.1646
856.7294, 504.1872
857.2115, 504.5155
857.6937, 496.7825
858.1758, 492.5466
858.6579, 492.9009
859.1400, 495.7328
859.6221, 500.4803
860.1042, 504.2567
860.5864, 502.4020
861.0685, 495.2014
861.5506, 490.1839
862.0327, 487.2786
862.5148, 487.2005
862.9969, 491.6315
863.4791, 496.0776
863.9612, 497.5431
864.4433, 496.0927
864.9254, 491.5997
865.4075, 479.6339
865.8896, 473.9038
866.3718, 478.3807
866.8539, 484.0462
867.3360, 490.0515
867.8181, 494.1724
868.3002, 492.9971
868.7823, 486.7720
869.2645, 481.3358
869.7466, 476.8461
870.2287, 475.1473
870.7108, 480.2297
871.1929, 485.6999
871.6750, 484.3082
872.1572, 478.8430
872.6393, 477.6361
873.1214, 483.7062
873.6035, 487.9303
874.0856, 480.3770
874.5677, 470.3085
875.0499, 469.3382
875.5320, 473.6046
876.0141, 474.1736
876.4962, 469.8615
876.9783, 466.2230
877.4604, 467.4724
877.9426, 469.4619
878.4247, 461.9111
878.9068, 449.4150
879.3889, 452.9522
879.8710, 472.0964
880.3531, 484.0962
880.8353, 479.4404
881.3174, 468.9075
881.7995, 465.0429
882.2816, 466.7439
882.7637, 466.6327
883.2458, 464.1023
883.7280, 464.6913
884.2101, 470.1863
884.6922, 476.1015
885.1743, 480.0923
885.6564, 481.9384
886.1385, 480.9760
886.6207, 476.6500
887.1028, 471.8323
887.5849, 463.7873
888.0670, 459.7635
888.5491, 464.8972
889.0313, 471.9662
889.5134, 474.6993
889.9955, 473.9622
890.4776, 473.8183
890.9597, 475.6251
891.4418, 476.0496
891.9240, 473.2305
892.4061, 470.4561
892.8882, 468.6353
893.3703, 468.3525
893.8524, 471.4938
894.3345, 477.7703
894.8167, 481.2792
895.2988, 475.5456
895.7809, 471.4483
896.2630, 478.1595
896.7451, 486.8459
897.2272, 488.3235
897.7094, 483.5868
898.1915, 476.9163
898.6736, 469.8124
899.1557, 464.6265
899.6378, 464.3915
900.1199, 466.2377
900.6021, 467.7802
901.0842, 468.2856
901.5663, 465.1337
902.0484, 458.9220
902.5305, 454.9904
903.0126, 456.9069
903.4948, 461.2494
903.9769, 463.7213
904.4590, 464.4325
904.9411, 462.4087
905.4232, 458.3576
905.9053, 458.0605
906.3875, 463.3532
906.8696, 468.9808
907.3517, 469.6251
907.8338, 467.1621
908.3159, 468.7419
908.7980, 474.4290
909.2802, 474.4369
909.7623, 467.0760
910.2444, 458.3478
910.7265, 449.8833
911.2086, 445.8261
911.6907, 454.2330
912.1729, 474.7815
912.6550, 481.4126
913.1371, 468.7961
913.6192, 459.2181
914.1013, 457.0268
914.5834, 457.6293
915.0656, 459.3537
915.5477, 460.8997
916.0298, 458.5318
916.5119, 449.4480
916.9940, 447.0982
917.4761, 457.8989
917.9583, 466.3455
918.4404, 468.0625
918.9225, 466.8260
919.4046, 464.9453
919.8867, 462.5573
920.3688, 459.0120
920.8510, 439.3323
921.3331, 451.9908
921.8152, 459.4180
922.2973, 461.8951
922.7794, 444.5960
923.2615, 452.8338
923.7437, 450.8377
924.2258, 448.4218
924.7079, 460.2538
925.1900, 445.8311
925.6721, 457.4371
926.1542, 458.6529
926.6364, 464.6243
927.1185, 460.2982
927.6006, 459.1525
928.0827, 468.3075
928.5648, 466.9257
929.0469, 473.3694
929.5291, 467.2723
930.0112, 459.5180
930.4933, 459.2358
930.9754, 461.2950
931.4575, 458.0397
931.9396, 451.3170
932.4218, 448.4356
932.9039, 451.9867
933.3860, 457.2845
933.8681, 463.5467
934.3502, 466.6688
934.8323, 457.8535
935.3145, 442.9974
935.7966, 433.1567
936.2787, 430.2314
936.7608, 433.8380
937.2429, 444.2014
937.7250, 454.2442
938.2072, 453.3891
938.6893, 446.5938
939.1714, 443.9080
939.6535, 445.6640
940.1356, 454.6609
940.6177, 470.3183
941.0999, 481.2629
941.5820, 478.9908
942.0641, 470.1162
942.5462, 466.2934
943.0283, 466.4953
943.5104, 465.4613
943.9926, 463.0512
944.4747, 460.0869
944.9568, 456.7869
945.4389, 454.4401
945.9210, 454.3966
946.4031, 455.7356
946.8853, 455.7466
947.3674, 454.4392
947.8495, 453.2638
948.3316, 452.0683
948.8137, 454.9245
949.2958, 464.4831
949.7780, 472.9869
950.2601, 470.8619
950.7422, 460.7471
951.2243, 457.6956
951.7064, 463.5391
952.1885, 463.6741
952.6707, 454.6787
953.1528, 447.9255
953.6349, 449.3162
954.1170, 454.2811
954.5991, 456.8127
955.0812, 457.0133
955.5634, 457.7714
956.0455, 460.4005
956.5276, 458.8249
957.0097, 448.5765
957.4918, 442.1709
957.9739, 449.1083
958.4561, 460.7837
958.9382, 462.2618
959.4203, 452.4088
959.9024, 448.7809
960.3845, 454.3477
960.8666, 460.4987
961.3488, 469.6245
961.8309, 473.9345
962.3130, 465.2668
962.7951, 450.2719
963.2772, 441.5137
963.7593, 439.2985
964.2415, 441.7941
964.7236, 456.8830
965.2057, 465.2144
965.6878, 458.0526
966.1699, 448.5324
966.6520, 442.4087
967.1342, 440.6573
967.6163, 447.0393
968.0984, 465.4346
968.5805, 476.5762
969.0626, 475.4799
969.5447, 472.5286
970.0269, 465.9802
970.5090, 462.4382
970.9911, 471.8178
971.4732, 487.4839
971.9553, 490.3072
972.4374, 472.9752
972.9196, 462.8089
973.4017, 471.2689
973.8838, 477.5257
974.3659, 469.8076
974.8480, 460.5395
975.3301, 462.2614
975.8123, 471.8452
976.2944, 477.6494
976.7765, 476.5567
977.2586, 475.9691
977.7407, 480.8572
978.2228, 482.5178
978.7050, 471.2316
979.1871, 459.4805
979.6692, 461.6188
980.1513, 474.5064
980.6334, 483.7928
981.1155, 484.9521
981.5977, 486.9689
982.0798, 489.2475
982.5619, 496.8333
983.0440, 522.4509
983.5261, 547.4526
984.0082, 547.2239
984.4904, 526.9670
984.9725, 513.7761
985.4546, 517.0781
985.9367, 520.8737
986.4188, 515.1274
986.9009, 513.0666
987.3831, 530.1984
987.8652, 549.9965
988.3473, 548.7367
988.8294, 530.4771
989.3115, 521.8314
989.7936, 534.4774
990.2758, 546.3641
990.7579, 549.4267
991.2400, 547.7515
991.7221, 540.0787
992.2042, 531.7609
992.6863, 528.2839
993.1685, 530.1981
993.6506, 536.7249
994.1327, 550.2722
994.6148, 560.4875
995.0969, 559.8098
995.5790, 557.4169
996.0612, 559.9049
996.5433, 564.1427
997.0254, 564.3727
997.5075, 561.7492
997.9896, 564.7592
998.4717, 579.9931
998.9539, 589.8859
999.4360, 580.5549
999.9181, 569.2693
1000.400, 566.1778
1000.882, 569.5590
1001.364, 578.0485
1001.847, 590.1694
1002.329, 602.7907
1002.811, 617.0234
1003.293, 624.7834
1003.775, 617.6733
1004.257, 607.8370
1004.739, 602.3445
1005.221, 599.9185
1005.703, 598.2684
1006.186, 597.5146
1006.668, 599.7350
1007.150, 606.6979
1007.632, 613.0157
1008.114, 620.1747
1008.596, 621.5325
1009.078, 603.6340
1009.560, 583.6348
1010.043, 585.0875
1010.525, 604.5591
1011.007, 620.0528
1011.489, 624.4779
1011.971, 626.0709
1012.453, 629.4817
1012.935, 629.9215
1013.417, 618.9642
1013.899, 607.4657
1014.382, 608.5170
1014.864, 620.4132
1015.346, 634.6671
1015.828, 651.8091
1016.310, 658.5884
1016.792, 639.6243
1017.274, 621.1101
1017.756, 617.4764
1018.239, 621.2874
1018.721, 626.5204
1019.203, 631.7119
1019.685, 635.3110
1020.167, 636.4954
1020.649, 638.4762
1021.131, 645.2556
1021.613, 649.4037
1022.095, 642.4198
1022.578, 635.5753
1023.060, 645.0165
1023.542, 662.1621
1024.024, 661.3920
1024.506, 633.9130
1024.988, 615.8607
1025.470, 621.5647
1025.952, 631.7965
1026.435, 645.8361
1026.917, 655.7851
1027.399, 651.0646
1027.881, 638.8045
1028.363, 634.9539
1028.845, 642.5847
1029.327, 649.6658
1029.809, 655.1212
1030.292, 658.2429
1030.774, 659.6395
1031.256, 657.8589
1031.738, 647.2297
1032.220, 634.6694
1032.702, 633.9525
1033.184, 647.1650
1033.666, 655.8602
1034.148, 652.7830
1034.630, 652.9604
1035.113, 668.2781
1035.595, 677.1531
1036.077, 656.2372
1036.559, 627.5003
1037.041, 627.8243
1037.523, 658.8187
1038.005, 675.7830
1038.487, 668.7466
1038.970, 663.1467
1039.452, 659.0702
1039.934, 658.5097
1040.416, 665.6896
1040.898, 674.0396
1041.380, 675.7733
1041.862, 671.2775
1042.344, 664.4575
1042.826, 652.4122
1043.309, 644.3584
1043.791, 639.4986
1044.273, 641.1520
1044.755, 654.2511
1045.237, 669.3948
1045.719, 678.3970
1046.201, 681.0369
1046.683, 674.9998
1047.166, 654.3483
1047.648, 645.9458
1048.130, 653.9664
1048.612, 662.6469
1049.094, 667.7759
1049.576, 671.0339
1050.058, 674.0720
1050.540, 675.9189
1051.022, 673.7321
1051.505, 667.2075
1051.987, 659.3701
1052.469, 649.8842
1052.951, 640.9609
1053.433, 632.5524
1053.915, 628.3763
1054.397, 631.6666
1054.879, 638.1550
1055.361, 639.8733
1055.844, 637.2709
1056.326, 636.0056
1056.808, 636.0562
1057.290, 633.7131
1057.772, 628.2888
1058.254, 626.4100
1058.736, 631.9825
1059.218, 637.6680
1059.701, 633.3844
1060.183, 621.7397
1060.665, 609.1744
1061.147, 596.9371
1061.629, 593.8141
1062.111, 599.5707
1062.593, 604.5286
1063.075, 604.8983
1063.557, 603.2658
1064.040, 601.7189
1064.522, 600.5204
1065.004, 599.5615
1065.486, 599.5491
1065.968, 604.1960
1066.450, 611.4169
1066.932, 612.8698
1067.414, 607.0735
1067.896, 600.4737
1068.379, 596.7927
1068.861, 596.6844
1069.343, 602.6566
1069.825, 611.3101
1070.307, 620.6409
1070.789, 627.8165
1071.271, 625.3231
1071.753, 615.0294
1072.236, 609.4828
1072.718, 615.0730
1073.200, 620.6644
1073.682, 616.1830
1074.164, 610.4597
1074.646, 609.6807
1075.128, 612.8525
1075.610, 620.7621
1076.093, 630.8250
1076.575, 636.6615
1077.057, 636.4422
1077.539, 637.4366
1078.021, 644.0263
1078.503, 650.8746
1078.985, 656.0934
1079.467, 660.1184
1079.949, 662.6982
1080.432, 664.6635
1080.914, 666.5870
1081.396, 668.7187
1081.878, 673.9260
1082.360, 684.3448
1082.842, 695.4336
1083.324, 709.6122
1083.806, 720.5764
1084.288, 722.5849
1084.771, 722.0842
1085.253, 727.5614
1085.735, 736.9048
1086.217, 738.7973
1086.699, 726.0146
1087.181, 725.4668
1087.663, 743.2376
1088.145, 761.3172
1088.628, 776.9031
1089.110, 787.8336
1089.592, 790.4786
1090.074, 790.0734
1090.556, 799.8460
1091.038, 820.6823
1091.520, 823.3237
1092.002, 803.4070
1092.484, 793.2142
1092.967, 798.3045
1093.449, 812.6509
1093.931, 835.1413
1094.413, 855.1512
1094.895, 858.1460
1095.377, 848.9610
1095.859, 844.0018
1096.341, 843.1781
1096.823, 846.2164
1097.306, 852.9508
1097.788, 863.2865
1098.270, 876.8290
1098.752, 888.6844
1099.234, 894.5740
1099.716, 898.1191
1100.198, 906.5732
1100.680, 915.8130
1101.163, 914.5795
1101.645, 907.6530
1102.127, 910.1308
1102.609, 921.4503
1103.091, 925.6805
1103.573, 914.8538
1104.055, 904.8676
1104.537, 911.4972
1105.020, 922.0841
1105.502, 923.3428
1105.984, 923.0547
1106.466, 934.3175
1106.948, 951.0929
1107.430, 956.0365
1107.912, 946.4709
1108.394, 942.7610
1108.876, 961.9876
1109.359, 975.2104
1109.841, 963.7247
1110.323, 951.8756
1110.805, 957.9542
1111.287, 969.7350
1111.769, 969.9631
1112.251, 960.7963
1112.733, 958.8577
1113.215, 970.0087
1113.698, 977.3234
1114.180, 976.3554
1114.662, 977.9709
1115.144, 988.2696
1115.626, 996.3055
1116.108, 992.2753
1116.590, 983.7657
1117.072, 985.6900
1117.555, 998.1248
1118.037, 1005.694
1118.519, 1007.801
1119.001, 1008.623
1119.483, 1008.946
1119.965, 1004.671
1120.447, 992.9672
1120.929, 984.4300
1121.411, 991.8163
1121.894, 1006.003
1122.376, 998.3130
1122.858, 975.4315
1123.340, 976.6548
1123.822, 997.8746
1124.304, 1006.820
1124.786, 997.4802
1125.268, 985.5869
1125.750, 979.7136
1126.233, 980.8414
1126.715, 997.0370
1127.197, 1015.002
1127.679, 1012.695
1128.161, 1001.584
1128.643, 1000.880
1129.125, 1008.090
1129.607, 1010.586
1130.090, 1005.471
1130.572, 1000.750
1131.054, 1002.874
1131.536, 1001.951
1132.018, 990.3095
1132.500, 976.6539
1132.982, 962.9622
1133.464, 953.5076
1133.947, 956.6364
1134.429, 968.3950
1134.911, 971.7741
1135.393, 961.2698
1135.875, 954.3622
1136.357, 957.5261
1136.839, 956.4330
1137.321, 942.6321
1137.803, 933.2160
1138.286, 940.8718
1138.768, 954.8746
1139.250, 959.2698
1139.732, 955.1514
1140.214, 952.9969
1140.696, 953.0874
1141.178, 953.1771
1141.660, 953.2539
1142.142, 951.5822
1142.625, 947.5223
1143.107, 943.1379
1143.589, 940.0112
1144.071, 937.5960
1144.553, 935.0400
1145.035, 932.3782
1145.517, 930.1782
1145.999, 927.8942
1146.482, 921.8508
1146.964, 913.7248
1147.446, 913.5565
1147.928, 924.2988
1148.410, 931.5198
1148.892, 920.6346
1149.374, 908.6341
1149.856, 911.2919
1150.339, 919.5275
1150.821, 927.6143
1151.303, 933.1036
1151.785, 933.3580
1152.267, 928.6031
1152.749, 919.9985
1153.231, 904.8798
1153.713, 897.8726
1154.195, 914.8948
1154.677, 922.8738
1155.160, 899.5555
1155.642, 878.0262
1156.124, 883.2645
1156.606, 898.5154
1157.088, 898.3123
1157.570, 884.5576
1158.052, 880.6044
1158.534, 889.6043
1159.017, 893.9229
1159.499, 892.2628
1159.981, 888.3198
1160.463, 883.0092
1160.945, 876.9172
1161.427, 870.2684
1161.909, 863.8167
1162.391, 858.2363
1162.874, 854.0453
1163.356, 854.3984
1163.838, 857.3635
1164.320, 855.9802
1164.802, 850.7969
1165.284, 847.5126
1165.766, 847.7731
1166.248, 848.6163
1166.730, 849.1277
1167.213, 846.8315
1167.695, 840.3444
1168.177, 829.4626
1168.659, 808.1574
1169.141, 786.6767
1169.623, 779.9433
1170.105, 783.7844
1170.587, 782.1977
1171.069, 771.2977
1171.552, 764.1439
1172.034, 767.6625
1172.516, 767.7417
1172.998, 762.2443
1173.480, 752.7187
1173.962, 736.8285
1174.444, 721.3226
1174.926, 713.4913
1175.409, 711.5298
1175.891, 709.4124
1176.373, 707.0436
1176.855, 706.6993
1177.337, 708.5027
1177.819, 706.9365
1178.301, 700.9225
1178.783, 688.7395
1179.266, 669.5009
1179.748, 653.0471
1180.230, 651.6136
1180.712, 656.0647
1181.194, 652.6871
1181.676, 644.1907
1182.158, 631.8709
1182.640, 619.6533
1183.122, 616.2896
1183.604, 620.7043
1184.087, 622.7404
1184.569, 618.3065
1185.051, 614.4282
1185.533, 615.4616
1186.015, 616.1627
1186.497, 613.5878
1186.979, 610.6927
1187.461, 608.9906
1187.944, 608.6400
1188.426, 611.7640
1188.908, 616.6998
1189.390, 612.6036
1189.872, 595.4312
1190.354, 583.4327
1190.836, 577.0496
1191.318, 574.7845
1191.801, 577.3304
1192.283, 576.9923
1192.765, 569.3154
1193.247, 557.0458
1193.729, 541.6944
1194.211, 527.2032
1194.693, 524.0391
1195.175, 529.1219
1195.657, 537.3588
1196.140, 545.6465
1196.622, 545.8900
1197.104, 538.3839
1197.586, 532.5598
1198.068, 532.8875
1198.550, 531.9380
1199.032, 523.8500
1199.514, 514.7184
1199.996, 505.8512
1200.479, 499.5075
1200.961, 497.7628
1201.443, 499.4214
1201.925, 504.5920
1202.407, 512.0084
1202.889, 513.6104
1203.371, 508.5753
1203.853, 499.0082
1204.336, 480.3022
1204.818, 473.7058
1205.300, 486.6201
1205.782, 497.1544
1206.264, 493.2214
1206.746, 484.1124
1207.228, 480.6191
1207.710, 480.5221
1208.193, 479.3336
1208.675, 476.6036
1209.157, 468.9157
1209.639, 458.9901
1210.121, 456.1978
1210.603, 460.0434
1211.085, 460.9505
1211.567, 455.0498
1212.049, 449.4660
1212.531, 448.9180
1213.014, 449.3767
1213.496, 448.9496
1213.978, 448.5153
1214.460, 449.5925
1214.942, 450.3626
1215.424, 450.0101
1215.906, 447.1935
1216.388, 435.5792
1216.871, 410.8946
1217.353, 406.3268
1217.835, 429.0858
1218.317, 439.9960
1218.799, 431.7634
1219.281, 425.1304
1219.763, 428.7847
1220.245, 435.6483
1220.728, 439.8970
1221.210, 440.9416
1221.692, 436.0358
1222.174, 428.2078
1222.656, 422.1722
1223.138, 418.8985
1223.620, 423.8876
1224.102, 432.4389
1224.584, 428.0047
1225.067, 408.1140
1225.549, 396.9097
1226.031, 410.8452
1226.513, 422.8775
1226.995, 425.6756
1227.477, 422.5214
1227.959, 406.3459
1228.441, 393.9603
1228.923, 401.1674
1229.406, 416.7512
1229.888, 421.0697
1230.370, 415.3859
1230.852, 413.3334
1231.334, 415.0674
1231.816, 417.3504
1232.298, 419.7945
1232.780, 417.0071
1233.263, 408.3738
1233.745, 403.7585
1234.227, 408.8766
1234.709, 416.2681
1235.191, 419.5474
1235.673, 419.4952
1236.155, 414.9765
1236.637, 409.4252
1237.120, 406.6363
1237.602, 405.6434
1238.084, 403.7034
1238.566, 401.5664
1239.048, 403.7783
##END=



