##NAMES=Stellerite
##RRUFFID=R070535
##IDEAL CHEMISTRY=Ca_4_(Si_28_Al_8_)O_72_&#183;28H_2_O
##LOCALITY=Upper Clackamas River, Clackamas County, Oregon, USA
##OWNER=RRUFF
##SOURCE=James Shigley
##DESCRIPTION=Sheaflike aggregates of white, tabular crystals
##STATUS=The identification of this mineral has been confirmed by X-ray diffraction and chemical analysis
##URL=rruff.info/R070535
##MEASURED CHEMISTRY=(Ca_3.91_K_0.09_)_Σ=4_(Si_28.09_Al_7.91_)O_72_·22.5H_2_O; trace amounts of Na; H_2_O estimated by difference
115.6143, 1020.815
116.0964, 1059.499
116.5786, 1101.613
117.0607, 1148.924
117.5428, 1201.591
118.0249, 1263.014
118.5070, 1347.090
118.9891, 1415.113
119.4713, 1442.507
119.9534, 1445.429
120.4355, 1451.568
120.9176, 1477.252
121.3997, 1520.979
121.8818, 1570.872
122.3640, 1629.002
122.8461, 1691.940
123.3282, 1754.349
123.8103, 1819.714
124.2924, 1895.238
124.7745, 1987.576
125.2567, 2097.276
125.7388, 2214.303
126.2209, 2354.363
126.7030, 2488.478
127.1851, 2599.336
127.6672, 2692.843
128.1494, 2790.785
128.6315, 2914.799
129.1136, 3068.679
129.5957, 3230.942
130.0778, 3384.153
130.5600, 3559.185
131.0421, 3773.428
131.5242, 4026.908
132.0063, 4310.151
132.4884, 4618.425
132.9705, 4977.159
133.4527, 5283.419
133.9348, 5545.441
134.4169, 5762.512
134.8990, 5934.911
135.3811, 6062.546
135.8632, 6144.041
136.3454, 6174.488
136.8275, 6127.350
137.3096, 6078.503
137.7917, 6037.117
138.2738, 5989.150
138.7559, 5921.320
139.2381, 5830.730
139.7202, 5726.753
140.2023, 5621.756
140.6844, 5497.210
141.1665, 5410.950
141.6486, 5375.134
142.1308, 5373.589
142.6129, 5388.679
143.0950, 5414.825
143.5771, 5460.558
144.0592, 5543.425
144.5413, 5666.210
145.0235, 5818.080
145.5056, 6000.865
145.9877, 6211.145
146.4698, 6445.512
146.9519, 6703.450
147.4340, 6982.611
147.9162, 7287.511
148.3983, 7639.988
148.8804, 7961.491
149.3625, 8242.271
149.8446, 8477.228
150.3267, 8651.334
150.8089, 8749.031
151.2910, 8802.372
151.7731, 8877.844
152.2552, 8988.239
152.7373, 9082.939
153.2194, 9168.173
153.7016, 9226.220
154.1837, 9206.786
154.6658, 9079.793
155.1479, 8876.771
155.6300, 8659.636
156.1121, 8426.642
156.5943, 8185.348
157.0764, 7925.772
157.5585, 7656.705
158.0406, 7413.864
158.5227, 7212.330
159.0048, 7042.957
159.4870, 6874.918
159.9691, 6670.388
160.4512, 6481.031
160.9333, 6348.411
161.4154, 6265.211
161.8975, 6185.097
162.3797, 6090.853
162.8618, 5995.012
163.3439, 5916.834
163.8260, 5861.771
164.3081, 5806.369
164.7902, 5731.006
165.2724, 5637.890
165.7545, 5546.244
166.2366, 5464.824
166.7187, 5387.099
167.2008, 5305.480
167.6829, 5217.852
168.1651, 5132.141
168.6472, 5057.404
169.1293, 4993.770
169.6114, 4925.823
170.0935, 4839.571
170.5756, 4753.654
171.0578, 4688.502
171.5399, 4649.869
172.0220, 4614.498
172.5041, 4557.643
172.9862, 4477.622
173.4683, 4402.246
173.9505, 4346.383
174.4326, 4294.215
174.9147, 4229.783
175.3968, 4149.146
175.8789, 4067.611
176.3610, 4001.315
176.8432, 3951.341
177.3253, 3906.402
177.8074, 3868.226
178.2895, 3830.507
178.7716, 3788.531
179.2537, 3741.104
179.7359, 3690.901
180.2180, 3639.069
180.7001, 3584.333
181.1822, 3535.139
181.6643, 3498.803
182.1465, 3465.954
182.6286, 3428.153
183.1107, 3383.313
183.5928, 3343.341
184.0749, 3329.422
184.5570, 3349.533
185.0392, 3349.005
185.5213, 3291.803
186.0034, 3224.337
186.4855, 3174.091
186.9676, 3146.613
187.4497, 3128.210
187.9319, 3102.536
188.4140, 3067.075
188.8961, 3038.021
189.3782, 3025.628
189.8603, 3015.834
190.3424, 2999.297
190.8246, 2974.701
191.3067, 2949.707
191.7888, 2934.680
192.2709, 2932.406
192.7530, 2924.749
193.2351, 2900.046
193.7173, 2875.481
194.1994, 2863.297
194.6815, 2864.261
195.1636, 2865.192
195.6457, 2846.572
196.1278, 2802.194
196.6100, 2775.383
197.0921, 2798.546
197.5742, 2820.998
198.0563, 2812.400
198.5384, 2772.126
199.0205, 2726.764
199.5027, 2705.802
199.9848, 2713.581
200.4669, 2715.615
200.9490, 2707.499
201.4311, 2693.991
201.9132, 2673.052
202.3954, 2646.608
202.8775, 2622.639
203.3596, 2611.500
203.8417, 2615.212
204.3238, 2612.829
204.8059, 2597.357
205.2881, 2580.215
205.7702, 2566.222
206.2523, 2555.205
206.7344, 2544.331
207.2165, 2530.305
207.6986, 2512.629
208.1808, 2497.850
208.6629, 2486.498
209.1450, 2477.949
209.6271, 2474.755
210.1092, 2474.767
210.5913, 2471.977
211.0735, 2460.103
211.5556, 2439.248
212.0377, 2421.719
212.5198, 2408.499
213.0019, 2397.920
213.4840, 2392.930
213.9662, 2390.320
214.4483, 2382.391
214.9304, 2360.224
215.4125, 2326.438
215.8946, 2305.520
216.3767, 2307.574
216.8589, 2310.747
217.3410, 2304.950
217.8231, 2294.424
218.3052, 2287.632
218.7873, 2291.090
219.2694, 2302.264
219.7516, 2309.455
220.2337, 2312.784
220.7158, 2311.330
221.1979, 2303.756
221.6800, 2292.230
222.1621, 2279.775
222.6443, 2267.714
223.1264, 2256.015
223.6085, 2244.309
224.0906, 2231.974
224.5727, 2220.779
225.0548, 2209.738
225.5370, 2200.378
226.0191, 2194.416
226.5012, 2192.388
226.9833, 2194.358
227.4654, 2203.287
227.9475, 2226.639
228.4297, 2237.605
228.9118, 2219.661
229.3939, 2190.410
229.8760, 2164.395
230.3581, 2145.768
230.8402, 2134.329
231.3224, 2131.117
231.8045, 2137.895
232.2866, 2145.811
232.7687, 2158.204
233.2508, 2167.418
233.7329, 2164.791
234.2151, 2147.743
234.6972, 2128.387
235.1793, 2122.301
235.6614, 2131.327
236.1435, 2137.435
236.6256, 2134.121
237.1078, 2128.228
237.5899, 2123.562
238.0720, 2120.629
238.5541, 2119.926
239.0362, 2124.088
239.5183, 2132.900
240.0005, 2136.430
240.4826, 2131.324
240.9647, 2121.913
241.4468, 2108.433
241.9289, 2091.986
242.4111, 2080.982
242.8932, 2085.964
243.3753, 2103.214
243.8574, 2111.516
244.3395, 2105.755
244.8216, 2094.753
245.3038, 2084.029
245.7859, 2073.669
246.2680, 2064.071
246.7501, 2055.236
247.2322, 2047.320
247.7143, 2041.564
248.1965, 2039.869
248.6786, 2035.772
249.1607, 2021.372
249.6428, 2001.169
250.1249, 1985.101
250.6070, 1978.348
251.0892, 1976.878
251.5713, 1973.287
252.0534, 1966.329
252.5355, 1964.192
253.0176, 1978.355
253.4997, 1999.752
253.9819, 2011.151
254.4640, 2004.061
254.9461, 1991.237
255.4282, 1984.306
255.9103, 1983.165
256.3924, 1983.854
256.8745, 1985.114
257.3567, 1986.772
257.8388, 1988.781
258.3209, 1992.717
258.8030, 1994.265
259.2851, 1989.495
259.7672, 1979.591
260.2494, 1969.418
260.7315, 1960.672
261.2136, 1952.759
261.6957, 1944.150
262.1778, 1933.834
262.6599, 1925.960
263.1421, 1923.216
263.6242, 1923.914
264.1063, 1925.201
264.5884, 1926.634
265.0705, 1927.367
265.5526, 1925.462
266.0348, 1920.318
266.5169, 1917.051
266.9990, 1916.928
267.4811, 1919.014
267.9632, 1924.639
268.4453, 1933.923
268.9275, 1939.172
269.4096, 1930.837
269.8917, 1905.578
270.3738, 1887.957
270.8559, 1878.705
271.3380, 1876.661
271.8202, 1884.386
272.3023, 1900.093
272.7844, 1915.601
273.2665, 1924.324
273.7487, 1926.381
274.2308, 1929.842
274.7129, 1940.435
275.1950, 1946.400
275.6771, 1937.138
276.1592, 1919.520
276.6414, 1909.924
277.1235, 1918.695
277.6056, 1940.326
278.0877, 1950.730
278.5698, 1942.082
279.0519, 1931.820
279.5341, 1920.206
280.0162, 1908.926
280.4983, 1900.115
280.9804, 1894.615
281.4625, 1891.059
281.9446, 1886.410
282.4268, 1876.658
282.9089, 1872.535
283.3910, 1878.374
283.8731, 1886.482
284.3552, 1890.699
284.8373, 1890.109
285.3195, 1888.208
285.8016, 1889.778
286.2837, 1896.917
286.7658, 1899.551
287.2479, 1894.587
287.7300, 1888.239
288.2122, 1882.180
288.6943, 1877.007
289.1764, 1873.560
289.6585, 1873.459
290.1406, 1876.336
290.6227, 1873.659
291.1049, 1857.152
291.5870, 1844.896
292.0691, 1841.173
292.5512, 1845.171
293.0333, 1856.894
293.5154, 1878.530
293.9976, 1903.852
294.4797, 1915.049
294.9618, 1905.702
295.4439, 1896.795
295.9260, 1893.364
296.4081, 1893.642
296.8903, 1896.469
297.3724, 1901.586
297.8545, 1908.547
298.3366, 1918.675
298.8187, 1932.540
299.3008, 1940.567
299.7830, 1935.270
300.2651, 1927.527
300.7472, 1928.076
301.2293, 1937.136
301.7114, 1942.862
302.1935, 1928.539
302.6757, 1902.731
303.1578, 1901.375
303.6399, 1938.541
304.1220, 1981.222
304.6041, 2001.567
305.0862, 2004.047
305.5684, 2003.344
306.0505, 2000.479
306.5326, 1998.706
307.0147, 2004.068
307.4968, 2017.226
307.9789, 2028.919
308.4611, 2033.208
308.9432, 2030.955
309.4253, 2027.593
309.9074, 2018.727
310.3895, 2013.182
310.8716, 2020.507
311.3538, 2036.153
311.8359, 2044.712
312.3180, 2037.685
312.8001, 2022.517
313.2822, 2018.008
313.7643, 2027.121
314.2465, 2038.576
314.7286, 2059.230
315.2107, 2077.396
315.6928, 2073.249
316.1749, 2042.566
316.6570, 2007.260
317.1392, 1996.855
317.6213, 2023.009
318.1034, 2037.247
318.5855, 2029.415
319.0676, 2019.119
319.5497, 2020.893
320.0319, 2032.333
320.5140, 2040.205
320.9961, 2033.532
321.4782, 2012.830
321.9603, 1994.324
322.4424, 1978.271
322.9246, 1964.366
323.4067, 1950.548
323.8888, 1939.310
324.3709, 1936.122
324.8530, 1944.080
325.3351, 1956.055
325.8173, 1953.817
326.2994, 1927.557
326.7815, 1907.627
327.2636, 1896.818
327.7457, 1893.609
328.2278, 1901.781
328.7100, 1920.256
329.1921, 1935.873
329.6742, 1930.525
330.1563, 1902.983
330.6384, 1885.454
331.1205, 1887.251
331.6027, 1891.630
332.0848, 1889.253
332.5669, 1881.611
333.0490, 1873.965
333.5311, 1868.682
334.0132, 1865.510
334.4954, 1864.668
334.9775, 1867.201
335.4596, 1867.998
335.9417, 1860.454
336.4238, 1850.430
336.9059, 1848.628
337.3881, 1863.780
337.8702, 1876.066
338.3523, 1862.661
338.8344, 1829.831
339.3165, 1809.782
339.7986, 1817.045
340.2808, 1837.662
340.7629, 1848.814
341.2450, 1850.161
341.7271, 1847.935
342.2092, 1841.325
342.6913, 1833.107
343.1735, 1826.620
343.6556, 1822.430
344.1377, 1819.109
344.6198, 1814.983
345.1019, 1809.768
345.5840, 1808.040
346.0662, 1816.377
346.5483, 1821.541
347.0304, 1812.942
347.5125, 1796.007
347.9946, 1784.135
348.4767, 1785.422
348.9589, 1796.495
349.4410, 1804.789
349.9231, 1812.061
350.4052, 1813.756
350.8873, 1802.966
351.3694, 1790.328
351.8516, 1786.992
352.3337, 1795.162
352.8158, 1806.817
353.2979, 1809.902
353.7800, 1800.278
354.2621, 1799.442
354.7443, 1818.140
355.2264, 1836.646
355.7085, 1846.830
356.1906, 1850.167
356.6727, 1852.311
357.1548, 1857.540
357.6370, 1863.952
358.1191, 1864.031
358.6012, 1853.801
359.0833, 1847.693
359.5654, 1854.644
360.0475, 1868.124
360.5297, 1882.135
361.0118, 1895.981
361.4939, 1908.258
361.9760, 1917.615
362.4581, 1924.239
362.9402, 1928.968
363.4224, 1931.333
363.9045, 1932.985
364.3866, 1934.505
364.8687, 1935.545
365.3508, 1942.246
365.8329, 1962.122
366.3151, 1985.313
366.7972, 1998.195
367.2793, 2000.539
367.7614, 2005.852
368.2435, 2025.284
368.7256, 2057.459
369.2078, 2083.460
369.6899, 2101.326
370.1720, 2116.459
370.6541, 2128.739
371.1362, 2139.939
371.6183, 2152.973
372.1005, 2169.036
372.5826, 2185.959
373.0647, 2198.542
373.5468, 2196.509
374.0289, 2211.115
374.5110, 2260.515
374.9932, 2309.407
375.4753, 2334.014
375.9574, 2335.950
376.4395, 2332.018
376.9216, 2334.409
377.4037, 2343.332
377.8859, 2361.703
378.3680, 2396.438
378.8501, 2430.458
379.3322, 2462.898
379.8143, 2489.690
380.2964, 2502.634
380.7786, 2496.206
381.2607, 2486.674
381.7428, 2495.726
382.2249, 2523.448
382.7070, 2552.802
383.1891, 2582.447
383.6713, 2608.988
384.1534, 2628.481
384.6355, 2641.134
385.1176, 2653.942
385.5997, 2668.989
386.0818, 2686.160
386.5640, 2703.994
387.0461, 2722.433
387.5282, 2746.937
388.0103, 2783.338
388.4924, 2829.337
388.9745, 2868.984
389.4567, 2897.575
389.9388, 2925.593
390.4209, 2956.015
390.9030, 2988.417
391.3851, 3022.395
391.8672, 3057.631
392.3494, 3094.061
392.8315, 3130.776
393.3136, 3162.866
393.7957, 3208.212
394.2778, 3280.693
394.7599, 3352.471
395.2421, 3405.551
395.7242, 3443.495
396.2063, 3481.617
396.6884, 3531.763
397.1706, 3590.263
397.6527, 3637.849
398.1348, 3662.121
398.6169, 3698.474
399.0990, 3769.207
399.5811, 3847.803
400.0633, 3905.660
400.5454, 3934.814
401.0275, 3963.990
401.5096, 4029.079
401.9917, 4124.238
402.4738, 4197.435
402.9560, 4233.634
403.4381, 4261.051
403.9202, 4305.908
404.4023, 4363.275
404.8844, 4414.525
405.3665, 4451.673
405.8487, 4483.595
406.3308, 4523.787
406.8129, 4568.635
407.2950, 4595.424
407.7771, 4588.954
408.2592, 4563.711
408.7414, 4559.425
409.2235, 4600.313
409.7056, 4617.060
410.1877, 4584.960
410.6698, 4535.202
411.1519, 4497.066
411.6341, 4474.263
412.1162, 4452.195
412.5983, 4416.575
413.0804, 4367.299
413.5625, 4319.020
414.0446, 4272.335
414.5268, 4226.310
415.0089, 4186.503
415.4910, 4145.187
415.9731, 4090.079
416.4552, 4015.709
416.9373, 3934.244
417.4195, 3861.924
417.9016, 3798.920
418.3837, 3745.182
418.8658, 3709.864
419.3479, 3674.270
419.8300, 3623.142
420.3122, 3559.144
420.7943, 3495.981
421.2764, 3439.668
421.7585, 3388.105
422.2406, 3339.521
422.7227, 3293.774
423.2049, 3246.036
423.6870, 3193.662
424.1691, 3137.648
424.6512, 3079.861
425.1333, 3015.553
425.6154, 2959.010
426.0976, 2918.731
426.5797, 2885.697
427.0618, 2850.400
427.5439, 2810.711
428.0260, 2768.886
428.5081, 2727.100
428.9903, 2685.281
429.4724, 2642.789
429.9545, 2599.022
430.4366, 2555.291
430.9187, 2508.703
431.4008, 2463.311
431.8830, 2426.957
432.3651, 2402.954
432.8472, 2381.625
433.3293, 2344.070
433.8114, 2286.337
434.2935, 2243.006
434.7757, 2229.683
435.2578, 2220.749
435.7399, 2201.199
436.2220, 2172.093
436.7041, 2138.643
437.1862, 2096.761
437.6684, 2055.531
438.1505, 2029.490
438.6326, 2018.144
439.1147, 2009.710
439.5968, 2000.122
440.0789, 1989.013
440.5611, 1974.955
441.0432, 1956.825
441.5253, 1939.444
442.0074, 1924.590
442.4895, 1910.421
442.9716, 1893.911
443.4538, 1875.414
443.9359, 1858.646
444.4180, 1846.218
444.9001, 1838.252
445.3822, 1838.221
445.8643, 1864.459
446.3465, 1876.312
446.8286, 1856.464
447.3107, 1824.875
447.7928, 1801.664
448.2749, 1792.620
448.7570, 1791.906
449.2392, 1795.174
449.7213, 1802.337
450.2034, 1805.348
450.6855, 1801.418
451.1676, 1796.898
451.6497, 1796.055
452.1319, 1797.514
452.6140, 1798.330
453.0961, 1796.702
453.5782, 1795.417
454.0603, 1798.248
454.5424, 1803.749
455.0246, 1806.496
455.5067, 1804.613
455.9888, 1799.619
456.4709, 1792.459
456.9530, 1780.503
457.4352, 1777.046
457.9173, 1793.192
458.3994, 1808.029
458.8815, 1808.025
459.3636, 1795.995
459.8457, 1780.748
460.3279, 1766.814
460.8100, 1754.491
461.2921, 1744.398
461.7742, 1736.949
462.2563, 1730.999
462.7384, 1729.098
463.2206, 1726.469
463.7027, 1717.615
464.1848, 1704.115
464.6669, 1694.956
465.1490, 1701.473
465.6311, 1715.145
466.1133, 1713.278
466.5954, 1693.784
467.0775, 1674.678
467.5596, 1662.283
468.0417, 1656.933
468.5238, 1659.098
469.0060, 1671.772
469.4881, 1682.715
469.9702, 1684.814
470.4523, 1684.475
470.9344, 1690.892
471.4165, 1704.242
471.8987, 1715.613
472.3808, 1716.849
472.8629, 1709.360
473.3450, 1708.904
473.8271, 1721.891
474.3092, 1734.698
474.7914, 1744.031
475.2735, 1753.460
475.7556, 1766.508
476.2377, 1783.925
476.7198, 1804.262
477.2019, 1826.832
477.6841, 1851.428
478.1662, 1874.890
478.6483, 1895.741
479.1304, 1918.588
479.6125, 1944.697
480.0946, 1974.845
480.5768, 2011.362
481.0589, 2057.536
481.5410, 2104.396
482.0231, 2143.504
482.5052, 2179.508
482.9873, 2221.907
483.4695, 2272.900
483.9516, 2328.899
484.4337, 2388.021
484.9158, 2450.792
485.3979, 2504.218
485.8800, 2532.170
486.3622, 2571.067
486.8443, 2637.272
487.3264, 2718.953
487.8085, 2803.180
488.2906, 2884.877
488.7727, 2959.870
489.2549, 3018.392
489.7370, 3057.402
490.2191, 3112.504
490.7012, 3196.743
491.1833, 3280.273
491.6654, 3347.004
492.1476, 3403.065
492.6297, 3461.132
493.1118, 3527.199
493.5939, 3591.576
494.0760, 3651.000
494.5581, 3702.718
495.0403, 3739.676
495.5224, 3760.218
496.0045, 3764.158
496.4866, 3750.772
496.9687, 3718.770
497.4508, 3673.023
497.9330, 3607.865
498.4151, 3535.896
498.8972, 3464.142
499.3793, 3388.120
499.8614, 3300.636
500.3435, 3199.102
500.8257, 3087.778
501.3078, 2969.645
501.7899, 2841.214
502.2720, 2725.479
502.7541, 2630.304
503.2362, 2539.947
503.7184, 2443.919
504.2005, 2347.476
504.6826, 2261.759
505.1647, 2194.172
505.6468, 2130.302
506.1289, 2051.732
506.6111, 1965.398
507.0932, 1894.056
507.5753, 1844.833
508.0574, 1805.213
508.5395, 1762.713
509.0216, 1716.844
509.5038, 1675.079
509.9859, 1639.510
510.4680, 1605.635
510.9501, 1570.353
511.4322, 1536.287
511.9143, 1508.113
512.3965, 1487.176
512.8786, 1468.549
513.3607, 1445.317
513.8428, 1416.805
514.3250, 1389.607
514.8071, 1361.536
515.2892, 1337.818
515.7713, 1321.715
516.2534, 1310.902
516.7355, 1302.785
517.2177, 1298.861
517.6998, 1291.868
518.1819, 1272.884
518.6640, 1246.944
519.1461, 1225.631
519.6282, 1211.279
520.1104, 1202.128
520.5925, 1198.013
521.0746, 1198.825
521.5567, 1194.099
522.0388, 1179.554
522.5209, 1165.526
523.0031, 1153.549
523.4852, 1143.864
523.9673, 1137.844
524.4494, 1135.171
524.9315, 1131.965
525.4136, 1123.170
525.8958, 1109.409
526.3779, 1099.123
526.8600, 1093.111
527.3421, 1088.864
527.8242, 1084.736
528.3063, 1081.998
528.7885, 1083.437
529.2706, 1090.964
529.7527, 1096.077
530.2348, 1093.376
530.7169, 1086.277
531.1990, 1078.860
531.6812, 1071.841
532.1633, 1065.826
532.6454, 1061.292
533.1275, 1058.117
533.6096, 1055.873
534.0917, 1057.654
534.5739, 1055.841
535.0560, 1048.159
535.5381, 1038.245
536.0202, 1027.301
536.5023, 1016.468
536.9844, 1008.582
537.4666, 1006.748
537.9487, 1008.448
538.4308, 1007.149
538.9129, 1002.402
539.3950, 999.2375
539.8771, 999.7836
540.3593, 1002.283
540.8414, 1005.156
541.3235, 1008.762
541.8056, 1009.336
542.2877, 1003.121
542.7698, 996.2214
543.2520, 993.8248
543.7341, 994.5665
544.2162, 994.2218
544.6983, 990.8038
545.1804, 985.7094
545.6625, 981.2787
546.1447, 977.1994
546.6268, 974.8445
547.1089, 975.6437
547.5910, 976.7796
548.0731, 978.0468
548.5552, 978.6254
549.0374, 976.4454
549.5195, 969.2302
550.0016, 962.8560
550.4837, 964.9038
550.9658, 972.5693
551.4479, 976.1016
551.9301, 973.2191
552.4122, 969.0004
552.8943, 968.1225
553.3764, 970.4694
553.8585, 970.9337
554.3406, 968.2121
554.8228, 965.5489
555.3049, 964.8717
555.7870, 963.9097
556.2691, 958.8901
556.7512, 950.0165
557.2333, 942.6434
557.7155, 942.4508
558.1976, 947.9313
558.6797, 952.7025
559.1618, 957.9478
559.6439, 957.5623
560.1260, 942.8389
560.6082, 925.7614
561.0903, 924.2171
561.5724, 940.8790
562.0545, 954.5264
562.5366, 956.0854
563.0187, 953.6920
563.5009, 955.0335
563.9830, 959.1131
564.4651, 960.2881
564.9472, 955.5108
565.4293, 948.1037
565.9114, 945.5729
566.3936, 951.0289
566.8757, 952.4879
567.3578, 941.3845
567.8399, 934.5583
568.3220, 945.6000
568.8041, 965.0439
569.2863, 972.7839
569.7684, 958.5696
570.2505, 939.4520
570.7326, 930.7043
571.2147, 929.8737
571.6968, 930.3315
572.1790, 930.9003
572.6611, 932.2980
573.1432, 935.4030
573.6253, 939.9936
574.1074, 943.3187
574.5895, 944.0561
575.0717, 945.3304
575.5538, 950.4080
576.0359, 954.2906
576.5180, 950.4518
577.0001, 939.8683
577.4822, 931.1363
577.9644, 932.1906
578.4465, 938.7607
578.9286, 938.3226
579.4107, 929.9138
579.8928, 925.3255
580.3749, 930.1782
580.8571, 938.2258
581.3392, 940.3318
581.8213, 936.3395
582.3034, 935.5728
582.7855, 941.9893
583.2676, 949.2358
583.7498, 955.9980
584.2319, 960.4128
584.7140, 958.1253
585.1961, 948.0230
585.6782, 936.5416
586.1603, 932.8378
586.6425, 937.3518
587.1246, 939.6274
587.6067, 937.8319
588.0888, 937.1080
588.5709, 940.6812
589.0530, 946.2381
589.5352, 951.6268
590.0173, 957.1124
590.4994, 959.7661
590.9815, 953.9645
591.4636, 947.1655
591.9457, 949.7338
592.4279, 960.6925
592.9100, 971.6877
593.3921, 978.1639
593.8742, 981.1535
594.3563, 983.0923
594.8384, 983.7429
595.3206, 983.8611
595.8027, 981.6086
596.2848, 980.6345
596.7669, 984.0916
597.2490, 989.7690
597.7311, 992.8357
598.2133, 990.8305
598.6954, 988.0714
599.1775, 988.0418
599.6596, 990.2238
600.1417, 992.6730
600.6238, 995.0873
601.1060, 1001.124
601.5881, 1014.845
602.0702, 1034.189
602.5523, 1046.286
603.0344, 1046.043
603.5165, 1045.295
603.9987, 1044.447
604.4808, 1043.521
604.9629, 1040.385
605.4450, 1036.859
605.9271, 1039.219
606.4092, 1053.706
606.8914, 1071.732
607.3735, 1080.776
607.8556, 1081.650
608.3377, 1080.519
608.8198, 1078.382
609.3019, 1076.483
609.7841, 1076.212
610.2662, 1077.579
610.7483, 1078.151
611.2304, 1076.232
611.7125, 1075.758
612.1946, 1077.312
612.6768, 1080.944
613.1589, 1087.627
613.6410, 1096.805
614.1231, 1105.737
614.6052, 1112.675
615.0873, 1117.617
615.5695, 1120.905
616.0516, 1122.646
616.5337, 1119.185
617.0158, 1105.912
617.4979, 1093.168
617.9800, 1096.222
618.4622, 1116.660
618.9443, 1127.469
619.4264, 1119.017
619.9085, 1110.542
620.3906, 1108.225
620.8727, 1111.320
621.3549, 1122.259
621.8370, 1139.535
622.3191, 1150.989
622.8012, 1141.674
623.2833, 1116.940
623.7654, 1102.332
624.2476, 1099.830
624.7297, 1096.033
625.2118, 1084.092
625.6939, 1070.695
626.1760, 1066.151
626.6581, 1070.726
627.1403, 1074.511
627.6224, 1076.214
628.1045, 1076.773
628.5866, 1076.733
629.0687, 1075.887
629.5508, 1073.538
630.0330, 1069.596
630.5151, 1065.326
630.9972, 1062.697
631.4793, 1061.252
631.9614, 1056.237
632.4435, 1046.089
632.9257, 1038.177
633.4078, 1037.379
633.8899, 1038.729
634.3720, 1034.960
634.8541, 1025.682
635.3362, 1015.750
635.8184, 1005.081
636.3005, 994.9944
636.7826, 984.4412
637.2647, 975.4843
637.7468, 973.2414
638.2289, 978.9548
638.7111, 985.8958
639.1932, 986.7711
639.6753, 981.6607
640.1574, 970.0348
640.6395, 948.7231
641.1216, 930.7676
641.6038, 920.3828
642.0859, 917.1857
642.5680, 922.7007
643.0501, 938.8829
643.5322, 948.1708
644.0143, 943.4654
644.4965, 934.3047
644.9786, 925.5911
645.4607, 917.1731
645.9428, 906.7032
646.4249, 893.7798
646.9070, 883.2513
647.3892, 882.7794
647.8713, 891.1732
648.3534, 894.0280
648.8355, 890.3395
649.3176, 884.3559
649.7997, 875.4711
650.2819, 867.0042
650.7640, 865.7177
651.2461, 873.2194
651.7282, 874.0032
652.2103, 857.5516
652.6924, 841.6871
653.1746, 838.0557
653.6567, 841.8898
654.1388, 845.2774
654.6209, 845.4803
655.1030, 842.7677
655.5851, 836.1291
656.0673, 826.5133
656.5494, 819.7288
657.0315, 815.7456
657.5136, 815.1351
657.9957, 820.1230
658.4778, 826.5428
658.9600, 828.8253
659.4421, 827.1365
659.9242, 821.4232
660.4063, 804.6406
660.8884, 791.4128
661.3705, 791.6598
661.8527, 798.5287
662.3348, 802.8200
662.8169, 802.0913
663.2990, 798.7101
663.7811, 794.4947
664.2632, 789.4955
664.7454, 783.1050
665.2275, 775.0533
665.7096, 770.0102
666.1917, 770.5828
666.6738, 772.8577
667.1559, 771.0765
667.6381, 764.1494
668.1202, 763.5403
668.6023, 778.2361
669.0844, 788.2161
669.5665, 784.7021
670.0486, 774.8035
670.5308, 764.0218
671.0129, 754.6205
671.4950, 750.6250
671.9771, 757.9054
672.4592, 770.0762
672.9413, 775.6066
673.4235, 774.8207
673.9056, 770.0530
674.3877, 760.8643
674.8698, 753.2092
675.3519, 754.4910
675.8340, 764.4673
676.3162, 767.1197
676.7983, 753.8359
677.2804, 744.5286
677.7625, 744.3444
678.2446, 746.9396
678.7267, 746.0078
679.2089, 742.5822
679.6910, 743.9483
680.1731, 759.2045
680.6552, 772.8431
681.1373, 760.0840
681.6194, 731.6757
682.1016, 721.5022
682.5837, 735.8085
683.0658, 751.4434
683.5479, 748.6337
684.0300, 732.1745
684.5121, 726.6092
684.9943, 739.6073
685.4764, 747.8377
685.9585, 746.4401
686.4406, 742.0999
686.9227, 737.9486
687.4048, 733.6282
687.8870, 727.0632
688.3691, 714.9595
688.8512, 706.9791
689.3333, 713.0207
689.8154, 724.8054
690.2975, 731.2749
690.7797, 731.7457
691.2618, 730.4588
691.7439, 729.8307
692.2260, 729.2580
692.7081, 726.6796
693.1902, 721.0998
693.6724, 720.2813
694.1545, 726.7642
694.6366, 734.2457
695.1187, 740.6234
695.6008, 745.3762
696.0829, 747.6223
696.5651, 747.2274
697.0472, 744.5970
697.5293, 735.8994
698.0114, 728.5775
698.4935, 729.9864
698.9756, 736.5958
699.4578, 740.7156
699.9399, 739.6503
700.4220, 737.0093
700.9041, 736.0022
701.3862, 736.8530
701.8683, 742.7801
702.3505, 754.9044
702.8326, 759.8528
703.3147, 749.4731
703.7968, 734.6705
704.2789, 730.7033
704.7611, 739.3928
705.2432, 747.3802
705.7253, 757.6374
706.2075, 763.6119
706.6896, 762.8728
707.1717, 757.3552
707.6538, 745.5899
708.1359, 729.7291
708.6180, 720.3148
709.1002, 727.9578
709.5823, 741.4539
710.0644, 746.6894
710.5465, 745.3879
711.0286, 742.5629
711.5107, 739.3930
711.9929, 737.1008
712.4750, 736.7802
712.9571, 738.1940
713.4392, 740.2240
713.9213, 743.8486
714.4034, 745.7892
714.8856, 743.0446
715.3677, 741.1288
715.8498, 745.8105
716.3319, 753.5871
716.8140, 755.2308
717.2961, 746.5798
717.7783, 736.7590
718.2604, 726.5386
718.7425, 719.8603
719.2246, 722.7725
719.7067, 733.2861
720.1888, 745.3586
720.6710, 756.1398
721.1531, 763.5027
721.6352, 761.4761
722.1173, 751.0485
722.5994, 750.3465
723.0815, 763.1553
723.5637, 771.0117
724.0458, 763.0638
724.5279, 747.8503
725.0100, 739.6660
725.4921, 740.4619
725.9742, 741.1091
726.4564, 742.2981
726.9385, 742.4993
727.4206, 740.3598
727.9027, 737.3902
728.3848, 734.5380
728.8669, 732.3673
729.3491, 732.7359
729.8312, 738.3745
730.3133, 745.9673
730.7954, 752.0909
731.2775, 756.4750
731.7596, 757.5869
732.2418, 755.1674
732.7239, 752.3264
733.2060, 751.9464
733.6881, 753.2626
734.1702, 752.1799
734.6523, 747.4396
735.1345, 743.8896
735.6166, 741.7798
736.0987, 741.4379
736.5808, 745.3901
737.0629, 750.9366
737.5450, 750.6761
738.0272, 738.5252
738.5093, 732.3411
738.9914, 744.2977
739.4735, 759.2231
739.9556, 763.3184
740.4377, 759.9609
740.9199, 759.4916
741.4020, 766.0623
741.8841, 774.2496
742.3662, 778.7756
742.8483, 779.7518
743.3304, 775.6631
743.8126, 766.5103
744.2947, 761.7537
744.7768, 765.6252
745.2589, 773.6979
745.7410, 780.9044
746.2231, 787.5590
746.7053, 788.9259
747.1874, 779.3699
747.6695, 772.4471
748.1516, 772.1526
748.6337, 774.1400
749.1158, 774.0449
749.5980, 772.6782
750.0801, 775.1906
750.5622, 786.2859
751.0443, 797.5812
751.5264, 805.1305
752.0085, 808.9811
752.4907, 806.4342
752.9728, 799.5948
753.4549, 797.6180
753.9370, 806.3859
754.4191, 818.9904
754.9012, 822.9080
755.3834, 818.6901
755.8655, 814.6428
756.3476, 810.9817
756.8297, 808.9993
757.3118, 808.2809
757.7939, 811.0798
758.2761, 823.1299
758.7582, 849.8053
759.2403, 864.9024
759.7224, 860.5225
760.2045, 855.0214
760.6866, 850.2556
761.1688, 849.1735
761.6509, 857.2628
762.1330, 873.4492
762.6151, 886.2013
763.0972, 887.7131
763.5793, 885.7675
764.0615, 885.6031
764.5436, 886.9709
765.0257, 890.2416
765.5078, 894.9489
765.9899, 898.6035
766.4720, 899.3846
766.9542, 898.3232
767.4363, 896.0552
767.9184, 892.4478
768.4005, 897.7286
768.8826, 915.8585
769.3647, 931.6719
769.8469, 935.8519
770.3290, 932.6539
770.8111, 930.7936
771.2932, 929.3888
771.7753, 932.0588
772.2574, 942.9400
772.7396, 952.8499
773.2217, 959.1174
773.7038, 962.3280
774.1859, 961.3505
774.6680, 956.9306
775.1501, 956.3990
775.6323, 966.2518
776.1144, 978.8282
776.5965, 988.0294
777.0786, 995.2029
777.5607, 1001.041
778.0428, 1006.793
778.5250, 1018.189
779.0071, 1040.333
779.4892, 1066.708
779.9713, 1082.178
780.4534, 1087.074
780.9355, 1093.282
781.4177, 1102.359
781.8998, 1110.867
782.3819, 1116.009
782.8640, 1120.397
783.3461, 1130.333
783.8282, 1150.371
784.3104, 1160.974
784.7925, 1152.548
785.2746, 1146.595
785.7567, 1150.223
786.2388, 1158.743
786.7209, 1169.993
787.2031, 1182.497
787.6852, 1187.430
788.1673, 1169.098
788.6494, 1155.258
789.1315, 1169.599
789.6136, 1196.771
790.0958, 1217.518
790.5779, 1228.696
791.0600, 1233.047
791.5421, 1231.343
792.0242, 1227.956
792.5063, 1232.107
792.9885, 1241.484
793.4706, 1241.246
793.9527, 1229.824
794.4348, 1218.767
794.9169, 1212.827
795.3990, 1212.895
795.8812, 1222.329
796.3633, 1243.989
796.8454, 1251.879
797.3275, 1235.738
797.8096, 1222.419
798.2917, 1221.453
798.7739, 1224.424
799.2560, 1225.337
799.7381, 1224.193
800.2202, 1222.340
800.7023, 1224.042
801.1844, 1219.845
801.6666, 1201.874
802.1487, 1180.246
802.6308, 1162.166
803.1129, 1148.738
803.5950, 1140.604
804.0771, 1138.467
804.5593, 1136.361
805.0414, 1128.476
805.5235, 1116.498
806.0056, 1103.490
806.4877, 1089.529
806.9698, 1073.022
807.4520, 1053.340
807.9341, 1034.946
808.4162, 1024.113
808.8983, 1018.763
809.3804, 1003.484
809.8625, 976.1831
810.3447, 948.0715
810.8268, 919.0893
811.3089, 894.1236
811.7910, 878.3105
812.2731, 869.3054
812.7552, 857.6926
813.2374, 841.1541
813.7195, 826.1082
814.2016, 812.9761
814.6837, 801.0689
815.1658, 792.9991
815.6479, 784.6256
816.1301, 766.8420
816.6122, 738.4678
817.0943, 719.4577
817.5764, 727.2518
818.0585, 740.0452
818.5406, 743.2033
819.0228, 739.0404
819.5049, 730.2551
819.9870, 718.3710
820.4691, 705.9340
820.9512, 694.1146
821.4333, 684.5640
821.9155, 681.8402
822.3976, 683.9781
822.8797, 681.8548
823.3618, 674.7164
823.8439, 669.2171
824.3260, 669.1273
824.8082, 669.8367
825.2903, 662.9566
825.7724, 647.6997
826.2545, 639.0416
826.7366, 639.2815
827.2188, 640.4575
827.7009, 641.5018
828.1830, 641.4421
828.6651, 638.6320
829.1472, 633.5537
829.6293, 629.9109
830.1115, 628.4631
830.5936, 627.4200
831.0757, 628.6334
831.5578, 628.1308
832.0399, 620.6141
832.5220, 610.4641
833.0042, 605.8528
833.4863, 608.9603
833.9684, 614.3738
834.4505, 622.9571
834.9326, 628.9423
835.4147, 625.0512
835.8969, 615.4275
836.3790, 605.8729
836.8611, 598.6401
837.3432, 597.2675
837.8253, 606.3984
838.3074, 617.8142
838.7896, 614.9308
839.2717, 601.3416
839.7538, 593.1355
840.2359, 592.1351
840.7180, 594.9409
841.2001, 600.5897
841.6823, 604.8541
842.1644, 598.8251
842.6465, 581.4796
843.1286, 576.0059
843.6107, 587.4877
844.0928, 595.3975
844.5750, 591.8038
845.0571, 585.5771
845.5392, 586.2576
846.0213, 592.5403
846.5034, 592.9741
846.9855, 579.3459
847.4677, 572.3708
847.9498, 579.4799
848.4319, 586.9611
848.9140, 588.3393
849.3961, 584.8454
849.8782, 577.3239
850.3604, 565.4216
850.8425, 558.8464
851.3246, 567.2382
851.8067, 576.1301
852.2888, 575.8742
852.7709, 570.1279
853.2531, 562.2883
853.7352, 554.2731
854.2173, 549.6693
854.6994, 550.9310
855.1815, 555.2856
855.6636, 561.0886
856.1458, 567.0234
856.6279, 570.2569
857.1100, 570.7572
857.5921, 569.0760
858.0742, 565.4556
858.5563, 562.8273
859.0385, 565.5745
859.5206, 572.3575
860.0027, 575.9174
860.4848, 576.2339
860.9669, 573.2582
861.4490, 566.0059
861.9312, 559.6205
862.4133, 557.9536
862.8954, 560.1564
863.3775, 563.9038
863.8596, 570.8140
864.3417, 574.8597
864.8239, 576.7148
865.3060, 574.4580
865.7881, 561.9595
866.2702, 548.5966
866.7523, 548.0026
867.2344, 560.1591
867.7166, 566.5426
868.1987, 558.4803
868.6808, 554.4805
869.1629, 565.2437
869.6450, 575.7735
870.1271, 572.7720
870.6093, 560.9193
871.0914, 552.0333
871.5735, 549.2684
872.0556, 549.3152
872.5377, 552.4108
873.0198, 555.7725
873.5020, 558.4058
873.9841, 559.1158
874.4662, 554.3749
874.9483, 545.0404
875.4304, 538.5103
875.9125, 540.2072
876.3947, 545.6129
876.8768, 550.5580
877.3589, 554.3715
877.8410, 555.4619
878.3231, 553.8710
878.8052, 549.6554
879.2874, 542.8470
879.7695, 537.6769
880.2516, 541.1343
880.7337, 550.5668
881.2158, 552.2070
881.6979, 546.1713
882.1801, 542.5231
882.6622, 543.8740
883.1443, 544.6031
883.6264, 539.7823
884.1085, 532.3681
884.5906, 531.3322
885.0728, 538.7200
885.5549, 543.5735
886.0370, 545.9912
886.5191, 545.0503
887.0012, 538.3552
887.4833, 530.4855
887.9655, 526.5519
888.4476, 526.5416
888.9297, 528.6358
889.4118, 536.5465
889.8939, 541.1160
890.3760, 540.2063
890.8582, 537.3685
891.3403, 534.4385
891.8224, 530.9966
892.3045, 524.9666
892.7866, 514.9611
893.2687, 510.5457
893.7509, 518.2222
894.2330, 527.0247
894.7151, 534.5705
895.1972, 538.7911
895.6793, 534.8982
896.1614, 525.5903
896.6436, 521.1935
897.1257, 527.2629
897.6078, 533.9849
898.0899, 533.9173
898.5720, 532.1117
899.0541, 536.0713
899.5363, 541.7782
900.0184, 538.0851
900.5005, 523.8694
900.9826, 513.2628
901.4647, 517.9901
901.9468, 530.2766
902.4290, 543.5493
902.9111, 555.0574
903.3932, 556.8660
903.8753, 549.7053
904.3574, 541.1685
904.8395, 534.7633
905.3217, 531.0114
905.8038, 531.6572
906.2859, 535.2854
906.7680, 536.2297
907.2501, 534.6820
907.7322, 532.3346
908.2144, 529.5024
908.6965, 528.6342
909.1786, 532.3000
909.6607, 536.8529
910.1428, 531.0841
910.6249, 513.3007
911.1071, 508.1351
911.5892, 519.0757
912.0713, 528.1177
912.5534, 528.6510
913.0355, 525.2949
913.5176, 522.3278
913.9998, 519.9301
914.4819, 519.7865
914.9640, 523.2679
915.4461, 525.5865
915.9282, 526.3563
916.4103, 525.9261
916.8925, 523.2399
917.3746, 520.2938
917.8567, 521.5674
918.3388, 528.4391
918.8209, 527.6987
919.3030, 507.1126
919.7852, 496.1314
920.2673, 507.6881
920.7494, 522.5458
921.2315, 528.8608
921.7136, 528.6953
922.1957, 526.9808
922.6779, 523.3759
923.1600, 522.3682
923.6421, 529.2470
924.1242, 533.7574
924.6063, 527.8863
925.0884, 519.8518
925.5706, 519.7941
926.0527, 526.0176
926.5348, 527.8044
927.0169, 519.1119
927.4990, 512.5391
927.9811, 517.9769
928.4633, 524.4855
928.9454, 521.6436
929.4275, 514.4460
929.9096, 511.5250
930.3917, 514.3079
930.8738, 518.9371
931.3560, 524.8943
931.8381, 529.1142
932.3202, 528.6270
932.8023, 525.0606
933.2844, 517.8433
933.7665, 509.8228
934.2487, 509.1590
934.7308, 517.9151
935.2129, 525.9909
935.6950, 523.6337
936.1771, 516.6786
936.6592, 511.9252
937.1414, 509.7053
937.6235, 513.0641
938.1056, 520.4366
938.5877, 522.6970
939.0698, 515.2759
939.5519, 505.9912
940.0341, 505.7083
940.5162, 510.7427
940.9983, 510.1760
941.4804, 505.5388
941.9625, 505.4494
942.4446, 511.2013
942.9268, 514.4355
943.4089, 509.1710
943.8910, 500.9767
944.3731, 500.0646
944.8552, 505.6245
945.3373, 513.4573
945.8195, 523.3087
946.3016, 527.2965
946.7837, 522.9109
947.2658, 515.2910
947.7479, 508.3349
948.2300, 502.8293
948.7122, 501.4317
949.1943, 504.2598
949.6764, 509.2092
950.1585, 517.1077
950.6406, 518.9197
951.1228, 509.4878
951.6049, 499.3383
952.0870, 500.6652
952.5692, 511.1605
953.0513, 517.3340
953.5334, 518.6712
954.0155, 517.9761
954.4976, 514.9965
954.9797, 511.3305
955.4619, 507.1248
955.9440, 503.6927
956.4261, 503.2145
956.9082, 505.5828
957.3903, 506.0971
957.8724, 502.8881
958.3546, 503.2071
958.8367, 511.1136
959.3188, 516.7968
959.8009, 513.9743
960.2830, 506.2889
960.7651, 499.2026
961.2473, 492.1319
961.7294, 491.3819
962.2115, 503.7802
962.6936, 510.0492
963.1757, 501.6387
963.6578, 492.8340
964.1400, 492.5578
964.6221, 498.4210
965.1042, 506.2191
965.5863, 517.8447
966.0684, 523.6819
966.5505, 517.4509
967.0327, 514.0212
967.5148, 517.8296
967.9969, 523.9311
968.4790, 530.6847
968.9611, 536.6994
969.4432, 538.3137
969.9254, 534.6674
970.4075, 528.8785
970.8896, 515.5259
971.3717, 507.3579
971.8538, 513.1629
972.3359, 521.6825
972.8181, 523.5421
973.3002, 519.6539
973.7823, 514.3755
974.2644, 505.8039
974.7465, 502.2667
975.2286, 509.7914
975.7108, 516.9493
976.1929, 517.1035
976.6750, 516.0098
977.1571, 521.4120
977.6392, 531.4802
978.1213, 536.0778
978.6035, 530.9143
979.0856, 525.6512
979.5677, 521.5779
980.0498, 519.1426
980.5319, 517.8958
981.0140, 518.8686
981.4962, 524.6512
981.9783, 534.2194
982.4604, 541.6210
982.9425, 545.5587
983.4246, 546.7355
983.9067, 542.6063
984.3889, 538.7958
984.8710, 538.5358
985.3531, 540.8298
985.8352, 545.6567
986.3173, 552.0222
986.7994, 554.6046
987.2816, 549.3112
987.7637, 544.4341
988.2458, 543.0830
988.7279, 543.1735
989.2100, 544.3023
989.6921, 545.3802
990.1743, 545.0818
990.6564, 543.2834
991.1385, 540.4935
991.6206, 533.4483
992.1027, 531.2160
992.5848, 542.5324
993.0670, 555.2665
993.5491, 561.7772
994.0312, 562.9103
994.5133, 558.6068
994.9954, 550.2100
995.4775, 547.0948
995.9597, 556.8442
996.4418, 566.4264
996.9239, 569.1069
997.4060, 569.9210
997.8881, 572.8485
998.3702, 576.7075
998.8524, 579.3411
999.3345, 580.3294
999.8166, 579.9197
1000.299, 577.7848
1000.781, 574.9167
1001.263, 570.2172
1001.745, 566.4771
1002.227, 564.6705
1002.709, 566.0284
1003.191, 574.6896
1003.674, 590.0536
1004.156, 600.0811
1004.638, 595.1642
1005.120, 590.4465
1005.602, 593.3520
1006.084, 599.1013
1006.566, 605.9677
1007.048, 611.8741
1007.530, 613.7716
1008.013, 611.3989
1008.495, 607.8347
1008.977, 603.7028
1009.459, 599.5799
1009.941, 593.6714
1010.423, 589.8707
1010.905, 592.1224
1011.387, 598.3077
1011.870, 606.8185
1012.352, 616.4086
1012.834, 619.7562
1013.316, 608.1949
1013.798, 598.3679
1014.280, 598.0859
1014.762, 601.4385
1015.244, 605.3361
1015.726, 609.1749
1016.209, 612.0516
1016.691, 614.1424
1017.173, 618.1846
1017.655, 628.7938
1018.137, 635.9227
1018.619, 633.8526
1019.101, 629.1488
1019.583, 624.2188
1020.065, 620.7759
1020.548, 621.8802
1021.030, 627.1786
1021.512, 630.3156
1021.994, 625.3138
1022.476, 624.5710
1022.958, 637.2361
1023.440, 649.5721
1023.922, 653.1888
1024.405, 651.2012
1024.887, 647.2253
1025.369, 642.0399
1025.851, 637.2519
1026.333, 631.6451
1026.815, 629.2426
1027.297, 632.8226
1027.779, 637.7653
1028.261, 643.7030
1028.744, 648.2096
1029.226, 648.1493
1029.708, 643.8360
1030.190, 638.7433
1030.672, 631.5420
1031.154, 627.0906
1031.636, 626.4844
1032.118, 628.2986
1032.600, 631.9258
1033.083, 637.6581
1033.565, 648.7917
1034.047, 663.1321
1034.529, 668.4777
1035.011, 659.8244
1035.493, 650.6368
1035.975, 635.3890
1036.457, 627.8327
1036.940, 642.5353
1037.422, 658.8081
1037.904, 654.6396
1038.386, 635.4311
1038.868, 623.2162
1039.350, 619.1984
1039.832, 619.3189
1040.314, 626.4324
1040.797, 633.3676
1041.279, 638.7547
1041.761, 642.7766
1042.243, 645.5797
1042.725, 647.1464
1043.207, 647.7581
1043.689, 648.5279
1044.171, 643.0182
1044.653, 624.7504
1045.135, 614.6624
1045.618, 620.2184
1046.100, 630.5938
1046.582, 640.8712
1047.064, 647.9661
1047.546, 643.4467
1048.028, 625.1587
1048.510, 618.3981
1048.992, 626.4821
1049.475, 635.0821
1049.957, 642.6964
1050.439, 646.7673
1050.921, 644.9618
1051.403, 640.4350
1051.885, 638.6215
1052.367, 639.3267
1052.849, 638.3034
1053.332, 635.3983
1053.814, 631.8551
1054.296, 627.7044
1054.778, 623.4316
1055.260, 618.6655
1055.742, 617.5600
1056.224, 627.3355
1056.706, 644.1520
1057.188, 650.3290
1057.671, 646.0573
1058.153, 631.9768
1058.635, 608.5344
1059.117, 593.2830
1059.599, 593.2614
1060.081, 599.3333
1060.563, 602.9199
1061.045, 604.3191
1061.527, 603.4891
1062.010, 601.0749
1062.492, 600.2245
1062.974, 600.7336
1063.456, 599.5999
1063.938, 596.1147
1064.420, 593.3339
1064.902, 593.8813
1065.384, 595.1176
1065.867, 591.5892
1066.349, 586.4547
1066.831, 587.6569
1067.313, 593.0462
1067.795, 595.2395
1068.277, 593.2758
1068.759, 591.8184
1069.241, 593.6820
1069.724, 595.2018
1070.206, 590.9861
1070.688, 585.7698
1071.170, 586.5817
1071.652, 590.0687
1072.134, 589.7312
1072.616, 586.1036
1073.098, 584.2422
1073.580, 586.1069
1074.063, 588.7184
1074.545, 591.5919
1075.027, 592.7780
1075.509, 586.8609
1075.991, 581.7272
1076.473, 589.0178
1076.955, 603.0604
1077.437, 610.3106
1077.920, 607.8499
1078.402, 603.5915
1078.884, 600.0731
1079.366, 596.0403
1079.848, 587.1525
1080.330, 581.6293
1080.812, 590.1755
1081.294, 602.8195
1081.776, 602.9203
1082.259, 590.6870
1082.741, 584.9197
1083.223, 590.3508
1083.705, 599.0972
1084.187, 616.6037
1084.669, 629.4924
1085.151, 627.6896
1085.633, 623.0309
1086.115, 629.3577
1086.598, 642.2018
1087.080, 642.5314
1087.562, 622.7570
1088.044, 615.5180
1088.526, 625.9527
1089.008, 637.8158
1089.490, 649.3338
1089.972, 656.7620
1090.455, 656.2950
1090.937, 651.7396
1091.419, 650.5920
1091.901, 652.8711
1092.383, 655.9053
1092.865, 659.5268
1093.347, 666.0858
1093.829, 676.4398
1094.312, 685.5527
1094.794, 691.2646
1095.276, 691.3018
1095.758, 680.2479
1096.240, 664.4880
1096.722, 668.6379
1097.204, 688.6122
1097.686, 698.6530
1098.168, 698.0260
1098.651, 700.4113
1099.133, 709.7347
1099.615, 715.7933
1100.097, 709.7960
1100.579, 699.2999
1101.061, 692.9758
1101.543, 691.5239
1102.025, 699.3365
1102.507, 712.1704
1102.990, 720.2161
1103.472, 722.2207
1103.954, 721.3738
1104.436, 718.7429
1104.918, 718.2022
1105.400, 723.2235
1105.882, 731.1953
1106.364, 744.3983
1106.847, 755.7341
1107.329, 753.0802
1107.811, 742.5393
1108.293, 740.7072
1108.775, 751.1489
1109.257, 759.6553
1109.739, 759.9812
1110.221, 758.6920
1110.703, 755.3587
1111.186, 754.0743
1111.668, 760.6149
1112.150, 768.6624
1112.632, 767.8905
1113.114, 759.4445
1113.596, 757.3174
1114.078, 766.8591
1114.560, 773.9392
1115.042, 779.4966
1115.525, 780.5869
1116.007, 772.0367
1116.489, 765.7002
1116.971, 772.2840
1117.453, 786.0959
1117.935, 794.1899
1118.417, 796.3678
1118.899, 796.1277
1119.382, 792.8145
1119.864, 791.6573
1120.346, 793.6140
1120.828, 797.4442
1121.310, 803.1099
1121.792, 805.7057
1122.274, 797.4430
1122.756, 784.3951
1123.239, 786.4709
1123.721, 799.8539
1124.203, 807.8193
1124.685, 809.7860
1125.167, 809.3652
1125.649, 807.9465
1126.131, 806.9340
1126.613, 807.1365
1127.095, 808.8474
1127.578, 815.3719
1128.060, 821.1207
1128.542, 817.1002
1129.024, 807.7447
1129.506, 799.2469
1129.988, 793.1140
1130.470, 790.2031
1130.952, 790.8497
1131.434, 792.0339
1131.917, 791.0000
1132.399, 791.6785
1132.881, 799.3563
1133.363, 806.0522
1133.845, 806.9969
1134.327, 802.1792
1134.809, 788.4253
1135.291, 767.5534
1135.774, 756.8789
1136.256, 764.5708
1136.738, 770.7300
1137.220, 775.3410
1137.702, 777.5594
1138.184, 777.1137
1138.666, 773.9623
1139.148, 766.1782
1139.630, 757.8405
1140.113, 759.4793
1140.595, 771.3628
1141.077, 770.9709
1141.559, 756.7330
1142.041, 746.6933
1142.523, 743.3914
1143.005, 745.8776
1143.487, 754.0991
1143.969, 762.3046
1144.452, 764.7902
1144.934, 762.6160
1145.416, 756.7370
1145.898, 748.5193
1146.380, 740.9310
1146.862, 734.6718
1147.344, 731.9265
1147.826, 732.4276
1148.309, 732.9321
1148.791, 731.9310
1149.273, 729.2618
1149.755, 725.2637
1150.237, 719.0302
1150.719, 705.8826
1151.201, 693.2486
1151.683, 690.3077
1152.166, 694.2766
1152.648, 698.8926
1153.130, 702.9252
1153.612, 706.0690
1154.094, 709.5967
1154.576, 710.0319
1155.058, 706.8539
1155.540, 700.2881
1156.022, 684.9412
1156.505, 671.6187
1156.987, 671.4127
1157.469, 679.2961
1157.951, 681.6349
1158.433, 677.8214
1158.915, 673.6237
1159.397, 668.7402
1159.879, 665.7230
1160.361, 665.6360
1160.844, 661.6721
1161.326, 650.1225
1161.808, 637.2274
1162.290, 629.4204
1162.772, 626.5056
1163.254, 631.9463
1163.736, 641.0302
1164.218, 637.1869
1164.701, 622.9465
1165.183, 607.4089
1165.665, 594.1454
1166.147, 588.4369
1166.629, 593.3035
1167.111, 600.8788
1167.593, 607.2010
1168.075, 610.9039
1168.557, 611.2557
1169.040, 608.0651
1169.522, 598.5903
1170.004, 586.6486
1170.486, 578.7407
1170.968, 575.6190
1171.450, 574.0585
1171.932, 576.6164
1172.414, 574.7567
1172.896, 561.6131
1173.379, 552.2949
1173.861, 553.7850
1174.343, 556.3368
1174.825, 552.0197
1175.307, 544.9340
1175.789, 543.4875
1176.271, 547.3835
1176.753, 548.5757
1177.236, 546.8070
1177.718, 548.8853
1178.200, 555.4943
1178.682, 557.3809
1179.164, 551.2336
1179.646, 540.8669
1180.128, 528.0964
1180.610, 518.6257
1181.093, 525.8132
1181.575, 538.6789
1182.057, 535.8649
1182.539, 524.7979
1183.021, 520.9888
1183.503, 524.0342
1183.985, 526.0705
1184.467, 524.6150
1184.949, 520.2621
1185.432, 507.8708
1185.914, 500.4436
1186.396, 509.3900
1186.878, 517.8185
1187.360, 511.8494
1187.842, 502.8326
1188.324, 508.1776
1188.806, 521.2474
1189.288, 516.9082
1189.771, 489.5664
1190.253, 478.3467
1190.735, 488.4277
1191.217, 495.5443
1191.699, 495.3303
1192.181, 496.1841
1192.663, 502.6995
1193.145, 505.8911
1193.628, 494.5403
1194.110, 477.5601
1194.592, 476.6819
1195.074, 486.1622
1195.556, 489.7332
1196.038, 488.0049
1196.520, 483.5105
1197.002, 478.1818
1197.484, 476.8417
1197.967, 481.4208
1198.449, 486.8982
1198.931, 493.4524
1199.413, 495.1487
1199.895, 483.5719
1200.377, 470.8953
1200.859, 465.5544
1201.341, 465.4254
1201.823, 470.8755
1202.306, 478.8631
1202.788, 474.3462
1203.270, 450.7632
1203.752, 441.1722
1204.234, 451.7405
1204.716, 459.4718
1205.198, 459.9754
1205.680, 460.0549
1206.163, 463.1651
1206.645, 466.2263
1207.127, 465.8490
1207.609, 463.1451
1208.091, 460.7742
1208.573, 458.4825
1209.055, 454.8404
1209.537, 450.5034
1210.020, 446.8251
1210.502, 444.6819
1210.984, 447.3169
1211.466, 455.8334
1211.948, 461.1533
1212.430, 454.4561
1212.912, 446.6265
1213.394, 442.9390
1213.876, 441.8511
1214.359, 445.2380
1214.841, 448.3167
1215.323, 443.2253
1215.805, 432.8987
1216.287, 429.7206
1216.769, 434.8210
1217.251, 441.6148
1217.733, 452.3333
1218.215, 456.5616
1218.698, 451.3716
1219.180, 447.2023
1219.662, 448.5145
1220.144, 451.2451
1220.626, 452.0880
1221.108, 450.2011
1221.590, 440.3797
1222.072, 428.3107
1222.555, 429.7000
1223.037, 440.0021
1223.519, 449.9661
1224.001, 457.2609
1224.483, 460.6280
1224.965, 459.7082
1225.447, 454.5811
1225.929, 441.7715
1226.411, 431.6427
1226.894, 427.2549
1227.376, 428.3267
1227.858, 441.1404
1228.340, 453.3076
1228.822, 452.7453
1229.304, 444.7909
1229.786, 438.5942
1230.268, 434.2246
1230.750, 434.6335
1231.233, 440.6650
1231.715, 443.6494
1232.197, 442.9376
1232.679, 440.5584
1233.161, 437.2161
1233.643, 436.1205
1234.125, 439.6034
1234.607, 442.3553
1235.090, 435.3868
1235.572, 426.4526
1236.054, 426.3371
1236.536, 430.3609
1237.018, 433.7457
1237.500, 435.7006
1237.982, 434.9955
1238.464, 432.4232
1238.947, 432.7766
1239.429, 439.2751
1239.911, 441.5811
1240.393, 435.2193
1240.875, 429.2094
1241.357, 424.7683
1241.839, 421.0146
1242.321, 417.2888
1242.803, 414.7658
1243.286, 415.0011
1243.768, 416.8255
1244.250, 416.6954
1244.732, 415.2928
1245.214, 416.0756
1245.696, 418.8021
1246.178, 423.1072
1246.660, 428.1512
1247.142, 431.9020
1247.625, 433.5004
1248.107, 431.5364
1248.589, 421.8393
1249.071, 415.9396
1249.553, 424.4151
1250.035, 433.5552
1250.517, 437.1360
1250.999, 435.9335
1251.482, 426.4561
1251.964, 415.4092
1252.446, 415.5856
1252.928, 425.8879
1253.410, 429.8008
1253.892, 426.3143
1254.374, 424.5349
1254.856, 424.9461
1255.339, 423.6748
1255.821, 419.9821
1256.303, 419.1288
1256.785, 424.0176
1257.267, 427.8902
1257.749, 421.4800
1258.231, 414.1316
1258.713, 419.0755
1259.195, 426.6992
1259.677, 426.5395
1260.160, 421.8798
1260.642, 416.6393
1261.124, 412.4120
1261.606, 413.1495
1262.088, 421.1529
1262.570, 420.7654
1263.052, 403.8643
1263.534, 397.7504
1264.017, 407.7535
1264.499, 418.0927
1264.981, 423.8817
1265.463, 426.3123
1265.945, 425.9391
1266.427, 424.5952
1266.909, 424.7404
1267.391, 426.1977
1267.874, 430.1975
1268.356, 434.3130
1268.838, 434.6030
1269.320, 430.8485
1269.802, 421.2664
1270.284, 407.9699
1270.766, 399.6607
##END=



