##NAMES=Stellerite
##RRUFFID=R040174
##IDEAL CHEMISTRY=Ca_4_(Si_28_Al_8_)O_72_&#183;28H_2_O
##LOCALITY=unknown
##OWNER=RRUFF
##SOURCE=University of Arizona Mineral Museum
##DESCRIPTION=Parallel aggregates of thin tabular brown crystals
##STATUS=The identification of this mineral has been confirmed by X-ray diffraction and chemical analysis
##URL=rruff.info/R040174
##MEASURED CHEMISTRY=(Ca_3.89_Na_0.06_K_0.05_)_Σ=4_(Si_28.11_Al_7.89_)O_72_·15.18H_2_O; H_2_O estimated by difference
134.2341, 1944.080
134.7162, 2030.997
135.1983, 2127.658
135.6804, 2219.971
136.1626, 2307.306
136.6447, 2389.703
137.1268, 2466.318
137.6089, 2535.864
138.0910, 2602.118
138.5731, 2668.844
139.0553, 2741.336
139.5374, 2791.772
140.0195, 2811.528
140.5016, 2808.979
140.9837, 2814.816
141.4658, 2828.979
141.9480, 2851.710
142.4301, 2885.435
142.9122, 2939.990
143.3943, 2984.127
143.8764, 3011.019
144.3585, 3020.897
144.8407, 3036.603
145.3228, 3059.078
145.8049, 3086.591
146.2870, 3117.255
146.7691, 3148.256
147.2512, 3185.582
147.7334, 3231.821
148.2155, 3290.311
148.6976, 3344.712
149.1797, 3393.774
149.6618, 3439.218
150.1439, 3482.902
150.6261, 3531.554
151.1082, 3571.901
151.5903, 3597.993
152.0724, 3600.297
152.5545, 3609.506
153.0366, 3636.430
153.5188, 3671.347
154.0009, 3695.048
154.4830, 3703.088
154.9651, 3700.875
155.4472, 3690.728
155.9293, 3671.461
156.4115, 3646.581
156.8936, 3614.502
157.3757, 3576.692
157.8578, 3537.834
158.3399, 3493.876
158.8221, 3452.478
159.3042, 3418.201
159.7863, 3396.669
160.2684, 3378.025
160.7505, 3361.650
161.2326, 3346.691
161.7148, 3327.649
162.1969, 3299.074
162.6790, 3266.359
163.1611, 3235.086
163.6432, 3208.653
164.1253, 3182.568
164.6075, 3152.898
165.0896, 3119.448
165.5717, 3089.528
166.0538, 3070.618
166.5359, 3057.213
167.0180, 3041.387
167.5002, 3016.007
167.9823, 2989.235
168.4644, 2966.964
168.9465, 2949.765
169.4286, 2936.089
169.9107, 2930.006
170.3929, 2926.892
170.8750, 2916.825
171.3571, 2885.965
171.8392, 2849.487
172.3213, 2825.371
172.8034, 2819.031
173.2856, 2815.410
173.7677, 2799.804
174.2498, 2774.883
174.7319, 2750.135
175.2140, 2730.486
175.6961, 2714.776
176.1783, 2702.117
176.6604, 2694.135
177.1425, 2686.215
177.6246, 2671.791
178.1067, 2651.783
178.5888, 2631.166
179.0710, 2613.697
179.5531, 2598.547
180.0352, 2584.296
180.5173, 2571.050
180.9994, 2558.245
181.4815, 2543.787
181.9637, 2527.710
182.4458, 2514.983
182.9279, 2515.196
183.4100, 2523.698
183.8921, 2522.459
184.3742, 2501.726
184.8564, 2469.956
185.3385, 2446.707
185.8206, 2432.042
186.3027, 2422.692
186.7848, 2417.044
187.2669, 2414.596
187.7491, 2411.352
188.2312, 2405.839
188.7133, 2398.474
189.1954, 2390.509
189.6775, 2381.947
190.1596, 2372.994
190.6418, 2363.209
191.1239, 2352.688
191.6060, 2343.397
192.0881, 2339.045
192.5702, 2338.234
193.0524, 2326.702
193.5345, 2301.899
194.0166, 2273.106
194.4987, 2255.091
194.9808, 2248.376
195.4629, 2244.570
195.9451, 2239.686
196.4272, 2233.732
196.9093, 2231.082
197.3914, 2232.653
197.8735, 2236.303
198.3556, 2237.645
198.8378, 2236.207
199.3199, 2235.430
199.8020, 2239.949
200.2841, 2250.767
200.7662, 2250.182
201.2483, 2234.017
201.7305, 2208.790
202.2126, 2190.103
202.6947, 2178.691
203.1768, 2171.076
203.6589, 2165.608
204.1410, 2162.479
204.6232, 2160.485
205.1053, 2159.578
205.5874, 2159.716
206.0695, 2162.085
206.5516, 2168.859
207.0337, 2172.152
207.5159, 2163.375
207.9980, 2138.154
208.4801, 2123.145
208.9622, 2124.745
209.4443, 2138.992
209.9264, 2146.057
210.4086, 2143.683
210.8907, 2138.643
211.3728, 2136.617
211.8549, 2139.247
212.3370, 2138.804
212.8191, 2132.164
213.3013, 2120.770
213.7834, 2117.765
214.2655, 2127.890
214.7476, 2138.792
215.2297, 2137.021
215.7118, 2113.767
216.1940, 2103.065
216.6761, 2115.534
217.1582, 2149.698
217.6403, 2172.035
218.1224, 2181.758
218.6045, 2180.432
219.0867, 2166.227
219.5688, 2129.870
220.0509, 2103.010
220.5330, 2094.328
221.0151, 2104.086
221.4972, 2114.279
221.9794, 2127.458
222.4615, 2138.335
222.9436, 2140.129
223.4257, 2126.816
223.9078, 2116.906
224.3899, 2115.876
224.8721, 2124.662
225.3542, 2129.705
225.8363, 2129.725
226.3184, 2127.266
226.8005, 2125.029
227.2827, 2122.330
227.7648, 2121.214
228.2469, 2122.307
228.7290, 2125.760
229.2111, 2130.414
229.6932, 2137.581
230.1754, 2144.831
230.6575, 2149.216
231.1396, 2150.823
231.6217, 2149.176
232.1038, 2142.629
232.5859, 2129.137
233.0681, 2121.632
233.5502, 2120.155
234.0323, 2124.597
234.5144, 2136.263
234.9965, 2161.809
235.4786, 2183.172
235.9608, 2194.488
236.4429, 2193.830
236.9250, 2191.537
237.4071, 2187.384
237.8892, 2181.739
238.3713, 2174.589
238.8535, 2163.103
239.3356, 2154.886
239.8177, 2152.955
240.2998, 2159.119
240.7819, 2164.948
241.2640, 2171.938
241.7462, 2177.823
242.2283, 2177.688
242.7104, 2165.403
243.1925, 2157.226
243.6746, 2159.388
244.1567, 2175.399
244.6389, 2190.403
245.1210, 2206.194
245.6031, 2219.913
246.0852, 2225.028
246.5673, 2214.541
247.0494, 2207.455
247.5316, 2212.234
248.0137, 2234.943
248.4958, 2248.429
248.9779, 2248.179
249.4600, 2241.162
249.9421, 2240.993
250.4243, 2252.635
250.9064, 2262.202
251.3885, 2263.587
251.8706, 2252.952
252.3527, 2247.178
252.8348, 2248.187
253.3170, 2252.853
253.7991, 2255.360
254.2812, 2255.124
254.7633, 2253.791
255.2454, 2251.659
255.7275, 2248.238
256.2097, 2245.675
256.6918, 2243.130
257.1739, 2242.043
257.6560, 2245.030
258.1381, 2252.327
258.6202, 2263.362
259.1024, 2280.261
259.5845, 2306.825
260.0666, 2321.895
260.5487, 2320.887
261.0308, 2311.823
261.5129, 2309.330
261.9951, 2315.083
262.4772, 2323.495
262.9593, 2332.858
263.4414, 2343.693
263.9235, 2353.204
264.4056, 2360.864
264.8878, 2367.805
265.3699, 2377.436
265.8520, 2392.481
266.3341, 2402.574
266.8162, 2400.585
267.2983, 2382.762
267.7805, 2378.329
268.2626, 2391.860
268.7447, 2413.778
269.2268, 2427.049
269.7089, 2429.198
270.1910, 2431.564
270.6732, 2439.684
271.1553, 2454.589
271.6374, 2463.813
272.1195, 2465.113
272.6016, 2464.032
273.0837, 2470.194
273.5659, 2485.048
274.0480, 2499.848
274.5301, 2512.090
275.0122, 2521.744
275.4943, 2526.788
275.9764, 2525.845
276.4586, 2522.877
276.9407, 2524.062
277.4228, 2529.824
277.9049, 2535.899
278.3870, 2541.138
278.8691, 2545.491
279.3513, 2546.778
279.8334, 2543.707
280.3155, 2540.896
280.7976, 2546.161
281.2798, 2559.876
281.7619, 2571.944
282.2440, 2578.616
282.7261, 2580.308
283.2082, 2580.225
283.6903, 2578.475
284.1725, 2574.546
284.6546, 2566.157
285.1367, 2553.623
285.6188, 2543.393
286.1009, 2539.068
286.5830, 2539.031
287.0652, 2535.898
287.5473, 2529.268
288.0294, 2522.106
288.5115, 2518.161
288.9936, 2517.000
289.4757, 2515.115
289.9579, 2510.410
290.4400, 2504.354
290.9221, 2500.764
291.4042, 2499.682
291.8863, 2500.544
292.3684, 2504.006
292.8506, 2509.333
293.3327, 2513.630
293.8148, 2517.579
294.2969, 2519.063
294.7790, 2512.781
295.2611, 2498.677
295.7433, 2482.328
296.2254, 2465.101
296.7075, 2448.878
297.1896, 2439.831
297.6717, 2442.537
298.1538, 2450.581
298.6360, 2453.332
299.1181, 2451.396
299.6002, 2451.613
300.0823, 2464.936
300.5644, 2483.521
301.0465, 2491.555
301.5287, 2478.932
302.0108, 2461.600
302.4929, 2459.065
302.9750, 2469.062
303.4571, 2478.740
303.9392, 2476.384
304.4214, 2469.430
304.9035, 2469.479
305.3856, 2485.845
305.8677, 2499.262
306.3498, 2486.924
306.8319, 2455.561
307.3141, 2428.627
307.7962, 2421.056
308.2783, 2424.420
308.7604, 2431.735
309.2425, 2444.202
309.7246, 2454.433
310.2068, 2457.527
310.6889, 2454.676
311.1710, 2449.081
311.6531, 2441.133
312.1352, 2431.731
312.6173, 2420.443
313.0995, 2405.196
313.5816, 2394.339
314.0637, 2394.699
314.5458, 2401.972
315.0279, 2408.021
315.5100, 2410.793
315.9922, 2410.722
316.4743, 2407.990
316.9564, 2402.584
317.4385, 2394.664
317.9206, 2378.113
318.4027, 2360.473
318.8849, 2352.278
319.3670, 2373.728
319.8491, 2389.828
320.3312, 2383.098
320.8133, 2347.027
321.2954, 2320.216
321.7776, 2312.454
322.2597, 2316.486
322.7418, 2324.581
323.2239, 2351.382
323.7060, 2366.425
324.1881, 2356.084
324.6703, 2317.103
325.1524, 2290.456
325.6345, 2289.295
326.1166, 2296.344
326.5987, 2297.626
327.0808, 2282.086
327.5630, 2273.797
328.0451, 2280.531
328.5272, 2301.133
329.0093, 2309.914
329.4914, 2296.671
329.9735, 2280.702
330.4557, 2275.553
330.9378, 2293.944
331.4199, 2300.379
331.9020, 2286.340
332.3841, 2257.290
332.8662, 2240.316
333.3484, 2240.298
333.8305, 2245.208
334.3126, 2248.988
334.7947, 2251.513
335.2768, 2252.918
335.7589, 2252.167
336.2411, 2250.875
336.7232, 2254.924
337.2053, 2267.824
337.6874, 2275.697
338.1695, 2267.708
338.6516, 2240.487
339.1338, 2228.996
339.6159, 2237.737
340.0980, 2256.285
340.5801, 2268.427
341.0622, 2274.160
341.5443, 2274.410
342.0265, 2267.185
342.5086, 2253.641
342.9907, 2243.729
343.4728, 2237.583
343.9549, 2234.891
344.4370, 2238.112
344.9192, 2246.279
345.4013, 2249.760
345.8834, 2240.779
346.3655, 2225.860
346.8476, 2223.709
347.3297, 2234.602
347.8119, 2249.632
348.2940, 2263.686
348.7761, 2275.584
349.2582, 2280.901
349.7403, 2274.554
350.2225, 2265.167
350.7046, 2264.691
351.1867, 2272.547
351.6688, 2284.339
352.1509, 2300.245
352.6331, 2317.214
353.1152, 2330.367
353.5973, 2337.468
354.0794, 2342.675
354.5615, 2350.206
355.0436, 2359.005
355.5258, 2365.854
356.0079, 2365.468
356.4900, 2364.308
356.9721, 2368.046
357.4542, 2378.088
357.9363, 2391.219
358.4185, 2410.049
358.9006, 2430.287
359.3827, 2444.514
359.8648, 2439.600
360.3469, 2436.042
360.8290, 2446.815
361.3112, 2475.380
361.7933, 2501.163
362.2754, 2512.104
362.7575, 2519.134
363.2396, 2534.193
363.7217, 2575.160
364.2039, 2609.032
364.6860, 2621.971
365.1681, 2613.605
365.6502, 2614.671
366.1323, 2634.003
366.6144, 2660.589
367.0966, 2686.997
367.5787, 2712.344
368.0608, 2737.885
368.5429, 2762.573
369.0250, 2787.274
369.5071, 2815.959
369.9893, 2851.590
370.4714, 2887.598
370.9535, 2921.302
371.4356, 2953.463
371.9177, 2980.021
372.3998, 2996.612
372.8820, 3009.864
373.3641, 3035.695
373.8462, 3079.131
374.3283, 3121.968
374.8104, 3157.294
375.2925, 3185.245
375.7747, 3204.652
376.2568, 3210.642
376.7389, 3218.055
377.2210, 3252.116
377.7031, 3315.223
378.1852, 3369.577
378.6674, 3398.958
379.1495, 3410.657
379.6316, 3439.144
380.1137, 3485.607
380.5958, 3535.935
381.0779, 3575.465
381.5601, 3606.958
382.0422, 3640.406
382.5243, 3677.242
383.0064, 3719.242
383.4885, 3772.728
383.9706, 3836.599
384.4528, 3898.971
384.9349, 3950.355
385.4170, 3995.801
385.8991, 4043.863
386.3812, 4095.419
386.8633, 4152.549
387.3455, 4222.228
387.8276, 4299.069
388.3097, 4371.982
388.7918, 4427.113
389.2739, 4480.551
389.7560, 4545.317
390.2382, 4622.889
390.7203, 4706.002
391.2024, 4791.875
391.6845, 4880.379
392.1666, 4972.535
392.6487, 5071.730
393.1309, 5171.197
393.6130, 5266.084
394.0951, 5357.311
394.5772, 5451.372
395.0593, 5549.967
395.5414, 5652.025
396.0236, 5755.950
396.5057, 5858.230
396.9878, 5966.813
397.4699, 6086.817
397.9520, 6213.867
398.4341, 6333.383
398.9163, 6451.754
399.3984, 6555.647
399.8805, 6635.769
400.3626, 6676.632
400.8447, 6741.395
401.3268, 6844.685
401.8090, 6960.998
402.2911, 7054.866
402.7732, 7116.824
403.2553, 7179.308
403.7374, 7255.201
404.2195, 7342.596
404.7017, 7405.621
405.1838, 7441.410
405.6659, 7460.810
406.1480, 7473.966
406.6301, 7481.086
407.1122, 7475.750
407.5944, 7457.515
408.0765, 7425.251
408.5586, 7371.349
409.0407, 7296.010
409.5228, 7219.915
410.0049, 7166.836
410.4871, 7124.536
410.9692, 7053.728
411.4513, 6945.648
411.9334, 6827.400
412.4155, 6731.067
412.8976, 6648.192
413.3798, 6558.397
413.8619, 6447.936
414.3440, 6326.718
414.8261, 6200.132
415.3082, 6067.968
415.7903, 5940.322
416.2725, 5824.408
416.7546, 5715.370
417.2367, 5604.971
417.7188, 5485.727
418.2009, 5373.131
418.6830, 5280.817
419.1652, 5202.977
419.6473, 5121.922
420.1294, 5028.745
420.6115, 4932.247
421.0937, 4834.275
421.5758, 4731.685
422.0579, 4639.253
422.5400, 4566.083
423.0221, 4502.542
423.5042, 4431.053
423.9864, 4334.924
424.4685, 4249.900
424.9506, 4187.870
425.4327, 4152.457
425.9148, 4103.184
426.3969, 4034.022
426.8791, 3957.929
427.3612, 3886.047
427.8433, 3818.693
428.3254, 3754.959
428.8075, 3694.484
429.2896, 3637.904
429.7718, 3591.190
430.2539, 3556.694
430.7360, 3519.259
431.2181, 3464.394
431.7002, 3394.323
432.1823, 3343.853
432.6645, 3317.546
433.1466, 3301.260
433.6287, 3279.379
434.1108, 3251.971
434.5929, 3218.610
435.0750, 3174.120
435.5572, 3126.006
436.0393, 3087.146
436.5214, 3057.363
437.0035, 3032.762
437.4856, 3011.891
437.9677, 2994.082
438.4499, 2979.255
438.9320, 2970.354
439.4141, 2959.372
439.8962, 2937.339
440.3783, 2908.549
440.8604, 2883.416
441.3426, 2868.706
441.8247, 2857.661
442.3068, 2847.721
442.7889, 2839.563
443.2710, 2827.811
443.7531, 2804.492
444.2353, 2779.438
444.7174, 2763.121
445.1995, 2767.921
445.6816, 2769.863
446.1637, 2762.019
446.6458, 2745.877
447.1280, 2736.661
447.6101, 2733.807
448.0922, 2738.551
448.5743, 2753.683
449.0564, 2787.679
449.5385, 2809.075
450.0207, 2813.297
450.5028, 2808.005
450.9849, 2806.522
451.4670, 2808.879
451.9491, 2815.014
452.4312, 2825.981
452.9134, 2841.109
453.3955, 2857.936
453.8776, 2877.592
454.3597, 2890.708
454.8418, 2880.087
455.3239, 2852.740
455.8061, 2839.553
456.2882, 2852.231
456.7703, 2874.500
457.2524, 2886.979
457.7345, 2889.917
458.2166, 2884.385
458.6988, 2858.855
459.1809, 2831.261
459.6630, 2826.598
460.1451, 2851.251
460.6272, 2869.495
461.1093, 2851.523
461.5915, 2816.177
462.0736, 2787.158
462.5557, 2779.810
463.0378, 2772.741
463.5199, 2756.048
464.0020, 2731.445
464.4842, 2711.954
464.9663, 2706.708
465.4484, 2702.694
465.9305, 2692.471
466.4126, 2667.438
466.8947, 2651.061
467.3769, 2651.241
467.8590, 2656.670
468.3411, 2647.783
468.8232, 2616.945
469.3053, 2586.827
469.7874, 2562.746
470.2696, 2544.541
470.7517, 2528.601
471.2338, 2514.024
471.7159, 2504.540
472.1980, 2505.414
472.6801, 2516.416
473.1623, 2526.549
473.6444, 2534.128
474.1265, 2540.563
474.6086, 2546.266
475.0907, 2552.005
475.5728, 2562.750
476.0550, 2584.853
476.5371, 2612.431
477.0192, 2633.617
477.5013, 2647.963
477.9834, 2666.538
478.4655, 2697.927
478.9477, 2738.821
479.4298, 2784.345
479.9119, 2832.399
480.3940, 2886.286
480.8761, 2948.156
481.3582, 3017.033
481.8404, 3089.467
482.3225, 3165.611
482.8046, 3243.964
483.2867, 3323.758
483.7688, 3403.503
484.2509, 3489.580
484.7331, 3587.347
485.2152, 3688.900
485.6973, 3788.431
486.1794, 3878.929
486.6615, 3980.261
487.1436, 4099.572
487.6258, 4232.523
488.1079, 4356.973
488.5900, 4466.982
489.0721, 4583.057
489.5542, 4721.384
490.0363, 4882.847
490.5185, 5028.298
491.0006, 5153.242
491.4827, 5269.769
491.9648, 5397.882
492.4470, 5532.814
492.9291, 5645.079
493.4112, 5715.263
493.8933, 5762.981
494.3754, 5821.289
494.8575, 5886.351
495.3397, 5930.587
495.8218, 5941.469
496.3039, 5919.766
496.7860, 5863.881
497.2681, 5768.826
497.7502, 5656.697
498.2324, 5538.352
498.7145, 5409.835
499.1966, 5263.424
499.6787, 5084.557
500.1608, 4901.231
500.6429, 4723.712
501.1251, 4551.278
501.6072, 4370.011
502.0893, 4158.672
502.5714, 3953.813
503.0535, 3771.298
503.5356, 3612.990
504.0178, 3475.105
504.4999, 3365.826
504.9820, 3270.746
505.4641, 3166.019
505.9462, 3050.129
506.4283, 2933.310
506.9105, 2814.305
507.3926, 2698.408
507.8747, 2610.149
508.3568, 2550.259
508.8389, 2499.729
509.3210, 2445.665
509.8032, 2389.087
510.2853, 2331.012
510.7674, 2270.487
511.2495, 2213.131
511.7316, 2163.269
512.2137, 2120.738
512.6959, 2085.900
513.1780, 2064.949
513.6601, 2046.200
514.1422, 2020.838
514.6243, 1990.042
515.1064, 1962.365
515.5886, 1945.503
516.0707, 1929.660
516.5528, 1908.453
517.0349, 1876.303
517.5170, 1848.393
517.9991, 1828.182
518.4813, 1812.376
518.9634, 1796.894
519.4455, 1779.617
519.9276, 1766.615
520.4097, 1761.228
520.8918, 1761.716
521.3740, 1755.045
521.8561, 1739.331
522.3382, 1722.694
522.8203, 1710.258
523.3024, 1701.918
523.7845, 1694.134
524.2667, 1686.658
524.7488, 1679.806
525.2309, 1676.306
525.7130, 1674.065
526.1951, 1665.325
526.6772, 1640.324
527.1594, 1614.148
527.6415, 1609.629
528.1236, 1621.610
528.6057, 1627.269
529.0878, 1603.927
529.5699, 1575.596
530.0521, 1562.878
530.5342, 1572.872
531.0163, 1577.505
531.4984, 1561.368
531.9805, 1538.097
532.4626, 1522.133
532.9448, 1520.560
533.4269, 1520.332
533.9090, 1521.054
534.3911, 1522.183
534.8732, 1521.234
535.3553, 1516.451
535.8375, 1512.947
536.3196, 1514.688
536.8017, 1522.322
537.2838, 1520.788
537.7659, 1508.169
538.2480, 1492.637
538.7302, 1482.352
539.2123, 1476.815
539.6944, 1473.309
540.1765, 1471.416
540.6586, 1470.965
541.1407, 1472.554
541.6229, 1475.572
542.1050, 1477.846
542.5871, 1478.747
543.0692, 1478.035
543.5513, 1474.069
544.0334, 1466.875
544.5156, 1462.235
544.9977, 1466.712
545.4798, 1472.641
545.9619, 1473.732
546.4440, 1464.074
546.9261, 1456.591
547.4083, 1453.500
547.8904, 1453.605
548.3725, 1455.005
548.8546, 1459.604
549.3367, 1462.186
549.8188, 1459.900
550.3010, 1453.621
550.7831, 1455.526
551.2652, 1468.778
551.7473, 1479.669
552.2294, 1475.583
552.7115, 1458.366
553.1937, 1445.973
553.6758, 1439.569
554.1579, 1439.057
554.6400, 1449.398
555.1221, 1466.102
555.6042, 1475.892
556.0864, 1469.417
556.5685, 1458.814
557.0506, 1456.101
557.5327, 1459.330
558.0148, 1461.318
558.4969, 1457.987
558.9791, 1452.759
559.4612, 1447.432
559.9433, 1442.099
560.4254, 1437.309
560.9075, 1432.700
561.3896, 1428.981
561.8718, 1426.712
562.3539, 1426.779
562.8360, 1427.044
563.3181, 1428.737
563.8002, 1429.885
564.2823, 1423.591
564.7645, 1407.064
565.2466, 1396.090
565.7287, 1399.377
566.2108, 1413.549
566.6929, 1422.691
567.1750, 1426.678
567.6572, 1426.797
568.1393, 1421.150
568.6214, 1412.852
569.1035, 1408.558
569.5856, 1409.776
570.0677, 1412.951
570.5499, 1416.229
571.0320, 1419.300
571.5141, 1421.703
571.9962, 1425.045
572.4783, 1425.923
572.9604, 1420.665
573.4426, 1410.891
573.9247, 1404.811
574.4068, 1407.011
574.8889, 1410.240
575.3710, 1411.419
575.8531, 1409.624
576.3353, 1410.906
576.8174, 1416.975
577.2995, 1423.570
577.7816, 1427.472
578.2637, 1428.833
578.7458, 1423.958
579.2280, 1409.449
579.7101, 1393.726
580.1922, 1394.593
580.6743, 1409.231
581.1564, 1421.734
581.6385, 1422.198
582.1207, 1417.735
582.6028, 1418.953
583.0849, 1424.779
583.5670, 1426.910
584.0491, 1414.012
584.5313, 1399.570
585.0134, 1394.935
585.4955, 1404.885
585.9776, 1414.535
586.4597, 1418.948
586.9418, 1421.622
587.4240, 1426.672
587.9061, 1438.891
588.3882, 1445.960
588.8703, 1443.566
589.3524, 1435.992
589.8345, 1437.090
590.3167, 1449.550
590.7988, 1460.284
591.2809, 1461.994
591.7630, 1456.985
592.2451, 1457.717
592.7272, 1464.403
593.2094, 1471.588
593.6915, 1474.592
594.1736, 1474.894
594.6557, 1474.825
595.1378, 1474.316
595.6199, 1475.375
596.1021, 1481.189
596.5842, 1489.084
597.0663, 1495.266
597.5485, 1498.328
598.0306, 1499.540
598.5127, 1495.507
598.9948, 1488.921
599.4769, 1491.540
599.9590, 1513.214
600.4412, 1532.936
600.9233, 1542.628
601.4054, 1541.421
601.8875, 1545.981
602.3696, 1559.317
602.8517, 1570.935
603.3339, 1568.064
603.8160, 1552.354
604.2981, 1546.684
604.7802, 1554.731
605.2623, 1569.419
605.7444, 1584.093
606.2266, 1598.297
606.7087, 1610.028
607.1908, 1616.611
607.6729, 1622.793
608.1550, 1634.933
608.6371, 1650.289
609.1193, 1660.369
609.6014, 1654.955
610.0835, 1649.218
610.5656, 1651.550
611.0477, 1663.966
611.5298, 1672.578
612.0120, 1676.711
612.4941, 1677.121
612.9762, 1672.449
613.4583, 1658.493
613.9404, 1655.922
614.4225, 1668.974
614.9047, 1687.634
615.3868, 1697.700
615.8689, 1699.796
616.3510, 1700.843
616.8331, 1702.202
617.3152, 1704.415
617.7974, 1709.013
618.2795, 1715.393
618.7616, 1721.431
619.2437, 1728.474
619.7258, 1732.836
620.2079, 1730.902
620.6901, 1722.537
621.1722, 1713.190
621.6543, 1701.801
622.1364, 1692.079
622.6185, 1686.895
623.1006, 1688.794
623.5828, 1689.657
624.0649, 1688.833
624.5470, 1687.572
625.0291, 1689.169
625.5112, 1695.862
625.9933, 1692.209
626.4755, 1672.447
626.9576, 1645.008
627.4397, 1626.661
627.9218, 1616.743
628.4039, 1610.192
628.8860, 1604.326
629.3682, 1600.488
629.8503, 1603.454
630.3324, 1611.861
630.8145, 1615.457
631.2966, 1605.541
631.7787, 1590.553
632.2609, 1574.962
632.7430, 1557.637
633.2251, 1546.582
633.7072, 1552.597
634.1893, 1559.940
634.6714, 1554.496
635.1536, 1526.223
635.6357, 1507.725
636.1178, 1503.914
636.5999, 1508.397
637.0820, 1510.871
637.5641, 1511.346
638.0463, 1508.815
638.5284, 1502.537
639.0105, 1493.404
639.4926, 1480.715
639.9747, 1465.552
640.4568, 1454.468
640.9390, 1454.969
641.4211, 1458.923
641.9032, 1459.921
642.3853, 1457.498
642.8674, 1450.713
643.3495, 1432.936
643.8317, 1414.856
644.3138, 1404.168
644.7959, 1408.055
645.2780, 1407.099
645.7601, 1398.167
646.2422, 1387.162
646.7244, 1381.203
647.2065, 1381.302
647.6886, 1381.481
648.1707, 1380.705
648.6528, 1379.502
649.1349, 1379.555
649.6171, 1380.492
650.0992, 1379.721
650.5813, 1373.314
651.0634, 1366.225
651.5455, 1365.781
652.0276, 1370.747
652.5098, 1374.512
652.9919, 1374.131
653.4740, 1371.002
653.9561, 1365.537
654.4382, 1357.434
654.9203, 1349.076
655.4025, 1336.864
655.8846, 1327.629
656.3667, 1327.805
656.8488, 1344.162
657.3309, 1347.818
657.8130, 1333.307
658.2952, 1314.097
658.7773, 1310.550
659.2594, 1321.307
659.7415, 1330.856
660.2236, 1336.081
660.7057, 1336.677
661.1879, 1330.827
661.6700, 1319.840
662.1521, 1307.400
662.6342, 1289.133
663.1163, 1275.305
663.5984, 1275.246
664.0806, 1287.249
664.5627, 1296.568
665.0448, 1298.038
665.5269, 1297.331
666.0090, 1297.310
666.4911, 1298.603
666.9733, 1295.155
667.4554, 1284.442
667.9375, 1273.997
668.4196, 1269.956
668.9017, 1272.205
669.3839, 1278.114
669.8660, 1288.406
670.3481, 1297.673
670.8302, 1299.729
671.3123, 1295.963
671.7944, 1288.852
672.2766, 1276.529
672.7587, 1265.460
673.2408, 1260.743
673.7229, 1260.173
674.2050, 1259.330
674.6871, 1256.868
675.1693, 1254.117
675.6514, 1250.073
676.1335, 1245.617
676.6156, 1246.495
677.0977, 1256.414
677.5798, 1263.155
678.0620, 1259.958
678.5441, 1248.049
679.0262, 1239.293
679.5083, 1233.673
679.9904, 1230.356
680.4725, 1229.125
680.9547, 1229.582
681.4368, 1230.488
681.9189, 1231.430
682.4010, 1235.408
682.8831, 1249.398
683.3652, 1265.012
683.8474, 1273.304
684.3295, 1265.974
684.8116, 1261.314
685.2937, 1266.986
685.7758, 1274.484
686.2579, 1271.564
686.7401, 1252.814
687.2222, 1238.463
687.7043, 1232.228
688.1864, 1232.461
688.6685, 1237.746
689.1506, 1247.572
689.6328, 1253.558
690.1149, 1247.665
690.5970, 1238.592
691.0791, 1240.797
691.5612, 1252.326
692.0433, 1263.084
692.5255, 1269.750
693.0076, 1272.427
693.4897, 1270.496
693.9718, 1263.651
694.4539, 1255.711
694.9360, 1241.123
695.4182, 1231.254
695.9003, 1233.426
696.3824, 1251.220
696.8645, 1267.042
697.3466, 1282.491
697.8287, 1291.759
698.3109, 1282.431
698.7930, 1259.320
699.2751, 1250.383
699.7572, 1263.940
700.2393, 1279.947
700.7214, 1272.912
701.2036, 1254.934
701.6857, 1246.339
702.1678, 1264.529
702.6499, 1281.454
703.1320, 1284.191
703.6141, 1278.036
704.0963, 1276.538
704.5784, 1285.256
705.0605, 1291.205
705.5426, 1290.264
706.0247, 1284.540
706.5068, 1284.450
706.9890, 1290.861
707.4711, 1295.592
707.9532, 1292.493
708.4353, 1285.020
708.9174, 1281.487
709.3995, 1281.805
709.8817, 1285.478
710.3638, 1296.489
710.8459, 1307.880
711.3280, 1312.350
711.8101, 1308.291
712.2922, 1305.645
712.7744, 1308.633
713.2565, 1312.941
713.7386, 1316.060
714.2207, 1319.313
714.7028, 1317.175
715.1849, 1307.278
715.6671, 1296.068
716.1492, 1291.317
716.6313, 1292.451
717.1134, 1291.615
717.5955, 1286.795
718.0776, 1281.911
718.5598, 1280.939
719.0419, 1283.552
719.5240, 1289.322
720.0061, 1303.674
720.4882, 1314.393
720.9703, 1311.179
721.4525, 1300.611
721.9346, 1297.734
722.4167, 1313.549
722.8988, 1325.452
723.3809, 1328.924
723.8630, 1325.407
724.3452, 1319.370
724.8273, 1310.103
725.3094, 1303.548
725.7915, 1303.948
726.2736, 1308.602
726.7557, 1311.756
727.2379, 1313.211
727.7200, 1311.385
728.2021, 1298.409
728.6842, 1286.590
729.1663, 1289.601
729.6484, 1309.108
730.1306, 1321.257
730.6127, 1310.907
731.0948, 1298.201
731.5769, 1294.627
732.0590, 1302.990
732.5411, 1308.625
733.0233, 1310.961
733.5054, 1311.845
733.9875, 1314.214
734.4696, 1317.253
734.9517, 1313.369
735.4338, 1300.519
735.9160, 1287.936
736.3981, 1286.050
736.8802, 1290.158
737.3623, 1293.477
737.8444, 1294.409
738.3266, 1293.919
738.8087, 1290.806
739.2908, 1287.015
739.7729, 1285.388
740.2551, 1286.196
740.7372, 1289.004
741.2193, 1295.024
741.7014, 1301.962
742.1835, 1304.631
742.6656, 1302.973
743.1478, 1300.607
743.6299, 1298.025
744.1120, 1296.191
744.5941, 1297.414
745.0762, 1300.786
745.5583, 1303.530
746.0405, 1301.997
746.5226, 1301.555
747.0047, 1308.026
747.4868, 1319.379
747.9689, 1323.363
748.4510, 1312.246
748.9332, 1301.695
749.4153, 1296.419
749.8974, 1296.104
750.3795, 1296.957
750.8616, 1299.068
751.3438, 1301.593
751.8259, 1303.318
752.3080, 1305.197
752.7901, 1310.738
753.2722, 1319.718
753.7543, 1327.065
754.2365, 1325.212
754.7186, 1323.215
755.2007, 1331.165
755.6828, 1353.660
756.1649, 1365.021
756.6470, 1351.141
757.1292, 1333.714
757.6113, 1325.956
758.0934, 1330.642
758.5755, 1331.661
759.0576, 1327.495
759.5397, 1324.766
760.0219, 1332.079
760.5040, 1346.593
760.9861, 1359.425
761.4682, 1369.122
761.9503, 1376.830
762.4324, 1384.180
762.9146, 1389.786
763.3967, 1391.716
763.8788, 1384.768
764.3609, 1381.850
764.8430, 1386.952
765.3251, 1396.084
765.8073, 1406.326
766.2894, 1419.875
766.7715, 1424.633
767.2536, 1416.146
767.7357, 1403.343
768.2178, 1400.152
768.7000, 1405.559
769.1821, 1416.080
769.6642, 1434.740
770.1463, 1451.408
770.6284, 1452.057
771.1105, 1445.110
771.5927, 1446.858
772.0748, 1476.472
772.5569, 1498.779
773.0390, 1501.332
773.5211, 1491.744
774.0032, 1488.614
774.4854, 1492.977
774.9675, 1500.211
775.4496, 1509.996
775.9317, 1520.843
776.4138, 1529.141
776.8959, 1535.054
777.3781, 1539.854
777.8602, 1542.771
778.3423, 1545.993
778.8244, 1552.690
779.3065, 1561.693
779.7886, 1568.039
780.2708, 1566.790
780.7529, 1566.253
781.2350, 1569.478
781.7171, 1576.027
782.1992, 1582.101
782.6813, 1587.909
783.1635, 1592.138
783.6456, 1592.417
784.1277, 1590.831
784.6098, 1595.855
785.0919, 1606.703
785.5740, 1615.737
786.0562, 1616.031
786.5383, 1613.950
787.0204, 1614.942
787.5025, 1619.352
787.9846, 1623.137
788.4667, 1621.321
788.9489, 1622.742
789.4310, 1632.919
789.9131, 1652.616
790.3952, 1664.123
790.8773, 1665.862
791.3594, 1666.341
791.8416, 1674.322
792.3237, 1685.568
792.8058, 1687.443
793.2879, 1679.490
793.7700, 1670.791
794.2521, 1664.842
794.7343, 1662.705
795.2164, 1666.785
795.6985, 1679.610
796.1806, 1687.927
796.6627, 1686.240
797.1448, 1684.398
797.6270, 1689.740
798.1091, 1703.799
798.5912, 1712.782
799.0733, 1716.519
799.5554, 1715.939
800.0375, 1709.704
800.5197, 1700.440
801.0018, 1692.667
801.4839, 1686.917
801.9660, 1683.820
802.4481, 1685.544
802.9302, 1688.985
803.4124, 1691.680
803.8945, 1693.670
804.3766, 1694.279
804.8587, 1695.377
805.3408, 1692.620
805.8229, 1678.637
806.3051, 1653.561
806.7872, 1641.268
807.2693, 1645.913
807.7514, 1650.096
808.2335, 1634.535
808.7156, 1607.203
809.1978, 1578.964
809.6799, 1550.429
810.1620, 1526.669
810.6441, 1514.665
811.1262, 1505.649
811.6083, 1491.349
812.0905, 1471.089
812.5726, 1445.702
813.0547, 1413.136
813.5368, 1379.937
814.0189, 1353.613
814.5010, 1333.602
814.9832, 1317.154
815.4653, 1304.456
815.9474, 1292.780
816.4295, 1280.668
816.9116, 1267.521
817.3937, 1252.053
817.8759, 1230.895
818.3580, 1213.740
818.8401, 1203.697
819.3222, 1198.003
819.8043, 1195.658
820.2864, 1198.868
820.7686, 1193.848
821.2507, 1177.317
821.7328, 1158.737
822.2149, 1152.220
822.6970, 1153.406
823.1791, 1150.674
823.6613, 1140.149
824.1434, 1129.747
824.6255, 1126.377
825.1076, 1125.307
825.5897, 1121.333
826.0718, 1109.198
826.5540, 1091.688
827.0361, 1096.440
827.5182, 1098.047
828.0003, 1096.679
828.4824, 1083.424
828.9645, 1085.518
829.4467, 1081.461
829.9288, 1077.152
830.4109, 1081.407
830.8930, 1069.880
831.3751, 1073.999
831.8572, 1077.294
832.3394, 1078.389
832.8215, 1073.505
833.3036, 1066.164
833.7857, 1060.411
834.2678, 1057.191
834.7499, 1052.737
835.2321, 1046.244
835.7142, 1039.901
836.1963, 1036.547
836.6784, 1035.668
837.1605, 1035.646
837.6426, 1036.303
838.1248, 1037.199
838.6069, 1039.224
839.0890, 1040.712
839.5711, 1039.534
840.0532, 1032.068
840.5353, 1027.971
841.0175, 1029.647
841.4996, 1032.896
841.9817, 1033.608
842.4638, 1031.729
842.9459, 1028.210
843.4280, 1022.588
843.9102, 1018.204
844.3923, 1019.977
844.8744, 1025.051
845.3565, 1029.063
845.8386, 1031.337
846.3207, 1031.874
846.8029, 1028.075
847.2850, 1024.223
847.7671, 1024.776
848.2492, 1034.389
848.7313, 1034.646
849.2134, 1022.517
849.6956, 1008.743
850.1777, 1004.099
850.6598, 1006.703
851.1419, 1010.556
851.6240, 1015.125
852.1061, 1019.221
852.5883, 1023.424
853.0704, 1025.874
853.5525, 1024.616
854.0346, 1018.242
854.5167, 1011.118
854.9988, 1000.169
855.4810, 992.8317
855.9631, 997.1437
856.4452, 1013.425
856.9273, 1018.733
857.4094, 1011.802
857.8915, 1003.809
858.3737, 1009.182
858.8558, 1017.006
859.3379, 1010.343
859.8200, 986.0078
860.3021, 967.2701
860.7842, 965.0527
861.2664, 969.6875
861.7485, 975.9700
862.2306, 984.0174
862.7127, 994.0483
863.1948, 1007.260
863.6769, 1017.533
864.1591, 1019.655
864.6412, 1015.875
865.1233, 1010.065
865.6054, 1002.693
866.0875, 998.1054
866.5696, 1004.553
867.0518, 1009.813
867.5339, 1003.741
868.0160, 984.9734
868.4981, 974.4501
868.9802, 975.0212
869.4623, 977.8428
869.9445, 978.6615
870.4266, 978.3604
870.9087, 982.5394
871.3908, 990.6034
871.8729, 995.7878
872.3550, 990.7200
872.8372, 983.7474
873.3193, 982.8495
873.8014, 986.8448
874.2835, 988.1122
874.7656, 982.0456
875.2477, 976.2943
875.7299, 971.6830
876.2120, 969.0574
876.6941, 973.0444
877.1762, 983.6044
877.6583, 993.2587
878.1404, 999.9072
878.6226, 1002.615
879.1047, 995.9550
879.5869, 984.3124
880.0690, 978.7994
880.5511, 992.7935
881.0332, 1002.909
881.5153, 1000.397
881.9974, 990.2547
882.4796, 981.2060
882.9617, 972.6818
883.4438, 968.6233
883.9259, 970.3723
884.4080, 976.2173
884.8901, 987.1592
885.3723, 999.8368
885.8544, 1006.028
886.3365, 998.9086
886.8186, 991.2150
887.3007, 987.7563
887.7828, 987.4214
888.2650, 988.6106
888.7471, 991.4628
889.2292, 995.7125
889.7113, 1002.338
890.1934, 1008.105
890.6755, 1009.090
891.1577, 1005.806
891.6398, 998.8250
892.1219, 987.3192
892.6040, 977.3593
893.0861, 975.2405
893.5682, 975.5661
894.0504, 972.3179
894.5325, 959.1140
895.0146, 958.5115
895.4967, 976.8182
895.9788, 996.0518
896.4609, 999.5443
896.9431, 989.9025
897.4252, 981.9528
897.9073, 976.4513
898.3894, 974.2918
898.8715, 980.8095
899.3536, 987.5322
899.8358, 984.8351
900.3179, 970.5953
900.8000, 965.2919
901.2821, 978.1769
901.7642, 989.3907
902.2463, 989.2662
902.7285, 979.4011
903.2106, 970.5161
903.6927, 962.7506
904.1748, 958.4484
904.6569, 959.6276
905.1390, 964.4952
905.6212, 975.1664
906.1033, 988.8586
906.5854, 994.5587
907.0675, 978.9310
907.5496, 967.0770
908.0317, 965.4121
908.5139, 971.3490
908.9960, 979.0517
909.4781, 988.5022
909.9602, 992.1674
910.4423, 983.5438
910.9244, 974.0947
911.4066, 981.5082
911.8887, 997.4478
912.3708, 1006.650
912.8529, 996.6542
913.3350, 988.7324
913.8171, 988.5951
914.2993, 991.0140
914.7814, 987.5504
915.2635, 977.2305
915.7456, 975.3244
916.2277, 985.5351
916.7098, 997.8216
917.1920, 1000.342
917.6741, 997.4077
918.1562, 995.0326
918.6383, 994.3923
919.1204, 994.6284
919.6025, 997.3466
920.0847, 999.3116
920.5668, 997.9087
921.0489, 992.3810
921.5310, 989.2309
922.0131, 988.7794
922.4952, 988.1219
922.9774, 983.6136
923.4595, 978.0439
923.9416, 976.7347
924.4237, 979.5423
924.9058, 979.8179
925.3879, 968.8345
925.8701, 961.1827
926.3522, 964.3667
926.8343, 976.6901
927.3164, 984.7697
927.7985, 988.6226
928.2806, 988.1476
928.7628, 979.2229
929.2449, 969.8100
929.7270, 975.5369
930.2091, 991.1754
930.6912, 1002.724
931.1733, 1001.092
931.6555, 998.3345
932.1376, 998.4857
932.6197, 999.5079
933.1018, 997.8753
933.5839, 993.3018
934.0660, 987.3730
934.5482, 979.2457
935.0303, 973.2283
935.5124, 977.2986
935.9945, 986.6614
936.4766, 992.8986
936.9587, 993.5937
937.4409, 992.5852
937.9230, 990.9798
938.4051, 988.1569
938.8872, 982.6342
939.3693, 972.8198
939.8514, 970.7314
940.3336, 977.3666
940.8157, 984.5684
941.2978, 984.6635
941.7799, 981.5322
942.2620, 980.9047
942.7441, 983.0124
943.2263, 984.9065
943.7084, 986.6101
944.1905, 986.4296
944.6726, 982.5089
945.1547, 975.9876
945.6368, 974.8829
946.1190, 979.5519
946.6011, 983.4377
947.0832, 983.2341
947.5653, 981.0876
948.0474, 977.7979
948.5295, 974.9578
949.0117, 976.2720
949.4938, 990.5167
949.9759, 999.2010
950.4580, 996.0834
950.9401, 987.9966
951.4222, 985.9250
951.9044, 990.0101
952.3865, 990.2358
952.8686, 984.1658
953.3507, 978.0225
953.8328, 978.7488
954.3149, 983.2021
954.7971, 988.2880
955.2792, 994.6918
955.7613, 996.0389
956.2434, 985.3261
956.7255, 976.7620
957.2076, 980.1925
957.6898, 995.2348
958.1719, 1008.323
958.6540, 1019.503
959.1361, 1025.196
959.6182, 1017.832
960.1003, 1007.966
960.5825, 1006.261
961.0646, 1011.436
961.5467, 1013.831
962.0288, 1009.590
962.5109, 1005.565
962.9930, 1003.181
963.4752, 1002.188
963.9573, 1002.336
964.4394, 1003.488
964.9215, 1004.951
965.4036, 1006.971
965.8857, 1008.257
966.3679, 1003.724
966.8500, 999.5187
967.3321, 1004.393
967.8142, 1032.531
968.2963, 1044.758
968.7784, 1036.282
969.2606, 1021.038
969.7427, 1010.085
970.2248, 1004.092
970.7069, 1008.599
971.1890, 1023.816
971.6711, 1035.375
972.1533, 1028.942
972.6354, 1019.645
973.1175, 1016.186
973.5996, 1019.148
974.0817, 1031.652
974.5638, 1059.442
975.0460, 1075.575
975.5281, 1063.193
976.0102, 1037.460
976.4923, 1029.333
976.9744, 1035.127
977.4565, 1044.022
977.9387, 1053.862
978.4208, 1062.999
978.9029, 1071.348
979.3850, 1078.352
979.8671, 1083.354
980.3492, 1086.323
980.8314, 1087.062
981.3135, 1085.342
981.7956, 1082.313
982.2777, 1075.804
982.7598, 1070.321
983.2419, 1073.904
983.7241, 1089.006
984.2062, 1102.086
984.6883, 1106.250
985.1704, 1110.554
985.6525, 1120.704
986.1346, 1135.414
986.6168, 1138.791
987.0989, 1131.237
987.5810, 1125.414
988.0631, 1132.103
988.5452, 1140.912
989.0273, 1140.714
989.5095, 1134.858
989.9916, 1131.933
990.4737, 1133.308
990.9558, 1138.669
991.4379, 1149.397
991.9200, 1162.010
992.4022, 1172.834
992.8843, 1181.013
993.3664, 1181.155
993.8485, 1170.502
994.3306, 1163.029
994.8127, 1172.368
995.2949, 1186.452
995.7770, 1195.052
996.2591, 1197.248
996.7412, 1195.008
997.2233, 1185.331
997.7054, 1182.274
998.1876, 1201.532
998.6697, 1230.508
999.1518, 1240.286
999.6339, 1234.535
1000.116, 1228.224
1000.598, 1225.421
1001.080, 1226.239
1001.562, 1230.605
1002.044, 1238.565
1002.527, 1252.491
1003.009, 1273.040
1003.491, 1288.282
1003.973, 1295.374
1004.455, 1298.491
1004.937, 1303.391
1005.419, 1306.306
1005.901, 1300.417
1006.384, 1280.532
1006.866, 1269.711
1007.348, 1274.828
1007.830, 1282.570
1008.312, 1285.273
1008.794, 1284.109
1009.276, 1285.771
1009.758, 1290.174
1010.240, 1296.556
1010.723, 1307.967
1011.205, 1317.769
1011.687, 1320.151
1012.169, 1317.782
1012.651, 1318.193
1013.133, 1322.570
1013.615, 1327.041
1014.097, 1331.452
1014.580, 1334.670
1015.062, 1332.952
1015.544, 1329.471
1016.026, 1331.589
1016.508, 1342.119
1016.990, 1349.373
1017.472, 1343.348
1017.954, 1337.768
1018.436, 1342.090
1018.919, 1355.499
1019.401, 1358.440
1019.883, 1350.877
1020.365, 1346.243
1020.847, 1356.894
1021.329, 1370.333
1021.811, 1373.647
1022.293, 1369.971
1022.776, 1367.109
1023.258, 1366.999
1023.740, 1366.698
1024.222, 1364.767
1024.704, 1364.520
1025.186, 1373.285
1025.668, 1387.659
1026.150, 1395.190
1026.632, 1393.841
1027.115, 1390.554
1027.597, 1388.297
1028.079, 1386.545
1028.561, 1383.711
1029.043, 1380.015
1029.525, 1384.252
1030.007, 1397.457
1030.489, 1409.518
1030.972, 1416.041
1031.454, 1418.534
1031.936, 1417.820
1032.418, 1414.959
1032.900, 1412.246
1033.382, 1406.220
1033.864, 1407.111
1034.346, 1419.709
1034.828, 1434.083
1035.311, 1440.242
1035.793, 1438.379
1036.275, 1425.141
1036.757, 1400.082
1037.239, 1382.850
1037.721, 1394.654
1038.203, 1412.932
1038.685, 1423.770
1039.167, 1426.593
1039.650, 1422.770
1040.132, 1409.567
1040.614, 1402.584
1041.096, 1410.093
1041.578, 1421.538
1042.060, 1419.510
1042.542, 1409.134
1043.024, 1399.504
1043.507, 1390.829
1043.989, 1388.605
1044.471, 1398.486
1044.953, 1409.444
1045.435, 1411.915
1045.917, 1406.779
1046.399, 1406.320
1046.881, 1410.559
1047.364, 1415.060
1047.846, 1419.180
1048.328, 1420.359
1048.810, 1414.088
1049.292, 1402.943
1049.774, 1399.328
1050.256, 1408.033
1050.738, 1405.795
1051.220, 1384.443
1051.703, 1360.034
1052.185, 1359.057
1052.667, 1370.355
1053.149, 1374.582
1053.631, 1366.038
1054.113, 1359.521
1054.595, 1359.823
1055.077, 1362.165
1055.559, 1364.947
1056.042, 1367.833
1056.524, 1369.667
1057.006, 1370.064
1057.488, 1365.869
1057.970, 1348.297
1058.452, 1332.895
1058.934, 1331.055
1059.416, 1337.611
1059.899, 1343.396
1060.381, 1350.516
1060.863, 1346.445
1061.345, 1327.429
1061.827, 1308.762
1062.309, 1308.282
1062.791, 1317.110
1063.273, 1322.602
1063.755, 1323.682
1064.238, 1324.330
1064.720, 1329.184
1065.202, 1328.574
1065.684, 1317.212
1066.166, 1300.213
1066.648, 1291.864
1067.130, 1291.090
1067.612, 1292.906
1068.094, 1297.865
1068.577, 1299.915
1069.059, 1291.704
1069.541, 1281.325
1070.023, 1276.470
1070.505, 1277.818
1070.987, 1282.079
1071.469, 1289.710
1071.951, 1296.289
1072.434, 1300.711
1072.916, 1301.057
1073.398, 1289.062
1073.880, 1270.390
1074.362, 1264.922
1074.844, 1289.623
1075.326, 1305.610
1075.808, 1305.631
1076.291, 1299.982
1076.773, 1305.039
1077.255, 1316.093
1077.737, 1317.115
1078.219, 1305.112
1078.701, 1298.458
1079.183, 1312.651
1079.665, 1328.562
1080.147, 1336.800
1080.630, 1338.400
1081.112, 1338.659
1081.594, 1337.693
1082.076, 1338.946
1082.558, 1343.268
1083.040, 1351.149
1083.522, 1368.109
1084.004, 1386.626
1084.486, 1395.090
1084.969, 1384.357
1085.451, 1388.336
1085.933, 1410.416
1086.415, 1434.285
1086.897, 1448.978
1087.379, 1456.349
1087.861, 1457.782
1088.343, 1454.428
1088.826, 1450.703
1089.308, 1442.107
1089.790, 1442.543
1090.272, 1458.309
1090.754, 1479.159
1091.236, 1487.210
1091.718, 1485.795
1092.200, 1491.166
1092.682, 1506.132
1093.165, 1521.087
1093.647, 1531.806
1094.129, 1538.782
1094.611, 1541.025
1095.093, 1539.628
1095.575, 1540.934
1096.057, 1544.857
1096.539, 1554.643
1097.022, 1574.916
1097.504, 1594.249
1097.986, 1595.804
1098.468, 1591.155
1098.950, 1596.989
1099.432, 1622.193
1099.914, 1641.823
1100.396, 1656.599
1100.879, 1662.487
1101.361, 1650.157
1101.843, 1629.728
1102.325, 1618.895
1102.807, 1617.144
1103.289, 1621.844
1103.771, 1637.640
1104.253, 1652.704
1104.735, 1666.577
1105.218, 1677.164
1105.700, 1680.805
1106.182, 1678.394
1106.664, 1672.207
1107.146, 1662.333
1107.628, 1656.697
1108.110, 1663.174
1108.592, 1672.198
1109.074, 1678.087
1109.557, 1682.000
1110.039, 1689.716
1110.521, 1701.382
1111.003, 1709.375
1111.485, 1710.047
1111.967, 1710.477
1112.449, 1717.516
1112.931, 1727.814
1113.414, 1739.249
1113.896, 1753.436
1114.378, 1755.777
1114.860, 1742.850
1115.342, 1733.200
1115.824, 1741.090
1116.306, 1755.331
1116.788, 1757.752
1117.271, 1752.563
1117.753, 1749.179
1118.235, 1748.331
1118.717, 1754.143
1119.199, 1771.119
1119.681, 1786.542
1120.163, 1785.241
1120.645, 1772.648
1121.127, 1765.217
1121.609, 1762.982
1122.092, 1758.768
1122.574, 1743.393
1123.056, 1732.539
1123.538, 1732.174
1124.020, 1738.294
1124.502, 1744.274
1124.984, 1749.880
1125.466, 1753.300
1125.949, 1754.224
1126.431, 1752.347
1126.913, 1746.529
1127.395, 1738.507
1127.877, 1726.571
1128.359, 1712.391
1128.841, 1713.746
1129.323, 1732.010
1129.806, 1739.725
1130.288, 1721.808
1130.770, 1700.422
1131.252, 1699.037
1131.734, 1707.305
1132.216, 1711.663
1132.698, 1708.819
1133.180, 1708.543
1133.662, 1711.395
1134.145, 1714.492
1134.627, 1718.551
1135.109, 1720.045
1135.591, 1710.537
1136.073, 1694.044
1136.555, 1680.999
1137.037, 1675.156
1137.519, 1672.575
1138.001, 1675.089
1138.484, 1676.406
1138.966, 1667.311
1139.448, 1652.654
1139.930, 1645.062
1140.412, 1644.428
1140.894, 1643.793
1141.376, 1640.040
1141.858, 1636.068
1142.341, 1632.361
1142.823, 1629.145
1143.305, 1625.941
1143.787, 1623.410
1144.269, 1625.708
1144.751, 1634.167
1145.233, 1640.159
1145.715, 1636.265
1146.198, 1631.018
1146.680, 1629.371
1147.162, 1630.355
1147.644, 1629.246
1148.126, 1626.206
1148.608, 1623.606
1149.090, 1622.544
1149.572, 1621.090
1150.054, 1616.519
1150.536, 1611.792
1151.019, 1610.561
1151.501, 1613.450
1151.983, 1610.677
1152.465, 1602.026
1152.947, 1592.974
1153.429, 1585.736
1153.911, 1580.259
1154.393, 1575.680
1154.876, 1573.184
1155.358, 1576.143
1155.840, 1590.009
1156.322, 1589.978
1156.804, 1572.392
1157.286, 1558.530
1157.768, 1575.002
1158.250, 1598.422
1158.733, 1598.541
1159.215, 1579.477
1159.697, 1559.127
1160.179, 1534.969
1160.661, 1522.886
1161.143, 1528.110
1161.625, 1536.088
1162.107, 1526.822
1162.589, 1510.258
1163.072, 1503.839
1163.554, 1508.334
1164.036, 1512.599
1164.518, 1515.664
1165.000, 1515.259
1165.482, 1510.566
1165.964, 1502.473
1166.446, 1491.548
1166.928, 1478.830
1167.411, 1465.376
1167.893, 1450.515
1168.375, 1441.506
1168.857, 1448.602
1169.339, 1451.811
1169.821, 1442.495
1170.303, 1424.741
1170.785, 1406.380
1171.268, 1389.574
1171.750, 1381.911
1172.232, 1389.971
1172.714, 1396.694
1173.196, 1393.439
1173.678, 1388.503
1174.160, 1387.307
1174.642, 1388.817
1175.125, 1386.720
1175.607, 1381.120
1176.089, 1372.667
1176.571, 1359.758
1177.053, 1346.462
1177.535, 1333.967
1178.017, 1322.365
1178.499, 1311.651
1178.981, 1301.757
1179.464, 1294.782
1179.946, 1290.385
1180.428, 1284.158
1180.910, 1267.526
1181.392, 1254.660
1181.874, 1257.412
1182.356, 1266.521
1182.838, 1267.496
1183.320, 1260.021
1183.803, 1253.899
1184.285, 1249.896
1184.767, 1246.760
1185.249, 1242.056
1185.731, 1239.230
1186.213, 1244.183
1186.695, 1252.407
1187.177, 1249.375
1187.660, 1233.843
1188.142, 1228.120
1188.624, 1237.235
1189.106, 1245.311
1189.588, 1234.377
1190.070, 1219.882
1190.552, 1216.067
1191.034, 1221.330
1191.516, 1220.434
1191.999, 1213.124
1192.481, 1200.200
1192.963, 1179.880
1193.445, 1161.148
1193.927, 1150.422
1194.409, 1147.556
1194.891, 1156.715
1195.373, 1178.211
1195.855, 1184.528
1196.338, 1174.092
1196.820, 1162.498
1197.302, 1156.219
1197.784, 1150.602
1198.266, 1136.935
1198.748, 1122.859
1199.230, 1120.381
1199.712, 1134.028
1200.195, 1135.036
1200.677, 1121.541
1201.159, 1108.386
1201.641, 1103.462
1202.123, 1103.018
1202.605, 1104.028
1203.087, 1106.177
1203.569, 1109.476
1204.052, 1116.436
1204.534, 1116.071
1205.016, 1107.289
1205.498, 1097.704
1205.980, 1090.504
1206.462, 1086.916
1206.944, 1092.559
1207.426, 1102.188
1207.908, 1102.638
1208.391, 1087.689
1208.873, 1080.199
1209.355, 1082.695
1209.837, 1083.733
1210.319, 1070.089
1210.801, 1052.432
1211.283, 1040.932
1211.765, 1036.016
1212.247, 1039.160
1212.730, 1054.009
1213.212, 1063.720
1213.694, 1066.115
1214.176, 1065.189
1214.658, 1065.750
1215.140, 1064.531
1215.622, 1055.604
1216.104, 1040.609
1216.587, 1030.197
1217.069, 1024.070
1217.551, 1026.823
1218.033, 1041.367
1218.515, 1055.545
1218.997, 1053.550
1219.479, 1045.256
1219.961, 1041.775
1220.443, 1043.677
1220.926, 1044.417
1221.408, 1044.485
1221.890, 1039.950
1222.372, 1028.905
1222.854, 1016.465
1223.336, 1004.377
1223.818, 997.1126
1224.300, 1003.647
1224.782, 1025.455
1225.265, 1033.042
1225.747, 1023.040
1226.229, 1014.603
1226.711, 1013.591
1227.193, 1016.503
1227.675, 1022.733
1228.157, 1028.323
1228.639, 1027.447
1229.122, 1018.731
1229.604, 1013.239
1230.086, 1011.238
1230.568, 1010.555
1231.050, 1010.555
1231.532, 1011.091
1232.014, 1010.126
1232.496, 1010.651
1232.979, 1019.271
1233.461, 1038.698
1233.943, 1039.682
1234.425, 1019.947
1234.907, 1005.055
1235.389, 1011.458
1235.871, 1020.653
1236.353, 1010.389
1236.835, 993.9050
1237.318, 989.8058
1237.800, 1000.529
1238.282, 1008.910
1238.764, 1015.020
1239.246, 1015.733
1239.728, 1003.509
1240.210, 992.4508
1240.692, 996.8101
1241.175, 1008.526
1241.657, 1017.168
1242.139, 1022.934
1242.621, 1020.979
1243.103, 1011.196
1243.585, 1003.842
1244.067, 1009.139
1244.549, 1014.630
1245.031, 1009.015
1245.514, 1000.080
1245.996, 999.5479
1246.478, 1008.535
1246.960, 1011.305
1247.442, 1007.900
1247.924, 1004.553
1248.406, 1006.232
1248.888, 1008.048
1249.370, 1006.472
1249.853, 1003.914
1250.335, 1003.992
1250.817, 1006.558
1251.299, 1006.305
1251.781, 1003.268
1252.263, 1001.392
1252.745, 1002.792
1253.227, 1006.418
1253.710, 1015.804
1254.192, 1023.919
1254.674, 1017.969
1255.156, 1001.196
1255.638, 999.8870
1256.120, 1014.058
1256.602, 1024.712
1257.084, 1018.425
1257.567, 1010.390
1258.049, 1005.070
1258.531, 1001.311
1259.013, 995.9292
1259.495, 990.8106
1259.977, 996.1252
1260.459, 1011.141
1260.941, 1019.735
1261.423, 1005.380
1261.906, 996.4778
1262.388, 1001.037
1262.870, 1010.803
1263.352, 1015.592
1263.834, 1015.862
1264.316, 1011.061
1264.798, 1001.723
1265.280, 993.9860
1265.762, 988.7308
1266.245, 987.1266
1266.727, 989.9264
1267.209, 995.2114
1267.691, 1001.376
1268.173, 1007.748
1268.655, 1014.795
1269.137, 1022.125
1269.619, 1021.769
1270.102, 1010.423
1270.584, 998.9106
1271.066, 988.6829
1271.548, 981.8542
1272.030, 982.2990
1272.512, 987.0715
1272.994, 994.4551
1273.476, 1003.609
1273.958, 1008.490
1274.441, 1008.762
1274.923, 1004.198
1275.405, 992.7893
1275.887, 985.6530
1276.369, 1001.980
1276.851, 1022.246
1277.333, 1024.921
1277.815, 1012.914
1278.297, 1012.464
1278.780, 1024.544
1279.262, 1024.923
1279.744, 1005.609
1280.226, 989.3337
1280.708, 1000.335
1281.190, 1015.936
1281.672, 1020.186
1282.154, 1015.336
1282.637, 1006.582
1283.119, 995.0971
1283.601, 994.3072
1284.083, 1008.884
1284.565, 1020.245
1285.047, 1012.068
1285.529, 1003.554
1286.011, 1005.433
1286.494, 1012.812
1286.976, 1012.824
1287.458, 1006.458
1287.940, 994.5769
1288.422, 975.7167
1288.904, 965.5601
1289.386, 978.1647
1289.868, 989.5734
1290.350, 991.6872
1290.833, 988.7184
1291.315, 986.4973
1291.797, 986.2827
1292.279, 991.9337
1292.761, 1005.272
1293.243, 1013.996
1293.725, 1015.973
1294.207, 1015.726
1294.689, 1014.286
1295.172, 1012.424
1295.654, 1011.788
1296.136, 1011.132
1296.618, 1009.259
1297.100, 1005.874
1297.582, 997.6064
1298.064, 982.7315
1298.546, 974.2658
1299.029, 977.7438
1299.511, 984.2227
1299.993, 982.2047
1300.475, 980.1241
1300.957, 990.0536
1301.439, 1008.898
1301.921, 1013.706
1302.403, 1004.997
1302.885, 997.9624
1303.368, 996.8134
1303.850, 997.9539
1304.332, 999.5287
1304.814, 1002.227
1305.296, 1008.183
1305.778, 1014.672
1306.260, 1009.209
1306.742, 995.4178
1307.224, 988.2188
1307.707, 992.3715
##END=



