##NAMES=Stenhuggarite
##RRUFFID=R080038
##IDEAL CHEMISTRY=CaFe^3+^Sb^3+^As^3+^_2_O_7_
##LOCALITY=Langban, Filipstad, Varmland, Sweden
##OWNER=RRUFF
##SOURCE=Michael Scott
##DESCRIPTION=Aggregate of reddish orange granular crystals in matrix of black hematite
##STATUS=The identification of this mineral has been confirmed only by single crystal X-ray diffraction.
##URL=rruff.info/R080038
##MEASURED CHEMISTRY=(Ca_0.93_Mn_0.01_Pb_0.01_)(Fe^3+^_0.96_Si_0.01_)Sb^3+^_0.85_As^3+^_2.21_O_7_
93.71484, 68.92264
94.19696, 62.96589
94.67908, 62.41839
95.16119, 67.77775
95.64331, 76.21272
96.12543, 84.45765
96.60754, 92.59045
97.08966, 101.6693
97.57178, 112.4946
98.05389, 124.9743
98.53601, 138.0109
99.01813, 151.6990
99.50024, 165.8685
99.98236, 180.1377
100.4645, 194.5594
100.9466, 208.5330
101.4287, 221.3102
101.9108, 232.8518
102.3929, 244.2576
102.8751, 255.9439
103.3572, 267.7908
103.8393, 278.1895
104.3214, 286.4444
104.8035, 294.4171
105.2856, 304.0800
105.7678, 315.8077
106.2499, 328.2932
106.7320, 341.1089
107.2141, 354.2876
107.6962, 368.2688
108.1783, 382.4785
108.6605, 397.8597
109.1426, 415.9151
109.6247, 438.3698
110.1068, 461.8907
110.5889, 485.7985
111.0710, 509.2383
111.5532, 534.3741
112.0353, 562.7455
112.5174, 592.7965
112.9995, 622.0410
113.4816, 650.9001
113.9637, 678.7430
114.4459, 705.5471
114.9280, 733.1796
115.4101, 757.0997
115.8922, 776.7136
116.3743, 791.9276
116.8564, 801.9901
117.3386, 805.7130
117.8207, 804.9779
118.3028, 801.1440
118.7849, 792.2707
119.2670, 782.4816
119.7491, 772.0461
120.2313, 761.2602
120.7134, 753.4096
121.1955, 750.0726
121.6776, 750.5580
122.1597, 754.0544
122.6418, 762.0409
123.1240, 771.7866
123.6061, 780.9598
124.0882, 789.3638
124.5703, 798.8696
125.0524, 810.8968
125.5345, 824.9731
126.0167, 840.0447
126.4988, 857.0128
126.9809, 874.2355
127.4630, 889.3062
127.9451, 901.6827
128.4272, 912.8264
128.9093, 923.7922
129.3915, 934.6648
129.8736, 945.6100
130.3557, 957.0159
130.8378, 964.4951
131.3199, 965.6688
131.8020, 964.0636
132.2842, 960.8710
132.7663, 957.8632
133.2484, 955.0123
133.7305, 952.4944
134.2126, 949.9104
134.6947, 947.3993
135.1769, 946.8210
135.6590, 948.9256
136.1411, 952.8276
136.6232, 955.6361
137.1053, 957.0745
137.5874, 958.6157
138.0696, 961.4518
138.5517, 965.5613
139.0338, 970.6011
139.5159, 976.6257
139.9980, 983.5046
140.4801, 990.5024
140.9623, 997.3597
141.4444, 1004.772
141.9265, 1013.829
142.4086, 1024.998
142.8907, 1036.414
143.3728, 1047.427
143.8550, 1057.650
144.3371, 1070.094
144.8192, 1085.900
145.3013, 1103.009
145.7834, 1117.726
146.2655, 1129.099
146.7477, 1140.102
147.2298, 1151.894
147.7119, 1165.028
148.1940, 1177.277
148.6761, 1189.137
149.1582, 1200.096
149.6404, 1208.605
150.1225, 1213.922
150.6046, 1217.706
151.0867, 1220.405
151.5688, 1220.981
152.0509, 1222.043
152.5331, 1223.386
153.0152, 1225.140
153.4973, 1227.725
153.9794, 1230.298
154.4615, 1234.214
154.9436, 1240.091
155.4258, 1250.220
155.9079, 1259.529
156.3900, 1266.834
156.8721, 1272.629
157.3542, 1279.545
157.8363, 1288.512
158.3185, 1298.345
158.8006, 1308.420
159.2827, 1318.956
159.7648, 1329.311
160.2469, 1340.066
160.7290, 1350.996
161.2112, 1359.890
161.6933, 1365.328
162.1754, 1368.833
162.6575, 1371.674
163.1396, 1375.647
163.6217, 1377.795
164.1039, 1377.050
164.5860, 1373.401
165.0681, 1367.191
165.5502, 1356.699
166.0323, 1344.328
166.5145, 1332.673
166.9966, 1323.219
167.4787, 1314.355
167.9608, 1305.171
168.4429, 1295.609
168.9250, 1285.973
169.4072, 1275.708
169.8893, 1265.582
170.3714, 1256.759
170.8535, 1250.938
171.3356, 1245.827
171.8177, 1239.109
172.2999, 1230.329
172.7820, 1222.157
173.2641, 1217.226
173.7462, 1214.459
174.2283, 1211.507
174.7104, 1206.236
175.1926, 1200.513
175.6747, 1196.669
176.1568, 1195.085
176.6389, 1194.483
177.1210, 1193.271
177.6031, 1191.926
178.0853, 1191.932
178.5674, 1195.509
179.0495, 1200.615
179.5316, 1203.604
180.0137, 1203.284
180.4958, 1202.895
180.9780, 1206.662
181.4601, 1214.031
181.9422, 1222.079
182.4243, 1228.925
182.9064, 1235.113
183.3885, 1241.799
183.8707, 1248.991
184.3528, 1257.068
184.8349, 1267.517
185.3170, 1279.981
185.7991, 1292.001
186.2812, 1301.945
186.7633, 1309.945
187.2455, 1316.586
187.7276, 1322.225
188.2097, 1326.238
188.6918, 1327.095
189.1739, 1324.785
189.6560, 1321.384
190.1382, 1319.379
190.6203, 1318.137
191.1024, 1313.118
191.5845, 1302.485
192.0666, 1288.636
192.5487, 1277.069
193.0309, 1268.021
193.5130, 1259.520
193.9951, 1250.007
194.4772, 1239.518
194.9593, 1228.545
195.4414, 1216.794
195.9236, 1204.697
196.4057, 1194.297
196.8878, 1185.800
197.3699, 1177.693
197.8520, 1168.346
198.3341, 1157.557
198.8163, 1147.808
199.2984, 1139.417
199.7805, 1132.379
200.2626, 1127.023
200.7447, 1123.635
201.2268, 1120.841
201.7090, 1117.075
202.1911, 1112.105
202.6732, 1108.481
203.1553, 1107.295
203.6374, 1108.058
204.1195, 1107.152
204.6017, 1103.833
205.0838, 1100.852
205.5659, 1101.652
206.0480, 1107.153
206.5301, 1111.140
207.0122, 1111.554
207.4944, 1108.854
207.9765, 1108.113
208.4586, 1109.807
208.9407, 1112.467
209.4228, 1114.526
209.9049, 1115.724
210.3871, 1117.426
210.8692, 1120.478
211.3513, 1124.728
211.8334, 1126.420
212.3155, 1124.788
212.7976, 1121.872
213.2798, 1119.942
213.7619, 1119.443
214.2440, 1118.594
214.7261, 1117.032
215.2082, 1114.778
215.6903, 1111.774
216.1725, 1107.973
216.6546, 1103.549
217.1367, 1098.734
217.6188, 1093.609
218.1009, 1087.769
218.5830, 1080.682
219.0652, 1072.139
219.5473, 1065.471
220.0294, 1062.005
220.5115, 1058.621
220.9936, 1051.434
221.4757, 1038.528
221.9579, 1026.066
222.4400, 1015.414
222.9221, 1006.598
223.4042, 998.3760
223.8863, 990.8355
224.3684, 983.6425
224.8506, 976.2393
225.3327, 968.4672
225.8148, 961.0212
226.2969, 954.4085
226.7790, 948.7220
227.2611, 941.9378
227.7433, 933.4578
228.2254, 924.3792
228.7075, 915.9075
229.1896, 908.0632
229.6717, 900.6907
230.1538, 893.8886
230.6360, 887.8076
231.1181, 880.8700
231.6002, 872.2626
232.0823, 863.5579
232.5644, 856.7174
233.0465, 852.8600
233.5287, 848.5557
234.0108, 842.7792
234.4929, 835.2504
234.9750, 828.8202
235.4571, 823.9853
235.9392, 819.8531
236.4214, 815.5035
236.9035, 811.0608
237.3856, 806.2111
237.8677, 800.7746
238.3498, 794.6402
238.8319, 788.8099
239.3141, 782.9583
239.7962, 777.7299
240.2783, 773.9810
240.7604, 773.1520
241.2425, 771.0364
241.7246, 766.2913
242.2068, 758.6524
242.6889, 752.5712
243.1710, 748.5921
243.6531, 745.6399
244.1352, 742.8771
244.6173, 741.3783
245.0995, 737.8966
245.5816, 730.9767
246.0637, 720.5144
246.5458, 712.2950
247.0279, 706.9091
247.5100, 703.1451
247.9922, 700.0948
248.4743, 698.2836
248.9564, 696.1099
249.4385, 693.3556
249.9206, 690.0240
250.4027, 685.8986
250.8848, 680.2073
251.3670, 674.5936
251.8491, 670.7831
252.3312, 670.0655
252.8133, 668.2122
253.2954, 663.8961
253.7775, 657.3781
254.2597, 653.0890
254.7418, 651.5959
255.2239, 651.6024
255.7060, 652.2260
256.1881, 653.7958
256.6703, 655.2116
257.1524, 656.4313
257.6345, 657.4115
258.1166, 657.6111
258.5987, 656.3273
259.0808, 655.3043
259.5630, 655.9960
260.0451, 659.1319
260.5272, 661.9412
261.0093, 663.9619
261.4914, 665.3709
261.9735, 667.0195
262.4557, 668.7673
262.9378, 670.9832
263.4199, 674.1451
263.9020, 678.8600
264.3841, 682.4617
264.8662, 684.2578
265.3484, 684.8668
265.8305, 686.7057
266.3126, 689.9402
266.7947, 694.0373
267.2768, 698.8839
267.7589, 704.9449
268.2411, 710.1511
268.7232, 714.1631
269.2053, 717.4316
269.6874, 721.3227
270.1695, 726.0411
270.6516, 730.9489
271.1338, 735.6650
271.6159, 740.1718
272.0980, 744.9064
272.5801, 750.0399
273.0622, 755.2861
273.5443, 759.6495
274.0265, 762.7424
274.5086, 766.2402
274.9907, 771.0481
275.4728, 777.3027
275.9549, 783.7777
276.4370, 790.8285
276.9192, 797.5714
277.4013, 802.0486
277.8834, 803.8723
278.3655, 805.6429
278.8476, 808.6996
279.3297, 813.1517
279.8118, 816.9256
280.2939, 820.0400
280.7761, 822.4351
281.2582, 823.8855
281.7403, 824.3591
282.2224, 824.3966
282.7045, 824.0814
283.1866, 823.4468
283.6688, 822.9773
284.1509, 822.7578
284.6330, 822.3837
285.1151, 821.4684
285.5972, 819.9990
286.0793, 817.7324
286.5615, 814.2357
287.0436, 809.8271
287.5257, 806.2107
288.0078, 803.5188
288.4899, 800.7891
288.9720, 796.9835
289.4542, 792.1635
289.9363, 786.8842
290.4184, 780.9273
290.9005, 774.8028
291.3826, 769.8064
291.8647, 765.9538
292.3469, 762.7869
292.8290, 759.9427
293.3111, 757.4356
293.7932, 755.3610
294.2753, 754.2435
294.7574, 753.0531
295.2396, 749.1021
295.7217, 742.5401
296.2038, 736.3478
296.6859, 733.6212
297.1680, 733.1544
297.6501, 731.5225
298.1323, 727.8311
298.6144, 723.2139
299.0965, 719.0031
299.5786, 715.1614
300.0607, 711.6926
300.5428, 708.8203
301.0250, 706.2205
301.5071, 703.0272
301.9892, 698.8164
302.4713, 694.8717
302.9534, 692.7770
303.4355, 692.1692
303.9177, 691.7882
304.3998, 691.1263
304.8819, 690.2082
305.3640, 689.0801
305.8461, 687.7324
306.3282, 686.1774
306.8104, 684.1066
307.2925, 681.8295
307.7746, 680.0329
308.2567, 679.7589
308.7388, 679.7039
309.2209, 678.4980
309.7031, 676.0431
310.1852, 673.5407
310.6673, 671.6397
311.1494, 670.2369
311.6315, 669.1694
312.1136, 669.2992
312.5958, 669.0143
313.0779, 666.9373
313.5600, 663.1829
314.0421, 659.2659
314.5242, 655.7286
315.0063, 652.5649
315.4885, 649.7851
315.9706, 647.4990
316.4527, 645.4240
316.9348, 643.9865
317.4169, 642.8422
317.8990, 640.4498
318.3812, 635.1369
318.8633, 628.9975
319.3454, 623.5473
319.8275, 619.4756
320.3096, 615.5595
320.7917, 611.4951
321.2739, 607.3085
321.7560, 603.0471
322.2381, 598.5458
322.7202, 594.1317
323.2023, 589.8375
323.6844, 585.3044
324.1666, 581.7717
324.6487, 580.3364
325.1308, 579.8828
325.6129, 578.6865
326.0950, 575.6210
326.5771, 572.5957
327.0593, 570.0093
327.5414, 567.7535
328.0235, 566.4222
328.5056, 566.7794
328.9877, 567.7717
329.4698, 568.3020
329.9520, 567.9302
330.4341, 567.6151
330.9162, 567.6478
331.3983, 568.0587
331.8804, 567.9092
332.3625, 566.5976
332.8447, 565.2652
333.3268, 564.7872
333.8089, 565.7022
334.2910, 566.5017
334.7731, 566.8137
335.2552, 566.8535
335.7374, 567.7928
336.2195, 569.9866
336.7016, 572.5168
337.1837, 575.0031
337.6658, 577.5811
338.1479, 579.5135
338.6301, 580.5207
339.1122, 581.0078
339.5943, 581.6518
340.0764, 582.1417
340.5585, 583.8048
341.0406, 588.1556
341.5228, 595.6439
342.0049, 599.1908
342.4870, 597.7889
342.9691, 594.6023
343.4512, 594.3643
343.9333, 597.2685
344.4155, 600.2200
344.8976, 602.1887
345.3797, 603.3370
345.8618, 604.2321
346.3439, 604.8677
346.8260, 605.3652
347.3082, 605.4894
347.7903, 605.4138
348.2724, 606.3956
348.7545, 609.1385
349.2366, 612.7430
349.7188, 615.4541
350.2009, 617.3349
350.6830, 618.9313
351.1651, 620.7004
351.6472, 622.4963
352.1293, 623.8768
352.6115, 624.6495
353.0936, 625.2709
353.5757, 626.3622
354.0578, 627.7775
354.5399, 629.0258
355.0220, 629.7504
355.5042, 630.1934
355.9863, 630.5302
356.4684, 630.7255
356.9505, 631.1680
357.4326, 632.3341
357.9147, 633.9166
358.3969, 635.4152
358.8790, 636.4820
359.3611, 637.5077
359.8432, 638.9731
360.3253, 640.8430
360.8074, 642.2087
361.2896, 642.3473
361.7717, 641.8987
362.2538, 641.4501
362.7359, 641.1718
363.2180, 640.9222
363.7001, 640.8193
364.1823, 640.7584
364.6644, 640.3422
365.1465, 638.8012
365.6286, 637.3705
366.1107, 636.8630
366.5928, 638.3528
367.0750, 638.8659
367.5571, 637.2317
368.0392, 634.4559
368.5213, 632.2633
369.0034, 631.6419
369.4855, 630.8389
369.9677, 629.2874
370.4498, 626.8188
370.9319, 624.4608
371.4140, 622.2184
371.8961, 620.0398
372.3782, 617.8546
372.8604, 615.3478
373.3425, 613.3928
373.8246, 612.4074
374.3067, 612.2172
374.7888, 611.2765
375.2709, 609.3939
375.7531, 607.0972
376.2352, 604.5911
376.7173, 601.7631
377.1994, 599.3636
377.6815, 597.5247
378.1636, 596.0685
378.6458, 594.5522
379.1279, 592.9002
379.6100, 591.5906
380.0921, 591.2002
380.5742, 591.6567
381.0563, 590.8524
381.5385, 588.6111
382.0206, 585.7794
382.5027, 583.4307
382.9848, 581.4791
383.4669, 579.3622
383.9490, 576.6876
384.4312, 573.7989
384.9133, 571.3457
385.3954, 569.3362
385.8775, 567.9161
386.3596, 568.0162
386.8417, 568.7440
387.3239, 568.0186
387.8060, 564.8998
388.2881, 561.2490
388.7702, 559.0322
389.2523, 557.9696
389.7344, 557.2115
390.2166, 556.7631
390.6987, 556.1268
391.1808, 554.6295
391.6629, 552.0715
392.1450, 549.6270
392.6271, 548.3995
393.1093, 547.6605
393.5914, 546.4632
394.0735, 544.3430
394.5556, 541.7974
395.0377, 538.8231
395.5198, 535.4952
396.0020, 532.4789
396.4841, 529.9974
396.9662, 527.9062
397.4483, 526.1310
397.9304, 525.0574
398.4125, 523.7492
398.8947, 521.6719
399.3768, 519.2448
399.8589, 517.5095
400.3410, 517.6884
400.8231, 517.4657
401.3052, 516.0251
401.7874, 512.9798
402.2695, 510.1918
402.7516, 507.8635
403.2337, 505.6367
403.7158, 502.9745
404.1979, 499.1821
404.6800, 496.5096
405.1621, 495.7795
405.6443, 496.6310
406.1264, 496.2959
406.6085, 494.4258
407.0906, 492.3139
407.5727, 490.7337
408.0548, 489.6832
408.5370, 489.3005
409.0191, 489.7600
409.5012, 490.6161
409.9833, 491.2801
410.4654, 491.7450
410.9475, 491.5512
411.4297, 490.0798
411.9118, 487.7436
412.3939, 485.9106
412.8760, 484.6099
413.3581, 483.8199
413.8402, 483.6154
414.3224, 483.9242
414.8045, 484.6600
415.2866, 486.3174
415.7687, 487.7597
416.2508, 487.1508
416.7329, 484.9701
417.2151, 483.3207
417.6972, 483.7541
418.1793, 485.1630
418.6614, 486.7540
419.1435, 488.6527
419.6256, 489.6457
420.1078, 488.0965
420.5899, 485.4116
421.0720, 483.6136
421.5541, 484.0194
422.0362, 484.9039
422.5183, 485.6348
423.0005, 486.1830
423.4826, 486.8497
423.9647, 488.1806
424.4468, 489.3510
424.9289, 489.7988
425.4110, 488.6588
425.8932, 487.8006
426.3753, 487.3791
426.8574, 487.2686
427.3395, 487.1620
427.8216, 486.8773
428.3037, 486.8256
428.7859, 487.1417
429.2680, 487.8409
429.7501, 488.8653
430.2322, 490.5563
430.7143, 492.0735
431.1964, 492.2469
431.6786, 490.7169
432.1607, 489.7828
432.6428, 490.0797
433.1249, 491.1744
433.6070, 491.8348
434.0891, 492.0916
434.5713, 491.6809
435.0534, 489.8487
435.5355, 487.0573
436.0176, 485.4858
436.4997, 485.4051
436.9818, 486.1811
437.4640, 487.6226
437.9461, 489.3886
438.4282, 490.3571
438.9103, 489.0289
439.3924, 487.3239
439.8745, 487.9384
440.3567, 490.6242
440.8388, 493.3911
441.3209, 495.0180
441.8030, 496.0074
442.2851, 496.8911
442.7672, 497.8630
443.2494, 498.5382
443.7315, 498.2879
444.2136, 497.6342
444.6957, 497.5342
445.1778, 498.7200
445.6599, 500.1241
446.1421, 501.4151
446.6242, 502.5846
447.1063, 503.4986
447.5884, 504.1581
448.0705, 504.5512
448.5526, 504.6376
449.0348, 503.5845
449.5169, 503.4566
449.9990, 504.9866
450.4811, 507.4368
450.9632, 508.5565
451.4453, 507.5901
451.9275, 506.7689
452.4096, 507.2226
452.8917, 509.1413
453.3738, 509.6559
453.8559, 508.3297
454.3380, 506.6342
454.8202, 506.1230
455.3023, 506.8077
455.7844, 508.0957
456.2665, 510.1089
456.7486, 512.3627
457.2307, 513.8533
457.7129, 514.5958
458.1950, 514.9335
458.6771, 514.8873
459.1592, 514.6176
459.6413, 514.4033
460.1234, 514.2532
460.6056, 514.2559
461.0877, 515.1100
461.5698, 516.0693
462.0519, 515.8561
462.5340, 512.3757
463.0161, 509.0919
463.4983, 508.7244
463.9804, 510.6783
464.4625, 512.2532
464.9446, 512.0579
465.4267, 511.3509
465.9088, 510.9095
466.3910, 510.9985
466.8731, 510.8886
467.3552, 509.9169
467.8373, 508.8414
468.3194, 508.6351
468.8015, 510.1734
469.2837, 511.5958
469.7658, 512.8647
470.2479, 513.8981
470.7300, 513.7543
471.2121, 511.8429
471.6942, 509.6620
472.1764, 507.9013
472.6585, 506.4937
473.1406, 506.0528
473.6227, 506.8889
474.1048, 508.2052
474.5869, 508.8670
475.0691, 508.8739
475.5512, 508.5206
476.0333, 507.6883
476.5154, 506.6884
476.9975, 506.1633
477.4796, 506.1258
477.9618, 506.7775
478.4439, 509.0605
478.9260, 511.9654
479.4081, 513.4524
479.8902, 512.9866
480.3723, 512.1782
480.8545, 512.1436
481.3366, 512.7612
481.8187, 513.8257
482.3008, 515.5771
482.7829, 517.4615
483.2650, 519.2441
483.7472, 520.9236
484.2293, 522.4781
484.7114, 523.8738
485.1935, 525.1885
485.6756, 526.4709
486.1577, 527.8347
486.6399, 528.9779
487.1220, 529.5167
487.6041, 529.9656
488.0862, 530.9575
488.5683, 532.6008
489.0504, 534.6452
489.5326, 537.1426
490.0147, 540.0279
490.4968, 542.7274
490.9789, 545.1671
491.4610, 547.5306
491.9431, 549.8909
492.4253, 552.2034
492.9074, 554.6691
493.3895, 557.2787
493.8716, 560.1296
494.3537, 563.8909
494.8358, 568.2552
495.3180, 571.5162
495.8001, 572.2491
496.2822, 572.2459
496.7643, 574.3420
497.2464, 578.3152
497.7285, 582.7591
498.2107, 587.0377
498.6928, 591.2170
499.1749, 595.6711
499.6570, 600.6376
500.1391, 604.6699
500.6212, 605.7396
501.1034, 605.8558
501.5855, 607.4001
502.0676, 612.2549
502.5497, 617.2850
503.0318, 621.8001
503.5139, 625.8500
503.9961, 629.7602
504.4782, 634.0378
504.9603, 637.8024
505.4424, 640.5760
505.9245, 642.0195
506.4066, 644.0790
506.8888, 647.0800
507.3709, 650.2942
507.8530, 652.9308
508.3351, 654.8311
508.8172, 656.9330
509.2993, 659.5482
509.7815, 662.3093
510.2636, 664.0408
510.7457, 664.7701
511.2278, 665.8996
511.7099, 668.8957
512.1920, 672.7466
512.6741, 674.6656
513.1563, 674.5355
513.6384, 674.6104
514.1205, 677.5707
514.6026, 681.7377
515.0847, 684.5641
515.5668, 684.7013
516.0490, 684.6022
516.5311, 685.9745
517.0132, 688.1980
517.4953, 690.0153
517.9774, 690.4793
518.4595, 690.9307
518.9417, 692.1600
519.4238, 694.2718
519.9059, 695.5748
520.3880, 694.8229
520.8701, 694.0389
521.3522, 694.3674
521.8344, 696.5804
522.3165, 698.3386
522.7986, 699.6524
523.2807, 700.4797
523.7628, 700.5549
524.2449, 699.6829
524.7271, 699.1287
525.2092, 699.3098
525.6913, 700.0686
526.1734, 700.9910
526.6555, 702.0886
527.1376, 702.9337
527.6198, 703.4348
528.1019, 703.4306
528.5840, 702.1295
529.0661, 699.2630
529.5482, 696.7787
530.0303, 696.9672
530.5125, 698.5945
530.9946, 699.7489
531.4767, 699.5003
531.9588, 698.8950
532.4409, 698.2948
532.9230, 697.7472
533.4052, 697.3807
533.8873, 697.5104
534.3694, 697.5864
534.8515, 697.1747
535.3336, 696.0035
535.8157, 695.8401
536.2979, 697.9442
536.7800, 699.9949
537.2621, 700.1778
537.7442, 697.5504
538.2263, 695.4933
538.7084, 693.9744
539.1906, 693.3830
539.6727, 695.0123
540.1548, 699.1299
540.6369, 702.4477
541.1190, 703.5344
541.6011, 703.0795
542.0833, 703.0709
542.5654, 703.4833
543.0475, 703.7917
543.5296, 703.0677
544.0117, 702.1573
544.4938, 702.6871
544.9760, 705.0966
545.4581, 707.3033
545.9402, 707.6886
546.4223, 706.9647
546.9044, 706.0457
547.3865, 704.8028
547.8687, 703.8436
548.3508, 703.7637
548.8329, 704.1808
549.3150, 703.8760
549.7971, 702.4923
550.2792, 700.5333
550.7614, 698.0904
551.2435, 695.1826
551.7256, 692.0966
552.2077, 688.8092
552.6898, 685.4521
553.1719, 681.9545
553.6541, 678.1993
554.1362, 675.5447
554.6183, 674.4990
555.1004, 673.7389
555.5825, 670.8516
556.0646, 666.1510
556.5468, 661.8736
557.0289, 659.1852
557.5110, 657.0566
557.9931, 653.6858
558.4752, 649.3176
558.9573, 645.3620
559.4395, 642.9304
559.9216, 641.0730
560.4037, 638.9156
560.8858, 636.3122
561.3679, 633.8932
561.8500, 632.0543
562.3322, 630.4512
562.8143, 628.7571
563.2964, 626.7104
563.7785, 624.8744
564.2606, 623.3811
564.7427, 622.1048
565.2249, 620.7897
565.7070, 619.3561
566.1891, 618.0735
566.6712, 616.9766
567.1533, 616.0948
567.6354, 615.6148
568.1176, 615.6094
568.5997, 615.5411
569.0818, 614.6948
569.5639, 613.4172
570.0460, 613.4643
570.5281, 615.1356
571.0103, 616.5221
571.4924, 614.6479
571.9745, 611.3811
572.4566, 610.1053
572.9387, 612.8952
573.4208, 616.2232
573.9030, 617.9720
574.3851, 618.5801
574.8672, 619.0347
575.3493, 619.4443
575.8314, 619.9606
576.3135, 620.7325
576.7957, 621.7537
577.2778, 622.4629
577.7599, 622.1169
578.2420, 622.2537
578.7241, 623.8688
579.2062, 627.5792
579.6884, 630.1418
580.1705, 631.2117
580.6526, 631.8718
581.1347, 633.3627
581.6168, 635.6827
582.0989, 638.3508
582.5811, 641.3057
583.0632, 644.5150
583.5453, 648.1798
584.0274, 652.1722
584.5095, 655.8877
584.9916, 658.1072
585.4738, 660.5450
585.9559, 665.2756
586.4380, 672.0028
586.9201, 678.3801
587.4022, 682.8482
587.8843, 687.0012
588.3665, 691.7446
588.8486, 697.0381
589.3307, 703.3939
589.8128, 712.2012
590.2949, 721.3243
590.7770, 728.6560
591.2592, 733.0043
591.7413, 738.4131
592.2234, 745.3376
592.7055, 753.4847
593.1876, 762.3827
593.6697, 772.0813
594.1519, 782.1053
594.6340, 792.2811
595.1161, 802.4675
595.5982, 811.6161
596.0803, 819.9133
596.5624, 829.1251
597.0446, 841.7884
597.5267, 855.4916
598.0088, 866.6951
598.4909, 875.0598
598.9730, 883.1394
599.4551, 892.3961
599.9373, 902.0104
600.4194, 911.0389
600.9015, 917.8464
601.3836, 926.3172
601.8657, 938.5829
602.3478, 952.2510
602.8300, 964.0161
603.3121, 974.0321
603.7942, 981.7482
604.2763, 986.4346
604.7584, 988.9197
605.2405, 992.6521
605.7227, 997.7675
606.2048, 1003.450
606.6869, 1010.265
607.1690, 1017.384
607.6511, 1022.051
608.1332, 1024.270
608.6154, 1025.164
609.0975, 1024.680
609.5796, 1023.831
610.0617, 1024.313
610.5438, 1027.009
611.0259, 1028.825
611.5081, 1027.801
611.9902, 1025.042
612.4723, 1021.840
612.9544, 1019.184
613.4365, 1015.277
613.9186, 1008.773
614.4008, 1001.006
614.8829, 995.2745
615.3650, 993.2823
615.8471, 989.8010
616.3292, 982.6562
616.8113, 972.5225
617.2935, 964.0705
617.7756, 957.3239
618.2577, 951.2013
618.7398, 945.2172
619.2219, 939.2146
619.7040, 932.5433
620.1862, 925.1699
620.6683, 917.6102
621.1504, 910.3784
621.6325, 903.2430
622.1146, 895.6247
622.5967, 887.0961
623.0789, 878.9246
623.5610, 872.3420
624.0431, 866.2765
624.5252, 859.1884
625.0073, 848.7673
625.4894, 839.8253
625.9716, 833.4882
626.4537, 829.0462
626.9358, 823.9677
627.4179, 817.8699
627.9000, 812.2698
628.3821, 807.9480
628.8643, 804.6332
629.3464, 800.6573
629.8285, 796.0076
630.3106, 791.3212
630.7927, 787.0637
631.2748, 783.0997
631.7570, 779.2585
632.2391, 775.5420
632.7212, 771.6739
633.2033, 767.4730
633.6854, 763.0394
634.1675, 758.4818
634.6497, 753.3007
635.1318, 748.8925
635.6139, 746.5836
636.0960, 745.0028
636.5781, 741.9572
637.0602, 735.8846
637.5424, 730.8206
638.0245, 727.3489
638.5066, 725.2872
638.9887, 724.5152
639.4708, 725.4264
639.9529, 724.9583
640.4351, 720.7849
640.9172, 714.4022
641.3993, 711.3422
641.8814, 711.3419
642.3635, 710.8334
642.8456, 706.6676
643.3278, 700.9002
643.8099, 695.8934
644.2920, 691.9896
644.7741, 688.1810
645.2562, 684.0101
645.7383, 679.7647
646.2205, 675.7809
646.7026, 672.4071
647.1847, 668.7433
647.6668, 664.5466
648.1489, 660.1664
648.6310, 655.9792
649.1132, 652.1644
649.5953, 648.1786
650.0774, 643.8991
650.5595, 639.3953
651.0416, 634.5536
651.5237, 629.4316
652.0059, 624.5880
652.4880, 620.1887
652.9701, 616.2144
653.4522, 613.0294
653.9343, 610.3196
654.4164, 606.7276
654.8986, 600.0496
655.3807, 593.3087
655.8628, 589.0867
656.3449, 587.7610
656.8270, 585.4756
657.3091, 580.1425
657.7913, 574.5803
658.2734, 570.5183
658.7555, 568.6450
659.2376, 566.0118
659.7197, 562.1745
660.2018, 558.3151
660.6840, 555.9289
661.1661, 554.9660
661.6482, 553.7180
662.1303, 552.0783
662.6124, 549.5775
663.0945, 544.8626
663.5767, 538.7676
664.0588, 533.3610
664.5409, 529.5804
665.0230, 526.6425
665.5051, 524.6685
665.9872, 523.1539
666.4694, 520.8459
666.9515, 516.2280
667.4336, 511.9286
667.9157, 509.0040
668.3978, 507.2928
668.8799, 505.3869
669.3621, 503.0249
669.8442, 501.0066
670.3263, 500.0542
670.8084, 500.0518
671.2905, 498.2360
671.7726, 494.4463
672.2548, 490.3657
672.7369, 487.5168
673.2190, 485.4444
673.7011, 483.3308
674.1832, 481.0785
674.6653, 478.7405
675.1475, 476.1093
675.6296, 473.4811
676.1117, 471.2343
676.5938, 469.7764
677.0759, 468.1012
677.5580, 465.4633
678.0402, 462.7091
678.5223, 460.9546
679.0044, 460.7634
679.4865, 460.3975
679.9686, 459.6881
680.4507, 458.6098
680.9329, 456.8415
681.4150, 454.4068
681.8971, 452.3398
682.3792, 451.1388
682.8613, 450.4530
683.3434, 450.0389
683.8256, 449.7007
684.3077, 448.5892
684.7898, 444.9904
685.2719, 441.4679
685.7540, 440.3308
686.2361, 441.4510
686.7183, 441.7553
687.2004, 439.1387
687.6825, 436.7262
688.1646, 436.2222
688.6467, 438.0998
689.1288, 438.3465
689.6110, 436.3372
690.0931, 434.0192
690.5752, 432.9395
691.0573, 433.0191
691.5394, 433.1267
692.0215, 433.1829
692.5037, 433.2347
692.9858, 433.3548
693.4679, 433.4932
693.9500, 433.6440
694.4321, 433.9937
694.9142, 433.8406
695.3964, 432.0067
695.8785, 429.7063
696.3606, 428.5098
696.8427, 429.3848
697.3248, 430.6205
697.8069, 432.4742
698.2891, 434.3951
698.7712, 435.0502
699.2533, 433.9750
699.7354, 433.6168
700.2175, 434.9511
700.6996, 437.0755
701.1818, 437.6353
701.6639, 436.8251
702.1460, 435.9572
702.6281, 435.3566
703.1102, 435.2960
703.5923, 436.4911
704.0745, 438.6417
704.5566, 440.2965
705.0387, 439.8507
705.5208, 439.5753
706.0029, 440.8930
706.4850, 444.0502
706.9672, 446.3705
707.4493, 447.4403
707.9314, 448.1958
708.4135, 449.1742
708.8956, 450.4092
709.3777, 451.0011
709.8599, 450.8196
710.3420, 450.8196
710.8241, 452.0450
711.3062, 454.0939
711.7883, 456.0604
712.2704, 457.8486
712.7525, 459.5435
713.2346, 461.1465
713.7167, 462.7108
714.1989, 464.3055
714.6810, 465.9853
715.1631, 467.5721
715.6452, 469.1176
716.1273, 470.5118
716.6094, 471.6175
717.0916, 472.2986
717.5737, 472.9912
718.0558, 473.5655
718.5379, 474.4515
719.0200, 476.9102
719.5021, 480.6270
719.9843, 483.2702
720.4664, 483.4093
720.9485, 483.2186
721.4306, 485.8062
721.9127, 490.1076
722.3948, 493.5267
722.8770, 494.1499
723.3591, 494.5720
723.8412, 495.7051
724.3233, 497.4943
724.8054, 499.5956
725.2875, 502.2504
725.7697, 504.7747
726.2518, 506.9684
726.7339, 508.8383
727.2160, 510.4097
727.6981, 511.6227
728.1802, 513.2224
728.6624, 515.8390
729.1445, 519.0844
729.6266, 522.3615
730.1087, 525.5948
730.5908, 528.4133
731.0729, 530.4894
731.5551, 532.1766
732.0372, 533.7221
732.5193, 535.1566
733.0014, 536.4066
733.4835, 536.7730
733.9656, 537.6183
734.4478, 539.7464
734.9299, 543.4279
735.4120, 546.4935
735.8941, 548.7216
736.3762, 551.1037
736.8583, 554.8844
737.3405, 559.6045
737.8226, 563.2670
738.3047, 565.6270
738.7868, 567.8969
739.2689, 571.0585
739.7510, 574.7114
740.2332, 578.4314
740.7153, 582.1696
741.1974, 585.8607
741.6795, 590.0828
742.1616, 593.8350
742.6437, 596.0093
743.1259, 595.5159
743.6080, 596.2712
744.0901, 598.9379
744.5722, 602.1339
745.0543, 603.7530
745.5364, 603.9951
746.0186, 604.5212
746.5007, 605.7318
746.9828, 607.2600
747.4649, 608.6017
747.9470, 609.9908
748.4291, 611.8851
748.9113, 615.8914
749.3934, 618.6703
749.8755, 618.0534
750.3576, 615.6349
750.8397, 614.6629
751.3218, 616.9200
751.8040, 617.2035
752.2861, 613.8321
752.7682, 608.6091
753.2503, 605.9296
753.7324, 605.7518
754.2145, 605.8047
754.6967, 605.6359
755.1788, 604.8334
755.6609, 602.4876
756.1430, 598.9918
756.6251, 595.5009
757.1072, 592.8535
757.5894, 590.0516
758.0715, 586.0309
758.5536, 581.3168
759.0357, 578.2422
759.5178, 578.1393
759.9999, 577.7015
760.4821, 575.9733
760.9642, 573.1672
761.4463, 570.0911
761.9284, 566.7224
762.4105, 563.6647
762.8926, 561.4235
763.3748, 559.5607
763.8569, 557.3207
764.3390, 554.7328
764.8211, 552.1384
765.3032, 549.2258
765.7853, 546.7704
766.2675, 545.5740
766.7496, 545.6379
767.2317, 544.6915
767.7138, 541.6674
768.1959, 539.0586
768.6780, 538.1419
769.1602, 538.7581
769.6423, 538.7571
770.1244, 538.1259
770.6065, 537.0906
771.0886, 535.3056
771.5707, 533.4000
772.0529, 532.6943
772.5350, 533.1404
773.0171, 533.5263
773.4992, 532.6744
773.9813, 531.8776
774.4634, 532.0624
774.9456, 533.4453
775.4277, 534.7772
775.9098, 536.1225
776.3919, 537.2346
776.8740, 537.9383
777.3561, 538.2281
777.8383, 538.5351
778.3204, 538.8558
778.8025, 539.3605
779.2846, 540.1865
779.7667, 541.3141
780.2488, 542.8954
780.7310, 544.9674
781.2131, 546.6016
781.6952, 546.7594
782.1773, 546.6950
782.6594, 547.1984
783.1415, 548.3220
783.6237, 550.3049
784.1058, 553.4791
784.5879, 556.9748
785.0700, 560.2354
785.5521, 563.2656
786.0342, 565.7235
786.5164, 567.5295
786.9985, 569.4774
787.4806, 572.6248
787.9627, 576.2645
788.4448, 579.3871
788.9269, 581.8171
789.4091, 584.2859
789.8912, 587.0333
790.3733, 590.0721
790.8554, 593.5611
791.3375, 597.9252
791.8196, 601.4496
792.3018, 603.8884
792.7839, 606.0126
793.2660, 608.4813
793.7481, 611.2426
794.2302, 613.7839
794.7123, 615.9802
795.1945, 618.8328
795.6766, 624.3567
796.1587, 630.6024
796.6408, 635.0958
797.1229, 637.1505
797.6050, 638.7668
798.0872, 640.3091
798.5693, 641.9725
799.0514, 643.9700
799.5335, 646.5583
800.0156, 648.5943
800.4977, 649.8297
800.9799, 651.1427
801.4620, 653.4614
801.9441, 656.6002
802.4262, 659.8359
802.9083, 663.1391
803.3904, 665.9964
803.8726, 667.2787
804.3547, 668.2591
804.8368, 670.4742
805.3189, 674.6788
805.8010, 678.2082
806.2831, 680.1769
806.7653, 681.4432
807.2474, 682.3236
807.7295, 682.4923
808.2116, 684.0004
808.6937, 687.1156
809.1758, 690.5630
809.6580, 692.9050
810.1401, 694.6647
810.6222, 697.3011
811.1043, 701.0693
811.5864, 704.5992
812.0685, 706.2410
812.5507, 707.7090
813.0328, 710.6469
813.5149, 716.0667
813.9970, 720.3517
814.4791, 722.5265
814.9612, 724.5605
815.4434, 728.0130
815.9255, 732.8992
816.4076, 737.5770
816.8897, 741.9868
817.3718, 746.3401
817.8539, 750.6198
818.3361, 755.0650
818.8182, 760.0755
819.3003, 765.7355
819.7824, 771.6993
820.2645, 778.6271
820.7466, 785.1863
821.2288, 790.1156
821.7109, 792.7822
822.1930, 797.5287
822.6751, 805.1610
823.1572, 813.0615
823.6393, 819.2599
824.1215, 824.0051
824.6036, 828.2584
825.0857, 832.0198
825.5678, 836.0025
826.0499, 840.8451
826.5320, 845.9824
827.0142, 851.0280
827.4963, 855.9149
827.9784, 860.2413
828.4605, 863.3588
828.9426, 866.3612
829.4247, 869.7161
829.9069, 873.4373
830.3890, 877.0530
830.8711, 880.5729
831.3532, 883.8756
831.8353, 887.0364
832.3174, 889.8470
832.7996, 892.1320
833.2817, 893.7849
833.7638, 893.9015
834.2459, 889.7780
834.7280, 885.9026
835.2101, 885.5631
835.6923, 889.0447
836.1744, 890.2311
836.6565, 888.9120
837.1386, 885.6010
837.6207, 879.8392
838.1028, 872.3734
838.5850, 867.0868
839.0671, 863.7783
839.5492, 859.6389
840.0313, 852.0924
840.5134, 843.5964
840.9955, 836.3485
841.4777, 830.2418
841.9598, 824.0477
842.4419, 818.0588
842.9240, 811.1473
843.4061, 802.8683
843.8882, 793.4508
844.3704, 783.7156
844.8525, 773.5334
845.3346, 763.7855
845.8167, 754.8114
846.2988, 746.3411
846.7809, 738.4689
847.2631, 730.7523
847.7452, 721.8688
848.2273, 709.8271
848.7094, 697.9402
849.1915, 687.6559
849.6736, 678.5919
850.1558, 669.6432
850.6379, 661.0673
851.1200, 651.8566
851.6021, 641.3881
852.0842, 630.6900
852.5663, 622.4569
853.0485, 616.2150
853.5306, 609.2709
854.0127, 600.3403
854.4948, 591.2733
854.9769, 583.7396
855.4590, 577.1993
855.9412, 570.8830
856.4233, 565.1061
856.9054, 558.8613
857.3875, 551.4464
857.8696, 544.0242
858.3517, 538.5245
858.8339, 535.0401
859.3160, 530.6711
859.7981, 524.9545
860.2802, 518.6900
860.7623, 512.3286
861.2444, 506.1548
861.7266, 500.5279
862.2087, 495.7077
862.6908, 491.0561
863.1729, 486.1997
863.6550, 481.5695
864.1371, 477.6280
864.6193, 474.5102
865.1014, 471.5130
865.5835, 468.7285
866.0656, 465.6405
866.5477, 461.0661
867.0298, 455.8866
867.5120, 452.6148
867.9941, 451.4954
868.4762, 450.3164
868.9583, 447.3632
869.4404, 444.0694
869.9225, 441.5471
870.4047, 440.0924
870.8868, 437.8496
871.3689, 434.3288
871.8510, 430.9792
872.3331, 428.6661
872.8152, 427.1978
873.2974, 425.4554
873.7795, 423.4768
874.2616, 421.5945
874.7437, 420.2672
875.2258, 418.9390
875.7079, 417.2855
876.1901, 415.2357
876.6722, 412.4900
877.1543, 408.0158
877.6364, 403.9671
878.1185, 400.6415
878.6006, 398.1541
879.0828, 397.5694
879.5649, 398.8722
880.0470, 399.1181
880.5291, 396.5966
881.0112, 393.3628
881.4933, 391.9937
881.9755, 391.8870
882.4576, 391.8013
882.9397, 391.3753
883.4218, 390.8209
883.9039, 390.1626
884.3860, 389.4147
884.8682, 388.7154
885.3503, 388.1970
885.8324, 386.6395
886.3145, 383.5633
886.7966, 380.4306
887.2787, 379.6172
887.7609, 380.0002
888.2430, 379.3055
888.7251, 376.5290
889.2072, 374.4956
889.6893, 375.3896
890.1714, 376.9059
890.6536, 376.9857
891.1357, 375.1009
891.6178, 373.7684
892.0999, 373.1035
892.5820, 372.5537
893.0641, 371.8312
893.5463, 370.8372
894.0284, 368.8286
894.5105, 365.9116
894.9926, 364.0434
895.4747, 365.3858
895.9568, 367.3263
896.4390, 368.2708
896.9211, 368.1106
897.4032, 368.0154
897.8853, 368.3111
898.3674, 367.8076
898.8495, 365.5334
899.3317, 362.3627
899.8138, 361.1309
900.2959, 361.4913
900.7780, 361.6637
901.2601, 360.2162
901.7422, 358.7646
902.2244, 358.3386
902.7065, 358.6862
903.1886, 359.2152
903.6707, 360.1794
904.1528, 360.7072
904.6349, 360.6378
905.1171, 360.1085
905.5992, 359.3575
906.0813, 358.3630
906.5634, 356.7769
907.0455, 354.1678
907.5276, 352.1205
908.0098, 352.6280
908.4919, 354.0941
908.9740, 354.7393
909.4561, 353.9911
909.9382, 352.7697
910.4203, 350.6834
910.9025, 348.7928
911.3846, 348.0924
911.8667, 348.4887
912.3488, 349.0686
912.8309, 349.8056
913.3130, 350.4349
913.7952, 351.1012
914.2773, 351.3365
914.7594, 350.3216
915.2415, 348.0627
915.7236, 346.7371
916.2057, 347.0642
916.6879, 347.7732
917.1700, 348.5672
917.6521, 349.3582
918.1342, 349.8132
918.6163, 349.9212
919.0984, 349.5972
919.5806, 348.6413
920.0627, 347.4030
920.5448, 345.8494
921.0269, 344.3161
921.5090, 343.4777
921.9911, 344.5269
922.4733, 344.8857
922.9554, 343.9362
923.4375, 342.5619
923.9196, 342.2089
924.4017, 342.8103
924.8839, 343.1914
925.3660, 343.2027
925.8481, 342.7870
926.3302, 341.4684
926.8123, 339.9200
927.2944, 338.8299
927.7766, 338.2882
928.2587, 338.4089
928.7408, 340.0296
929.2229, 341.1305
929.7050, 340.1988
930.1871, 337.3902
930.6693, 335.2465
931.1514, 333.7582
931.6335, 332.7512
932.1156, 332.3060
932.5977, 332.1271
933.0798, 331.8953
933.5620, 331.6678
934.0441, 331.7607
934.5262, 333.1803
935.0083, 333.5524
935.4904, 331.7923
935.9725, 329.1262
936.4547, 328.8929
936.9368, 330.7849
937.4189, 331.6575
937.9010, 330.2274
938.3831, 328.3845
938.8652, 328.0210
939.3474, 328.2753
939.8295, 327.9548
940.3116, 326.0105
940.7937, 324.9965
941.2758, 325.4051
941.7579, 326.1444
942.2401, 326.2088
942.7222, 325.6825
943.2043, 325.3481
943.6864, 325.2475
944.1685, 324.8309
944.6506, 323.0857
945.1328, 321.3047
945.6149, 320.8166
946.0970, 321.6475
946.5791, 321.7740
947.0612, 320.6420
947.5433, 319.5446
948.0255, 318.7515
948.5076, 318.4026
948.9897, 319.7245
949.4718, 322.1520
949.9539, 322.6545
950.4360, 318.1362
950.9182, 313.9882
951.4003, 314.9153
951.8824, 318.2137
952.3645, 319.5740
952.8466, 317.7191
953.3287, 315.7856
953.8109, 313.6520
954.2930, 312.0224
954.7751, 312.0667
955.2572, 313.2682
955.7393, 314.0039
956.2214, 314.1008
956.7036, 314.0475
957.1857, 314.0511
957.6677, 314.0993
958.1498, 314.3750
958.6320, 314.8616
959.1141, 314.3451
959.5962, 312.4587
960.0783, 310.8376
960.5604, 310.3521
961.0425, 310.4699
961.5247, 309.7029
962.0068, 308.5016
962.4889, 308.2062
962.9710, 310.6620
963.4531, 312.6913
963.9352, 312.6451
964.4174, 311.6807
964.8995, 311.4298
965.3816, 311.9937
965.8637, 313.1162
966.3458, 315.0551
966.8279, 316.2447
967.3101, 313.9358
967.7922, 310.1464
968.2743, 308.3860
968.7564, 309.2013
969.2385, 309.5928
969.7206, 307.3004
970.2028, 305.5463
970.6849, 306.1937
971.1670, 308.8175
971.6491, 309.4087
972.1312, 307.9142
972.6133, 306.8675
973.0955, 308.0084
973.5776, 309.6618
974.0597, 309.9851
974.5418, 309.3236
975.0239, 308.3803
975.5060, 306.5120
975.9882, 305.6296
976.4703, 306.3462
976.9524, 307.6040
977.4345, 308.1376
977.9166, 308.0121
978.3987, 307.4991
978.8809, 306.5921
979.3630, 306.0757
979.8451, 306.9991
980.3272, 308.3236
980.8093, 309.2959
981.2914, 309.8399
981.7736, 309.6517
982.2557, 308.4136
982.7378, 307.1524
983.2199, 306.1935
983.7020, 305.5659
984.1841, 305.4374
984.6663, 305.7251
985.1484, 306.1517
985.6305, 307.0017
986.1126, 307.4231
986.5947, 306.4762
987.0768, 305.0833
987.5590, 304.6433
988.0411, 305.6043
988.5232, 305.8307
989.0053, 305.0913
989.4874, 304.1407
989.9695, 303.7570
990.4517, 303.6635
990.9338, 303.4003
991.4159, 302.9349
991.8980, 302.4650
992.3801, 301.5601
992.8622, 301.3022
993.3444, 302.4567
993.8265, 304.5357
994.3086, 305.2082
994.7907, 304.5094
995.2728, 303.8161
995.7549, 303.8554
996.2371, 303.6800
996.7192, 301.4894
997.2013, 298.7330
997.6834, 297.5481
998.1655, 299.9503
998.6476, 301.2975
999.1298, 301.0967
999.6119, 300.4518
1000.094, 300.2950
1000.576, 300.5249
1001.058, 300.7037
1001.540, 300.8171
1002.022, 300.9362
1002.505, 301.4219
1002.987, 301.6266
1003.469, 300.7311
1003.951, 299.1413
1004.433, 298.7325
1004.915, 299.8636
1005.397, 300.7712
1005.879, 301.0552
1006.362, 300.9330
1006.844, 300.3778
1007.326, 299.7604
1007.808, 299.9208
1008.290, 301.5054
1008.772, 302.3540
1009.254, 301.0037
1009.736, 299.3867
1010.218, 298.5093
1010.701, 298.3765
1011.183, 299.2520
1011.665, 301.1043
1012.147, 302.1446
1012.629, 300.5299
1013.111, 298.2220
1013.593, 296.7755
1014.075, 296.0726
1014.557, 295.7771
1015.040, 296.1064
1015.522, 296.2320
1016.004, 295.9121
1016.486, 295.6363
1016.968, 296.4153
1017.450, 297.7799
1017.932, 298.1915
1018.414, 297.3795
1018.897, 296.3824
1019.379, 295.5228
1019.861, 294.9064
1020.343, 294.6748
1020.825, 294.7769
1021.307, 294.6210
1021.789, 294.1270
1022.271, 294.2787
1022.753, 296.1276
1023.236, 297.8831
1023.718, 296.5071
1024.200, 293.5064
1024.682, 291.5448
1025.164, 292.4953
1025.646, 292.6923
1026.128, 291.3853
1026.610, 289.9829
1027.093, 289.8130
1027.575, 290.7074
1028.057, 291.8676
1028.539, 293.1900
1029.021, 293.7981
1029.503, 292.1844
1029.985, 290.5492
1030.467, 290.4695
1030.949, 291.5522
1031.432, 291.9839
1031.914, 291.5027
1032.396, 291.6089
1032.878, 292.8942
1033.360, 294.0812
1033.842, 293.0366
1034.324, 290.8386
1034.806, 289.2459
1035.289, 288.7807
1035.771, 287.9639
1036.253, 285.2672
1036.735, 283.6073
1037.217, 285.0573
1037.699, 288.8223
1038.181, 289.5690
1038.663, 287.6667
1039.146, 285.9523
1039.628, 285.8402
1040.110, 286.4190
1040.592, 287.7425
1041.074, 289.1173
1041.556, 289.2879
1042.038, 287.5794
1042.520, 286.7986
1043.002, 287.2749
1043.484, 287.9088
1043.967, 287.4901
1044.449, 286.6040
1044.931, 286.2182
1045.413, 286.3481
1045.895, 286.4373
1046.377, 285.9468
1046.859, 285.8836
1047.341, 286.9238
1047.824, 288.2605
1048.306, 287.3604
1048.788, 284.6874
1049.270, 283.6141
1049.752, 285.3271
1050.234, 287.2296
1050.716, 287.6825
1051.198, 287.1797
1051.681, 285.7493
1052.163, 283.2115
1052.645, 282.6338
1053.127, 284.4833
1053.609, 285.9077
1054.091, 284.7447
1054.573, 282.7594
1055.055, 283.2700
1055.537, 285.2166
1056.020, 286.1637
1056.502, 283.6414
1056.984, 282.5424
1057.466, 284.2253
1057.948, 286.3119
1058.430, 286.0851
1058.912, 283.9530
1059.394, 282.3361
1059.876, 281.3804
1060.359, 280.8885
1060.841, 280.9606
1061.323, 281.2440
1061.805, 281.6469
1062.287, 282.0854
1062.769, 282.2690
1063.251, 282.1419
1063.733, 282.1614
1064.216, 282.4389
1064.698, 282.8545
1065.180, 283.3615
1065.662, 283.8776
1066.144, 284.4253
1066.626, 285.1224
1067.108, 284.9142
1067.590, 283.2433
1068.073, 281.6229
1068.555, 280.6227
1069.037, 280.2555
1069.519, 281.0321
1070.001, 282.5470
1070.483, 283.3794
1070.965, 282.2216
1071.447, 281.4663
1071.929, 282.7394
1072.411, 284.3331
1072.894, 284.6911
1073.376, 283.7402
1073.858, 282.3203
1074.340, 280.4582
1074.822, 279.0150
1075.304, 279.0482
1075.786, 279.4109
1076.268, 278.9761
1076.751, 278.0530
1077.233, 277.7698
1077.715, 278.2966
1078.197, 279.2813
1078.679, 280.9155
1079.161, 282.2392
1079.643, 281.5316
1080.125, 279.8828
1080.608, 279.2870
1081.090, 280.0047
1081.572, 280.3946
1082.054, 279.0298
1082.536, 278.4386
1083.018, 279.8366
1083.500, 282.2421
1083.982, 282.8347
1084.464, 281.9039
1084.947, 280.7934
1085.429, 279.7489
1085.911, 279.1055
1086.393, 279.2818
1086.875, 279.7971
1087.357, 280.3680
1087.839, 281.0322
1088.321, 280.6516
1088.803, 279.1494
1089.286, 277.9967
1089.768, 278.4354
1090.250, 279.1416
1090.732, 278.5218
1091.214, 277.2335
1091.696, 276.5316
1092.178, 276.9290
1092.660, 277.3399
1093.142, 277.8712
1093.625, 278.0148
1094.107, 276.5998
1094.589, 274.7471
1095.071, 275.0260
1095.553, 277.1784
1096.035, 279.0874
1096.517, 280.1523
1096.999, 280.4690
1097.482, 279.8760
1097.964, 278.8186
1098.446, 277.7875
1098.928, 276.8953
1099.410, 276.8670
1099.892, 277.8517
1100.374, 278.9218
1100.856, 280.1701
1101.339, 280.6507
1101.821, 279.1877
1102.303, 276.4145
1102.785, 275.5925
1103.267, 276.8028
1103.749, 277.3794
1104.231, 276.2920
1104.713, 274.8994
1105.195, 273.9832
1105.677, 273.8280
1106.160, 275.1153
1106.642, 278.5571
1107.124, 279.9464
1107.606, 278.8000
1108.088, 277.4879
1108.570, 277.4400
1109.052, 277.7626
1109.534, 276.4396
1110.017, 274.3867
1110.499, 273.5241
1110.981, 275.6764
1111.463, 277.1475
1111.945, 277.6919
1112.427, 277.5052
1112.909, 276.2801
1113.391, 274.4922
1113.874, 274.1363
1114.356, 274.9720
1114.838, 275.3506
1115.320, 273.9806
1115.802, 272.6104
1116.284, 271.6171
1116.766, 271.0937
1117.248, 271.4508
1117.730, 272.5912
1118.213, 272.9064
1118.695, 272.2361
1119.177, 271.5470
1119.659, 271.4624
1120.141, 271.6714
1120.623, 272.1969
1121.105, 272.8394
1121.587, 272.8617
1122.069, 272.1817
1122.552, 271.7164
1123.034, 271.6944
1123.516, 271.7552
1123.998, 271.6134
1124.480, 271.3007
1124.962, 270.7393
1125.444, 269.8891
1125.926, 269.5041
1126.409, 269.6568
1126.891, 270.0961
1127.373, 270.9526
1127.855, 271.6528
1128.337, 271.0382
1128.819, 269.7112
1129.301, 268.6571
1129.783, 268.1777
1130.266, 267.8205
1130.748, 267.5341
1131.230, 267.3577
1131.712, 267.3607
1132.194, 267.4628
1132.676, 267.5058
1133.158, 267.4525
1133.640, 267.1807
1134.122, 266.1602
1134.604, 265.6937
1135.087, 266.4998
1135.569, 267.4494
1136.051, 267.5174
1136.533, 266.8505
1137.015, 266.7771
1137.497, 267.1872
1137.979, 267.1983
1138.461, 265.3709
1138.944, 264.1241
1139.426, 265.2842
1139.908, 267.2347
1140.390, 267.8224
1140.872, 267.0330
1141.354, 267.0111
1141.836, 267.9085
1142.318, 268.4415
1142.801, 266.8321
1143.283, 265.2890
1143.765, 265.9875
1144.247, 267.9464
1144.729, 267.9475
1145.211, 265.6417
1145.693, 264.2601
1146.175, 264.4166
1146.657, 264.6885
1147.140, 263.0833
1147.622, 261.3593
1148.104, 261.6231
1148.586, 263.8218
1149.068, 264.8925
1149.550, 264.6422
1150.032, 263.6424
1150.514, 261.6870
1150.996, 260.1132
1151.479, 261.7161
1151.961, 264.2578
1152.443, 264.4929
1152.925, 261.5672
1153.407, 260.0073
1153.889, 260.4739
1154.371, 261.2984
1154.853, 262.0234
1155.336, 262.4997
1155.818, 262.1485
1156.300, 261.4217
1156.782, 261.1664
1157.264, 261.7304
1157.746, 262.3254
1158.228, 263.0325
1158.710, 263.3963
1159.193, 263.0146
1159.675, 262.2311
1160.157, 261.8107
1160.639, 261.7479
1161.121, 262.0995
1161.603, 263.5981
1162.085, 264.0852
1162.567, 262.5889
1163.049, 260.7640
1163.531, 259.6591
1164.014, 259.1881
1164.496, 259.0516
1164.978, 259.1978
1165.460, 259.3920
1165.942, 259.6490
1166.424, 259.7632
1166.906, 259.3796
1167.388, 259.1267
1167.871, 259.8887
1168.353, 261.4538
1168.835, 261.6926
1169.317, 260.7016
1169.799, 259.8788
1170.281, 260.4026
1170.763, 260.7965
1171.245, 259.7291
1171.728, 258.6342
1172.210, 259.8389
1172.692, 263.1475
1173.174, 264.4827
1173.656, 263.5990
1174.138, 262.2420
1174.620, 261.4474
1175.102, 260.6415
1175.584, 259.1345
1176.067, 258.8604
1176.549, 257.1058
1177.031, 257.8674
1177.513, 258.0956
1177.995, 257.5435
1178.477, 257.4157
1178.959, 259.7211
1179.441, 261.7944
1179.923, 261.3151
1180.406, 259.1339
1180.888, 257.7859
1181.370, 257.2948
1181.852, 257.5900
1182.334, 258.7311
1182.816, 260.1320
1183.298, 262.1469
1183.780, 263.4818
1184.263, 262.1561
1184.745, 258.9155
1185.227, 258.2782
1185.709, 260.5149
1186.191, 262.1799
1186.673, 262.3823
1187.155, 261.9500
1187.637, 261.0817
1188.120, 260.4050
1188.602, 260.7736
1189.084, 262.1324
1189.566, 262.9674
1190.048, 263.2943
1190.530, 262.9159
1191.012, 261.5991
1191.494, 260.0293
1191.976, 258.4911
1192.458, 257.4058
1192.941, 257.4759
1193.423, 258.8250
1193.905, 259.6917
1194.387, 260.0577
1194.869, 260.0311
1195.351, 259.5767
1195.833, 258.9055
1196.315, 257.8044
1196.798, 256.8751
1197.280, 257.0748
1197.762, 258.7416
1198.244, 259.5100
1198.726, 259.2896
1199.208, 258.7109
1199.690, 257.6008
1200.172, 257.0292
1200.655, 259.0702
1201.137, 262.0364
1201.619, 263.4886
1202.101, 262.8633
1202.583, 262.0160
1203.065, 260.8867
1203.547, 259.9809
1204.029, 259.7554
1204.511, 259.6962
1204.994, 258.8476
1205.476, 257.8938
1205.958, 258.1444
1206.440, 260.4168
1206.922, 261.4067
1207.404, 261.0298
1207.886, 260.0442
1208.368, 258.0892
1208.850, 256.5875
1209.333, 257.8058
1209.815, 260.4735
1210.297, 262.2437
1210.779, 262.9146
1211.261, 262.7116
1211.743, 261.5214
1212.225, 260.2600
1212.707, 259.4664
1213.190, 259.0096
1213.672, 258.8551
1214.154, 258.8995
1214.636, 258.8576
1215.118, 258.3824
1215.600, 259.2473
1216.082, 261.7521
1216.564, 263.4827
1217.047, 261.6743
1217.529, 258.9648
1218.011, 257.6071
1218.493, 257.4277
1218.975, 257.9453
1219.457, 259.3099
1219.939, 260.4890
1220.421, 261.4325
1220.903, 262.1299
1221.385, 262.6876
1221.868, 262.8769
1222.350, 262.2177
1222.832, 261.0717
1223.314, 260.3625
1223.796, 260.2480
1224.278, 259.7185
1224.760, 258.6214
1225.242, 258.1829
1225.725, 260.3238
1226.207, 262.6574
1226.689, 263.1447
1227.171, 262.2313
1227.653, 261.1845
1228.135, 259.8510
1228.617, 259.8053
1229.099, 261.2339
1229.582, 262.4736
1230.064, 261.8790
1230.546, 260.9071
1231.028, 260.6993
1231.510, 260.9306
1231.992, 260.6740
1232.474, 259.8490
1232.956, 259.6650
1233.438, 260.2392
1233.921, 260.7151
1234.403, 260.0193
1234.885, 259.4142
1235.367, 260.1086
1235.849, 261.3806
1236.331, 261.9725
1236.813, 261.8859
1237.295, 260.5056
1237.777, 257.7811
1238.260, 255.8407
1238.742, 256.9594
1239.224, 258.5377
1239.706, 259.2372
1240.188, 259.3182
1240.670, 258.9079
1241.152, 258.1198
1241.634, 258.5329
1242.117, 260.2820
1242.599, 261.7433
1243.081, 262.0392
1243.563, 261.5685
1244.045, 260.1000
1244.527, 258.3632
1245.009, 257.5124
1245.491, 257.4588
1245.974, 257.8615
1246.456, 258.6494
1246.938, 259.1711
1247.420, 259.1265
1247.902, 258.6149
1248.384, 257.2437
1248.866, 256.0087
1249.348, 257.0782
1249.830, 259.5752
1250.313, 260.2744
1250.795, 259.0075
1251.277, 257.7306
1251.759, 256.9480
1252.241, 256.8160
1252.723, 257.5710
1253.205, 258.5987
1253.687, 258.9296
1254.169, 258.8628
1254.652, 259.0991
1255.134, 259.6619
1255.616, 260.1520
1256.098, 260.8257
1256.580, 260.5938
1257.062, 258.8472
1257.544, 257.1711
1258.026, 258.2820
1258.509, 260.4818
1258.991, 260.9232
1259.473, 259.6266
1259.955, 258.7575
1260.437, 258.8488
1260.919, 258.6644
1261.401, 257.9058
1261.883, 257.2693
1262.365, 257.9910
1262.848, 258.9414
1263.330, 258.5404
1263.812, 257.0081
1264.294, 256.1954
1264.776, 256.3455
1265.258, 256.4811
1265.740, 256.4420
1266.222, 256.5670
1266.704, 257.4276
1267.187, 258.3801
1267.669, 258.8654
1268.151, 258.9329
1268.633, 258.9340
1269.115, 258.8797
1269.597, 258.4063
1270.079, 257.4219
1270.561, 256.8644
1271.044, 257.7819
1271.526, 259.0395
1272.008, 260.1283
1272.490, 260.9015
1272.972, 261.0122
1273.454, 260.5042
1273.936, 259.8549
1274.418, 259.1281
1274.901, 258.8071
1275.383, 259.8387
1275.865, 260.5349
1276.347, 260.2089
1276.829, 259.2797
1277.311, 258.0815
1277.793, 256.7987
1278.275, 256.1184
1278.757, 256.0808
1279.240, 256.4501
1279.722, 257.4793
1280.204, 258.4901
1280.686, 259.6147
1281.168, 260.1594
1281.650, 258.5591
1282.132, 256.0512
1282.614, 255.3087
1283.096, 256.2402
1283.579, 257.4257
1284.061, 259.1778
1284.543, 259.7008
1285.025, 258.4953
1285.507, 257.1642
1285.989, 257.4846
1286.471, 258.4612
1286.953, 258.9952
1287.436, 259.0423
1287.918, 258.5545
1288.400, 257.2527
1288.882, 256.6053
1289.364, 256.7369
1289.846, 257.3162
1290.328, 258.6433
1290.810, 259.7458
1291.292, 259.6003
1291.775, 258.7261
1292.257, 258.1134
1292.739, 257.7426
1293.221, 258.2384
1293.703, 259.5543
1294.185, 260.2292
1294.667, 258.1814
1295.149, 256.6045
1295.631, 258.1036
1296.114, 260.1168
1296.596, 259.7923
1297.078, 257.5701
1297.560, 256.7348
1298.042, 257.1000
1298.524, 257.3797
1299.006, 256.4321
1299.488, 256.1814
1299.971, 257.2230
1300.453, 258.4187
1300.935, 259.0689
1301.417, 259.1588
1301.899, 258.2265
1302.381, 256.6461
1302.863, 255.4377
1303.345, 255.0486
1303.828, 254.8711
1304.310, 255.0359
1304.792, 255.0457
1305.274, 254.8559
##END=



