##NAMES=Stephanite
##RRUFFID=R050143
##IDEAL CHEMISTRY=Ag^1+^_5_Sb^3+^S^2-^_4_
##LOCALITY=Proano mine, Fresnillo, Zacatecas, Mexico
##OWNER=RRUFF
##SOURCE=Dave Bunk Minerals
##DESCRIPTION=Group of black pseudohexagonal crystals
##STATUS=The identification of this mineral has been confirmed by X-ray diffraction and chemical analysis
##URL=rruff.info/R050143
##MEASURED CHEMISTRY=Ag_5.00_Sb_1.00_S_4.00_
140.330, 2238.803
140.812, 2325.046
141.294, 2429.238
141.777, 2552.404
142.259, 2692.171
142.741, 2846.114
143.223, 3013.481
143.705, 3192.901
144.187, 3380.035
144.669, 3581.198
145.151, 3781.844
145.633, 3974.249
146.116, 4162.215
146.598, 4355.336
147.080, 4562.678
147.562, 4782.648
148.044, 4984.949
148.526, 5169.643
149.008, 5333.602
149.490, 5473.234
149.973, 5591.350
150.455, 5693.670
150.937, 5783.851
151.419, 5862.243
151.901, 5927.381
152.383, 5967.837
152.865, 6005.601
153.347, 6042.917
153.829, 6082.727
154.312, 6129.823
154.794, 6190.063
155.276, 6265.045
155.758, 6335.535
156.240, 6388.768
156.722, 6449.370
157.204, 6524.222
157.686, 6614.692
158.169, 6721.118
158.651, 6844.195
159.133, 6984.988
159.615, 7138.252
160.097, 7297.751
160.579, 7473.605
161.061, 7670.630
161.543, 7889.130
162.025, 8125.230
162.508, 8375.603
162.990, 8640.673
163.472, 8930.027
163.954, 9260.296
164.436, 9595.559
164.918, 9916.069
165.400, 10221.320
165.883, 10530.720
166.365, 10860.870
166.847, 11216.420
167.329, 11564.180
167.811, 11902.260
168.293, 12234.130
168.775, 12562.300
169.257, 12885.980
169.739, 13200.630
170.221, 13502.880
170.704, 13792.030
171.186, 14060.920
171.668, 14297.820
172.150, 14525.210
172.632, 14767.840
173.114, 15022.850
173.596, 15257.420
174.078, 15439.540
174.561, 15559.950
175.043, 15661.040
175.525, 15734.580
176.007, 15795.900
176.489, 15863.400
176.971, 15935.650
177.453, 15985.290
177.935, 15984.570
178.417, 15923.960
178.900, 15858.630
179.382, 15801.520
179.864, 15730.090
180.346, 15625.320
180.828, 15486.310
181.310, 15327.430
181.792, 15160.100
182.274, 14982.430
182.757, 14790.740
183.239, 14578.740
183.721, 14356.450
184.203, 14130.820
184.685, 13902.700
185.167, 13673.510
185.649, 13449.510
186.131, 13229.320
186.613, 12986.580
187.096, 12693.000
187.578, 12394.500
188.060, 12132.850
188.542, 11908.660
189.024, 11695.690
189.506, 11471.750
189.988, 11238.640
190.470, 11013.440
190.952, 10794.930
191.435, 10587.330
191.917, 10394.400
192.399, 10215.870
192.881, 10050.110
193.363, 9900.059
193.845, 9764.840
194.327, 9626.542
194.809, 9471.466
195.292, 9322.940
195.774, 9201.854
196.256, 9107.810
196.738, 9023.920
197.220, 8938.941
197.702, 8854.890
198.184, 8780.317
198.666, 8723.708
199.148, 8670.150
199.631, 8605.339
200.113, 8530.594
200.595, 8464.172
201.077, 8422.098
201.559, 8398.411
202.041, 8361.084
202.523, 8300.834
203.005, 8234.538
203.488, 8166.729
203.970, 8099.440
204.452, 8047.096
204.934, 8024.077
205.416, 8021.808
205.898, 8006.267
206.380, 7969.711
206.862, 7927.968
207.344, 7889.399
207.827, 7853.599
208.309, 7818.536
208.791, 7783.171
209.273, 7747.847
209.755, 7713.141
210.237, 7674.434
210.719, 7642.596
211.201, 7630.197
211.684, 7631.838
212.166, 7624.385
212.648, 7592.719
213.130, 7550.134
213.612, 7528.966
214.094, 7543.260
214.576, 7550.961
215.058, 7523.977
215.540, 7473.372
216.023, 7431.431
216.505, 7409.274
216.987, 7403.973
217.469, 7412.146
217.951, 7441.918
218.433, 7462.037
218.915, 7451.349
219.397, 7422.304
219.880, 7403.897
220.362, 7407.409
220.844, 7420.928
221.326, 7423.035
221.808, 7411.347
222.290, 7402.654
222.772, 7410.748
223.254, 7423.730
223.736, 7416.053
224.219, 7376.827
224.701, 7330.774
225.183, 7319.458
225.665, 7347.081
226.147, 7363.260
226.629, 7346.091
227.111, 7314.723
227.593, 7294.417
228.076, 7290.354
228.558, 7295.450
229.040, 7302.443
229.522, 7311.146
230.004, 7322.995
230.486, 7340.163
230.968, 7359.545
231.450, 7378.726
231.932, 7397.337
232.415, 7413.506
232.897, 7421.662
233.379, 7421.143
233.861, 7439.566
234.343, 7498.367
234.825, 7562.599
235.307, 7597.314
235.789, 7603.507
236.271, 7616.529
236.754, 7668.646
237.236, 7759.432
237.718, 7826.255
238.200, 7839.093
238.682, 7855.439
239.164, 7915.057
239.646, 8011.542
240.128, 8111.550
240.611, 8195.647
241.093, 8263.939
241.575, 8320.419
242.057, 8343.391
242.539, 8378.481
243.021, 8452.859
243.503, 8554.105
243.985, 8652.460
244.467, 8733.307
244.950, 8799.384
245.432, 8861.413
245.914, 8914.323
246.396, 8970.136
246.878, 9040.972
247.360, 9114.904
247.842, 9174.107
248.324, 9210.970
248.807, 9229.136
249.289, 9235.951
249.771, 9228.599
250.253, 9213.456
250.735, 9193.706
251.217, 9164.874
251.699, 9116.405
252.181, 9045.962
252.663, 8970.354
253.146, 8917.160
253.628, 8900.802
254.110, 8879.499
254.592, 8846.277
255.074, 8812.676
255.556, 8787.375
256.038, 8771.746
256.520, 8761.988
257.003, 8753.441
257.485, 8744.174
257.967, 8744.808
258.449, 8768.176
258.931, 8788.690
259.413, 8790.220
259.895, 8775.299
260.377, 8756.714
260.859, 8744.305
261.342, 8737.868
261.824, 8743.572
262.306, 8773.037
262.788, 8802.322
263.270, 8822.950
263.752, 8838.173
264.234, 8856.237
264.716, 8883.321
265.198, 8916.784
265.681, 8938.769
266.163, 8930.828
266.645, 8933.504
267.127, 8961.924
267.609, 9001.529
268.091, 9032.837
268.573, 9046.546
269.056, 9051.871
269.538, 9071.814
270.020, 9113.868
270.502, 9157.067
270.984, 9193.726
271.466, 9233.060
271.948, 9285.187
272.430, 9352.384
272.912, 9424.183
273.395, 9482.430
273.877, 9520.320
274.359, 9571.650
274.841, 9648.947
275.323, 9733.847
275.805, 9815.146
276.287, 9892.994
276.769, 9976.377
277.251, 10073.500
277.734, 10184.420
278.216, 10302.490
278.698, 10432.200
279.180, 10563.990
279.662, 10688.780
280.144, 10810.300
280.626, 10939.160
281.108, 11077.800
281.591, 11228.440
282.073, 11404.470
282.555, 11615.310
283.037, 11829.310
283.519, 12011.610
284.001, 12189.090
284.483, 12406.870
284.965, 12691.740
285.447, 13012.890
285.930, 13328.650
286.412, 13635.290
286.894, 13955.540
287.376, 14297.440
287.858, 14660.800
288.340, 15045.300
288.822, 15446.720
289.304, 15877.800
289.786, 16357.330
290.269, 16880.881
290.751, 17405.869
291.233, 17907.600
291.715, 18422.570
292.197, 19002.449
292.679, 19652.961
293.161, 20323.000
293.643, 20988.721
294.125, 21661.600
294.608, 22373.430
295.090, 23132.600
295.572, 23896.779
296.054, 24614.961
296.536, 25284.641
297.018, 25935.270
297.500, 26576.631
297.983, 27193.971
298.465, 27782.619
298.947, 28335.650
299.429, 28816.539
299.911, 29190.990
300.393, 29456.330
300.875, 29673.471
301.357, 29848.160
301.839, 29972.740
302.322, 30005.170
302.804, 29984.490
303.286, 29993.900
303.768, 30076.320
304.250, 30218.539
304.732, 30377.520
305.214, 30467.449
305.696, 30684.029
306.178, 31061.580
306.661, 31565.619
307.143, 32157.221
307.625, 32826.711
308.107, 33590.398
308.589, 34479.422
309.071, 35507.680
309.553, 36647.680
310.035, 37870.699
310.517, 39200.230
311.000, 40663.262
311.482, 42246.781
311.964, 43924.320
312.446, 45665.891
312.928, 47471.480
313.410, 49338.160
313.892, 51287.059
314.374, 53294.930
314.857, 55431.859
315.339, 57607.230
315.821, 59687.699
316.303, 61613.762
316.785, 63373.922
317.267, 64958.680
317.749, 66444.570
318.231, 67563.109
318.714, 68236.008
319.196, 68546.547
319.678, 68525.781
320.160, 68173.930
320.642, 67568.461
321.124, 66716.133
321.606, 65613.906
322.088, 64553.539
322.570, 63527.141
323.052, 62650.531
323.535, 61989.559
324.017, 61544.422
324.499, 61260.289
324.981, 61167.469
325.463, 61209.578
325.945, 61293.371
326.427, 61454.270
326.909, 61506.211
327.392, 61366.211
327.874, 61006.770
328.356, 60274.328
328.838, 59157.961
329.320, 57648.039
329.802, 55685.520
330.284, 53288.820
330.766, 50609.660
331.249, 47677.910
331.731, 44558.219
332.213, 41493.141
332.695, 38394.328
333.177, 35437.129
333.659, 32635.750
334.141, 30011.551
334.623, 27570.340
335.105, 25325.990
335.588, 23269.520
336.070, 21393.270
336.552, 19726.730
337.034, 18228.480
337.516, 16932.131
337.998, 15769.090
338.480, 14713.930
338.962, 13757.030
339.444, 12890.410
339.927, 12110.280
340.409, 11417.310
340.891, 10781.420
341.373, 10212.000
341.855, 9694.796
342.337, 9232.912
342.819, 8819.387
343.301, 8444.517
343.784, 8107.665
344.266, 7802.445
344.748, 7520.068
345.230, 7261.849
345.712, 7022.174
346.194, 6796.746
346.676, 6588.047
347.158, 6401.432
347.641, 6235.502
348.123, 6079.994
348.605, 5923.705
349.087, 5767.006
349.569, 5625.589
350.051, 5505.554
350.533, 5394.374
351.015, 5282.703
351.497, 5172.520
351.979, 5068.537
352.462, 4975.331
352.944, 4887.739
353.426, 4798.432
353.908, 4707.275
354.390, 4616.755
354.872, 4524.339
355.354, 4435.967
355.836, 4363.192
356.319, 4316.632
356.801, 4263.373
357.283, 4178.477
357.765, 4076.489
358.247, 3988.488
358.729, 3923.144
359.211, 3870.015
359.693, 3816.706
360.176, 3762.880
360.658, 3710.529
361.140, 3663.902
361.622, 3615.274
362.104, 3555.925
362.586, 3488.335
363.068, 3423.899
363.550, 3370.885
364.032, 3328.678
364.515, 3288.537
364.997, 3249.305
365.479, 3213.735
365.961, 3188.695
366.443, 3165.064
366.925, 3129.490
367.407, 3077.853
367.889, 3020.955
368.371, 2976.219
368.854, 2945.918
369.336, 2921.389
369.818, 2912.742
370.300, 2900.586
370.782, 2871.691
371.264, 2828.888
371.746, 2786.602
372.228, 2756.088
372.711, 2734.438
373.193, 2710.221
373.675, 2682.633
374.157, 2654.378
374.639, 2626.538
375.121, 2598.869
375.603, 2571.581
376.085, 2545.624
376.568, 2518.153
377.050, 2484.817
377.532, 2447.138
378.014, 2411.897
378.496, 2380.755
378.978, 2353.735
379.460, 2332.977
379.942, 2319.382
380.424, 2301.165
380.906, 2270.883
381.389, 2237.794
381.871, 2212.506
382.353, 2195.199
382.835, 2177.464
383.317, 2151.812
383.799, 2119.352
384.281, 2097.207
384.763, 2093.118
385.246, 2088.601
385.728, 2081.377
386.210, 2070.244
386.692, 2051.605
387.174, 2024.497
387.656, 1996.038
388.138, 1978.809
388.620, 1977.991
389.103, 1976.020
389.585, 1973.639
390.067, 1969.336
390.549, 1961.241
391.031, 1950.239
391.513, 1939.457
391.995, 1931.882
392.477, 1926.032
392.959, 1915.055
393.442, 1896.016
393.924, 1878.779
394.406, 1869.182
394.888, 1862.733
395.370, 1855.087
395.852, 1845.607
396.334, 1833.766
396.816, 1817.289
397.298, 1797.556
397.781, 1780.813
398.263, 1768.838
398.745, 1759.372
399.227, 1750.626
399.709, 1742.550
400.191, 1734.097
400.673, 1726.502
401.155, 1717.384
401.638, 1703.954
402.120, 1686.919
402.602, 1669.427
403.084, 1652.829
403.566, 1637.730
404.048, 1626.103
404.530, 1624.623
405.012, 1618.196
405.495, 1600.510
405.977, 1580.527
406.459, 1566.686
406.941, 1560.491
407.423, 1557.451
407.905, 1552.596
408.387, 1545.605
408.869, 1540.627
409.351, 1544.334
409.833, 1542.283
410.316, 1525.157
410.798, 1500.172
411.280, 1478.534
411.762, 1464.370
412.244, 1457.186
412.726, 1459.026
413.208, 1470.800
413.690, 1477.986
414.173, 1475.766
414.655, 1467.833
415.137, 1457.556
415.619, 1444.814
416.101, 1434.015
416.583, 1428.424
417.065, 1425.049
417.547, 1419.054
418.030, 1410.213
418.512, 1403.396
418.994, 1403.238
419.476, 1407.973
419.958, 1405.964
420.440, 1389.218
420.922, 1376.456
421.404, 1376.055
421.886, 1380.882
422.369, 1381.736
422.851, 1376.040
423.333, 1367.765
423.815, 1362.307
424.297, 1360.901
424.779, 1356.808
425.261, 1345.391
425.743, 1335.900
426.225, 1333.562
426.708, 1335.433
427.190, 1335.895
427.672, 1332.167
428.154, 1325.144
428.636, 1315.211
429.118, 1301.197
429.600, 1291.365
430.082, 1291.140
430.565, 1293.468
431.047, 1291.123
431.529, 1283.948
432.011, 1278.564
432.493, 1280.335
432.975, 1284.994
433.457, 1286.275
433.939, 1283.683
434.422, 1277.512
434.904, 1265.662
435.386, 1250.731
435.868, 1245.765
436.350, 1257.977
436.832, 1269.920
437.314, 1278.285
437.796, 1283.539
438.278, 1285.250
438.760, 1283.683
439.243, 1281.407
439.725, 1280.858
440.207, 1281.293
440.689, 1288.366
441.171, 1313.548
441.653, 1333.532
442.135, 1337.287
442.617, 1332.112
443.100, 1330.117
443.582, 1336.913
444.064, 1347.803
444.546, 1355.007
445.028, 1358.053
445.510, 1363.944
445.992, 1378.564
446.474, 1391.433
446.957, 1391.917
447.439, 1381.406
447.921, 1371.615
448.403, 1369.463
448.885, 1368.510
449.367, 1360.232
449.849, 1345.321
450.331, 1332.101
450.813, 1325.885
451.296, 1322.992
451.778, 1312.549
452.260, 1288.137
452.742, 1267.094
453.224, 1251.744
453.706, 1239.919
454.188, 1231.066
454.670, 1224.336
455.152, 1217.391
455.635, 1207.941
456.117, 1196.373
456.599, 1186.563
457.081, 1175.924
457.563, 1171.531
458.045, 1180.685
458.527, 1193.194
459.009, 1198.097
459.492, 1192.543
459.974, 1183.811
460.456, 1178.682
460.938, 1176.175
461.420, 1170.850
461.902, 1160.746
462.384, 1151.801
462.866, 1150.194
463.349, 1153.870
463.831, 1154.523
464.313, 1149.047
464.795, 1142.862
465.277, 1137.987
465.759, 1134.557
466.241, 1133.748
466.723, 1135.960
467.205, 1137.810
467.688, 1133.876
468.170, 1121.007
468.652, 1114.693
469.134, 1120.576
469.616, 1126.343
470.098, 1125.968
470.580, 1122.058
471.062, 1120.299
471.544, 1123.679
472.027, 1128.958
472.509, 1130.283
472.991, 1127.199
473.473, 1123.495
473.955, 1119.285
474.437, 1115.246
474.919, 1112.396
475.401, 1110.425
475.884, 1107.449
476.366, 1101.319
476.848, 1094.856
477.330, 1090.678
477.812, 1088.837
478.294, 1089.945
478.776, 1095.191
479.258, 1101.468
479.741, 1102.233
480.223, 1093.490
480.705, 1086.958
481.187, 1082.026
481.669, 1080.036
482.151, 1084.377
482.633, 1092.825
483.115, 1098.570
483.597, 1096.685
484.079, 1089.639
484.562, 1085.731
485.044, 1086.215
485.526, 1086.606
486.008, 1084.238
486.490, 1082.612
486.972, 1085.709
487.454, 1093.195
487.936, 1098.374
488.419, 1095.808
488.901, 1089.086
489.383, 1083.144
489.865, 1078.223
490.347, 1076.720
490.829, 1081.009
491.311, 1088.763
491.793, 1093.428
492.276, 1093.767
492.758, 1093.953
493.240, 1095.187
493.722, 1096.099
494.204, 1094.962
494.686, 1092.097
495.168, 1089.691
495.650, 1089.704
496.132, 1091.389
496.615, 1090.445
497.097, 1085.224
497.579, 1080.583
498.061, 1077.921
498.543, 1075.989
499.025, 1073.775
499.507, 1071.171
499.989, 1068.793
500.471, 1067.174
500.954, 1066.023
501.436, 1065.604
501.918, 1066.079
502.400, 1063.281
502.882, 1053.255
503.364, 1039.154
503.846, 1030.759
504.328, 1029.830
504.810, 1030.100
505.293, 1030.366
505.775, 1031.375
506.257, 1034.934
506.739, 1040.379
507.221, 1044.539
507.703, 1045.133
508.185, 1042.224
508.668, 1035.246
509.150, 1019.307
509.632, 1008.932
510.114, 1010.017
510.596, 1015.635
511.078, 1022.567
511.560, 1029.835
512.042, 1032.847
512.524, 1025.365
513.006, 1012.778
513.489, 1004.575
513.971, 1001.167
514.453, 1001.139
514.935, 1004.539
515.417, 1010.162
515.899, 1015.137
516.381, 1020.294
516.864, 1023.242
517.346, 1023.734
517.828, 1021.873
518.310, 1015.576
518.792, 1006.542
519.274, 1000.407
519.756, 1001.544
520.238, 1007.778
520.720, 1011.878
521.203, 1014.031
521.685, 1013.507
522.167, 1007.874
522.649, 1001.095
523.131, 995.769
523.613, 991.892
524.095, 988.086
524.577, 982.783
525.059, 977.692
525.542, 975.696
526.024, 976.391
526.506, 976.586
526.988, 975.000
527.470, 971.851
527.952, 967.196
528.434, 958.416
528.916, 954.470
529.398, 959.883
529.881, 965.915
530.363, 967.543
530.845, 965.707
531.327, 963.700
531.809, 963.363
532.291, 963.195
532.773, 959.815
533.255, 952.687
533.737, 946.725
534.220, 942.874
534.702, 940.150
535.184, 936.109
535.666, 932.052
536.148, 933.279
536.630, 947.415
537.112, 961.521
537.594, 965.401
538.077, 962.056
538.559, 958.586
539.041, 957.236
539.523, 955.047
540.005, 947.424
540.487, 932.481
540.969, 924.642
541.451, 930.087
541.933, 935.600
542.416, 938.652
542.898, 939.282
543.380, 936.801
543.862, 930.979
544.344, 925.915
544.826, 927.414
545.308, 933.688
545.791, 935.742
546.273, 932.037
546.755, 927.748
547.237, 926.301
547.719, 926.878
548.201, 926.392
548.683, 924.739
549.165, 922.252
549.647, 918.283
550.130, 913.954
550.612, 909.610
551.094, 905.830
551.576, 904.652
552.058, 908.144
552.540, 915.014
553.022, 919.389
553.504, 921.127
553.987, 920.655
554.469, 915.980
554.951, 910.536
555.433, 906.698
555.915, 904.503
556.397, 902.625
556.879, 900.044
557.361, 897.729
557.843, 897.595
558.326, 899.011
558.808, 898.208
559.290, 893.170
559.772, 887.661
560.254, 888.405
560.736, 898.778
561.218, 904.689
561.700, 904.113
562.182, 901.873
562.665, 899.207
563.147, 896.440
563.629, 893.976
564.111, 892.037
564.593, 889.612
565.075, 884.685
565.557, 877.776
566.039, 873.115
566.521, 871.619
567.004, 870.810
567.486, 868.783
567.968, 866.078
568.450, 864.828
568.932, 865.512
569.414, 866.944
569.896, 869.705
570.378, 872.512
570.860, 875.212
571.343, 876.978
571.825, 874.217
572.307, 862.652
572.789, 846.149
573.271, 842.976
573.753, 859.540
574.235, 870.737
574.718, 866.290
575.200, 858.199
575.682, 855.606
576.164, 858.314
576.646, 861.836
577.128, 866.114
577.610, 869.179
578.092, 868.183
578.574, 864.422
579.057, 861.757
579.539, 861.563
580.021, 862.542
580.503, 862.977
580.985, 862.817
581.467, 862.406
581.949, 861.144
582.431, 860.299
582.914, 860.999
583.396, 861.942
583.878, 861.297
584.360, 858.581
584.842, 855.593
585.324, 854.510
585.806, 854.143
586.288, 850.837
586.770, 844.306
587.253, 838.899
587.735, 836.580
588.217, 837.597
588.699, 842.917
589.181, 857.711
589.663, 867.555
590.145, 868.795
590.627, 868.101
591.109, 869.954
591.592, 873.346
592.074, 874.582
592.556, 871.412
593.038, 867.085
593.520, 867.693
594.002, 872.907
594.484, 874.782
594.966, 870.884
595.448, 866.671
595.931, 867.268
596.413, 871.502
596.895, 872.609
597.377, 863.057
597.859, 859.648
598.341, 873.317
598.823, 892.008
599.305, 902.972
599.787, 904.891
600.270, 903.666
600.752, 903.955
601.234, 904.554
601.716, 900.085
602.198, 888.521
602.680, 880.704
603.162, 880.312
603.644, 883.506
604.127, 888.008
604.609, 893.374
605.091, 895.895
605.573, 890.751
606.055, 886.488
606.537, 890.723
607.019, 899.016
607.501, 903.320
607.984, 901.473
608.466, 896.333
608.948, 890.060
609.430, 882.904
609.912, 882.578
610.394, 895.164
610.876, 902.955
611.358, 893.648
611.841, 881.403
612.323, 879.896
612.805, 890.063
613.287, 900.169
613.769, 906.196
614.251, 908.997
614.733, 907.135
615.215, 902.628
615.697, 902.418
616.180, 909.434
616.662, 917.790
617.144, 918.707
617.626, 911.114
618.108, 902.704
618.590, 888.856
619.072, 880.427
619.554, 886.186
620.036, 896.153
620.519, 897.439
621.001, 887.151
621.483, 876.864
621.965, 873.668
622.447, 874.516
622.929, 875.891
623.411, 877.353
623.893, 877.661
624.375, 875.889
624.858, 874.269
625.340, 877.653
625.822, 889.196
626.304, 896.093
626.786, 894.209
627.268, 891.979
627.750, 893.551
628.232, 896.116
628.714, 894.432
629.197, 886.433
629.679, 879.581
630.161, 882.361
630.643, 888.990
631.125, 886.217
631.607, 874.295
632.089, 868.418
632.571, 878.330
633.054, 896.175
633.536, 903.084
634.018, 893.467
634.500, 885.132
634.982, 877.390
635.464, 871.574
635.946, 868.445
636.428, 867.582
636.911, 868.732
637.393, 872.304
637.875, 875.200
638.357, 873.722
638.839, 870.023
639.321, 869.265
639.803, 871.716
640.285, 872.976
640.768, 870.231
641.250, 864.820
641.732, 860.345
642.214, 856.360
642.696, 854.209
643.178, 854.156
643.660, 855.544
644.142, 860.836
644.624, 866.765
645.107, 866.257
645.589, 855.380
646.071, 844.958
646.553, 845.560
647.035, 852.902
647.517, 859.609
647.999, 864.576
648.481, 865.134
648.963, 858.771
649.446, 848.703
649.928, 844.302
650.410, 849.926
650.892, 852.291
651.374, 846.117
651.856, 841.974
652.338, 846.125
652.820, 855.387
653.302, 863.746
653.785, 869.302
654.267, 873.661
654.749, 878.118
655.231, 882.182
655.713, 885.352
656.195, 887.427
656.677, 886.761
657.159, 881.763
657.641, 875.279
658.124, 875.344
658.606, 887.411
659.088, 892.474
659.570, 883.614
660.052, 874.504
660.534, 870.746
661.016, 870.556
661.498, 871.137
661.981, 872.484
662.463, 871.740
662.945, 864.911
663.427, 856.078
663.909, 851.128
664.391, 850.108
664.873, 850.532
665.355, 851.266
665.838, 851.409
666.320, 848.565
666.802, 841.299
667.284, 836.794
667.766, 837.189
668.248, 837.584
668.730, 836.542
669.212, 833.835
669.695, 828.857
670.177, 821.167
670.659, 812.861
671.141, 804.119
671.623, 795.703
672.105, 788.109
672.587, 781.490
673.069, 775.701
673.551, 770.701
674.034, 767.440
674.516, 768.753
674.998, 775.301
675.480, 776.781
675.962, 771.023
676.444, 764.964
676.926, 762.021
677.408, 760.483
677.890, 757.081
678.373, 750.851
678.855, 747.968
679.337, 753.299
679.819, 759.262
680.301, 761.942
680.783, 761.096
681.265, 755.311
681.747, 744.617
682.229, 735.156
682.712, 734.733
683.194, 741.924
683.676, 749.458
684.158, 758.571
684.640, 759.156
685.122, 742.422
685.604, 722.002
686.086, 718.276
686.568, 734.543
687.051, 746.602
687.533, 753.998
688.015, 757.219
688.497, 754.184
688.979, 748.326
689.461, 743.469
689.943, 740.294
690.425, 737.094
690.908, 730.936
691.390, 724.932
691.872, 726.649
692.354, 735.036
692.836, 741.341
693.318, 743.186
693.800, 741.617
694.282, 736.826
694.765, 728.979
695.247, 725.354
695.729, 727.801
696.211, 732.088
696.693, 740.888
697.175, 748.708
697.657, 750.534
698.139, 747.324
698.622, 744.279
699.104, 744.587
699.586, 744.488
700.068, 738.402
700.550, 730.132
701.032, 728.635
701.514, 734.594
701.996, 739.999
702.478, 738.800
702.961, 732.958
703.443, 729.283
703.925, 729.233
704.407, 725.423
704.889, 710.644
705.371, 700.443
705.853, 710.666
706.335, 731.312
706.817, 740.615
707.300, 731.413
707.782, 721.605
708.264, 716.871
708.746, 714.557
709.228, 712.917
709.710, 711.573
710.192, 709.901
710.674, 707.568
711.156, 706.399
711.639, 711.399
712.121, 720.924
712.603, 719.916
713.085, 705.648
713.567, 695.139
714.049, 697.263
714.531, 706.583
715.013, 714.491
715.495, 722.404
715.978, 723.229
716.460, 708.726
716.942, 696.997
717.424, 696.642
717.906, 701.437
718.388, 703.648
718.870, 702.071
719.352, 701.047
719.835, 705.364
720.317, 710.545
720.799, 710.024
721.281, 705.205
721.763, 700.045
722.245, 695.710
722.727, 694.368
723.209, 699.207
723.692, 708.756
724.174, 710.496
724.656, 700.215
725.138, 692.599
725.620, 691.372
726.102, 692.518
726.584, 692.528
727.066, 692.260
727.549, 695.107
728.031, 706.735
728.513, 713.722
728.995, 704.744
729.477, 692.868
729.959, 693.330
730.441, 703.522
730.923, 710.483
731.405, 707.197
731.888, 698.999
732.370, 692.554
732.852, 687.919
733.334, 685.521
733.816, 685.426
734.298, 687.724
734.780, 693.656
735.262, 700.070
735.744, 699.920
736.227, 688.957
736.709, 685.101
737.191, 697.817
737.673, 706.207
738.155, 699.157
738.637, 686.781
739.119, 681.665
739.601, 685.427
740.083, 688.457
740.566, 683.506
741.048, 677.659
741.530, 679.070
742.012, 684.558
742.494, 687.173
742.976, 685.265
743.458, 681.194
743.940, 676.956
744.422, 672.329
744.905, 665.124
745.387, 654.051
745.869, 649.990
746.351, 656.563
746.833, 667.600
747.315, 681.295
747.797, 695.700
748.279, 701.524
748.762, 692.293
749.244, 685.268
749.726, 683.758
750.208, 683.665
750.690, 682.744
751.172, 681.129
751.654, 679.334
752.136, 677.430
752.619, 676.512
753.101, 677.875
753.583, 680.619
754.065, 683.791
754.547, 687.045
755.029, 689.538
755.511, 690.969
755.993, 690.386
756.476, 686.033
756.958, 678.033
757.440, 671.633
757.922, 666.687
758.404, 663.897
758.886, 664.096
759.368, 665.892
759.850, 667.779
760.332, 669.877
760.815, 673.492
761.297, 684.394
761.779, 689.455
762.261, 678.911
762.743, 665.771
763.225, 662.505
763.707, 667.303
764.189, 670.461
764.671, 667.107
765.154, 661.839
765.636, 657.501
766.118, 655.465
766.600, 662.474
767.082, 677.165
767.564, 682.714
768.046, 669.824
768.528, 651.073
769.010, 649.555
769.493, 667.786
769.975, 676.531
770.457, 671.575
770.939, 666.709
771.421, 667.893
771.903, 670.493
772.385, 667.414
772.867, 658.838
773.349, 656.162
773.832, 666.034
774.314, 675.317
774.796, 680.902
775.278, 682.828
775.760, 678.544
776.242, 670.400
776.724, 666.676
777.206, 673.070
777.689, 681.730
778.171, 684.075
778.653, 682.311
779.135, 681.628
779.617, 682.335
780.099, 681.478
780.581, 677.288
781.063, 672.030
781.545, 670.129
782.028, 672.022
782.510, 672.394
782.992, 670.204
783.474, 669.451
783.956, 673.264
784.438, 677.740
784.920, 676.076
785.403, 667.647
785.885, 666.135
786.367, 681.705
786.849, 691.966
787.331, 686.198
787.813, 675.797
788.295, 669.362
788.777, 668.092
789.259, 671.572
789.742, 682.221
790.224, 691.329
790.706, 689.471
791.188, 681.943
791.670, 676.352
792.152, 673.704
792.634, 674.977
793.116, 680.877
793.598, 685.803
794.081, 677.502
794.563, 657.090
795.045, 653.017
795.527, 668.784
796.009, 680.748
796.491, 680.399
796.973, 672.299
797.455, 660.192
797.938, 643.768
798.420, 633.866
798.902, 634.445
799.384, 636.416
799.866, 639.835
800.348, 643.348
800.830, 644.299
801.312, 644.550
801.794, 624.985
802.277, 649.168
802.759, 662.732
803.241, 666.247
803.723, 629.616
804.205, 644.825
804.687, 639.259
805.169, 632.841
805.651, 655.347
806.133, 624.554
806.616, 646.601
807.098, 643.693
807.580, 639.014
808.062, 642.432
808.544, 646.271
809.026, 648.409
809.508, 650.119
809.990, 652.937
810.472, 656.204
810.955, 655.452
811.437, 648.668
811.919, 643.717
812.401, 641.024
812.883, 641.021
813.365, 645.848
813.847, 653.150
814.330, 657.197
814.812, 655.666
815.294, 657.680
815.776, 670.241
816.258, 680.424
816.740, 679.689
817.222, 673.789
817.704, 669.688
818.186, 668.902
818.669, 670.588
819.151, 676.704
819.633, 682.585
820.115, 684.170
820.597, 682.154
821.079, 675.589
821.561, 665.986
822.043, 661.307
822.526, 667.352
823.008, 676.361
823.490, 671.638
823.972, 655.378
824.454, 649.795
824.936, 657.041
825.418, 664.975
825.900, 668.129
826.382, 669.586
826.865, 674.646
827.347, 684.005
827.829, 684.898
828.311, 669.011
828.793, 659.825
829.275, 668.594
829.757, 680.133
830.239, 683.018
830.721, 678.788
831.204, 673.675
831.686, 665.102
832.168, 661.519
832.650, 670.667
833.132, 680.034
833.614, 680.335
834.096, 674.575
834.578, 668.283
835.060, 663.049
835.543, 660.600
836.025, 664.672
836.507, 670.065
836.989, 671.019
837.471, 668.557
837.953, 664.725
838.435, 660.241
838.917, 655.976
839.400, 652.614
839.882, 649.882
840.364, 647.109
840.846, 644.393
841.328, 642.585
841.810, 641.754
842.292, 642.178
842.774, 644.060
843.256, 647.203
843.739, 651.776
844.221, 658.355
844.703, 660.416
845.185, 655.224
845.667, 651.212
846.149, 651.870
846.631, 653.325
847.114, 651.038
847.596, 645.937
848.078, 643.619
848.560, 647.063
849.042, 649.319
849.524, 646.962
850.006, 645.562
850.488, 651.537
850.970, 659.947
851.453, 661.045
851.935, 652.243
852.417, 643.465
852.899, 639.699
853.381, 638.398
853.863, 638.508
854.345, 639.166
854.827, 639.163
855.309, 638.326
855.792, 636.956
856.274, 634.807
856.756, 633.501
857.238, 636.990
857.720, 643.028
858.202, 645.110
858.684, 642.730
859.166, 636.750
859.648, 627.266
860.131, 618.166
860.613, 615.156
861.095, 617.850
861.577, 621.341
862.059, 625.813
862.541, 630.208
863.023, 634.702
863.505, 637.901
863.987, 638.581
864.470, 636.983
864.952, 633.963
865.434, 627.577
865.916, 623.854
866.398, 624.510
866.880, 625.900
867.362, 627.370
867.844, 628.228
868.327, 626.322
868.809, 621.189
869.291, 620.850
869.773, 634.424
870.255, 643.099
870.737, 635.101
871.219, 623.387
871.701, 618.636
872.183, 621.051
872.666, 628.445
873.148, 642.571
873.630, 651.596
874.112, 641.958
874.594, 628.115
875.076, 625.693
875.558, 631.131
876.041, 635.323
876.523, 635.718
877.005, 635.282
877.487, 637.036
877.969, 638.569
878.451, 633.675
878.933, 625.400
879.415, 624.453
879.897, 631.478
880.380, 637.897
880.862, 638.811
881.344, 637.151
881.826, 638.428
882.308, 642.227
882.790, 640.395
883.272, 632.156
883.754, 628.775
884.237, 634.803
884.719, 642.359
885.201, 644.130
885.683, 640.769
886.165, 635.082
886.647, 624.576
887.129, 619.434
887.611, 622.341
888.093, 627.409
888.576, 634.268
889.058, 639.906
889.540, 637.878
890.022, 625.719
890.504, 620.376
890.986, 628.562
891.468, 634.435
891.950, 632.750
892.432, 629.172
892.915, 627.233
893.397, 627.184
893.879, 629.573
894.361, 636.850
894.843, 639.860
895.325, 628.607
895.807, 619.398
896.289, 626.646
896.771, 640.910
897.254, 648.625
897.736, 647.519
898.218, 642.611
898.700, 634.207
899.182, 626.386
899.664, 621.634
900.146, 620.000
900.628, 623.315
901.110, 629.793
901.593, 634.804
902.075, 636.447
902.557, 634.446
903.039, 625.072
903.521, 613.707
904.003, 610.804
904.485, 614.675
904.968, 620.541
905.450, 626.896
905.932, 631.605
906.414, 633.070
906.896, 632.162
907.378, 629.724
907.860, 626.144
908.342, 624.544
908.824, 625.087
909.307, 626.982
909.789, 630.210
910.271, 632.427
910.753, 630.466
911.235, 625.422
911.717, 624.495
912.199, 628.648
912.681, 631.073
913.164, 630.495
913.646, 629.436
914.128, 629.504
914.610, 629.640
915.092, 627.310
915.574, 621.484
916.056, 621.165
916.538, 631.309
917.020, 637.370
917.503, 632.740
917.985, 626.910
918.467, 628.223
918.949, 634.491
919.431, 637.405
919.913, 635.857
920.395, 633.445
920.877, 628.726
921.359, 625.055
921.842, 623.664
922.324, 623.979
922.806, 626.558
923.288, 630.791
923.770, 632.005
924.252, 626.051
924.734, 621.388
925.216, 619.705
925.698, 620.810
926.181, 627.839
926.663, 636.266
927.145, 638.065
927.627, 631.582
928.109, 624.609
928.591, 613.405
929.073, 626.485
929.555, 633.670
930.037, 635.277
930.520, 614.599
931.002, 622.697
931.484, 619.263
931.966, 615.357
932.448, 627.505
932.930, 610.068
933.412, 621.962
933.894, 622.148
934.377, 627.693
934.859, 621.633
935.341, 619.158
935.823, 618.469
936.305, 625.201
936.787, 634.747
937.269, 641.491
937.751, 644.129
938.234, 636.935
938.716, 623.187
939.198, 614.174
939.680, 613.434
940.162, 618.183
940.644, 628.173
941.126, 638.044
941.608, 633.158
942.091, 618.511
942.573, 615.626
943.055, 625.399
943.537, 632.975
944.019, 631.550
944.501, 626.824
944.983, 626.028
945.465, 627.988
945.947, 628.004
946.430, 626.063
946.912, 621.000
947.394, 612.360
947.876, 606.320
948.358, 606.846
948.840, 611.369
949.322, 616.006
949.804, 620.706
950.286, 621.191
950.769, 616.727
951.251, 614.485
951.733, 616.624
952.215, 619.985
952.697, 622.301
953.179, 623.599
953.661, 623.761
954.143, 622.452
954.625, 621.730
955.108, 621.522
955.590, 622.225
956.072, 624.133
956.554, 626.867
957.036, 630.846
957.518, 635.201
958.000, 634.267
958.482, 624.975
958.964, 619.162
959.447, 618.523
959.929, 619.132
960.411, 619.412
960.893, 620.080
961.375, 622.205
961.857, 625.746
962.339, 629.020
962.821, 633.066
963.304, 634.743
963.786, 631.380
964.268, 628.775
964.750, 632.133
965.232, 636.723
965.714, 633.928
966.196, 622.337
966.678, 615.369
967.161, 616.968
967.643, 617.492
968.125, 614.318
968.607, 611.159
969.089, 611.776
969.571, 613.498
970.053, 609.293
970.535, 595.869
971.018, 592.199
971.500, 609.596
971.982, 623.756
972.464, 627.657
972.946, 626.886
973.428, 624.463
973.910, 621.028
974.392, 617.492
974.874, 613.659
975.357, 610.791
975.839, 607.157
976.321, 606.982
976.803, 617.356
977.285, 627.476
977.767, 625.209
978.249, 613.753
978.731, 606.626
979.213, 607.528
979.696, 609.291
980.178, 610.706
980.660, 611.956
981.142, 612.085
981.624, 612.841
982.106, 617.603
982.588, 625.115
983.070, 628.765
983.552, 625.511
984.035, 621.446
984.517, 615.665
984.999, 612.724
985.481, 618.314
985.963, 626.548
986.445, 629.884
986.927, 628.031
987.409, 625.417
987.891, 622.813
988.374, 620.747
988.856, 620.310
989.338, 619.553
989.820, 617.279
990.302, 613.726
990.784, 608.448
991.266, 601.928
991.748, 597.836
992.231, 600.534
992.713, 601.265
993.195, 592.367
993.677, 583.879
994.159, 583.455
994.641, 588.902
995.123, 596.939
995.605, 606.542
996.088, 615.018
996.570, 623.061
997.052, 627.299
997.534, 621.977
998.016, 616.113
998.498, 618.240
998.980, 624.998
999.462, 630.646
999.945, 633.759
1000.427, 632.665
1000.909, 621.604
1001.391, 612.597
1001.873, 612.319
1002.355, 616.072
1002.837, 622.132
1003.319, 628.138
1003.801, 629.806
1004.284, 626.392
1004.766, 624.560
1005.248, 630.128
1005.730, 634.328
1006.212, 632.768
1006.694, 627.819
1007.176, 617.910
1007.658, 607.583
1008.140, 606.456
1008.623, 616.582
1009.105, 624.579
1009.587, 623.479
1010.069, 620.370
1010.551, 617.607
1011.033, 615.476
1011.515, 615.337
1011.997, 615.632
1012.479, 611.792
1012.962, 602.695
1013.444, 598.922
1013.926, 610.390
1014.408, 621.090
1014.890, 623.090
1015.372, 621.240
1015.854, 618.498
1016.336, 615.830
1016.819, 614.016
1017.301, 613.212
1017.783, 613.745
1018.265, 618.244
1018.747, 620.878
1019.229, 618.857
1019.711, 614.108
1020.193, 605.053
1020.675, 595.596
1021.158, 593.820
1021.640, 601.585
1022.122, 608.962
1022.604, 614.100
1023.086, 616.738
1023.568, 614.985
1024.050, 612.368
1024.532, 612.316
1025.015, 613.231
1025.497, 611.390
1025.979, 606.045
1026.461, 601.181
1026.943, 596.835
1027.425, 594.416
1027.907, 595.552
1028.389, 597.665
1028.871, 597.630
1029.354, 597.712
1029.836, 603.625
1030.318, 616.704
1030.800, 624.731
1031.282, 624.024
1031.764, 620.281
1032.246, 610.593
1032.728, 602.619
1033.210, 601.243
1033.693, 604.869
1034.175, 612.318
1034.657, 624.250
1035.139, 629.386
1035.621, 620.921
1036.103, 614.073
1036.585, 612.379
1037.067, 611.660
1037.550, 607.712
1038.032, 604.210
1038.514, 608.696
1038.996, 622.120
1039.478, 629.308
1039.960, 624.068
1040.442, 622.664
1040.924, 630.733
1041.406, 637.305
1041.889, 636.148
1042.371, 631.209
1042.853, 627.631
1043.335, 625.416
1043.817, 624.023
1044.299, 624.173
1044.781, 623.293
1045.263, 619.028
1045.745, 618.184
1046.228, 627.168
1046.710, 636.476
1047.192, 632.675
1047.674, 617.544
1048.156, 609.474
1048.638, 609.749
1049.120, 612.928
1049.602, 619.535
1050.085, 626.796
1050.567, 634.554
1051.049, 640.114
1051.531, 639.954
1052.013, 635.278
1052.495, 631.744
1052.977, 629.352
1053.459, 628.528
1053.942, 629.793
1054.424, 628.900
1054.906, 623.612
1055.388, 619.500
1055.870, 621.863
1056.352, 629.317
1056.834, 639.765
1057.316, 652.903
1057.798, 656.418
1058.281, 649.851
1058.763, 642.981
1059.245, 638.608
1059.727, 638.023
1060.209, 643.068
1060.691, 649.135
1061.173, 644.924
1061.655, 633.390
1062.137, 628.708
1062.620, 630.703
1063.102, 637.341
1063.584, 647.364
1064.066, 653.247
1064.548, 649.849
1065.030, 643.373
1065.512, 642.192
1065.994, 644.664
1066.477, 647.938
1066.959, 651.414
1067.441, 652.799
1067.923, 652.543
1068.405, 655.762
1068.887, 665.188
1069.369, 672.430
1069.851, 667.703
1070.333, 657.123
1070.816, 644.582
1071.298, 634.424
1071.780, 637.463
1072.262, 649.602
1072.744, 654.668
1073.226, 647.099
1073.708, 640.109
1074.190, 646.149
1074.672, 652.660
1075.155, 647.923
1075.637, 639.821
1076.119, 637.126
1076.601, 638.122
1077.083, 636.559
1077.565, 631.505
1078.047, 630.531
1078.530, 642.507
1079.012, 651.409
1079.494, 648.138
1079.976, 641.829
1080.458, 636.682
1080.940, 634.063
1081.422, 637.500
1081.904, 645.925
1082.386, 648.202
1082.869, 639.003
1083.351, 629.126
1083.833, 615.688
1084.315, 607.417
1084.797, 611.768
1085.279, 620.301
1085.761, 626.003
1086.243, 628.422
1086.725, 625.286
1087.208, 610.188
1087.690, 607.186
1088.172, 627.459
1088.654, 638.217
1089.136, 625.964
1089.618, 610.098
1090.100, 604.662
1090.582, 606.310
1091.065, 607.367
1091.547, 607.682
1092.029, 608.879
1092.511, 610.612
1092.993, 615.565
1093.475, 624.930
1093.957, 634.431
1094.439, 642.468
1094.922, 645.623
1095.404, 637.155
1095.886, 620.275
1096.368, 612.205
1096.850, 612.251
1097.332, 613.139
1097.814, 613.966
1098.296, 615.215
1098.778, 617.058
1099.260, 618.217
1099.743, 617.076
1100.225, 615.291
1100.707, 616.579
1101.189, 619.362
1101.671, 620.977
1102.153, 620.461
1102.635, 612.968
1103.117, 599.487
1103.600, 593.626
1104.082, 605.855
1104.564, 619.898
1105.046, 618.930
1105.528, 612.858
1106.010, 611.404
1106.492, 613.188
1106.974, 615.848
1107.457, 618.776
1107.939, 621.726
1108.421, 624.652
1108.903, 627.295
1109.385, 630.179
1109.867, 631.921
1110.349, 628.510
1110.831, 626.634
1111.313, 636.057
1111.796, 649.973
1112.278, 653.376
1112.760, 643.908
1113.242, 636.612
1113.724, 632.905
1114.206, 632.313
1114.688, 638.333
1115.170, 643.091
1115.652, 641.662
1116.135, 638.837
1116.617, 640.735
1117.099, 646.291
1117.581, 648.371
1118.063, 645.802
1118.545, 644.023
1119.027, 643.111
1119.509, 643.445
1119.992, 645.576
1120.474, 646.941
1120.956, 645.136
1121.438, 642.377
1121.920, 645.071
1122.402, 651.943
1122.884, 646.983
1123.366, 632.211
1123.849, 628.712
1124.331, 639.126
1124.813, 649.440
1125.295, 652.702
1125.777, 652.874
1126.259, 653.223
1126.741, 654.485
1127.223, 661.873
1127.705, 669.053
1128.188, 658.669
1128.670, 637.981
1129.152, 631.574
1129.634, 643.651
1130.116, 653.337
1130.598, 647.132
1131.080, 639.615
1131.562, 642.133
1132.044, 646.302
1132.527, 645.834
1133.009, 642.583
1133.491, 638.211
1133.973, 633.771
1134.455, 631.387
1134.937, 631.514
1135.419, 633.661
1135.901, 641.263
1136.384, 645.980
1136.866, 642.534
1137.348, 638.630
1137.830, 638.627
1138.312, 641.589
1138.794, 647.224
1139.276, 655.377
1139.758, 656.683
1140.240, 648.899
1140.723, 642.129
1141.205, 636.906
1141.687, 634.075
1142.169, 634.367
1142.651, 634.776
1143.133, 631.859
1143.615, 628.683
1144.097, 635.448
1144.579, 649.242
1145.062, 649.765
1145.544, 639.441
1146.026, 637.361
1146.508, 645.575
1146.990, 648.919
1147.472, 639.516
1147.954, 627.698
1148.436, 623.012
1148.919, 623.248
1149.401, 628.601
1149.883, 634.937
1150.365, 634.759
1150.847, 630.977
1151.329, 632.628
1151.811, 640.617
1152.293, 644.400
1152.776, 638.091
1153.258, 629.587
1153.740, 618.070
1154.222, 609.972
1154.704, 611.290
1155.186, 615.850
1155.668, 616.883
1156.150, 615.537
1156.632, 617.306
1157.115, 623.723
1157.597, 626.368
1158.079, 622.544
1158.561, 621.495
1159.043, 626.378
1159.525, 629.857
1160.007, 627.925
1160.489, 623.213
1160.971, 618.784
1161.454, 614.758
1161.936, 611.060
1162.418, 607.924
1162.900, 609.026
1163.382, 613.956
1163.864, 616.918
1164.346, 616.448
1164.828, 614.914
1165.311, 613.747
1165.793, 612.947
1166.275, 614.007
1166.757, 614.169
1167.239, 605.036
1167.721, 595.192
1168.203, 602.169
1168.685, 620.041
1169.167, 629.451
1169.650, 625.665
1170.132, 618.798
1170.614, 609.118
1171.096, 603.338
1171.578, 605.336
1172.060, 610.086
1172.542, 617.541
1173.024, 624.159
1173.506, 625.475
1173.989, 622.739
1174.471, 620.743
1174.953, 619.824
1175.435, 618.069
1175.917, 615.260
1176.399, 611.840
1176.881, 606.948
1177.363, 606.468
1177.846, 614.854
1178.328, 622.318
1178.810, 614.837
1179.292, 599.649
1179.774, 601.588
1180.256, 615.059
1180.738, 615.470
1181.220, 604.841
1181.703, 597.309
1182.185, 596.634
1182.667, 602.068
1183.149, 614.070
1183.631, 624.780
1184.113, 627.705
1184.595, 626.131
1185.077, 618.899
1185.559, 612.158
1186.042, 614.159
1186.524, 621.077
1187.006, 624.902
1187.488, 624.425
1187.970, 621.486
1188.452, 612.872
1188.934, 607.604
1189.416, 608.407
1189.898, 609.396
1190.381, 607.570
1190.863, 607.780
1191.345, 615.849
1191.827, 625.845
1192.309, 623.935
1192.791, 610.981
1193.273, 602.857
1193.755, 599.501
1194.238, 599.206
1194.720, 601.615
1195.202, 607.065
1195.684, 615.221
1196.166, 617.112
1196.648, 602.878
1197.130, 587.088
1197.612, 589.305
1198.094, 599.776
1198.577, 609.849
1199.059, 616.502
1199.541, 613.030
1200.023, 603.184
1200.505, 599.768
1200.987, 606.482
1201.469, 612.325
1201.951, 617.143
1202.433, 615.818
1202.916, 600.466
1203.398, 586.811
1203.880, 582.410
1204.362, 582.792
1204.844, 583.908
1205.326, 586.031
1205.808, 591.406
1206.290, 601.081
1206.773, 597.518
1207.255, 580.004
1207.737, 571.799
1208.219, 576.745
1208.701, 586.724
1209.183, 597.973
1209.665, 607.674
1210.147, 613.565
1210.630, 615.318
1211.112, 609.966
1211.594, 602.153
1212.076, 598.336
1212.558, 597.333
1213.040, 595.263
1213.522, 593.142
1214.004, 597.786
1214.486, 612.804
1214.969, 621.564
1215.451, 613.086
1215.933, 606.379
1216.415, 606.573
1216.897, 609.872
1217.379, 617.758
1217.861, 623.531
1218.343, 618.468
1218.825, 606.295
1219.308, 600.260
1219.790, 600.540
1220.272, 605.333
1220.754, 614.442
1221.236, 618.584
1221.718, 616.521
1222.200, 615.370
1222.682, 618.276
1223.165, 619.765
1223.647, 612.826
1224.129, 605.700
1224.611, 611.955
1225.093, 620.276
1225.575, 614.012
1226.057, 602.436
1226.539, 602.412
1227.021, 611.495
1227.504, 613.920
1227.986, 604.973
1228.468, 598.896
1228.950, 599.835
1229.432, 601.213
1229.914, 603.839
1230.396, 603.538
1230.878, 596.913
1231.360, 590.378
1231.843, 590.430
1232.325, 594.635
1232.807, 597.383
1233.289, 598.540
1233.771, 596.222
1234.253, 591.226
1234.735, 586.577
1235.217, 583.284
1235.700, 584.204
1236.182, 589.795
1236.664, 593.843
1237.146, 591.026
1237.628, 587.946
1238.110, 590.934
1238.592, 593.742
1239.074, 590.090
1239.557, 585.255
1240.039, 584.322
1240.521, 587.125
1241.003, 592.850
1241.485, 601.532
1241.967, 609.473
1242.449, 617.106
1242.931, 622.774
1243.413, 626.713
1243.896, 626.124
1244.378, 619.762
1244.860, 612.788
1245.342, 608.757
1245.824, 607.123
1246.306, 607.235
1246.788, 609.073
1247.270, 614.043
1247.752, 619.806
1248.235, 622.343
1248.717, 622.178
1249.199, 621.878
1249.681, 621.482
1250.163, 617.581
1250.645, 606.553
1251.127, 599.989
1251.609, 604.697
1252.092, 608.682
1252.574, 608.074
1253.056, 606.769
1253.538, 606.340
1254.020, 607.094
1254.502, 609.739
1254.984, 613.478
1255.466, 614.689
1255.948, 613.967
1256.431, 618.756
1256.913, 627.054
1257.395, 626.368
1257.877, 616.592
1258.359, 608.508
1258.841, 606.447
1259.323, 607.059
1259.805, 610.133
1260.287, 611.469
1260.770, 605.449
1261.252, 600.060
1261.734, 602.313
1262.216, 606.696
1262.698, 607.847
1263.180, 605.981
1263.662, 601.637
1264.144, 594.717
1264.627, 592.323
1265.109, 594.880
1265.591, 599.214
1266.073, 605.094
1266.555, 613.769
1267.037, 625.174
1267.519, 627.779
1268.001, 613.399
1268.484, 598.440
1268.966, 605.872
1269.448, 618.339
1269.930, 612.855
1270.412, 603.314
1270.894, 607.360
1271.376, 617.902
1271.858, 622.498
1272.340, 620.142
1272.823, 614.934
##END=



