##NAMES=Stewartite
##RRUFFID=R070643
##IDEAL CHEMISTRY=Mn^2+^Fe^3+^_2_(PO_4_)_2_(OH)_2_&#183;8H_2_O
##LOCALITY=Hagendorf, Bavaria, Germany
##OWNER=RRUFF
##SOURCE=Michael Scott
##DESCRIPTION=Transparent yellow bladed crystals with orange laueite
##STATUS=The identification of this mineral has been confirmed by single-crystal X-ray diffraction.
##URL=rruff.info/R070643
140.3112, 72.88967
140.7933, 73.46751
141.2754, 74.40977
141.7575, 75.20618
142.2396, 75.76645
142.7217, 76.19882
143.2039, 76.60800
143.6860, 77.00520
144.1681, 77.36349
144.6502, 77.60032
145.1323, 77.77205
145.6144, 78.01549
146.0966, 78.54102
146.5787, 79.19788
147.0608, 79.44942
147.5429, 78.91306
148.0250, 78.46917
148.5071, 78.69292
148.9893, 79.41932
149.4714, 80.17677
149.9535, 80.55708
150.4356, 80.52219
150.9177, 80.61613
151.3998, 80.67638
151.8820, 81.02023
152.3641, 82.02343
152.8462, 83.55637
153.3283, 85.05261
153.8104, 85.78132
154.2925, 85.25514
154.7747, 85.32381
155.2568, 86.31102
155.7389, 87.52271
156.2210, 88.59834
156.7031, 89.43438
157.1852, 90.08413
157.6673, 90.62016
158.1495, 90.95152
158.6316, 91.30602
159.1137, 91.86008
159.5958, 92.36187
160.0779, 92.45470
160.5600, 91.99989
161.0422, 91.35421
161.5243, 91.30184
162.0064, 92.07124
162.4885, 92.79369
162.9706, 93.30031
163.4527, 93.63066
163.9349, 93.85583
164.4170, 93.99405
164.8991, 94.04463
165.3812, 94.00223
165.8633, 93.83237
166.3454, 93.68279
166.8276, 93.66550
167.3097, 93.76145
167.7918, 93.82928
168.2739, 93.85528
168.7560, 93.78812
169.2381, 93.52249
169.7203, 92.97217
170.2024, 92.47093
170.6845, 92.42799
171.1666, 92.93130
171.6487, 93.37647
172.1308, 93.45425
172.6130, 93.43446
173.0951, 93.51402
173.5772, 93.75578
174.0593, 94.09643
174.5414, 94.45784
175.0235, 94.92732
175.5057, 95.21249
175.9878, 94.90209
176.4699, 94.56225
176.9520, 94.78405
177.4341, 95.85790
177.9162, 97.49969
178.3984, 98.84270
178.8805, 99.63002
179.3626, 100.4124
179.8447, 101.3094
180.3268, 102.2338
180.8089, 103.1322
181.2911, 103.9856
181.7732, 104.7346
182.2553, 105.0219
182.7374, 104.6413
183.2195, 104.0319
183.7016, 103.4340
184.1838, 102.6549
184.6659, 101.2949
185.1480, 99.04987
185.6301, 96.01316
186.1122, 93.18327
186.5943, 90.10735
187.0765, 87.63191
187.5586, 86.38342
188.0407, 86.09694
188.5228, 85.87269
189.0049, 85.08365
189.4870, 83.86096
189.9692, 83.06721
190.4513, 82.91844
190.9334, 82.98704
191.4155, 83.01865
191.8976, 83.01460
192.3797, 83.05940
192.8619, 83.14819
193.3440, 83.35188
193.8261, 83.83214
194.3082, 84.85281
194.7903, 85.99379
195.2724, 86.72500
195.7546, 86.96827
196.2367, 87.30906
196.7188, 88.45756
197.2009, 89.88028
197.6830, 90.81248
198.1651, 90.74874
198.6473, 90.25858
199.1294, 90.34332
199.6115, 91.17488
200.0936, 92.17742
200.5757, 93.13451
201.0578, 94.07054
201.5400, 95.01499
202.0221, 95.96078
202.5042, 96.93177
202.9863, 98.02807
203.4684, 99.33302
203.9505, 100.6179
204.4327, 101.6839
204.9148, 102.7142
205.3969, 103.9666
205.8790, 105.6053
206.3611, 107.5703
206.8432, 109.5982
207.3254, 111.7486
207.8075, 113.9010
208.2896, 116.1036
208.7717, 118.2743
209.2538, 120.2605
209.7359, 121.9109
210.2181, 123.3125
210.7002, 125.2127
211.1823, 128.0923
211.6644, 131.0107
212.1465, 133.9596
212.6286, 136.8114
213.1108, 139.3047
213.5929, 141.2022
214.0750, 142.5973
214.5571, 144.8139
215.0392, 148.5076
215.5213, 152.2518
216.0035, 155.6346
216.4856, 158.7541
216.9677, 161.8367
217.4498, 165.0457
217.9319, 168.3553
218.4140, 171.7203
218.8962, 175.0859
219.3783, 178.5141
219.8604, 182.2354
220.3425, 186.0886
220.8246, 189.5989
221.3067, 192.4233
221.7889, 194.6442
222.2710, 197.0249
222.7531, 200.4278
223.2352, 203.1735
223.7173, 204.2106
224.1994, 203.7520
224.6816, 202.9443
225.1637, 202.6425
225.6458, 202.3913
226.1279, 200.7723
226.6100, 197.1564
227.0921, 192.8426
227.5743, 188.5220
228.0564, 184.2115
228.5385, 179.8777
229.0206, 175.4555
229.5027, 171.0420
229.9848, 166.9140
230.4670, 163.1141
230.9491, 159.5356
231.4312, 156.0647
231.9133, 152.6930
232.3954, 149.5674
232.8775, 146.8997
233.3597, 144.4810
233.8418, 142.0289
234.3239, 139.4326
234.8060, 136.9008
235.2881, 134.6954
235.7702, 132.8534
236.2524, 130.9829
236.7345, 128.7768
237.2166, 126.5670
237.6987, 124.6535
238.1808, 123.0991
238.6629, 121.8365
239.1451, 120.8775
239.6272, 120.2925
240.1093, 119.6296
240.5914, 118.4255
241.0735, 117.2866
241.5556, 116.6934
242.0378, 116.7622
242.5199, 117.1838
243.0020, 117.5849
243.4841, 117.9464
243.9662, 118.3487
244.4483, 118.8681
244.9305, 119.3926
245.4126, 119.7341
245.8947, 119.8805
246.3768, 120.1803
246.8589, 121.2811
247.3410, 123.6524
247.8232, 125.3330
248.3053, 125.5767
248.7874, 125.5398
249.2695, 125.8898
249.7516, 126.7524
250.2337, 127.8474
250.7159, 128.8812
251.1980, 130.0047
251.6801, 130.6212
252.1622, 130.4002
252.6443, 129.9886
253.1264, 129.7948
253.6086, 129.8433
254.0907, 129.8491
254.5728, 129.4423
255.0549, 128.4750
255.5370, 127.5202
256.0191, 126.4912
256.5013, 125.5369
256.9834, 124.8537
257.4655, 124.3884
257.9476, 123.8540
258.4297, 122.9082
258.9118, 121.3937
259.3940, 120.0949
259.8761, 119.1201
260.3582, 118.2187
260.8403, 117.2622
261.3224, 116.2532
261.8045, 115.2599
262.2867, 114.3402
262.7688, 113.4986
263.2509, 112.7299
263.7330, 112.3604
264.2151, 111.7626
264.6972, 110.4050
265.1794, 108.4845
265.6615, 106.6963
266.1436, 105.6544
266.6257, 105.3996
267.1078, 104.8861
267.5899, 103.8277
268.0721, 102.8442
268.5542, 102.3373
269.0363, 102.1572
269.5184, 101.8157
270.0005, 100.9397
270.4826, 99.57977
270.9648, 98.54683
271.4469, 98.07140
271.9290, 97.60354
272.4111, 96.92548
272.8932, 96.09554
273.3753, 95.27082
273.8575, 94.54941
274.3396, 93.90396
274.8217, 93.18908
275.3038, 92.28580
275.7859, 91.46097
276.2680, 90.84663
276.7502, 90.36967
277.2323, 89.85388
277.7144, 89.19862
278.1965, 88.49019
278.6786, 88.02129
279.1607, 87.98223
279.6429, 87.79659
280.1250, 87.17390
280.6071, 86.31487
281.0892, 85.59962
281.5713, 85.17918
282.0534, 84.90816
282.5356, 84.49260
283.0177, 83.89375
283.4998, 83.32320
283.9819, 82.88816
284.4640, 82.50044
284.9461, 81.98698
285.4283, 81.27713
285.9104, 80.55618
286.3925, 80.12200
286.8746, 79.99297
287.3567, 79.84077
287.8388, 79.67072
288.3210, 79.41211
288.8031, 78.89781
289.2852, 78.06565
289.7673, 77.24707
290.2494, 76.85043
290.7315, 76.84927
291.2137, 76.80169
291.6958, 76.67004
292.1779, 76.44539
292.6600, 76.07841
293.1421, 75.56152
293.6242, 75.04675
294.1064, 74.70184
294.5885, 74.47677
295.0706, 74.11616
295.5527, 73.49671
296.0348, 72.79988
296.5169, 72.23528
296.9991, 71.79673
297.4812, 71.19925
297.9633, 70.13119
298.4454, 68.80175
298.9275, 67.84995
299.4096, 67.40642
299.8918, 67.21996
300.3739, 67.32130
300.8560, 67.63319
301.3381, 67.58041
301.8202, 66.75574
302.3023, 65.50652
302.7845, 64.54803
303.2666, 63.94164
303.7487, 63.48308
304.2308, 63.08115
304.7129, 62.74093
305.1950, 62.50944
305.6772, 62.48117
306.1593, 62.45089
306.6414, 62.07471
307.1235, 61.31517
307.6056, 60.62563
308.0877, 60.22786
308.5699, 60.03888
309.0520, 59.88933
309.5341, 59.77384
310.0162, 59.61784
310.4983, 59.24023
310.9804, 58.68214
311.4626, 58.32653
311.9447, 58.44092
312.4268, 58.78131
312.9089, 58.95482
313.3910, 58.89212
313.8731, 58.82731
314.3553, 59.07788
314.8374, 59.50539
315.3195, 59.64394
315.8016, 59.12601
316.2837, 58.43737
316.7658, 58.06784
317.2480, 58.02868
317.7301, 58.21560
318.2122, 58.64830
318.6943, 59.25873
319.1764, 59.86790
319.6585, 60.51714
320.1407, 61.09465
320.6228, 61.46624
321.1049, 61.66029
321.5870, 61.88431
322.0691, 62.21021
322.5512, 62.63449
323.0334, 63.11056
323.5155, 63.60207
323.9976, 64.24012
324.4797, 65.23405
324.9618, 66.44797
325.4439, 67.42529
325.9261, 67.97262
326.4082, 68.37901
326.8903, 69.05315
327.3724, 69.98464
327.8545, 70.90359
328.3366, 71.56749
328.8188, 72.19335
329.3009, 73.19463
329.7830, 74.68504
330.2651, 76.31527
330.7472, 77.78701
331.2293, 79.11740
331.7115, 80.38527
332.1936, 81.51388
332.6757, 82.64019
333.1578, 83.96902
333.6399, 85.51105
334.1220, 86.96453
334.6042, 88.06370
335.0863, 88.92805
335.5684, 89.99964
336.0505, 91.30379
336.5326, 92.80530
337.0147, 94.66424
337.4969, 96.77245
337.9790, 98.60612
338.4611, 99.85227
338.9432, 100.7586
339.4253, 101.8943
339.9074, 103.2862
340.3896, 104.7748
340.8717, 106.4205
341.3538, 108.1054
341.8359, 109.5713
342.3180, 110.7250
342.8001, 111.7366
343.2823, 112.8089
343.7644, 113.9188
344.2465, 115.2110
344.7286, 116.8486
345.2107, 118.6137
345.6928, 120.3300
346.1750, 121.9760
346.6571, 123.4115
347.1392, 124.4340
347.6213, 125.0298
348.1034, 125.8347
348.5855, 127.1269
349.0677, 128.3994
349.5498, 129.2702
350.0319, 129.8035
350.5140, 130.3869
350.9961, 131.3404
351.4782, 132.4780
351.9604, 132.9172
352.4425, 132.1417
352.9246, 131.4285
353.4067, 131.3157
353.8888, 131.5065
354.3709, 131.4920
354.8531, 131.0829
355.3352, 130.3616
355.8173, 129.4519
356.2994, 128.2478
356.7815, 127.0918
357.2636, 126.2083
357.7458, 125.2775
358.2279, 124.0223
358.7100, 122.3887
359.1921, 120.4062
359.6742, 118.1008
360.1563, 115.4109
360.6385, 112.6723
361.1206, 109.6244
361.6027, 106.7655
362.0848, 104.5722
362.5669, 102.8511
363.0490, 100.9076
363.5312, 98.23557
364.0133, 94.96101
364.4954, 92.15982
364.9775, 90.00772
365.4596, 88.09093
365.9417, 86.50089
366.4239, 85.05724
366.9060, 83.52095
367.3881, 81.78787
367.8702, 79.95543
368.3523, 78.21316
368.8344, 76.56815
369.3166, 75.02238
369.7987, 73.50510
370.2808, 72.11937
370.7629, 70.92388
371.2450, 69.93458
371.7271, 69.16682
372.2093, 68.69189
372.6914, 68.59875
373.1735, 68.19597
373.6556, 67.14948
374.1377, 66.14876
374.6198, 65.38728
375.1020, 64.86507
375.5841, 64.57743
376.0662, 64.54778
376.5483, 64.69561
377.0304, 64.62302
377.5125, 64.06850
377.9947, 63.67020
378.4768, 63.55682
378.9589, 63.62123
379.4410, 63.77163
379.9231, 63.97446
380.4052, 64.22072
380.8874, 64.49210
381.3695, 64.77260
381.8516, 65.13091
382.3337, 65.54800
382.8158, 66.06405
383.2979, 66.79910
383.7801, 67.69035
384.2622, 68.49483
384.7443, 68.98047
385.2264, 69.17215
385.7085, 69.39437
386.1906, 69.60271
386.6728, 69.91796
387.1549, 70.52090
387.6370, 71.21563
388.1191, 71.69378
388.6012, 71.80199
389.0833, 71.68105
389.5655, 71.55956
390.0476, 71.43588
390.5297, 71.32083
391.0118, 71.29070
391.4939, 71.22202
391.9760, 70.98298
392.4582, 70.55273
392.9403, 70.10246
393.4224, 69.77891
393.9045, 69.56129
394.3866, 69.31586
394.8687, 68.99498
395.3509, 68.69341
395.8330, 68.55817
396.3151, 68.52030
396.7972, 68.33961
397.2793, 67.74189
397.7614, 67.03496
398.2436, 66.67014
398.7257, 66.66997
399.2078, 66.77502
399.6899, 66.80793
400.1720, 66.87745
400.6541, 67.23074
401.1363, 68.08829
401.6184, 68.83199
402.1005, 68.95711
402.5826, 68.67054
403.0647, 68.60159
403.5468, 69.00925
404.0290, 69.50383
404.5111, 69.42417
404.9932, 68.70592
405.4753, 68.25159
405.9574, 68.40286
406.4395, 68.77821
406.9217, 69.09545
407.4038, 69.30522
407.8859, 69.30301
408.3680, 68.96117
408.8501, 68.31243
409.3322, 67.82550
409.8144, 67.62831
410.2965, 67.42041
410.7786, 67.14906
411.2607, 66.78543
411.7428, 66.24450
412.2249, 65.48787
412.7071, 64.64312
413.1892, 63.96387
413.6713, 63.57311
414.1534, 63.14425
414.6355, 62.73823
415.1176, 62.25224
415.5998, 61.55614
416.0819, 60.68095
416.5640, 59.81399
417.0461, 59.14094
417.5282, 58.66759
418.0103, 58.03875
418.4925, 57.07693
418.9746, 56.14923
419.4567, 55.29436
419.9388, 54.53280
420.4209, 53.88656
420.9030, 53.37225
421.3852, 52.95085
421.8673, 52.56502
422.3494, 52.25525
422.8315, 51.87214
423.3136, 51.26128
423.7957, 50.68170
424.2779, 50.36950
424.7600, 50.28175
425.2421, 50.11897
425.7242, 49.49483
426.2063, 48.49471
426.6884, 48.00955
427.1706, 48.29610
427.6527, 48.68540
428.1348, 49.02287
428.6169, 49.23067
429.0990, 49.15558
429.5811, 48.67834
430.0633, 48.06936
430.5454, 47.62417
431.0275, 47.34243
431.5096, 47.26443
431.9917, 47.58385
432.4738, 47.93045
432.9560, 47.79173
433.4381, 47.17699
433.9202, 46.85075
434.4023, 47.48788
434.8844, 48.55911
435.3665, 49.01612
435.8487, 48.69680
436.3308, 48.43915
436.8129, 48.98851
437.2950, 50.10769
437.7771, 50.74406
438.2592, 50.38336
438.7414, 50.06064
439.2235, 50.39962
439.7056, 51.20171
440.1877, 52.00371
440.6698, 52.64499
441.1519, 53.18916
441.6341, 53.73928
442.1162, 54.28512
442.5983, 54.86904
443.0804, 55.46645
443.5625, 56.12125
444.0446, 56.89404
444.5268, 57.76788
445.0089, 58.68020
445.4910, 59.59076
445.9731, 60.49485
446.4552, 61.35883
446.9373, 62.01637
447.4195, 62.84820
447.9016, 64.07796
448.3837, 65.43497
448.8658, 66.53091
449.3479, 67.27763
449.8300, 68.03147
450.3122, 69.38026
450.7943, 71.58918
451.2764, 73.39490
451.7585, 74.39722
452.2406, 75.36316
452.7227, 76.57902
453.2049, 77.98933
453.6870, 79.40125
454.1691, 80.67683
454.6512, 81.91331
455.1333, 83.44601
455.6154, 85.42355
456.0976, 87.24484
456.5797, 88.59081
457.0618, 89.78313
457.5439, 91.02966
458.0260, 92.35332
458.5081, 93.81548
458.9903, 95.60088
459.4724, 97.57285
459.9545, 99.20570
460.4366, 100.3500
460.9187, 101.4249
461.4008, 102.7711
461.8830, 104.2942
462.3651, 105.7638
462.8472, 107.1267
463.3293, 108.4494
463.8114, 109.7288
464.2935, 110.9999
464.7756, 112.4554
465.2578, 114.2437
465.7399, 116.0451
466.2220, 117.2597
466.7041, 117.7838
467.1862, 118.2227
467.6683, 118.7212
468.1505, 119.1010
468.6326, 119.2578
469.1147, 119.1639
469.5968, 118.7766
470.0789, 118.0572
470.5610, 117.0209
471.0432, 115.7878
471.5253, 114.5002
472.0074, 112.8116
472.4895, 110.5376
472.9716, 107.9203
473.4537, 105.1095
473.9359, 102.1930
474.4180, 99.33667
474.9001, 96.82401
475.3822, 94.75716
475.8643, 92.30222
476.3464, 89.03275
476.8286, 85.82765
477.3107, 83.01343
477.7928, 80.44305
478.2749, 77.84352
478.7570, 75.07561
479.2391, 72.29202
479.7213, 69.76180
480.2034, 67.49142
480.6855, 65.33237
481.1676, 63.14845
481.6497, 61.15887
482.1318, 59.59346
482.6140, 58.40053
483.0961, 57.22386
483.5782, 55.86106
484.0603, 54.41991
484.5424, 53.02600
485.0245, 51.68441
485.5067, 50.47786
485.9888, 49.51366
486.4709, 48.68357
486.9530, 47.69391
487.4351, 46.42338
487.9172, 45.26768
488.3994, 44.30980
488.8815, 43.56030
489.3636, 43.11694
489.8457, 42.97848
490.3278, 42.88877
490.8099, 42.59536
491.2921, 42.08917
491.7742, 41.65064
492.2563, 41.39122
492.7384, 41.06379
493.2205, 40.52276
493.7026, 39.89277
494.1848, 39.33147
494.6669, 38.90265
495.1490, 38.59776
495.6311, 38.43317
496.1132, 38.49067
496.5953, 38.42427
497.0775, 38.11521
497.5596, 37.79110
498.0417, 37.47518
498.5238, 37.21840
499.0059, 37.12754
499.4880, 37.30080
499.9702, 37.58914
500.4523, 37.67524
500.9344, 37.52256
501.4165, 37.40186
501.8986, 37.40334
502.3807, 37.45410
502.8629, 37.46244
503.3450, 37.43238
503.8271, 37.48540
504.3092, 37.76969
504.7913, 38.13444
505.2734, 38.31425
505.7556, 38.29669
506.2377, 38.30594
506.7198, 38.48207
507.2019, 38.77256
507.6840, 39.00403
508.1661, 39.11953
508.6483, 39.29144
509.1304, 39.66452
509.6125, 40.06663
510.0946, 40.22832
510.5767, 40.14129
511.0588, 40.11205
511.5410, 40.44672
512.0231, 41.14192
512.5052, 41.67413
512.9873, 41.94569
513.4694, 42.16907
513.9515, 42.31901
514.4337, 42.46996
514.9158, 42.72078
515.3979, 43.09325
515.8800, 43.49183
516.3621, 43.77483
516.8442, 43.92053
517.3264, 44.18782
517.8085, 44.74177
518.2906, 45.20633
518.7727, 45.43740
519.2548, 45.47353
519.7369, 45.35195
520.2191, 45.03005
520.7012, 44.69737
521.1833, 44.54976
521.6654, 44.57781
522.1475, 44.73919
522.6296, 45.09132
523.1118, 45.44045
523.5939, 45.58751
524.0760, 45.54989
524.5581, 45.36160
525.0402, 44.90792
525.5223, 44.41050
526.0045, 43.93928
526.4866, 43.55025
526.9687, 43.44642
527.4508, 43.74903
527.9329, 44.16713
528.4150, 44.13789
528.8972, 43.37601
529.3793, 42.81614
529.8614, 42.52584
530.3435, 42.36219
530.8256, 42.32370
531.3077, 42.34291
531.7899, 42.28044
532.2720, 42.04447
532.7541, 41.71763
533.2362, 41.51527
533.7183, 41.46582
534.2004, 41.45818
534.6826, 41.45180
535.1647, 41.50301
535.6468, 41.71624
536.1289, 42.04434
536.6110, 42.26863
537.0931, 42.16310
537.5753, 41.91963
538.0574, 41.92692
538.5395, 42.19748
539.0216, 42.44297
539.5037, 42.55725
539.9858, 42.56720
540.4680, 42.47965
540.9501, 42.25111
541.4322, 42.17529
541.9143, 42.49138
542.3964, 42.89485
542.8785, 43.04452
543.3607, 42.96163
543.8428, 42.93484
544.3249, 43.17588
544.8070, 43.56015
545.2891, 43.62326
545.7712, 43.01903
546.2534, 42.55703
546.7355, 42.31174
547.2176, 42.17403
547.6997, 42.08611
548.1818, 42.03021
548.6639, 41.98413
549.1461, 41.90783
549.6282, 41.84486
550.1103, 42.05202
550.5924, 42.75668
551.0745, 43.14160
551.5566, 42.63084
552.0388, 41.90046
552.5209, 41.46217
553.0030, 41.36005
553.4851, 41.34831
553.9672, 41.33427
554.4493, 41.30000
554.9315, 41.17912
555.4136, 40.96797
555.8957, 40.83239
556.3778, 40.88944
556.8599, 41.06305
557.3420, 41.15249
557.8242, 41.16371
558.3063, 41.10028
558.7884, 40.94980
559.2705, 40.73420
559.7526, 40.35961
560.2347, 39.90461
560.7169, 39.70347
561.1990, 40.04020
561.6811, 40.74883
562.1632, 41.04655
562.6453, 40.57983
563.1274, 40.30076
563.6096, 40.42646
564.0917, 40.66223
564.5738, 40.81961
565.0559, 40.88095
565.5380, 40.90649
566.0201, 40.90437
566.5023, 40.91385
566.9844, 41.04519
567.4665, 41.31033
567.9486, 41.64312
568.4307, 42.14488
568.9128, 42.58935
569.3950, 42.62265
569.8771, 42.20403
570.3592, 41.88618
570.8413, 41.87362
571.3234, 42.03364
571.8055, 42.25333
572.2877, 42.52127
572.7698, 42.87663
573.2519, 43.37177
573.7340, 43.86842
574.2161, 43.99579
574.6982, 43.41893
575.1804, 43.04696
575.6625, 43.04017
576.1446, 43.08528
576.6267, 42.92394
577.1088, 42.64885
577.5909, 42.56610
578.0731, 42.89355
578.5552, 43.40316
579.0373, 43.55925
579.5194, 43.28889
580.0015, 43.07665
580.4836, 43.11303
580.9658, 43.13058
581.4479, 42.83712
581.9300, 42.32551
582.4121, 42.00467
582.8942, 42.19546
583.3763, 42.49918
583.8585, 42.53492
584.3406, 42.35157
584.8227, 42.12349
585.3048, 41.90645
585.7869, 41.68164
586.2690, 41.41702
586.7512, 41.09459
587.2333, 40.82816
587.7154, 40.63539
588.1975, 40.47432
588.6796, 40.33303
589.1617, 40.20897
589.6439, 40.13648
590.1260, 40.12084
590.6081, 40.04391
591.0902, 39.69098
591.5723, 39.02020
592.0544, 38.46535
592.5366, 37.96476
593.0187, 37.69466
593.5008, 37.91606
593.9829, 38.33852
594.4650, 38.53688
594.9471, 38.40160
595.4293, 38.06797
595.9114, 37.52909
596.3935, 36.88295
596.8756, 36.38040
597.3577, 36.06358
597.8398, 35.78564
598.3220, 35.43960
598.8041, 35.03621
599.2862, 34.64310
599.7683, 34.20243
600.2504, 33.84695
600.7325, 33.55341
601.2147, 33.38142
601.6968, 33.49331
602.1789, 33.82287
602.6610, 34.03280
603.1431, 33.81582
603.6252, 33.29952
604.1074, 33.08430
604.5895, 33.34185
605.0716, 33.44854
605.5537, 33.05656
606.0358, 32.60050
606.5179, 32.38924
607.0001, 32.42134
607.4822, 32.52004
607.9643, 32.69618
608.4464, 32.83336
608.9285, 32.77214
609.4106, 32.53218
609.8928, 32.21367
610.3749, 31.83130
610.8570, 31.46935
611.3391, 31.26513
611.8212, 31.27864
612.3033, 31.22101
612.7855, 30.97039
613.2676, 30.78073
613.7497, 30.77529
614.2318, 30.90430
614.7139, 31.11733
615.1960, 31.38779
615.6782, 31.60983
616.1603, 31.63763
616.6424, 31.46604
617.1245, 31.18375
617.6066, 30.66584
618.0887, 30.25981
618.5709, 30.25247
619.0530, 30.41448
619.5351, 30.43093
620.0172, 30.23086
620.4993, 29.98049
620.9814, 29.74382
621.4636, 29.52885
621.9457, 29.34130
622.4278, 29.18390
622.9099, 29.08132
623.3920, 29.06177
623.8741, 29.09225
624.3563, 29.05777
624.8384, 28.94695
625.3205, 28.78110
625.8026, 28.53964
626.2847, 28.26324
626.7668, 27.89573
627.2490, 27.51472
627.7311, 27.33159
628.2132, 27.50326
628.6953, 27.80316
629.1774, 27.80331
629.6595, 27.49097
630.1417, 27.22182
630.6238, 27.08856
631.1059, 26.96744
631.5880, 26.73471
632.0701, 26.42323
632.5522, 26.13152
633.0344, 25.74505
633.5165, 25.53462
633.9986, 25.87343
634.4807, 26.38641
634.9628, 26.45085
635.4449, 25.96679
635.9271, 25.30104
636.4092, 24.76269
636.8913, 24.35559
637.3734, 24.16818
637.8555, 24.36279
638.3376, 24.52082
638.8198, 24.55720
639.3019, 24.55307
639.7840, 24.60074
640.2661, 24.68229
640.7482, 24.66927
641.2303, 24.44599
641.7125, 24.11242
642.1946, 23.76896
642.6767, 23.43045
643.1588, 23.29885
643.6409, 23.50448
644.1230, 23.75874
644.6052, 23.66658
645.0873, 23.16283
645.5694, 22.88824
646.0515, 23.02886
646.5336, 23.18717
647.0157, 23.29044
647.4979, 23.28151
647.9800, 23.03199
648.4621, 22.54280
648.9442, 22.05126
649.4263, 21.81706
649.9084, 21.80916
650.3906, 21.74772
650.8727, 21.62663
651.3548, 21.46555
651.8369, 21.21264
652.3190, 20.96206
652.8011, 20.82318
653.2833, 20.80040
653.7654, 20.78153
654.2475, 20.75442
654.7296, 20.68858
655.2117, 20.51450
655.6938, 20.27312
656.1760, 20.10310
656.6581, 20.06030
657.1402, 20.06857
657.6223, 20.02044
658.1044, 19.91075
658.5865, 19.77543
659.0687, 19.62091
659.5508, 19.43044
660.0329, 19.09638
660.5150, 18.77808
660.9971, 18.69601
661.4792, 18.88618
661.9614, 19.10233
662.4435, 19.22402
662.9256, 19.21010
663.4077, 18.82513
663.8898, 18.06555
664.3719, 17.63514
664.8541, 17.95611
665.3362, 18.60668
665.8183, 18.85905
666.3004, 18.61300
666.7825, 18.29204
667.2646, 17.75306
667.7468, 17.29529
668.2289, 17.03359
668.7110, 16.96436
669.1931, 17.14653
669.6752, 17.57623
670.1573, 17.97383
670.6395, 17.92949
671.1216, 17.48720
671.6037, 17.25895
672.0858, 17.32189
672.5679, 17.36110
673.0500, 17.16299
673.5322, 16.90796
674.0143, 16.91669
674.4964, 17.25169
674.9785, 17.39763
675.4606, 16.97399
675.9427, 16.49993
676.4249, 16.46252
676.9070, 16.72347
677.3891, 16.88485
677.8712, 16.78750
678.3533, 16.56007
678.8354, 16.37642
679.3176, 16.23567
679.7997, 16.14753
680.2818, 16.11675
680.7639, 16.13362
681.2460, 16.26478
681.7281, 16.39940
682.2103, 16.41963
682.6924, 16.30838
683.1745, 16.11543
683.6566, 15.72195
684.1387, 15.35396
684.6208, 15.35449
685.1030, 15.66152
685.5851, 15.95873
686.0672, 16.11739
686.5493, 16.17205
687.0314, 16.16338
687.5135, 16.07088
687.9957, 16.02606
688.4778, 16.00349
688.9599, 16.06102
689.4420, 16.39495
689.9241, 16.71921
690.4063, 16.64594
690.8884, 16.12980
691.3705, 15.60031
691.8526, 15.33619
692.3347, 15.29020
692.8168, 15.44315
693.2990, 15.77582
693.7811, 16.01879
694.2632, 16.06325
694.7453, 15.99930
695.2274, 15.95071
695.7095, 15.92863
696.1917, 15.84791
696.6738, 15.62414
697.1559, 15.44817
697.6380, 15.39864
698.1201, 15.41844
698.6022, 15.43473
699.0844, 15.43793
699.5665, 15.48111
700.0486, 15.65979
700.5307, 15.88646
701.0128, 15.89853
701.4949, 15.68844
701.9771, 15.49503
702.4592, 15.40130
702.9413, 15.33671
703.4234, 15.20572
703.9055, 15.00258
704.3876, 14.88411
704.8698, 14.87718
705.3519, 14.92408
705.8340, 15.00328
706.3161, 15.12706
706.7982, 15.36179
707.2803, 15.67909
707.7625, 15.91040
708.2446, 15.89782
708.7267, 15.73049
709.2088, 15.69595
709.6909, 15.82257
710.1730, 15.74524
710.6552, 15.26425
711.1373, 14.74612
711.6194, 14.55051
712.1015, 14.62831
712.5836, 14.69179
713.0657, 14.69523
713.5479, 14.71639
714.0300, 14.82521
714.5121, 14.93702
714.9942, 14.94136
715.4763, 14.84918
715.9584, 14.76399
716.4406, 14.75417
716.9227, 14.79838
717.4048, 14.84899
717.8869, 14.90556
718.3690, 14.98413
718.8511, 15.13332
719.3333, 15.22268
719.8154, 15.06924
720.2975, 14.79413
720.7796, 14.72015
721.2617, 15.02691
721.7438, 15.20977
722.2260, 14.97244
722.7081, 14.62747
723.1902, 14.43664
723.6723, 14.41545
724.1544, 14.51774
724.6365, 14.72547
725.1187, 14.94826
725.6008, 15.02141
726.0829, 14.93446
726.5650, 14.84197
727.0471, 14.76586
727.5292, 14.65026
728.0114, 14.39423
728.4935, 14.11302
728.9756, 14.00530
729.4577, 14.11996
729.9398, 14.20040
730.4219, 14.18107
730.9041, 14.09350
731.3862, 13.85769
731.8683, 13.59189
732.3504, 13.60436
732.8325, 13.98287
733.3146, 14.37108
733.7968, 14.24336
734.2789, 13.65443
734.7610, 13.53810
735.2431, 14.08872
735.7252, 14.52051
736.2073, 14.53398
736.6895, 14.32220
737.1716, 14.05107
737.6537, 13.72720
738.1358, 13.54497
738.6179, 13.64723
739.1000, 13.78889
739.5822, 13.84872
740.0643, 13.85969
740.5464, 13.86277
741.0285, 13.87234
741.5106, 13.90757
741.9927, 13.99728
742.4749, 14.10625
742.9570, 14.12983
743.4391, 14.07531
743.9212, 13.85474
744.4033, 13.27723
744.8854, 12.79592
745.3676, 12.89402
745.8497, 13.39950
746.3318, 13.75450
746.8139, 13.85999
747.2960, 13.90059
747.7781, 13.96697
748.2603, 13.96912
748.7424, 13.68780
749.2245, 13.25674
749.7066, 13.14979
750.1887, 13.63585
750.6708, 14.25345
751.1530, 14.19134
751.6351, 13.47290
752.1172, 12.96065
752.5993, 12.72633
753.0814, 12.63153
753.5635, 12.61026
754.0457, 12.68283
754.5278, 12.93601
755.0099, 13.44373
755.4920, 13.76969
755.9741, 13.76123
756.4562, 13.66238
756.9384, 13.56954
757.4205, 13.48820
757.9026, 13.40308
758.3847, 13.31447
758.8668, 13.25843
759.3489, 13.28579
759.8311, 13.36399
760.3132, 13.41774
760.7953, 13.44864
761.2774, 13.33962
761.7595, 12.97987
762.2416, 12.66981
762.7238, 12.76210
763.2059, 13.24335
763.6880, 13.56058
764.1701, 13.73047
764.6522, 13.73038
765.1343, 13.40957
765.6165, 13.03363
766.0986, 12.79232
766.5807, 12.69229
767.0628, 12.66926
767.5449, 12.69275
768.0270, 12.77763
768.5092, 12.98529
768.9913, 13.27034
769.4734, 13.50120
769.9555, 13.66275
770.4376, 13.66418
770.9197, 13.40840
771.4019, 13.04359
771.8840, 12.91533
772.3661, 13.13809
772.8482, 13.26934
773.3303, 13.18861
773.8124, 13.16107
774.2946, 13.41084
774.7767, 13.69217
775.2588, 13.64663
775.7409, 13.23427
776.2230, 12.86264
776.7051, 12.84066
777.1873, 12.94614
777.6694, 12.85548
778.1515, 12.66290
778.6336, 12.73379
779.1157, 13.15794
779.5978, 13.56312
780.0800, 13.57936
780.5621, 13.26207
781.0442, 12.95263
781.5263, 12.55764
782.0084, 12.40335
782.4905, 12.81549
782.9727, 13.19779
783.4548, 13.08089
783.9369, 12.66765
784.4190, 12.48950
784.9011, 12.76464
785.3832, 12.99907
785.8654, 12.89829
786.3475, 12.68551
786.8296, 12.57054
787.3117, 12.56131
787.7938, 12.62287
788.2759, 12.73827
788.7581, 12.85163
789.2402, 12.87273
789.7223, 12.80667
790.2044, 12.77452
790.6865, 12.79016
791.1686, 12.77805
791.6508, 12.68028
792.1329, 12.57597
792.6150, 12.57174
793.0971, 12.66775
793.5792, 12.76850
794.0613, 12.88099
794.5435, 12.98198
795.0256, 13.12219
795.5077, 13.20728
795.9898, 13.10510
796.4719, 12.85053
796.9540, 12.59446
797.4362, 12.39587
797.9183, 12.31634
798.4004, 12.54598
798.8825, 12.97933
799.3646, 13.17707
799.8467, 13.08309
800.3289, 12.89082
800.8110, 12.66972
801.2931, 12.50965
801.7752, 12.63766
802.2573, 13.22268
802.7394, 13.52612
803.2216, 13.42267
803.7037, 13.17494
804.1858, 12.63153
804.6679, 12.11258
805.1500, 12.01852
805.6321, 12.36018
806.1143, 12.71272
806.5964, 12.92152
807.0785, 13.01643
807.5606, 12.97487
808.0427, 12.85336
808.5248, 12.74363
809.0070, 12.66927
809.4891, 12.64112
809.9712, 12.67389
810.4533, 12.73758
810.9354, 12.75667
811.4175, 12.73130
811.8997, 12.64909
812.3818, 12.46269
812.8639, 12.31931
813.3460, 12.31687
813.8281, 12.40740
814.3102, 12.49836
814.7924, 12.60521
815.2745, 12.65131
815.7566, 12.62778
816.2387, 12.53933
816.7208, 12.28058
817.2029, 12.01270
817.6851, 11.97612
818.1672, 12.19125
818.6493, 12.44001
819.1314, 12.56984
819.6135, 12.63023
820.0956, 12.72007
820.5778, 12.81698
821.0599, 12.79796
821.5420, 12.63509
822.0241, 12.45600
822.5062, 12.34808
822.9883, 12.30476
823.4705, 12.30708
823.9526, 12.36682
824.4347, 12.44616
824.9168, 12.62993
825.3989, 12.72724
825.8810, 12.64660
826.3632, 12.44698
826.8453, 12.16913
827.3274, 11.81239
827.8095, 11.54684
828.2916, 11.40847
828.7737, 11.41092
829.2559, 11.64786
829.7380, 11.99741
830.2201, 12.31750
830.7022, 12.55137
831.1843, 12.58920
831.6664, 12.28691
832.1486, 11.88113
832.6307, 11.95844
833.1128, 12.49154
833.5949, 12.88949
834.0770, 13.07041
834.5591, 13.11210
835.0413, 13.01914
835.5233, 12.86396
836.0054, 12.82440
836.4875, 12.95148
836.9697, 13.04829
837.4518, 13.20354
837.9339, 13.22474
838.4160, 12.91216
838.8981, 12.51807
839.3802, 12.31182
839.8624, 12.31452
840.3445, 12.38571
840.8266, 12.47650
841.3087, 12.58954
841.7908, 12.77754
842.2729, 12.96871
842.7551, 13.05432
843.2372, 13.01536
843.7193, 12.84383
844.2014, 12.52317
844.6835, 12.15176
845.1656, 11.89353
845.6478, 11.74745
846.1299, 11.74157
846.6120, 11.90671
847.0941, 12.09691
847.5762, 12.27076
848.0583, 12.41235
848.5405, 12.49777
849.0226, 12.52389
849.5047, 12.51279
849.9868, 12.39643
850.4689, 12.33383
850.9510, 12.47677
851.4332, 12.59251
851.9153, 12.42262
852.3974, 12.05352
852.8795, 11.78514
853.3616, 11.74438
853.8438, 11.79596
854.3259, 11.81587
854.8080, 11.87296
855.2901, 12.14528
855.7722, 12.55927
856.2543, 12.84421
856.7365, 12.88953
857.2186, 12.72593
857.7007, 12.32246
858.1828, 11.74137
858.6649, 11.48543
859.1470, 11.61101
859.6292, 11.69785
860.1113, 11.61660
860.5934, 11.53150
861.0755, 11.59941
861.5576, 11.78465
862.0397, 11.90494
862.5219, 11.97401
863.0040, 11.95687
863.4861, 11.69877
863.9682, 11.51637
864.4503, 11.62491
864.9324, 11.88903
865.4146, 12.13330
865.8967, 12.31456
866.3788, 12.39057
866.8609, 12.28344
867.3430, 12.10741
867.8251, 11.95176
868.3073, 11.81498
868.7894, 11.68459
869.2715, 11.56237
869.7536, 11.47989
870.2357, 11.46402
870.7178, 11.47767
871.2000, 11.42166
871.6821, 11.30066
872.1642, 11.29724
872.6463, 11.44919
873.1284, 11.58974
873.6105, 11.65171
874.0927, 11.64107
874.5748, 11.55665
875.0569, 11.38703
875.5390, 11.24065
876.0211, 10.94942
876.5032, 10.91086
876.9854, 11.48790
877.4675, 12.07644
877.9496, 12.22891
878.4317, 12.00659
878.9138, 11.62897
879.3959, 11.02269
879.8781, 10.65610
880.3602, 11.03304
880.8423, 11.55159
881.3244, 11.61788
881.8065, 11.35258
882.2886, 11.06607
882.7708, 10.87411
883.2529, 10.81654
883.7350, 10.99910
884.2171, 11.28013
884.6992, 11.29278
885.1813, 11.07444
885.6635, 10.91216
886.1456, 10.85872
886.6277, 10.90128
887.1098, 11.05183
887.5919, 11.24712
888.0740, 11.31521
888.5562, 11.21498
889.0383, 11.14499
889.5204, 11.13990
890.0025, 11.10677
890.4846, 10.97051
890.9667, 10.81976
891.4489, 10.74668
891.9310, 10.74809
892.4131, 10.77276
892.8952, 10.88819
893.3773, 10.92647
893.8594, 10.69981
894.3416, 10.49391
894.8237, 10.66643
895.3058, 11.03351
895.7879, 11.08945
896.2700, 10.64852
896.7521, 10.22640
897.2343, 10.29875
897.7164, 10.59457
898.1985, 10.76420
898.6806, 10.82257
899.1627, 10.85918
899.6448, 10.89194
900.1270, 10.85147
900.6091, 10.66451
901.0912, 10.40939
901.5733, 10.32267
902.0554, 10.40904
902.5375, 10.34269
903.0197, 10.03225
903.5018, 9.887228
903.9839, 10.18637
904.4660, 10.63129
904.9481, 10.72018
905.4302, 10.39688
905.9124, 10.26861
906.3945, 10.60107
906.8766, 10.74182
907.3587, 10.38819
907.8408, 9.999022
908.3229, 9.851711
908.8051, 9.927133
909.2872, 10.18567
909.7693, 10.75320
910.2514, 11.06334
910.7335, 10.64297
911.2156, 10.15134
911.6978, 10.07410
912.1799, 10.25059
912.6620, 10.41883
913.1441, 10.50872
913.6262, 10.53033
914.1083, 10.45854
914.5905, 10.37787
915.0726, 10.40773
915.5547, 10.51337
916.0368, 10.65763
916.5189, 10.80793
917.0010, 10.77224
917.4832, 10.44389
917.9653, 10.11076
918.4474, 10.26550
918.9295, 10.83541
919.4116, 10.96752
919.8937, 10.57775
920.3759, 10.36446
920.8580, 10.55688
921.3401, 10.80501
921.8222, 10.81592
922.3043, 10.65719
922.7864, 10.58687
923.2686, 10.64070
923.7507, 10.70409
924.2328, 10.87109
924.7149, 10.93393
925.1970, 10.69507
925.6791, 10.40343
926.1613, 10.32458
926.6434, 10.46380
927.1255, 10.68284
927.6076, 11.14860
928.0897, 11.42637
928.5718, 11.23112
929.0540, 10.88795
929.5361, 10.60034
930.0182, 10.41596
930.5003, 10.40813
930.9824, 10.59408
931.4645, 10.72225
931.9467, 10.48330
932.4288, 10.16811
932.9109, 10.17777
933.3930, 10.39273
933.8751, 10.52674
934.3572, 10.53834
934.8394, 10.56552
935.3215, 10.70448
935.8036, 10.85294
936.2857, 10.77503
936.7678, 10.52368
937.2499, 10.51858
937.7321, 10.78148
938.2142, 11.02360
938.6963, 11.14188
939.1784, 11.22298
939.6605, 11.36941
940.1426, 11.55184
940.6248, 11.56960
941.1069, 11.33773
941.5890, 11.20611
942.0711, 11.25970
942.5532, 11.31550
943.0353, 11.23392
943.5175, 11.13021
943.9996, 11.22047
944.4817, 11.52739
944.9638, 11.73727
945.4459, 11.79349
945.9280, 11.81358
946.4102, 11.75243
946.8923, 11.72789
947.3744, 11.89997
947.8565, 12.16016
948.3386, 12.22328
948.8207, 11.97543
949.3029, 11.84948
949.7850, 12.09852
950.2671, 12.48152
950.7492, 12.96454
951.2313, 13.39320
951.7134, 13.46731
952.1956, 13.25288
952.6777, 13.19681
953.1598, 13.57051
953.6419, 14.07240
954.1240, 14.37828
954.6061, 14.58271
955.0883, 14.84549
955.5704, 15.16942
956.0525, 15.54753
956.5346, 15.96776
957.0167, 16.33370
957.4988, 16.54423
957.9810, 16.66030
958.4631, 16.82299
958.9452, 17.03416
959.4273, 17.30433
959.9094, 17.62903
960.3915, 18.12055
960.8737, 18.86295
961.3558, 19.67752
961.8379, 20.29570
962.3200, 20.72919
962.8021, 21.24265
963.2842, 21.85167
963.7664, 22.51668
964.2485, 23.29524
964.7306, 24.00321
965.2127, 24.42844
965.6948, 24.75639
966.1769, 25.40508
966.6591, 26.45645
967.1412, 27.50950
967.6233, 28.54437
968.1054, 29.59928
968.5875, 30.72689
969.0696, 31.83400
969.5518, 32.85764
970.0339, 33.79630
970.5160, 34.67955
970.9981, 35.50747
971.4802, 36.27336
971.9623, 36.96931
972.4445, 37.60327
972.9266, 38.12283
973.4087, 38.61800
973.8908, 39.26344
974.3729, 40.00845
974.8550, 40.56768
975.3372, 40.80960
975.8193, 40.85188
976.3014, 40.71724
976.7835, 40.47908
977.2656, 40.20856
977.7477, 39.90498
978.2299, 39.56382
978.7120, 39.17690
979.1941, 38.68348
979.6762, 37.97360
980.1583, 37.25801
980.6404, 36.89580
981.1226, 36.75080
981.6047, 36.44671
982.0868, 36.00913
982.5689, 35.80315
983.0510, 35.96969
983.5331, 36.18634
984.0153, 36.07459
984.4974, 35.75864
984.9795, 35.57299
985.4616, 35.53072
985.9437, 35.85916
986.4258, 36.60291
986.9080, 37.40941
987.3901, 38.10776
987.8722, 38.69728
988.3543, 39.14705
988.8364, 39.46928
989.3185, 39.98323
989.8007, 40.71333
990.2828, 41.54625
990.7649, 42.53625
991.2470, 43.42791
991.7291, 44.04338
992.2112, 44.46365
992.6934, 44.84048
993.1755, 45.13460
993.6576, 45.61198
994.1397, 46.44596
994.6218, 47.15191
995.1039, 47.60541
995.5861, 47.91572
996.0682, 48.09719
996.5503, 48.20400
997.0324, 48.40554
997.5145, 48.79272
997.9966, 48.99888
998.4788, 48.94012
998.9609, 48.77413
999.4430, 48.43483
999.9251, 48.10363
1000.407, 48.03210
1000.889, 48.10817
1001.371, 47.90269
1001.854, 47.18293
1002.336, 46.62931
1002.818, 46.44048
1003.300, 46.48364
1003.782, 46.87545
1004.264, 47.32902
1004.746, 47.43532
1005.228, 47.25731
1005.711, 47.26010
1006.193, 47.67202
1006.675, 48.13341
1007.157, 48.31871
1007.639, 48.55890
1008.121, 49.19873
1008.603, 50.09180
1009.085, 51.05635
1009.567, 51.99286
1010.050, 52.67036
1010.532, 52.87458
1011.014, 53.03066
1011.496, 53.67056
1011.978, 54.42878
1012.460, 54.78094
1012.942, 54.79952
1013.424, 54.71435
1013.906, 54.60714
1014.389, 54.52745
1014.871, 54.53907
1015.353, 54.52182
1015.835, 54.38440
1016.317, 54.05842
1016.799, 53.33929
1017.281, 52.26625
1017.763, 50.98469
1018.246, 49.57302
1018.728, 48.30267
1019.210, 47.47146
1019.692, 46.84892
1020.174, 45.92090
1020.656, 44.75884
1021.138, 43.71535
1021.620, 42.81399
1022.102, 41.95290
1022.585, 41.09715
1023.067, 40.25914
1023.549, 39.44735
1024.031, 38.67345
1024.513, 37.98509
1024.995, 37.38033
1025.477, 36.65968
1025.959, 35.77904
1026.442, 35.17269
1026.924, 35.03359
1027.406, 35.20799
1027.888, 35.57137
1028.370, 36.05675
1028.852, 36.25756
1029.334, 36.11495
1029.816, 36.09735
1030.298, 36.20782
1030.781, 36.64956
1031.263, 37.62171
1031.745, 38.67040
1032.227, 39.16432
1032.709, 39.21435
1033.191, 39.86263
1033.673, 41.30663
1034.155, 42.67987
1034.638, 43.95062
1035.120, 45.04744
1035.602, 45.81000
1036.084, 46.57639
1036.566, 47.82771
1037.048, 49.52200
1037.530, 50.97412
1038.012, 52.04789
1038.495, 53.19823
1038.977, 54.48970
1039.459, 55.81120
1039.941, 57.15752
1040.423, 58.46538
1040.905, 59.68835
1041.387, 60.81452
1041.869, 61.64226
1042.351, 62.08246
1042.833, 62.37437
1043.316, 62.74329
1043.798, 62.70496
1044.280, 61.84857
1044.762, 60.61350
1045.244, 59.54053
1045.726, 58.61366
1046.208, 57.44932
1046.690, 55.99650
1047.173, 54.36719
1047.655, 52.31208
1048.137, 50.38647
1048.619, 48.89620
1049.101, 47.63609
1049.583, 46.41380
1050.065, 45.20715
1050.547, 43.86848
1051.030, 42.30800
1051.512, 40.73332
1051.994, 38.89344
1052.476, 37.34942
1052.958, 36.74368
1053.440, 36.34821
1053.922, 35.12524
1054.404, 33.19564
1054.886, 31.82294
1055.369, 31.59694
1055.851, 31.29182
1056.333, 30.48329
1056.815, 29.69256
1057.297, 29.30712
1057.779, 29.02254
1058.261, 28.36493
1058.743, 27.42052
1059.225, 26.80921
1059.708, 26.81575
1060.190, 26.86003
1060.672, 26.78049
1061.154, 26.67867
1061.636, 26.60489
1062.118, 26.54423
1062.600, 26.51223
1063.082, 26.47782
1063.565, 26.29342
1064.047, 25.77999
1064.529, 25.53293
1065.011, 26.08146
1065.493, 26.59641
1065.975, 26.52790
1066.457, 26.21890
1066.939, 26.04521
1067.422, 26.01138
1067.904, 25.94334
1068.386, 25.75717
1068.868, 25.69145
1069.350, 25.94436
1069.832, 26.22877
1070.314, 26.40817
1070.796, 26.50807
1071.278, 26.59008
1071.760, 26.62227
1072.243, 26.47182
1072.725, 26.06851
1073.207, 25.73890
1073.689, 25.64339
1074.171, 25.63945
1074.653, 25.65543
1075.135, 25.71357
1075.617, 25.95353
1076.100, 26.23347
1076.582, 26.16362
1077.064, 25.62353
1077.546, 25.16730
1078.028, 25.04526
1078.510, 25.06499
1078.992, 25.29134
1079.474, 25.46346
1079.957, 25.25994
1080.439, 24.83329
1080.921, 24.56266
1081.403, 24.52452
1081.885, 24.36250
1082.367, 23.78180
1082.849, 23.21802
1083.331, 22.89286
1083.813, 22.68023
1084.296, 22.56522
1084.778, 22.43973
1085.260, 22.08439
1085.742, 21.49293
1086.224, 21.01462
1086.706, 20.78045
1087.188, 20.70296
1087.670, 20.97326
1088.152, 21.15287
1088.635, 20.77045
1089.117, 20.15028
1089.599, 19.80360
1090.081, 19.75710
1090.563, 19.66569
1091.045, 19.34594
1091.527, 19.10930
1092.009, 19.19384
1092.491, 19.28583
1092.974, 19.12618
1093.456, 18.88926
1093.938, 18.80909
1094.420, 18.87439
1094.902, 18.92624
1095.384, 18.93054
1095.866, 18.88517
1096.348, 18.81147
1096.831, 18.66160
1097.313, 18.26269
1097.795, 17.89089
1098.277, 17.92209
1098.759, 18.21187
1099.241, 18.29098
1099.723, 18.03287
1100.205, 17.75044
1100.688, 17.54965
1101.170, 17.33061
1101.652, 16.98545
1102.134, 16.66785
1102.616, 16.50102
1103.098, 16.45858
1103.580, 16.54893
1104.062, 16.79061
1104.544, 16.70571
1105.026, 15.76245
1105.509, 15.07315
1105.991, 15.17390
1106.473, 15.38148
1106.955, 15.26486
1107.437, 14.97776
1107.919, 14.79515
1108.401, 14.72633
1108.883, 14.54263
1109.366, 14.10837
1109.848, 13.71198
1110.330, 13.36906
1110.812, 13.09964
1111.294, 12.93145
1111.776, 12.82792
1112.258, 12.77518
1112.740, 12.75728
1113.223, 12.69522
1113.705, 12.56996
1114.187, 12.43247
1114.669, 12.13223
1115.151, 12.02291
1115.633, 12.46807
1116.115, 12.90295
1116.597, 12.83126
1117.079, 12.41081
1117.562, 12.06041
1118.044, 11.80423
1118.526, 11.51314
1119.008, 11.11861
1119.490, 10.80713
1119.972, 10.59003
1120.454, 10.49867
1120.936, 10.62787
1121.418, 10.83134
1121.901, 10.86085
1122.383, 10.71337
1122.865, 10.54424
1123.347, 10.31279
1123.829, 10.17054
1124.311, 10.18233
1124.793, 10.16178
1125.275, 9.988291
1125.758, 9.816517
1126.240, 9.840453
1126.722, 10.01916
1127.204, 10.13456
1127.686, 10.18376
1128.168, 10.17593
1128.650, 10.09693
1129.132, 10.03683
1129.615, 10.05475
1130.097, 9.960440
1130.579, 9.550008
1131.061, 9.015579
1131.543, 8.845334
1132.025, 9.043690
1132.507, 9.190914
1132.989, 9.293569
1133.471, 9.204625
1133.953, 8.871277
1134.436, 8.674272
1134.918, 8.848754
1135.400, 9.148681
1135.882, 9.237429
1136.364, 9.144117
1136.846, 8.951847
1137.328, 8.681266
1137.810, 8.488491
1138.293, 8.397396
1138.775, 8.512841
1139.257, 8.868771
1139.739, 9.157237
1140.221, 9.083435
1140.703, 8.805622
1141.185, 8.555711
1141.667, 8.378775
1142.150, 8.479097
1142.632, 8.785830
1143.114, 9.015783
1143.596, 9.096401
1144.078, 9.063630
1144.560, 8.934440
1145.042, 8.744715
1145.524, 8.447966
1146.006, 8.184159
1146.489, 8.173609
1146.971, 8.362982
1147.453, 8.760250
1147.935, 9.240225
1148.417, 9.407867
1148.899, 9.147295
1149.381, 8.950317
1149.863, 9.372677
1150.345, 9.733326
1150.828, 9.225810
1151.310, 8.476740
1151.792, 8.151119
1152.274, 8.165791
1152.756, 8.295427
1153.238, 8.478698
1153.720, 8.730227
1154.202, 9.162380
1154.685, 9.338093
1155.167, 8.793462
1155.649, 8.195436
1156.131, 7.922838
1156.613, 7.861048
1157.095, 8.010621
1157.577, 8.216121
1158.059, 8.043193
1158.542, 7.332174
1159.024, 6.968270
1159.506, 7.573170
1159.988, 7.966811
1160.470, 7.525505
1160.952, 7.092081
1161.434, 7.251601
1161.916, 7.700269
1162.398, 8.053974
1162.880, 8.289590
1163.363, 8.280408
1163.845, 7.778589
1164.327, 7.497011
1164.809, 7.571934
1165.291, 7.637039
1165.773, 7.546732
1166.255, 7.454649
1166.737, 7.476638
1167.220, 7.601690
1167.702, 7.831650
1168.184, 8.198842
1168.666, 8.319767
1169.148, 8.161158
1169.630, 7.875818
1170.112, 7.430077
1170.594, 7.170296
1171.077, 7.308717
1171.559, 7.548924
1172.041, 7.491279
1172.523, 7.266779
1173.005, 7.481621
1173.487, 8.069713
1173.969, 8.059347
1174.451, 7.455894
1174.933, 7.254783
1175.416, 7.713151
1175.898, 8.151281
1176.380, 8.086738
1176.862, 7.834955
1177.344, 7.858060
1177.826, 8.037490
1178.308, 8.169158
1178.790, 8.211104
1179.272, 7.952197
1179.755, 7.493329
1180.237, 7.327295
1180.719, 7.605700
1181.201, 7.841090
1181.683, 7.588891
1182.165, 7.293493
1182.647, 7.479615
1183.129, 7.774260
1183.612, 7.709245
1184.094, 7.466702
1184.576, 7.410926
1185.058, 7.543144
1185.540, 7.586031
1186.022, 7.410730
1186.504, 7.322015
1186.986, 7.498712
1187.469, 7.735976
1187.951, 7.982412
1188.433, 8.201532
1188.915, 8.472647
1189.397, 8.650043
1189.879, 8.353489
1190.361, 7.565837
1190.843, 7.217564
1191.325, 7.829004
1191.807, 8.162763
1192.290, 7.860865
1192.772, 7.736798
1193.254, 8.262708
1193.736, 8.783275
1194.218, 8.678432
1194.700, 8.183336
1195.182, 7.898417
1195.664, 7.836009
1196.147, 7.867036
1196.629, 8.046598
1197.111, 7.964213
1197.593, 7.496224
1198.075, 7.197501
1198.557, 7.360651
1199.039, 7.584816
1199.521, 7.398564
1200.004, 6.998319
1200.486, 6.969287
1200.968, 7.217683
1201.450, 7.232634
1201.932, 7.042815
1202.414, 6.918464
1202.896, 6.921944
1203.378, 7.017754
1203.860, 7.188140
1204.343, 7.391008
1204.825, 7.656579
1205.307, 7.857110
1205.789, 7.752767
1206.271, 7.516196
1206.753, 7.387423
1207.235, 7.353091
1207.717, 7.342878
1208.199, 7.329135
1208.682, 7.265651
1209.164, 7.103881
1209.646, 6.977049
1210.128, 7.001796
1210.610, 7.020002
1211.092, 6.891101
1211.574, 6.754914
1212.056, 6.740304
1212.539, 6.825131
1213.021, 6.950111
1213.503, 7.111166
1213.985, 7.284197
1214.467, 7.435625
1214.949, 7.666638
1215.431, 8.195184
1215.913, 8.426825
1216.396, 8.007411
1216.878, 7.441546
1217.360, 7.171531
1217.842, 7.103913
1218.324, 6.990870
1218.806, 6.829413
1219.288, 6.796911
1219.770, 6.902165
1220.252, 6.985940
1220.734, 7.023810
1221.217, 7.064557
1221.699, 7.129966
1222.181, 7.172078
1222.663, 7.134366
1223.145, 7.072781
1223.627, 7.083090
1224.109, 7.154019
1224.591, 7.328002
1225.074, 7.521235
1225.556, 7.484143
1226.038, 7.235046
1226.520, 6.979852
1227.002, 6.803810
1227.484, 6.797215
1227.966, 7.301251
1228.448, 7.637399
1228.931, 7.014245
1229.413, 6.323071
1229.895, 6.439951
1230.377, 6.944146
1230.859, 7.251212
1231.341, 7.312132
1231.823, 7.257292
1232.305, 7.060110
1232.787, 6.928012
1233.270, 6.921934
1233.752, 6.931462
1234.234, 6.929336
1234.716, 6.947113
1235.198, 7.004509
1235.680, 7.088400
1236.162, 7.199383
1236.644, 7.314508
1237.126, 7.308470
1237.609, 7.163192
1238.091, 7.070949
1238.573, 7.033626
1239.055, 7.146699
1239.537, 7.431793
1240.019, 7.499771
1240.501, 7.123945
1240.983, 6.827650
1241.466, 7.350897
1241.948, 8.141482
1242.430, 8.001590
1242.912, 7.407607
1243.394, 7.397881
1243.876, 7.776734
1244.358, 7.898130
1244.840, 7.684669
1245.323, 7.417060
1245.805, 7.200449
1246.287, 7.074598
1246.769, 7.098618
1247.251, 7.170846
1247.733, 7.321253
1248.215, 7.407014
1248.697, 7.270122
1249.179, 7.030409
1249.661, 6.825026
1250.144, 6.676184
1250.626, 6.635045
1251.108, 6.710425
1251.590, 6.883757
1252.072, 7.278523
1252.554, 7.473281
1253.036, 7.321262
1253.518, 7.146753
1254.001, 7.119712
1254.483, 7.141963
1254.965, 7.105107
1255.447, 7.008166
1255.929, 6.803256
1256.411, 6.523850
1256.893, 6.431765
1257.375, 6.507492
1257.858, 6.615608
1258.340, 6.716484
1258.822, 6.740160
1259.304, 6.661934
1259.786, 6.660899
1260.268, 6.993990
1260.750, 7.282862
1261.232, 7.041965
1261.714, 6.662872
1262.197, 6.507930
1262.679, 6.519356
1263.161, 6.633458
1263.643, 6.792746
1264.125, 6.883526
1264.607, 6.882846
1265.089, 6.820745
1265.571, 6.650535
1266.053, 6.498191
1266.536, 6.306089
1267.018, 6.259641
1267.500, 6.536149
1267.982, 6.819857
1268.464, 6.811604
1268.946, 6.614710
1269.428, 6.460867
1269.910, 6.353315
1270.393, 6.383534
1270.875, 6.545750
1271.357, 6.664772
1271.839, 6.724986
1272.321, 6.821190
1272.803, 6.979157
1273.285, 7.101478
1273.767, 7.127471
1274.250, 7.031675
1274.732, 6.651504
1275.214, 6.259440
1275.696, 6.198606
1276.178, 6.323694
1276.660, 6.477044
1277.142, 6.626812
1277.624, 6.775420
1278.106, 6.914534
1278.589, 6.986379
1279.071, 6.939867
1279.553, 6.911522
1280.035, 7.057622
1280.517, 7.027726
1280.999, 6.619424
1281.481, 6.170352
1281.963, 5.794572
1282.445, 5.613742
1282.928, 5.853631
1283.410, 6.383723
1283.892, 6.580713
1284.374, 6.449263
1284.856, 6.460523
1285.338, 6.616760
1285.820, 6.796527
1286.302, 6.961868
1286.785, 7.005280
1287.267, 6.882849
1287.749, 6.720500
1288.231, 6.606991
##END=



