##NAMES=Stewartite
##RRUFFID=R070643
##IDEAL CHEMISTRY=Mn^2+^Fe^3+^_2_(PO_4_)_2_(OH)_2_&#183;8H_2_O
##LOCALITY=Hagendorf, Bavaria, Germany
##OWNER=RRUFF
##SOURCE=Michael Scott
##DESCRIPTION=Transparent yellow bladed crystals with orange laueite
##STATUS=The identification of this mineral has been confirmed by single-crystal X-ray diffraction.
##URL=rruff.info/R070643
143.0643, 123.9998
143.5464, 125.2969
144.0285, 126.4802
144.5106, 127.5727
144.9927, 128.4786
145.4748, 129.1843
145.9570, 129.7033
146.4391, 130.0199
146.9212, 129.9891
147.4033, 129.9355
147.8854, 130.0106
148.3675, 130.2946
148.8497, 130.5726
149.3318, 130.7407
149.8139, 130.8599
150.2960, 131.2596
150.7781, 132.1267
151.2602, 133.1310
151.7424, 134.0865
152.2245, 134.9032
152.7066, 135.7715
153.1887, 136.6347
153.6708, 137.5033
154.1529, 138.6079
154.6351, 140.3444
155.1172, 142.1091
155.5993, 143.4971
156.0814, 143.9917
156.5635, 144.6086
157.0456, 145.7948
157.5278, 147.5417
158.0099, 148.6882
158.4920, 148.5470
158.9741, 147.9250
159.4562, 147.5410
159.9383, 147.7920
160.4205, 148.1007
160.9026, 148.2714
161.3847, 148.2878
161.8668, 148.3076
162.3489, 147.9534
162.8310, 147.7570
163.3132, 148.3374
163.7953, 151.1781
164.2774, 153.8596
164.7595, 154.9124
165.2416, 154.0028
165.7237, 153.0948
166.2059, 153.1575
166.6880, 153.8300
167.1701, 154.5652
167.6522, 155.1106
168.1343, 155.6436
168.6164, 156.3141
169.0986, 157.1716
169.5807, 158.0208
170.0628, 158.7194
170.5449, 159.3190
171.0270, 159.9138
171.5091, 160.4660
171.9913, 161.0795
172.4734, 161.8609
172.9555, 162.8439
173.4376, 163.9510
173.9197, 165.1467
174.4018, 166.4218
174.8840, 167.7423
175.3661, 168.8745
175.8482, 170.0964
176.3303, 171.8062
176.8124, 174.1625
177.2945, 176.7985
177.7767, 179.3021
178.2588, 181.7506
178.7409, 184.3562
179.2230, 187.3999
179.7051, 190.7076
180.1872, 193.9867
180.6694, 197.3559
181.1515, 200.4311
181.6336, 202.6203
182.1157, 203.9743
182.5978, 204.8413
183.0799, 205.5175
183.5621, 205.9072
184.0442, 205.7358
184.5263, 204.9153
185.0084, 203.5639
185.4905, 201.7159
185.9726, 199.3932
186.4547, 196.9678
186.9369, 194.3897
187.4190, 191.8358
187.9011, 190.2022
188.3832, 189.8141
188.8653, 190.2964
189.3474, 190.8838
189.8296, 191.5816
190.3117, 192.4154
190.7938, 193.4379
191.2759, 194.6355
191.7580, 195.8879
192.2401, 197.1709
192.7223, 198.5037
193.2044, 199.9865
193.6865, 201.6496
194.1686, 203.3323
194.6507, 204.8937
195.1328, 206.3340
195.6150, 207.7173
196.0971, 209.1890
196.5792, 210.5715
197.0613, 210.9902
197.5434, 210.2845
198.0255, 209.3719
198.5077, 209.3175
198.9898, 210.1704
199.4719, 210.5506
199.9540, 209.9357
200.4361, 208.5717
200.9182, 207.8483
201.4004, 207.9045
201.8825, 208.1990
202.3646, 208.1125
202.8467, 207.5683
203.3288, 207.3085
203.8109, 207.5330
204.2931, 208.2075
204.7752, 209.0428
205.2573, 210.0367
205.7394, 211.1973
206.2215, 212.4806
206.7036, 213.8181
207.1858, 215.5807
207.6679, 217.9338
208.1500, 220.8413
208.6321, 223.8015
209.1142, 226.8814
209.5963, 229.8888
210.0785, 232.5804
210.5606, 234.8454
211.0427, 237.1304
211.5248, 239.4819
212.0069, 241.9078
212.4890, 244.7993
212.9712, 248.3231
213.4533, 252.0743
213.9354, 255.5439
214.4175, 258.6644
214.8996, 261.8175
215.3817, 265.2208
215.8639, 268.8474
216.3460, 271.9897
216.8281, 274.5284
217.3102, 276.7489
217.7923, 278.9784
218.2744, 281.3848
218.7566, 283.4021
219.2387, 284.7747
219.7208, 285.5000
220.2029, 286.3252
220.6850, 287.3242
221.1671, 288.3251
221.6493, 289.1367
222.1314, 289.7715
222.6135, 290.2043
223.0956, 290.4131
223.5777, 290.3989
224.0598, 290.3165
224.5420, 290.4955
225.0241, 290.2477
225.5062, 288.7626
225.9883, 285.6527
226.4704, 282.1175
226.9525, 278.3829
227.4347, 274.3868
227.9168, 270.4869
228.3989, 266.6500
228.8810, 262.9446
229.3631, 259.4853
229.8452, 256.1779
230.3274, 253.2317
230.8095, 250.6775
231.2916, 248.5151
231.7737, 246.7700
232.2558, 245.5264
232.7379, 244.6115
233.2201, 243.8923
233.7022, 243.4498
234.1843, 243.0453
234.6664, 242.6123
235.1485, 242.1519
235.6306, 241.8317
236.1128, 241.6112
236.5949, 241.5671
237.0770, 241.7673
237.5591, 242.2149
238.0412, 242.9051
238.5233, 243.9190
239.0055, 245.2612
239.4876, 246.4097
239.9697, 247.2012
240.4518, 247.9883
240.9339, 249.0951
241.4160, 250.6617
241.8982, 252.2669
242.3803, 253.8176
242.8624, 255.3257
243.3445, 256.9120
243.8266, 258.4029
244.3087, 260.1777
244.7909, 262.5873
245.2730, 265.8962
245.7551, 269.3192
246.2372, 272.8424
246.7193, 276.4359
247.2014, 279.7072
247.6836, 282.4770
248.1657, 285.0988
248.6478, 287.8524
249.1299, 291.0414
249.6120, 293.7441
250.0941, 295.8715
250.5762, 297.4274
251.0584, 298.4644
251.5405, 299.1062
252.0226, 299.0587
252.5047, 298.0654
252.9868, 295.8644
253.4689, 293.3353
253.9511, 290.5227
254.4332, 287.4379
254.9153, 284.2215
255.3974, 280.9354
255.8795, 277.4432
256.3617, 273.5933
256.8438, 268.9809
257.3259, 265.0504
257.8080, 262.1411
258.2901, 259.9901
258.7722, 257.3761
259.2544, 253.8498
259.7365, 250.5962
260.2186, 248.2868
260.7007, 247.2866
261.1828, 246.1547
261.6649, 244.6433
262.1471, 243.0030
262.6292, 241.9938
263.1113, 241.8251
263.5934, 241.8676
264.0755, 241.7769
264.5576, 241.4359
265.0398, 241.3950
265.5219, 241.7651
266.0040, 242.3782
266.4861, 242.8493
266.9682, 243.1193
267.4503, 243.3949
267.9325, 243.8145
268.4146, 244.4770
268.8967, 244.8055
269.3788, 244.5953
269.8609, 244.2643
270.3430, 244.7270
270.8252, 246.2629
271.3073, 247.6613
271.7894, 248.3924
272.2715, 248.4117
272.7536, 248.2387
273.2357, 247.7769
273.7179, 247.2590
274.2000, 247.0192
274.6821, 247.0717
275.1642, 247.3507
275.6463, 248.0247
276.1284, 249.0943
276.6106, 249.3962
277.0927, 248.8257
277.5748, 247.7145
278.0569, 246.4460
278.5390, 245.0330
279.0211, 243.4250
279.5032, 241.6120
279.9854, 239.6122
280.4675, 237.3758
280.9496, 234.8583
281.4317, 232.2622
281.9138, 229.8543
282.3959, 227.6488
282.8781, 225.2774
283.3602, 222.6195
283.8423, 219.7153
284.3244, 216.7080
284.8065, 213.5318
285.2886, 210.5610
285.7708, 208.3386
286.2529, 206.8087
286.7350, 204.8807
287.2171, 202.1426
287.6992, 198.9749
288.1813, 196.5288
288.6635, 194.8174
289.1456, 193.3149
289.6277, 191.6733
290.1098, 189.8923
290.5919, 188.0368
291.0740, 186.0995
291.5562, 184.0859
292.0383, 181.9509
292.5204, 179.6902
293.0025, 177.6109
293.4846, 176.0003
293.9667, 174.7351
294.4489, 173.3908
294.9310, 171.9404
295.4131, 170.3842
295.8952, 168.7024
296.3773, 166.9122
296.8594, 165.0791
297.3416, 163.1260
297.8237, 161.1491
298.3058, 159.4389
298.7879, 158.0412
299.2700, 156.7192
299.7521, 155.1646
300.2343, 153.4544
300.7164, 151.9140
301.1985, 150.7338
301.6806, 149.7865
302.1627, 148.8754
302.6448, 147.9783
303.1270, 147.2116
303.6091, 146.8113
304.0912, 146.6134
304.5733, 146.2594
305.0554, 145.3674
305.5375, 144.3763
306.0197, 143.8933
306.5018, 143.8886
306.9839, 143.7998
307.4660, 142.9911
307.9481, 141.8913
308.4302, 141.1216
308.9124, 141.0979
309.3945, 141.2453
309.8766, 141.1055
310.3587, 140.7185
310.8408, 140.2995
311.3229, 139.8131
311.8051, 139.4289
312.2872, 139.3592
312.7693, 139.8083
313.2514, 140.3128
313.7335, 140.6149
314.2156, 140.7591
314.6978, 140.8808
315.1799, 140.9747
315.6620, 141.1122
316.1441, 141.3328
316.6262, 141.6292
317.1083, 142.0451
317.5905, 142.6019
318.0726, 143.2857
318.5547, 144.0836
319.0368, 144.8954
319.5189, 145.8931
320.0010, 147.2446
320.4832, 149.0716
320.9653, 150.7162
321.4474, 151.8950
321.9295, 152.8272
322.4116, 153.7694
322.8937, 154.7131
323.3759, 155.7399
323.8580, 156.8356
324.3401, 157.9856
324.8222, 159.3791
325.3043, 161.1183
325.7864, 163.0721
326.2686, 165.1390
326.7507, 167.2076
327.2328, 169.5016
327.7149, 172.1521
328.1970, 175.1027
328.6791, 178.0047
329.1613, 180.8532
329.6434, 183.6231
330.1255, 186.2850
330.6076, 188.5674
331.0897, 191.1304
331.5718, 194.0300
332.0540, 197.2171
332.5361, 200.5894
333.0182, 204.3071
333.5003, 208.0457
333.9824, 211.6037
334.4645, 214.8525
334.9467, 218.4247
335.4288, 222.4854
335.9109, 226.7326
336.3930, 230.5164
336.8751, 233.5811
337.3572, 236.8658
337.8394, 240.7805
338.3215, 245.3294
338.8036, 249.6051
339.2857, 253.5304
339.7678, 257.3303
340.2499, 261.3521
340.7321, 265.5670
341.2142, 269.7625
341.6963, 273.8520
342.1784, 277.8575
342.6605, 281.8231
343.1426, 285.7205
343.6248, 289.5469
344.1069, 293.2940
344.5890, 296.9112
345.0711, 300.3164
345.5532, 303.3567
346.0353, 306.3197
346.5175, 309.9515
346.9996, 314.2660
347.4817, 318.1938
347.9638, 320.7813
348.4459, 322.4115
348.9280, 324.5604
349.4102, 327.4260
349.8923, 330.4050
350.3744, 332.6489
350.8565, 334.2851
351.3386, 335.8548
351.8207, 337.9850
352.3029, 340.0650
352.7850, 341.0572
353.2671, 340.9521
353.7492, 340.2886
354.2313, 339.4377
354.7134, 338.3737
355.1956, 337.0523
355.6777, 335.6816
356.1598, 333.8467
356.6419, 331.1595
357.1240, 327.6520
357.6061, 323.4855
358.0883, 318.6000
358.5704, 313.1700
359.0525, 307.3960
359.5346, 301.2415
360.0167, 294.8724
360.4988, 288.5161
360.9810, 282.0512
361.4631, 275.2697
361.9452, 267.7869
362.4273, 260.1788
362.9094, 252.7312
363.3915, 245.4676
363.8737, 238.3653
364.3558, 231.5738
364.8379, 224.9438
365.3200, 218.3359
365.8021, 211.7590
366.2842, 205.1361
366.7664, 198.3167
367.2485, 191.2672
367.7306, 184.8643
368.2127, 179.4020
368.6948, 174.5145
369.1769, 169.9086
369.6591, 165.9077
370.1412, 161.7667
370.6233, 157.2549
371.1054, 152.5312
371.5875, 148.1723
372.0696, 144.2091
372.5518, 140.6300
373.0339, 137.4479
373.5160, 134.7853
373.9981, 132.1363
374.4802, 129.4234
374.9623, 126.7534
375.4445, 124.3402
375.9266, 122.1991
376.4087, 120.2076
376.8908, 118.3527
377.3729, 116.6234
377.8550, 114.9302
378.3372, 113.2770
378.8193, 111.6868
379.3014, 110.1901
379.7835, 108.7715
380.2656, 107.5027
380.7477, 106.3830
381.2299, 105.4352
381.7120, 104.7850
382.1941, 104.4441
382.6762, 104.0771
383.1583, 103.3835
383.6404, 102.4612
384.1226, 101.7335
384.6047, 101.2626
385.0868, 100.9119
385.5689, 100.4908
386.0510, 100.0343
386.5331, 99.66658
387.0153, 99.50581
387.4974, 99.44193
387.9795, 99.31989
388.4616, 99.13841
388.9437, 98.93847
389.4258, 98.78333
389.9080, 98.62312
390.3901, 98.37711
390.8722, 97.90812
391.3543, 97.48201
391.8364, 97.31221
392.3185, 97.35726
392.8007, 97.45638
393.2828, 97.60728
393.7649, 97.73503
394.2470, 97.76438
394.7291, 97.62692
395.2112, 97.54528
395.6934, 97.68239
396.1755, 97.90372
396.6576, 98.00875
397.1397, 97.74538
397.6218, 97.54960
398.1039, 97.62154
398.5861, 98.00197
399.0682, 98.24223
399.5503, 98.23948
400.0324, 98.11636
400.5145, 97.96153
400.9966, 97.68746
401.4788, 97.50992
401.9609, 97.50847
402.4430, 97.62193
402.9251, 97.59952
403.4072, 97.34861
403.8893, 97.10274
404.3714, 96.96037
404.8535, 96.92541
405.3357, 96.98159
405.8178, 97.15573
406.2999, 97.38270
406.7820, 97.62302
407.2641, 97.91834
407.7462, 97.97374
408.2284, 97.62927
408.7105, 96.97503
409.1926, 96.47852
409.6747, 96.17478
410.1568, 95.77415
410.6389, 94.84695
411.1211, 93.53517
411.6032, 92.65430
412.0853, 92.44691
412.5674, 92.50532
413.0495, 92.23991
413.5316, 91.68641
414.0138, 91.03782
414.4959, 90.27324
414.9780, 89.51775
415.4601, 89.00053
415.9422, 88.73901
416.4243, 88.54331
416.9065, 88.22440
417.3886, 87.87585
417.8707, 87.64692
418.3528, 87.73479
418.8349, 87.81443
419.3170, 87.62273
419.7992, 87.21875
420.2813, 86.89301
420.7634, 86.67695
421.2455, 86.63930
421.7276, 86.85144
422.2097, 87.42471
422.6919, 88.00624
423.1740, 88.53345
423.6561, 89.01143
424.1382, 89.46110
424.6203, 89.73879
425.1024, 90.12414
425.5846, 90.68273
426.0667, 91.41433
426.5488, 92.30080
427.0309, 93.56450
427.5130, 94.79733
427.9951, 95.65626
428.4773, 95.72616
428.9594, 96.36077
429.4415, 97.85522
429.9236, 99.86907
430.4057, 101.5095
430.8878, 102.6003
431.3700, 103.8383
431.8521, 105.5845
432.3342, 107.8394
432.8163, 109.9818
433.2984, 111.9786
433.7805, 113.9827
434.2627, 116.1273
434.7448, 118.4176
435.2269, 120.9360
435.7090, 123.8871
436.1911, 126.9345
436.6732, 129.0745
437.1554, 130.4658
437.6375, 132.3381
438.1196, 135.9699
438.6017, 140.4831
439.0838, 144.3996
439.5659, 147.4791
440.0481, 150.4106
440.5302, 153.6811
441.0123, 157.2490
441.4944, 161.0455
441.9765, 165.3393
442.4586, 169.6065
442.9408, 173.3152
443.4229, 176.5487
443.9050, 180.2875
444.3871, 185.4996
444.8692, 190.9341
445.3513, 195.7074
445.8335, 199.1405
446.3156, 202.8979
446.7977, 207.4837
447.2798, 212.5226
447.7619, 217.3401
448.2440, 221.6395
448.7262, 225.9493
449.2083, 230.3653
449.6904, 234.9181
450.1725, 239.3540
450.6546, 243.5994
451.1367, 247.7569
451.6189, 251.9812
452.1010, 256.5175
452.5831, 260.3132
453.0652, 263.1718
453.5473, 265.4182
454.0294, 268.0019
454.5116, 271.0509
454.9937, 273.4595
455.4758, 274.5988
455.9579, 274.6410
456.4400, 274.7013
456.9221, 274.8330
457.4043, 274.4702
457.8864, 272.7419
458.3685, 270.0460
458.8506, 267.5376
459.3327, 265.6992
459.8148, 263.8646
460.2970, 261.1591
460.7791, 257.7569
461.2612, 254.3183
461.7433, 250.9121
462.2254, 247.8078
462.7076, 245.4686
463.1897, 243.9845
463.6718, 242.3637
464.1539, 239.9675
464.6360, 237.2439
465.1181, 234.6767
465.6003, 232.4917
466.0824, 230.3710
466.5645, 228.2295
467.0466, 226.0976
467.5287, 224.0931
468.0108, 222.4646
468.4930, 220.7501
468.9751, 218.8560
469.4572, 216.9063
469.9393, 214.3019
470.4214, 210.7504
470.9035, 206.8253
471.3857, 203.1958
471.8678, 200.0464
472.3499, 196.5886
472.8320, 192.6326
473.3141, 188.2408
473.7962, 183.4582
474.2784, 178.2224
474.7605, 173.0621
475.2426, 168.3166
475.7247, 163.9133
476.2068, 159.5746
476.6889, 155.2747
477.1711, 151.0033
477.6532, 146.5837
478.1353, 142.1685
478.6174, 138.1970
479.0995, 134.9628
479.5816, 132.0466
480.0638, 129.0212
480.5459, 125.9323
481.0280, 123.0035
481.5101, 120.3208
481.9922, 117.8611
482.4743, 115.6922
482.9565, 113.8560
483.4386, 112.0042
483.9207, 109.9253
484.4028, 107.8067
484.8849, 105.8463
485.3670, 104.1795
485.8492, 102.6000
486.3313, 101.0459
486.8134, 99.54541
487.2955, 98.20773
487.7776, 97.08607
488.2597, 96.10374
488.7419, 95.22816
489.2240, 94.45593
489.7061, 93.85890
490.1882, 93.47629
490.6703, 93.21094
491.1524, 93.01878
491.6346, 92.93726
492.1167, 92.56541
492.5988, 91.70203
493.0809, 90.60819
493.5630, 89.95818
494.0451, 89.73795
494.5273, 89.70519
495.0094, 89.81737
495.4915, 89.99423
495.9736, 90.02981
496.4557, 89.90726
496.9378, 89.77798
497.4200, 89.73304
497.9021, 89.78000
498.3842, 89.93132
498.8663, 90.19813
499.3484, 90.56398
499.8305, 91.06631
500.3127, 91.66426
500.7948, 92.25040
501.2769, 92.66456
501.7590, 93.17045
502.2411, 93.92459
502.7232, 94.98160
503.2054, 96.01646
503.6875, 97.02177
504.1696, 97.95766
504.6517, 98.75146
505.1338, 99.06729
505.6159, 99.84401
506.0981, 101.2991
506.5802, 103.1649
507.0623, 104.8126
507.5444, 106.1937
508.0265, 107.5677
508.5086, 109.0092
508.9908, 110.5275
509.4729, 112.2560
509.9550, 114.2148
510.4371, 116.1781
510.9192, 117.8601
511.4013, 119.3565
511.8835, 121.0128
512.3655, 122.9278
512.8477, 124.9034
513.3298, 126.6381
513.8119, 128.2522
514.2940, 130.0298
514.7761, 132.2810
515.2582, 134.6069
515.7404, 136.7796
516.2225, 138.7935
516.7046, 140.6391
517.1867, 142.0542
517.6688, 143.4787
518.1509, 145.2812
518.6331, 147.8569
519.1152, 149.9638
519.5973, 151.1272
520.0794, 151.8005
520.5615, 152.5568
521.0436, 153.6367
521.5258, 154.4214
522.0079, 154.7638
522.4900, 154.7281
522.9721, 154.6876
523.4542, 154.7646
523.9363, 154.4828
524.4185, 153.4759
524.9006, 151.7445
525.3827, 150.2417
525.8648, 149.0502
526.3469, 147.6535
526.8290, 145.3095
527.3112, 142.2446
527.7933, 139.2879
528.2754, 136.6044
528.7575, 134.1248
529.2396, 131.7569
529.7217, 129.4856
530.2039, 127.3122
530.6860, 125.3254
531.1681, 123.3455
531.6502, 121.0561
532.1323, 118.4511
532.6144, 116.2240
533.0966, 114.9968
533.5787, 113.9980
534.0608, 112.6437
534.5429, 110.4507
535.0250, 108.5603
535.5071, 107.2891
535.9893, 106.3017
536.4714, 105.1262
536.9535, 103.5520
537.4356, 102.2190
537.9177, 101.3856
538.3998, 100.9302
538.8820, 100.1043
539.3641, 98.85389
539.8462, 97.53892
540.3283, 96.34171
540.8104, 95.27327
541.2925, 94.41801
541.7747, 93.80814
542.2568, 93.25356
542.7389, 92.56301
543.2210, 91.77079
543.7031, 90.94411
544.1852, 90.05254
544.6674, 89.21629
545.1495, 88.61457
545.6316, 88.16736
546.1137, 87.67421
546.5958, 87.12024
547.0779, 86.43285
547.5601, 85.50416
548.0422, 84.32358
548.5243, 83.24342
549.0064, 82.25439
549.4885, 81.45006
549.9706, 80.90714
550.4528, 80.86116
550.9349, 80.62794
551.4170, 80.17966
551.8991, 79.56046
552.3812, 78.79710
552.8633, 77.83794
553.3455, 76.94086
553.8276, 76.16263
554.3097, 75.49184
554.7918, 74.90626
555.2739, 74.41570
555.7560, 73.95320
556.2382, 73.56773
556.7203, 73.16820
557.2024, 72.46312
557.6845, 71.42935
558.1666, 70.47855
558.6487, 70.12974
559.1309, 70.00771
559.6130, 69.60421
560.0951, 68.59057
560.5772, 67.67118
561.0593, 67.27661
561.5414, 67.18753
562.0236, 67.02176
562.5057, 66.68819
562.9878, 66.26350
563.4699, 65.68885
563.9520, 64.99479
564.4341, 64.47072
564.9163, 64.18700
565.3984, 63.97323
565.8805, 63.74358
566.3626, 63.48549
566.8447, 63.30916
567.3268, 63.25970
567.8090, 63.16113
568.2911, 62.71633
568.7732, 61.97845
569.2553, 61.47428
569.7374, 61.34866
570.2195, 61.41460
570.7017, 61.49070
571.1838, 61.54805
571.6659, 61.49526
572.1480, 61.18097
572.6301, 60.81544
573.1122, 60.60093
573.5944, 60.51741
574.0765, 60.38229
574.5586, 60.08955
575.0407, 59.73993
575.5228, 59.36504
576.0049, 58.90472
576.4871, 58.61140
576.9692, 58.55386
577.4513, 58.63606
577.9334, 58.80628
578.4155, 59.19977
578.8976, 59.33272
579.3798, 59.05653
579.8619, 58.56101
580.3440, 58.28783
580.8261, 58.24321
581.3082, 58.35339
581.7903, 58.70202
582.2725, 59.15173
582.7546, 59.23037
583.2367, 58.96550
583.7188, 58.70804
584.2009, 58.82855
584.6830, 59.06369
585.1652, 59.00952
585.6473, 58.56005
586.1294, 58.19036
586.6115, 58.29787
587.0936, 58.57441
587.5757, 58.69448
588.0579, 58.33355
588.5400, 58.09373
589.0221, 58.17536
589.5042, 58.44463
589.9863, 58.59239
590.4684, 58.58506
590.9506, 58.50118
591.4327, 58.31371
591.9148, 58.04965
592.3969, 57.98249
592.8790, 58.15923
593.3611, 58.33342
593.8433, 58.31610
594.3254, 58.14899
594.8075, 58.07084
595.2896, 58.09979
595.7717, 58.13617
596.2538, 58.07413
596.7360, 57.95292
597.2181, 57.82763
597.7002, 57.67428
598.1823, 57.60940
598.6644, 57.82450
599.1465, 58.16335
599.6287, 58.35828
600.1108, 58.07330
600.5929, 57.88779
601.0750, 58.06295
601.5571, 58.54722
602.0392, 58.86962
602.5214, 59.00291
603.0035, 59.00427
603.4856, 58.85698
603.9677, 58.54129
604.4498, 58.32808
604.9319, 58.21470
605.4141, 58.20438
605.8962, 58.40877
606.3783, 58.76739
606.8604, 58.80433
607.3425, 58.40307
607.8246, 57.91143
608.3068, 57.70454
608.7889, 57.72514
609.2710, 57.86274
609.7531, 58.16903
610.2352, 58.46960
610.7173, 58.69410
611.1995, 58.82729
611.6816, 58.83191
612.1637, 58.56102
612.6458, 58.29085
613.1279, 58.12388
613.6100, 58.07010
614.0922, 58.04056
614.5743, 58.08213
615.0564, 58.08665
615.5385, 57.96147
616.0206, 57.65491
616.5027, 57.55126
616.9849, 57.70641
617.4670, 57.89684
617.9491, 57.88388
618.4312, 57.68420
618.9133, 57.33928
619.3954, 56.78565
619.8776, 56.27175
620.3597, 56.15221
620.8418, 56.29694
621.3239, 56.41673
621.8060, 56.44603
622.2881, 56.36348
622.7703, 56.06049
623.2524, 55.60840
623.7345, 55.29737
624.2166, 55.31112
624.6987, 55.37809
625.1808, 55.44135
625.6630, 55.51526
626.1451, 55.35266
626.6272, 54.84594
627.1093, 54.27235
627.5914, 53.79578
628.0735, 53.41401
628.5557, 53.17623
629.0378, 53.10498
629.5199, 53.10817
630.0020, 53.12256
630.4841, 53.12637
630.9662, 53.04900
631.4484, 52.86774
631.9305, 52.61308
632.4126, 52.25271
632.8947, 51.84797
633.3768, 51.51301
633.8589, 51.35924
634.3411, 51.22688
634.8232, 51.07693
635.3053, 50.90142
635.7874, 50.65752
636.2695, 50.19188
636.7516, 49.82892
637.2338, 49.72639
637.7159, 49.90080
638.1980, 49.89820
638.6801, 49.66624
639.1622, 49.40224
639.6443, 49.29483
640.1265, 49.31517
640.6086, 49.18186
641.0907, 48.85236
641.5728, 48.49795
642.0549, 48.31358
642.5370, 48.22941
643.0192, 48.10435
643.5013, 47.85912
643.9834, 47.64944
644.4655, 47.62371
644.9476, 47.69067
645.4297, 47.69358
645.9119, 47.53817
646.3940, 47.37271
646.8761, 47.25410
647.3582, 47.15884
647.8403, 46.98798
648.3224, 46.68407
648.8046, 46.41531
649.2867, 46.25145
649.7688, 46.17966
650.2509, 46.08020
650.7330, 45.94550
651.2151, 45.85314
651.6973, 45.94837
652.1794, 46.11617
652.6615, 46.02140
653.1436, 45.62639
653.6257, 45.27189
654.1078, 45.27926
654.5900, 45.44842
655.0721, 45.57123
655.5542, 45.61390
656.0363, 45.57488
656.5184, 45.33250
657.0005, 45.05424
657.4827, 44.96630
657.9648, 45.22207
658.4469, 45.42481
658.9290, 45.54205
659.4111, 45.57080
659.8932, 45.49268
660.3754, 45.30022
660.8575, 45.05240
661.3396, 44.72322
661.8217, 44.38269
662.3038, 44.25039
662.7859, 44.29500
663.2681, 44.30305
663.7502, 44.07589
664.2323, 43.78954
664.7144, 43.55123
665.1965, 43.37609
665.6786, 43.42955
666.1608, 44.10520
666.6429, 44.79401
667.1250, 45.09182
667.6071, 44.78807
668.0892, 44.55269
668.5714, 44.40113
669.0535, 44.30005
669.5356, 44.22497
670.0177, 44.17714
670.4998, 44.14619
670.9819, 44.13088
671.4641, 44.13369
671.9462, 44.21115
672.4283, 44.32088
672.9104, 44.28753
673.3925, 43.99049
673.8746, 43.64317
674.3568, 43.42672
674.8389, 43.32616
675.3210, 43.31303
675.8031, 43.50544
676.2852, 43.65181
676.7673, 43.60779
677.2495, 43.41032
677.7316, 43.30269
678.2137, 43.32060
678.6958, 43.39302
679.1779, 43.53349
679.6600, 43.73386
680.1422, 43.74452
680.6243, 43.53809
681.1064, 43.30652
681.5885, 43.18474
682.0706, 43.14283
682.5527, 43.05498
683.0349, 42.91063
683.5170, 42.86205
683.9991, 43.17180
684.4812, 43.57222
684.9633, 43.75955
685.4454, 43.62879
685.9276, 43.43055
686.4097, 43.18215
686.8918, 42.94152
687.3739, 42.76884
687.8560, 42.63912
688.3381, 42.62630
688.8203, 42.77468
689.3024, 43.00407
689.7845, 43.17830
690.2666, 43.29293
690.7487, 43.44128
691.2308, 43.69746
691.7130, 43.92278
692.1951, 43.78461
692.6772, 43.38591
693.1593, 43.10101
693.6414, 43.23652
694.1235, 43.45387
694.6057, 43.50061
695.0878, 43.40440
695.5699, 43.29539
696.0520, 43.24249
696.5341, 43.15775
697.0162, 42.92778
697.4984, 42.55875
697.9805, 42.53899
698.4626, 43.06249
698.9447, 43.54093
699.4268, 43.57561
699.9089, 43.19679
700.3911, 43.02663
700.8732, 43.07947
701.3553, 43.15990
701.8374, 43.09791
702.3195, 42.94584
702.8016, 42.78108
703.2838, 42.60667
703.7659, 42.46809
704.2480, 42.42347
704.7301, 42.41192
705.2122, 42.37891
705.6943, 42.34558
706.1765, 42.23026
706.6586, 41.91970
707.1407, 41.60096
707.6228, 41.52144
708.1049, 41.76000
708.5870, 41.90909
709.0692, 41.89252
709.5513, 41.79007
710.0334, 41.74324
710.5155, 41.73753
710.9976, 41.69007
711.4797, 41.51940
711.9618, 41.36532
712.4439, 41.45805
712.9260, 41.68231
713.4081, 41.76194
713.8903, 41.43316
714.3724, 41.09483
714.8545, 40.89143
715.3366, 40.81287
715.8187, 40.76094
716.3008, 40.79029
716.7830, 40.74540
717.2651, 40.52710
717.7472, 40.17408
718.2293, 40.03252
718.7114, 40.11358
719.1935, 40.22135
719.6757, 40.24825
720.1578, 40.20963
720.6399, 40.08923
721.1220, 39.89790
721.6041, 39.79087
722.0862, 39.97035
722.5684, 40.20317
723.0505, 40.32588
723.5326, 40.30937
724.0147, 40.21722
724.4968, 40.01992
724.9789, 39.78332
725.4611, 39.52732
725.9432, 39.21853
726.4253, 39.04526
726.9074, 39.03984
727.3895, 39.07152
727.8716, 39.01348
728.3538, 38.87422
728.8359, 38.66686
729.3180, 38.37268
729.8001, 38.10897
730.2822, 37.98679
730.7643, 37.95607
731.2465, 37.95911
731.7286, 38.05250
732.2107, 38.06330
732.6928, 37.86982
733.1749, 37.58931
733.6570, 37.40934
734.1392, 37.40157
734.6213, 37.32188
735.1034, 37.08543
735.5855, 36.81758
736.0676, 36.82911
736.5497, 37.09708
737.0319, 37.26387
737.5140, 37.15373
737.9961, 36.96125
738.4782, 36.99957
738.9603, 37.16537
739.4424, 37.19204
739.9246, 36.78312
740.4067, 36.38579
740.8888, 36.21952
741.3709, 36.24644
741.8530, 36.26185
742.3351, 36.28198
742.8173, 36.24131
743.2994, 36.08553
743.7815, 35.85281
744.2636, 35.78842
744.7457, 35.90802
745.2278, 35.97582
745.7100, 35.81861
746.1921, 35.53437
746.6742, 35.28189
747.1563, 35.06464
747.6384, 34.91176
748.1205, 34.82747
748.6027, 34.82069
749.0848, 34.95306
749.5669, 35.23347
750.0490, 35.37225
750.5311, 35.23776
751.0132, 35.06294
751.4954, 34.94721
751.9775, 34.89401
752.4596, 34.85929
752.9417, 34.85353
753.4238, 34.81169
753.9059, 34.61169
754.3881, 34.34522
754.8702, 34.29465
755.3523, 34.48565
755.8344, 34.62638
756.3165, 34.39141
756.7986, 34.07710
757.2808, 33.97614
757.7629, 34.21604
758.2450, 34.34571
758.7271, 34.16588
759.2092, 33.95639
759.6913, 33.93158
760.1735, 34.17364
760.6556, 34.23359
761.1377, 34.05812
761.6198, 33.83408
762.1019, 33.76024
762.5840, 33.80693
763.0662, 33.91155
763.5483, 34.08739
764.0304, 34.18984
764.5125, 34.01432
764.9946, 33.73265
765.4767, 33.54446
765.9589, 33.53579
766.4410, 33.54807
766.9231, 33.57941
767.4052, 33.60428
767.8873, 33.59509
768.3694, 33.54760
768.8516, 33.47905
769.3337, 33.38268
769.8158, 33.28622
770.2979, 33.23092
770.7800, 33.21053
771.2621, 33.20309
771.7443, 33.20400
772.2264, 33.21334
772.7085, 33.20601
773.1906, 33.21436
773.6727, 33.28667
774.1548, 33.55108
774.6370, 33.73873
775.1191, 33.78467
775.6012, 33.73971
776.0833, 33.68293
776.5654, 33.62521
777.0475, 33.49220
777.5297, 33.23129
778.0118, 32.95683
778.4939, 32.88358
778.9760, 32.97707
779.4581, 33.11462
779.9402, 33.28337
780.4224, 33.43116
780.9045, 33.52244
781.3866, 33.55975
781.8687, 33.54705
782.3508, 33.36316
782.8329, 33.28322
783.3151, 33.45420
783.7972, 33.72234
784.2793, 33.71595
784.7614, 33.37955
785.2435, 33.06472
785.7256, 32.84794
786.2078, 32.73333
786.6899, 32.79525
787.1720, 32.98256
787.6541, 33.10336
788.1362, 32.98188
788.6183, 32.85672
789.1005, 32.97806
789.5826, 33.22046
790.0647, 33.26548
790.5468, 32.77604
791.0289, 32.40643
791.5110, 32.29519
791.9932, 32.38811
792.4753, 32.55202
792.9574, 32.79904
793.4395, 33.02116
793.9216, 33.19659
794.4037, 33.30967
794.8859, 33.30336
795.3680, 33.20550
795.8501, 33.10541
796.3322, 33.05502
796.8143, 33.00422
797.2964, 32.89915
797.7786, 32.76593
798.2607, 32.70463
798.7428, 32.75780
799.2249, 32.83367
799.7070, 32.92373
800.1891, 33.01704
800.6713, 33.07788
801.1534, 33.10605
801.6355, 33.11105
802.1176, 33.07420
802.5997, 33.03924
803.0818, 33.08353
803.5640, 33.18607
804.0461, 33.28239
804.5282, 33.37374
805.0103, 33.42122
805.4924, 33.35767
805.9745, 33.22548
806.4567, 33.21535
806.9388, 33.38600
807.4209, 33.55797
807.9030, 33.70673
808.3851, 33.80528
808.8672, 33.69383
809.3494, 33.40697
809.8315, 33.26787
810.3136, 33.59306
810.7957, 33.99011
811.2778, 34.01399
811.7599, 33.77728
812.2421, 33.59593
812.7242, 33.54810
813.2063, 33.61288
813.6884, 33.89751
814.1705, 34.28428
814.6526, 34.34916
815.1348, 33.98414
815.6169, 33.75598
816.0990, 33.89938
816.5811, 34.22029
817.0632, 34.29010
817.5453, 34.15303
818.0275, 33.98895
818.5096, 33.85593
818.9917, 33.75345
819.4738, 33.67214
819.9559, 33.62115
820.4380, 33.62565
820.9202, 33.69638
821.4023, 33.82536
821.8844, 34.05067
822.3665, 34.31124
822.8486, 34.43435
823.3307, 34.41590
823.8129, 34.35588
824.2950, 34.24509
824.7771, 34.17238
825.2592, 34.36955
825.7413, 34.70444
826.2234, 34.87012
826.7056, 34.48407
827.1877, 34.18347
827.6698, 34.25399
828.1519, 34.57728
828.6340, 34.88753
829.1161, 35.26820
829.5983, 35.40546
830.0804, 35.17275
830.5625, 34.76529
831.0446, 34.55725
831.5267, 34.51825
832.0089, 34.47458
832.4910, 34.34420
832.9731, 34.23981
833.4552, 34.29353
833.9373, 34.43412
834.4194, 34.54614
834.9016, 34.67028
835.3837, 34.65794
835.8658, 34.36595
836.3479, 34.02348
836.8300, 34.01964
837.3121, 34.39598
837.7943, 34.71033
838.2764, 34.89876
838.7585, 34.97459
839.2406, 34.87011
839.7227, 34.68231
840.2048, 34.62117
840.6870, 34.80875
841.1691, 34.98774
841.6512, 35.06005
842.1333, 35.04629
842.6154, 34.96015
843.0975, 34.72377
843.5797, 34.59694
844.0618, 34.60556
844.5439, 34.69682
845.0260, 34.81767
845.5081, 34.96678
845.9902, 35.17134
846.4724, 35.46077
846.9545, 35.64086
847.4366, 35.38529
847.9187, 35.01078
848.4008, 34.91168
848.8829, 35.36406
849.3651, 35.50016
849.8472, 34.89557
850.3293, 34.27181
850.8114, 34.23076
851.2935, 34.85769
851.7756, 35.19100
852.2578, 35.17814
852.7399, 35.05709
853.2220, 35.01492
853.7041, 35.01871
854.1862, 35.01188
854.6683, 34.98653
855.1505, 34.98824
855.6326, 35.06608
856.1147, 35.15495
856.5968, 35.21242
857.0789, 35.23496
857.5610, 35.26001
858.0432, 35.29814
858.5253, 35.30396
859.0074, 35.18868
859.4895, 35.01711
859.9716, 35.08613
860.4537, 35.36846
860.9359, 35.56001
861.4180, 35.38466
861.9001, 35.11816
862.3822, 34.93113
862.8643, 34.83442
863.3464, 34.78521
863.8286, 34.79102
864.3107, 34.82390
864.7928, 34.88979
865.2749, 34.97318
865.7570, 34.98351
866.2391, 34.92611
866.7213, 34.88760
867.2034, 34.92574
867.6855, 34.99466
868.1676, 35.07582
868.6497, 35.14964
869.1318, 35.15797
869.6140, 34.94704
870.0961, 34.83141
870.5782, 34.92150
871.0603, 35.13970
871.5424, 35.32421
872.0245, 35.48507
872.5067, 35.49428
872.9888, 35.27055
873.4709, 34.97218
873.9530, 34.83401
874.4351, 34.80592
874.9172, 34.77963
875.3994, 34.69121
875.8815, 34.63837
876.3636, 34.69669
876.8457, 34.79548
877.3278, 34.83261
877.8099, 34.77931
878.2921, 34.76439
878.7742, 34.82079
879.2563, 34.86354
879.7384, 34.76870
880.2205, 34.57367
880.7026, 34.36073
881.1848, 34.12671
881.6669, 33.97992
882.1490, 34.07148
882.6311, 34.23388
883.1132, 34.30334
883.5953, 34.19183
884.0775, 34.22587
884.5596, 34.49806
885.0417, 34.74016
885.5238, 34.70016
886.0059, 34.43292
886.4880, 34.24864
886.9702, 34.15939
887.4523, 34.20454
887.9344, 34.64846
888.4165, 35.06733
888.8986, 34.99571
889.3807, 34.41703
889.8629, 34.06710
890.3450, 34.18581
890.8271, 34.34693
891.3092, 34.41673
891.7913, 34.40104
892.2734, 34.25939
892.7556, 34.00520
893.2377, 33.90053
893.7198, 34.22805
894.2019, 34.65533
894.6840, 34.86174
895.1661, 34.88840
895.6483, 34.84803
896.1304, 34.62378
896.6125, 34.53464
897.0946, 34.73377
897.5767, 35.05008
898.0588, 35.07595
898.5410, 34.79737
899.0231, 34.59613
899.5052, 34.52810
899.9873, 34.65699
900.4694, 35.14072
900.9515, 35.85595
901.4337, 36.66203
901.9158, 37.89907
902.3979, 38.46342
902.8800, 37.39962
903.3621, 35.97604
903.8442, 35.27962
904.3264, 35.45152
904.8085, 35.56411
905.2906, 35.58109
905.7727, 35.54093
906.2548, 35.43317
906.7369, 35.31283
907.2191, 35.29729
907.7012, 35.40163
908.1833, 35.45807
908.6654, 35.21883
909.1475, 35.07465
909.6296, 35.31516
910.1118, 35.92829
910.5939, 36.20778
911.0760, 36.09733
911.5581, 35.94210
912.0402, 35.91087
912.5223, 35.97438
913.0045, 36.11948
913.4866, 36.31718
913.9687, 36.45341
914.4508, 36.37779
914.9329, 36.33192
915.4150, 36.46391
915.8972, 36.69502
916.3793, 36.81892
916.8614, 36.80247
917.3435, 36.80872
917.8256, 36.87627
918.3077, 36.97319
918.7899, 37.02627
919.2720, 37.06990
919.7541, 37.19603
920.2362, 37.47408
920.7183, 37.73532
921.2004, 37.90843
921.6826, 38.02123
922.1647, 38.09400
922.6468, 38.07275
923.1289, 38.19991
923.6110, 38.51523
924.0931, 38.85189
924.5753, 39.03600
925.0574, 39.12251
925.5395, 39.21567
926.0216, 39.32505
926.5037, 39.46158
926.9858, 39.61069
927.4680, 39.80899
927.9501, 40.13295
928.4322, 40.56209
928.9143, 40.80363
929.3964, 40.80915
929.8785, 40.80637
930.3607, 40.88390
930.8428, 41.02836
931.3249, 41.23525
931.8070, 41.48518
932.2891, 41.71445
932.7712, 41.80962
933.2534, 41.97345
933.7355, 42.39443
934.2176, 42.91322
934.6997, 43.20958
935.1818, 43.21675
935.6639, 43.22567
936.1461, 43.25455
936.6282, 43.35625
937.1103, 43.65527
937.5924, 44.07055
938.0745, 44.40373
938.5566, 44.59625
939.0388, 44.83832
939.5209, 45.26531
940.0030, 45.74455
940.4851, 46.16346
940.9672, 46.50111
941.4493, 46.94039
941.9315, 47.50586
942.4136, 48.04010
942.8957, 48.36311
943.3778, 48.61192
943.8599, 49.08485
944.3420, 49.75007
944.8242, 50.44270
945.3063, 51.05802
945.7884, 51.70589
946.2705, 52.47557
946.7526, 53.30735
947.2347, 54.01915
947.7169, 54.58178
948.1990, 55.23950
948.6811, 56.09276
949.1632, 56.98341
949.6453, 57.61162
950.1274, 58.12983
950.6096, 58.81288
951.0917, 59.77984
951.5738, 60.82738
952.0559, 61.86240
952.5380, 62.98244
953.0201, 64.26873
953.5023, 65.73165
953.9844, 67.29054
954.4665, 68.93507
954.9486, 70.62852
955.4307, 72.37557
955.9128, 74.12771
956.3950, 75.72950
956.8771, 77.21221
957.3591, 78.97978
957.8412, 81.22855
958.3234, 83.74922
958.8055, 86.58929
959.2876, 89.64589
959.7697, 92.47923
960.2518, 95.10884
960.7339, 97.84576
961.2161, 100.6996
961.6982, 103.9422
962.1803, 108.2085
962.6624, 112.9843
963.1445, 117.5246
963.6266, 121.0347
964.1088, 125.2523
964.5909, 130.5292
965.0730, 136.2175
965.5551, 141.5215
966.0372, 146.5100
966.5193, 152.1020
967.0015, 158.3166
967.4836, 164.8215
967.9657, 171.5217
968.4478, 178.1950
968.9299, 184.3860
969.4120, 190.0935
969.8942, 196.5355
970.3763, 204.0539
970.8584, 211.7615
971.3405, 219.4040
971.8226, 227.0491
972.3047, 235.2338
972.7869, 243.7943
973.2690, 252.2184
973.7511, 260.6265
974.2332, 268.3326
974.7153, 274.5248
975.1974, 280.0063
975.6796, 286.0889
976.1617, 293.0705
976.6438, 299.9033
977.1259, 306.5326
977.6080, 312.7675
978.0901, 318.0918
978.5723, 322.8343
979.0544, 327.9238
979.5365, 333.4016
980.0186, 338.2009
980.5007, 340.9292
980.9828, 343.6211
981.4650, 347.3143
981.9471, 351.8678
982.4292, 356.3192
982.9113, 360.5899
983.3934, 365.6267
983.8755, 371.7647
984.3577, 378.9300
984.8398, 387.1411
985.3219, 396.3926
985.8040, 406.5280
986.2861, 417.6393
986.7682, 429.5156
987.2504, 442.4420
987.7325, 455.7682
988.2146, 468.7312
988.6967, 481.3929
989.1788, 493.9799
989.6609, 506.5627
990.1431, 518.8325
990.6252, 530.7164
991.1073, 542.2338
991.5894, 553.7867
992.0715, 565.1989
992.5536, 574.8253
993.0358, 582.3107
993.5179, 588.8016
994.0000, 594.7893
994.4821, 599.7997
994.9642, 602.8773
995.4464, 603.9348
995.9285, 602.7106
996.4106, 598.7573
996.8927, 593.1779
997.3748, 587.0267
997.8569, 579.1726
998.3391, 568.3556
998.8212, 554.0818
999.3033, 538.4505
999.7854, 521.6501
1000.268, 503.9646
1000.750, 485.7569
1001.232, 467.0971
1001.714, 447.9575
1002.196, 428.5715
1002.678, 409.2485
1003.160, 390.0398
1003.642, 371.5772
1004.124, 354.1192
1004.607, 337.6109
1005.089, 322.4366
1005.571, 308.4628
1006.053, 295.5470
1006.535, 283.4910
1007.017, 272.4418
1007.499, 262.2644
1007.981, 252.9889
1008.464, 244.4840
1008.946, 236.8388
1009.428, 230.0532
1009.910, 224.2052
1010.392, 218.8980
1010.874, 213.9360
1011.356, 209.2889
1011.838, 205.1205
1012.320, 201.4179
1012.803, 197.9819
1013.285, 194.8950
1013.767, 191.8936
1014.249, 188.8129
1014.731, 185.7586
1015.213, 183.0573
1015.695, 180.7398
1016.177, 178.6519
1016.659, 176.8403
1017.142, 174.9794
1017.624, 172.6568
1018.106, 170.0790
1018.588, 167.4991
1019.070, 164.9683
1019.552, 162.3669
1020.034, 159.7782
1020.516, 156.9539
1020.999, 153.6756
1021.481, 150.0515
1021.963, 146.8169
1022.445, 143.9028
1022.927, 140.9288
1023.409, 137.7484
1023.891, 134.3971
1024.373, 130.8235
1024.855, 127.1179
1025.338, 123.3828
1025.820, 119.4948
1026.302, 116.1022
1026.784, 113.3489
1027.266, 110.7416
1027.748, 107.5733
1028.230, 104.2665
1028.712, 101.6169
1029.195, 99.68044
1029.677, 97.80814
1030.159, 95.59841
1030.641, 93.57738
1031.123, 91.91178
1031.605, 90.55624
1032.087, 89.42189
1032.569, 88.50310
1033.052, 87.50973
1033.534, 86.30110
1034.016, 85.14272
1034.498, 84.23961
1034.980, 83.52869
1035.462, 82.94595
1035.944, 82.46144
1036.426, 82.16287
1036.908, 82.06982
1037.391, 82.10997
1037.873, 82.30739
1038.355, 82.58116
1038.837, 82.71326
1039.319, 82.72546
1039.801, 82.71322
1040.283, 82.54594
1040.765, 82.57952
1041.247, 83.10038
1041.730, 83.78026
1042.212, 84.13110
1042.694, 84.14821
1043.176, 83.87761
1043.658, 83.29248
1044.140, 82.64063
1044.622, 82.18649
1045.104, 81.73365
1045.587, 81.07771
1046.069, 80.17840
1046.551, 79.27208
1047.033, 78.39314
1047.515, 77.44687
1047.997, 76.37158
1048.479, 75.23643
1048.961, 74.17464
1049.443, 73.18115
1049.926, 72.22131
1050.408, 71.25834
1050.890, 70.38902
1051.372, 69.66146
1051.854, 69.03639
1052.336, 68.50925
1052.818, 68.08470
1053.300, 67.57107
1053.782, 66.96615
1054.265, 66.35610
1054.747, 65.62947
1055.229, 65.07443
1055.711, 65.04308
1056.193, 65.39889
1056.675, 65.59805
1057.157, 65.46796
1057.639, 65.55063
1058.122, 65.98404
1058.604, 66.51978
1059.086, 66.79012
1059.568, 66.91557
1060.050, 67.15132
1060.532, 67.54608
1061.014, 67.93420
1061.496, 68.31483
1061.979, 68.59200
1062.461, 68.67995
1062.943, 68.63784
1063.425, 68.72960
1063.907, 68.95689
1064.389, 69.33172
1064.871, 69.94096
1065.353, 70.55474
1065.835, 70.99026
1066.318, 71.33057
1066.800, 71.69465
1067.282, 72.09727
1067.764, 72.50364
1068.246, 72.91476
1068.728, 73.30639
1069.210, 73.67811
1069.692, 74.00598
1070.174, 74.23576
1070.657, 74.38457
1071.139, 74.52734
1071.621, 74.68961
1072.103, 74.84258
1072.585, 74.98280
1073.067, 75.11057
1073.549, 75.09422
1074.031, 75.04782
1074.514, 75.60946
1074.996, 76.89592
1075.478, 78.05200
1075.960, 78.47442
1076.442, 78.62857
1076.924, 78.60149
1077.406, 78.51965
1077.888, 79.19656
1078.370, 80.66692
1078.853, 82.19807
1079.335, 83.56941
1079.817, 84.81220
1080.299, 85.81516
1080.781, 86.79599
1081.263, 88.03051
1081.745, 89.63490
1082.227, 91.42422
1082.709, 93.44473
1083.192, 95.51527
1083.674, 97.46946
1084.156, 99.42615
1084.638, 101.6867
1085.120, 104.2212
1085.602, 106.9828
1086.084, 110.1032
1086.566, 113.2971
1087.048, 116.4905
1087.531, 119.7328
1088.013, 123.0597
1088.495, 126.4933
1088.977, 130.1290
1089.459, 133.9878
1089.941, 137.9360
1090.423, 141.7799
1090.905, 145.7721
1091.388, 150.2868
1091.870, 155.1331
1092.352, 159.3360
1092.834, 162.7952
1093.316, 166.5038
1093.798, 170.7752
1094.280, 175.0467
1094.762, 178.7390
1095.245, 181.9944
1095.727, 184.9528
1096.209, 187.5665
1096.691, 190.1550
1097.173, 192.8360
1097.655, 195.2520
1098.137, 197.4029
1098.619, 199.0278
1099.101, 199.2570
1099.583, 198.4628
1100.066, 197.6514
1100.548, 197.6449
1101.030, 196.7757
1101.512, 194.2810
1101.994, 191.1376
1102.476, 188.1123
1102.958, 185.1725
1103.440, 181.1905
1103.923, 176.2767
1104.405, 171.5275
1104.887, 167.8313
1105.369, 164.1860
1105.851, 159.8201
1106.333, 155.1347
1106.815, 150.9908
1107.297, 147.4715
1107.780, 143.9284
1108.262, 140.2818
1108.744, 136.5038
1109.226, 132.2069
1109.708, 127.9795
1110.190, 124.3892
1110.672, 121.4516
1111.154, 118.6110
1111.636, 115.7784
1112.119, 113.1791
1112.601, 110.8612
1113.083, 108.7570
1113.565, 106.8532
1114.047, 105.0109
1114.529, 102.9061
1115.011, 100.3485
1115.493, 98.27238
1115.975, 97.22508
1116.458, 96.15707
1116.940, 94.57735
1117.422, 92.67513
1117.904, 91.06512
1118.386, 89.67110
1118.868, 88.13510
1119.350, 86.23804
1119.832, 84.39037
1120.315, 82.67747
1120.797, 81.16671
1121.279, 79.97350
1121.761, 79.09220
1122.243, 78.03503
1122.725, 76.80727
1123.207, 75.49979
1123.689, 74.18144
1124.172, 72.78550
1124.654, 71.18657
1125.136, 69.50471
1125.618, 67.96753
1126.100, 66.58458
1126.582, 65.26434
1127.064, 63.99902
1127.546, 62.81959
1128.028, 61.81849
1128.510, 60.86718
1128.993, 59.80769
1129.475, 58.67877
1129.957, 57.61786
1130.439, 56.63841
1130.921, 55.72247
1131.403, 54.88402
1131.885, 54.05777
1132.367, 53.09436
1132.850, 52.12098
1133.332, 51.32288
1133.814, 50.72522
1134.296, 50.14537
1134.778, 49.57906
1135.260, 48.97356
1135.742, 48.29644
1136.224, 47.59125
1136.707, 46.90852
1137.189, 46.26478
1137.671, 45.69908
1138.153, 45.22096
1138.635, 44.80239
1139.117, 44.55432
1139.599, 44.23582
1140.081, 43.68481
1140.563, 42.97701
1141.046, 42.44063
1141.528, 42.05146
1142.010, 41.64520
1142.492, 41.03600
1142.974, 40.62130
1143.456, 40.92903
1143.938, 41.27692
1144.420, 40.88520
1144.902, 39.68658
1145.385, 39.85853
1145.867, 41.31561
1146.349, 42.24868
1146.831, 41.01765
1147.313, 39.40161
1147.795, 38.57901
1148.277, 38.22782
1148.759, 37.74510
1149.242, 37.06084
1149.724, 36.59588
1150.206, 36.37474
1150.688, 36.32137
1151.170, 36.58406
1151.652, 36.81397
1152.134, 36.61114
1152.616, 36.08532
1153.099, 35.69717
1153.581, 35.50177
1154.063, 35.34404
1154.545, 35.21173
1155.027, 35.07952
1155.509, 34.90526
1155.991, 34.72740
1156.473, 34.60924
1156.955, 34.54947
1157.438, 34.44392
1157.920, 34.23211
1158.402, 34.11468
1158.884, 34.18417
1159.366, 34.26156
1159.848, 34.00520
1160.330, 33.59941
1160.812, 33.37435
1161.294, 33.40136
1161.777, 33.39340
1162.259, 33.27866
1162.741, 33.15289
1163.223, 33.05070
1163.705, 32.95419
1164.187, 32.80777
1164.669, 32.63781
1165.151, 32.51420
1165.634, 32.48093
1166.116, 32.39460
1166.598, 32.16875
1167.080, 31.94287
1167.562, 31.77163
1168.044, 31.65749
1168.526, 31.64504
1169.008, 31.70181
1169.490, 31.71453
1169.973, 31.65281
1170.455, 31.52047
1170.937, 31.21459
1171.419, 30.94614
1171.901, 30.88179
1172.383, 30.99305
1172.865, 31.05153
1173.347, 31.06379
1173.829, 31.07196
1174.312, 31.13588
1174.794, 31.15277
1175.276, 31.08500
1175.758, 30.94378
1176.240, 30.67582
1176.722, 30.29215
1177.204, 30.22395
1177.686, 30.44972
1178.169, 30.60004
1178.651, 30.31202
1179.133, 30.03353
1179.615, 30.00942
1180.097, 30.13276
1180.579, 30.29476
1181.061, 30.49583
1181.543, 30.49474
1182.026, 30.27442
1182.508, 30.00183
1182.990, 29.68327
1183.472, 29.46586
1183.954, 29.50036
1184.436, 29.69949
1184.918, 29.90876
1185.400, 30.13514
1185.882, 30.19241
1186.365, 30.04794
1186.847, 29.84601
1187.329, 29.59512
1187.811, 29.42873
1188.293, 29.51281
1188.775, 29.77603
1189.257, 29.96066
1189.739, 30.06619
1190.221, 30.10052
1190.704, 30.06321
1191.186, 29.96786
1191.668, 29.73273
1192.150, 29.52079
1192.632, 29.52878
1193.114, 29.72462
1193.596, 29.76180
1194.078, 29.61851
1194.561, 29.53553
1195.043, 29.59973
1195.525, 29.66876
1196.007, 29.58317
1196.489, 29.43911
1196.971, 29.31311
1197.453, 29.21236
1197.935, 29.22761
1198.417, 29.38248
1198.900, 29.44071
1199.382, 29.28487
1199.864, 29.08477
1200.346, 28.97937
1200.828, 28.95332
1201.310, 29.03678
1201.792, 29.25857
1202.274, 29.21499
1202.756, 28.87074
1203.239, 28.57311
1203.721, 28.49130
1204.203, 28.50027
1204.685, 28.48314
1205.167, 28.46317
1205.649, 28.47946
1206.131, 28.54791
1206.613, 28.56844
1207.096, 28.53433
1207.578, 28.51221
1208.060, 28.57285
1208.542, 28.61808
1209.024, 28.48086
1209.506, 28.27950
1209.988, 28.22639
1210.470, 28.40733
1210.953, 28.42034
1211.435, 28.25041
1211.917, 28.03833
1212.399, 27.80095
1212.881, 27.63225
1213.363, 27.68059
1213.845, 27.84982
1214.327, 27.97353
1214.809, 28.07360
1215.292, 27.97503
1215.774, 27.64568
1216.256, 27.39077
1216.738, 27.54869
1217.220, 27.78653
1217.702, 27.74185
1218.184, 27.54771
1218.666, 27.49927
1219.148, 27.64351
1219.631, 27.82976
1220.113, 28.07027
1220.595, 28.16617
1221.077, 27.71279
1221.559, 27.27138
1222.041, 27.50470
1222.523, 28.11421
1223.005, 28.33128
1223.488, 28.04895
1223.970, 27.77629
1224.452, 27.53912
1224.934, 27.40028
1225.416, 27.52033
1225.898, 27.65683
1226.380, 27.53112
1226.862, 27.26870
1227.344, 27.25104
1227.827, 27.53483
1228.309, 27.69583
1228.791, 27.69260
1229.273, 27.63162
1229.755, 27.59765
1230.237, 27.54486
1230.719, 27.39957
1231.201, 27.21274
1231.683, 27.12792
1232.166, 27.15289
1232.648, 27.19692
1233.130, 27.24941
1233.612, 27.32667
1234.094, 27.57555
1234.576, 27.72806
1235.058, 27.43898
1235.540, 26.93638
1236.023, 26.80999
1236.505, 27.06763
1236.987, 27.20704
1237.469, 27.15867
1237.951, 27.06530
1238.433, 26.99603
1238.915, 26.95941
1239.397, 27.00509
1239.880, 27.07357
1240.362, 26.98576
1240.844, 26.76147
1241.326, 26.72158
1241.808, 26.92717
1242.290, 27.12778
1242.772, 27.17194
1243.254, 27.13469
1243.736, 27.01876
1244.219, 26.87618
1244.701, 26.83109
1245.183, 26.87124
1245.665, 26.95145
1246.147, 27.07184
1246.629, 27.06028
1247.111, 26.60667
1247.593, 26.24609
1248.075, 26.19941
1248.558, 26.39017
1249.040, 26.76262
1249.522, 27.22710
1250.004, 27.33596
1250.486, 26.99264
1250.968, 26.74855
1251.450, 27.01721
1251.932, 27.23684
1252.415, 27.19697
1252.897, 27.01558
1253.379, 26.91213
1253.861, 26.87761
1254.343, 26.91973
1254.825, 27.05018
1255.307, 27.06408
1255.789, 26.73662
1256.271, 26.52896
1256.754, 26.60972
1257.236, 26.82787
1257.718, 26.90703
1258.200, 26.91354
1258.682, 26.98995
1259.164, 27.16871
1259.646, 27.26180
1260.128, 27.23356
1260.610, 27.13879
1261.093, 26.96936
1261.575, 26.79872
1262.057, 26.78711
1262.539, 26.82387
1263.021, 26.70832
1263.503, 26.39834
1263.985, 26.27625
1264.467, 26.40454
1264.950, 26.57986
1265.432, 26.79487
1265.914, 26.88185
1266.396, 26.42008
1266.878, 25.84306
1267.360, 25.70446
1267.842, 26.06614
1268.324, 26.26975
1268.807, 26.30126
1269.289, 26.27261
1269.771, 26.19421
1270.253, 26.14360
1270.735, 26.28039
1271.217, 26.41710
1271.699, 26.32453
1272.181, 26.05160
1272.663, 25.89824
1273.146, 25.86461
1273.628, 25.91626
1274.110, 26.07101
1274.592, 26.18346
1275.074, 26.02204
1275.556, 25.90920
1276.038, 26.13314
1276.520, 26.55421
1277.002, 26.58549
1277.485, 26.29805
1277.967, 26.13360
1278.449, 26.22391
1278.931, 26.30099
1279.413, 26.18918
1279.895, 26.06800
1280.377, 26.02213
1280.859, 26.01954
1281.342, 25.98872
1281.824, 25.93069
1282.306, 25.81367
1282.788, 25.60589
1283.270, 25.56541
1283.752, 25.95023
1284.234, 26.21321
1284.716, 26.13684
1285.198, 25.90782
1285.681, 25.84353
1286.163, 25.88275
1286.645, 25.91374
1287.127, 25.91616
1287.609, 25.95704
1288.091, 26.07373
1288.573, 26.12494
1289.055, 26.04923
1289.537, 25.94400
1290.020, 25.97245
1290.502, 26.02723
1290.984, 25.97157
1291.466, 25.79022
1291.948, 25.60663
1292.430, 25.39672
1292.912, 25.40374
1293.394, 25.74519
1293.877, 26.06354
1294.359, 25.91037
1294.841, 25.67459
1295.323, 25.76329
1295.805, 26.06759
1296.287, 26.12498
1296.769, 25.95143
1297.251, 25.80664
1297.734, 25.74679
1298.216, 25.69555
1298.698, 25.59183
1299.180, 25.49567
1299.662, 25.42243
1300.144, 25.38714
1300.626, 25.45789
1301.108, 25.59627
1301.590, 25.66257
1302.073, 25.63179
1302.555, 25.58749
1303.037, 25.53729
1303.519, 25.51984
1304.001, 25.56264
1304.483, 25.60472
1304.965, 25.56990
##END=



