##NAMES=Stibnite
##RRUFFID=R050016
##IDEAL CHEMISTRY=Sb^3+^_2_S^2-^_3_
##LOCALITY=Romania
##OWNER=RRUFF
##SOURCE=Eugene Schlepp
##DESCRIPTION=Group of lead-gray prismatic crystals
##STATUS=The identification of this mineral has been confirmed by X-ray diffraction and chemical analysis
##URL=rruff.info/R050016
##MEASURED CHEMISTRY=(Sb_.996_As_.004_)_2_S_3_
106.577, 995.078
107.059, 1107.366
107.541, 1241.500
108.023, 1391.979
108.506, 1556.757
108.988, 1735.942
109.470, 1935.394
109.952, 2161.586
110.434, 2401.966
110.916, 2650.060
111.398, 2921.930
111.880, 3184.245
112.363, 3425.132
112.845, 3644.219
113.327, 3869.969
113.809, 4105.479
114.291, 4353.813
114.773, 4615.791
115.255, 4895.815
115.737, 5188.996
116.219, 5501.220
116.702, 5844.551
117.184, 6159.103
117.666, 6409.695
118.148, 6617.870
118.630, 6824.665
119.112, 7064.075
119.594, 7302.002
120.076, 7513.479
120.559, 7691.868
121.041, 7843.924
121.523, 7966.434
122.005, 8063.417
122.487, 8155.380
122.969, 8258.825
123.451, 8365.408
123.933, 8463.341
124.415, 8540.274
124.898, 8611.813
125.380, 8698.023
125.862, 8799.398
126.344, 8902.256
126.826, 8991.594
127.308, 9071.385
127.790, 9151.952
128.272, 9223.869
128.755, 9300.562
129.237, 9410.685
129.719, 9556.724
130.201, 9732.629
130.683, 9927.286
131.165, 10140.110
131.647, 10388.110
132.129, 10676.190
132.611, 11005.310
133.094, 11378.170
133.576, 11800.230
134.058, 12263.080
134.540, 12733.830
135.022, 13213.730
135.504, 13716.560
135.986, 14262.220
136.468, 14846.770
136.951, 15460.480
137.433, 16109.080
137.915, 16784.279
138.397, 17467.119
138.879, 18171.119
139.361, 18863.920
139.843, 19536.689
140.325, 20205.520
140.807, 20813.359
141.290, 21361.090
141.772, 21855.680
142.254, 22228.340
142.736, 22479.580
143.218, 22605.141
143.700, 22594.480
144.182, 22433.760
144.664, 22155.699
145.146, 21767.850
145.629, 21213.320
146.111, 20642.340
146.593, 20051.820
147.075, 19438.449
147.557, 18832.939
148.039, 18215.340
148.521, 17613.051
149.003, 17033.570
149.486, 16481.199
149.968, 15955.310
150.450, 15447.750
150.932, 14959.550
151.414, 14514.420
151.896, 14121.740
152.378, 13761.760
152.860, 13418.610
153.342, 13082.530
153.824, 12768.670
154.307, 12481.750
154.789, 12220.420
155.271, 11979.450
155.753, 11774.710
156.235, 11587.310
156.717, 11395.120
157.199, 11159.020
157.682, 10942.110
158.164, 10771.710
158.646, 10664.740
159.128, 10567.780
159.610, 10469.360
160.092, 10370.030
160.574, 10274.610
161.056, 10179.310
161.538, 10090.640
162.020, 10012.480
162.503, 9946.702
162.985, 9889.108
163.467, 9844.258
163.949, 9808.423
164.431, 9767.929
164.913, 9711.344
165.395, 9649.754
165.877, 9593.084
166.360, 9546.683
166.842, 9504.852
167.324, 9462.646
167.806, 9421.223
168.288, 9387.615
168.770, 9365.496
169.252, 9354.294
169.734, 9353.169
170.217, 9368.210
170.699, 9389.619
171.181, 9410.452
171.663, 9430.431
172.145, 9448.865
172.627, 9452.164
173.109, 9453.053
173.591, 9477.486
174.073, 9542.237
174.555, 9635.983
175.038, 9743.732
175.520, 9864.482
176.002, 10001.360
176.484, 10150.510
176.966, 10316.320
177.448, 10518.690
177.930, 10785.170
178.413, 11092.310
178.895, 11404.460
179.377, 11718.100
179.859, 12034.040
180.341, 12360.390
180.823, 12699.060
181.305, 13050.250
181.787, 13406.340
182.269, 13775.360
182.751, 14192.010
183.234, 14665.810
183.716, 15184.540
184.198, 15736.050
184.680, 16319.820
185.162, 16882.760
185.644, 17451.619
186.126, 17986.211
186.608, 18325.301
187.091, 18391.750
187.573, 18237.910
188.055, 17991.510
188.537, 17651.510
189.019, 17228.740
189.501, 16757.570
189.983, 16227.200
190.465, 15558.130
190.947, 14636.250
191.430, 13528.200
191.912, 12601.210
192.394, 11873.460
192.876, 11297.930
193.358, 10856.860
193.840, 10552.100
194.322, 10303.780
194.804, 10087.490
195.286, 9903.116
195.769, 9751.642
196.251, 9635.967
196.733, 9544.528
197.215, 9453.104
197.697, 9360.063
198.179, 9282.216
198.661, 9233.740
199.143, 9215.484
199.626, 9192.273
200.108, 9161.618
200.590, 9126.004
201.072, 9086.951
201.554, 9041.706
202.036, 9004.732
202.518, 8986.928
203.000, 8990.255
203.482, 8992.760
203.965, 8990.178
204.447, 8985.987
204.929, 8996.052
205.411, 9026.353
205.893, 9051.983
206.375, 9051.383
206.857, 9017.839
207.339, 8992.814
207.822, 8984.592
208.304, 8989.501
208.786, 8985.664
209.268, 8969.470
209.750, 8953.171
210.232, 8948.623
210.714, 8960.391
211.196, 8968.295
211.678, 8966.638
212.161, 8956.894
212.643, 8958.435
213.125, 8976.872
213.607, 8998.071
214.089, 9005.502
214.571, 8989.899
215.053, 8986.931
215.535, 9008.222
216.018, 9054.194
216.500, 9088.379
216.982, 9103.830
217.464, 9114.249
217.946, 9136.002
218.428, 9173.721
218.910, 9210.488
219.392, 9243.276
219.874, 9272.215
220.357, 9291.165
220.839, 9292.436
221.321, 9290.913
221.803, 9309.546
222.285, 9361.161
222.767, 9407.211
223.249, 9434.125
223.731, 9437.288
224.214, 9445.247
224.696, 9454.724
225.178, 9471.580
225.660, 9506.478
226.142, 9562.939
226.624, 9630.892
227.106, 9710.461
227.588, 9812.763
228.070, 9890.245
228.553, 9930.207
229.035, 9951.426
229.517, 9992.379
229.999, 10060.060
230.481, 10136.780
230.963, 10215.130
231.445, 10292.660
231.927, 10380.050
232.410, 10477.400
232.892, 10584.630
233.374, 10700.700
233.856, 10821.870
234.338, 10957.020
234.820, 11107.980
235.302, 11257.920
235.784, 11461.110
236.266, 11733.050
236.749, 12058.780
237.231, 12371.450
237.713, 12628.920
238.195, 12935.790
238.677, 13345.130
239.159, 13885.390
239.641, 14465.710
240.123, 15088.180
240.605, 15754.880
241.088, 16465.600
241.570, 17227.221
242.052, 18030.850
242.534, 18886.850
243.016, 19869.471
243.498, 20750.350
243.980, 21518.180
244.462, 22174.020
244.945, 22705.939
245.427, 22999.881
245.909, 23310.260
246.391, 23781.189
246.873, 24442.270
247.355, 25211.641
247.837, 26163.439
248.319, 27235.660
248.801, 28120.381
249.284, 28879.070
249.766, 29344.430
250.248, 29401.480
250.730, 28997.971
251.212, 28299.221
251.694, 27262.850
252.176, 25935.900
252.658, 24501.301
253.141, 22846.590
253.623, 21262.980
254.105, 19947.891
254.587, 18960.131
255.069, 18138.400
255.551, 17511.320
256.033, 17053.381
256.515, 16548.141
256.997, 15954.920
257.480, 15368.220
257.962, 14836.220
258.444, 14348.600
258.926, 13940.130
259.408, 13627.000
259.890, 13397.970
260.372, 13175.920
260.854, 12947.580
261.336, 12742.640
261.819, 12582.360
262.301, 12479.750
262.783, 12383.360
263.265, 12280.640
263.747, 12176.560
264.229, 12105.130
264.711, 12078.060
265.193, 12064.500
265.676, 12042.750
266.158, 12012.740
266.640, 11974.610
267.122, 11925.260
267.604, 11867.260
268.086, 11820.230
268.568, 11785.070
269.050, 11758.710
269.532, 11740.670
270.015, 11732.930
270.497, 11725.020
270.979, 11716.360
271.461, 11706.510
271.943, 11690.430
272.425, 11664.120
272.907, 11641.930
273.389, 11638.990
273.871, 11658.970
274.354, 11675.400
274.836, 11684.120
275.318, 11685.870
275.800, 11684.960
276.282, 11681.630
276.764, 11674.240
277.246, 11664.160
277.728, 11652.740
278.211, 11621.830
278.693, 11558.150
279.175, 11475.660
279.657, 11434.520
280.139, 11442.680
280.621, 11456.790
281.103, 11434.750
281.585, 11375.730
282.068, 11338.280
282.550, 11341.160
283.032, 11368.100
283.514, 11366.900
283.996, 11335.230
284.478, 11292.170
284.960, 11249.170
285.442, 11206.180
285.924, 11168.100
286.406, 11135.080
286.889, 11107.380
287.371, 11082.520
287.853, 11059.930
288.335, 11050.720
288.817, 11074.410
289.299, 11124.990
289.781, 11156.440
290.263, 11157.450
290.746, 11139.900
291.228, 11128.820
291.710, 11123.920
292.192, 11111.550
292.674, 11074.680
293.156, 11020.460
293.638, 10977.880
294.120, 10955.090
294.603, 10941.520
295.085, 10919.620
295.567, 10890.420
296.049, 10862.270
296.531, 10851.060
297.013, 10846.000
297.495, 10817.190
297.977, 10756.610
298.459, 10679.920
298.942, 10605.050
299.424, 10531.920
299.906, 10461.420
300.388, 10405.350
300.870, 10349.900
301.352, 10267.860
301.834, 10146.100
302.316, 10018.590
302.798, 9927.589
303.281, 9863.029
303.763, 9787.343
304.245, 9665.531
304.727, 9524.404
305.209, 9404.144
305.691, 9315.496
306.173, 9228.446
306.655, 9112.608
307.138, 8976.965
307.620, 8843.398
308.102, 8720.973
308.584, 8606.284
309.066, 8496.235
309.548, 8391.083
310.030, 8288.969
310.512, 8191.282
310.994, 8095.302
311.477, 7997.900
311.959, 7888.860
312.441, 7783.421
312.923, 7695.613
313.405, 7628.330
313.887, 7565.299
314.369, 7498.089
314.851, 7428.678
315.333, 7359.487
315.816, 7293.332
316.298, 7226.412
316.780, 7153.165
317.262, 7072.079
317.744, 6999.489
318.226, 6942.732
318.708, 6896.821
319.190, 6856.267
319.672, 6823.409
320.155, 6792.161
320.637, 6761.166
321.119, 6730.204
321.601, 6697.653
322.083, 6662.246
322.565, 6625.004
323.047, 6586.800
323.530, 6543.168
324.012, 6503.123
324.494, 6470.167
324.976, 6444.016
325.458, 6416.062
325.940, 6377.033
326.422, 6341.042
326.904, 6317.584
327.386, 6323.406
327.868, 6323.211
328.351, 6311.625
328.833, 6290.283
329.315, 6270.417
329.797, 6252.955
330.279, 6236.522
330.761, 6221.009
331.243, 6213.078
331.725, 6194.966
332.208, 6158.290
332.690, 6110.521
333.172, 6079.645
333.654, 6073.353
334.136, 6073.910
334.618, 6073.947
335.100, 6074.909
335.582, 6071.266
336.065, 6060.479
336.547, 6046.333
337.029, 6038.343
337.511, 6040.059
337.993, 6038.876
338.475, 6027.012
338.957, 6001.580
339.439, 5984.561
339.921, 5977.770
340.404, 5976.681
340.886, 5971.489
341.368, 5960.056
341.850, 5958.898
342.332, 5983.209
342.814, 6030.001
343.296, 6045.676
343.778, 6025.034
344.260, 5991.714
344.743, 5972.100
345.225, 5966.180
345.707, 5967.541
346.189, 5978.209
346.671, 5993.900
347.153, 5998.782
347.635, 5991.777
348.117, 5984.941
348.599, 5995.127
349.082, 6016.455
349.564, 6026.413
350.046, 6014.436
350.528, 5990.805
351.010, 5968.892
351.492, 5949.029
351.974, 5935.130
352.457, 5936.889
352.939, 5945.797
353.421, 5946.479
353.903, 5933.499
354.385, 5914.511
354.867, 5890.602
355.349, 5865.409
355.831, 5852.211
356.313, 5873.918
356.796, 5904.789
357.278, 5916.063
357.760, 5896.416
358.242, 5874.610
358.724, 5864.853
359.206, 5866.301
359.688, 5877.222
360.170, 5899.681
360.652, 5929.234
361.135, 5964.788
361.617, 6007.087
362.099, 6048.767
362.581, 6084.835
363.063, 6119.097
363.545, 6156.490
364.027, 6193.030
364.509, 6237.708
364.991, 6294.617
365.474, 6364.813
365.956, 6439.986
366.438, 6538.634
366.920, 6632.249
367.402, 6697.623
367.884, 6707.669
368.366, 6717.034
368.848, 6735.611
369.331, 6762.556
369.813, 6780.774
370.295, 6799.542
370.777, 6801.879
371.259, 6776.650
371.741, 6712.527
372.223, 6641.290
372.705, 6562.929
373.188, 6478.145
373.670, 6389.271
374.152, 6290.220
374.634, 6198.366
375.116, 6126.617
375.598, 6082.095
376.080, 6023.064
376.562, 5943.665
377.044, 5856.553
377.526, 5787.188
378.009, 5738.602
378.491, 5690.994
378.973, 5634.328
379.455, 5569.796
379.937, 5519.123
380.419, 5483.191
380.901, 5456.748
381.384, 5437.060
381.866, 5423.293
382.348, 5404.382
382.830, 5372.856
383.312, 5335.879
383.794, 5310.556
384.276, 5296.823
384.758, 5290.170
385.240, 5293.390
385.723, 5300.671
386.205, 5296.960
386.687, 5271.799
387.169, 5244.656
387.651, 5241.288
388.133, 5256.797
388.615, 5272.146
389.097, 5277.138
389.579, 5274.947
390.062, 5269.433
390.544, 5261.929
391.026, 5248.689
391.508, 5217.864
391.990, 5180.756
392.472, 5157.158
392.954, 5165.974
393.436, 5182.982
393.918, 5197.681
394.401, 5209.976
394.883, 5214.133
395.365, 5201.381
395.847, 5182.396
396.329, 5167.840
396.811, 5158.697
397.293, 5155.317
397.775, 5164.531
398.258, 5184.903
398.740, 5189.156
399.222, 5151.525
399.704, 5113.993
400.186, 5100.838
400.668, 5141.201
401.150, 5161.401
401.632, 5149.399
402.114, 5116.827
402.597, 5097.034
403.079, 5094.608
403.561, 5097.373
404.043, 5101.177
404.525, 5106.609
405.007, 5110.918
405.489, 5115.028
405.971, 5116.778
406.453, 5109.859
406.936, 5091.721
407.418, 5082.788
407.900, 5093.796
408.382, 5120.231
408.864, 5137.269
409.346, 5144.438
409.828, 5145.142
410.310, 5138.556
410.793, 5126.886
411.275, 5121.734
411.757, 5127.256
412.239, 5138.807
412.721, 5151.602
413.203, 5165.000
413.685, 5173.679
414.167, 5169.230
414.650, 5159.529
415.132, 5156.540
415.614, 5162.292
416.096, 5172.960
416.578, 5191.958
417.060, 5213.500
417.542, 5225.191
418.024, 5213.195
418.506, 5195.994
418.988, 5184.318
419.471, 5178.998
419.953, 5178.532
420.435, 5190.300
420.917, 5203.199
421.399, 5206.735
421.881, 5181.210
422.363, 5164.527
422.845, 5170.825
423.328, 5196.147
423.810, 5216.850
424.292, 5225.956
424.774, 5233.333
425.256, 5243.708
425.738, 5258.636
426.220, 5273.918
426.702, 5289.574
427.185, 5305.556
427.667, 5321.476
428.149, 5337.212
428.631, 5352.629
429.113, 5366.046
429.595, 5376.700
430.077, 5397.284
430.559, 5428.679
431.041, 5467.760
431.524, 5511.565
432.006, 5560.178
432.488, 5612.216
432.970, 5667.414
433.452, 5725.875
433.934, 5786.347
434.416, 5848.827
434.898, 5918.863
435.380, 6003.648
435.863, 6099.262
436.345, 6193.070
436.827, 6282.599
437.309, 6375.298
437.791, 6480.251
438.273, 6596.075
438.755, 6719.101
439.237, 6841.200
439.720, 6973.502
440.202, 7135.822
440.684, 7327.979
441.166, 7511.148
441.648, 7639.727
442.130, 7754.863
442.612, 7897.616
443.094, 8106.130
443.576, 8314.727
444.059, 8505.850
444.541, 8680.623
445.023, 8843.719
445.505, 9003.936
445.987, 9145.418
446.469, 9260.735
446.951, 9354.639
447.433, 9412.423
447.915, 9428.115
448.398, 9410.650
448.880, 9376.272
449.362, 9358.689
449.844, 9264.263
450.326, 9046.832
450.808, 8714.557
451.290, 8448.929
451.772, 8272.205
452.254, 8119.738
452.737, 7941.047
453.219, 7733.728
453.701, 7533.283
454.183, 7338.964
454.665, 7157.838
455.147, 7003.569
455.629, 6876.803
456.112, 6756.901
456.594, 6632.739
457.076, 6507.417
457.558, 6394.984
458.040, 6294.473
458.522, 6204.898
459.004, 6127.850
459.486, 6060.057
459.968, 5993.024
460.451, 5919.733
460.933, 5850.901
461.415, 5799.264
461.897, 5762.100
462.379, 5728.252
462.861, 5695.699
463.343, 5662.408
463.825, 5625.766
464.307, 5581.350
464.790, 5544.370
465.272, 5525.561
465.754, 5515.939
466.236, 5502.812
466.718, 5480.862
467.200, 5458.448
467.682, 5435.958
468.164, 5413.304
468.647, 5396.384
469.129, 5388.390
469.611, 5382.838
470.093, 5375.289
470.575, 5364.884
471.057, 5354.625
471.539, 5344.522
472.021, 5334.780
472.503, 5326.878
472.986, 5321.540
473.468, 5313.384
473.950, 5298.250
474.432, 5277.585
474.914, 5260.556
475.396, 5247.282
475.878, 5237.669
476.360, 5234.497
476.842, 5235.476
477.325, 5233.247
477.807, 5226.040
478.289, 5214.913
478.771, 5196.623
479.253, 5174.141
479.735, 5158.673
480.217, 5161.421
480.699, 5171.219
481.181, 5179.034
481.664, 5183.844
482.146, 5185.813
482.628, 5183.807
483.110, 5179.051
483.592, 5173.000
484.074, 5156.825
484.556, 5148.456
485.039, 5158.972
485.521, 5185.484
486.003, 5199.733
486.485, 5191.513
486.967, 5179.682
487.449, 5172.785
487.931, 5171.761
488.413, 5174.850
488.895, 5187.210
489.378, 5199.291
489.860, 5194.059
490.342, 5167.815
490.824, 5142.198
491.306, 5118.225
491.788, 5100.501
492.270, 5118.818
492.752, 5176.745
493.234, 5230.354
493.717, 5243.951
494.199, 5224.972
494.681, 5191.963
495.163, 5143.109
495.645, 5095.839
496.127, 5073.099
496.609, 5068.435
497.091, 5065.734
497.573, 5053.148
498.056, 5042.546
498.538, 5047.406
499.020, 5067.126
499.502, 5081.583
499.984, 5071.611
500.466, 5058.336
500.948, 5059.536
501.430, 5095.399
501.913, 5120.907
502.395, 5121.753
502.877, 5107.463
503.359, 5098.813
503.841, 5101.336
504.323, 5103.443
504.805, 5104.324
505.287, 5104.526
505.770, 5088.116
506.252, 5043.217
506.734, 5001.402
507.216, 4995.420
507.698, 5030.573
508.180, 5049.433
508.662, 5040.341
509.144, 5019.075
509.626, 5017.905
510.108, 5035.313
510.591, 5051.067
511.073, 5053.682
511.555, 5048.212
512.037, 5043.307
512.519, 5039.178
513.001, 5037.382
513.483, 5040.935
513.966, 5046.950
514.448, 5051.582
514.930, 5053.032
515.412, 5054.101
515.894, 5055.702
516.376, 5057.929
516.858, 5061.101
517.340, 5067.359
517.822, 5072.580
518.305, 5076.758
518.787, 5080.767
519.269, 5075.781
519.751, 5050.397
520.233, 5024.410
520.715, 5013.474
521.197, 5026.952
521.679, 5032.983
522.161, 5026.412
522.644, 5013.315
523.126, 5006.587
523.608, 5006.180
524.090, 5012.990
524.572, 5037.206
525.054, 5070.246
525.536, 5060.859
526.018, 5006.232
526.500, 4951.732
526.983, 4945.104
527.465, 4969.148
527.947, 4984.536
528.429, 4979.854
528.911, 4971.765
529.393, 4977.933
529.875, 4992.232
530.357, 5001.683
530.839, 5000.083
531.322, 4992.139
531.804, 4975.819
532.286, 4951.494
532.768, 4937.190
533.250, 4948.686
533.732, 4964.381
534.214, 4970.228
534.696, 4954.247
535.179, 4945.218
535.661, 4947.086
536.143, 4954.205
536.625, 4956.357
537.107, 4950.625
537.589, 4948.113
538.071, 4953.997
538.553, 4966.157
539.036, 4968.181
539.518, 4958.691
540.000, 4948.637
540.482, 4945.916
540.964, 4949.499
541.446, 4957.550
541.928, 4971.122
542.410, 4982.968
542.892, 4982.868
543.375, 4974.971
543.857, 4968.422
544.339, 4972.176
544.821, 4974.139
545.303, 4962.673
545.785, 4940.699
546.267, 4923.023
546.749, 4919.073
547.231, 4918.589
547.714, 4915.455
548.196, 4906.964
548.678, 4902.299
549.160, 4909.034
549.642, 4916.261
550.124, 4911.875
550.606, 4887.016
551.088, 4868.833
551.570, 4861.837
552.053, 4863.990
552.535, 4869.360
553.017, 4878.397
553.499, 4887.965
553.981, 4897.944
554.463, 4907.510
554.945, 4912.167
555.427, 4911.840
555.909, 4907.116
556.392, 4893.723
556.874, 4877.089
557.356, 4869.774
557.838, 4882.034
558.320, 4890.111
558.802, 4862.407
559.284, 4816.674
559.766, 4791.229
560.249, 4799.539
560.731, 4832.332
561.213, 4909.112
561.695, 5031.201
562.177, 5092.903
562.659, 5019.670
563.141, 4927.081
563.623, 4880.661
564.106, 4907.330
564.588, 4918.322
565.070, 4906.151
565.552, 4885.592
566.034, 4881.044
566.516, 4895.119
566.998, 4904.791
567.480, 4902.451
567.963, 4892.092
568.445, 4882.126
568.927, 4872.899
569.409, 4868.060
569.891, 4873.380
570.373, 4883.582
570.855, 4892.349
571.337, 4899.634
571.819, 4899.181
572.302, 4875.534
572.784, 4846.306
573.266, 4831.249
573.748, 4850.972
574.230, 4867.396
574.712, 4862.294
575.194, 4845.530
575.676, 4842.874
576.158, 4881.531
576.641, 4905.598
577.123, 4894.494
577.605, 4847.417
578.087, 4821.452
578.569, 4821.705
579.051, 4831.983
579.533, 4843.818
580.015, 4857.412
580.497, 4860.210
580.980, 4849.231
581.462, 4833.753
581.944, 4824.977
582.426, 4821.918
582.908, 4821.493
583.390, 4821.918
583.872, 4824.920
584.354, 4834.394
584.836, 4848.445
585.319, 4860.572
585.801, 4868.811
586.283, 4872.822
586.765, 4870.696
587.247, 4860.898
587.729, 4854.281
588.211, 4860.731
588.693, 4866.192
589.176, 4859.074
589.658, 4827.294
590.140, 4805.865
590.622, 4798.150
591.104, 4800.425
591.586, 4807.651
592.068, 4821.104
592.550, 4831.037
593.032, 4833.217
593.515, 4829.977
593.997, 4829.351
594.479, 4831.099
594.961, 4830.074
595.443, 4819.318
595.925, 4804.916
596.407, 4796.391
596.890, 4795.357
597.372, 4794.900
597.854, 4786.937
598.336, 4778.582
598.818, 4777.715
599.300, 4793.365
599.782, 4808.397
600.264, 4820.917
600.746, 4830.193
601.229, 4834.466
601.711, 4831.542
602.193, 4826.504
602.675, 4818.199
603.157, 4807.533
603.639, 4811.055
604.121, 4832.863
604.603, 4853.157
605.085, 4854.021
605.568, 4839.253
606.050, 4835.298
606.532, 4845.305
607.014, 4857.717
607.496, 4859.379
607.978, 4854.671
608.460, 4852.747
608.942, 4861.632
609.424, 4866.053
609.907, 4848.734
610.389, 4819.416
610.871, 4799.722
611.353, 4801.121
611.835, 4809.289
612.317, 4824.012
612.799, 4845.250
613.281, 4852.658
613.763, 4834.206
614.246, 4817.318
614.728, 4821.551
615.210, 4854.999
615.692, 4861.617
616.174, 4833.982
616.656, 4798.798
617.138, 4789.601
617.620, 4802.600
618.103, 4816.460
618.585, 4827.470
619.067, 4833.870
619.549, 4828.246
620.031, 4815.689
620.513, 4809.479
620.995, 4821.410
621.477, 4837.300
621.959, 4847.539
622.442, 4852.564
622.924, 4860.130
623.406, 4882.052
623.888, 4898.904
624.370, 4898.635
624.852, 4874.379
625.334, 4856.064
625.816, 4841.795
626.299, 4835.954
626.781, 4848.343
627.263, 4882.256
627.745, 4898.907
628.227, 4889.095
628.709, 4867.008
629.191, 4856.212
629.673, 4854.624
630.156, 4852.402
630.638, 4845.289
631.120, 4835.530
631.602, 4822.335
632.084, 4807.498
632.566, 4799.111
633.048, 4809.521
633.530, 4821.182
634.012, 4822.507
634.495, 4810.561
634.977, 4799.686
635.459, 4784.647
635.941, 4776.508
636.423, 4786.461
636.905, 4829.201
637.387, 4844.635
637.869, 4820.679
638.351, 4782.689
638.834, 4769.147
639.316, 4779.219
639.798, 4795.752
640.280, 4820.486
640.762, 4840.714
641.244, 4828.199
641.726, 4791.243
642.208, 4761.284
642.690, 4759.324
643.173, 4767.707
643.655, 4772.555
644.137, 4773.662
644.619, 4781.923
645.101, 4809.612
645.583, 4838.929
646.065, 4859.960
646.547, 4873.354
647.029, 4875.330
647.512, 4858.096
647.994, 4838.312
648.476, 4835.369
648.958, 4851.598
649.440, 4862.800
649.922, 4865.746
650.404, 4860.968
650.886, 4843.303
651.369, 4816.846
651.851, 4798.980
652.333, 4799.661
652.815, 4810.267
653.297, 4825.773
653.779, 4844.741
654.261, 4860.583
654.743, 4872.069
655.226, 4878.400
655.708, 4877.447
656.190, 4867.740
656.672, 4861.453
657.154, 4858.645
657.636, 4859.884
658.118, 4868.914
658.600, 4892.152
659.083, 4890.662
659.565, 4855.474
660.047, 4815.611
660.529, 4810.549
661.011, 4834.890
661.493, 4858.108
661.975, 4875.781
662.457, 4884.423
662.939, 4868.504
663.422, 4840.732
663.904, 4829.527
664.386, 4871.031
664.868, 4909.840
665.350, 4914.773
665.832, 4891.052
666.314, 4872.214
666.796, 4859.919
667.278, 4856.862
667.761, 4862.051
668.243, 4874.673
668.725, 4915.619
669.207, 5001.198
669.689, 5069.936
670.171, 5059.306
670.653, 4982.082
671.135, 4940.214
671.617, 4945.747
672.100, 4959.930
672.582, 4938.607
673.064, 4899.248
673.546, 4870.972
674.028, 4864.231
674.510, 4866.839
674.992, 4881.196
675.474, 4899.345
675.956, 4907.289
676.439, 4882.881
676.921, 4871.466
677.403, 4888.291
677.885, 4924.562
678.367, 4945.062
678.849, 4946.937
679.331, 4941.380
679.813, 4927.802
680.296, 4909.971
680.778, 4912.233
681.260, 4934.190
681.742, 4957.867
682.224, 4971.104
682.706, 4977.430
683.188, 4982.544
683.670, 4987.188
684.153, 4987.288
684.635, 4974.778
685.117, 4960.066
685.599, 4952.137
686.081, 4953.484
686.563, 4960.842
687.045, 4977.745
687.527, 4998.112
688.010, 5013.908
688.492, 5024.472
688.974, 5033.978
689.456, 5043.570
689.938, 5051.719
690.420, 5050.971
690.902, 5043.548
691.384, 5045.728
691.866, 5070.203
692.349, 5102.899
692.831, 5131.656
693.313, 5155.545
693.795, 5171.734
694.277, 5174.796
694.759, 5173.231
695.241, 5168.452
695.723, 5160.004
696.205, 5161.375
696.688, 5178.430
697.170, 5198.824
697.652, 5218.050
698.134, 5237.364
698.616, 5245.166
699.098, 5239.136
699.580, 5231.075
700.062, 5231.570
700.544, 5239.760
701.027, 5255.584
701.509, 5281.778
701.991, 5303.316
702.473, 5301.458
702.955, 5287.966
703.437, 5279.500
703.919, 5280.745
704.401, 5287.881
704.883, 5308.964
705.366, 5333.672
705.848, 5339.856
706.330, 5314.927
706.812, 5295.304
707.294, 5292.250
707.776, 5298.314
708.258, 5284.184
708.740, 5248.849
709.222, 5220.571
709.705, 5225.306
710.187, 5241.043
710.669, 5213.892
711.151, 5151.703
711.633, 5106.912
712.115, 5135.504
712.597, 5175.706
713.080, 5179.860
713.562, 5139.561
714.044, 5104.152
714.526, 5085.198
715.008, 5071.843
715.490, 5058.637
715.972, 5045.443
716.454, 5031.756
716.936, 5016.596
717.419, 5002.934
717.901, 4996.902
718.383, 4996.162
718.865, 4984.935
719.347, 4957.932
719.829, 4931.941
720.311, 4925.920
720.793, 4932.497
721.276, 4940.265
721.758, 4947.273
722.240, 4952.675
722.722, 4957.123
723.204, 4959.593
723.686, 4958.061
724.168, 4952.818
724.650, 4942.247
725.132, 4921.549
725.615, 4896.988
726.097, 4894.768
726.579, 4916.160
727.061, 4930.180
727.543, 4915.820
728.025, 4888.848
728.507, 4881.335
728.989, 4890.092
729.471, 4897.727
729.954, 4891.681
730.436, 4882.647
730.918, 4876.195
731.400, 4872.751
731.882, 4875.665
732.364, 4896.255
732.846, 4913.659
733.328, 4919.021
733.810, 4911.743
734.293, 4892.445
734.775, 4856.721
735.257, 4823.461
735.739, 4810.743
736.221, 4814.808
736.703, 4821.954
737.185, 4830.874
737.667, 4841.898
738.149, 4859.568
738.632, 4877.708
739.114, 4887.654
739.596, 4880.179
740.078, 4879.212
740.560, 4900.802
741.042, 4928.427
741.524, 4940.708
742.006, 4929.425
742.489, 4921.799
742.971, 4921.717
743.453, 4925.162
743.935, 4923.776
744.417, 4918.079
744.899, 4916.314
745.381, 4922.869
745.863, 4931.458
746.346, 4935.509
746.828, 4935.336
747.310, 4931.932
747.792, 4911.257
748.274, 4902.034
748.756, 4934.489
749.238, 4994.725
749.720, 5010.310
750.203, 4953.049
750.685, 4895.978
751.167, 4861.078
751.649, 4845.488
752.131, 4828.583
752.613, 4809.971
753.095, 4798.548
753.577, 4801.624
754.059, 4814.393
754.542, 4831.074
755.024, 4850.766
755.506, 4868.792
755.988, 4883.745
756.470, 4894.521
756.952, 4897.340
757.434, 4889.073
757.916, 4891.972
758.398, 4918.749
758.881, 4942.449
759.363, 4944.745
759.845, 4922.625
760.327, 4906.617
760.809, 4897.363
761.291, 4892.408
761.773, 4893.440
762.255, 4896.496
762.737, 4891.045
763.220, 4873.997
763.702, 4859.275
764.184, 4857.923
764.666, 4862.695
765.148, 4866.142
765.630, 4862.647
766.112, 4865.173
766.594, 4876.636
767.076, 4891.978
767.559, 4907.182
768.041, 4923.147
768.523, 4930.928
769.005, 4928.420
769.487, 4919.245
769.969, 4901.784
770.451, 4881.509
770.933, 4874.760
771.416, 4893.559
771.898, 4914.966
772.380, 4925.738
772.862, 4927.851
773.344, 4924.367
773.826, 4907.004
774.308, 4895.962
774.790, 4897.098
775.273, 4904.813
775.755, 4906.773
776.237, 4902.385
776.719, 4896.536
777.201, 4889.686
777.683, 4883.412
778.165, 4879.364
778.647, 4878.083
779.130, 4881.537
779.612, 4901.900
780.094, 4916.947
780.576, 4904.831
781.058, 4874.043
781.540, 4854.796
782.022, 4858.569
782.504, 4869.241
782.986, 4887.274
783.468, 4909.432
783.951, 4915.958
784.433, 4904.688
784.915, 4894.520
785.397, 4896.227
785.879, 4904.708
786.361, 4911.299
786.843, 4915.488
787.325, 4913.896
787.807, 4890.520
788.290, 4872.624
788.772, 4888.053
789.254, 4935.785
789.736, 4956.657
790.218, 4919.957
790.700, 4887.346
791.182, 4885.561
791.664, 4912.609
792.146, 4925.941
792.629, 4924.050
793.111, 4921.641
793.593, 4931.907
794.075, 4947.525
794.557, 4954.022
795.039, 4951.315
795.521, 4947.462
796.003, 4952.139
796.486, 4953.528
796.968, 4939.438
797.450, 4903.898
797.932, 4888.396
798.414, 4905.779
798.896, 4925.823
799.378, 4929.424
799.860, 4916.525
800.343, 4905.813
800.825, 4896.789
801.307, 4896.971
801.789, 4926.434
802.271, 4963.425
802.753, 4971.736
803.235, 4945.275
803.717, 4921.578
804.200, 4923.497
804.682, 4930.953
805.164, 4929.156
805.646, 4915.000
806.128, 4901.098
806.610, 4885.687
807.092, 4874.016
807.574, 4871.194
808.056, 4876.360
808.539, 4883.877
809.021, 4893.667
809.503, 4903.033
809.985, 4910.029
810.467, 4914.977
810.949, 4918.103
811.431, 4918.956
811.913, 4919.889
812.395, 4924.573
812.878, 4927.203
813.360, 4921.988
813.842, 4902.630
814.324, 4897.973
814.806, 4911.410
815.288, 4929.748
815.770, 4941.645
816.252, 4947.293
816.734, 4944.539
817.217, 4931.791
817.699, 4922.019
818.181, 4932.911
818.663, 4947.706
819.145, 4948.098
819.627, 4917.952
820.109, 4905.127
820.591, 4922.006
821.073, 4947.462
821.556, 4965.840
822.038, 4977.863
822.520, 4971.684
823.002, 4943.006
823.484, 4915.411
823.966, 4919.164
824.448, 4940.576
824.930, 4956.379
825.413, 4961.811
825.895, 4962.291
826.377, 4955.387
826.859, 4947.594
827.341, 4945.302
827.823, 4951.091
828.305, 4956.961
828.787, 4963.961
829.269, 4969.244
829.752, 4968.915
830.234, 4963.897
830.716, 4960.158
831.198, 4958.404
831.680, 4958.440
832.162, 4961.393
832.644, 4965.500
833.127, 4968.553
833.609, 4969.669
834.091, 4971.283
834.573, 4976.807
835.055, 4980.906
835.537, 4976.998
836.019, 4960.166
836.501, 4963.394
836.983, 4993.179
837.466, 5021.584
837.948, 5013.192
838.430, 4983.010
838.912, 4963.637
839.394, 4960.772
839.876, 4963.006
840.358, 4966.424
840.840, 4969.833
841.322, 4971.195
841.805, 4966.021
842.287, 4971.751
842.769, 4994.785
843.251, 5018.703
843.733, 5030.878
844.215, 5031.436
844.697, 5017.112
845.179, 4986.117
845.661, 4962.896
846.144, 4979.555
846.626, 5010.641
847.108, 5027.014
847.590, 5022.746
848.072, 5013.606
848.554, 4996.592
849.036, 4982.660
849.518, 4978.818
850.000, 4986.697
850.483, 4995.263
850.965, 5005.200
851.447, 5013.063
851.929, 5018.098
852.411, 5018.421
852.893, 5005.465
853.375, 4978.854
853.857, 4959.605
854.340, 4968.781
854.822, 4983.538
855.304, 4987.639
855.786, 4977.169
856.268, 4970.355
856.750, 4966.586
857.232, 4967.257
857.714, 4973.842
858.196, 4985.775
858.679, 5001.488
859.161, 5020.516
859.643, 5035.012
860.125, 5036.980
860.607, 5032.827
861.089, 5025.196
861.571, 5014.742
862.054, 5011.226
862.536, 5028.870
863.018, 5041.139
863.500, 5035.122
863.982, 5013.200
864.464, 5005.685
864.946, 5013.350
865.428, 5024.032
865.910, 5028.530
866.393, 5032.677
866.875, 5052.080
867.357, 5082.021
867.839, 5097.450
868.321, 5069.552
868.803, 5042.697
869.285, 5040.264
869.767, 5056.522
870.249, 5064.462
870.732, 5060.273
871.214, 5062.158
871.696, 5082.928
872.178, 5109.049
872.660, 5098.047
873.142, 5061.022
873.624, 5040.760
874.106, 5082.169
874.588, 5124.294
875.071, 5125.837
875.553, 5099.593
876.035, 5083.019
876.517, 5080.500
876.999, 5084.723
877.481, 5098.036
877.963, 5113.577
878.445, 5114.629
878.927, 5102.868
879.410, 5090.542
879.892, 5080.093
880.374, 5073.415
880.856, 5074.070
881.338, 5079.291
881.820, 5084.627
882.302, 5089.526
882.784, 5093.667
883.266, 5097.073
883.749, 5099.715
884.231, 5098.804
884.713, 5093.900
885.195, 5105.215
885.677, 5140.697
886.159, 5172.276
886.641, 5159.107
887.123, 5124.163
887.606, 5101.449
888.088, 5102.867
888.570, 5105.754
889.052, 5102.842
889.534, 5099.257
890.016, 5097.840
890.498, 5097.045
890.980, 5109.078
891.463, 5136.833
891.945, 5164.207
892.427, 5174.634
892.909, 5173.785
893.391, 5170.821
893.873, 5166.581
894.355, 5162.582
894.837, 5162.854
895.320, 5160.674
895.802, 5147.325
896.284, 5120.898
896.766, 5118.216
897.248, 5148.648
897.730, 5171.481
898.212, 5149.558
898.694, 5102.424
899.176, 5087.106
899.659, 5100.502
900.141, 5120.580
900.623, 5145.185
901.105, 5163.400
901.587, 5163.155
902.069, 5147.751
902.551, 5146.985
903.033, 5168.806
903.515, 5187.258
903.998, 5194.074
904.480, 5192.071
904.962, 5186.728
905.444, 5178.949
905.926, 5173.272
906.408, 5175.889
906.890, 5176.391
907.372, 5159.562
907.854, 5136.819
908.337, 5133.223
908.819, 5171.097
909.301, 5193.062
909.783, 5188.031
910.265, 5171.334
910.747, 5166.236
911.229, 5171.467
911.711, 5182.366
912.193, 5201.457
912.676, 5212.817
913.158, 5195.802
913.640, 5167.069
914.122, 5144.672
914.604, 5129.792
915.086, 5127.913
915.568, 5145.964
916.050, 5166.978
916.533, 5176.918
917.015, 5176.440
917.497, 5169.964
917.979, 5157.488
918.461, 5150.008
918.943, 5162.688
919.425, 5180.545
919.907, 5188.271
920.390, 5183.723
920.872, 5182.859
921.354, 5189.885
921.836, 5198.016
922.318, 5205.065
922.800, 5210.706
923.282, 5211.463
923.764, 5207.572
924.247, 5207.641
924.729, 5223.849
925.211, 5240.178
925.693, 5233.406
926.175, 5213.135
926.657, 5210.084
927.139, 5267.509
927.621, 5295.590
928.103, 5265.577
928.586, 5207.187
929.068, 5187.905
929.550, 5205.424
930.032, 5219.022
930.514, 5216.132
930.996, 5209.616
931.478, 5215.330
931.960, 5224.922
932.442, 5225.958
932.925, 5202.108
933.407, 5193.667
933.889, 5210.044
934.371, 5234.368
934.853, 5253.029
935.335, 5266.026
935.817, 5267.459
936.299, 5256.688
936.781, 5239.666
937.264, 5209.236
937.746, 5182.735
938.228, 5181.163
938.710, 5208.488
939.192, 5234.096
939.674, 5260.396
940.156, 5273.866
940.638, 5262.038
941.120, 5231.410
941.603, 5227.586
942.085, 5248.999
942.567, 5268.756
943.049, 5274.352
943.531, 5269.032
944.013, 5245.157
944.495, 5212.073
944.977, 5196.953
945.460, 5226.503
945.942, 5245.058
946.424, 5240.210
946.906, 5225.000
947.388, 5225.317
947.870, 5238.787
948.352, 5247.713
948.834, 5247.991
949.317, 5242.572
949.799, 5222.204
950.281, 5203.182
950.763, 5207.257
951.245, 5260.586
951.727, 5285.950
952.209, 5269.884
952.691, 5245.601
953.173, 5241.616
953.656, 5254.200
954.138, 5258.538
954.620, 5254.026
955.102, 5248.733
955.584, 5245.687
956.066, 5246.208
956.548, 5255.067
957.030, 5271.278
957.513, 5274.336
957.995, 5251.973
958.477, 5244.634
958.959, 5273.866
959.441, 5320.232
959.923, 5329.139
960.405, 5308.672
960.887, 5291.541
961.369, 5296.488
961.852, 5301.611
962.334, 5291.256
962.816, 5274.212
963.298, 5264.907
963.780, 5267.276
964.262, 5268.163
964.744, 5266.567
965.226, 5263.586
965.708, 5260.693
966.191, 5257.428
966.673, 5250.591
967.155, 5239.048
967.637, 5234.520
968.119, 5253.296
968.601, 5272.686
969.083, 5273.589
969.565, 5255.455
970.047, 5260.508
970.530, 5293.081
971.012, 5323.993
971.494, 5339.810
971.976, 5341.747
972.458, 5324.098
972.940, 5293.684
973.422, 5271.006
973.904, 5262.728
974.386, 5266.668
974.869, 5292.904
975.351, 5325.086
975.833, 5331.018
976.315, 5308.123
976.797, 5296.440
977.279, 5304.613
977.761, 5318.016
978.244, 5320.398
978.726, 5317.612
979.208, 5317.307
979.690, 5321.354
980.172, 5325.868
980.654, 5328.023
981.136, 5333.315
981.618, 5351.330
982.100, 5379.033
982.583, 5367.852
983.065, 5320.125
983.547, 5281.130
984.029, 5292.325
984.511, 5314.570
984.993, 5312.103
985.475, 5292.544
985.957, 5292.125
986.440, 5327.628
986.922, 5354.965
987.404, 5364.828
987.886, 5364.179
988.368, 5367.472
988.850, 5371.371
989.332, 5361.865
989.814, 5330.210
990.296, 5303.197
990.779, 5304.185
991.261, 5313.417
991.743, 5309.699
992.225, 5284.784
992.707, 5287.806
993.189, 5325.693
993.671, 5362.678
994.153, 5370.293
994.635, 5360.646
995.118, 5353.130
995.600, 5348.915
996.082, 5351.252
996.564, 5366.720
997.046, 5383.214
997.528, 5397.637
998.010, 5409.654
998.492, 5420.585
998.974, 5430.667
999.457, 5424.869
999.939, 5394.212
1000.421, 5362.548
1000.903, 5358.934
1001.385, 5368.902
1001.867, 5372.661
1002.349, 5360.934
1002.831, 5357.327
1003.314, 5366.571
1003.796, 5378.951
1004.278, 5391.277
1004.760, 5401.873
1005.242, 5394.321
1005.724, 5370.707
1006.206, 5352.852
1006.688, 5360.210
1007.170, 5373.080
1007.653, 5381.407
1008.135, 5385.013
1008.617, 5385.211
1009.099, 5379.306
1009.581, 5379.644
1010.063, 5391.041
1010.545, 5404.606
1011.027, 5405.754
1011.510, 5399.305
1011.992, 5395.583
1012.474, 5398.564
1012.956, 5398.387
1013.438, 5384.251
1013.920, 5372.068
1014.402, 5374.463
1014.884, 5391.777
1015.366, 5397.598
1015.849, 5391.634
1016.331, 5385.312
1016.813, 5387.604
1017.295, 5392.150
1017.777, 5390.067
1018.259, 5384.586
1018.741, 5387.013
1019.223, 5406.238
1019.706, 5422.260
1020.188, 5432.229
1020.670, 5437.661
1021.152, 5439.078
1021.634, 5437.880
1022.116, 5439.954
1022.598, 5447.063
1023.080, 5452.809
1023.562, 5449.760
1024.045, 5446.291
1024.527, 5450.173
1025.009, 5461.912
1025.491, 5466.118
1025.973, 5461.333
1026.455, 5458.440
1026.937, 5466.361
1027.419, 5477.572
1027.901, 5482.130
1028.384, 5480.409
1028.866, 5473.246
1029.348, 5449.110
1029.830, 5436.776
1030.312, 5445.795
1030.794, 5462.007
1031.276, 5466.946
1031.758, 5461.887
1032.240, 5456.220
1032.723, 5450.882
1033.205, 5448.625
1033.687, 5453.054
1034.169, 5460.274
1034.651, 5468.323
1035.133, 5476.876
1035.615, 5480.024
1036.097, 5474.051
1036.580, 5475.983
1037.062, 5496.508
1037.544, 5522.858
1038.026, 5529.618
1038.508, 5524.005
1038.990, 5523.155
1039.472, 5542.386
1039.954, 5551.409
1040.437, 5536.867
1040.919, 5516.716
1041.401, 5506.526
1041.883, 5506.306
1042.365, 5507.061
1042.847, 5508.620
1043.329, 5507.684
1043.811, 5492.422
1044.293, 5481.896
1044.776, 5499.669
1045.258, 5539.255
1045.740, 5554.592
1046.222, 5534.606
1046.704, 5518.495
1047.186, 5516.181
1047.668, 5520.772
1048.150, 5525.063
1048.632, 5526.970
1049.115, 5519.771
1049.597, 5496.751
1050.079, 5483.550
1050.561, 5497.494
1051.043, 5516.386
1051.525, 5526.732
1052.007, 5529.325
1052.489, 5543.593
1052.972, 5568.326
1053.454, 5581.364
1053.936, 5555.706
1054.418, 5525.853
1054.900, 5520.924
1055.382, 5531.447
1055.864, 5534.850
1056.346, 5522.969
1056.828, 5524.375
1057.311, 5546.621
1057.793, 5567.535
1058.275, 5556.479
1058.757, 5527.764
1059.239, 5499.504
1059.721, 5473.881
1060.203, 5478.469
1060.685, 5573.885
1061.167, 5644.059
1061.650, 5637.806
1062.132, 5576.440
1062.614, 5526.826
1063.096, 5591.057
1063.578, 5627.653
1064.060, 5638.099
1064.542, 5544.074
1065.024, 5584.952
1065.507, 5571.769
1065.989, 5556.367
1066.471, 5616.231
1066.953, 5537.402
1067.435, 5596.073
1067.917, 5599.856
1068.399, 5628.761
1068.881, 5603.268
1069.364, 5594.579
1069.846, 5640.302
1070.328, 5595.374
1070.810, 5598.916
1071.292, 5596.228
1071.774, 5589.411
1072.256, 5580.011
1072.738, 5567.569
1073.220, 5554.034
1073.703, 5551.609
1074.185, 5562.760
1074.667, 5574.489
1075.149, 5581.189
1075.631, 5583.228
1076.113, 5576.747
1076.595, 5564.138
1077.077, 5572.115
1077.559, 5603.465
1078.042, 5620.450
1078.524, 5601.852
1079.006, 5574.373
1079.488, 5573.456
1079.970, 5583.504
1080.452, 5580.368
1080.934, 5542.862
1081.416, 5523.988
1081.898, 5529.466
1082.381, 5540.646
1082.863, 5536.942
1083.345, 5528.751
1083.827, 5553.408
1084.309, 5603.146
1084.791, 5639.251
1085.273, 5641.417
1085.755, 5627.280
1086.238, 5589.595
1086.720, 5549.292
1087.202, 5543.897
1087.684, 5571.207
1088.166, 5604.316
1088.648, 5641.213
1089.130, 5660.688
1089.612, 5624.907
1090.094, 5581.396
1090.577, 5572.186
1091.059, 5597.187
1091.541, 5608.150
1092.023, 5602.547
1092.505, 5594.711
1092.987, 5585.192
1093.469, 5584.197
1093.951, 5618.527
1094.433, 5666.867
1094.916, 5694.584
1095.398, 5683.772
1095.880, 5672.822
1096.362, 5661.956
1096.844, 5656.369
1097.326, 5664.666
1097.808, 5680.451
1098.290, 5676.965
1098.773, 5658.658
1099.255, 5646.436
1099.737, 5651.524
1100.219, 5663.000
1100.701, 5688.826
1101.183, 5710.968
1101.665, 5696.195
1102.147, 5645.949
1102.630, 5635.212
1103.112, 5672.146
1103.594, 5710.202
1104.076, 5709.944
1104.558, 5698.777
1105.040, 5696.955
1105.522, 5703.303
1106.004, 5701.772
1106.486, 5688.590
1106.969, 5689.832
1107.451, 5717.721
1107.933, 5745.945
1108.415, 5731.481
1108.897, 5700.636
1109.379, 5691.879
1109.861, 5720.043
1110.343, 5732.860
1110.825, 5721.625
1111.308, 5707.848
1111.790, 5702.637
1112.272, 5702.272
1112.754, 5694.973
1113.236, 5684.510
1113.718, 5681.942
1114.200, 5702.901
1114.682, 5714.198
1115.165, 5699.601
1115.647, 5682.110
1116.129, 5683.112
1116.611, 5700.662
1117.093, 5717.737
1117.575, 5733.366
1118.057, 5741.938
1118.539, 5740.903
1119.021, 5730.961
1119.504, 5704.542
1119.986, 5672.268
1120.468, 5654.594
1120.950, 5652.978
1121.432, 5652.111
1121.914, 5649.873
1122.396, 5649.867
1122.878, 5653.678
1123.360, 5662.735
1123.843, 5683.085
1124.325, 5713.775
1124.807, 5728.069
1125.289, 5721.202
1125.771, 5714.691
1126.253, 5715.905
1126.735, 5717.458
1127.217, 5701.831
1127.700, 5681.665
1128.182, 5677.785
1128.664, 5698.631
1129.146, 5721.405
1129.628, 5749.291
1130.110, 5766.110
1130.592, 5759.075
1131.074, 5737.336
1131.557, 5717.516
1132.039, 5704.085
1132.521, 5711.615
1133.003, 5772.728
1133.485, 5813.155
1133.967, 5807.237
1134.449, 5785.849
1134.931, 5770.549
1135.413, 5761.829
1135.896, 5769.036
1136.378, 5789.568
1136.860, 5799.687
1137.342, 5770.945
1137.824, 5744.385
1138.306, 5747.506
1138.788, 5761.480
1139.270, 5752.702
1139.752, 5720.433
1140.235, 5712.622
1140.717, 5735.138
1141.199, 5764.475
1141.681, 5790.660
1142.163, 5807.874
1142.645, 5804.449
1143.127, 5785.805
1143.609, 5785.101
1144.092, 5806.668
1144.574, 5816.333
1145.056, 5803.650
1145.538, 5787.211
1146.020, 5791.664
1146.502, 5802.270
1146.984, 5799.129
1147.466, 5777.084
1147.948, 5771.704
1148.431, 5786.917
1148.913, 5808.356
1149.395, 5835.443
1149.877, 5857.751
1150.359, 5850.875
1150.841, 5829.030
1151.323, 5817.392
1151.805, 5828.478
1152.287, 5833.187
1152.770, 5827.041
1153.252, 5819.126
1153.734, 5813.041
1154.216, 5810.258
1154.698, 5819.156
1155.180, 5835.045
1155.662, 5843.865
1156.144, 5830.396
1156.626, 5823.328
1157.109, 5826.413
1157.591, 5837.263
1158.073, 5863.574
1158.555, 5895.982
1159.037, 5884.185
1159.519, 5834.117
1160.001, 5797.845
1160.483, 5813.379
1160.966, 5833.961
1161.448, 5848.893
1161.930, 5855.433
1162.412, 5845.520
1162.894, 5821.921
1163.376, 5806.095
1163.858, 5800.301
1164.340, 5797.955
1164.823, 5793.314
1165.305, 5792.950
1165.787, 5804.635
1166.269, 5821.983
1166.751, 5826.983
1167.233, 5820.417
1167.715, 5814.588
1168.197, 5811.619
1168.679, 5812.526
1169.161, 5821.000
1169.644, 5831.113
1170.126, 5837.434
1170.608, 5840.548
1171.090, 5846.096
1171.572, 5853.945
1172.054, 5863.250
1172.536, 5876.529
1173.018, 5882.725
1173.501, 5859.819
1173.983, 5831.760
1174.465, 5826.211
1174.947, 5845.699
1175.429, 5867.122
1175.911, 5891.452
1176.393, 5907.320
1176.875, 5900.562
1177.358, 5895.330
1177.840, 5929.131
1178.322, 5977.469
1178.804, 6002.062
1179.286, 5995.853
1179.768, 5973.095
1180.250, 5929.363
1180.732, 5896.315
1181.214, 5905.028
1181.697, 5929.278
1182.179, 5939.602
1182.661, 5939.697
1183.143, 5938.404
1183.625, 5939.555
1184.107, 5930.953
1184.589, 5907.889
1185.071, 5891.666
1185.553, 5910.332
1186.036, 5941.393
1186.518, 5950.218
1187.000, 5941.972
1187.482, 5942.335
1187.964, 5967.484
1188.446, 5975.200
1188.928, 5957.079
1189.410, 5933.198
1189.893, 5924.481
1190.375, 5925.924
1190.857, 5928.846
1191.339, 5933.435
1191.821, 5947.975
1192.303, 5990.689
1192.785, 6007.800
1193.267, 5980.753
1193.750, 5944.278
1194.232, 5952.435
1194.714, 5984.201
1195.196, 6006.273
1195.678, 6014.457
1196.160, 6006.396
1196.642, 5968.453
1197.124, 5938.502
1197.606, 5926.365
1198.089, 5927.215
1198.571, 5934.751
1199.053, 5948.313
1199.535, 5969.530
1200.017, 6000.816
1200.499, 6021.550
1200.981, 6029.038
1201.463, 6022.183
1201.945, 5993.561
1202.428, 5959.329
1202.910, 5958.447
1203.392, 5978.300
1203.874, 5991.274
1204.356, 5988.701
1204.838, 5985.987
1205.320, 5984.690
1205.802, 5986.240
1206.285, 5992.941
1206.767, 6001.537
1207.249, 6001.433
1207.731, 5996.631
1208.213, 5997.088
1208.695, 6008.262
1209.177, 6020.260
1209.659, 6037.274
1210.141, 6044.269
1210.624, 6024.287
1211.106, 5991.020
1211.588, 5982.231
1212.070, 5993.053
1212.552, 6010.058
1213.034, 6037.261
1213.516, 6054.513
1213.998, 6059.300
1214.480, 6055.353
1214.963, 6040.075
1215.445, 6019.602
1215.927, 6014.391
1216.409, 6020.598
1216.891, 6025.325
1217.373, 6016.704
1217.855, 6018.441
1218.337, 6039.595
1218.820, 6059.579
1219.302, 6053.771
1219.784, 6033.905
1220.266, 6029.018
1220.748, 6038.474
1221.230, 6056.752
1221.712, 6101.283
1222.194, 6124.410
1222.677, 6116.231
1223.159, 6093.635
1223.641, 6064.742
1224.123, 6038.533
1224.605, 6040.610
1225.087, 6066.617
1225.569, 6087.271
1226.051, 6094.606
1226.533, 6088.900
1227.016, 6062.196
1227.498, 6039.113
1227.980, 6057.304
1228.462, 6097.155
1228.944, 6122.710
1229.426, 6132.240
1229.908, 6134.896
1230.390, 6128.234
1230.872, 6123.292
1231.355, 6122.069
1231.837, 6122.940
1232.319, 6124.644
1232.801, 6126.582
1233.283, 6125.252
1233.765, 6121.213
1234.247, 6127.698
1234.729, 6155.864
1235.212, 6174.113
1235.694, 6174.957
1236.176, 6166.258
1236.658, 6155.556
1237.140, 6144.070
1237.622, 6130.912
1238.104, 6116.654
1238.586, 6117.274
1239.068, 6142.640
1239.551, 6155.289
1240.033, 6141.929
1240.515, 6124.798
1240.997, 6138.063
1241.479, 6163.316
1241.961, 6174.412
1242.443, 6168.132
1242.925, 6173.371
1243.407, 6196.928
1243.890, 6207.264
1244.372, 6189.865
1244.854, 6172.807
1245.336, 6202.070
1245.818, 6245.137
1246.300, 6263.199
1246.782, 6250.026
1247.264, 6236.692
1247.746, 6221.417
1248.229, 6217.712
1248.711, 6233.987
1249.193, 6251.225
1249.675, 6247.252
1250.157, 6234.864
1250.639, 6227.432
1251.121, 6226.014
1251.603, 6226.099
1252.086, 6228.109
1252.568, 6229.283
1253.050, 6229.957
1253.532, 6226.126
1254.014, 6200.602
1254.496, 6178.967
1254.978, 6193.520
1255.460, 6239.583
1255.943, 6258.609
1256.425, 6250.811
1256.907, 6228.391
1257.389, 6182.959
1257.871, 6158.134
1258.353, 6214.566
1258.835, 6280.238
1259.317, 6294.427
1259.799, 6263.646
1260.281, 6246.692
1260.764, 6241.895
1261.246, 6236.707
1261.728, 6226.147
1262.210, 6216.373
1262.692, 6210.884
1263.174, 6207.696
1263.656, 6205.353
1264.138, 6204.427
1264.621, 6208.358
1265.103, 6216.073
1265.585, 6223.262
1266.067, 6230.278
1266.549, 6231.554
1267.031, 6213.422
1267.513, 6203.522
1267.995, 6220.730
1268.478, 6254.867
1268.960, 6275.056
1269.442, 6284.736
1269.924, 6293.730
1270.406, 6306.000
1270.888, 6314.028
1271.370, 6313.371
1271.852, 6315.240
1272.334, 6329.709
1272.817, 6347.266
1273.299, 6347.630
1273.781, 6335.356
1274.263, 6318.306
1274.745, 6291.701
1275.227, 6281.368
1275.709, 6291.297
1276.191, 6307.646
1276.673, 6328.761
1277.156, 6345.384
1277.638, 6334.482
1278.120, 6313.543
1278.602, 6314.460
1279.084, 6352.657
1279.566, 6362.011
1280.048, 6338.699
1280.530, 6316.179
1281.013, 6311.030
1281.495, 6315.367
1281.977, 6329.470
1282.459, 6343.119
1282.941, 6341.412
1283.423, 6322.927
1283.905, 6304.113
1284.387, 6284.924
1284.870, 6277.414
1285.352, 6295.904
1285.834, 6313.269
1286.316, 6305.725
1286.798, 6293.559
1287.280, 6296.807
1287.762, 6313.994
1288.244, 6322.355
1288.726, 6324.389
1289.208, 6336.564
1289.691, 6378.495
1290.173, 6407.799
1290.655, 6399.275
1291.137, 6380.337
1291.619, 6362.388
1292.101, 6346.796
1292.583, 6347.547
1293.065, 6360.357
1293.548, 6370.392
1294.030, 6368.500
1294.512, 6373.356
1294.994, 6391.843
1295.476, 6406.626
1295.958, 6404.950
1296.440, 6396.137
1296.922, 6411.495
1297.405, 6441.277
1297.887, 6447.624
1298.369, 6429.812
1298.851, 6415.234
1299.333, 6402.504
1299.815, 6399.229
1300.297, 6408.362
1300.779, 6429.908
##END=



