##NAMES=Stibnite
##RRUFFID=R050066
##IDEAL CHEMISTRY=Sb^3+^_2_S^2-^_3_
##LOCALITY=Wuling, Jiangxi Province, China
##OWNER=RRUFF
##SOURCE=Rock Currier
##DESCRIPTION=Lead-gray prismatic crystal
##STATUS=The identification of this mineral has been confirmed by X-ray diffraction and chemical analysis
##URL=rruff.info/R050066
##MEASURED CHEMISTRY=Sb_2.00_S_3.00_
101.273, 30.809
101.755, 38.123
102.237, 53.356
102.719, 66.788
103.201, 70.236
103.683, 56.266
104.165, 53.750
104.648, 70.822
105.130, 104.989
105.612, 125.280
106.094, 122.920
106.576, 114.466
107.058, 113.632
107.540, 121.511
108.022, 135.737
108.505, 157.998
108.987, 190.661
109.469, 220.288
109.951, 244.629
110.433, 266.211
110.915, 288.580
111.397, 313.194
111.879, 337.182
112.362, 359.331
112.844, 375.924
113.326, 397.592
113.808, 427.914
114.290, 464.764
114.772, 502.244
115.254, 537.088
115.736, 573.241
116.218, 613.127
116.701, 660.479
117.183, 708.186
117.665, 754.652
118.147, 799.538
118.629, 842.179
119.111, 879.032
119.593, 914.267
120.075, 951.817
120.558, 996.466
121.040, 1041.889
121.522, 1086.145
122.004, 1129.395
122.486, 1165.165
122.968, 1186.686
123.450, 1197.374
123.932, 1203.964
124.414, 1206.965
124.897, 1208.517
125.379, 1212.975
125.861, 1222.504
126.343, 1228.367
126.825, 1217.101
127.307, 1192.225
127.789, 1168.824
128.271, 1161.618
128.753, 1163.178
129.236, 1154.476
129.718, 1128.311
130.200, 1095.724
130.682, 1077.259
131.164, 1073.087
131.646, 1072.327
132.128, 1064.314
132.610, 1050.532
133.093, 1042.419
133.575, 1044.584
134.057, 1054.355
134.539, 1062.163
135.021, 1068.079
135.503, 1071.641
135.985, 1070.070
136.467, 1062.396
136.949, 1059.492
137.432, 1066.634
137.914, 1083.921
138.396, 1097.474
138.878, 1105.843
139.360, 1112.273
139.842, 1102.514
140.324, 1135.896
140.806, 1158.806
141.288, 1171.807
141.771, 1145.220
142.253, 1169.753
142.735, 1173.798
143.217, 1177.004
143.699, 1208.732
144.181, 1187.901
144.663, 1219.179
145.145, 1225.845
145.628, 1230.849
146.110, 1236.206
146.592, 1241.071
147.074, 1246.038
147.556, 1257.052
148.038, 1281.701
148.520, 1306.771
149.002, 1322.531
149.484, 1314.040
149.967, 1314.279
150.449, 1331.375
150.931, 1367.964
151.413, 1395.928
151.895, 1408.952
152.377, 1416.170
152.859, 1425.932
153.342, 1442.122
153.824, 1457.700
154.306, 1469.591
154.788, 1475.481
155.270, 1487.268
155.752, 1514.588
156.234, 1547.101
156.716, 1570.595
157.198, 1569.991
157.680, 1569.506
158.163, 1580.462
158.645, 1612.069
159.127, 1636.712
159.609, 1640.751
160.091, 1632.370
160.573, 1629.390
161.055, 1638.485
161.538, 1654.106
162.020, 1673.808
162.502, 1701.942
162.984, 1726.517
163.466, 1738.378
163.948, 1741.152
164.430, 1748.388
164.912, 1769.918
165.394, 1796.938
165.876, 1822.297
166.359, 1846.302
166.841, 1865.820
167.323, 1876.271
167.805, 1878.835
168.287, 1882.931
168.769, 1894.131
169.251, 1910.088
169.733, 1928.118
170.216, 1948.870
170.698, 1970.353
171.180, 1991.202
171.662, 2011.532
172.144, 2031.214
172.626, 2050.490
173.108, 2069.333
173.590, 2087.365
174.072, 2101.485
174.555, 2116.215
175.037, 2139.710
175.519, 2173.715
176.001, 2205.087
176.483, 2215.499
176.965, 2212.169
177.447, 2214.396
177.929, 2238.485
178.412, 2272.578
178.894, 2297.055
179.376, 2308.418
179.858, 2315.745
180.340, 2327.970
180.822, 2344.712
181.304, 2364.891
181.786, 2388.194
182.268, 2414.159
182.751, 2442.340
183.233, 2473.729
183.715, 2504.560
184.197, 2530.010
184.679, 2550.133
185.161, 2563.100
185.643, 2559.589
186.125, 2545.983
186.607, 2549.036
187.090, 2580.853
187.572, 2622.814
188.054, 2635.957
188.536, 2619.741
189.018, 2597.109
189.500, 2585.673
189.982, 2584.289
190.464, 2584.792
190.947, 2587.125
191.429, 2589.331
191.911, 2585.475
192.393, 2575.332
192.875, 2561.191
193.357, 2544.897
193.839, 2526.421
194.321, 2505.156
194.803, 2480.487
195.286, 2452.721
195.768, 2419.503
196.250, 2378.120
196.732, 2342.151
197.214, 2331.896
197.696, 2349.624
198.178, 2359.359
198.661, 2345.968
199.143, 2312.727
199.625, 2295.288
200.107, 2298.295
200.589, 2305.580
201.071, 2294.340
201.553, 2261.836
202.035, 2228.598
202.517, 2199.602
202.999, 2174.608
203.482, 2163.204
203.964, 2169.908
204.446, 2182.711
204.928, 2181.512
205.410, 2162.514
205.892, 2144.906
206.374, 2137.823
206.857, 2142.864
207.339, 2143.675
207.821, 2141.060
208.303, 2133.250
208.785, 2113.626
209.267, 2076.030
209.749, 2044.804
210.231, 2033.631
210.713, 2049.067
211.195, 2053.454
211.678, 2044.243
212.160, 2025.617
212.642, 2006.267
213.124, 1985.063
213.606, 1965.791
214.088, 1951.150
214.570, 1943.452
215.052, 1931.608
215.535, 1911.454
216.017, 1888.408
216.499, 1880.462
216.981, 1895.811
217.463, 1909.716
217.945, 1906.681
218.427, 1877.379
218.909, 1858.861
219.391, 1857.066
219.874, 1866.538
220.356, 1867.372
220.838, 1855.887
221.320, 1841.813
221.802, 1830.094
222.284, 1819.204
222.766, 1814.813
223.248, 1819.545
223.731, 1831.326
224.213, 1839.692
224.695, 1842.539
225.177, 1845.294
225.659, 1852.732
226.141, 1870.673
226.623, 1879.314
227.105, 1872.725
227.587, 1854.315
228.070, 1844.583
228.552, 1844.543
229.034, 1851.913
229.516, 1866.770
229.998, 1895.623
230.480, 1917.537
230.962, 1927.777
231.444, 1927.918
231.926, 1931.116
232.409, 1940.447
232.891, 1949.047
233.373, 1950.941
233.855, 1939.790
234.337, 1935.258
234.819, 1944.281
235.301, 1964.930
235.783, 1969.317
236.266, 1956.045
236.748, 1972.460
237.230, 1981.669
237.712, 1984.059
238.194, 1959.206
238.676, 1969.054
239.158, 1957.691
239.640, 1947.251
240.122, 1936.216
240.605, 1927.839
241.087, 1925.629
241.569, 1934.739
242.051, 1939.935
242.533, 1936.963
243.015, 1926.284
243.497, 1921.630
243.980, 1925.991
244.462, 1933.101
244.944, 1937.491
245.426, 1937.099
245.908, 1937.682
246.390, 1939.076
246.872, 1941.321
247.354, 1950.177
247.836, 1970.837
248.318, 1992.013
248.801, 2003.046
249.283, 1998.497
249.765, 1994.670
250.247, 1993.681
250.729, 1995.565
251.211, 2001.309
251.693, 2013.635
252.176, 2026.660
252.658, 2034.347
253.140, 2032.448
253.622, 2034.932
254.104, 2045.915
254.586, 2065.216
255.068, 2079.011
255.550, 2081.609
256.032, 2086.097
256.514, 2106.351
256.997, 2152.277
257.479, 2190.972
257.961, 2215.196
258.443, 2225.513
258.925, 2237.898
259.407, 2251.579
259.889, 2268.175
260.371, 2290.203
260.854, 2320.608
261.336, 2348.436
261.818, 2370.215
262.300, 2386.446
262.782, 2409.099
263.264, 2438.393
263.746, 2472.944
264.228, 2512.137
264.711, 2558.646
265.193, 2601.373
265.675, 2633.698
266.157, 2658.125
266.639, 2709.118
267.121, 2799.407
267.603, 2892.603
268.085, 2953.582
268.567, 2969.196
269.050, 3004.232
269.532, 3079.470
270.014, 3185.814
270.496, 3255.450
270.978, 3274.577
271.460, 3286.813
271.942, 3330.836
272.424, 3412.394
272.906, 3494.429
273.389, 3568.827
273.871, 3639.006
274.353, 3728.971
274.835, 3845.561
275.317, 3962.132
275.799, 4064.254
276.281, 4065.627
276.763, 4077.361
277.246, 4086.581
277.728, 4093.421
278.210, 4090.752
278.692, 4100.361
279.174, 4106.184
279.656, 4108.890
280.138, 4113.382
280.620, 4118.730
281.103, 4126.828
281.585, 4134.250
282.067, 4130.309
282.549, 4114.274
283.031, 4091.215
283.513, 4062.167
283.995, 4027.444
284.477, 3996.774
284.959, 3971.391
285.441, 3951.094
285.924, 3936.100
286.406, 3926.603
286.888, 3920.019
287.370, 3914.541
287.852, 3910.403
288.334, 3909.083
288.816, 3911.315
289.298, 3915.724
289.781, 3917.892
290.263, 3917.984
290.745, 3923.265
291.227, 3938.908
291.709, 3963.850
292.191, 3996.191
292.673, 4039.340
293.155, 4081.885
293.638, 4102.082
294.120, 4102.101
294.602, 4102.406
295.084, 4117.837
295.566, 4143.265
296.048, 4165.069
296.530, 4183.372
297.012, 4194.729
297.494, 4195.839
297.977, 4186.576
298.459, 4165.984
298.941, 4128.896
299.423, 4081.062
299.905, 4031.717
300.387, 3980.586
300.869, 3930.939
301.351, 3890.692
301.833, 3854.898
302.316, 3809.968
302.798, 3742.097
303.280, 3662.997
303.762, 3587.831
304.244, 3517.965
304.726, 3448.640
305.208, 3383.156
305.690, 3315.949
306.173, 3234.784
306.655, 3125.004
307.137, 3003.775
307.619, 2888.564
308.101, 2779.983
308.583, 2677.306
309.065, 2587.239
309.547, 2502.288
310.030, 2413.018
310.512, 2305.858
310.994, 2199.744
311.476, 2113.836
311.958, 2047.124
312.440, 1979.838
312.922, 1893.867
313.404, 1803.405
313.886, 1723.647
314.369, 1664.945
314.851, 1613.442
315.333, 1564.989
315.815, 1519.561
316.297, 1473.747
316.779, 1422.364
317.261, 1372.224
317.743, 1328.165
318.225, 1294.407
318.708, 1264.325
319.190, 1236.918
319.672, 1211.978
320.154, 1187.319
320.636, 1162.995
321.118, 1138.356
321.600, 1112.617
322.082, 1079.936
322.565, 1054.079
323.047, 1044.705
323.529, 1045.107
324.011, 1035.400
324.493, 996.815
324.975, 959.727
325.457, 938.019
325.939, 943.023
326.422, 945.191
326.904, 943.267
327.386, 937.250
327.868, 927.247
328.350, 906.081
328.832, 887.864
329.314, 877.929
329.796, 881.316
330.278, 878.862
330.760, 865.662
331.243, 848.856
331.725, 839.722
332.207, 849.101
332.689, 849.943
333.171, 831.128
333.653, 788.040
334.135, 761.469
334.617, 759.272
335.100, 765.893
335.582, 762.922
336.064, 744.104
336.546, 732.681
337.028, 737.513
337.510, 756.927
337.992, 762.890
338.474, 751.782
338.957, 734.372
339.439, 718.518
339.921, 704.058
340.403, 694.021
340.885, 689.901
341.367, 690.314
341.849, 691.227
342.331, 693.170
342.813, 692.892
343.296, 686.594
343.778, 674.573
344.260, 664.220
344.742, 649.973
345.224, 661.928
345.706, 667.522
346.188, 667.098
346.670, 642.630
347.152, 649.210
347.635, 643.348
348.117, 636.975
348.599, 647.925
349.081, 626.954
349.563, 637.629
350.045, 635.671
350.527, 639.495
351.009, 630.800
351.491, 625.972
351.974, 633.667
352.456, 634.427
352.938, 624.291
353.420, 628.483
353.902, 607.075
354.384, 610.212
354.866, 606.859
355.349, 602.357
355.831, 594.740
356.313, 584.373
356.795, 577.675
357.277, 584.434
357.759, 595.292
358.241, 599.125
358.723, 586.285
359.205, 572.087
359.688, 564.724
360.170, 563.443
360.652, 564.491
361.134, 568.051
361.616, 572.237
362.098, 575.843
362.580, 579.249
363.062, 580.981
363.544, 577.377
364.027, 571.660
364.509, 571.271
364.991, 588.161
365.473, 602.519
365.955, 604.415
366.437, 587.337
366.919, 573.227
367.401, 562.838
367.884, 557.156
368.366, 557.430
368.848, 576.139
369.330, 587.800
369.812, 584.739
370.294, 564.372
370.776, 548.870
371.258, 536.569
371.741, 530.609
372.223, 535.309
372.705, 558.888
373.187, 577.091
373.669, 586.126
374.151, 586.650
374.633, 583.661
375.115, 576.635
375.597, 566.976
376.079, 553.830
376.562, 534.996
377.044, 525.377
377.526, 529.394
378.008, 540.724
378.490, 543.132
378.972, 535.468
379.454, 527.459
379.936, 525.144
380.419, 527.845
380.901, 527.289
381.383, 522.294
381.865, 517.104
382.347, 519.443
382.829, 528.070
383.311, 533.835
383.793, 530.670
384.276, 522.589
384.758, 519.789
385.240, 522.500
385.722, 522.914
386.204, 508.319
386.686, 486.569
387.168, 474.583
387.650, 482.620
388.132, 496.992
388.615, 506.753
389.097, 511.588
389.579, 509.521
390.061, 490.521
390.543, 468.363
391.025, 457.419
391.507, 465.227
391.989, 474.439
392.471, 474.318
392.954, 468.815
393.436, 466.011
393.918, 475.477
394.400, 483.320
394.882, 480.684
395.364, 464.058
395.846, 450.853
396.328, 446.221
396.810, 446.626
397.293, 448.127
397.775, 449.440
398.257, 452.507
398.739, 460.376
399.221, 473.188
399.703, 477.706
400.185, 462.049
400.668, 447.623
401.150, 448.887
401.632, 480.204
402.114, 501.559
402.596, 508.724
403.078, 504.615
403.560, 497.838
404.042, 487.539
404.524, 476.474
405.007, 464.426
405.489, 450.080
405.971, 444.313
406.453, 449.874
406.935, 459.246
407.417, 459.363
407.899, 449.197
408.381, 444.853
408.863, 455.142
409.346, 475.431
409.828, 487.123
410.310, 490.260
410.792, 485.469
411.274, 465.411
411.756, 436.310
412.238, 421.977
412.720, 433.536
413.203, 453.050
413.685, 452.368
414.167, 435.834
414.649, 424.779
415.131, 438.158
415.613, 462.204
416.095, 480.918
416.577, 493.305
417.060, 497.030
417.542, 482.624
418.024, 459.718
418.506, 443.815
418.988, 447.492
419.470, 454.939
419.952, 457.818
420.434, 455.873
420.916, 453.682
421.398, 453.139
421.881, 452.788
422.363, 451.496
422.845, 444.508
423.327, 441.735
423.809, 448.138
424.291, 460.857
424.773, 468.720
425.255, 469.100
425.738, 466.706
426.220, 462.405
426.702, 453.660
427.184, 450.622
427.666, 457.755
428.148, 467.306
428.630, 467.263
429.112, 453.095
429.595, 441.848
430.077, 439.202
430.559, 444.237
431.041, 445.916
431.523, 443.369
432.005, 440.322
432.487, 439.863
432.969, 441.930
433.451, 445.345
433.934, 450.799
434.416, 456.078
434.898, 456.144
435.380, 451.499
435.862, 446.966
436.344, 449.705
436.826, 453.637
437.308, 441.846
437.790, 410.936
438.273, 385.621
438.755, 399.377
439.237, 433.725
439.719, 454.730
440.201, 432.744
440.683, 405.850
441.165, 404.117
441.647, 423.867
442.129, 441.707
442.612, 445.025
443.094, 442.516
443.576, 440.298
444.058, 439.526
444.540, 439.204
445.022, 441.163
445.504, 443.213
445.987, 441.110
446.469, 427.418
446.951, 416.074
447.433, 410.835
447.915, 411.945
448.397, 417.991
448.879, 434.088
449.361, 450.734
449.843, 459.067
450.326, 455.428
450.808, 452.658
451.290, 453.242
451.772, 455.622
452.254, 452.688
452.736, 442.432
453.218, 435.016
453.700, 438.902
454.182, 453.417
454.665, 460.124
455.147, 457.100
455.629, 450.654
456.111, 449.223
456.593, 451.884
457.075, 453.538
457.557, 449.834
458.039, 445.534
458.522, 451.553
459.004, 466.806
459.486, 478.743
459.968, 475.321
460.450, 464.754
460.932, 457.330
461.414, 455.906
461.896, 455.808
462.379, 454.316
462.861, 451.976
463.343, 449.861
463.825, 449.577
464.307, 448.576
464.789, 444.634
465.271, 437.230
465.753, 432.653
466.235, 434.160
466.717, 437.842
467.200, 440.736
467.682, 440.611
468.164, 442.404
468.646, 448.148
469.128, 455.985
469.610, 459.743
470.092, 458.578
470.574, 454.803
471.057, 449.501
471.539, 442.836
472.021, 430.892
472.503, 409.944
472.985, 391.474
473.467, 393.753
473.949, 416.833
474.431, 431.402
474.914, 427.097
475.396, 412.398
475.878, 406.549
476.360, 409.024
476.842, 414.156
477.324, 419.788
477.806, 425.109
478.288, 428.107
478.770, 428.090
479.253, 428.421
479.735, 436.334
480.217, 445.895
480.699, 447.311
481.181, 423.916
481.663, 402.341
482.145, 399.333
482.627, 413.034
483.109, 426.815
483.592, 438.668
484.074, 446.055
484.556, 446.723
485.038, 435.478
485.520, 426.315
486.002, 418.910
486.484, 414.651
486.966, 416.244
487.448, 429.082
487.931, 439.353
488.413, 443.985
488.895, 443.107
489.377, 437.117
489.859, 422.777
490.341, 411.076
490.823, 413.754
491.306, 431.763
491.788, 440.272
492.270, 435.084
492.752, 423.197
493.234, 415.109
493.716, 410.620
494.198, 407.618
494.680, 403.562
495.162, 400.908
495.645, 405.555
496.127, 417.281
496.609, 429.005
497.091, 439.403
497.573, 445.297
498.055, 440.967
498.537, 416.552
499.019, 397.860
499.501, 409.629
499.984, 436.526
500.466, 447.883
500.948, 412.136
501.430, 378.832
501.912, 368.747
502.394, 386.007
502.876, 400.815
503.358, 410.212
503.841, 416.988
504.323, 423.077
504.805, 430.007
505.287, 433.150
505.769, 431.202
506.251, 425.853
506.733, 420.358
507.215, 414.022
507.698, 410.216
508.180, 412.551
508.662, 419.390
509.144, 416.005
509.626, 401.188
510.108, 386.884
510.590, 386.310
511.072, 395.814
511.554, 403.589
512.036, 406.996
512.519, 408.526
513.001, 411.790
513.483, 415.530
513.965, 416.412
514.447, 409.533
514.929, 401.566
515.411, 397.148
515.893, 396.533
516.375, 397.292
516.858, 402.045
517.340, 405.687
517.822, 404.186
518.304, 389.758
518.786, 379.459
519.268, 377.785
519.750, 380.962
520.232, 381.959
520.715, 379.358
521.197, 376.940
521.679, 376.855
522.161, 379.063
522.643, 373.460
523.125, 356.389
523.607, 341.799
524.089, 344.731
524.571, 364.282
525.054, 376.406
525.536, 376.561
526.018, 372.083
526.500, 375.848
526.982, 385.495
527.464, 391.307
527.946, 385.805
528.429, 375.595
528.911, 368.128
529.393, 363.346
529.875, 359.409
530.357, 354.477
530.839, 350.329
531.321, 348.757
531.803, 351.098
532.286, 353.630
532.768, 353.814
533.250, 353.792
533.732, 356.730
534.214, 372.829
534.696, 380.834
535.178, 370.884
535.660, 345.809
536.142, 338.083
536.625, 356.981
537.107, 377.525
537.589, 384.600
538.071, 375.566
538.553, 372.879
539.035, 379.550
539.517, 386.392
539.999, 376.994
540.481, 353.811
540.964, 339.214
541.446, 343.258
541.928, 356.089
542.410, 361.654
542.892, 361.225
543.374, 353.465
543.856, 364.951
544.338, 371.765
544.820, 374.158
545.303, 358.891
545.785, 366.429
546.267, 364.827
546.749, 362.851
547.231, 373.598
547.713, 360.900
548.195, 371.445
548.677, 372.712
549.159, 378.226
549.642, 372.645
550.124, 369.703
550.606, 366.231
551.088, 359.234
551.570, 348.404
552.052, 346.263
552.534, 355.688
553.016, 365.928
553.499, 367.063
553.981, 359.633
554.463, 349.765
554.945, 335.984
555.427, 326.466
555.909, 341.809
556.391, 373.213
556.873, 391.434
557.356, 368.083
557.838, 335.060
558.320, 326.169
558.802, 338.547
559.284, 351.004
559.766, 352.069
560.248, 349.739
560.730, 349.934
561.213, 355.487
561.695, 358.198
562.177, 354.792
562.659, 348.415
563.141, 342.875
563.623, 338.675
564.105, 334.303
564.587, 328.708
565.069, 322.913
565.552, 321.518
566.034, 325.735
566.516, 329.861
566.998, 331.196
567.480, 329.959
567.962, 327.454
568.444, 323.463
568.926, 320.516
569.408, 323.369
569.891, 328.932
570.373, 329.333
570.855, 320.339
571.337, 312.061
571.819, 313.855
572.301, 322.543
572.783, 331.981
573.265, 344.430
573.747, 352.630
574.230, 351.749
574.712, 342.223
575.194, 331.806
575.676, 317.871
576.158, 306.620
576.640, 300.760
577.122, 300.029
577.604, 306.753
578.086, 326.111
578.569, 346.102
579.051, 349.842
579.533, 334.864
580.015, 327.582
580.497, 336.743
580.979, 352.210
581.461, 349.811
581.943, 331.584
582.426, 314.524
582.908, 307.342
583.390, 306.699
583.872, 308.578
584.354, 312.804
584.836, 318.711
585.318, 331.946
585.800, 343.204
586.282, 342.926
586.765, 320.334
587.247, 304.716
587.729, 309.795
588.211, 324.394
588.693, 331.917
589.175, 320.638
589.657, 333.625
590.140, 340.722
590.622, 342.245
591.104, 321.500
591.586, 329.509
592.068, 325.996
592.550, 322.009
593.032, 334.066
593.514, 316.559
593.996, 328.361
594.479, 328.464
594.961, 333.922
595.443, 325.389
595.925, 315.862
596.407, 319.288
596.889, 324.236
597.371, 320.245
597.853, 311.718
598.335, 306.133
598.818, 308.031
599.300, 311.515
599.782, 315.921
600.264, 320.784
600.746, 322.302
601.228, 320.992
601.710, 315.447
602.192, 302.869
602.674, 280.323
603.157, 270.013
603.639, 275.509
604.121, 285.700
604.603, 289.081
605.085, 286.015
605.567, 285.654
606.049, 289.946
606.531, 296.093
607.013, 302.233
607.496, 307.175
607.978, 307.261
608.460, 294.392
608.942, 280.895
609.424, 278.152
609.906, 284.268
610.388, 290.122
610.870, 290.237
611.353, 290.393
611.835, 294.781
612.317, 306.246
612.799, 311.661
613.281, 306.649
613.763, 299.018
614.245, 295.350
614.727, 297.613
615.209, 296.549
615.692, 289.854
616.174, 281.813
616.656, 281.590
617.138, 288.744
617.620, 292.362
618.102, 286.933
618.584, 277.280
619.067, 269.068
619.549, 263.132
620.031, 263.629
620.513, 282.972
620.995, 303.056
621.477, 306.109
621.959, 289.294
622.441, 276.397
622.923, 278.229
623.406, 285.511
623.888, 291.432
624.370, 294.017
624.852, 298.013
625.334, 306.739
625.816, 297.683
626.298, 307.322
626.780, 312.423
627.263, 313.230
627.745, 296.880
628.227, 302.684
628.709, 299.610
629.191, 296.172
629.673, 305.095
630.155, 291.241
630.637, 299.967
631.119, 299.680
631.602, 303.517
632.084, 298.422
632.566, 296.086
633.048, 302.686
633.530, 304.338
634.012, 298.215
634.494, 302.315
634.976, 288.149
635.458, 290.012
635.941, 298.790
636.423, 290.044
636.905, 288.239
637.387, 279.119
637.869, 266.544
638.351, 259.479
638.833, 258.209
639.315, 258.160
639.797, 257.740
640.280, 257.227
640.762, 258.291
641.244, 260.471
641.726, 260.235
642.208, 249.811
642.690, 239.191
643.172, 240.822
643.654, 257.294
644.137, 268.631
644.619, 260.873
645.101, 248.104
645.583, 241.288
646.065, 246.622
646.547, 250.702
647.029, 253.228
647.511, 254.683
647.994, 255.561
648.476, 255.691
648.958, 256.222
649.440, 258.019
649.922, 259.688
650.404, 256.511
650.886, 249.225
651.368, 243.768
651.851, 247.599
652.333, 252.718
652.815, 246.430
653.297, 230.094
653.779, 217.190
654.261, 215.572
654.743, 219.643
655.225, 227.551
655.707, 241.979
656.190, 248.842
656.672, 240.683
657.154, 228.726
657.636, 221.121
658.118, 218.394
658.600, 218.831
659.082, 223.141
659.564, 229.315
660.046, 234.371
660.529, 238.321
661.011, 241.042
661.493, 242.630
661.975, 242.796
662.457, 238.668
662.939, 232.232
663.421, 230.165
663.903, 242.474
664.385, 254.962
664.868, 257.177
665.350, 249.374
665.832, 242.865
666.314, 240.527
666.796, 240.130
667.278, 240.714
667.760, 242.519
668.242, 244.338
668.724, 246.579
669.207, 248.034
669.689, 246.821
670.171, 243.033
670.653, 241.344
671.135, 242.755
671.617, 244.885
672.099, 242.993
672.581, 239.503
673.064, 240.732
673.546, 256.489
674.028, 267.808
674.510, 255.326
674.992, 228.583
675.474, 211.159
675.956, 215.408
676.438, 223.590
676.920, 232.568
677.403, 241.750
677.885, 246.135
678.367, 245.662
678.849, 240.312
679.331, 225.777
679.813, 203.329
680.295, 199.747
680.778, 216.392
681.260, 235.724
681.742, 242.840
682.224, 241.444
682.706, 237.158
683.188, 229.924
683.670, 225.058
684.152, 229.190
684.634, 236.365
685.117, 240.023
685.599, 236.994
686.081, 232.442
686.563, 226.530
687.045, 219.739
687.527, 212.038
688.009, 201.233
688.491, 195.067
688.973, 195.569
689.456, 201.497
689.938, 211.893
690.420, 226.416
690.902, 235.909
691.384, 232.501
691.866, 222.731
692.348, 215.067
692.830, 209.694
693.312, 207.650
693.795, 215.207
694.277, 222.123
694.759, 219.914
695.241, 206.127
695.723, 195.565
696.205, 188.170
696.687, 186.269
697.169, 193.174
697.652, 214.230
698.134, 225.180
698.616, 224.502
699.098, 216.818
699.580, 202.466
700.062, 184.132
700.544, 178.571
701.026, 192.289
701.508, 210.472
701.991, 220.645
702.473, 222.993
702.955, 218.071
703.437, 191.037
703.919, 172.670
704.401, 184.947
704.883, 215.906
705.365, 228.595
705.847, 203.508
706.330, 185.350
706.812, 187.301
707.294, 205.521
707.776, 219.163
708.258, 228.192
708.740, 232.096
709.222, 226.870
709.705, 216.605
710.187, 215.234
710.669, 222.099
711.151, 226.441
711.633, 213.460
712.115, 198.803
712.597, 200.560
713.079, 225.474
713.561, 239.483
714.044, 217.108
714.526, 190.778
715.008, 185.885
715.490, 217.221
715.972, 235.646
716.454, 238.187
716.936, 232.378
717.418, 226.139
717.901, 219.515
718.383, 214.727
718.865, 212.412
719.347, 211.248
719.829, 207.806
720.311, 204.359
720.793, 205.671
721.275, 225.179
721.757, 237.908
722.240, 225.127
722.722, 196.717
723.204, 179.212
723.686, 183.971
724.168, 190.623
724.650, 195.148
725.132, 198.188
725.614, 203.882
726.096, 212.917
726.579, 220.407
727.061, 223.725
727.543, 223.681
728.025, 221.890
728.507, 218.482
728.989, 214.894
729.471, 213.018
729.953, 210.827
730.435, 205.851
730.918, 197.545
731.400, 191.011
731.882, 186.579
732.364, 185.382
732.846, 188.917
733.328, 200.571
733.810, 205.401
734.292, 201.872
734.775, 194.927
735.257, 188.038
735.739, 181.604
736.221, 179.169
736.703, 181.665
737.185, 186.123
737.667, 191.452
738.149, 196.115
738.631, 197.470
739.114, 192.555
739.596, 187.858
740.078, 185.355
740.560, 184.795
741.042, 186.002
741.524, 191.221
742.006, 194.117
742.489, 193.494
742.971, 190.379
743.453, 185.980
743.935, 180.196
744.417, 177.777
744.899, 181.152
745.381, 188.119
745.863, 195.563
746.345, 203.665
746.828, 212.889
747.310, 228.454
747.792, 240.805
748.274, 244.589
748.756, 239.909
749.238, 229.989
749.720, 204.734
750.202, 187.468
750.684, 189.563
751.167, 209.660
751.649, 217.204
752.131, 210.643
752.613, 201.084
753.095, 195.869
753.577, 193.259
754.059, 187.915
754.541, 179.833
755.023, 174.405
755.506, 176.253
755.988, 181.930
756.470, 190.067
756.952, 202.566
757.434, 208.167
757.916, 198.981
758.398, 187.473
758.880, 181.030
759.362, 179.966
759.845, 183.924
760.327, 194.470
760.809, 205.417
761.291, 210.250
761.773, 210.023
762.255, 207.559
762.737, 202.974
763.219, 198.009
763.702, 190.989
764.184, 185.767
764.666, 187.477
765.148, 209.050
765.630, 220.794
766.112, 210.210
766.594, 191.008
767.076, 180.873
767.558, 182.525
768.041, 183.376
768.523, 181.325
769.005, 177.720
769.487, 173.208
769.969, 168.794
770.451, 169.549
770.933, 182.506
771.416, 194.006
771.898, 186.462
772.380, 168.770
772.862, 160.049
773.344, 175.232
773.826, 190.281
774.308, 200.617
774.790, 206.083
775.272, 204.111
775.755, 191.271
776.237, 184.223
776.719, 191.384
777.201, 205.954
777.683, 209.379
778.165, 202.972
778.647, 194.728
779.129, 187.080
779.612, 181.062
780.094, 178.280
780.576, 178.182
781.058, 177.935
781.540, 174.612
782.022, 173.162
782.504, 175.450
782.986, 181.329
783.468, 188.836
783.951, 199.093
784.433, 206.536
784.915, 205.233
785.397, 198.763
785.879, 202.577
786.361, 215.662
786.843, 224.598
787.325, 213.532
787.807, 199.063
788.290, 196.351
788.772, 206.865
789.254, 198.725
789.736, 209.639
790.218, 215.928
790.700, 217.840
791.182, 202.268
791.664, 209.274
792.146, 207.231
792.629, 204.817
793.111, 215.001
793.593, 201.971
794.075, 211.955
794.557, 212.752
795.039, 217.754
795.521, 213.651
796.003, 212.361
796.485, 220.177
796.968, 212.822
797.450, 223.037
797.932, 218.161
798.414, 210.324
798.896, 207.969
799.378, 211.838
799.860, 216.210
800.343, 221.867
800.825, 223.447
801.307, 211.863
801.789, 193.007
802.271, 178.403
802.753, 169.695
803.235, 165.947
803.717, 169.466
804.199, 175.969
804.682, 181.741
805.164, 185.548
805.646, 190.296
806.128, 198.711
806.610, 204.701
807.092, 199.034
807.574, 181.747
808.056, 176.835
808.539, 188.652
809.021, 202.665
809.503, 201.544
809.985, 192.469
810.467, 187.230
810.949, 190.205
811.431, 192.040
811.913, 187.895
812.395, 181.171
812.878, 175.287
813.360, 169.581
813.842, 166.901
814.324, 168.855
814.806, 171.222
815.288, 166.290
815.770, 156.041
816.252, 153.804
816.734, 163.549
817.217, 175.284
817.699, 180.778
818.181, 181.820
818.663, 180.506
819.145, 176.060
819.627, 171.549
820.109, 164.299
820.591, 159.231
821.073, 163.520
821.556, 180.867
822.038, 190.102
822.520, 187.833
823.002, 179.965
823.484, 170.503
823.966, 161.958
824.448, 162.433
824.930, 177.650
825.413, 191.859
825.895, 192.484
826.377, 186.941
826.859, 184.013
827.341, 188.841
827.823, 191.708
828.305, 193.128
828.787, 191.697
829.269, 182.450
829.752, 165.556
830.234, 158.814
830.716, 166.226
831.198, 180.817
831.680, 173.281
832.162, 183.653
832.644, 189.679
833.127, 191.591
833.609, 177.068
834.091, 183.767
834.573, 181.961
835.055, 179.806
835.537, 189.492
836.019, 177.360
836.501, 186.858
836.983, 187.721
837.466, 192.537
837.948, 188.795
838.430, 187.696
838.912, 187.914
839.394, 191.242
839.876, 196.391
840.358, 200.534
840.840, 199.985
841.322, 188.551
841.805, 181.389
842.287, 180.641
842.769, 183.171
843.251, 186.791
843.733, 191.796
844.215, 191.817
844.697, 185.430
845.179, 177.182
845.661, 169.074
846.144, 163.610
846.626, 166.658
847.108, 183.714
847.590, 196.159
848.072, 191.925
848.554, 182.005
849.036, 177.242
849.518, 180.944
850.000, 181.576
850.483, 178.540
850.965, 173.456
851.447, 166.202
851.929, 158.218
852.411, 156.843
852.893, 164.106
853.375, 169.191
853.857, 156.474
854.340, 141.468
854.822, 141.439
855.304, 170.630
855.786, 183.190
856.268, 165.598
856.750, 144.745
857.232, 144.490
857.714, 165.269
858.196, 176.686
858.679, 176.983
859.161, 172.885
859.643, 167.869
860.125, 163.559
860.607, 162.821
861.089, 166.475
861.571, 169.394
862.054, 164.469
862.536, 162.799
863.018, 173.846
863.500, 201.571
863.982, 211.572
864.464, 201.088
864.946, 184.519
865.428, 169.635
865.910, 157.583
866.393, 151.161
866.875, 150.457
867.357, 153.234
867.839, 162.999
868.321, 171.839
868.803, 173.265
869.285, 165.857
869.767, 162.580
870.250, 164.876
870.732, 168.603
871.214, 172.059
871.696, 175.176
872.178, 178.040
872.660, 180.523
873.142, 181.086
873.624, 175.834
874.106, 170.473
874.589, 169.655
875.071, 173.351
875.553, 179.454
876.035, 193.135
876.517, 202.188
876.999, 200.474
877.481, 191.477
877.963, 197.038
878.445, 217.958
878.928, 226.441
879.410, 198.792
879.892, 160.917
880.374, 147.995
880.856, 154.251
881.338, 162.765
881.820, 168.784
882.302, 173.861
882.784, 179.168
883.267, 183.820
883.749, 184.839
884.231, 181.169
884.713, 179.854
885.195, 184.249
885.677, 189.202
886.159, 181.686
886.641, 167.813
887.123, 163.381
887.606, 187.495
888.088, 203.703
888.570, 186.996
889.052, 155.362
889.534, 138.082
890.016, 140.965
890.498, 145.629
890.981, 151.460
891.463, 156.077
891.945, 153.220
892.427, 146.029
892.909, 146.605
893.391, 160.119
893.873, 171.401
894.355, 167.710
894.837, 157.562
895.320, 149.510
895.802, 145.056
896.284, 142.261
896.766, 140.714
897.248, 141.532
897.730, 148.769
898.212, 160.350
898.694, 159.449
899.177, 144.438
899.659, 133.021
900.141, 146.391
900.623, 165.594
901.105, 172.322
901.587, 162.730
902.069, 155.043
902.551, 151.631
903.033, 149.804
903.516, 147.658
903.998, 145.601
904.480, 149.859
904.962, 160.347
905.444, 169.314
905.926, 171.210
906.408, 169.660
906.890, 166.854
907.372, 163.490
907.855, 162.794
908.337, 168.722
908.819, 173.973
909.301, 176.649
909.783, 177.222
910.265, 177.743
910.747, 178.236
911.229, 176.084
911.711, 168.576
912.194, 160.188
912.676, 155.430
913.158, 154.235
913.640, 156.459
914.122, 166.231
914.604, 174.214
915.086, 178.698
915.568, 180.357
916.050, 183.220
916.533, 177.518
917.015, 184.904
917.497, 189.113
917.979, 190.315
918.461, 179.508
918.943, 184.209
919.425, 184.128
919.907, 161.106
920.390, 138.548
920.872, 132.585
921.354, 134.566
921.836, 138.811
922.318, 145.469
922.800, 155.198
923.282, 169.199
923.765, 178.931
924.247, 172.590
924.729, 159.173
925.211, 152.561
925.693, 153.757
926.175, 155.646
926.657, 153.036
927.139, 152.853
927.621, 160.725
928.104, 175.309
928.586, 178.432
929.068, 168.349
929.550, 160.519
930.032, 166.474
930.514, 176.885
930.996, 173.309
931.478, 160.406
931.960, 152.779
932.443, 163.787
932.925, 173.026
933.407, 172.933
933.889, 166.849
934.371, 160.061
934.853, 151.770
935.335, 148.612
935.817, 153.798
936.299, 159.621
936.782, 153.870
937.264, 141.510
937.746, 131.432
938.228, 126.683
938.710, 123.324
939.192, 118.813
939.674, 116.137
940.156, 117.762
940.638, 123.931
941.121, 134.745
941.603, 151.255
942.085, 165.543
942.567, 167.152
943.049, 162.946
943.531, 164.330
944.013, 172.154
944.495, 175.947
944.978, 166.541
945.460, 157.167
945.942, 153.388
946.424, 154.966
946.906, 161.613
947.388, 174.200
947.870, 179.963
948.352, 167.263
948.834, 148.514
949.317, 139.294
949.799, 138.447
950.281, 142.832
950.763, 156.943
951.245, 169.273
951.727, 178.278
952.209, 183.521
952.692, 183.235
953.174, 177.210
953.656, 170.926
954.138, 164.918
954.620, 160.749
955.102, 162.499
955.584, 166.139
956.066, 165.614
956.548, 157.178
957.031, 151.564
957.513, 151.283
957.995, 153.423
958.477, 157.783
958.959, 164.454
959.441, 161.449
959.923, 148.572
960.405, 137.877
960.888, 140.426
961.370, 148.133
961.852, 155.416
962.334, 161.374
962.816, 160.947
963.298, 145.101
963.780, 133.094
964.262, 114.384
964.744, 140.969
965.227, 156.560
965.709, 161.746
966.191, 125.365
966.673, 142.660
967.155, 138.443
967.637, 133.345
968.119, 158.193
968.601, 127.859
969.083, 149.295
969.566, 159.294
970.048, 161.272
970.530, 159.923
971.012, 161.058
971.494, 163.431
971.976, 161.968
972.458, 156.031
972.940, 147.985
973.422, 134.860
973.905, 123.737
974.387, 121.245
974.869, 115.945
975.351, 127.194
975.833, 134.426
976.315, 137.856
976.797, 126.100
977.279, 133.954
977.761, 133.950
978.244, 133.623
978.726, 144.237
979.208, 134.690
979.690, 145.131
980.172, 147.593
980.654, 153.706
981.136, 150.279
981.619, 156.389
982.101, 159.958
982.583, 159.381
983.065, 157.199
983.547, 156.971
984.029, 156.997
984.511, 153.660
984.993, 144.869
985.475, 139.870
985.958, 143.339
986.440, 149.913
986.922, 158.659
987.404, 169.400
987.886, 169.215
988.368, 158.122
988.850, 150.043
989.332, 160.119
989.815, 172.285
990.297, 166.818
990.779, 149.346
991.261, 140.946
991.743, 156.626
992.225, 165.122
992.707, 158.593
993.189, 145.863
993.671, 142.480
994.154, 147.111
994.636, 155.116
995.118, 167.985
995.600, 173.615
996.082, 153.327
996.564, 127.729
997.046, 118.363
997.528, 130.056
998.010, 143.195
998.493, 159.891
998.975, 170.930
999.457, 163.897
999.939, 148.142
1000.421, 148.121
1000.903, 160.927
1001.385, 168.799
1001.867, 153.834
1002.349, 142.564
1002.832, 150.199
1003.314, 167.598
1003.796, 172.788
1004.278, 164.457
1004.760, 159.858
1005.242, 164.183
1005.724, 169.795
1006.206, 168.652
1006.689, 162.381
1007.171, 151.743
1007.653, 131.710
1008.135, 122.954
1008.617, 132.325
1009.099, 146.300
1009.581, 157.247
1010.063, 165.107
1010.545, 169.322
1011.028, 169.869
1011.510, 166.468
1011.992, 152.861
1012.474, 140.775
1012.956, 141.978
1013.438, 152.214
1013.920, 152.527
1014.402, 137.146
1014.885, 127.513
1015.367, 129.833
1015.849, 135.532
1016.331, 129.111
1016.813, 116.003
1017.295, 108.117
1017.777, 108.413
1018.259, 113.785
1018.741, 129.682
1019.224, 144.464
1019.706, 149.241
1020.188, 143.393
1020.670, 143.563
1021.152, 150.021
1021.634, 156.314
1022.116, 159.368
1022.598, 159.323
1023.081, 154.018
1023.563, 145.469
1024.045, 140.429
1024.527, 140.123
1025.009, 144.801
1025.491, 157.990
1025.973, 171.222
1026.455, 166.985
1026.938, 150.131
1027.420, 138.781
1027.902, 136.683
1028.384, 138.907
1028.866, 145.721
1029.348, 152.971
1029.830, 156.817
1030.312, 156.883
1030.794, 161.344
1031.276, 171.490
1031.759, 177.462
1032.241, 169.684
1032.723, 157.216
1033.205, 154.284
1033.687, 158.131
1034.169, 161.592
1034.651, 162.548
1035.133, 162.373
1035.616, 161.401
1036.098, 159.392
1036.580, 155.842
1037.062, 150.895
1037.544, 144.213
1038.026, 135.374
1038.508, 130.645
1038.990, 141.191
1039.473, 153.020
1039.955, 153.225
1040.437, 140.916
1040.919, 134.058
1041.401, 133.552
1041.883, 134.979
1042.365, 137.105
1042.847, 139.349
1043.329, 140.284
1043.812, 140.506
1044.294, 141.375
1044.776, 143.191
1045.258, 146.191
1045.740, 153.745
1046.222, 159.198
1046.704, 153.670
1047.186, 137.827
1047.668, 129.184
1048.151, 128.567
1048.633, 130.875
1049.115, 135.482
1049.597, 138.873
1050.079, 138.470
1050.561, 134.095
1051.043, 126.578
1051.525, 113.917
1052.008, 104.715
1052.490, 100.522
1052.972, 102.701
1053.454, 120.988
1053.936, 145.661
1054.418, 156.275
1054.900, 141.213
1055.382, 128.519
1055.865, 125.627
1056.347, 127.500
1056.829, 133.223
1057.311, 142.261
1057.793, 141.811
1058.275, 132.586
1058.757, 126.591
1059.239, 135.063
1059.721, 145.716
1060.203, 152.912
1060.686, 155.118
1061.168, 147.775
1061.650, 123.737
1062.132, 115.527
1062.614, 131.352
1063.096, 151.950
1063.578, 150.039
1064.060, 137.988
1064.543, 137.546
1065.025, 153.184
1065.507, 163.044
1065.989, 154.915
1066.471, 146.578
1066.953, 144.390
1067.435, 147.254
1067.917, 153.104
1068.400, 160.773
1068.882, 162.147
1069.364, 146.844
1069.846, 135.439
1070.328, 145.968
1070.810, 164.833
1071.292, 174.354
1071.774, 172.742
1072.256, 166.456
1072.739, 154.670
1073.221, 143.847
1073.703, 140.499
1074.185, 140.521
1074.667, 137.895
1075.149, 133.314
1075.631, 132.507
1076.113, 141.477
1076.596, 147.194
1077.078, 146.623
1077.560, 142.495
1078.042, 137.837
1078.524, 133.729
1079.006, 134.346
1079.488, 141.409
1079.970, 148.423
1080.453, 155.025
1080.935, 157.302
1081.417, 151.910
1081.899, 139.351
1082.381, 129.072
1082.863, 120.978
1083.345, 117.445
1083.827, 122.207
1084.309, 129.055
1084.792, 131.942
1085.274, 132.749
1085.756, 134.902
1086.238, 141.342
1086.720, 142.942
1087.202, 137.978
1087.684, 132.459
1088.166, 133.356
1088.648, 137.335
1089.131, 138.712
1089.613, 137.137
1090.095, 132.971
1090.577, 121.358
1091.059, 113.659
1091.541, 114.259
1092.023, 119.282
1092.505, 119.151
1092.988, 115.327
1093.470, 116.497
1093.952, 125.753
1094.434, 134.443
1094.916, 135.895
1095.398, 135.053
1095.880, 136.189
1096.362, 139.404
1096.844, 139.615
1097.327, 136.552
1097.809, 133.932
1098.291, 132.660
1098.773, 133.886
1099.255, 143.805
1099.737, 155.850
1100.219, 157.710
1100.701, 134.806
1101.183, 125.311
1101.666, 133.364
1102.148, 146.180
1102.630, 154.681
1103.112, 158.382
1103.594, 154.050
1104.076, 142.870
1104.558, 133.817
1105.040, 131.101
1105.523, 130.444
1106.005, 131.331
1106.487, 132.841
1106.969, 132.020
1107.451, 129.808
1107.933, 132.336
1108.415, 141.442
1108.897, 150.197
1109.380, 153.613
1109.862, 155.402
1110.344, 159.293
1110.826, 164.765
1111.308, 163.007
1111.790, 153.592
1112.272, 146.523
1112.754, 147.125
1113.236, 149.781
1113.719, 147.828
1114.201, 144.491
1114.683, 144.989
1115.165, 154.563
1115.647, 155.398
1116.129, 145.419
1116.611, 133.709
1117.093, 123.047
1117.575, 117.416
1118.058, 130.662
1118.540, 156.549
1119.022, 171.279
1119.504, 158.972
1119.986, 143.949
1120.468, 125.428
1120.950, 112.267
1121.432, 123.885
1121.915, 150.971
1122.397, 159.810
1122.879, 146.783
1123.361, 132.092
1123.843, 123.112
1124.325, 118.856
1124.807, 118.652
1125.289, 122.334
1125.771, 134.008
1126.254, 152.031
1126.736, 153.480
1127.218, 126.355
1127.700, 100.567
1128.182, 102.557
1128.664, 115.300
1129.146, 123.271
1129.628, 125.645
1130.110, 128.527
1130.593, 132.167
1131.075, 133.424
1131.557, 128.040
1132.039, 122.367
1132.521, 126.170
1133.003, 134.118
1133.485, 136.327
1133.967, 125.662
1134.450, 122.171
1134.932, 128.450
1135.414, 134.501
1135.896, 129.148
1136.378, 119.193
1136.860, 115.905
1137.342, 118.835
1137.824, 124.104
1138.307, 135.904
1138.789, 141.626
1139.271, 137.078
1139.753, 129.480
1140.235, 130.637
1140.717, 137.116
1141.199, 137.913
1141.681, 131.512
1142.163, 129.455
1142.646, 144.790
1143.128, 156.704
1143.610, 155.651
1144.092, 145.957
1144.574, 138.123
1145.056, 132.776
1145.538, 134.533
1146.020, 147.547
1146.502, 157.770
1146.985, 152.442
1147.467, 144.502
1147.949, 144.459
1148.431, 151.941
1148.913, 155.171
1149.395, 154.279
1149.877, 153.606
1150.359, 156.347
1150.842, 158.595
1151.324, 155.570
1151.806, 150.970
1152.288, 150.923
1152.770, 158.865
1153.252, 157.067
1153.734, 144.266
1154.216, 132.072
1154.698, 129.842
1155.181, 132.067
1155.663, 134.738
1156.145, 137.009
1156.627, 135.882
1157.109, 126.812
1157.591, 128.352
1158.073, 145.893
1158.555, 161.559
1159.037, 149.800
1159.520, 128.036
1160.002, 122.312
1160.484, 133.174
1160.966, 141.883
1161.448, 146.778
1161.930, 145.363
1162.412, 134.811
1162.894, 122.052
1163.377, 118.507
1163.859, 121.228
1164.341, 125.465
1164.823, 130.833
1165.305, 133.566
1165.787, 128.320
1166.269, 127.249
1166.751, 138.432
1167.234, 153.926
1167.716, 148.875
1168.198, 129.854
1168.680, 115.849
1169.162, 112.658
1169.644, 115.204
1170.126, 131.011
1170.608, 141.849
1171.090, 133.774
1171.573, 111.006
1172.055, 97.733
1172.537, 93.361
1173.019, 94.325
1173.501, 102.036
1173.983, 110.705
1174.465, 121.071
1174.947, 128.961
1175.430, 128.583
1175.912, 120.335
1176.394, 118.702
1176.876, 123.691
1177.358, 130.607
1177.840, 141.804
1178.322, 148.359
1178.804, 139.329
1179.286, 125.453
1179.769, 126.050
1180.251, 141.793
1180.733, 145.542
1181.215, 134.426
1181.697, 126.865
1182.179, 117.212
1182.661, 129.612
1183.143, 136.659
1183.625, 138.640
1184.108, 120.386
1184.590, 128.262
1185.072, 125.666
1185.554, 122.641
1186.036, 134.195
1186.518, 118.883
1187.000, 130.206
1187.482, 130.897
1187.965, 136.454
1188.447, 131.474
1188.929, 129.749
1189.411, 138.563
1189.893, 141.542
1190.375, 135.349
1190.857, 141.215
1191.339, 125.536
1191.822, 128.763
1192.304, 140.147
1192.786, 134.484
1193.268, 140.543
1193.750, 142.138
1194.232, 123.444
1194.714, 140.033
1195.196, 141.364
1195.678, 127.027
1196.161, 142.408
1196.643, 130.231
1197.125, 127.890
1197.607, 132.952
1198.089, 130.297
1198.571, 139.809
1199.053, 137.599
1199.535, 134.343
1200.017, 135.656
1200.500, 124.020
1200.982, 136.408
1201.464, 132.386
1201.946, 134.163
1202.428, 142.760
1202.910, 120.871
1203.392, 92.741
1203.874, 93.164
1204.357, 114.599
1204.839, 130.809
1205.321, 138.963
1205.803, 138.509
1206.285, 127.358
1206.767, 115.599
1207.249, 112.347
1207.731, 115.587
1208.214, 127.169
1208.696, 144.437
1209.178, 149.983
1209.660, 136.975
1210.142, 125.594
1210.624, 118.619
1211.106, 115.059
1211.588, 113.314
1212.070, 114.344
1212.552, 121.491
1213.035, 134.559
1213.517, 141.964
1213.999, 141.156
1214.481, 139.904
1214.963, 140.683
1215.445, 140.172
1215.927, 130.316
1216.409, 117.849
1216.892, 114.186
1217.374, 121.790
1217.856, 121.631
1218.338, 107.828
1218.820, 100.507
1219.302, 108.745
1219.784, 122.314
1220.266, 124.977
1220.749, 122.526
1221.231, 124.205
1221.713, 133.101
1222.195, 138.503
1222.677, 139.661
1223.159, 138.124
1223.641, 133.248
1224.123, 128.023
1224.605, 127.425
1225.088, 129.551
1225.570, 131.820
1226.052, 134.992
1226.534, 132.943
1227.016, 123.678
1227.498, 116.076
1227.980, 114.984
1228.462, 118.524
1228.944, 126.842
1229.427, 136.920
1229.909, 143.069
1230.391, 141.740
1230.873, 142.850
1231.355, 147.597
1231.837, 149.765
1232.319, 142.117
1232.801, 131.919
1233.284, 129.564
1233.766, 132.006
1234.248, 132.780
1234.730, 131.041
1235.212, 126.408
1235.694, 117.847
1236.176, 112.099
1236.658, 118.368
1237.141, 127.224
1237.623, 127.716
1238.105, 121.836
1238.587, 114.439
1239.069, 103.858
1239.551, 100.851
1240.033, 107.112
1240.515, 113.611
1240.997, 108.777
1241.479, 103.611
1241.962, 112.235
1242.444, 129.743
1242.926, 138.843
1243.408, 136.244
1243.890, 139.956
1244.372, 152.755
1244.854, 162.570
1245.336, 157.433
1245.819, 145.321
1246.301, 128.267
1246.783, 110.539
1247.265, 105.727
1247.747, 115.967
1248.229, 121.655
1248.711, 119.900
1249.193, 116.503
1249.676, 112.182
1250.158, 112.187
1250.640, 127.570
1251.122, 150.095
1251.604, 150.906
1252.086, 129.302
1252.568, 116.312
1253.050, 117.761
1253.532, 122.929
1254.015, 124.225
1254.497, 125.594
1254.979, 129.091
1255.461, 134.911
1255.943, 126.198
1256.425, 139.090
1256.907, 146.737
1257.389, 149.423
1257.871, 132.282
1258.354, 140.744
1258.836, 138.945
1259.318, 136.725
1259.800, 148.789
1260.282, 134.532
1260.764, 146.369
1261.246, 147.789
1261.728, 153.978
1262.211, 147.712
1262.693, 144.505
1263.175, 137.021
1263.657, 130.625
1264.139, 126.396
1264.621, 131.170
1265.103, 140.822
1265.585, 140.468
1266.068, 123.346
1266.550, 112.623
1267.032, 122.791
1267.514, 132.017
1267.996, 130.066
1268.478, 123.126
1268.960, 128.709
1269.442, 140.714
1269.924, 144.419
1270.407, 133.494
1270.889, 125.594
1271.371, 124.743
1271.853, 123.695
1272.335, 118.430
1272.817, 112.106
1273.299, 110.616
1273.781, 112.474
1274.264, 115.765
1274.746, 121.759
1275.228, 121.207
1275.710, 111.416
1276.192, 104.239
1276.674, 105.763
1277.156, 112.297
1277.638, 123.321
1278.120, 133.814
1278.603, 134.793
1279.085, 122.571
1279.567, 116.179
1280.049, 116.157
1280.531, 117.395
1281.013, 118.616
1281.495, 118.045
1281.977, 109.057
1282.459, 100.235
1282.942, 104.254
1283.424, 122.780
1283.906, 129.010
1284.388, 123.199
1284.870, 116.225
1285.352, 112.379
1285.834, 110.691
1286.316, 109.877
1286.799, 111.644
1287.281, 119.142
1287.763, 131.690
1288.245, 133.058
1288.727, 124.989
1289.209, 118.966
1289.691, 121.044
1290.173, 124.792
1290.656, 126.977
1291.138, 130.982
1291.620, 143.756
1292.102, 160.097
1292.584, 146.603
1293.066, 113.445
1293.548, 95.983
1294.030, 121.923
1294.512, 139.379
1294.995, 138.363
1295.477, 133.664
1295.959, 135.611
1296.441, 141.136
1296.923, 143.782
1297.405, 144.167
1297.887, 143.708
1298.369, 143.574
1298.851, 141.747
1299.334, 138.258
1299.816, 131.826
1300.298, 116.406
1300.780, 101.933
##END=



