##NAMES=Stibnite
##RRUFFID=R050066
##IDEAL CHEMISTRY=Sb^3+^_2_S^2-^_3_
##LOCALITY=Wuling, Jiangxi Province, China
##OWNER=RRUFF
##SOURCE=Rock Currier
##DESCRIPTION=Lead-gray prismatic crystal
##STATUS=The identification of this mineral has been confirmed by X-ray diffraction and chemical analysis
##URL=rruff.info/R050066
##MEASURED CHEMISTRY=Sb_2.00_S_3.00_
103.683, 1464.063
104.165, 1583.818
104.648, 1740.710
105.130, 1933.815
105.612, 2132.046
106.094, 2318.254
106.576, 2527.113
107.058, 2787.001
107.540, 3109.789
108.022, 3472.125
108.505, 3880.775
108.987, 4338.532
109.469, 4814.493
109.951, 5311.113
110.433, 5819.427
110.915, 6334.922
111.397, 6862.957
111.879, 7385.944
112.362, 7904.350
112.844, 8401.429
113.326, 8919.721
113.808, 9461.040
114.290, 10030.450
114.772, 10626.670
115.254, 11245.340
115.736, 11894.540
116.218, 12582.640
116.701, 13389.390
117.183, 14150.810
117.665, 14802.700
118.147, 15351.580
118.629, 15856.560
119.111, 16342.540
119.593, 16796.010
120.075, 17196.631
120.558, 17513.461
121.040, 17795.471
121.522, 18074.279
122.004, 18350.850
122.486, 18612.699
122.968, 18856.490
123.450, 19077.949
123.932, 19273.641
124.414, 19427.410
124.897, 19555.711
125.379, 19676.740
125.861, 19790.689
126.343, 19899.600
126.825, 19995.070
127.307, 20083.090
127.789, 20189.061
128.271, 20327.461
128.753, 20495.301
129.236, 20684.020
129.718, 20891.910
130.200, 21120.801
130.682, 21367.859
131.164, 21630.930
131.646, 21932.580
132.128, 22296.869
132.610, 22717.279
133.093, 23168.670
133.575, 23644.061
134.057, 24143.250
134.539, 24688.131
135.021, 25282.141
135.503, 25908.480
135.985, 26545.051
136.467, 27197.910
136.949, 27852.420
137.432, 28500.119
137.914, 29143.619
138.396, 29800.699
138.878, 30469.789
139.360, 31144.580
139.842, 31827.811
140.324, 32541.910
140.806, 33191.160
141.288, 33731.160
141.771, 34150.488
142.253, 34523.539
142.735, 34873.660
143.217, 35171.578
143.699, 35316.281
144.181, 35280.539
144.663, 35131.320
145.145, 34896.441
145.628, 34540.641
146.110, 34163.301
146.592, 33774.570
147.074, 33368.570
147.556, 32931.730
148.038, 32420.199
148.520, 31901.539
149.002, 31428.580
149.484, 31011.480
149.967, 30615.609
150.449, 30244.910
150.931, 29899.760
151.413, 29549.301
151.895, 29167.100
152.377, 28791.641
152.859, 28462.289
153.342, 28232.400
153.824, 28007.600
154.306, 27763.510
154.788, 27487.949
155.270, 27247.930
155.752, 27080.770
156.234, 26947.900
156.716, 26793.109
157.198, 26554.660
157.680, 26335.160
158.163, 26179.891
158.645, 26112.820
159.127, 26064.949
159.609, 26022.240
160.091, 25984.600
160.573, 25952.699
161.055, 25927.770
161.538, 25905.500
162.020, 25882.090
162.502, 25848.580
162.984, 25822.350
163.466, 25818.381
163.948, 25828.881
164.430, 25827.500
164.912, 25778.949
165.394, 25723.340
165.876, 25696.461
166.359, 25750.680
166.841, 25796.029
167.323, 25758.449
167.805, 25650.400
168.287, 25568.971
168.769, 25602.900
169.251, 25689.779
169.733, 25755.510
170.216, 25729.561
170.698, 25702.061
171.180, 25760.789
171.662, 25907.779
172.144, 26053.939
172.626, 26104.689
173.108, 26112.109
173.590, 26169.039
174.072, 26338.070
174.555, 26566.789
175.037, 26792.900
175.519, 27009.221
176.001, 27259.619
176.483, 27581.641
176.965, 27969.949
177.447, 28401.811
177.929, 28856.779
178.412, 29349.689
178.894, 29913.240
179.376, 30554.490
179.858, 31229.381
180.340, 31892.750
180.822, 32541.480
181.304, 33196.309
181.786, 33827.711
182.268, 34465.449
182.751, 35171.219
183.233, 35951.488
183.715, 36792.441
184.197, 37642.609
184.679, 38513.820
185.161, 39452.852
185.643, 40559.309
186.125, 41771.148
186.607, 43008.949
187.090, 44412.199
187.572, 45630.859
188.054, 46013.469
188.536, 45553.441
189.018, 44427.109
189.500, 42490.969
189.982, 39893.070
190.464, 37417.141
190.947, 35202.449
191.429, 33261.578
191.911, 31733.420
192.393, 30637.721
192.875, 29806.590
193.357, 29110.039
193.839, 28548.529
194.321, 28088.061
194.803, 27726.631
195.286, 27454.180
195.768, 27216.551
196.250, 27014.891
196.732, 26845.250
197.214, 26705.551
197.696, 26597.340
198.178, 26505.289
198.661, 26424.859
199.143, 26356.439
199.625, 26304.570
200.107, 26272.561
200.589, 26248.711
201.071, 26212.461
201.553, 26159.311
202.035, 26123.949
202.517, 26124.199
202.999, 26159.971
203.482, 26185.850
203.964, 26196.340
204.446, 26203.961
204.928, 26230.770
205.410, 26280.961
205.892, 26328.699
206.374, 26361.641
206.857, 26377.529
207.339, 26395.311
207.821, 26418.160
208.303, 26438.449
208.785, 26439.180
209.267, 26413.391
209.749, 26389.359
210.231, 26384.381
210.713, 26407.820
211.195, 26406.881
211.678, 26370.971
212.160, 26320.020
212.642, 26296.789
213.124, 26302.600
213.606, 26335.039
214.088, 26402.391
214.570, 26522.020
215.052, 26613.131
215.535, 26665.199
216.017, 26691.439
216.499, 26728.090
216.981, 26777.801
217.463, 26830.939
217.945, 26883.830
218.427, 26938.480
218.909, 26979.980
219.391, 26997.930
219.874, 27002.199
220.356, 27032.311
220.838, 27099.311
221.320, 27172.391
221.802, 27230.410
222.284, 27261.410
222.766, 27313.609
223.248, 27406.660
223.731, 27526.131
224.213, 27591.289
224.695, 27568.730
225.177, 27543.631
225.659, 27574.359
226.141, 27692.369
226.623, 27794.039
227.105, 27858.770
227.587, 27896.270
228.070, 27970.869
228.552, 28097.721
229.034, 28239.910
229.516, 28370.150
229.998, 28477.119
230.480, 28594.070
230.962, 28720.869
231.444, 28857.500
231.926, 29008.301
232.409, 29169.381
232.891, 29346.830
233.373, 29546.449
233.855, 29764.590
234.337, 30011.430
234.819, 30285.109
235.301, 30589.000
235.783, 30914.840
236.266, 31240.801
236.748, 31614.430
237.230, 32065.410
237.712, 32582.090
238.194, 33211.352
238.676, 33975.680
239.158, 34864.949
239.640, 35807.879
240.122, 36775.879
240.605, 37830.590
241.087, 39028.359
241.569, 40453.211
242.051, 41886.840
242.533, 43295.289
243.015, 44669.660
243.497, 46105.289
243.980, 47631.129
244.462, 49186.719
244.944, 50710.320
245.426, 52139.180
245.908, 53654.969
246.390, 55291.199
246.872, 57053.191
247.354, 58877.039
247.836, 60812.012
248.318, 62738.031
248.801, 64593.469
249.283, 66571.844
249.765, 68095.781
250.247, 69186.781
250.729, 69836.047
251.211, 69440.203
251.693, 67835.406
252.176, 65410.891
252.658, 62407.480
253.140, 58471.480
253.622, 54704.051
254.104, 51214.070
254.586, 47992.359
255.068, 45181.969
255.550, 42820.520
256.032, 40827.602
256.514, 39162.000
256.997, 37873.672
257.479, 36790.809
257.961, 35893.699
258.443, 35176.672
258.925, 34581.371
259.407, 34137.691
259.889, 33773.230
260.371, 33414.859
260.854, 33034.988
261.336, 32728.770
261.818, 32517.949
262.300, 32399.801
262.782, 32316.289
263.264, 32282.170
263.746, 32260.420
264.228, 32217.109
264.711, 32142.650
265.193, 32073.730
265.675, 32016.010
266.157, 31969.359
266.639, 31928.770
267.121, 31897.189
267.603, 31867.480
268.085, 31838.279
268.567, 31817.609
269.050, 31766.240
269.532, 31663.490
270.014, 31521.971
270.496, 31429.359
270.978, 31398.359
271.460, 31391.439
271.942, 31376.971
272.424, 31352.109
272.906, 31339.221
273.389, 31347.551
273.871, 31371.590
274.353, 31375.400
274.835, 31350.580
275.317, 31330.660
275.799, 31349.289
276.281, 31412.150
276.763, 31464.939
277.246, 31501.051
277.728, 31518.990
278.210, 31504.539
278.692, 31447.721
279.174, 31395.131
279.656, 31390.770
280.138, 31436.381
280.620, 31472.150
281.103, 31487.699
281.585, 31487.039
282.067, 31474.650
282.549, 31446.020
283.031, 31433.131
283.513, 31471.561
283.995, 31558.439
284.477, 31627.301
284.959, 31666.301
285.441, 31684.850
285.924, 31704.070
286.406, 31724.551
286.888, 31742.270
287.370, 31758.109
287.852, 31770.850
288.334, 31766.211
288.816, 31735.061
289.298, 31697.449
289.781, 31698.051
290.263, 31736.010
290.745, 31770.680
291.227, 31771.480
291.709, 31745.090
292.191, 31720.391
292.673, 31700.320
293.155, 31682.369
293.638, 31665.949
294.120, 31650.221
294.602, 31627.100
295.084, 31593.490
295.566, 31548.830
296.048, 31488.510
296.530, 31407.189
297.012, 31327.029
297.494, 31302.561
297.977, 31316.189
298.459, 31287.631
298.941, 31132.721
299.423, 30915.279
299.905, 30749.631
300.387, 30645.471
300.869, 30583.449
301.351, 30573.881
301.833, 30594.270
302.316, 30578.930
302.798, 30467.449
303.280, 30309.400
303.762, 30169.551
304.244, 30052.279
304.726, 29940.180
305.208, 29813.221
305.690, 29680.840
306.172, 29560.840
306.655, 29472.080
307.137, 29393.340
307.619, 29309.779
308.101, 29221.080
308.583, 29122.381
309.065, 29014.730
309.547, 28895.650
310.030, 28763.061
310.512, 28580.730
310.994, 28411.250
311.476, 28327.311
311.958, 28324.770
312.440, 28292.939
312.922, 28135.609
313.404, 27928.570
313.886, 27754.561
314.369, 27650.770
314.851, 27578.080
315.333, 27531.990
315.815, 27508.869
316.297, 27476.500
316.779, 27408.711
317.261, 27333.090
317.743, 27270.949
318.225, 27246.961
318.708, 27218.010
319.190, 27162.900
319.672, 27089.029
320.154, 27026.910
320.636, 27009.869
321.118, 26991.869
321.600, 26942.680
322.082, 26811.590
322.565, 26712.391
323.047, 26685.580
323.529, 26708.750
324.011, 26715.721
324.493, 26664.090
324.975, 26618.369
325.457, 26607.600
325.939, 26653.520
326.422, 26698.961
326.904, 26755.480
327.386, 26808.461
327.868, 26825.199
328.350, 26762.301
328.832, 26705.439
329.314, 26683.449
329.796, 26715.760
330.278, 26728.660
330.760, 26705.150
331.243, 26670.100
331.725, 26661.830
332.207, 26710.730
332.689, 26742.100
333.171, 26730.590
333.653, 26668.711
334.135, 26623.141
334.617, 26595.020
335.100, 26583.160
335.582, 26592.381
336.064, 26638.471
336.546, 26663.109
337.028, 26638.789
337.510, 26571.660
337.992, 26569.529
338.474, 26658.240
338.957, 26759.320
339.439, 26796.971
339.921, 26758.061
340.403, 26732.240
340.885, 26738.449
341.367, 26767.080
341.849, 26780.000
342.331, 26773.551
342.813, 26770.760
343.296, 26794.119
343.778, 26842.631
344.260, 26880.480
344.742, 26902.080
345.224, 26914.270
345.706, 26932.189
346.188, 26956.490
346.670, 26973.711
347.152, 26966.920
347.635, 26945.119
348.117, 26945.119
348.599, 26973.369
349.081, 27010.250
349.563, 27024.320
350.045, 27020.930
350.527, 27026.000
351.009, 27068.920
351.491, 27123.211
351.974, 27136.801
352.456, 27104.529
352.938, 27063.039
353.420, 27042.840
353.902, 27038.250
354.384, 27038.131
354.866, 27035.510
355.349, 27037.160
355.831, 27060.090
356.313, 27102.770
356.795, 27128.650
357.277, 27088.949
357.759, 27029.100
358.241, 27002.359
358.723, 27042.869
359.205, 27103.520
359.688, 27159.420
360.170, 27212.711
360.652, 27274.660
361.134, 27364.680
361.616, 27456.100
362.098, 27526.600
362.580, 27547.740
363.062, 27587.240
363.544, 27678.609
364.027, 27803.039
364.509, 27919.160
364.991, 27995.789
365.473, 28078.850
365.955, 28194.590
366.437, 28371.721
366.919, 28512.039
367.401, 28573.090
367.884, 28600.131
368.366, 28658.820
368.848, 28818.660
369.330, 28941.680
369.812, 28997.520
370.294, 28980.500
370.776, 28940.461
371.258, 28867.211
371.741, 28779.449
372.223, 28698.000
372.705, 28640.650
373.187, 28551.449
373.669, 28411.990
374.151, 28228.250
374.633, 28053.609
375.115, 27880.740
375.597, 27725.750
376.079, 27610.090
376.562, 27541.381
377.044, 27454.100
377.526, 27332.170
378.008, 27197.779
378.490, 27113.301
378.972, 27083.811
379.454, 27063.820
379.936, 27027.850
380.419, 26978.971
380.901, 26940.551
381.383, 26916.900
381.865, 26896.131
382.347, 26857.711
382.829, 26805.240
383.311, 26763.330
383.793, 26744.119
384.276, 26742.520
384.758, 26747.961
385.240, 26760.490
385.722, 26776.180
386.204, 26793.980
386.686, 26811.570
387.168, 26820.010
387.650, 26781.359
388.132, 26730.234
388.615, 26782.416
389.097, 26809.521
389.579, 26812.896
390.061, 26721.471
390.543, 26752.463
391.025, 26734.395
391.507, 26714.314
391.989, 26762.535
392.471, 26730.430
392.954, 26711.971
393.436, 26707.051
393.918, 26747.301
394.400, 26782.920
394.882, 26783.500
395.364, 26738.170
395.846, 26703.320
396.328, 26703.689
396.810, 26717.490
397.293, 26720.551
397.775, 26680.869
398.257, 26659.350
398.739, 26678.990
399.221, 26740.500
399.703, 26780.961
400.185, 26794.699
400.668, 26790.051
401.150, 26768.131
401.632, 26697.070
402.114, 26667.529
402.596, 26707.561
403.078, 26789.590
403.560, 26820.039
404.042, 26771.680
404.524, 26729.221
405.007, 26738.869
405.489, 26813.830
405.971, 26857.859
406.453, 26865.400
406.935, 26852.080
407.417, 26833.439
407.899, 26808.119
408.381, 26799.500
408.863, 26824.971
409.346, 26872.850
409.828, 26888.301
410.310, 26868.740
410.792, 26848.000
411.274, 26864.180
411.756, 26906.820
412.238, 26936.689
412.720, 26939.539
413.203, 26934.939
413.685, 26945.240
414.167, 26970.609
414.649, 27010.980
415.131, 27082.020
415.613, 27162.080
416.095, 27224.131
416.577, 27265.891
417.060, 27287.820
417.542, 27276.340
418.024, 27247.170
418.506, 27226.119
418.988, 27224.539
419.470, 27232.939
419.952, 27252.420
420.434, 27282.641
420.916, 27301.170
421.398, 27276.119
421.881, 27250.500
422.363, 27257.500
422.845, 27349.910
423.327, 27424.211
423.809, 27458.750
424.291, 27461.221
424.773, 27463.330
425.255, 27469.369
425.738, 27472.891
426.220, 27465.350
426.702, 27423.609
427.184, 27441.160
427.666, 27565.359
428.148, 27714.320
428.630, 27757.939
429.112, 27637.439
429.595, 27572.699
430.077, 27638.961
430.559, 27822.830
431.041, 27970.311
431.523, 28075.830
432.005, 28167.100
432.487, 28263.199
432.969, 28364.539
433.451, 28486.000
433.934, 28635.760
434.416, 28797.439
434.898, 28936.020
435.380, 29055.590
435.862, 29183.070
436.344, 29336.211
436.826, 29507.381
437.308, 29672.660
437.790, 29827.199
438.273, 30008.910
438.755, 30278.811
439.237, 30598.930
439.719, 30895.510
440.201, 31111.150
440.683, 31318.391
441.165, 31569.160
441.647, 31858.600
442.129, 32158.820
442.612, 32474.779
443.094, 32780.859
443.576, 33055.949
444.058, 33276.840
444.540, 33495.512
445.022, 33738.801
445.504, 33988.180
445.987, 34204.012
446.469, 34424.840
446.951, 34571.891
447.433, 34610.641
447.915, 34530.211
448.397, 34426.000
448.879, 34283.461
449.361, 34130.160
449.843, 34008.910
450.326, 33990.859
450.808, 33822.109
451.290, 33429.102
451.772, 32872.750
452.254, 32374.920
452.736, 31934.850
453.218, 31560.381
453.700, 31272.131
454.182, 31069.221
454.665, 30867.199
455.147, 30662.539
455.629, 30466.680
456.111, 30296.381
456.593, 30151.250
457.075, 30026.779
457.557, 29942.170
458.039, 29865.900
458.522, 29738.680
459.004, 29563.609
459.486, 29390.650
459.968, 29248.061
460.450, 29128.779
460.932, 29026.891
461.414, 28940.561
461.896, 28870.520
462.379, 28819.340
462.861, 28784.260
463.343, 28761.020
463.825, 28764.461
464.307, 28765.010
464.789, 28746.820
465.271, 28707.490
465.753, 28669.180
466.235, 28629.850
466.717, 28596.949
467.200, 28575.949
467.682, 28581.609
468.164, 28580.051
468.646, 28558.680
469.128, 28528.641
469.610, 28529.189
470.092, 28576.000
470.574, 28624.891
471.057, 28660.230
471.539, 28681.881
472.021, 28685.400
472.503, 28667.141
472.985, 28637.631
473.467, 28608.000
473.949, 28578.080
474.431, 28546.250
474.914, 28507.770
475.396, 28471.039
475.878, 28461.619
476.360, 28477.641
476.842, 28493.689
477.324, 28485.920
477.806, 28469.461
478.288, 28475.090
478.770, 28511.260
479.253, 28547.641
479.735, 28556.689
480.217, 28548.920
480.699, 28540.801
481.181, 28539.311
481.663, 28539.039
482.145, 28530.430
482.627, 28515.961
483.109, 28517.961
483.592, 28546.789
484.074, 28590.910
484.556, 28645.260
485.038, 28728.080
485.520, 28784.410
486.002, 28785.650
486.484, 28762.539
486.966, 28762.100
487.448, 28801.811
487.931, 28836.660
488.413, 28861.221
488.895, 28875.250
489.377, 28852.990
489.859, 28779.980
490.341, 28708.381
490.823, 28685.830
491.306, 28716.039
491.788, 28730.971
492.270, 28724.369
492.752, 28701.350
493.234, 28659.029
493.716, 28601.980
494.198, 28560.859
494.680, 28562.939
495.162, 28585.980
495.645, 28589.301
496.127, 28573.070
496.609, 28555.500
497.091, 28548.730
497.573, 28548.320
498.055, 28548.551
498.537, 28546.010
499.019, 28547.449
499.501, 28566.189
499.984, 28591.359
500.466, 28601.090
500.948, 28577.930
501.430, 28548.311
501.912, 28513.131
502.394, 28468.770
502.876, 28460.359
503.358, 28512.211
503.841, 28585.869
504.323, 28660.000
504.805, 28757.240
505.287, 28808.311
505.769, 28794.539
506.251, 28738.971
506.733, 28691.230
507.215, 28648.609
507.698, 28620.420
508.180, 28615.029
508.662, 28628.539
509.144, 28627.279
509.626, 28608.490
510.108, 28600.320
510.590, 28652.779
511.072, 28741.141
511.554, 28775.971
512.036, 28719.461
512.519, 28649.779
513.001, 28668.930
513.483, 28747.770
513.965, 28808.449
514.447, 28791.699
514.929, 28757.580
515.411, 28749.650
515.893, 28770.080
516.375, 28790.480
516.858, 28798.039
517.340, 28801.119
517.822, 28805.461
518.304, 28794.520
518.786, 28806.850
519.268, 28868.141
519.750, 28951.189
520.232, 29003.480
520.715, 29000.230
521.197, 29006.160
521.679, 29048.490
522.161, 29127.131
522.643, 29159.289
523.125, 29131.830
523.607, 29095.500
524.089, 29106.270
524.571, 29160.869
525.054, 29158.789
525.536, 29071.340
526.018, 28962.711
526.500, 28936.480
526.982, 28978.520
527.464, 29030.570
527.946, 29079.211
528.429, 29114.971
528.911, 29115.920
529.393, 29085.520
529.875, 29062.410
530.357, 29084.721
530.839, 29117.350
531.321, 29128.141
531.803, 29101.881
532.286, 29075.199
532.768, 29062.400
533.250, 29055.980
533.732, 29045.131
534.214, 29013.180
534.696, 28994.770
535.178, 29004.320
535.660, 29038.400
536.142, 29053.420
536.625, 29035.320
537.107, 29023.180
537.589, 29047.770
538.071, 29119.420
538.553, 29153.680
539.035, 29132.455
539.517, 29166.559
539.999, 29187.232
540.481, 29195.195
540.964, 29152.389
541.446, 29175.143
541.928, 29171.621
542.410, 29167.023
542.892, 29184.539
543.374, 29188.309
543.856, 29237.350
544.338, 29275.393
544.820, 29303.045
545.303, 29289.160
545.785, 29328.910
546.267, 29352.119
546.749, 29340.344
547.231, 29365.439
547.713, 29381.584
548.195, 29389.260
548.677, 29363.100
549.159, 29380.631
549.642, 29380.654
550.124, 29379.959
550.606, 29394.000
551.088, 29375.279
551.570, 29357.680
552.052, 29348.760
552.534, 29348.859
553.016, 29356.980
553.499, 29377.980
553.981, 29410.061
554.463, 29428.381
554.945, 29427.100
555.427, 29416.760
555.909, 29415.141
556.391, 29417.740
556.873, 29409.600
557.356, 29361.461
557.838, 29314.391
558.320, 29324.109
558.802, 29381.561
559.284, 29421.750
559.766, 29385.539
560.248, 29337.910
560.730, 29327.551
561.213, 29379.580
561.695, 29420.449
562.177, 29414.141
562.659, 29398.900
563.141, 29421.949
563.623, 29524.801
564.105, 29596.221
564.587, 29605.461
565.069, 29573.039
565.552, 29580.100
566.034, 29636.500
566.516, 29693.650
566.998, 29732.529
567.480, 29752.699
567.962, 29745.830
568.444, 29708.670
568.926, 29676.160
569.408, 29690.330
569.891, 29734.131
570.373, 29768.480
570.855, 29781.689
571.337, 29792.619
571.819, 29832.939
572.301, 29881.660
572.783, 29898.699
573.265, 29814.020
573.747, 29742.699
574.230, 29754.779
574.712, 29845.000
575.194, 29909.270
575.676, 29928.570
576.158, 29918.850
576.640, 29879.449
577.122, 29782.051
577.604, 29746.381
578.086, 29805.980
578.569, 29886.260
579.051, 29890.900
579.533, 29810.061
580.015, 29750.279
580.497, 29739.730
580.979, 29754.230
581.461, 29731.160
581.943, 29677.590
582.426, 29651.551
582.908, 29703.420
583.390, 29791.570
583.872, 29858.711
584.354, 29903.570
584.836, 29947.699
585.318, 30019.811
585.800, 30087.619
586.282, 30121.551
586.765, 30097.971
587.247, 30075.410
587.729, 30064.641
588.211, 30064.420
588.693, 30074.699
589.175, 30125.510
589.657, 30141.410
590.140, 30093.350
590.622, 30000.641
591.104, 29948.539
591.586, 29938.609
592.068, 29964.471
592.550, 30046.570
593.032, 30174.980
593.514, 30235.949
593.996, 30225.510
594.479, 30194.881
594.961, 30187.471
595.443, 30195.570
595.925, 30203.289
596.407, 30207.029
596.889, 30210.631
597.371, 30216.650
597.853, 30224.910
598.335, 30234.990
598.818, 30263.590
599.300, 30277.350
599.782, 30247.461
600.264, 30181.641
600.746, 30154.490
601.228, 30201.721
601.710, 30253.939
602.192, 30284.721
602.674, 30292.000
603.157, 30285.551
603.639, 30255.381
604.121, 30232.930
604.603, 30256.029
605.085, 30322.590
605.567, 30389.150
606.049, 30453.721
606.531, 30502.660
607.013, 30501.740
607.496, 30466.180
607.978, 30440.980
608.460, 30443.930
608.942, 30468.061
609.424, 30523.650
609.906, 30600.900
610.388, 30655.529
610.870, 30639.580
611.353, 30618.689
611.835, 30632.250
612.317, 30697.199
612.799, 30742.100
613.281, 30763.080
613.763, 30764.480
614.245, 30744.609
614.727, 30692.510
615.209, 30655.650
615.692, 30630.881
616.174, 30634.730
616.656, 30731.410
617.138, 30914.471
617.620, 31022.980
618.102, 30968.789
618.584, 30837.189
619.067, 30758.160
619.549, 30728.400
620.031, 30731.789
620.513, 30787.400
620.995, 30851.980
621.477, 30882.730
621.959, 30872.420
622.441, 30878.189
622.923, 30942.090
623.406, 31014.699
623.888, 31058.609
624.370, 31049.320
624.852, 31045.510
625.334, 31045.590
625.816, 31052.039
626.298, 31076.830
626.780, 31130.480
627.263, 31145.500
627.745, 31090.240
628.227, 31002.150
628.709, 30976.949
629.191, 31010.551
629.673, 31058.080
630.155, 31116.850
630.637, 31164.631
631.119, 31158.180
631.602, 31100.689
632.084, 31049.920
632.566, 31035.039
633.048, 31045.830
633.530, 31083.881
634.012, 31175.471
634.494, 31222.189
634.976, 31165.260
635.458, 31075.811
635.941, 31026.301
636.423, 31037.520
636.905, 31044.189
637.387, 31034.801
637.869, 31020.061
638.351, 31027.391
638.833, 31057.590
639.315, 31087.119
639.797, 31111.590
640.280, 31125.820
640.762, 31111.289
641.244, 31071.650
641.726, 31035.670
642.208, 31010.211
642.690, 31004.990
643.172, 31044.359
643.654, 31137.010
644.137, 31200.680
644.619, 31172.330
645.101, 31120.221
645.583, 31097.811
646.065, 31140.830
646.547, 31168.461
647.029, 31159.160
647.511, 31149.311
647.994, 31204.369
648.476, 31344.000
648.958, 31441.471
649.440, 31455.230
649.922, 31421.520
650.404, 31424.750
650.886, 31460.711
651.368, 31502.150
651.851, 31546.680
652.333, 31580.381
652.815, 31575.910
653.297, 31537.990
653.779, 31511.461
654.261, 31529.609
654.743, 31562.551
655.225, 31594.939
655.707, 31631.311
656.190, 31645.010
656.672, 31604.061
657.154, 31561.949
657.636, 31566.430
658.118, 31648.971
658.600, 31681.510
659.082, 31640.561
659.564, 31569.160
660.046, 31539.029
660.529, 31547.090
661.011, 31557.561
661.493, 31554.561
661.975, 31554.631
662.457, 31599.670
662.939, 31673.160
663.421, 31718.930
663.903, 31672.820
664.385, 31619.070
664.868, 31617.930
665.350, 31669.039
665.832, 31714.039
666.314, 31732.260
666.796, 31747.010
667.278, 31768.180
667.760, 31794.189
668.242, 31769.713
668.724, 31810.646
669.207, 31835.705
669.689, 31845.736
670.171, 31795.744
670.653, 31823.262
671.135, 31819.715
671.617, 31814.896
672.099, 31836.221
672.581, 31802.320
673.064, 31810.359
673.546, 31892.930
674.028, 31966.939
674.510, 31967.930
674.992, 31919.490
675.474, 31877.881
675.956, 31850.680
676.438, 31844.420
676.920, 31875.641
677.403, 31938.340
677.885, 31974.311
678.367, 31976.490
678.849, 31968.020
679.331, 31947.689
679.813, 31918.369
680.295, 31953.270
680.778, 32057.750
681.260, 32154.570
681.742, 32147.660
682.224, 32088.721
682.706, 32082.080
683.188, 32147.680
683.670, 32228.881
684.152, 32257.920
684.634, 32293.471
685.117, 32280.584
685.599, 32365.840
686.081, 32427.275
686.563, 32466.176
687.045, 32414.996
687.527, 32480.123
688.009, 32509.391
688.491, 32499.180
688.973, 32482.631
689.456, 32468.359
689.938, 32487.891
690.420, 32540.080
690.902, 32587.230
691.384, 32600.990
691.866, 32601.740
692.348, 32617.869
692.830, 32648.260
693.312, 32689.631
693.795, 32771.441
694.277, 32838.570
694.759, 32834.301
695.241, 32736.141
695.723, 32692.740
696.205, 32761.881
696.687, 32858.789
697.169, 32939.570
697.652, 33011.469
698.134, 33035.922
698.616, 32998.602
699.098, 32948.539
699.580, 32946.570
700.062, 32985.391
700.544, 33023.281
701.026, 33055.531
701.508, 33076.500
701.991, 33073.121
702.473, 33055.102
702.955, 33040.031
703.437, 33027.109
703.919, 33026.102
704.401, 33055.160
704.883, 33099.820
705.365, 33115.898
705.847, 33083.160
706.330, 33045.090
706.812, 33001.941
707.294, 32960.461
707.776, 32977.449
708.258, 33063.191
708.740, 33130.398
709.222, 33115.398
709.705, 33046.289
710.187, 33002.398
710.669, 32983.148
711.151, 32973.230
711.633, 32971.859
712.115, 32968.969
712.597, 32954.691
713.079, 32926.570
713.561, 32894.441
714.044, 32852.520
714.526, 32813.570
715.008, 32786.852
715.490, 32773.309
715.972, 32769.000
716.454, 32775.359
716.936, 32787.180
717.418, 32798.738
717.901, 32809.828
718.383, 32821.738
718.865, 32838.340
719.347, 32846.078
719.829, 32812.020
720.311, 32757.689
720.793, 32727.619
721.275, 32774.078
721.757, 32814.449
722.240, 32797.891
722.722, 32746.289
723.204, 32718.641
723.686, 32748.750
724.168, 32771.449
724.650, 32769.230
725.132, 32748.160
725.614, 32743.100
726.096, 32757.211
726.579, 32766.311
727.061, 32749.840
727.543, 32720.789
728.025, 32717.240
728.507, 32737.590
728.989, 32763.061
729.471, 32779.320
729.953, 32796.141
730.435, 32830.020
730.918, 32885.820
731.400, 32914.512
731.882, 32874.219
732.364, 32825.031
732.846, 32802.230
733.328, 32810.680
733.810, 32834.750
734.292, 32883.012
734.775, 32928.070
735.257, 32936.102
735.739, 32912.070
736.221, 32896.840
736.703, 32896.488
737.185, 32900.941
737.667, 32899.449
738.149, 32895.641
738.631, 32896.762
739.114, 32917.090
739.596, 32923.422
740.078, 32883.270
740.560, 32827.109
741.042, 32807.590
741.524, 32852.820
742.006, 32888.051
742.489, 32891.570
742.971, 32889.461
743.453, 32964.711
743.935, 32939.801
744.417, 33022.543
744.899, 33079.152
745.381, 33056.949
745.863, 33070.488
746.345, 33171.922
746.828, 33256.512
747.310, 33241.730
747.792, 33219.852
748.274, 33252.891
748.756, 33333.578
749.238, 33388.000
749.720, 33387.262
750.202, 33385.980
750.684, 33413.398
751.167, 33466.961
751.649, 33462.730
752.131, 33395.070
752.613, 33313.602
753.095, 33241.461
753.577, 33183.539
754.059, 33153.109
754.541, 33150.500
755.023, 33158.199
755.506, 33160.691
755.988, 33169.000
756.470, 33196.141
756.952, 33250.000
757.434, 33288.398
757.916, 33295.910
758.398, 33290.559
758.880, 33281.500
759.362, 33265.859
759.845, 33259.570
760.327, 33267.801
760.809, 33271.969
761.291, 33241.820
761.773, 33191.359
762.255, 33169.430
762.737, 33191.969
763.219, 33218.301
763.702, 33205.270
764.184, 33180.699
764.666, 33179.301
765.148, 33233.609
765.630, 33278.020
766.112, 33295.910
766.594, 33300.340
767.076, 33306.430
767.558, 33313.000
768.041, 33319.660
768.523, 33322.699
769.005, 33328.500
769.487, 33350.422
769.969, 33385.230
770.451, 33422.988
770.933, 33464.719
771.416, 33499.879
771.898, 33514.449
772.380, 33515.750
772.862, 33519.840
773.344, 33552.391
773.826, 33565.980
774.308, 33546.090
774.790, 33499.789
775.272, 33433.281
775.755, 33327.891
776.237, 33283.262
776.719, 33358.051
777.201, 33498.930
777.683, 33570.789
778.165, 33578.461
778.647, 33548.102
779.129, 33443.898
779.612, 33346.602
780.094, 33338.609
780.576, 33405.590
781.058, 33467.930
781.540, 33505.449
782.022, 33527.602
782.504, 33535.129
782.986, 33528.441
783.468, 33523.141
783.951, 33519.512
784.433, 33513.988
784.915, 33507.441
785.397, 33497.262
785.879, 33464.262
786.361, 33411.570
786.843, 33378.078
787.325, 33392.160
787.807, 33436.809
788.290, 33516.980
788.772, 33635.488
789.254, 33704.512
789.736, 33649.430
790.218, 33589.949
790.700, 33585.109
791.182, 33640.711
791.664, 33687.820
792.146, 33726.020
792.629, 33756.551
793.111, 33778.461
793.593, 33792.879
794.075, 33799.500
794.557, 33797.512
795.039, 33802.941
795.521, 33841.941
796.003, 33883.762
796.485, 33901.809
796.968, 33889.230
797.450, 33865.840
797.932, 33818.160
798.414, 33778.602
798.896, 33778.820
799.378, 33828.691
799.860, 33837.230
800.343, 33795.441
800.825, 33748.359
801.307, 33745.141
801.789, 33769.301
802.271, 33785.578
802.753, 33786.648
803.235, 33792.180
803.717, 33818.371
804.199, 33851.379
804.682, 33880.078
805.164, 33907.090
805.646, 33918.590
806.128, 33909.090
806.610, 33890.590
807.092, 33867.461
807.574, 33839.820
808.056, 33848.230
808.539, 33903.922
809.021, 33958.430
809.503, 33949.539
809.985, 33907.090
810.467, 33876.070
810.949, 33864.789
811.431, 33871.379
811.913, 33910.891
812.395, 33959.441
812.878, 33991.762
813.360, 34002.859
813.842, 34005.738
814.324, 33998.449
814.806, 33986.629
815.288, 33971.500
815.770, 33955.961
816.252, 33961.270
816.734, 33995.352
817.217, 34034.121
817.699, 34061.039
818.181, 34076.000
818.663, 34076.172
819.145, 34037.141
819.627, 34025.441
820.109, 34096.762
820.591, 34177.898
821.073, 34178.340
821.556, 34067.250
822.038, 34029.191
822.520, 34102.410
823.002, 34202.410
823.484, 34192.219
823.966, 34116.051
824.448, 34101.820
824.930, 34203.238
825.413, 34310.160
825.895, 34343.961
826.377, 34342.398
826.859, 34350.039
827.341, 34386.480
827.823, 34413.680
828.305, 34423.250
828.787, 34429.289
829.269, 34455.828
829.752, 34502.230
830.234, 34528.699
830.716, 34525.461
831.198, 34512.531
831.680, 34519.660
832.162, 34532.391
832.644, 34524.660
833.127, 34476.461
833.609, 34434.352
834.091, 34416.031
834.573, 34412.422
835.055, 34410.051
835.537, 34403.219
836.019, 34415.922
836.501, 34454.711
836.983, 34503.488
837.466, 34548.160
837.948, 34586.000
838.430, 34602.531
838.912, 34587.031
839.394, 34578.121
839.876, 34631.422
840.358, 34698.609
840.840, 34718.172
841.322, 34614.059
841.805, 34569.090
842.287, 34627.941
842.769, 34715.449
843.251, 34747.949
843.733, 34722.262
844.215, 34691.789
844.697, 34659.738
845.179, 34635.809
845.661, 34628.871
846.144, 34638.141
846.626, 34666.070
847.108, 34720.910
847.590, 34768.949
848.072, 34791.750
848.554, 34803.199
849.036, 34817.172
849.518, 34835.680
850.000, 34854.711
850.483, 34879.070
850.965, 34893.609
851.447, 34866.148
851.929, 34813.289
852.411, 34803.859
852.893, 34852.379
853.375, 34904.711
853.857, 34903.391
854.340, 34893.969
854.822, 34931.570
855.304, 34922.375
855.786, 34986.805
856.268, 35033.367
856.750, 35063.012
857.232, 35025.098
857.714, 35074.426
858.196, 35088.785
858.679, 35101.719
859.161, 35163.328
859.643, 35135.238
860.125, 35196.074
860.607, 35214.910
861.089, 35216.781
861.571, 35215.480
862.054, 35234.320
862.536, 35260.020
863.018, 35286.660
863.500, 35316.430
863.982, 35324.699
864.464, 35304.648
864.946, 35291.449
865.428, 35331.211
865.910, 35394.559
866.393, 35398.320
866.875, 35341.539
867.357, 35294.551
867.839, 35312.430
868.321, 35344.410
868.803, 35358.172
869.285, 35349.988
869.767, 35341.109
870.250, 35326.621
870.732, 35323.941
871.214, 35350.410
871.696, 35397.328
872.178, 35412.539
872.660, 35398.641
873.142, 35389.379
873.624, 35420.961
874.106, 35455.512
874.589, 35449.148
875.071, 35408.180
875.553, 35392.441
876.035, 35428.270
876.517, 35476.539
876.999, 35536.949
877.481, 35599.969
877.963, 35602.801
878.445, 35542.039
878.928, 35524.230
879.410, 35643.820
879.892, 35795.238
880.374, 35824.629
880.856, 35765.480
881.338, 35715.359
881.820, 35704.148
882.302, 35719.770
882.784, 35776.340
883.267, 35853.449
883.749, 35904.199
884.231, 35927.852
884.713, 35923.320
885.195, 35874.949
885.677, 35825.090
886.159, 35860.000
886.641, 35950.852
887.123, 36028.430
887.606, 36073.590
888.088, 36091.020
888.570, 36058.289
889.052, 36008.109
889.534, 35993.160
890.016, 36024.090
890.498, 36068.539
890.981, 36129.840
891.463, 36191.262
891.945, 36223.520
892.427, 36234.660
892.909, 36249.012
893.391, 36269.449
893.873, 36299.961
894.355, 36356.121
894.837, 36415.250
895.320, 36453.512
895.802, 36452.930
896.284, 36457.660
896.766, 36468.461
897.248, 36481.500
897.730, 36499.430
898.212, 36518.898
898.694, 36513.469
899.177, 36481.262
899.659, 36446.602
900.141, 36430.219
900.623, 36422.059
901.105, 36414.219
901.587, 36406.941
902.069, 36402.660
902.551, 36410.469
903.033, 36411.039
903.516, 36385.879
903.998, 36340.551
904.480, 36343.441
904.962, 36393.750
905.444, 36443.109
905.926, 36467.238
906.408, 36469.531
906.890, 36432.879
907.372, 36369.219
907.855, 36346.520
908.337, 36431.730
908.819, 36505.910
909.301, 36541.180
909.783, 36541.410
910.265, 36507.309
910.747, 36438.480
911.229, 36393.441
911.711, 36401.211
912.194, 36435.828
912.676, 36480.500
913.158, 36525.199
913.640, 36548.461
914.122, 36514.680
914.604, 36493.570
915.086, 36509.941
915.568, 36538.801
916.050, 36542.781
916.533, 36520.500
917.015, 36485.828
917.497, 36434.309
917.979, 36397.699
918.461, 36437.500
918.943, 36511.641
919.425, 36547.109
919.907, 36504.129
920.390, 36489.129
920.872, 36559.020
921.354, 36651.621
921.836, 36720.809
922.318, 36760.219
922.800, 36814.070
923.282, 36885.500
923.764, 36949.941
924.247, 36986.512
924.729, 37000.379
925.211, 36983.301
925.693, 36936.078
926.175, 36925.211
926.657, 37028.148
927.139, 37124.762
927.621, 37149.090
928.104, 37108.691
928.586, 37097.559
929.068, 37119.469
929.550, 37145.270
930.032, 37155.059
930.514, 37164.559
930.996, 37222.289
931.478, 37305.430
931.960, 37343.320
932.443, 37256.430
932.925, 37176.078
933.407, 37148.449
933.889, 37155.770
934.371, 37171.602
934.853, 37201.020
935.335, 37195.801
935.817, 37129.570
936.299, 37066.961
936.782, 37115.129
937.264, 37226.109
937.746, 37315.750
938.228, 37363.141
938.710, 37379.211
939.192, 37325.770
939.674, 37271.539
940.156, 37285.109
940.638, 37387.852
941.121, 37432.012
941.603, 37407.719
942.085, 37366.629
942.567, 37352.641
943.049, 37355.109
943.531, 37362.191
944.013, 37372.578
944.495, 37375.578
944.978, 37348.230
945.460, 37332.512
945.942, 37356.840
946.424, 37415.410
946.906, 37422.441
947.388, 37373.801
947.870, 37337.430
948.352, 37363.578
948.834, 37408.141
949.317, 37400.621
949.799, 37359.672
950.281, 37336.770
950.763, 37350.602
951.245, 37387.141
951.727, 37472.160
952.209, 37558.121
952.692, 37533.211
953.174, 37389.988
953.656, 37340.359
954.138, 37443.781
954.620, 37581.840
955.102, 37631.609
955.584, 37628.840
956.066, 37618.641
956.548, 37603.160
957.031, 37603.551
957.513, 37637.051
957.995, 37672.172
958.477, 37689.141
958.959, 37688.289
959.441, 37671.570
959.923, 37639.020
960.405, 37621.941
960.888, 37650.539
961.370, 37701.250
961.852, 37768.789
962.334, 37845.539
962.816, 37870.461
963.298, 37782.398
963.780, 37712.680
964.262, 37692.980
964.744, 37718.359
965.227, 37802.250
965.709, 37931.172
966.191, 38000.930
966.673, 37939.352
967.155, 37860.430
967.637, 37856.379
968.119, 37895.211
968.601, 37928.980
969.083, 37964.199
969.566, 37964.520
970.048, 37912.949
970.530, 37856.559
971.012, 37844.859
971.494, 37873.852
971.976, 37946.488
972.458, 38067.441
972.940, 38149.539
973.422, 38092.031
973.905, 38008.211
974.387, 37988.172
974.869, 38040.391
975.351, 38058.121
975.833, 38021.488
976.315, 38014.641
976.797, 38099.422
977.279, 38228.109
977.761, 38282.488
978.244, 38281.078
978.726, 38288.250
979.208, 38361.820
979.690, 38417.930
980.172, 38392.371
980.654, 38337.641
981.136, 38358.988
981.619, 38483.172
982.101, 38518.648
982.583, 38420.391
983.065, 38294.219
983.547, 38276.859
984.029, 38314.129
984.511, 38312.602
984.993, 38239.781
985.475, 38210.289
985.958, 38325.551
986.440, 38431.551
986.922, 38436.141
987.404, 38342.090
987.886, 38288.738
988.368, 38275.672
988.850, 38291.328
989.332, 38350.539
989.815, 38416.941
990.297, 38457.129
990.779, 38473.922
991.261, 38479.660
991.743, 38466.859
992.225, 38458.281
992.707, 38456.711
993.189, 38462.539
993.671, 38477.809
994.154, 38501.469
994.636, 38531.211
995.118, 38570.711
995.600, 38598.859
996.082, 38595.719
996.564, 38577.199
997.046, 38549.602
997.528, 38495.020
998.010, 38522.461
998.493, 38657.051
998.975, 38791.719
999.457, 38846.770
999.939, 38846.270
1000.421, 38830.289
1000.903, 38805.352
1001.385, 38804.090
1001.867, 38881.352
1002.349, 38941.961
1002.832, 38931.230
1003.314, 38881.660
1003.796, 38870.172
1004.278, 38900.531
1004.760, 38917.809
1005.242, 38902.172
1005.724, 38891.480
1006.206, 38959.969
1006.689, 39051.398
1007.171, 39078.910
1007.653, 38989.000
1008.135, 38943.191
1008.617, 38987.340
1009.099, 39041.949
1009.581, 39050.250
1010.063, 39017.949
1010.545, 39002.551
1011.028, 39003.648
1011.510, 39015.160
1011.992, 39031.020
1012.474, 39057.762
1012.956, 39114.961
1013.438, 39188.250
1013.920, 39216.852
1014.402, 39169.609
1014.885, 39168.352
1015.367, 39256.820
1015.849, 39358.801
1016.331, 39335.969
1016.813, 39238.059
1017.295, 39177.641
1017.777, 39188.691
1018.259, 39214.781
1018.741, 39249.828
1019.224, 39278.590
1019.706, 39283.480
1020.188, 39262.160
1020.670, 39298.930
1021.152, 39397.430
1021.634, 39478.410
1022.116, 39471.039
1022.598, 39435.852
1023.081, 39437.949
1023.563, 39466.500
1024.045, 39479.922
1024.527, 39425.359
1025.009, 39426.941
1025.491, 39521.520
1025.973, 39651.180
1026.455, 39719.160
1026.938, 39737.719
1027.420, 39757.719
1027.902, 39789.871
1028.384, 39816.410
1028.866, 39837.730
1029.348, 39839.180
1029.830, 39797.801
1030.312, 39710.039
1030.794, 39673.262
1031.276, 39693.980
1031.759, 39732.629
1032.241, 39778.020
1032.723, 39821.590
1033.205, 39845.660
1033.687, 39857.711
1034.169, 39875.840
1034.651, 39929.461
1035.133, 39955.680
1035.616, 39928.980
1036.098, 39888.270
1036.580, 39888.898
1037.062, 39925.629
1037.544, 39966.109
1038.026, 40004.840
1038.508, 40046.660
1038.990, 40102.191
1039.473, 40154.512
1039.955, 40193.859
1040.437, 40218.539
1040.919, 40202.020
1041.401, 40126.699
1041.883, 40081.621
1042.365, 40122.988
1042.847, 40196.160
1043.329, 40198.320
1043.812, 40154.672
1044.294, 40118.828
1044.776, 40051.090
1045.258, 40011.004
1045.740, 40098.234
1046.222, 40154.566
1046.704, 40181.645
1047.186, 40091.895
1047.668, 40153.008
1048.151, 40167.641
1048.633, 40206.551
1049.115, 40230.488
1049.597, 40245.629
1050.079, 40253.199
1050.561, 40254.559
1051.043, 40262.398
1051.525, 40280.500
1052.008, 40290.391
1052.490, 40279.141
1052.972, 40272.488
1053.454, 40325.770
1053.936, 40412.211
1054.418, 40475.051
1054.900, 40479.141
1055.382, 40510.820
1055.865, 40636.270
1056.347, 40748.750
1056.829, 40765.520
1057.311, 40693.109
1057.793, 40679.039
1058.275, 40720.059
1058.757, 40767.828
1059.239, 40808.570
1059.721, 40830.488
1060.203, 40818.121
1060.686, 40781.770
1061.168, 40748.730
1061.650, 40719.012
1062.132, 40704.531
1062.614, 40713.141
1063.096, 40721.719
1063.578, 40687.660
1064.060, 40640.051
1064.543, 40634.691
1065.025, 40684.762
1065.507, 40709.781
1065.989, 40646.680
1066.471, 40602.629
1066.953, 40632.281
1067.435, 40708.148
1067.917, 40707.941
1068.400, 40644.430
1068.882, 40596.891
1069.364, 40589.391
1069.846, 40620.430
1070.328, 40734.359
1070.810, 40862.590
1071.292, 40912.309
1071.774, 40858.609
1072.256, 40806.750
1072.739, 40751.430
1073.221, 40735.980
1073.703, 40827.000
1074.185, 40957.570
1074.667, 41065.512
1075.149, 41139.898
1075.631, 41146.281
1076.113, 41003.570
1076.596, 40904.512
1077.078, 40895.621
1077.560, 40934.090
1078.042, 40944.559
1078.524, 40937.691
1079.006, 40950.051
1079.488, 40995.031
1079.970, 41034.641
1080.453, 41042.602
1080.935, 41045.102
1081.417, 41062.660
1081.899, 41094.020
1082.381, 41107.621
1082.863, 41103.379
1083.345, 41083.730
1083.827, 41008.789
1084.309, 40965.262
1084.792, 41071.949
1085.274, 41257.199
1085.756, 41392.762
1086.238, 41447.379
1086.720, 41481.520
1087.202, 41492.789
1087.684, 41493.941
1088.166, 41506.012
1088.648, 41513.512
1089.131, 41463.711
1089.613, 41366.859
1090.095, 41327.219
1090.577, 41467.852
1091.059, 41567.672
1091.541, 41554.719
1092.023, 41479.461
1092.505, 41444.691
1092.988, 41446.719
1093.470, 41464.660
1093.952, 41492.750
1094.434, 41541.328
1094.916, 41658.820
1095.398, 41765.750
1095.880, 41783.879
1096.362, 41713.551
1096.844, 41671.320
1097.327, 41654.980
1097.809, 41693.500
1098.291, 41852.879
1098.773, 42014.879
1099.255, 42022.230
1099.737, 41942.680
1100.219, 41895.711
1100.701, 41921.570
1101.183, 41953.961
1101.666, 41996.512
1102.148, 42035.578
1102.630, 42065.031
1103.112, 42080.199
1103.594, 42058.828
1104.076, 42007.070
1104.558, 41973.801
1105.040, 41971.500
1105.523, 42002.211
1106.005, 42081.379
1106.487, 42175.730
1106.969, 42213.590
1107.451, 42204.020
1107.933, 42189.590
1108.415, 42174.191
1108.897, 42182.820
1109.380, 42274.852
1109.862, 42360.961
1110.344, 42368.898
1110.826, 42307.039
1111.308, 42273.141
1111.790, 42269.609
1112.272, 42250.922
1112.754, 42183.059
1113.236, 42119.309
1113.719, 42119.719
1114.201, 42159.160
1114.683, 42202.570
1115.165, 42244.129
1115.647, 42291.641
1116.129, 42350.629
1116.611, 42394.961
1117.093, 42388.730
1117.575, 42361.500
1118.058, 42324.000
1118.540, 42299.176
1119.022, 42378.492
1119.504, 42432.535
1119.986, 42462.648
1120.468, 42397.195
1120.950, 42455.148
1121.432, 42463.652
1121.915, 42470.168
1122.397, 42545.492
1122.879, 42493.941
1123.361, 42568.172
1123.843, 42583.000
1124.325, 42643.469
1124.807, 42683.648
1125.289, 42707.641
1125.771, 42731.340
1126.254, 42753.551
1126.736, 42753.352
1127.218, 42712.801
1127.700, 42688.012
1128.182, 42723.828
1128.664, 42794.109
1129.146, 42832.211
1129.628, 42772.688
1130.110, 42913.430
1130.593, 43005.625
1131.075, 43051.750
1131.557, 42914.102
1132.039, 43013.762
1132.521, 43018.324
1133.003, 43018.984
1133.485, 43152.047
1133.967, 43041.129
1134.450, 43172.148
1134.932, 43188.879
1135.414, 43283.641
1135.896, 43295.340
1136.378, 43259.141
1136.860, 43219.090
1137.342, 43184.078
1137.824, 43181.520
1138.307, 43241.121
1138.789, 43312.871
1139.271, 43402.449
1139.753, 43478.750
1140.235, 43470.059
1140.717, 43412.270
1141.199, 43415.012
1141.681, 43491.719
1142.163, 43556.949
1142.646, 43567.539
1143.128, 43557.012
1143.610, 43536.379
1144.092, 43507.160
1144.574, 43461.340
1145.056, 43407.480
1145.538, 43397.680
1146.020, 43463.680
1146.502, 43522.070
1146.985, 43524.230
1147.467, 43498.551
1147.949, 43457.770
1148.431, 43405.379
1148.913, 43421.109
1149.395, 43503.391
1149.877, 43590.988
1150.359, 43664.910
1150.842, 43715.520
1151.324, 43638.621
1151.806, 43786.059
1152.288, 43879.039
1152.770, 43920.492
1153.252, 43756.082
1153.734, 43857.504
1154.216, 43852.387
1154.698, 43842.910
1155.181, 43981.793
1155.663, 43847.324
1156.145, 43983.809
1156.627, 43992.320
1157.109, 44083.949
1157.591, 44138.699
1158.073, 44131.520
1158.555, 44105.949
1159.037, 44102.020
1159.520, 44113.289
1160.002, 44132.531
1160.484, 44158.629
1160.966, 44187.770
1161.448, 44235.570
1161.930, 44248.102
1162.412, 44197.250
1162.894, 44134.641
1163.377, 44151.270
1163.859, 44216.930
1164.341, 44279.371
1164.823, 44331.891
1165.305, 44362.500
1165.787, 44371.211
1166.269, 44353.289
1166.751, 44296.891
1167.234, 44222.859
1167.716, 44182.410
1168.198, 44172.070
1168.680, 44178.531
1169.162, 44197.988
1169.644, 44236.469
1170.126, 44347.391
1170.608, 44419.969
1171.090, 44352.211
1171.573, 44183.820
1172.055, 44174.020
1172.537, 44298.020
1173.019, 44428.648
1173.501, 44513.379
1173.983, 44578.469
1174.465, 44623.602
1174.947, 44658.789
1175.430, 44695.078
1175.912, 44731.602
1176.394, 44746.719
1176.876, 44742.469
1177.358, 44751.859
1177.840, 44816.820
1178.322, 44879.531
1178.804, 44903.000
1179.286, 44908.352
1179.769, 44933.609
1180.251, 44980.250
1180.733, 44994.680
1181.215, 44970.969
1181.697, 44960.391
1182.179, 45018.820
1182.661, 45089.070
1183.143, 45130.141
1183.625, 45148.500
1184.108, 45167.250
1184.590, 45185.531
1185.072, 45216.129
1185.554, 45266.172
1186.036, 45296.328
1186.518, 45236.699
1187.000, 45167.609
1187.482, 45180.211
1187.965, 45265.090
1188.447, 45275.461
1188.929, 45202.359
1189.411, 45143.719
1189.893, 45126.320
1190.375, 45144.789
1190.857, 45245.102
1191.339, 45347.910
1191.822, 45345.352
1192.304, 45215.211
1192.786, 45164.148
1193.268, 45200.629
1193.750, 45262.488
1194.232, 45337.680
1194.714, 45400.129
1195.196, 45405.719
1195.678, 45381.910
1196.161, 45366.859
1196.643, 45366.539
1197.125, 45369.359
1197.607, 45374.879
1198.089, 45383.309
1198.571, 45386.172
1199.053, 45399.340
1199.535, 45457.090
1200.017, 45537.000
1200.500, 45592.910
1200.982, 45606.270
1201.464, 45629.609
1201.946, 45670.090
1202.428, 45696.160
1202.910, 45659.328
1203.392, 45609.680
1203.874, 45626.000
1204.357, 45685.871
1204.839, 45707.840
1205.321, 45633.449
1205.803, 45645.910
1206.285, 45780.480
1206.767, 45924.602
1207.249, 45950.180
1207.731, 45922.141
1208.214, 45926.070
1208.696, 45960.320
1209.178, 45980.480
1209.660, 45971.211
1210.142, 45971.301
1210.624, 45984.441
1211.106, 46016.148
1211.588, 46096.070
1212.070, 46186.051
1212.552, 46213.461
1213.035, 46178.051
1213.517, 46109.160
1213.999, 46212.586
1214.481, 46274.180
1214.963, 46296.199
1215.445, 46160.090
1215.927, 46228.168
1216.409, 46214.418
1216.892, 46197.328
1217.374, 46249.090
1217.856, 46291.109
1218.338, 46389.711
1218.820, 46460.602
1219.302, 46466.602
1219.784, 46449.371
1220.266, 46479.090
1220.749, 46526.430
1221.231, 46542.762
1221.713, 46509.199
1222.195, 46501.211
1222.677, 46526.160
1223.159, 46562.590
1223.641, 46604.141
1224.123, 46646.469
1224.605, 46661.621
1225.088, 46680.961
1225.570, 46762.961
1226.052, 46751.223
1226.534, 46869.727
1227.016, 46956.605
1227.498, 47013.582
1227.980, 46951.027
1228.462, 47042.816
1228.944, 47072.742
1229.427, 47100.242
1229.909, 47213.750
1230.391, 47168.582
1230.873, 47272.281
1231.355, 47267.051
1231.837, 47263.090
1232.319, 47300.789
1232.801, 47353.719
1233.284, 47384.039
1233.766, 47402.949
1234.248, 47436.422
1234.730, 47505.070
1235.212, 47539.871
1235.694, 47532.840
1236.176, 47525.871
1236.658, 47548.289
1237.141, 47589.840
1237.623, 47649.762
1238.105, 47716.770
1238.587, 47761.270
1239.069, 47774.980
1239.551, 47781.801
1240.033, 47779.781
1240.515, 47796.230
1240.997, 47882.629
1241.479, 47977.480
1241.962, 48018.969
1242.444, 48017.828
1242.926, 48017.512
1243.408, 48020.289
1243.890, 48031.949
1244.372, 48055.230
1244.854, 48070.648
1245.336, 48009.879
1245.819, 47975.828
1246.301, 48101.660
1246.783, 48330.148
1247.265, 48444.148
1247.747, 48425.969
1248.229, 48412.109
1248.711, 48419.609
1249.193, 48431.691
1249.676, 48421.770
1250.158, 48421.340
1250.640, 48486.680
1251.122, 48580.180
1251.604, 48557.691
1252.086, 48415.898
1252.568, 48378.699
1253.050, 48498.520
1253.532, 48601.102
1254.015, 48493.039
1254.497, 48378.961
1254.979, 48418.871
1255.461, 48559.199
1255.943, 48644.711
1256.425, 48678.059
1256.907, 48690.871
1257.389, 48680.289
1257.871, 48714.352
1258.354, 48916.031
1258.836, 48913.926
1259.318, 48966.664
1259.800, 49006.094
1260.282, 49032.918
1260.764, 49009.414
1261.246, 49050.902
1261.728, 49066.348
1262.211, 49080.770
1262.693, 49131.402
1263.175, 49115.219
1263.657, 49165.281
1264.139, 49188.902
1264.621, 49224.621
1265.103, 49234.133
1265.585, 49251.738
1266.068, 49295.613
1266.550, 49324.922
1267.032, 49331.414
1267.514, 49367.906
1267.996, 49350.805
1268.478, 49380.734
1268.960, 49430.945
1269.442, 49438.762
1269.924, 49475.730
1270.407, 49501.641
1270.889, 49477.043
1271.371, 49519.121
1271.853, 49548.922
1272.335, 49560.711
1272.817, 49563.949
1273.299, 49566.309
1273.781, 49576.801
1274.264, 49616.000
1274.746, 49700.102
1275.228, 49773.789
1275.710, 49840.988
1276.192, 49879.410
1276.674, 49867.359
1277.156, 49841.160
1277.638, 49850.090
1278.120, 49880.828
1278.603, 49920.859
1279.085, 49980.609
1279.567, 49973.289
1280.049, 49888.570
1280.531, 49841.910
1281.013, 49921.441
1281.495, 50011.898
1281.977, 49967.859
1282.459, 49883.930
1282.942, 49881.090
1283.424, 49966.879
1283.906, 50049.469
1284.388, 50127.109
1284.870, 50163.789
1285.352, 50109.551
1285.834, 50059.000
1286.316, 50058.379
1286.799, 50107.270
1287.281, 50220.570
1287.763, 50391.391
1288.245, 50463.320
1288.727, 50450.430
1289.209, 50445.238
1289.691, 50495.211
1290.173, 50552.520
1290.656, 50617.141
1291.138, 50664.359
1291.620, 50674.262
1292.102, 50652.828
1292.584, 50601.141
1293.066, 50531.270
1293.548, 50503.859
1294.030, 50619.320
1294.512, 50674.320
1294.995, 50613.000
1295.477, 50542.898
1295.959, 50534.629
1296.441, 50573.020
1296.923, 50659.801
1297.405, 50754.879
1297.887, 50782.020
1298.369, 50782.551
1298.851, 50814.762
1299.334, 50769.820
1299.816, 50778.301
1300.298, 50908.301
1300.780, 51073.090
1301.262, 51182.660
1301.744, 51237.750
##END=



