##NAMES=Stibiotantalite
##RRUFFID=R050599
##IDEAL CHEMISTRY=Sb^3+^Ta^5+^O_4_
##LOCALITY=Shengus, Pakistan
##OWNER=RRUFF
##SOURCE=Wayne Thompson
##DESCRIPTION=Yellow fragment
##STATUS=The identification of this mineral has been confirmed by X-ray diffraction and chemical analysis
##URL=rruff.info/R050599
##MEASURED CHEMISTRY=Sb_1.00_(Ta_0.88_Nb_0.11_)_Î£=1_O_4_
92.06543, 2144.903
92.54755, 2066.966
93.02966, 2058.332
93.51178, 2155.160
93.99390, 2248.183
94.47601, 2333.569
94.95813, 2406.141
95.44025, 2458.706
95.92236, 2485.592
96.40448, 2484.984
96.88660, 2468.138
97.36871, 2425.698
97.85082, 2379.912
98.33294, 2341.749
98.81506, 2311.173
99.29717, 2288.467
99.77929, 2285.685
100.2614, 2300.684
100.7435, 2332.340
101.2256, 2378.725
101.7078, 2440.316
102.1899, 2518.652
102.6720, 2611.935
103.1541, 2727.796
103.6362, 2865.831
104.1183, 3025.407
104.6005, 3202.979
105.0826, 3400.079
105.5647, 3620.282
106.0468, 3836.864
106.5289, 4069.992
107.0110, 4281.011
107.4931, 4455.279
107.9753, 4588.556
108.4574, 4665.246
108.9395, 4652.843
109.4216, 4519.443
109.9037, 4331.427
110.3858, 4074.820
110.8680, 3782.413
111.3501, 3482.554
111.8322, 3188.457
112.3143, 2904.752
112.7964, 2657.146
113.2785, 2449.770
113.7607, 2268.702
114.2428, 2115.701
114.7249, 1987.741
115.2070, 1876.974
115.6891, 1780.245
116.1712, 1697.915
116.6534, 1621.652
117.1355, 1550.510
117.6176, 1485.186
118.0997, 1426.287
118.5818, 1373.732
119.0639, 1326.896
119.5461, 1286.976
120.0282, 1252.772
120.5103, 1222.714
120.9924, 1197.494
121.4745, 1176.115
121.9566, 1156.285
122.4388, 1138.366
122.9209, 1121.440
123.4030, 1104.345
123.8851, 1087.392
124.3672, 1071.466
124.8493, 1057.224
125.3315, 1044.608
125.8136, 1033.912
126.2957, 1026.728
126.7778, 1020.521
127.2599, 1014.187
127.7420, 1007.703
128.2242, 1001.739
128.7063, 997.3718
129.1884, 995.4938
129.6705, 993.4448
130.1526, 990.7039
130.6347, 988.0741
131.1169, 986.1125
131.5990, 985.0129
132.0811, 984.6584
132.5632, 984.8145
133.0453, 985.6642
133.5274, 986.8651
134.0096, 987.9834
134.4917, 989.5358
134.9738, 992.2952
135.4559, 996.6761
135.9380, 1002.426
136.4201, 1008.598
136.9023, 1014.858
137.3844, 1021.845
137.8665, 1029.958
138.3486, 1039.069
138.8307, 1048.676
139.3128, 1058.490
139.7950, 1068.620
140.2771, 1079.013
140.7592, 1089.536
141.2413, 1100.504
141.7234, 1112.078
142.2055, 1124.096
142.6877, 1137.339
143.1698, 1151.705
143.6519, 1167.567
144.1340, 1185.868
144.6161, 1207.392
145.0982, 1231.362
145.5803, 1255.758
146.0625, 1279.836
146.5446, 1305.716
147.0267, 1333.273
147.5088, 1362.912
147.9909, 1395.516
148.4730, 1432.150
148.9552, 1472.657
149.4373, 1512.073
149.9194, 1547.288
150.4015, 1584.741
150.8836, 1627.366
151.3657, 1673.772
151.8479, 1720.814
152.3300, 1764.928
152.8121, 1805.263
153.2942, 1850.595
153.7763, 1900.880
154.2584, 1954.929
154.7406, 2013.127
155.2227, 2074.918
155.7048, 2139.065
156.1869, 2203.728
156.6690, 2267.498
157.1511, 2339.233
157.6333, 2419.895
158.1154, 2507.664
158.5975, 2599.982
159.0796, 2696.269
159.5617, 2798.840
160.0438, 2911.132
160.5260, 3032.144
161.0081, 3163.372
161.4902, 3302.117
161.9723, 3451.476
162.4544, 3617.492
162.9365, 3800.714
163.4187, 4001.730
163.9008, 4219.285
164.3829, 4451.292
164.8650, 4695.350
165.3471, 4956.144
165.8292, 5230.726
166.3113, 5497.975
166.7935, 5767.034
167.2756, 6011.636
167.7577, 6226.422
168.2398, 6409.862
168.7219, 6540.452
169.2040, 6598.404
169.6862, 6582.736
170.1683, 6500.244
170.6504, 6312.566
171.1325, 6082.371
171.6146, 5825.703
172.0967, 5550.396
172.5789, 5274.191
173.0610, 5019.622
173.5431, 4781.489
174.0252, 4581.805
174.5073, 4416.618
174.9894, 4282.962
175.4716, 4179.874
175.9537, 4107.117
176.4358, 4062.302
176.9179, 4041.619
177.4000, 4055.705
177.8821, 4083.717
178.3643, 4129.729
178.8464, 4186.379
179.3285, 4249.120
179.8106, 4316.273
180.2927, 4383.678
180.7748, 4439.166
181.2570, 4491.822
181.7391, 4521.697
182.2212, 4523.062
182.7033, 4500.688
183.1854, 4458.628
183.6675, 4396.594
184.1497, 4320.778
184.6318, 4249.615
185.1139, 4177.363
185.5960, 4116.021
186.0781, 4068.432
186.5602, 4034.904
187.0423, 4016.914
187.5245, 4016.632
188.0066, 4032.698
188.4887, 4058.689
188.9708, 4098.959
189.4529, 4140.663
189.9350, 4178.482
190.4172, 4211.915
190.8993, 4237.646
191.3814, 4255.913
191.8635, 4262.989
192.3456, 4255.616
192.8277, 4232.357
193.3099, 4196.553
193.7920, 4148.997
194.2741, 4088.459
194.7562, 4024.584
195.2383, 3956.590
195.7204, 3889.111
196.2026, 3826.104
196.6847, 3768.146
197.1668, 3715.440
197.6489, 3667.644
198.1310, 3623.860
198.6131, 3588.310
199.0953, 3561.022
199.5774, 3541.917
200.0595, 3532.344
200.5416, 3532.927
201.0237, 3541.907
201.5058, 3556.025
201.9880, 3578.164
202.4701, 3600.697
202.9522, 3620.343
203.4343, 3640.217
203.9164, 3663.079
204.3985, 3690.119
204.8807, 3721.035
205.3628, 3754.709
205.8449, 3788.094
206.3270, 3829.103
206.8091, 3878.990
207.2912, 3936.040
207.7733, 3999.054
208.2555, 4067.267
208.7376, 4140.259
209.2197, 4216.549
209.7018, 4298.585
210.1839, 4381.523
210.6660, 4468.253
211.1482, 4554.693
211.6303, 4636.208
212.1124, 4710.820
212.5945, 4777.594
213.0766, 4833.622
213.5587, 4881.275
214.0409, 4916.917
214.5230, 4935.811
215.0051, 4942.505
215.4872, 4944.399
215.9693, 4944.580
216.4514, 4943.443
216.9336, 4942.191
217.4157, 4933.977
217.8978, 4933.859
218.3799, 4944.112
218.8620, 4965.851
219.3441, 5002.016
219.8263, 5053.871
220.3084, 5122.227
220.7905, 5206.438
221.2726, 5308.010
221.7547, 5420.175
222.2368, 5545.157
222.7190, 5679.846
223.2011, 5813.143
223.6832, 5945.383
224.1653, 6067.688
224.6474, 6170.573
225.1295, 6257.000
225.6117, 6318.727
226.0938, 6351.782
226.5759, 6356.086
227.0580, 6328.870
227.5401, 6263.650
228.0222, 6166.030
228.5043, 6046.181
228.9865, 5903.009
229.4686, 5746.070
229.9507, 5581.671
230.4328, 5410.200
230.9149, 5236.585
231.3970, 5056.335
231.8792, 4880.456
232.3613, 4716.056
232.8434, 4564.394
233.3255, 4425.105
233.8076, 4297.846
234.2897, 4182.602
234.7719, 4079.698
235.2540, 3988.340
235.7361, 3911.154
236.2182, 3852.799
236.7003, 3813.452
237.1824, 3785.063
237.6646, 3761.773
238.1467, 3745.309
238.6288, 3723.267
239.1109, 3696.397
239.5930, 3661.144
240.0751, 3615.483
240.5573, 3558.910
241.0394, 3491.091
241.5215, 3410.510
242.0036, 3314.366
242.4857, 3215.007
242.9678, 3110.575
243.4500, 3005.116
243.9321, 2898.208
244.4142, 2791.304
244.8963, 2688.288
245.3784, 2593.427
245.8605, 2507.388
246.3427, 2428.201
246.8248, 2357.552
247.3069, 2291.931
247.7890, 2229.681
248.2711, 2170.726
248.7532, 2116.627
249.2354, 2068.703
249.7175, 2028.118
250.1996, 1989.635
250.6817, 1951.143
251.1638, 1916.335
251.6459, 1887.534
252.1281, 1864.335
252.6102, 1844.726
253.0923, 1826.613
253.5744, 1809.858
254.0565, 1796.191
254.5386, 1788.054
255.0208, 1780.124
255.5029, 1770.591
255.9850, 1759.142
256.4671, 1746.070
256.9492, 1731.745
257.4313, 1716.431
257.9135, 1696.496
258.3956, 1670.607
258.8777, 1642.611
259.3598, 1613.578
259.8419, 1583.717
260.3240, 1552.833
260.8062, 1520.674
261.2883, 1487.201
261.7704, 1454.148
262.2525, 1421.852
262.7346, 1389.229
263.2167, 1355.216
263.6989, 1320.417
264.1810, 1286.715
264.6631, 1255.001
265.1452, 1225.379
265.6273, 1198.597
266.1094, 1175.392
266.5916, 1153.639
267.0737, 1132.939
267.5558, 1113.240
268.0379, 1094.418
268.5200, 1076.460
269.0021, 1059.293
269.4843, 1042.447
269.9664, 1025.313
270.4485, 1009.114
270.9306, 994.2247
271.4127, 980.5878
271.8948, 968.1967
272.3770, 957.1425
272.8591, 947.1638
273.3412, 937.4970
273.8233, 928.4684
274.3054, 919.0666
274.7875, 908.5311
275.2697, 897.4835
275.7518, 886.9802
276.2339, 877.2621
276.7160, 868.5508
277.1981, 861.8699
277.6802, 857.5897
278.1623, 852.8019
278.6444, 845.7139
279.1266, 837.7728
279.6087, 831.6158
280.0908, 828.1022
280.5729, 825.7867
281.0550, 822.7841
281.5371, 819.0953
282.0193, 815.5400
282.5014, 812.6290
282.9835, 809.8723
283.4656, 806.2625
283.9477, 801.4404
284.4298, 796.8655
284.9120, 794.3682
285.3941, 793.6719
285.8762, 793.2114
286.3583, 792.5592
286.8404, 792.0250
287.3225, 792.1236
287.8047, 792.9631
288.2868, 793.8221
288.7689, 793.9504
289.2510, 793.5955
289.7331, 793.6629
290.2152, 794.8170
290.6974, 796.1435
291.1795, 796.6746
291.6616, 796.3782
292.1437, 795.8190
292.6258, 795.3106
293.1079, 794.7728
293.5901, 794.0696
294.0722, 793.5148
294.5543, 792.4266
295.0364, 789.9861
295.5185, 786.2513
296.0006, 782.4953
296.4828, 779.5856
296.9649, 776.7871
297.4470, 772.8712
297.9291, 767.5245
298.4112, 761.6991
298.8933, 756.1437
299.3755, 750.7570
299.8576, 744.7616
300.3397, 737.8044
300.8218, 730.1744
301.3039, 722.0968
301.7860, 713.4455
302.2682, 705.4184
302.7503, 698.8272
303.2324, 693.3936
303.7145, 688.1072
304.1966, 682.8281
304.6787, 677.4717
305.1609, 671.7574
305.6430, 665.7307
306.1251, 660.1398
306.6072, 655.5190
307.0893, 651.5328
307.5714, 647.4382
308.0536, 643.0998
308.5357, 638.8246
309.0178, 634.8906
309.4999, 631.2339
309.9820, 627.7455
310.4641, 624.0427
310.9463, 620.6330
311.4284, 618.5313
311.9105, 617.9749
312.3926, 617.5518
312.8747, 616.1683
313.3568, 614.3331
313.8390, 612.9334
314.3211, 612.0132
314.8032, 611.7228
315.2853, 612.3061
315.7674, 613.7715
316.2495, 615.6786
316.7317, 618.0319
317.2138, 620.6402
317.6959, 623.2415
318.1780, 625.9144
318.6601, 628.3231
319.1422, 629.9532
319.6243, 630.9578
320.1064, 632.4318
320.5886, 635.0247
321.0707, 637.8724
321.5528, 639.9750
322.0349, 641.3318
322.5170, 642.2616
322.9991, 642.6011
323.4813, 642.6245
323.9634, 643.3026
324.4455, 645.1845
324.9276, 646.9230
325.4097, 647.0241
325.8918, 645.7709
326.3740, 644.2608
326.8561, 642.5351
327.3382, 640.9039
327.8203, 640.0897
328.3024, 640.3555
328.7845, 640.3600
329.2667, 638.8237
329.7488, 636.2425
330.2309, 633.7883
330.7130, 631.7914
331.1951, 629.9366
331.6772, 627.6785
332.1594, 625.0313
332.6415, 623.0958
333.1236, 622.9467
333.6057, 623.6660
334.0878, 623.1873
334.5699, 620.8017
335.0521, 618.4076
335.5342, 617.1682
336.0163, 616.9395
336.4984, 617.1783
336.9805, 617.9628
337.4626, 618.7650
337.9448, 618.6961
338.4269, 617.6727
338.9090, 616.6307
339.3911, 616.1326
339.8732, 615.8353
340.3553, 615.1895
340.8375, 614.1515
341.3196, 612.5079
341.8017, 609.8903
342.2838, 606.3834
342.7659, 602.3623
343.2480, 598.1874
343.7302, 593.3613
344.2123, 586.9160
344.6944, 578.8391
345.1765, 570.9337
345.6586, 564.5831
346.1407, 559.6415
346.6229, 554.4741
347.1050, 548.5798
347.5871, 542.9460
348.0692, 538.2706
348.5513, 534.4172
349.0334, 530.7516
349.5156, 527.0503
349.9977, 523.3072
350.4798, 519.5204
350.9619, 515.5781
351.4440, 511.8294
351.9261, 508.4858
352.4083, 505.4189
352.8904, 502.3790
353.3725, 499.2927
353.8546, 496.2870
354.3367, 493.4756
354.8188, 490.7788
355.3010, 488.6802
355.7831, 488.6001
356.2652, 488.2868
356.7473, 485.0718
357.2294, 478.8939
357.7115, 472.6622
358.1937, 469.0425
358.6758, 468.1873
359.1579, 466.1982
359.6400, 462.0347
360.1221, 457.8651
360.6042, 454.5012
361.0863, 451.9752
361.5685, 450.3439
362.0506, 449.7271
362.5327, 449.8454
363.0148, 449.5498
363.4969, 448.3746
363.9790, 447.4022
364.4612, 446.7399
364.9433, 446.3776
365.4254, 446.4961
365.9075, 447.1274
366.3896, 447.7666
366.8717, 447.6064
367.3539, 446.3848
367.8360, 444.8378
368.3181, 442.5550
368.8002, 440.2909
369.2823, 438.9238
369.7644, 438.2536
370.2466, 437.0362
370.7287, 433.9739
371.2108, 428.8973
371.6929, 424.9387
372.1750, 423.2238
372.6571, 421.3220
373.1393, 418.3402
373.6214, 414.6875
374.1035, 410.9930
374.5856, 407.5831
375.0677, 404.5810
375.5498, 402.3736
376.0320, 401.1772
376.5141, 400.5653
376.9962, 400.7502
377.4783, 401.2948
377.9604, 401.8990
378.4425, 402.4606
378.9247, 402.9477
379.4068, 403.1273
379.8889, 402.5747
380.3710, 403.2341
380.8531, 406.3390
381.3352, 409.5526
381.8174, 411.7114
382.2995, 413.0578
382.7816, 414.5756
383.2637, 417.0518
383.7458, 420.3337
384.2279, 423.3380
384.7101, 425.9169
385.1922, 428.4268
385.6743, 431.0905
386.1564, 433.7184
386.6385, 436.2009
387.1206, 438.5225
387.6028, 440.4247
388.0849, 441.3343
388.5670, 441.0056
389.0491, 440.8462
389.5312, 441.2970
390.0133, 441.9424
390.4955, 442.7311
390.9776, 443.5903
391.4597, 443.9985
391.9418, 443.2112
392.4239, 441.4862
392.9060, 440.3943
393.3882, 440.2336
393.8703, 440.3950
394.3524, 440.6454
394.8345, 440.8981
395.3166, 440.9262
395.7987, 440.3594
396.2809, 439.7539
396.7630, 440.1309
397.2451, 441.5865
397.7272, 442.5434
398.2093, 441.9322
398.6914, 440.6157
399.1736, 439.8690
399.6557, 439.6674
400.1378, 440.2394
400.6199, 442.3051
401.1020, 445.2619
401.5841, 447.2701
402.0662, 447.6180
402.5483, 447.8087
403.0305, 449.7594
403.5126, 453.3409
403.9947, 456.9665
404.4768, 460.4179
404.9589, 463.7554
405.4410, 466.8024
405.9232, 469.6261
406.4053, 472.9743
406.8874, 477.5548
407.3695, 482.9856
407.8516, 487.4381
408.3337, 490.0760
408.8159, 492.8346
409.2980, 496.8021
409.7801, 501.1754
410.2622, 504.6080
410.7443, 506.6570
411.2264, 507.9066
411.7086, 509.3323
412.1907, 511.2919
412.6728, 512.4314
413.1549, 511.8672
413.6370, 511.2108
414.1191, 511.5711
414.6013, 512.9176
415.0834, 514.6726
415.5655, 516.4872
416.0476, 518.3072
416.5297, 519.0593
417.0118, 517.8344
417.4940, 516.5353
417.9761, 515.3570
418.4582, 514.3154
418.9403, 513.5649
419.4224, 513.1360
419.9045, 512.6043
420.3867, 511.1712
420.8688, 508.5503
421.3509, 505.7966
421.8330, 503.2871
422.3151, 500.4029
422.7972, 496.2332
423.2794, 491.2412
423.7615, 487.0013
424.2436, 484.8913
424.7257, 484.6314
425.2078, 484.2531
425.6899, 483.3645
426.1721, 483.0792
426.6542, 483.9612
427.1363, 485.5134
427.6184, 487.2048
428.1005, 488.8880
428.5826, 490.5791
429.0648, 492.0826
429.5469, 493.3928
430.0290, 495.5262
430.5111, 499.1925
430.9932, 503.2187
431.4753, 506.1749
431.9575, 508.2799
432.4396, 511.3361
432.9217, 517.1507
433.4038, 524.1191
433.8859, 529.4954
434.3680, 533.0332
434.8502, 535.8519
435.3323, 537.9534
435.8144, 540.0283
436.2965, 543.8886
436.7786, 550.7205
437.2607, 557.6309
437.7429, 563.0904
438.2250, 567.4555
438.7071, 571.4199
439.1892, 575.1218
439.6713, 578.8406
440.1534, 583.0305
440.6356, 587.9093
441.1177, 592.2390
441.5998, 595.1517
442.0819, 598.1103
442.5640, 602.6952
443.0461, 608.4523
443.5282, 613.3804
444.0103, 616.0348
444.4925, 616.8195
444.9746, 617.9433
445.4567, 619.9456
445.9388, 621.6182
446.4209, 623.1991
446.9030, 624.1926
447.3852, 623.9800
447.8673, 622.4579
448.3494, 620.2076
448.8315, 617.9859
449.3136, 615.9168
449.7957, 613.2377
450.2779, 610.1946
450.7600, 606.2349
451.2421, 600.6487
451.7242, 594.0392
452.2063, 587.4281
452.6884, 581.3537
453.1706, 575.7609
453.6527, 570.7416
454.1348, 566.5881
454.6169, 562.1588
455.0990, 556.7546
455.5811, 551.2499
456.0633, 546.2942
456.5454, 541.9384
457.0275, 537.6485
457.5096, 532.8489
457.9917, 527.7801
458.4738, 523.2974
458.9560, 519.6091
459.4381, 516.0441
459.9202, 512.0139
460.4023, 507.8161
460.8844, 504.0243
461.3665, 500.9470
461.8487, 498.0118
462.3308, 494.6497
462.8129, 491.0435
463.2950, 487.9498
463.7771, 485.7273
464.2592, 483.7305
464.7414, 481.0093
465.2235, 477.4992
465.7056, 473.7640
466.1877, 469.2823
466.6698, 465.0005
467.1519, 461.6525
467.6341, 459.2188
468.1162, 457.4236
468.5983, 456.1380
469.0804, 455.2791
469.5625, 454.5115
470.0446, 454.2948
470.5268, 453.5826
471.0089, 451.6942
471.4910, 449.6281
471.9731, 448.3196
472.4552, 447.9404
472.9373, 448.0815
473.4195, 448.3635
473.9016, 448.8065
474.3837, 449.1033
474.8658, 449.6494
475.3479, 449.5473
475.8300, 448.1070
476.3122, 446.0033
476.7943, 444.1396
477.2764, 442.8883
477.7585, 442.0323
478.2406, 441.2391
478.7227, 440.4976
479.2049, 439.9549
479.6870, 439.7934
480.1691, 439.6865
480.6512, 439.1924
481.1333, 438.4697
481.6154, 438.2548
482.0976, 439.3217
482.5797, 440.9265
483.0618, 441.8256
483.5439, 441.9911
484.0260, 442.2447
484.5081, 443.0551
484.9902, 444.1600
485.4724, 444.9858
485.9545, 445.4571
486.4366, 445.8953
486.9187, 446.3690
487.4008, 446.8919
487.8829, 447.3604
488.3651, 447.7909
488.8472, 448.6014
489.3293, 450.2370
489.8114, 452.6970
490.2935, 454.7608
490.7756, 456.0737
491.2578, 457.4749
491.7399, 459.7320
492.2220, 462.0122
492.7041, 462.7151
493.1862, 461.4431
493.6683, 460.0782
494.1505, 461.5810
494.6326, 466.8583
495.1147, 471.3875
495.5968, 475.1714
496.0789, 478.1372
496.5610, 479.4506
497.0432, 480.0062
497.5253, 481.6308
498.0074, 485.5039
498.4895, 490.1383
498.9716, 492.3943
499.4537, 491.7552
499.9359, 492.0401
500.4180, 494.5524
500.9001, 497.9967
501.3822, 501.4499
501.8643, 504.8716
502.3464, 508.0794
502.8286, 510.9616
503.3107, 513.6169
503.7928, 516.0763
504.2749, 518.3409
504.7570, 521.0778
505.2391, 525.0057
505.7213, 529.3823
506.2034, 532.0854
506.6855, 532.3973
507.1676, 532.9522
507.6497, 534.5007
508.1318, 536.6219
508.6140, 538.8363
509.0961, 541.0825
509.5782, 543.6508
510.0603, 546.8965
510.5424, 550.7459
511.0245, 553.6443
511.5067, 554.7072
511.9888, 555.8753
512.4709, 557.8226
512.9530, 559.8629
513.4351, 561.0153
513.9172, 561.1264
514.3994, 561.2003
514.8815, 562.6254
515.3636, 565.5605
515.8457, 567.7814
516.3278, 568.7962
516.8099, 569.7455
517.2921, 571.0544
517.7742, 572.6139
518.2563, 574.2732
518.7384, 576.0216
519.2205, 577.7503
519.7026, 579.1174
520.1848, 580.2399
520.6669, 582.1730
521.1490, 585.4513
521.6311, 588.9431
522.1132, 591.1708
522.5953, 592.4325
523.0775, 594.4150
523.5596, 598.1797
524.0417, 602.0435
524.5238, 604.3099
525.0059, 605.6553
525.4880, 608.2470
525.9702, 613.0568
526.4523, 618.8154
526.9344, 623.3519
527.4165, 625.7772
527.8986, 629.2625
528.3807, 634.5889
528.8629, 640.1829
529.3450, 645.2948
529.8271, 649.9537
530.3092, 654.4236
530.7913, 658.8482
531.2734, 663.2038
531.7556, 667.3606
532.2377, 671.0125
532.7198, 675.3123
533.2019, 680.4649
533.6840, 686.2960
534.1661, 693.0748
534.6483, 700.5979
535.1304, 708.1091
535.6125, 715.3874
536.0946, 722.2899
536.5767, 728.4830
537.0588, 733.9311
537.5410, 739.3257
538.0231, 744.6207
538.5052, 750.2943
538.9873, 757.1494
539.4694, 765.3295
539.9515, 773.4919
540.4337, 781.8472
540.9158, 789.6654
541.3979, 795.7632
541.8800, 800.4308
542.3621, 805.4431
542.8442, 811.8986
543.3264, 819.4073
543.8085, 826.6530
544.2906, 833.3711
544.7726, 840.1243
545.2548, 847.3036
545.7369, 854.2129
546.2190, 860.1768
546.7011, 865.3047
547.1832, 870.2737
547.6653, 875.6047
548.1475, 881.0906
548.6296, 885.7412
549.1117, 889.2432
549.5938, 892.7130
550.0759, 896.5523
550.5580, 900.4175
551.0402, 904.0441
551.5223, 907.4140
552.0044, 910.7751
552.4865, 914.3516
552.9686, 917.9960
553.4507, 921.6288
553.9329, 925.2474
554.4150, 928.1454
554.8971, 929.6843
555.3792, 930.4691
555.8613, 932.0590
556.3434, 934.7040
556.8256, 937.3429
557.3077, 938.9744
557.7898, 941.0779
558.2719, 945.3098
558.7540, 951.4676
559.2361, 957.9105
559.7183, 963.5066
560.2004, 968.5339
560.6825, 974.3523
561.1646, 981.1994
561.6467, 988.4176
562.1288, 995.8790
562.6110, 1003.695
563.0931, 1011.691
563.5752, 1020.062
564.0573, 1029.553
564.5394, 1040.672
565.0215, 1053.290
565.5037, 1067.335
565.9858, 1083.076
566.4679, 1098.782
566.9500, 1113.013
567.4321, 1127.657
567.9142, 1145.278
568.3964, 1166.029
568.8785, 1187.261
569.3606, 1207.595
569.8427, 1228.312
570.3248, 1251.246
570.8069, 1275.974
571.2891, 1300.745
571.7712, 1324.256
572.2533, 1347.484
572.7354, 1372.572
573.2175, 1400.596
573.6996, 1428.863
574.1818, 1457.133
574.6639, 1485.949
575.1460, 1515.750
575.6281, 1546.459
576.1102, 1577.163
576.5923, 1607.054
577.0745, 1637.667
577.5566, 1673.481
578.0387, 1715.931
578.5208, 1755.378
579.0029, 1787.295
579.4850, 1818.013
579.9672, 1851.808
580.4493, 1888.402
580.9314, 1926.428
581.4135, 1967.965
581.8956, 2008.573
582.3777, 2043.129
582.8599, 2072.939
583.3420, 2103.301
583.8241, 2135.905
584.3062, 2170.451
584.7883, 2206.916
585.2704, 2246.160
585.7526, 2283.619
586.2347, 2321.442
586.7168, 2355.549
587.1989, 2383.510
587.6810, 2406.830
588.1631, 2428.109
588.6453, 2448.242
589.1274, 2465.938
589.6095, 2479.041
590.0916, 2487.317
590.5737, 2493.093
591.0558, 2495.045
591.5380, 2496.405
592.0201, 2500.690
592.5022, 2504.774
592.9843, 2504.019
593.4664, 2497.307
593.9485, 2485.742
594.4307, 2468.881
594.9128, 2448.064
595.3949, 2426.359
595.8770, 2404.330
596.3591, 2380.492
596.8412, 2353.377
597.3234, 2323.317
597.8055, 2293.071
598.2876, 2264.072
598.7697, 2233.079
599.2518, 2198.369
599.7339, 2162.056
600.2161, 2125.479
600.6982, 2089.100
601.1803, 2053.776
601.6624, 2020.341
602.1445, 1988.070
602.6266, 1954.067
603.1088, 1917.683
603.5909, 1881.527
604.0730, 1845.848
604.5551, 1811.072
605.0372, 1778.391
605.5193, 1747.497
606.0015, 1716.746
606.4836, 1684.837
606.9657, 1652.763
607.4478, 1621.610
607.9299, 1591.512
608.4120, 1562.711
608.8942, 1535.445
609.3763, 1509.522
609.8584, 1484.401
610.3405, 1459.942
610.8226, 1437.511
611.3047, 1418.705
611.7869, 1400.220
612.2690, 1379.819
612.7511, 1358.913
613.2332, 1339.997
613.7153, 1323.965
614.1974, 1309.608
614.6796, 1295.432
615.1617, 1281.378
615.6438, 1266.882
616.1259, 1250.721
616.6080, 1236.126
617.0901, 1225.661
617.5723, 1217.335
618.0544, 1208.499
618.5365, 1198.672
619.0186, 1188.528
619.5007, 1177.854
619.9828, 1167.336
620.4650, 1158.204
620.9471, 1150.512
621.4292, 1143.187
621.9113, 1135.456
622.3934, 1127.595
622.8755, 1120.797
623.3577, 1115.944
623.8398, 1110.934
624.3219, 1105.927
624.8040, 1100.642
625.2861, 1094.700
625.7682, 1088.349
626.2504, 1082.202
626.7325, 1076.674
627.2145, 1071.503
627.6967, 1066.130
628.1788, 1060.519
628.6609, 1055.615
629.1430, 1052.277
629.6251, 1048.595
630.1072, 1042.402
630.5894, 1034.313
631.0715, 1026.366
631.5536, 1018.942
632.0357, 1011.599
632.5178, 1003.920
632.9999, 996.2034
633.4821, 989.1252
633.9642, 982.7575
634.4463, 976.1522
634.9284, 968.4536
635.4105, 959.6649
635.8926, 950.1928
636.3748, 939.4264
636.8569, 929.0292
637.3390, 919.5996
637.8211, 910.3957
638.3032, 900.6359
638.7853, 890.4232
639.2675, 880.6044
639.7496, 872.0121
640.2317, 864.0334
640.7138, 855.4841
641.1959, 846.4540
641.6780, 837.7206
642.1602, 829.5836
642.6423, 821.7766
643.1244, 813.9206
643.6065, 806.0157
644.0886, 798.1902
644.5707, 790.0872
645.0529, 782.4733
645.5350, 775.8241
646.0171, 769.7628
646.4992, 763.8647
646.9813, 757.9757
647.4634, 751.8391
647.9456, 744.8589
648.4277, 737.2155
648.9098, 731.1657
649.3919, 727.1097
649.8740, 723.6886
650.3561, 721.0145
650.8383, 718.3322
651.3204, 714.5759
651.8025, 709.6190
652.2846, 705.3009
652.7667, 703.0577
653.2488, 701.2307
653.7310, 697.8401
654.2131, 693.4035
654.6952, 689.7982
655.1773, 687.8088
655.6594, 687.0449
656.1415, 687.1044
656.6237, 688.4576
657.1058, 688.4439
657.5879, 685.0209
658.0700, 682.4696
658.5521, 682.3538
659.0342, 683.5612
659.5164, 684.6803
659.9985, 685.3741
660.4806, 686.2429
660.9627, 687.7540
661.4448, 689.7985
661.9269, 692.3334
662.4091, 695.3533
662.8912, 697.9915
663.3733, 699.6413
663.8554, 700.9641
664.3375, 703.2958
664.8196, 707.0585
665.3018, 710.6459
665.7839, 713.5970
666.2660, 716.8155
666.7481, 720.9252
667.2302, 725.6088
667.7123, 730.4786
668.1945, 735.3876
668.6766, 739.7784
669.1587, 742.7120
669.6408, 744.3074
670.1229, 746.5495
670.6050, 749.8707
671.0872, 752.6398
671.5693, 753.5344
672.0514, 753.6198
672.5335, 755.0773
673.0156, 758.5579
673.4977, 760.2985
673.9799, 758.2704
674.4620, 754.7909
674.9441, 751.5916
675.4262, 748.6259
675.9083, 745.3455
676.3904, 741.4909
676.8726, 737.1378
677.3547, 732.2283
677.8368, 726.5620
678.3189, 721.7880
678.8010, 719.0204
679.2831, 715.4761
679.7653, 709.7491
680.2474, 702.8853
680.7295, 696.1913
681.2116, 689.9173
681.6937, 683.2491
682.1758, 675.1981
682.6580, 666.8307
683.1401, 659.4417
683.6222, 653.0335
684.1043, 647.1422
684.5864, 641.6096
685.0685, 636.1121
685.5507, 630.0535
686.0328, 623.3181
686.5149, 616.5436
686.9970, 609.7050
687.4791, 602.8914
687.9612, 596.1973
688.4434, 589.5182
688.9255, 582.6454
689.4076, 575.5547
689.8897, 568.4784
690.3718, 561.4924
690.8539, 554.7134
691.3361, 548.4451
691.8182, 542.6507
692.3003, 537.1940
692.7824, 532.0906
693.2645, 526.9934
693.7466, 521.2018
694.2288, 514.3455
694.7109, 508.3807
695.1930, 503.4135
695.6751, 499.1722
696.1572, 496.1892
696.6393, 493.5509
697.1215, 489.8589
697.6036, 484.9335
698.0857, 480.3649
698.5678, 477.8537
699.0499, 476.7292
699.5320, 475.0956
700.0142, 472.9580
700.4963, 470.3587
700.9784, 467.3235
701.4605, 463.8073
701.9426, 459.5694
702.4247, 454.4508
702.9069, 450.0644
703.3890, 446.1102
703.8711, 443.2621
704.3532, 442.6608
704.8353, 442.8651
705.3174, 442.0515
705.7996, 439.9466
706.2817, 437.6041
706.7638, 435.9879
707.2459, 434.8449
707.7280, 433.2541
708.2101, 431.1362
708.6923, 429.3324
709.1743, 428.0054
709.6564, 427.1808
710.1385, 427.2622
710.6207, 428.1154
711.1028, 428.0086
711.5849, 425.9561
712.0670, 423.9499
712.5491, 423.1219
713.0313, 422.5219
713.5134, 420.6385
713.9955, 417.6039
714.4776, 415.3068
714.9597, 415.3623
715.4418, 416.7528
715.9240, 416.4532
716.4061, 414.1593
716.8882, 412.9099
717.3703, 413.6451
717.8524, 414.9865
718.3345, 416.1130
718.8167, 416.9505
719.2988, 417.2285
719.7809, 417.1962
720.2630, 416.1891
720.7451, 413.5212
721.2272, 410.0986
721.7094, 406.4530
722.1915, 402.8936
722.6736, 400.0395
723.1557, 398.3260
723.6378, 397.0998
724.1199, 394.9773
724.6021, 391.8501
725.0842, 389.0620
725.5663, 386.9416
726.0484, 384.7781
726.5305, 382.3066
727.0126, 379.4361
727.4948, 375.8747
727.9769, 371.0863
728.4590, 367.1553
728.9411, 365.1353
729.4232, 363.8426
729.9053, 362.6765
730.3875, 361.3882
730.8696, 359.6242
731.3517, 357.2380
731.8338, 354.4585
732.3159, 351.3358
732.7980, 347.8803
733.2802, 345.5869
733.7623, 345.0024
734.2444, 344.0254
734.7265, 341.5614
735.2086, 338.3818
735.6907, 335.4460
736.1729, 332.7430
736.6550, 330.5707
737.1371, 329.1914
737.6192, 328.1406
738.1013, 327.3462
738.5834, 326.6049
739.0656, 325.6036
739.5477, 324.2737
740.0298, 322.8550
740.5119, 321.6698
740.9940, 320.5305
741.4761, 318.3365
741.9583, 314.7335
742.4404, 312.2813
742.9225, 312.3781
743.4046, 312.8267
743.8867, 311.0790
744.3688, 307.6147
744.8510, 305.2113
745.3331, 304.5915
745.8152, 304.4398
746.2973, 304.6672
746.7794, 304.9323
747.2615, 304.9203
747.7437, 304.6042
748.2258, 304.0569
748.7079, 303.2979
749.1900, 302.4636
749.6721, 301.8136
750.1542, 301.3449
750.6364, 300.9402
751.1185, 300.7080
751.6006, 300.1346
752.0827, 298.7269
752.5648, 296.8013
753.0469, 295.1661
753.5291, 293.6973
754.0112, 292.7909
754.4933, 292.7457
754.9754, 293.0255
755.4575, 293.5067
755.9396, 294.0084
756.4218, 294.3167
756.9039, 294.3559
757.3860, 294.1240
757.8681, 293.4843
758.3502, 292.5756
758.8323, 291.8657
759.3145, 291.3561
759.7966, 291.1117
760.2787, 291.2063
760.7608, 291.4638
761.2429, 291.6076
761.7250, 291.5917
762.2072, 292.0736
762.6893, 293.7192
763.1714, 294.9673
763.6535, 295.1596
764.1356, 295.0092
764.6177, 295.0364
765.0999, 295.3556
765.5820, 295.9869
766.0641, 296.9663
766.5462, 298.2142
767.0283, 299.8896
767.5104, 301.7735
767.9926, 302.8859
768.4747, 303.0515
768.9568, 303.0865
769.4389, 303.5405
769.9210, 304.3240
770.4031, 305.1193
770.8853, 305.7573
771.3674, 306.7521
771.8495, 308.8108
772.3316, 310.4546
772.8137, 310.5650
773.2958, 310.0405
773.7780, 310.3395
774.2601, 311.8309
774.7422, 313.4026
775.2243, 314.2844
775.7064, 314.8986
776.1885, 315.9891
776.6707, 317.3209
777.1528, 317.8507
777.6349, 317.2189
778.1170, 316.3303
778.5991, 316.2294
779.0812, 316.8940
779.5634, 318.0154
780.0455, 320.0645
780.5276, 321.5008
781.0097, 321.6738
781.4918, 321.3486
781.9739, 321.0867
782.4561, 320.8353
782.9382, 320.3357
783.4203, 319.3619
783.9024, 318.3793
784.3845, 317.6158
784.8666, 316.9540
785.3488, 316.3219
785.8309, 315.6685
786.3130, 314.9393
786.7951, 314.1210
787.2772, 313.0486
787.7593, 311.0741
788.2415, 308.2568
788.7236, 307.0727
789.2057, 308.1342
789.6878, 308.9735
790.1699, 308.3274
790.6520, 306.8507
791.1342, 305.6584
791.6162, 304.8328
792.0983, 303.7483
792.5804, 302.3428
793.0626, 300.7029
793.5447, 298.4818
794.0268, 296.2631
794.5089, 294.8222
794.9910, 294.1502
795.4731, 293.4759
795.9553, 292.3322
796.4374, 290.8448
796.9195, 289.3373
797.4016, 287.6797
797.8837, 285.0272
798.3658, 281.1725
798.8480, 277.8112
799.3301, 276.2287
799.8122, 276.0055
800.2943, 275.8191
800.7764, 275.8209
801.2585, 275.5355
801.7407, 274.7964
802.2228, 273.9413
802.7049, 273.1922
803.1870, 272.3644
803.6691, 271.0649
804.1512, 269.2010
804.6334, 267.6360
805.1155, 267.1346
805.5976, 266.8452
806.0797, 265.9475
806.5618, 264.6473
807.0439, 263.3183
807.5261, 262.1152
808.0082, 261.2659
808.4903, 261.0627
808.9724, 261.2987
809.4545, 261.1549
809.9366, 260.5584
810.4188, 260.0649
810.9009, 259.7757
811.3830, 259.6294
811.8651, 259.9518
812.3472, 260.3418
812.8293, 259.2713
813.3115, 255.3608
813.7936, 252.9504
814.2757, 254.0780
814.7578, 255.4662
815.2399, 255.0428
815.7220, 253.4909
816.2042, 252.1926
816.6863, 251.5367
817.1684, 250.8861
817.6505, 249.3701
818.1326, 247.6634
818.6147, 247.2239
819.0969, 247.8255
819.5790, 248.2569
820.0611, 248.1832
820.5432, 247.6215
821.0253, 246.4155
821.5074, 244.8108
821.9896, 244.6357
822.4717, 247.1963
822.9538, 248.1766
823.4359, 245.9116
823.9180, 243.2466
824.4001, 241.4656
824.8823, 240.4536
825.3644, 240.1155
825.8465, 240.6951
826.3286, 240.9039
826.8107, 239.9386
827.2928, 238.6957
827.7750, 237.8860
828.2571, 237.3722
828.7392, 236.7271
829.2213, 235.8604
829.7034, 235.1581
830.1855, 234.9564
830.6677, 235.2143
831.1498, 236.1275
831.6319, 237.6491
832.1140, 238.1692
832.5961, 237.1887
833.0782, 235.6827
833.5604, 234.2773
834.0425, 233.0577
834.5246, 232.3847
835.0067, 232.8050
835.4888, 232.8435
835.9709, 232.2026
836.4531, 231.5302
836.9352, 230.8646
837.4173, 230.4499
837.8994, 230.8398
838.3815, 232.1508
838.8636, 233.0043
839.3458, 232.3987
839.8279, 231.3118
840.3100, 230.4218
840.7921, 229.7870
841.2742, 229.6237
841.7563, 229.8755
842.2385, 229.8917
842.7206, 229.0539
843.2027, 229.2620
843.6848, 227.7642
844.1669, 228.7973
844.6490, 229.2289
845.1312, 228.7455
845.6133, 227.9986
846.0954, 227.3089
846.5775, 226.6626
847.0596, 225.9969
847.5417, 225.1701
848.0239, 224.7904
848.5060, 225.4299
848.9881, 225.8023
849.4702, 225.3296
849.9523, 224.4878
850.4344, 223.6439
850.9166, 222.9125
851.3987, 222.5235
851.8808, 222.7800
852.3629, 223.1376
852.8450, 223.1645
853.3271, 222.9841
853.8093, 222.9003
854.2914, 222.8498
854.7735, 222.2663
855.2556, 220.8071
855.7377, 219.2046
856.2198, 218.8315
856.7020, 219.6219
857.1841, 219.8617
857.6662, 219.4087
858.1483, 219.0462
858.6304, 219.0645
859.1125, 219.3019
859.5947, 219.6986
860.0768, 220.2565
860.5589, 220.1491
861.0410, 218.6725
861.5231, 217.5426
862.0052, 217.1740
862.4874, 217.0000
862.9695, 216.6976
863.4516, 216.2742
863.9337, 215.7863
864.4158, 215.2119
864.8979, 214.7786
865.3801, 214.7399
865.8622, 214.8257
866.3443, 214.6742
866.8264, 214.4161
867.3085, 214.4322
867.7906, 214.8111
868.2728, 215.3340
868.7549, 215.9537
869.2370, 216.3640
869.7191, 215.3082
870.2012, 212.8067
870.6833, 211.4103
871.1655, 211.7533
871.6476, 212.1427
872.1297, 211.3242
872.6118, 209.9016
873.0939, 209.4226
873.5760, 210.2614
874.0581, 210.9330
874.5402, 211.4505
875.0223, 211.7699
875.5045, 211.7771
875.9866, 211.6468
876.4687, 211.6252
876.9508, 211.6783
877.4329, 211.4218
877.9150, 210.4991
878.3972, 209.5402
878.8793, 208.8950
879.3614, 208.3783
879.8435, 207.8055
880.3256, 207.1629
880.8077, 206.3798
881.2899, 205.4151
881.7720, 204.7838
882.2541, 205.3232
882.7362, 206.6286
883.2183, 207.6875
883.7004, 208.4399
884.1826, 208.2975
884.6647, 206.9819
885.1468, 205.8677
885.6289, 206.4383
886.1110, 208.2664
886.5931, 209.0151
887.0753, 208.3209
887.5574, 207.6467
888.0395, 207.2494
888.5216, 206.6904
889.0037, 205.2348
889.4858, 203.6730
889.9680, 203.5936
890.4501, 205.4196
890.9322, 206.2099
891.4143, 204.3733
891.8964, 202.8425
892.3785, 203.0867
892.8607, 204.0741
893.3428, 204.8499
893.8249, 205.2687
894.3070, 205.4485
894.7891, 205.4354
895.2712, 205.2264
895.7534, 204.7505
896.2355, 204.1151
896.7176, 203.3182
897.1997, 202.5115
897.6818, 202.3628
898.1639, 203.0842
898.6461, 203.5997
899.1282, 202.4355
899.6103, 200.1673
900.0924, 199.4836
900.5745, 200.4756
901.0566, 201.0155
901.5388, 200.6172
902.0209, 199.9640
902.5030, 199.4753
902.9851, 199.1640
903.4672, 199.1051
903.9493, 199.5220
904.4315, 199.5504
904.9136, 198.8945
905.3957, 198.2220
905.8778, 197.5523
906.3599, 197.0869
906.8420, 197.0207
907.3242, 197.3554
907.8063, 198.0097
908.2884, 199.6172
908.7705, 200.6506
909.2526, 200.2897
909.7347, 199.3055
910.2169, 197.9578
910.6990, 196.6430
911.1811, 196.1230
911.6632, 196.6410
912.1453, 197.2317
912.6274, 197.0009
913.1096, 196.4130
913.5917, 196.1906
914.0738, 196.2026
914.5559, 196.0261
915.0380, 195.5867
915.5201, 195.0959
916.0023, 194.6922
916.4844, 194.3760
916.9665, 194.0829
917.4486, 193.8155
917.9307, 194.0566
918.4128, 194.9600
918.8950, 195.5983
919.3771, 195.6011
919.8592, 195.1702
920.3413, 194.5259
920.8234, 193.6666
921.3055, 192.6971
921.7877, 191.3161
922.2698, 190.3609
922.7519, 190.1359
923.2340, 190.1419
923.7161, 190.2680
924.1982, 190.4047
924.6804, 190.3320
925.1625, 189.9831
925.6446, 189.7272
926.1267, 189.8305
926.6088, 189.8418
927.0909, 189.3216
927.5731, 188.7335
928.0552, 188.8974
928.5373, 189.5417
929.0194, 189.3546
929.5015, 187.5188
929.9836, 185.5046
930.4658, 184.2465
930.9479, 183.7704
931.4300, 184.5854
931.9121, 186.1780
932.3942, 187.2171
932.8763, 187.2525
933.3585, 186.3368
933.8406, 184.2429
934.3227, 181.6585
934.8048, 180.4048
935.2869, 180.3393
935.7690, 180.1633
936.2512, 179.7012
936.7333, 179.2736
937.2154, 179.1268
937.6975, 178.8304
938.1796, 177.5540
938.6617, 175.2241
939.1439, 173.5066
939.6260, 172.4064
940.1081, 171.9227
940.5902, 172.3353
941.0723, 172.9708
941.5544, 173.4980
942.0366, 173.8138
942.5187, 173.4803
943.0008, 172.0070
943.4829, 171.0983
943.9650, 171.7123
944.4471, 171.8284
944.9293, 170.0227
945.4114, 167.8076
945.8935, 166.8709
946.3756, 167.1645
946.8577, 167.4820
947.3398, 167.7492
947.8220, 167.4417
948.3041, 165.6002
948.7862, 163.6924
949.2683, 163.0242
949.7504, 163.3383
950.2325, 164.1311
950.7147, 165.1675
951.1968, 165.8343
951.6789, 165.5176
952.1610, 164.7740
952.6431, 164.2938
953.1252, 163.9195
953.6074, 163.1527
954.0895, 162.0783
954.5716, 161.5016
955.0537, 161.8349
955.5358, 162.3657
956.0179, 162.0336
956.5000, 161.0620
956.9821, 160.5435
957.4642, 160.4485
957.9464, 160.0177
958.4285, 159.0152
958.9106, 158.3618
959.3927, 158.8525
959.8748, 159.9730
960.3569, 160.4079
960.8391, 160.1375
961.3212, 159.1360
961.8033, 156.8805
962.2854, 155.4213
962.7675, 155.7110
963.2496, 156.7319
963.7318, 157.6697
964.2139, 158.4619
964.6960, 158.6249
965.1781, 157.7912
965.6602, 156.9245
966.1423, 155.4753
966.6245, 154.6449
967.1066, 155.4267
967.5887, 156.7934
968.0708, 157.6411
968.5529, 157.8774
969.0350, 157.4105
969.5172, 155.2214
969.9993, 153.6722
970.4814, 153.8377
970.9635, 154.6293
971.4456, 155.1277
971.9277, 155.6330
972.4099, 157.3466
972.8920, 160.4852
973.3741, 162.1351
973.8562, 159.4346
974.3383, 155.9151
974.8204, 154.1584
975.3026, 153.4690
975.7847, 153.0343
976.2668, 152.6769
976.7489, 152.3484
977.2310, 152.0271
977.7131, 151.8158
978.1953, 151.8560
978.6774, 152.0523
979.1595, 152.3678
979.6416, 152.6871
980.1237, 152.5913
980.6058, 152.0553
981.0880, 151.4819
981.5701, 151.1016
982.0522, 151.0541
982.5343, 151.9936
983.0164, 153.5565
983.4985, 153.4492
983.9807, 151.6941
984.4628, 150.2818
984.9449, 149.8109
985.4270, 149.6912
985.9091, 149.4191
986.3912, 149.1019
986.8734, 149.1126
987.3555, 149.5129
987.8376, 149.6645
988.3197, 149.4245
988.8018, 149.4751
989.2839, 150.2382
989.7661, 151.0289
990.2482, 151.0770
990.7303, 150.4786
991.2124, 149.8892
991.6945, 149.0206
992.1766, 148.8845
992.6588, 150.1415
993.1409, 151.1806
993.6230, 150.8423
994.1051, 150.2554
994.5872, 151.4404
995.0693, 154.3441
995.5515, 155.0191
996.0336, 150.8773
996.5157, 148.2544
996.9978, 149.2872
997.4799, 150.4798
997.9620, 149.5618
998.4442, 147.8220
998.9263, 147.4155
999.4084, 148.5560
999.8905, 149.2246
1000.373, 148.0166
1000.855, 147.4729
1001.337, 149.5840
1001.819, 151.7094
1002.301, 151.3950
1002.783, 149.5890
1003.265, 148.3982
1003.747, 148.3093
1004.230, 148.1868
1004.712, 147.1359
1005.194, 146.2534
1005.676, 146.3683
1006.158, 146.9630
1006.640, 147.7086
1007.122, 148.3347
1007.604, 148.2498
1008.086, 147.2529
1008.569, 146.3621
1009.051, 146.3852
1009.533, 146.8932
1010.015, 147.9029
1010.497, 148.8391
1010.979, 148.2767
1011.461, 146.5750
1011.943, 145.7718
1012.426, 146.8235
1012.908, 148.2716
1013.390, 148.6675
1013.872, 148.3451
1014.354, 147.6545
1014.836, 146.8094
1015.318, 146.1258
1015.800, 145.8295
1016.282, 147.0169
1016.765, 150.3875
1017.247, 154.1428
1017.729, 155.8150
1018.211, 155.7680
1018.693, 155.0469
1019.175, 153.7363
1019.657, 152.2197
1020.139, 150.6035
1020.622, 149.2803
1021.104, 148.5181
1021.586, 148.1259
1022.068, 147.6434
1022.550, 147.1485
1023.032, 147.9161
1023.514, 149.9890
1023.996, 150.2219
1024.478, 147.6544
1024.961, 145.2838
1025.443, 145.3389
1025.925, 146.8123
1026.407, 147.5080
1026.889, 147.3931
1027.371, 147.0779
1027.853, 146.4714
1028.335, 146.1768
1028.818, 146.3413
1029.300, 146.9414
1029.782, 148.1327
1030.264, 149.4901
1030.746, 149.7867
1031.228, 148.7727
1031.710, 148.3025
1032.192, 148.7306
1032.674, 148.5763
1033.156, 147.0647
1033.639, 145.6262
1034.121, 145.5285
1034.603, 146.2891
1035.085, 146.4626
1035.567, 145.7755
1036.049, 145.5594
1036.531, 146.0927
1037.013, 146.5584
1037.496, 146.6790
1037.978, 146.7411
1038.460, 146.9196
1038.942, 147.2307
1039.424, 147.7590
1039.906, 148.6457
1040.388, 149.3119
1040.870, 149.7892
1041.353, 149.9944
1041.835, 149.7382
1042.317, 149.3555
1042.799, 149.0396
1043.281, 148.8076
1043.763, 148.7919
1044.245, 149.2921
1044.727, 149.0952
1045.209, 147.0962
1045.692, 145.8003
1046.174, 146.3503
1046.656, 147.4285
1047.138, 148.1301
1047.620, 148.5072
1048.102, 148.8346
1048.584, 149.1985
1049.066, 149.2666
1049.548, 148.5704
1050.031, 148.1265
1050.513, 148.5538
1050.995, 149.0960
1051.477, 149.1530
1051.959, 148.8238
1052.441, 148.4408
1052.923, 148.0506
1053.405, 147.5999
1053.888, 146.6572
1054.370, 146.1927
1054.852, 147.2374
1055.334, 148.3127
1055.816, 148.0460
1056.298, 146.8509
1056.780, 145.7353
1057.262, 144.8005
1057.745, 144.5207
1058.227, 145.5853
1058.709, 146.6160
1059.191, 146.9301
1059.673, 147.0767
1060.155, 147.5901
1060.637, 148.3073
1061.119, 148.8384
1061.601, 149.1133
1062.083, 149.1072
1062.566, 148.8712
1063.048, 148.2771
1063.530, 146.7135
1064.012, 145.2619
1064.494, 144.8145
1064.976, 145.2153
1065.458, 146.2083
1065.940, 147.7364
1066.423, 148.8284
1066.905, 148.8603
1067.387, 148.6985
1067.869, 148.8492
1068.351, 148.8704
1068.833, 148.1491
1069.315, 147.1091
1069.797, 146.4683
1070.280, 146.3752
1070.762, 146.7459
1071.244, 148.4345
1071.726, 149.4046
1072.208, 147.9817
1072.690, 146.1794
1073.172, 145.5578
1073.654, 145.7554
1074.136, 146.0121
1074.619, 146.1852
1075.101, 146.4436
1075.583, 147.0706
1076.065, 147.4333
1076.547, 147.2643
1077.029, 146.6796
1077.511, 145.1226
1077.993, 143.5550
1078.475, 143.6915
1078.958, 145.4205
1079.440, 146.6369
1079.922, 146.3491
1080.404, 145.9223
1080.886, 145.7423
1081.368, 145.9372
1081.850, 146.9264
1082.332, 148.1405
1082.814, 148.9856
1083.297, 149.3267
1083.779, 149.0053
1084.261, 147.6561
1084.743, 146.6767
1085.225, 146.8418
1085.707, 147.4353
1086.189, 148.2179
1086.671, 149.0083
1087.154, 149.8074
1087.636, 150.4466
1088.118, 150.3540
1088.600, 149.1539
1089.082, 148.4159
1089.564, 149.5030
1090.046, 150.3682
1090.528, 149.5793
1091.010, 148.2441
1091.493, 147.1669
1091.975, 146.5798
1092.457, 146.8844
1092.939, 148.2493
1093.421, 149.4146
1093.903, 149.8020
1094.385, 150.0354
1094.867, 150.7879
1095.349, 151.1313
1095.832, 149.6396
1096.314, 147.4093
1096.796, 146.6009
1097.278, 147.5542
1097.760, 148.5526
1098.242, 149.4520
1098.724, 149.7762
1099.206, 148.8088
1099.689, 147.8035
1100.171, 147.1286
1100.653, 147.2363
1101.135, 149.3958
1101.617, 153.3138
1102.099, 155.3973
1102.581, 153.8814
1103.063, 152.0511
1103.546, 150.0959
1104.028, 148.6783
1104.510, 148.4762
1104.992, 148.7646
1105.474, 148.7815
1105.956, 148.5273
1106.438, 148.2640
1106.920, 147.8510
1107.402, 147.8817
1107.885, 148.8793
1108.367, 149.7757
1108.849, 149.9644
1109.331, 150.0872
1109.813, 151.1131
1110.295, 152.4729
1110.777, 152.4068
1111.259, 150.3318
1111.741, 148.8238
1112.224, 148.4038
1112.706, 148.0968
1113.188, 147.7186
1113.670, 147.3772
1114.152, 147.1273
1114.634, 146.9706
1115.116, 146.8346
1115.598, 146.6783
1116.081, 147.0658
1116.563, 148.5993
1117.045, 149.6288
1117.527, 149.7039
1118.009, 149.6838
1118.491, 150.0125
1118.973, 150.3948
1119.455, 150.3996
1119.938, 150.0904
1120.420, 150.0884
1120.902, 150.4713
1121.384, 151.0228
1121.866, 152.1001
1122.348, 152.5036
1122.830, 151.5077
1123.312, 150.2663
1123.794, 149.8891
1124.276, 150.0583
1124.759, 149.6883
1125.241, 148.5475
1125.723, 148.3304
1126.205, 149.4342
1126.687, 149.8027
1127.169, 148.6637
1127.651, 147.7785
1128.133, 148.3910
1128.616, 149.8206
1129.098, 150.9415
1129.580, 151.7355
1130.062, 151.8703
1130.544, 151.2954
1131.026, 150.5531
1131.508, 149.6684
1131.990, 149.2655
1132.473, 149.7189
1132.955, 150.1856
1133.437, 149.6050
1133.919, 148.3489
1134.401, 147.6104
1134.883, 147.3775
1135.365, 147.6532
1135.847, 148.4112
1136.329, 149.2976
1136.812, 150.1957
1137.294, 150.9576
1137.776, 151.4603
1138.258, 151.7946
1138.740, 152.0675
1139.222, 152.3176
1139.704, 152.7993
1140.186, 153.3845
1140.668, 153.5201
1141.151, 153.1316
1141.633, 152.3873
1142.115, 151.3624
1142.597, 150.5174
1143.079, 150.5225
1143.561, 150.8851
1144.043, 150.7666
1144.525, 150.3958
1145.008, 149.9945
1145.490, 149.8065
1145.972, 150.6340
1146.454, 152.5609
1146.936, 154.1615
1147.418, 154.4288
1147.900, 154.0547
1148.382, 153.4113
1148.865, 152.7382
1149.347, 152.3469
1149.829, 152.1174
1150.311, 151.8461
1150.793, 151.4919
1151.275, 150.9521
1151.757, 150.0137
1152.239, 149.8289
1152.721, 151.4925
1153.203, 153.5983
1153.686, 156.0080
1154.168, 157.7497
1154.650, 157.4762
1155.132, 155.8863
1155.614, 154.4714
1156.096, 153.5028
1156.578, 153.1299
1157.060, 154.2411
1157.543, 154.7227
1158.025, 153.4840
1158.507, 152.0227
1158.989, 150.9114
1159.471, 150.2681
1159.953, 150.3591
1160.435, 151.0715
1160.917, 151.6286
1161.400, 152.0380
1161.882, 152.1610
1162.364, 150.9989
1162.846, 151.1433
1163.328, 154.3111
1163.810, 157.6070
1164.292, 159.1730
1164.774, 159.2551
1165.256, 158.1555
1165.739, 155.7712
1166.221, 154.0087
1166.703, 152.8204
1167.185, 152.6049
1167.667, 153.7620
1168.149, 154.5832
1168.631, 154.2445
1169.113, 153.3645
1169.595, 152.5228
1170.078, 151.8615
1170.560, 151.9561
1171.042, 152.7872
1171.524, 153.7381
1172.006, 154.7690
1172.488, 155.4047
1172.970, 155.5318
1173.452, 155.6268
1173.934, 156.0193
1174.417, 156.3176
1174.899, 155.8804
1175.381, 154.9516
1175.863, 153.8353
1176.345, 152.8553
1176.827, 153.4789
1177.309, 155.2877
1177.791, 155.7364
1178.274, 154.1199
1178.756, 152.6553
1179.238, 153.0541
1179.720, 154.1896
1180.202, 155.3567
1180.684, 156.1343
1181.166, 155.4771
1181.648, 154.3149
1182.130, 154.5132
1182.613, 155.8779
1183.095, 156.5201
1183.577, 155.6423
1184.059, 155.1118
1184.541, 156.7509
1185.023, 157.9092
1185.505, 156.1998
1185.987, 154.3208
1186.469, 155.0807
1186.952, 157.0225
1187.434, 157.3616
1187.916, 155.9259
1188.398, 154.7869
1188.880, 154.1969
1189.362, 154.0344
1189.844, 154.7604
1190.326, 155.2866
1190.809, 155.0672
1191.291, 154.7355
1191.773, 154.9084
1192.255, 155.2667
1192.737, 154.8936
1193.219, 155.3217
1193.701, 156.0129
1194.183, 155.9053
1194.666, 157.4929
1195.148, 158.1721
1195.630, 158.3013
1196.112, 157.9757
1196.594, 157.4362
1197.076, 156.9352
1197.558, 156.4502
1198.040, 155.7682
1198.522, 154.9884
1199.005, 155.1793
1199.487, 156.2027
1199.969, 156.6077
1200.451, 156.1396
1200.933, 155.5672
1201.415, 155.3107
1201.897, 155.2879
1202.379, 155.5866
1202.861, 155.8692
1203.344, 155.2840
1203.826, 154.4836
1204.308, 154.7249
1204.790, 155.7238
1205.272, 156.6786
1205.754, 157.3272
1206.236, 157.5144
1206.718, 157.0425
1207.201, 156.5487
1207.683, 156.0720
1208.165, 156.1200
1208.647, 157.7570
1209.129, 159.4694
1209.611, 159.6586
1210.093, 158.7265
1210.575, 157.6353
1211.057, 156.5069
1211.540, 155.8952
1212.022, 156.3235
1212.504, 156.5695
1212.986, 156.1378
1213.468, 156.0001
1213.950, 156.7122
1214.432, 157.6055
1214.914, 158.2630
1215.396, 158.4939
1215.879, 157.5227
1216.361, 158.2117
1216.843, 158.3783
1217.325, 157.8288
1217.807, 158.8848
1218.289, 157.2642
1218.771, 156.1754
1219.253, 157.1065
1219.736, 158.6368
1220.218, 159.3754
1220.700, 159.4770
1221.182, 159.1045
1221.664, 158.4242
1222.146, 157.6293
1222.628, 157.0671
1223.110, 158.3521
1223.593, 161.1917
1224.075, 162.8194
1224.557, 162.0370
1225.039, 160.9882
1225.521, 161.6271
1226.003, 162.4661
1226.485, 162.0033
1226.967, 162.3009
1227.449, 161.2727
1227.932, 161.6229
1228.414, 161.3089
1228.896, 160.3035
1229.378, 158.9932
1229.860, 157.0924
1230.342, 156.4128
1230.824, 158.8345
1231.306, 160.4615
1231.788, 159.4707
1232.271, 158.1553
1232.753, 157.7440
1233.235, 157.8417
1233.717, 157.9043
1234.199, 158.4598
1234.681, 158.6950
1235.163, 160.1497
1235.645, 161.4397
1236.128, 162.6487
1236.610, 162.9600
1237.092, 162.1051
1237.574, 161.1439
1238.056, 160.7194
1238.538, 160.3437
1239.020, 159.1542
1239.502, 159.6207
1239.984, 158.3976
1240.467, 160.1490
1240.949, 161.1374
1241.431, 161.3573
1241.913, 161.2480
1242.395, 160.9853
1242.877, 160.7532
1243.359, 160.6338
1243.841, 160.6517
1244.323, 160.9034
1244.806, 161.2056
1245.288, 161.6348
1245.770, 161.8548
1246.252, 161.1999
1246.734, 160.3133
1247.216, 160.2578
1247.698, 161.0581
1248.180, 162.0201
1248.662, 163.3753
1249.145, 164.0773
1249.627, 163.5597
1250.109, 163.2494
1250.591, 163.5631
1251.073, 163.9271
1251.555, 164.1360
1252.037, 163.9549
1252.519, 162.8990
1253.002, 161.3101
1253.484, 160.8335
1253.966, 161.4457
1254.448, 162.4091
1254.930, 163.6345
1255.412, 164.4179
1255.894, 164.6109
1256.376, 164.3591
1256.859, 163.7383
1257.341, 163.4175
1257.823, 164.3464
1258.305, 165.5853
1258.787, 165.9647
1259.269, 165.8197
1259.751, 165.1337
1260.233, 164.5161
1260.715, 165.2294
1261.198, 167.0116
1261.680, 168.2454
1262.162, 168.4336
1262.644, 168.3299
1263.126, 168.0149
1263.608, 167.6648
1264.090, 166.9995
1264.572, 166.7206
1265.054, 167.8167
1265.537, 168.8526
1266.019, 168.1737
1266.501, 166.2851
1266.983, 164.8035
1267.465, 163.6968
1267.947, 163.4530
1268.429, 164.1158
1268.911, 165.2972
1269.394, 166.9476
1269.876, 168.3658
1270.358, 169.2688
1270.840, 169.1427
1271.322, 167.2390
1271.804, 165.2303
1272.286, 165.9284
1272.768, 168.0588
1273.250, 170.0794
1273.733, 171.5302
1274.215, 171.4617
1274.697, 170.2745
1275.179, 169.1175
1275.661, 168.3155
1276.143, 167.9335
1276.625, 168.4789
1277.107, 168.4784
1277.589, 166.6234
1278.072, 165.1929
1278.554, 165.3311
1279.036, 166.1694
1279.518, 167.2592
1280.000, 168.3883
1280.482, 169.2610
1280.964, 169.8652
1281.446, 169.8994
1281.929, 169.2707
1282.411, 168.6386
1282.893, 168.0289
1283.375, 167.6651
1283.857, 167.5983
1284.339, 167.6514
1284.821, 167.7276
1285.303, 168.0786
1285.786, 168.9640
1286.268, 170.3584
##END=



