##NAMES=Stibiotantalite
##RRUFFID=R050232
##IDEAL CHEMISTRY=Sb^3+^Ta^5+^O_4_
##LOCALITY=Himalaya mine, Mesa Grande, San Diego County, California, USA
##OWNER=RRUFF
##SOURCE=Marcus Origlieri
##DESCRIPTION=Brown crystal fragment
##STATUS=The identification of this mineral has been confirmed by X-ray diffraction and chemical analysis
##URL=rruff.info/R050232
##MEASURED CHEMISTRY=lighter and darker phases: Sb_1.00_(Ta_0.72_Nb_0.28_)_Î£=1_O_4_
100.9778, 1236.419
101.4600, 1338.992
101.9421, 1450.827
102.4242, 1570.083
102.9063, 1698.067
103.3884, 1832.441
103.8705, 1969.302
104.3527, 2108.301
104.8348, 2255.446
105.3169, 2412.712
105.7990, 2579.009
106.2811, 2760.382
106.7632, 2962.573
107.2454, 3172.766
107.7275, 3377.677
108.2096, 3583.917
108.6917, 3779.177
109.1738, 3959.751
109.6559, 4124.900
110.1381, 4290.384
110.6202, 4462.382
111.1023, 4633.591
111.5844, 4796.689
112.0665, 4954.478
112.5486, 5103.405
113.0308, 5245.806
113.5129, 5387.784
113.9950, 5508.163
114.4771, 5604.074
114.9592, 5676.459
115.4413, 5727.931
115.9235, 5748.084
116.4056, 5754.753
116.8877, 5755.834
117.3698, 5753.488
117.8519, 5743.783
118.3340, 5724.474
118.8162, 5696.687
119.2983, 5663.344
119.7804, 5621.904
120.2625, 5576.812
120.7446, 5531.774
121.2267, 5487.011
121.7089, 5442.782
122.1910, 5397.956
122.6731, 5353.253
123.1552, 5311.892
123.6373, 5277.654
124.1194, 5247.518
124.6016, 5216.850
125.0837, 5180.866
125.5658, 5147.260
126.0479, 5124.258
126.5300, 5111.620
127.0121, 5105.288
127.4943, 5099.322
127.9764, 5097.001
128.4585, 5105.818
128.9406, 5132.278
129.4227, 5170.466
129.9048, 5209.034
130.3869, 5247.509
130.8691, 5291.074
131.3512, 5347.280
131.8333, 5414.700
132.3154, 5485.141
132.7975, 5556.256
133.2796, 5627.827
133.7618, 5694.044
134.2439, 5741.167
134.7260, 5760.063
135.2081, 5776.289
135.6902, 5803.560
136.1723, 5832.426
136.6545, 5856.579
137.1366, 5876.063
137.6187, 5904.745
138.1008, 5946.143
138.5829, 5993.200
139.0650, 6029.827
139.5472, 6052.544
140.0293, 6079.235
140.5114, 6118.893
140.9935, 6172.126
141.4756, 6236.924
141.9577, 6316.960
142.4399, 6408.146
142.9220, 6491.933
143.4041, 6562.047
143.8862, 6637.269
144.3683, 6730.601
144.8504, 6845.126
145.3326, 6968.260
145.8147, 7095.695
146.2968, 7229.528
146.7789, 7372.936
147.2610, 7524.348
147.7431, 7687.547
148.2253, 7868.347
148.7074, 8075.029
149.1895, 8285.595
149.6716, 8493.319
150.1537, 8697.959
150.6358, 8910.135
151.1180, 9134.689
151.6001, 9363.211
152.0822, 9585.829
152.5643, 9790.808
153.0464, 10002.59
153.5285, 10227.13
154.0107, 10464.53
154.4928, 10697.31
154.9749, 10913.18
155.4570, 11130.53
155.9391, 11367.38
156.4212, 11641.10
156.9034, 11923.34
157.3855, 12204.94
157.8676, 12479.14
158.3497, 12770.46
158.8318, 13084.46
159.3139, 13419.53
159.7961, 13775.15
160.2782, 14139.33
160.7603, 14533.18
161.2424, 14963.64
161.7245, 15430.22
162.2066, 15936.60
162.6888, 16490.81
163.1709, 17084.20
163.6530, 17702.96
164.1351, 18339.19
164.6172, 19000.61
165.0993, 19693.68
165.5815, 20426.41
166.0636, 21174.57
166.5457, 21967.16
167.0278, 22772.93
167.5099, 23526.69
167.9920, 24250.25
168.4742, 24881.99
168.9563, 25382.62
169.4384, 25763.29
169.9205, 25975.00
170.4026, 25979.60
170.8847, 25792.36
171.3669, 25449.00
171.8490, 24900.52
172.3311, 24235.53
172.8132, 23537.32
173.2953, 22798.65
173.7774, 22069.80
174.2596, 21377.11
174.7417, 20722.87
175.2238, 20127.35
175.7059, 19603.79
176.1880, 19151.06
176.6701, 18770.60
177.1523, 18457.76
177.6344, 18222.08
178.1165, 18087.64
178.5986, 18045.52
179.0807, 18051.63
179.5628, 18072.29
180.0450, 18118.34
180.5271, 18211.11
181.0092, 18358.63
181.4913, 18552.90
181.9734, 18782.53
182.4555, 19047.37
182.9377, 19344.52
183.4198, 19680.19
183.9019, 20050.88
184.3840, 20440.97
184.8661, 20861.12
185.3482, 21290.37
185.8304, 21700.60
186.3125, 22090.04
186.7946, 22465.54
187.2767, 22848.96
187.7588, 23231.71
188.2409, 23557.09
188.7231, 23816.68
189.2052, 24009.24
189.6873, 24133.97
190.1694, 24191.66
190.6515, 24185.13
191.1336, 24119.75
191.6158, 23994.58
192.0979, 23801.58
192.5800, 23535.43
193.0621, 23199.21
193.5442, 22791.44
194.0263, 22302.79
194.5085, 21774.93
194.9906, 21249.58
195.4727, 20726.86
195.9548, 20198.97
196.4369, 19658.56
196.9190, 19114.04
197.4012, 18598.75
197.8833, 18108.92
198.3654, 17666.56
198.8475, 17312.98
199.3296, 17048.12
199.8117, 16829.32
200.2939, 16643.82
200.7760, 16494.03
201.2581, 16396.42
201.7402, 16354.83
202.2223, 16356.87
202.7044, 16391.53
203.1866, 16459.10
203.6687, 16553.26
204.1508, 16671.93
204.6329, 16815.27
205.1150, 16988.89
205.5971, 17196.61
206.0793, 17426.28
206.5614, 17659.97
207.0435, 17889.25
207.5256, 18153.22
208.0077, 18466.18
208.4898, 18827.29
208.9720, 19199.98
209.4541, 19580.48
209.9362, 19978.52
210.4183, 20407.92
210.9004, 20868.93
211.3825, 21350.23
211.8647, 21854.18
212.3468, 22381.00
212.8289, 22913.95
213.3110, 23450.69
213.7931, 23999.51
214.2752, 24566.75
214.7574, 25166.67
215.2395, 25758.49
215.7216, 26340.68
216.2037, 26908.81
216.6858, 27458.54
217.1679, 27988.83
217.6500, 28504.69
218.1322, 29002.69
218.6143, 29479.23
219.0964, 29959.24
219.5785, 30445.09
220.0606, 30942.83
220.5427, 31408.63
221.0249, 31827.56
221.5070, 32226.36
221.9891, 32625.22
222.4712, 33021.01
222.9533, 33432.65
223.4354, 33859.27
223.9176, 34307.47
224.3997, 34748.30
224.8818, 35171.70
225.3639, 35602.96
225.8460, 36084.10
226.3281, 36641.84
226.8103, 37189.07
227.2924, 37703.27
227.7745, 38192.46
228.2566, 38631.53
228.7387, 39017.02
229.2208, 39356.47
229.7030, 39659.84
230.1851, 39966.20
230.6672, 40164.55
231.1493, 40228.46
231.6314, 40156.12
232.1135, 40002.36
232.5957, 39786.91
233.0778, 39469.83
233.5599, 39007.29
234.0420, 38358.33
234.5241, 37646.75
235.0062, 36889.38
235.4884, 36092.74
235.9705, 35267.51
236.4526, 34387.81
236.9347, 33495.45
237.4168, 32623.11
237.8989, 31771.59
238.3811, 30941.43
238.8632, 30137.68
239.3453, 29356.92
239.8274, 28601.13
240.3095, 27858.56
240.7916, 27146.66
241.2738, 26480.15
241.7559, 25865.35
242.2380, 25286.51
242.7201, 24750.75
243.2022, 24254.49
243.6843, 23772.81
244.1665, 23300.71
244.6486, 22845.26
245.1307, 22409.37
245.6128, 21982.39
246.0949, 21598.18
246.5770, 21267.64
247.0592, 20987.01
247.5413, 20719.33
248.0234, 20467.10
248.5055, 20227.40
248.9876, 20000.15
249.4697, 19777.87
249.9519, 19581.86
250.4340, 19424.22
250.9161, 19296.78
251.3982, 19148.92
251.8803, 18969.80
252.3624, 18786.46
252.8446, 18621.58
253.3267, 18491.74
253.8088, 18337.99
254.2909, 18155.57
254.7730, 17945.00
255.2551, 17712.18
255.7373, 17455.87
256.2194, 17180.68
256.7015, 16892.64
257.1836, 16591.17
257.6657, 16274.44
258.1478, 15938.24
258.6299, 15589.09
259.1121, 15235.63
259.5942, 14872.81
260.0763, 14512.55
260.5584, 14151.85
261.0405, 13791.16
261.5226, 13438.56
262.0048, 13089.27
262.4869, 12751.38
262.9690, 12436.28
263.4511, 12151.47
263.9332, 11877.28
264.4153, 11605.75
264.8975, 11331.85
265.3796, 11071.19
265.8617, 10822.40
266.3438, 10585.99
266.8259, 10356.46
267.3080, 10134.25
267.7902, 9922.315
268.2723, 9729.918
268.7544, 9558.160
269.2365, 9376.332
269.7186, 9179.002
270.2007, 8978.823
270.6829, 8800.701
271.1650, 8651.036
271.6471, 8501.486
272.1292, 8343.687
272.6113, 8177.247
273.0934, 8018.417
273.5756, 7868.800
274.0577, 7726.440
274.5398, 7588.202
275.0219, 7455.649
275.5040, 7322.690
275.9861, 7187.185
276.4683, 7049.422
276.9504, 6912.857
277.4325, 6776.877
277.9146, 6643.642
278.3967, 6516.443
278.8788, 6396.427
279.3610, 6275.319
279.8431, 6149.122
280.3252, 6021.438
280.8073, 5906.611
281.2894, 5806.700
281.7715, 5711.208
282.2537, 5610.633
282.7358, 5504.844
283.2179, 5400.151
283.7000, 5296.417
284.1821, 5195.009
284.6642, 5104.315
285.1464, 5024.965
285.6285, 4946.612
286.1106, 4859.183
286.5927, 4763.702
287.0748, 4674.592
287.5569, 4593.864
288.0391, 4520.312
288.5212, 4453.403
289.0033, 4392.852
289.4854, 4336.472
289.9675, 4282.657
290.4496, 4231.501
290.9318, 4186.433
291.4139, 4149.257
291.8960, 4113.710
292.3781, 4068.962
292.8602, 4015.471
293.3423, 3962.616
293.8245, 3913.287
294.3066, 3867.986
294.7887, 3829.906
295.2708, 3800.833
295.7529, 3773.236
296.2350, 3736.547
296.7172, 3692.625
297.1993, 3649.828
297.6814, 3609.802
298.1635, 3573.452
298.6456, 3545.725
299.1277, 3527.183
299.6099, 3508.273
300.0920, 3478.555
300.5741, 3440.847
301.0562, 3403.646
301.5383, 3368.716
302.0204, 3336.383
302.5026, 3308.388
302.9847, 3284.365
303.4668, 3261.648
303.9489, 3236.758
304.4310, 3211.757
304.9131, 3189.344
305.3953, 3171.337
305.8774, 3155.474
306.3595, 3140.117
306.8416, 3125.275
307.3237, 3110.526
307.8058, 3095.173
308.2880, 3080.090
308.7701, 3066.176
309.2522, 3052.929
309.7343, 3042.024
310.2164, 3035.583
310.6985, 3032.657
311.1807, 3030.692
311.6628, 3031.013
312.1449, 3030.200
312.6270, 3023.813
313.1091, 3008.856
313.5912, 2996.536
314.0734, 2996.300
314.5555, 3002.874
315.0376, 3006.686
315.5197, 2999.899
316.0018, 2991.776
316.4839, 2988.517
316.9661, 2991.183
317.4482, 2993.692
317.9303, 2994.749
318.4124, 2993.781
318.8945, 2990.117
319.3766, 2980.852
319.8588, 2971.312
320.3409, 2965.172
320.8230, 2962.388
321.3051, 2955.634
321.7872, 2940.776
322.2693, 2922.266
322.7515, 2903.613
323.2336, 2887.760
323.7157, 2869.489
324.1978, 2845.725
324.6799, 2817.839
325.1620, 2792.605
325.6442, 2774.719
326.1263, 2757.048
326.6084, 2735.834
327.0905, 2706.755
327.5726, 2679.546
328.0547, 2656.607
328.5369, 2636.135
329.0190, 2612.667
329.5011, 2583.117
329.9832, 2553.713
330.4653, 2526.194
330.9474, 2499.956
331.4296, 2477.354
331.9117, 2460.191
332.3938, 2445.903
332.8759, 2430.703
333.3580, 2413.143
333.8401, 2396.689
334.3223, 2382.363
334.8044, 2370.180
335.2865, 2358.800
335.7686, 2346.897
336.2507, 2337.383
336.7328, 2334.930
337.2150, 2344.904
337.6971, 2346.946
338.1792, 2334.813
338.6613, 2311.438
339.1434, 2295.034
339.6255, 2287.552
340.1076, 2282.368
340.5898, 2275.088
341.0719, 2265.719
341.5540, 2255.018
342.0361, 2243.035
342.5182, 2229.917
343.0003, 2215.527
343.4825, 2199.692
343.9646, 2184.644
344.4467, 2172.286
344.9288, 2162.497
345.4109, 2151.331
345.8930, 2138.554
346.3752, 2125.028
346.8573, 2111.471
347.3394, 2097.932
347.8215, 2086.534
348.3036, 2080.345
348.7857, 2076.630
349.2679, 2066.021
349.7500, 2048.258
350.2321, 2030.373
350.7142, 2019.652
351.1963, 2014.480
351.6784, 2010.174
352.1606, 2005.992
352.6427, 2001.432
353.1248, 1995.882
353.6069, 1989.290
354.0890, 1981.620
354.5711, 1973.239
355.0533, 1963.683
355.5354, 1951.359
356.0175, 1934.538
356.4996, 1918.900
356.9817, 1910.396
357.4638, 1906.845
357.9460, 1903.034
358.4281, 1895.646
358.9102, 1887.360
359.3923, 1880.733
359.8744, 1876.219
360.3565, 1871.101
360.8387, 1863.359
361.3208, 1854.291
361.8029, 1845.539
362.2850, 1836.902
362.7671, 1829.342
363.2492, 1823.416
363.7314, 1819.048
364.2135, 1815.376
364.6956, 1812.955
365.1777, 1810.646
365.6598, 1807.645
366.1419, 1802.588
366.6241, 1798.313
367.1062, 1796.354
367.5883, 1795.725
368.0704, 1793.524
368.5525, 1788.809
369.0346, 1783.017
369.5168, 1776.091
369.9989, 1765.724
370.4810, 1759.688
370.9631, 1759.801
371.4452, 1763.439
371.9273, 1767.305
372.4095, 1772.905
372.8916, 1776.388
373.3737, 1776.040
373.8558, 1771.664
374.3379, 1770.022
374.8200, 1772.538
375.3022, 1775.847
375.7843, 1776.663
376.2664, 1773.557
376.7485, 1772.823
377.2306, 1775.527
377.7127, 1781.009
378.1949, 1787.073
378.6770, 1793.500
379.1591, 1801.177
379.6412, 1810.827
380.1233, 1822.537
380.6054, 1834.330
381.0876, 1846.214
381.5697, 1857.846
382.0518, 1868.407
382.5339, 1877.916
383.0160, 1888.503
383.4981, 1901.901
383.9803, 1916.833
384.4624, 1929.009
384.9445, 1938.384
385.4266, 1946.627
385.9087, 1956.099
386.3908, 1965.709
386.8730, 1972.570
387.3551, 1975.381
387.8372, 1976.188
388.3193, 1977.488
388.8014, 1979.029
389.2835, 1979.700
389.7657, 1976.847
390.2478, 1973.719
390.7299, 1974.791
391.2120, 1981.700
391.6941, 1987.798
392.1762, 1986.374
392.6584, 1981.407
393.1405, 1979.203
393.6226, 1987.334
394.1047, 1994.545
394.5868, 1992.536
395.0689, 1981.510
395.5511, 1974.374
396.0332, 1979.100
396.5153, 1987.699
396.9974, 1994.066
397.4795, 1993.355
397.9616, 1994.541
398.4438, 2001.302
398.9259, 2011.474
399.4080, 2018.265
399.8901, 2014.460
400.3722, 2012.983
400.8543, 2019.494
401.3365, 2038.341
401.8186, 2052.480
402.3007, 2059.864
402.7828, 2063.773
403.2649, 2067.824
403.7470, 2070.659
404.2292, 2076.330
404.7113, 2086.378
405.1934, 2100.396
405.6755, 2112.948
406.1576, 2122.945
406.6397, 2133.646
407.1219, 2148.096
407.6040, 2166.965
408.0861, 2183.774
408.5682, 2197.368
409.0503, 2209.530
409.5324, 2224.425
410.0146, 2242.130
410.4967, 2260.356
410.9788, 2276.842
411.4609, 2292.627
411.9430, 2313.704
412.4251, 2340.735
412.9073, 2368.769
413.3894, 2394.172
413.8715, 2417.237
414.3536, 2438.090
414.8357, 2455.211
415.3178, 2472.247
415.8000, 2494.668
416.2821, 2521.542
416.7642, 2547.627
417.2463, 2569.023
417.7284, 2588.338
418.2105, 2607.775
418.6927, 2627.813
419.1748, 2648.240
419.6569, 2669.561
420.1390, 2691.504
420.6211, 2712.999
421.1032, 2733.406
421.5854, 2754.195
422.0675, 2775.110
422.5496, 2796.500
423.0317, 2821.087
423.5138, 2849.796
423.9959, 2881.962
424.4781, 2917.754
424.9602, 2959.082
425.4423, 3000.490
425.9244, 3041.569
426.4065, 3082.700
426.8886, 3124.673
427.3708, 3165.667
427.8529, 3210.456
428.3350, 3261.662
428.8171, 3320.606
429.2992, 3376.821
429.7813, 3429.971
430.2635, 3480.675
430.7456, 3529.174
431.2277, 3573.874
431.7098, 3622.262
432.1919, 3676.363
432.6740, 3734.532
433.1562, 3792.310
433.6383, 3849.829
434.1204, 3905.447
434.6025, 3957.410
435.0846, 4006.250
435.5667, 4055.565
436.0489, 4106.251
436.5310, 4156.124
437.0131, 4202.321
437.4952, 4245.331
437.9773, 4286.033
438.4594, 4323.869
438.9415, 4360.334
439.4236, 4397.750
439.9058, 4436.060
440.3879, 4473.190
440.8700, 4509.520
441.3521, 4543.665
441.8342, 4573.908
442.3163, 4599.404
442.7985, 4622.734
443.2806, 4649.162
443.7627, 4673.644
444.2448, 4688.646
444.7269, 4683.608
445.2090, 4675.610
445.6912, 4672.634
446.1733, 4674.913
446.6554, 4671.531
447.1375, 4660.964
447.6196, 4643.644
448.1017, 4619.665
448.5839, 4585.560
449.0660, 4549.619
449.5481, 4513.422
450.0302, 4475.294
450.5123, 4431.682
450.9944, 4382.185
451.4766, 4328.757
451.9587, 4271.030
452.4408, 4208.244
452.9229, 4148.312
453.4050, 4091.113
453.8871, 4035.060
454.3693, 3977.814
454.8514, 3919.039
455.3335, 3861.185
455.8156, 3803.602
456.2977, 3747.527
456.7798, 3695.794
457.2620, 3647.739
457.7441, 3600.819
458.2262, 3550.591
458.7083, 3500.800
459.1904, 3461.005
459.6725, 3432.159
460.1547, 3402.083
460.6368, 3356.934
461.1189, 3303.982
461.6010, 3255.599
462.0831, 3215.860
462.5652, 3181.153
463.0474, 3150.768
463.5295, 3123.737
464.0116, 3098.085
464.4937, 3071.610
464.9758, 3047.504
465.4579, 3029.452
465.9401, 3019.447
466.4222, 3005.958
466.9043, 2980.561
467.3864, 2953.128
467.8685, 2932.958
468.3506, 2929.332
468.8328, 2923.157
469.3149, 2911.868
469.7970, 2896.643
470.2791, 2881.138
470.7612, 2862.950
471.2433, 2848.379
471.7255, 2841.098
472.2076, 2842.654
472.6897, 2841.551
473.1718, 2837.360
473.6539, 2831.287
474.1360, 2823.727
474.6182, 2814.492
475.1003, 2808.035
475.5824, 2806.266
476.0645, 2806.860
476.5466, 2803.119
477.0287, 2795.519
477.5109, 2790.679
477.9930, 2796.894
478.4751, 2807.742
478.9572, 2809.761
479.4393, 2801.521
479.9214, 2791.015
480.4036, 2782.788
480.8857, 2777.517
481.3678, 2776.519
481.8499, 2783.605
482.3320, 2791.274
482.8141, 2794.674
483.2963, 2794.934
483.7784, 2795.439
484.2605, 2796.921
484.7426, 2799.474
485.2247, 2803.377
485.7068, 2808.935
486.1890, 2814.637
486.6711, 2821.611
487.1532, 2827.994
487.6353, 2831.882
488.1174, 2829.124
488.5995, 2830.342
489.0817, 2837.360
489.5638, 2848.920
490.0459, 2861.222
490.5280, 2874.165
491.0101, 2888.072
491.4922, 2903.541
491.9744, 2920.698
492.4565, 2936.347
492.9386, 2950.167
493.4207, 2964.221
493.9028, 2981.168
494.3849, 3000.556
494.8671, 3018.585
495.3492, 3034.354
495.8313, 3048.899
496.3134, 3063.229
496.7955, 3077.576
497.2776, 3093.115
497.7598, 3110.208
498.2419, 3128.955
498.7240, 3148.770
499.2061, 3169.858
499.6882, 3193.759
500.1703, 3224.260
500.6525, 3256.682
501.1346, 3286.551
501.6167, 3312.588
502.0988, 3336.911
502.5809, 3357.523
503.0630, 3377.059
503.5452, 3400.660
504.0273, 3430.997
504.5094, 3463.063
504.9915, 3496.831
505.4736, 3532.352
505.9557, 3561.771
506.4379, 3580.977
506.9200, 3599.194
507.4021, 3622.907
507.8842, 3653.543
508.3663, 3685.334
508.8484, 3719.501
509.3306, 3752.594
509.8127, 3776.448
510.2948, 3791.301
510.7769, 3810.220
511.2590, 3839.398
511.7411, 3875.314
512.2233, 3909.993
512.7054, 3943.608
513.1875, 3975.797
513.6696, 4005.742
514.1517, 4034.321
514.6339, 4062.687
515.1160, 4091.095
515.5981, 4119.124
516.0802, 4143.950
516.5623, 4169.149
517.0444, 4199.522
517.5266, 4246.335
518.0087, 4288.583
518.4908, 4315.002
518.9729, 4329.249
519.4550, 4348.424
519.9371, 4379.763
520.4193, 4412.417
520.9014, 4441.003
521.3835, 4463.278
521.8656, 4492.032
522.3477, 4530.597
522.8298, 4571.960
523.3120, 4609.829
523.7941, 4643.153
524.2762, 4674.552
524.7583, 4703.676
525.2404, 4731.986
525.7225, 4762.292
526.2047, 4794.732
526.6868, 4828.017
527.1689, 4861.544
527.6510, 4895.545
528.1331, 4930.989
528.6152, 4968.170
529.0974, 5005.792
529.5795, 5041.453
530.0616, 5078.023
530.5437, 5120.147
531.0258, 5171.867
531.5079, 5221.575
531.9901, 5259.215
532.4722, 5291.858
532.9543, 5329.890
533.4364, 5383.681
533.9185, 5436.584
534.4006, 5482.207
534.8828, 5521.056
535.3649, 5563.536
535.8470, 5616.569
536.3291, 5666.517
536.8112, 5705.324
537.2933, 5727.100
537.7755, 5760.732
538.2576, 5809.236
538.7397, 5864.878
539.2218, 5920.730
539.7039, 5976.745
540.1860, 6026.107
540.6682, 6066.252
541.1503, 6099.971
541.6324, 6130.139
542.1145, 6157.583
542.5966, 6191.396
543.0787, 6243.084
543.5609, 6301.545
544.0430, 6348.015
544.5251, 6382.634
545.0072, 6414.500
545.4893, 6447.075
545.9714, 6481.295
546.4536, 6518.971
546.9357, 6562.815
547.4178, 6603.996
547.8999, 6637.273
548.3820, 6666.202
548.8641, 6695.677
549.3463, 6723.784
549.8284, 6755.674
550.3105, 6796.078
550.7926, 6842.370
551.2747, 6878.496
551.7568, 6896.365
552.2390, 6918.337
552.7211, 6957.103
553.2032, 7014.958
553.6853, 7059.617
554.1674, 7087.532
554.6495, 7113.270
555.1317, 7151.219
555.6138, 7199.961
556.0959, 7255.101
556.5780, 7317.950
557.0601, 7381.802
557.5422, 7434.578
558.0244, 7480.462
558.5065, 7531.710
558.9886, 7592.795
559.4707, 7662.397
559.9528, 7739.737
560.4349, 7824.524
560.9171, 7913.464
561.3992, 8007.197
561.8813, 8103.300
562.3634, 8198.172
562.8455, 8289.631
563.3276, 8387.889
563.8098, 8493.549
564.2919, 8607.188
564.7740, 8731.675
565.2561, 8875.303
565.7382, 9012.207
566.2203, 9135.530
566.7025, 9255.195
567.1846, 9391.826
567.6667, 9547.928
568.1488, 9712.260
568.6309, 9878.857
569.1130, 10050.29
569.5952, 10230.61
570.0773, 10422.14
570.5594, 10615.26
571.0415, 10803.99
571.5236, 10994.48
572.0057, 11193.76
572.4879, 11404.95
572.9700, 11623.78
573.4521, 11844.20
573.9342, 12072.69
574.4163, 12314.11
574.8984, 12580.71
575.3806, 12847.13
575.8627, 13097.38
576.3448, 13342.73
576.8269, 13616.53
577.3090, 13949.19
577.7911, 14280.74
578.2733, 14596.54
578.7554, 14893.39
579.2375, 15213.08
579.7196, 15561.74
580.2017, 15916.41
580.6838, 16253.74
581.1660, 16572.76
581.6481, 16915.50
582.1302, 17286.32
582.6123, 17664.18
583.0944, 18017.57
583.5765, 18353.27
584.0587, 18693.16
584.5408, 19041.26
585.0229, 19394.13
585.5050, 19756.14
585.9871, 20122.15
586.4692, 20472.98
586.9513, 20781.04
587.4334, 21093.80
587.9155, 21442.93
588.3976, 21826.26
588.8798, 22187.49
589.3619, 22531.13
589.8440, 22835.86
590.3261, 23085.79
590.8082, 23255.91
591.2903, 23451.38
591.7725, 23690.84
592.2546, 23929.53
592.7367, 24121.86
593.2188, 24265.95
593.7009, 24377.91
594.1830, 24457.21
594.6652, 24510.99
595.1473, 24561.38
595.6294, 24603.12
596.1115, 24608.67
596.5936, 24560.23
597.0757, 24473.58
597.5579, 24363.57
598.0400, 24232.71
598.5221, 24082.71
599.0042, 23914.21
599.4863, 23728.10
599.9684, 23523.45
600.4506, 23301.43
600.9327, 23065.76
601.4148, 22814.74
601.8969, 22551.17
602.3790, 22277.37
602.8611, 21987.99
603.3433, 21693.81
603.8254, 21396.00
604.3075, 21094.47
604.7896, 20797.24
605.2717, 20504.41
605.7538, 20199.24
606.2360, 19877.62
606.7181, 19547.52
607.2002, 19243.59
607.6823, 18961.22
608.1644, 18674.72
608.6465, 18361.16
609.1287, 18041.01
609.6108, 17747.20
610.0929, 17479.62
610.5750, 17220.53
611.0571, 16955.80
611.5392, 16695.03
612.0214, 16447.83
612.5035, 16219.80
612.9856, 15987.63
613.4677, 15731.36
613.9498, 15475.37
614.4319, 15241.10
614.9141, 15030.94
615.3962, 14834.46
615.8783, 14655.93
616.3604, 14486.08
616.8425, 14308.11
617.3246, 14121.77
617.8068, 13934.17
618.2889, 13747.67
618.7710, 13565.42
619.2531, 13401.90
619.7352, 13253.79
620.2173, 13105.95
620.6995, 12938.51
621.1816, 12770.24
621.6637, 12630.23
622.1458, 12518.76
622.6279, 12405.19
623.1100, 12272.82
623.5922, 12132.09
624.0743, 11990.32
624.5564, 11844.08
625.0385, 11705.89
625.5206, 11587.36
626.0027, 11472.63
626.4849, 11343.20
626.9670, 11189.46
627.4491, 11044.15
627.9312, 10915.37
628.4133, 10795.04
628.8954, 10662.04
629.3776, 10516.94
629.8597, 10373.15
630.3418, 10235.00
630.8239, 10101.29
631.3060, 9973.093
631.7881, 9848.873
632.2703, 9719.014
632.7524, 9567.927
633.2345, 9414.670
633.7166, 9275.715
634.1987, 9154.813
634.6808, 9031.986
635.1630, 8891.822
635.6451, 8752.551
636.1272, 8628.071
636.6093, 8534.580
637.0914, 8428.736
637.5735, 8305.002
638.0557, 8174.669
638.5378, 8052.903
639.0199, 7939.262
639.5020, 7834.610
639.9841, 7741.923
640.4662, 7654.038
640.9484, 7550.962
641.4305, 7436.056
641.9126, 7328.409
642.3947, 7235.950
642.8768, 7154.796
643.3589, 7083.099
643.8411, 7018.447
644.3232, 6951.931
644.8053, 6874.162
645.2874, 6796.239
645.7695, 6722.312
646.2516, 6653.362
646.7338, 6588.895
647.2159, 6530.434
647.6980, 6475.611
648.1801, 6423.679
648.6622, 6373.047
649.1443, 6328.962
649.6265, 6293.126
650.1086, 6259.907
650.5907, 6222.659
651.0728, 6181.542
651.5549, 6142.887
652.0370, 6106.984
652.5192, 6076.366
653.0013, 6058.029
653.4834, 6048.434
653.9655, 6039.328
654.4476, 6025.870
654.9297, 6013.555
655.4119, 6005.431
655.8940, 6001.201
656.3761, 5999.698
656.8582, 6000.095
657.3403, 6003.772
657.8224, 6012.626
658.3046, 6026.226
658.7867, 6036.543
659.2688, 6038.278
659.7509, 6046.797
660.2330, 6072.473
660.7151, 6115.308
661.1973, 6156.315
661.6794, 6195.724
662.1615, 6231.572
662.6436, 6257.960
663.1257, 6279.953
663.6078, 6309.713
664.0900, 6350.245
664.5721, 6393.445
665.0542, 6433.433
665.5363, 6472.792
666.0184, 6514.736
666.5005, 6562.931
666.9827, 6610.118
667.4648, 6655.770
667.9469, 6699.063
668.4290, 6737.793
668.9111, 6768.209
669.3932, 6802.143
669.8754, 6845.258
670.3575, 6891.502
670.8396, 6917.732
671.3217, 6922.562
671.8038, 6928.289
672.2859, 6953.015
672.7681, 6982.406
673.2502, 6983.063
673.7323, 6957.776
674.2144, 6926.813
674.6965, 6901.510
675.1786, 6878.080
675.6608, 6856.354
676.1429, 6836.999
676.6250, 6806.855
677.1071, 6757.726
677.5892, 6699.083
678.0714, 6637.157
678.5535, 6571.222
679.0356, 6504.133
679.5177, 6437.584
679.9998, 6367.874
680.4819, 6292.383
680.9641, 6210.058
681.4462, 6126.975
681.9283, 6042.804
682.4104, 5959.579
682.8925, 5882.354
683.3746, 5808.479
683.8568, 5735.024
684.3389, 5662.210
684.8210, 5585.467
685.3031, 5495.096
685.7852, 5398.133
686.2673, 5309.104
686.7495, 5238.757
687.2316, 5168.962
687.7137, 5094.534
688.1958, 5016.272
688.6779, 4936.575
689.1600, 4851.500
689.6422, 4772.006
690.1243, 4703.559
690.6064, 4644.112
691.0885, 4583.950
691.5706, 4522.746
692.0527, 4462.969
692.5349, 4405.602
693.0170, 4349.724
693.4991, 4293.212
693.9812, 4236.158
694.4633, 4179.460
694.9454, 4121.338
695.4276, 4066.074
695.9097, 4017.378
696.3918, 3978.521
696.8739, 3938.137
697.3560, 3891.691
697.8381, 3844.885
698.3203, 3802.275
698.8024, 3765.313
699.2845, 3727.273
699.7666, 3687.195
700.2487, 3648.000
700.7308, 3616.202
701.2130, 3590.174
701.6951, 3558.502
702.1772, 3515.515
702.6593, 3472.295
703.1414, 3444.577
703.6235, 3426.052
704.1057, 3404.837
704.5878, 3373.250
705.0699, 3341.176
705.5520, 3310.635
706.0341, 3282.427
706.5162, 3259.864
706.9984, 3247.648
707.4805, 3233.887
707.9626, 3215.626
708.4447, 3193.443
708.9268, 3169.090
709.4089, 3142.089
709.8911, 3118.221
710.3732, 3101.941
710.8553, 3090.621
711.3374, 3078.986
711.8195, 3066.770
712.3016, 3051.261
712.7838, 3025.113
713.2659, 2998.727
713.7480, 2982.253
714.2301, 2977.015
714.7122, 2970.028
715.1943, 2957.875
715.6765, 2942.407
716.1586, 2924.151
716.6407, 2901.052
717.1228, 2883.311
717.6049, 2872.440
718.0870, 2863.609
718.5692, 2852.994
719.0513, 2840.630
719.5334, 2826.581
720.0155, 2810.592
720.4976, 2793.844
720.9797, 2775.947
721.4619, 2758.412
721.9440, 2743.775
722.4261, 2734.881
722.9082, 2724.487
723.3903, 2705.995
723.8724, 2685.220
724.3546, 2669.564
724.8367, 2668.120
725.3188, 2660.168
725.8009, 2642.519
726.2830, 2618.610
726.7651, 2594.171
727.2473, 2568.601
727.7294, 2545.456
728.2115, 2525.814
728.6936, 2508.838
729.1757, 2495.436
729.6578, 2484.076
730.1400, 2469.744
730.6221, 2445.742
731.1042, 2421.682
731.5863, 2405.699
732.0684, 2395.532
732.5505, 2383.624
733.0327, 2366.110
733.5148, 2348.601
733.9969, 2332.357
734.4790, 2317.589
734.9611, 2305.368
735.4432, 2296.940
735.9254, 2286.749
736.4075, 2270.740
736.8896, 2250.981
737.3717, 2235.646
737.8538, 2224.677
738.3359, 2215.546
738.8181, 2207.749
739.3002, 2200.189
739.7823, 2190.779
740.2644, 2179.510
740.7465, 2171.060
741.2286, 2171.513
741.7108, 2171.841
742.1929, 2165.726
742.6750, 2151.310
743.1571, 2140.966
743.6392, 2135.644
744.1213, 2132.294
744.6035, 2128.574
745.0856, 2124.576
745.5677, 2122.566
746.0498, 2122.892
746.5319, 2122.815
747.0140, 2119.503
747.4962, 2114.253
747.9783, 2108.087
748.4604, 2100.177
748.9425, 2096.258
749.4246, 2102.860
749.9067, 2112.673
750.3889, 2119.076
750.8710, 2119.822
751.3531, 2120.046
751.8352, 2119.018
752.3173, 2118.425
752.7994, 2120.612
753.2816, 2125.669
753.7637, 2129.975
754.2458, 2132.637
754.7279, 2135.905
755.2100, 2143.123
755.6921, 2152.949
756.1743, 2162.956
756.6564, 2172.432
757.1385, 2181.705
757.6206, 2188.973
758.1027, 2196.757
758.5848, 2208.630
759.0670, 2228.179
759.5491, 2247.859
760.0312, 2267.861
760.5133, 2287.335
760.9954, 2304.814
761.4775, 2320.270
761.9597, 2333.904
762.4418, 2344.446
762.9239, 2355.527
763.4060, 2375.124
763.8881, 2399.919
764.3702, 2421.513
764.8524, 2429.975
765.3345, 2439.876
765.8166, 2459.619
766.2987, 2486.744
766.7808, 2514.694
767.2629, 2544.471
767.7451, 2572.333
768.2272, 2598.488
768.7093, 2622.109
769.1914, 2639.948
769.6735, 2651.177
770.1556, 2666.335
770.6378, 2691.564
771.1199, 2721.266
771.6020, 2745.530
772.0841, 2765.141
772.5662, 2782.967
773.0483, 2799.698
773.5305, 2815.808
774.0126, 2831.855
774.4947, 2847.625
774.9768, 2861.916
775.4589, 2872.904
775.9410, 2884.836
776.4232, 2900.384
776.9053, 2918.037
777.3874, 2926.347
777.8695, 2924.498
778.3516, 2924.267
778.8337, 2936.296
779.3159, 2951.970
779.7980, 2951.833
780.2801, 2938.594
780.7622, 2926.318
781.2443, 2925.785
781.7264, 2926.260
782.2086, 2920.801
782.6907, 2909.427
783.1728, 2899.542
783.6548, 2893.585
784.1370, 2886.638
784.6191, 2876.449
785.1012, 2863.455
785.5833, 2851.603
786.0654, 2841.043
786.5475, 2828.787
787.0297, 2812.886
787.5118, 2794.004
787.9939, 2773.258
788.4760, 2750.754
788.9581, 2728.154
789.4402, 2706.696
789.9224, 2685.354
790.4045, 2664.322
790.8866, 2643.586
791.3687, 2620.185
791.8508, 2592.468
792.3329, 2565.613
792.8151, 2542.302
793.2972, 2522.250
793.7793, 2505.981
794.2614, 2493.533
794.7435, 2477.436
795.2256, 2449.510
795.7078, 2416.420
796.1899, 2386.515
796.6720, 2360.057
797.1541, 2337.419
797.6362, 2322.242
798.1183, 2307.868
798.6005, 2290.376
799.0826, 2269.357
799.5647, 2249.744
800.0468, 2231.800
800.5289, 2214.684
801.0110, 2197.865
801.4932, 2181.379
801.9753, 2165.199
802.4574, 2149.311
802.9395, 2133.143
803.4216, 2115.033
803.9037, 2097.235
804.3859, 2082.938
804.8680, 2072.230
805.3501, 2060.183
805.8322, 2043.164
806.3143, 2026.149
806.7964, 2011.883
807.2786, 2000.680
807.7607, 1987.420
808.2428, 1971.597
808.7249, 1955.660
809.2070, 1941.818
809.6891, 1929.099
810.1713, 1912.680
810.6534, 1893.166
811.1355, 1876.911
811.6176, 1870.995
812.0997, 1867.914
812.5818, 1862.308
813.0640, 1853.712
813.5461, 1843.909
814.0282, 1831.070
814.5103, 1819.446
814.9924, 1811.407
815.4745, 1806.709
815.9567, 1799.864
816.4388, 1790.578
816.9209, 1781.902
817.4030, 1777.579
817.8851, 1774.514
818.3672, 1766.773
818.8494, 1754.719
819.3315, 1741.955
819.8136, 1728.729
820.2957, 1716.806
820.7778, 1706.985
821.2599, 1699.389
821.7421, 1695.772
822.2242, 1700.113
822.7063, 1700.355
823.1884, 1688.779
823.6705, 1668.527
824.1526, 1655.695
824.6348, 1650.007
825.1169, 1647.222
825.5990, 1647.675
826.0811, 1647.431
826.5632, 1640.885
827.0453, 1629.113
827.5275, 1619.672
828.0096, 1616.518
828.4917, 1614.618
828.9738, 1612.714
829.4559, 1610.572
829.9380, 1606.137
830.4202, 1599.031
830.9023, 1591.622
831.3844, 1584.228
831.8665, 1577.703
832.3486, 1574.880
832.8307, 1574.921
833.3129, 1573.951
833.7950, 1569.764
834.2771, 1564.090
834.7592, 1556.369
835.2413, 1547.569
835.7234, 1542.668
836.2056, 1545.042
836.6877, 1545.820
837.1698, 1542.157
837.6519, 1535.589
838.1340, 1531.016
838.6161, 1528.258
839.0983, 1525.021
839.5804, 1519.517
840.0625, 1513.926
840.5446, 1511.707
841.0267, 1511.400
841.5089, 1509.542
841.9910, 1501.940
842.4731, 1495.979
842.9552, 1494.932
843.4373, 1496.592
843.9194, 1496.702
844.4016, 1495.245
844.8837, 1492.080
845.3658, 1486.518
845.8479, 1480.519
846.3300, 1478.734
846.8121, 1479.418
847.2943, 1477.502
847.7764, 1469.654
848.2585, 1461.145
848.7406, 1454.740
849.2227, 1449.791
849.7048, 1445.344
850.1870, 1440.615
850.6691, 1437.605
851.1512, 1436.938
851.6333, 1437.436
852.1154, 1438.033
852.5975, 1438.515
853.0797, 1436.193
853.5618, 1429.707
854.0439, 1423.679
854.5260, 1424.255
855.0081, 1427.542
855.4902, 1428.275
855.9724, 1423.761
856.4545, 1419.684
856.9366, 1417.688
857.4187, 1416.101
857.9008, 1413.170
858.3829, 1408.405
858.8651, 1406.106
859.3472, 1406.981
859.8293, 1407.901
860.3114, 1404.877
860.7935, 1399.831
861.2756, 1396.631
861.7578, 1395.995
862.2399, 1394.765
862.7220, 1389.152
863.2041, 1383.953
863.6862, 1383.887
864.1683, 1390.702
864.6505, 1391.591
865.1326, 1384.581
865.6147, 1376.972
866.0968, 1375.876
866.5789, 1378.674
867.0610, 1372.326
867.5432, 1357.241
868.0253, 1346.014
868.5074, 1351.754
868.9895, 1360.786
869.4716, 1362.475
869.9537, 1356.341
870.4359, 1351.306
870.9180, 1347.652
871.4001, 1346.135
871.8822, 1348.138
872.3643, 1352.438
872.8464, 1351.840
873.3286, 1346.599
873.8107, 1342.064
874.2928, 1341.873
874.7749, 1343.288
875.2570, 1344.047
875.7391, 1344.027
876.2213, 1342.825
876.7034, 1336.902
877.1855, 1334.131
877.6676, 1338.859
878.1497, 1346.881
878.6318, 1346.471
879.1140, 1336.561
879.5961, 1329.062
880.0782, 1327.936
880.5603, 1329.079
881.0424, 1326.354
881.5245, 1321.446
882.0067, 1317.783
882.4888, 1316.953
882.9709, 1316.930
883.4530, 1317.602
883.9351, 1318.410
884.4172, 1318.341
884.8994, 1316.395
885.3815, 1317.560
885.8636, 1323.153
886.3457, 1329.042
886.8278, 1329.849
887.3099, 1327.046
887.7921, 1323.963
888.2742, 1321.046
888.7563, 1318.571
889.2384, 1317.997
889.7205, 1317.089
890.2026, 1313.560
890.6848, 1306.294
891.1669, 1300.708
891.6490, 1296.780
892.1311, 1294.727
892.6132, 1295.344
893.0953, 1298.048
893.5775, 1301.148
894.0596, 1304.470
894.5417, 1305.716
895.0238, 1300.909
895.5059, 1295.547
895.9880, 1295.144
896.4702, 1299.336
896.9523, 1298.066
897.4344, 1286.490
897.9165, 1277.304
898.3986, 1275.913
898.8807, 1279.693
899.3629, 1280.100
899.8450, 1277.321
900.3271, 1272.654
900.8092, 1264.580
901.2913, 1257.121
901.7734, 1254.701
902.2556, 1255.364
902.7377, 1254.949
903.2198, 1252.804
903.7019, 1248.873
904.1840, 1242.212
904.6661, 1234.644
905.1483, 1229.281
905.6304, 1225.955
906.1125, 1222.918
906.5946, 1220.000
907.0767, 1216.528
907.5588, 1211.269
908.0410, 1205.355
908.5231, 1200.586
909.0052, 1199.288
909.4873, 1193.631
909.9694, 1178.664
910.4515, 1163.529
910.9337, 1155.008
911.4158, 1153.405
911.8979, 1152.744
912.3800, 1153.106
912.8621, 1151.177
913.3442, 1141.906
913.8264, 1130.373
914.3085, 1122.607
914.7906, 1118.808
915.2727, 1115.437
915.7548, 1113.175
916.2369, 1109.129
916.7191, 1101.514
917.2012, 1091.272
917.6833, 1083.316
918.1654, 1077.686
918.6475, 1072.922
919.1296, 1068.738
919.6118, 1064.693
920.0939, 1060.427
920.5760, 1055.820
921.0581, 1050.660
921.5402, 1046.185
922.0223, 1039.205
922.5045, 1026.381
922.9866, 1012.620
923.4687, 1006.606
923.9508, 1009.178
924.4329, 1006.659
924.9150, 996.0961
925.3972, 984.0791
925.8793, 978.3917
926.3614, 975.8509
926.8435, 971.9059
927.3256, 965.3133
927.8077, 958.6935
928.2899, 953.3525
928.7720, 947.7502
929.2541, 940.7035
929.7362, 932.0446
930.2183, 925.1408
930.7004, 920.1489
931.1826, 914.3040
931.6647, 904.3813
932.1468, 893.2798
932.6289, 885.0563
933.1110, 879.2837
933.5931, 873.2443
934.0753, 865.2623
934.5574, 857.6903
935.0395, 851.6937
935.5216, 846.4984
936.0037, 839.5381
936.4858, 830.6490
936.9680, 822.9201
937.4501, 817.8201
937.9322, 813.1993
938.4143, 804.9694
938.8964, 795.7555
939.3785, 790.3155
939.8607, 794.3942
940.3428, 795.2943
940.8249, 789.8994
941.3070, 781.7692
941.7891, 773.9323
942.2712, 766.4436
942.7534, 757.7644
943.2355, 747.4385
943.7176, 738.9045
944.1997, 737.5670
944.6818, 738.0621
945.1639, 733.8538
945.6461, 724.3050
946.1282, 715.7752
946.6103, 710.1356
947.0924, 705.4256
947.5745, 701.2651
948.0566, 697.4913
948.5388, 693.1687
949.0209, 688.3281
949.5030, 683.3434
949.9851, 677.8485
950.4672, 672.8853
950.9493, 670.1082
951.4315, 668.5693
951.9136, 666.4035
952.3957, 662.7163
952.8778, 658.8839
953.3599, 654.7089
953.8420, 650.8151
954.3242, 648.7260
954.8063, 648.0248
955.2884, 644.8609
955.7705, 638.4050
956.2526, 632.0230
956.7347, 628.7308
957.2169, 626.7455
957.6990, 624.3121
958.1811, 620.9406
958.6632, 618.9263
959.1453, 619.2258
959.6274, 619.0441
960.1096, 616.7155
960.5917, 612.7419
961.0738, 609.4482
961.5559, 606.6393
962.0380, 603.3462
962.5201, 597.9544
963.0023, 592.9537
963.4844, 589.5911
963.9665, 587.7635
964.4486, 587.3112
964.9307, 589.3366
965.4128, 589.7617
965.8950, 587.8350
966.3771, 584.4798
966.8592, 580.6981
967.3413, 576.5738
967.8234, 571.8280
968.3055, 566.0819
968.7877, 561.8553
969.2698, 561.2686
969.7519, 562.3157
970.2340, 564.2827
970.7161, 567.6847
971.1982, 565.5193
971.6804, 556.5255
972.1625, 548.3791
972.6446, 546.4631
973.1267, 548.2547
973.6088, 550.2412
974.0909, 551.9398
974.5731, 551.5960
975.0552, 545.1378
975.5373, 540.5031
976.0194, 542.0895
976.5015, 546.0513
976.9836, 544.5114
977.4658, 537.1243
977.9479, 530.9905
978.4300, 527.5052
978.9121, 525.5262
979.3942, 524.0936
979.8763, 523.2161
980.3585, 523.0643
980.8406, 523.9816
981.3226, 524.3193
981.8047, 523.6464
982.2869, 522.6218
982.7690, 521.5533
983.2511, 520.4497
983.7332, 519.4207
984.2153, 518.4449
984.6974, 517.2697
985.1796, 516.2062
985.6617, 514.4503
986.1438, 509.7336
986.6259, 503.7813
987.1080, 502.2223
987.5901, 508.9137
988.0723, 512.7391
988.5544, 511.7309
989.0365, 507.9806
989.5186, 503.5463
990.0007, 498.9858
990.4828, 496.3636
990.9650, 496.2899
991.4471, 496.4496
991.9292, 495.5166
992.4113, 494.2684
992.8934, 493.4903
993.3755, 493.3062
993.8577, 491.4272
994.3398, 487.4497
994.8219, 484.1503
995.3040, 483.0529
995.7861, 483.6491
996.2682, 486.6729
996.7504, 490.7205
997.2325, 491.7797
997.7146, 484.1194
998.1967, 478.6666
998.6788, 479.4445
999.1609, 482.3409
999.6431, 480.6588
1000.125, 474.4945
1000.607, 471.1873
1001.089, 471.9469
1001.572, 473.7806
1002.054, 474.6791
1002.536, 474.7652
1003.018, 474.0676
1003.500, 472.5427
1003.982, 470.6967
1004.464, 468.1630
1004.946, 466.1830
1005.428, 465.4254
1005.911, 465.5394
1006.393, 465.8840
1006.875, 466.2332
1007.357, 465.6036
1007.839, 462.2454
1008.321, 459.4786
1008.803, 459.6309
1009.285, 461.0653
1009.768, 461.1761
1010.250, 459.1697
1010.732, 459.2229
1011.214, 462.0402
1011.696, 464.5267
1012.178, 463.4783
1012.660, 460.1878
1013.142, 455.4957
1013.624, 449.7279
1014.107, 446.6280
1014.589, 450.2502
1015.071, 453.7527
1015.553, 455.2621
1016.035, 454.9266
1016.517, 452.3315
1016.999, 447.8223
1017.481, 445.1490
1017.964, 446.1622
1018.446, 448.0798
1018.928, 449.0352
1019.410, 449.2248
1019.892, 448.7994
1020.374, 447.3512
1020.856, 446.4676
1021.338, 446.3738
1021.820, 446.2420
1022.303, 444.8383
1022.785, 443.0636
1023.267, 443.9176
1023.749, 446.8946
1024.231, 448.8345
1024.713, 447.5976
1025.195, 445.6364
1025.677, 443.2205
1026.160, 441.0082
1026.642, 440.7140
1027.124, 442.4982
1027.606, 443.0723
1028.088, 441.5710
1028.570, 439.7822
1029.052, 440.0599
1029.534, 440.8303
1030.016, 440.0851
1030.499, 437.1279
1030.981, 434.9775
1031.463, 434.3036
1031.945, 433.5290
1032.427, 431.6574
1032.909, 429.1853
1033.391, 427.4411
1033.873, 426.5152
1034.355, 426.7459
1034.838, 429.9440
1035.320, 432.3911
1035.802, 431.6298
1036.284, 429.4987
1036.766, 428.8452
1037.248, 430.3052
1037.730, 428.8670
1038.212, 423.7729
1038.695, 419.1847
1039.177, 419.3661
1039.659, 422.0577
1040.141, 425.3219
1040.623, 428.8129
1041.105, 430.5712
1041.587, 429.5586
1042.069, 427.7005
1042.552, 424.9347
1043.034, 422.1561
1043.516, 422.2340
1043.998, 424.2491
1044.480, 424.2538
1044.962, 420.5226
1045.444, 416.7273
1045.926, 414.5815
1046.408, 413.7067
1046.891, 414.0814
1047.373, 415.9693
1047.855, 416.4702
1048.337, 415.5274
1048.819, 413.7606
1049.301, 410.5675
1049.783, 407.4915
1050.265, 406.9019
1050.747, 408.0096
1051.230, 408.6730
1051.712, 407.2306
1052.194, 407.0160
1052.676, 409.0826
1053.158, 411.2581
1053.640, 409.9887
1054.122, 406.3761
1054.604, 404.8653
1055.087, 405.9282
1055.569, 407.5045
1056.051, 408.8843
1056.533, 409.9125
1057.015, 410.6560
1057.497, 411.0093
1057.979, 410.1723
1058.461, 408.0617
1058.943, 405.7334
1059.426, 403.2708
1059.908, 401.3119
1060.390, 401.2046
1060.872, 401.7737
1061.354, 401.2713
1061.836, 398.4272
1062.318, 397.2352
1062.800, 398.6633
1063.282, 399.9998
1063.765, 398.8319
1064.247, 396.3091
1064.729, 396.6438
1065.211, 399.2191
1065.693, 401.4726
1066.175, 401.7619
1066.657, 401.9803
1067.139, 403.8065
1067.622, 405.3463
1068.104, 403.2971
1068.586, 397.5060
1069.068, 394.4340
1069.550, 394.8550
1070.032, 396.1229
1070.514, 396.7324
1070.996, 396.5322
1071.479, 394.4745
1071.961, 390.8459
1072.443, 390.5592
1072.925, 395.4186
1073.407, 398.5547
1073.889, 397.6700
1074.371, 394.8988
1074.853, 393.2107
1075.335, 392.3551
1075.818, 391.9316
1076.300, 392.0961
1076.782, 391.8446
1077.264, 390.2341
1077.746, 388.9341
1078.228, 389.0490
1078.710, 390.3229
1079.192, 391.4186
1079.674, 392.2382
1080.156, 392.1414
1080.639, 389.6325
1081.121, 387.3626
1081.603, 387.5042
1082.085, 388.5381
1082.567, 387.9713
1083.049, 385.2205
1083.531, 383.7131
1084.013, 383.6738
1084.496, 384.3903
1084.978, 385.5082
1085.460, 386.8378
1085.942, 388.6665
1086.424, 390.7244
1086.906, 391.0597
1087.388, 387.8195
1087.870, 386.2067
1088.353, 387.9292
1088.835, 390.4761
1089.317, 388.9392
1089.799, 385.1295
1090.281, 383.4110
1090.763, 384.7723
1091.245, 386.4820
1091.727, 388.4639
1092.209, 389.2918
1092.692, 387.7829
1093.174, 384.6280
1093.656, 383.5425
1094.138, 384.3064
1094.620, 384.9987
1095.102, 384.7026
1095.584, 384.4110
1096.066, 385.1732
1096.548, 386.1339
1097.031, 386.1220
1097.513, 384.6528
1097.995, 384.6195
1098.477, 386.1943
1098.959, 387.8995
1099.441, 389.0682
1099.923, 389.5286
1100.405, 388.7247
1100.888, 387.0721
1101.370, 385.7509
1101.852, 385.6994
1102.334, 384.6499
1102.816, 381.9832
1103.298, 379.2007
1103.780, 378.2568
1104.262, 378.4325
1104.745, 377.8546
1105.227, 376.4440
1105.709, 375.6593
1106.191, 376.7260
1106.673, 377.7883
1107.155, 378.0338
1107.637, 377.9988
1108.119, 379.5699
1108.601, 382.2764
1109.083, 382.8363
1109.566, 380.1974
1110.048, 377.1176
1110.530, 374.5468
1111.012, 373.0378
1111.494, 373.3133
1111.976, 375.1980
1112.458, 376.4744
1112.940, 377.1111
1113.423, 378.0797
1113.905, 380.2655
1114.387, 382.1722
1114.869, 382.2404
1115.351, 381.0036
1115.833, 378.9310
1116.315, 374.9960
1116.797, 374.0164
1117.280, 377.0624
1117.762, 379.1480
1118.244, 374.9619
1118.726, 368.5505
1119.208, 366.4350
1119.690, 367.8617
1120.172, 370.4278
1120.654, 375.8191
1121.136, 378.5775
1121.619, 377.6055
1122.101, 374.9081
1122.583, 372.3203
1123.065, 369.8852
1123.547, 367.4716
1124.029, 365.1681
1124.511, 364.0250
1124.993, 366.7972
1125.475, 368.0002
1125.958, 364.3023
1126.440, 358.9899
1126.922, 359.4530
1127.404, 364.9255
1127.886, 369.0949
1128.368, 370.8706
1128.850, 371.1750
1129.332, 369.3966
1129.815, 367.5153
1130.297, 367.6193
1130.779, 369.0533
1131.261, 366.9135
1131.743, 360.9857
1132.225, 356.7154
1132.707, 355.9978
1133.189, 357.1873
1133.672, 360.5764
1134.154, 363.8165
1134.636, 363.6006
1135.118, 358.6722
1135.600, 356.4328
1136.082, 357.1909
1136.564, 359.3586
1137.046, 363.7894
1137.528, 367.3487
1138.010, 363.2461
1138.493, 355.4761
1138.975, 351.4336
1139.457, 357.0647
1139.939, 359.7304
1140.421, 358.2775
1140.903, 356.3040
1141.385, 357.2701
1141.867, 359.5481
1142.350, 359.0346
1142.832, 356.4439
1143.314, 354.6991
1143.796, 356.0147
1144.278, 356.7477
1144.760, 355.9809
1145.242, 354.9195
1145.724, 355.0236
1146.207, 356.0598
1146.689, 357.7681
1147.171, 359.9409
1147.653, 360.5638
1148.135, 355.8997
1148.617, 352.7685
1149.099, 354.6190
1149.581, 358.5918
1150.063, 358.3802
1150.546, 354.7688
1151.028, 353.6270
1151.510, 356.0930
1151.992, 358.7991
1152.474, 360.2102
1152.956, 360.4308
1153.438, 358.9378
1153.920, 356.3631
1154.402, 355.1710
1154.885, 355.3380
1155.367, 356.1898
1155.849, 357.9901
1156.331, 358.7308
1156.813, 354.5842
1157.295, 350.0732
1157.777, 350.5891
1158.259, 356.0732
1158.742, 357.5861
1159.224, 354.8231
1159.706, 352.1307
1160.188, 351.3384
1160.670, 351.3647
1161.152, 351.2624
1161.634, 351.1858
1162.116, 351.4022
1162.599, 352.0972
1163.081, 352.4100
1163.563, 352.3337
1164.045, 351.8752
1164.527, 350.4328
1165.009, 349.1486
1165.491, 350.1163
1165.973, 352.2376
1166.455, 353.2875
1166.938, 352.1036
1167.420, 351.4085
1167.902, 351.4721
1168.384, 351.2009
1168.866, 349.0330
1169.348, 346.3273
1169.830, 345.3405
1170.312, 345.7876
1170.794, 346.6276
1171.277, 348.6559
1171.759, 349.2035
1172.241, 347.7356
1172.723, 345.4681
1173.205, 342.7708
1173.687, 340.5852
1174.169, 341.4097
1174.651, 344.8738
1175.134, 347.4861
1175.616, 347.0392
1176.098, 347.1638
1176.580, 348.9222
1177.062, 350.7562
1177.544, 349.5916
1178.026, 346.9091
1178.508, 347.2851
1178.990, 351.1004
1179.473, 352.0964
1179.955, 344.0735
1180.437, 337.5644
1180.919, 335.3389
1181.401, 336.4387
1181.883, 340.8040
1182.365, 346.7377
1182.847, 348.0271
1183.329, 342.9695
1183.812, 339.4236
1184.294, 343.4964
1184.776, 346.8007
1185.258, 345.5873
1185.740, 341.5395
1186.222, 339.1927
1186.704, 338.3983
1187.186, 338.9449
1187.669, 341.3813
1188.151, 342.6619
1188.633, 339.8591
1189.115, 336.9775
1189.597, 336.3972
1190.079, 337.4288
1190.561, 336.8285
1191.043, 334.9168
1191.526, 333.3109
1192.008, 332.6648
1192.490, 332.2387
1192.972, 331.5242
1193.454, 331.0719
1193.936, 331.4799
1194.418, 332.5654
1194.900, 332.3144
1195.382, 330.9654
1195.865, 330.0037
1196.347, 330.1231
1196.829, 330.7381
1197.311, 332.1804
1197.793, 333.4946
1198.275, 333.6609
1198.757, 332.7310
1199.239, 333.4129
1199.721, 335.4019
1200.204, 335.8884
1200.686, 331.2473
1201.168, 327.2009
1201.650, 327.3303
1202.132, 328.9510
1202.614, 329.2245
1203.096, 328.1595
1203.578, 327.6785
1204.061, 327.7115
1204.543, 326.8594
1205.025, 321.8900
1205.507, 318.4424
1205.989, 321.4450
1206.471, 326.6533
1206.953, 328.0813
1207.435, 325.8406
1207.917, 326.1367
1208.400, 329.1532
1208.882, 331.5786
1209.364, 330.3367
1209.846, 328.7861
1210.328, 329.1595
1210.810, 330.2267
1211.292, 330.2055
1211.774, 329.1141
1212.256, 327.3588
1212.739, 324.9772
1213.221, 323.1749
1213.703, 322.6297
1214.185, 323.0543
1214.667, 325.2997
1215.149, 327.9142
1215.631, 327.6966
1216.113, 324.8969
1216.596, 324.0162
1217.078, 325.6785
1217.560, 327.2064
1218.042, 326.6593
1218.524, 325.5907
1219.006, 324.8987
1219.488, 324.3267
1219.970, 322.9366
1220.453, 320.8786
1220.935, 320.0566
1221.417, 320.8455
1221.899, 321.8166
1222.381, 322.8678
1222.863, 322.8921
1223.345, 320.6599
##END=



