##NAMES=Stibnite
##RRUFFID=R050016
##IDEAL CHEMISTRY=Sb^3+^_2_S^2-^_3_
##LOCALITY=Romania
##OWNER=RRUFF
##SOURCE=Eugene Schlepp
##DESCRIPTION=Group of lead-gray prismatic crystals
##STATUS=The identification of this mineral has been confirmed by X-ray diffraction and chemical analysis
##URL=rruff.info/R050016
##MEASURED CHEMISTRY=(Sb_.996_As_.004_)_2_S_3_
119.5731, 544.8766
120.0552, 573.2208
120.5373, 605.7121
121.0194, 645.6140
121.5015, 693.9178
121.9836, 747.2275
122.4658, 800.6510
122.9479, 859.8510
123.4300, 931.8154
123.9121, 1020.765
124.3942, 1120.926
124.8763, 1215.034
125.3585, 1288.031
125.8406, 1384.606
126.3227, 1523.526
126.8048, 1684.452
127.2869, 1846.121
127.7690, 1996.399
128.2512, 2139.775
128.7333, 2290.151
129.2154, 2467.749
129.6975, 2625.841
130.1796, 2758.686
130.6617, 2867.087
131.1439, 2952.646
131.6260, 3016.942
132.1081, 3058.953
132.5902, 3070.061
133.0723, 3021.204
133.5544, 2969.010
134.0366, 2918.948
134.5187, 2873.161
135.0008, 2832.930
135.4829, 2799.329
135.9650, 2772.270
136.4471, 2751.255
136.9293, 2724.719
137.4114, 2715.022
137.8935, 2731.625
138.3756, 2770.941
138.8577, 2823.629
139.3398, 2882.672
139.8220, 2948.217
140.3041, 3032.518
140.7862, 3139.583
141.2683, 3256.530
141.7504, 3375.046
142.2325, 3497.119
142.7147, 3631.004
143.1968, 3784.577
143.6789, 3958.248
144.1610, 4137.555
144.6431, 4326.091
145.1252, 4515.781
145.6074, 4703.272
146.0895, 4888.079
146.5716, 5069.779
147.0537, 5248.174
147.5358, 5422.633
148.0179, 5593.085
148.5001, 5760.216
148.9822, 5922.799
149.4643, 6084.082
149.9464, 6244.385
150.4285, 6391.973
150.9106, 6516.693
151.3928, 6618.122
151.8749, 6713.307
152.3570, 6801.629
152.8391, 6884.862
153.3212, 6960.761
153.8033, 7028.511
154.2855, 7103.381
154.7676, 7205.070
155.2497, 7326.548
155.7318, 7435.915
156.2139, 7522.017
156.6960, 7596.681
157.1782, 7665.757
157.6603, 7725.881
158.1424, 7803.776
158.6245, 7928.562
159.1066, 8087.816
159.5887, 8256.070
160.0709, 8419.897
160.5530, 8591.459
161.0351, 8787.842
161.5172, 9010.742
161.9993, 9250.354
162.4814, 9501.500
162.9636, 9762.928
163.4457, 10041.26
163.9278, 10337.68
164.4099, 10651.25
164.8920, 10981.50
165.3741, 11333.81
165.8563, 11685.81
166.3384, 12016.43
166.8205, 12337.62
167.3026, 12671.14
167.7847, 13031.52
168.2668, 13409.33
168.7490, 13786.01
169.2311, 14163.68
169.7132, 14539.14
170.1953, 14900.04
170.6774, 15259.48
171.1595, 15639.19
171.6417, 16048.11
172.1238, 16484.07
172.6059, 16944.24
173.0880, 17437.03
173.5701, 17939.47
174.0522, 18436.81
174.5344, 18940.28
175.0165, 19461.01
175.4986, 20012.04
175.9807, 20582.16
176.4628, 21142.89
176.9449, 21673.14
177.4271, 22236.72
177.9092, 22869.09
178.3913, 23540.00
178.8734, 24203.22
179.3555, 24833.47
179.8376, 25453.36
180.3197, 26136.83
180.8019, 26897.29
181.2840, 27704.92
181.7661, 28557.09
182.2482, 29440.77
182.7303, 30329.27
183.2124, 31202.77
183.6946, 32085.68
184.1767, 33051.37
184.6588, 34114.58
185.1409, 35233.92
185.6230, 36416.21
186.1051, 37624.81
186.5873, 38829.50
187.0694, 40019.84
187.5515, 41186.45
188.0336, 42340.17
188.5157, 43519.38
188.9978, 44592.50
189.4800, 45559.96
189.9621, 46409.73
190.4442, 47151.87
190.9263, 47788.30
191.4084, 48287.22
191.8905, 48559.94
192.3727, 48523.06
192.8548, 48386.52
193.3369, 48226.13
193.8190, 47986.56
194.3011, 47603.28
194.7832, 47049.66
195.2654, 46372.25
195.7475, 45667.10
196.2296, 44894.65
196.7117, 44160.24
197.1938, 43466.64
197.6759, 42813.51
198.1581, 42211.96
198.6402, 41662.46
199.1223, 41144.93
199.6044, 40621.27
200.0865, 40077.32
200.5686, 39555.44
201.0508, 39058.37
201.5329, 38579.09
202.0150, 38122.60
202.4971, 37686.33
202.9792, 37260.92
203.4613, 36832.50
203.9435, 36408.76
204.4256, 35965.11
204.9077, 35482.09
205.3898, 34993.89
205.8719, 34525.94
206.3540, 34081.83
206.8362, 33644.61
207.3183, 33187.79
207.8004, 32710.28
208.2825, 32223.23
208.7646, 31714.39
209.2467, 31206.04
209.7289, 30718.06
210.2110, 30251.17
210.6931, 29783.16
211.1752, 29281.71
211.6573, 28729.50
212.1395, 28218.94
212.6216, 27771.99
213.1037, 27347.04
213.5858, 26929.76
214.0679, 26518.80
214.5500, 26116.28
215.0322, 25720.55
215.5143, 25327.64
215.9964, 24977.12
216.4785, 24684.88
216.9606, 24417.82
217.4427, 24169.43
217.9249, 23936.11
218.4070, 23709.64
218.8891, 23477.14
219.3712, 23236.78
219.8533, 23057.74
220.3354, 22949.48
220.8176, 22898.90
221.2997, 22934.70
221.7818, 23026.84
222.2639, 23119.98
222.7460, 23173.09
223.2281, 23192.14
223.7103, 23236.11
224.1924, 23292.10
224.6745, 23393.11
225.1566, 23563.16
225.6387, 23778.93
226.1208, 24006.39
226.6030, 24224.69
227.0851, 24441.06
227.5672, 24685.71
228.0493, 24972.98
228.5314, 25274.38
229.0135, 25567.44
229.4957, 25875.94
229.9778, 26230.68
230.4599, 26646.31
230.9420, 27103.97
231.4241, 27564.49
231.9062, 28041.05
232.3884, 28492.88
232.8705, 28913.32
233.3526, 29310.58
233.8347, 29699.63
234.3168, 30083.20
234.7989, 30449.89
235.2811, 30776.67
235.7632, 31056.73
236.2453, 31312.41
236.7274, 31580.95
237.2095, 31808.12
237.6916, 31962.41
238.1738, 32035.69
238.6559, 32036.10
239.1380, 31975.50
239.6201, 31858.14
240.1022, 31658.78
240.5843, 31348.78
241.0665, 30979.61
241.5486, 30566.26
242.0307, 30111.53
242.5128, 29616.81
242.9949, 29078.71
243.4770, 28494.05
243.9592, 27891.82
244.4413, 27242.72
244.9234, 26597.18
245.4055, 25965.78
245.8876, 25351.40
246.3697, 24760.74
246.8519, 24193.20
247.3340, 23647.66
247.8161, 23146.49
248.2982, 22701.53
248.7803, 22288.09
249.2624, 21889.98
249.7446, 21512.92
250.2267, 21169.18
250.7088, 20863.94
251.1909, 20594.38
251.6730, 20354.26
252.1551, 20154.41
252.6373, 19961.56
253.1194, 19759.18
253.6015, 19559.91
254.0836, 19378.28
254.5657, 19220.41
255.0478, 19078.89
255.5300, 18943.99
256.0121, 18819.05
256.4942, 18689.37
256.9763, 18537.03
257.4584, 18386.56
257.9406, 18255.05
258.4227, 18146.49
258.9048, 18051.97
259.3869, 17963.84
259.8690, 17882.11
260.3511, 17802.97
260.8333, 17725.53
261.3154, 17650.12
261.7975, 17565.76
262.2796, 17475.39
262.7617, 17412.32
263.2438, 17402.24
263.7260, 17440.89
264.2081, 17504.03
264.6902, 17592.46
265.1723, 17702.37
265.6544, 17818.71
266.1365, 17948.57
266.6187, 18118.30
267.1008, 18346.16
267.5829, 18621.30
268.0650, 18921.28
268.5471, 19244.11
269.0292, 19594.93
269.5114, 19974.76
269.9935, 20383.68
270.4756, 20834.06
270.9577, 21329.98
271.4398, 21867.74
271.9219, 22437.66
272.4041, 23040.30
272.8862, 23701.43
273.3683, 24449.00
273.8504, 25261.48
274.3325, 26081.73
274.8146, 26897.70
275.2968, 27742.06
275.7789, 28640.57
276.2610, 29585.85
276.7431, 30563.58
277.2252, 31585.84
277.7073, 32616.29
278.1895, 33603.02
278.6716, 34546.50
279.1537, 35455.14
279.6358, 36352.37
280.1179, 37210.19
280.6000, 37989.21
281.0822, 38689.78
281.5643, 39272.11
282.0464, 39682.74
282.5285, 39916.45
283.0106, 40018.61
283.4927, 39992.20
283.9749, 39836.05
284.4570, 39518.21
284.9391, 39046.46
285.4212, 38505.20
285.9033, 37944.18
286.3854, 37368.88
286.8676, 36869.64
287.3497, 36437.86
287.8318, 36081.20
288.3139, 35790.69
288.7960, 35575.98
289.2781, 35458.80
289.7603, 35446.39
290.2424, 35547.22
290.7245, 35807.04
291.2066, 36241.93
291.6887, 36801.43
292.1708, 37517.76
292.6530, 38341.66
293.1351, 39203.81
293.6172, 40080.88
294.0993, 41018.58
294.5814, 42091.91
295.0635, 43348.46
295.5457, 44675.67
296.0278, 46112.36
296.5099, 47577.42
296.9920, 49025.76
297.4741, 50446.50
297.9562, 51818.17
298.4384, 53134.27
298.9205, 54406.89
299.4026, 55547.39
299.8847, 56546.33
300.3668, 57427.41
300.8489, 58221.12
301.3310, 58904.34
301.8131, 59423.95
302.2953, 59741.59
302.7774, 59873.18
303.2595, 59894.02
303.7416, 59753.38
304.2237, 59566.07
304.7058, 59341.58
305.1880, 59095.12
305.6701, 58838.69
306.1522, 58576.30
306.6343, 58313.44
307.1164, 58058.69
307.5985, 57814.27
308.0807, 57573.47
308.5628, 57380.41
309.0449, 57158.29
309.5270, 56910.12
310.0091, 56616.29
310.4912, 56159.29
310.9734, 55493.99
311.4555, 54606.64
311.9376, 53352.30
312.4197, 51741.76
312.9018, 49693.54
313.3839, 47170.59
313.8661, 44226.49
314.3482, 41003.50
314.8303, 37380.66
315.3124, 33596.60
315.7945, 30015.02
316.2766, 26622.98
316.7588, 23531.56
317.2409, 20851.02
317.7230, 18545.77
318.2051, 16564.57
318.6872, 14948.73
319.1693, 13597.39
319.6515, 12490.84
320.1336, 11612.31
320.6157, 10876.89
321.0978, 10283.92
321.5799, 9789.579
322.0620, 9316.953
322.5442, 8857.436
323.0263, 8459.337
323.5084, 8154.483
323.9905, 7909.393
324.4726, 7686.681
324.9547, 7478.976
325.4369, 7282.851
325.9190, 7096.105
326.4011, 6919.928
326.8832, 6744.691
327.3653, 6559.642
327.8474, 6384.378
328.3296, 6231.495
328.8117, 6097.559
329.2938, 5972.124
329.7759, 5848.584
330.2580, 5728.112
330.7401, 5620.082
331.2223, 5538.572
331.7044, 5451.470
332.1865, 5350.451
332.6686, 5244.232
333.1507, 5138.683
333.6328, 5036.856
334.1150, 4944.506
334.5971, 4872.494
335.0792, 4834.698
335.5613, 4780.088
336.0434, 4692.460
336.5255, 4604.534
337.0077, 4532.361
337.4898, 4475.525
337.9719, 4426.271
338.4540, 4381.095
338.9361, 4338.648
339.4182, 4285.415
339.9004, 4209.641
340.3825, 4141.134
340.8646, 4088.275
341.3467, 4046.547
341.8288, 4012.315
342.3109, 3985.391
342.7931, 3959.090
343.2752, 3919.856
343.7573, 3864.279
344.2394, 3820.328
344.7215, 3806.541
345.2036, 3797.296
345.6858, 3769.910
346.1679, 3723.713
346.6500, 3678.463
347.1321, 3648.202
347.6142, 3628.387
348.0963, 3605.975
348.5785, 3578.757
349.0606, 3551.807
349.5427, 3530.954
350.0248, 3513.778
350.5069, 3492.990
350.9890, 3459.177
351.4712, 3427.636
351.9533, 3417.234
352.4354, 3422.911
352.9175, 3416.122
353.3996, 3379.376
353.8817, 3326.572
354.3639, 3296.204
354.8460, 3300.723
355.3281, 3296.615
355.8102, 3265.571
356.2923, 3224.787
356.7744, 3195.890
357.2566, 3183.013
357.7387, 3174.909
358.2208, 3158.712
358.7029, 3132.055
359.1850, 3110.306
359.6671, 3096.485
360.1493, 3083.852
360.6314, 3071.012
361.1135, 3056.930
361.5956, 3039.888
362.0777, 3018.565
362.5598, 2994.237
363.0420, 2971.348
363.5241, 2950.076
364.0062, 2930.155
364.4883, 2913.459
364.9704, 2896.765
365.4525, 2876.778
365.9347, 2853.125
366.4168, 2828.655
366.8989, 2806.482
367.3810, 2786.482
367.8631, 2768.432
368.3452, 2756.241
368.8274, 2741.011
369.3095, 2713.698
369.7916, 2679.971
370.2737, 2653.866
370.7558, 2645.400
371.2379, 2645.425
371.7201, 2638.713
372.2022, 2624.687
372.6843, 2609.505
373.1664, 2594.501
373.6485, 2580.668
374.1306, 2570.409
374.6128, 2565.825
375.0949, 2557.534
375.5770, 2537.002
376.0591, 2510.011
376.5412, 2487.159
377.0233, 2470.315
377.5055, 2460.160
377.9876, 2460.061
378.4697, 2471.458
378.9518, 2473.608
379.4339, 2457.284
379.9160, 2439.731
380.3982, 2431.935
380.8803, 2431.581
381.3624, 2431.830
381.8445, 2429.468
382.3266, 2423.500
382.8087, 2410.548
383.2909, 2380.426
383.7730, 2356.709
384.2551, 2340.224
384.7372, 2330.034
385.2193, 2327.530
385.7014, 2331.655
386.1836, 2337.166
386.6657, 2339.207
387.1478, 2337.825
387.6299, 2331.772
388.1120, 2315.409
388.5941, 2300.748
389.0763, 2294.555
389.5584, 2291.915
390.0405, 2284.731
390.5226, 2268.765
391.0047, 2248.884
391.4868, 2232.332
391.9690, 2219.414
392.4511, 2207.608
392.9332, 2197.090
393.4153, 2186.802
393.8974, 2173.216
394.3795, 2156.475
394.8617, 2147.578
395.3438, 2160.125
395.8259, 2181.134
396.3080, 2188.961
396.7901, 2181.423
397.2722, 2165.864
397.7544, 2143.483
398.2365, 2117.222
398.7186, 2101.058
399.2007, 2105.154
399.6828, 2107.879
400.1649, 2098.706
400.6471, 2083.185
401.1292, 2069.653
401.6113, 2060.781
402.0934, 2056.596
402.5755, 2057.845
403.0576, 2068.299
403.5398, 2072.432
404.0219, 2064.423
404.5040, 2056.442
404.9861, 2057.824
405.4682, 2064.602
405.9503, 2065.109
406.4325, 2050.802
406.9146, 2027.431
407.3967, 2016.754
407.8788, 2027.313
408.3609, 2033.054
408.8430, 2023.186
409.3252, 2010.726
409.8073, 2006.014
410.2894, 2010.527
410.7715, 2018.341
411.2536, 2027.472
411.7357, 2036.472
412.2179, 2036.095
412.7000, 2022.252
413.1821, 2007.430
413.6642, 1999.405
414.1463, 1996.627
414.6284, 1997.267
415.1106, 2003.488
415.5927, 2009.970
416.0748, 2013.219
416.5569, 2013.613
417.0390, 2010.734
417.5211, 2003.121
418.0033, 1997.233
418.4854, 2004.321
418.9675, 2030.756
419.4496, 2048.223
419.9317, 2048.617
420.4138, 2045.527
420.8960, 2049.778
421.3781, 2059.144
421.8602, 2063.160
422.3423, 2054.141
422.8244, 2036.559
423.3065, 2030.500
423.7887, 2049.956
424.2708, 2058.931
424.7529, 2043.698
425.2350, 2024.210
425.7171, 2017.869
426.1992, 2026.400
426.6814, 2037.877
427.1635, 2039.137
427.6456, 2031.598
428.1277, 2033.759
428.6098, 2052.701
429.0919, 2067.664
429.5741, 2062.891
430.0562, 2048.820
430.5383, 2041.316
431.0204, 2046.746
431.5025, 2053.715
431.9846, 2052.133
432.4668, 2044.139
432.9489, 2037.209
433.4310, 2033.167
433.9131, 2030.989
434.3952, 2029.959
434.8773, 2030.275
435.3595, 2029.547
435.8416, 2026.972
436.3237, 2023.932
436.8058, 2019.725
437.2879, 2015.722
437.7701, 2016.122
438.2522, 2023.514
438.7343, 2033.689
439.2164, 2035.087
439.6985, 2016.514
440.1806, 2009.426
440.6628, 2024.592
441.1449, 2041.576
441.6270, 2046.579
442.1091, 2040.508
442.5912, 2032.864
443.0733, 2030.459
443.5555, 2032.172
444.0376, 2033.911
444.5197, 2035.906
445.0018, 2037.279
445.4839, 2037.072
445.9660, 2036.391
446.4482, 2036.415
446.9303, 2037.396
447.4124, 2038.217
447.8945, 2038.879
448.3766, 2038.760
448.8587, 2035.341
449.3409, 2027.913
449.8230, 2022.523
450.3051, 2025.175
450.7872, 2034.679
451.2693, 2038.650
451.7514, 2032.899
452.2336, 2026.957
452.7157, 2023.489
453.1978, 2021.868
453.6799, 2021.457
454.1620, 2021.978
454.6441, 2022.881
455.1263, 2023.361
455.6084, 2023.169
456.0905, 2023.970
456.5726, 2025.752
457.0547, 2028.621
457.5368, 2035.328
458.0190, 2042.507
458.5011, 2043.303
458.9832, 2033.454
459.4653, 2022.957
459.9474, 2030.386
460.4295, 2056.145
460.9117, 2069.108
461.3938, 2056.320
461.8759, 2038.586
462.3580, 2036.089
462.8401, 2045.800
463.3222, 2051.933
463.8044, 2047.583
464.2865, 2039.946
464.7686, 2031.798
465.2507, 2025.117
465.7328, 2029.591
466.2149, 2051.731
466.6971, 2078.964
467.1792, 2085.988
467.6613, 2059.328
468.1434, 2039.952
468.6255, 2031.605
469.1076, 2027.084
469.5898, 2023.857
470.0719, 2020.664
470.5540, 2014.784
471.0361, 2003.362
471.5182, 1991.089
472.0003, 1994.654
472.4825, 2024.333
472.9646, 2041.692
473.4467, 2025.842
473.9288, 2003.923
474.4109, 1991.247
474.8930, 1988.994
475.3752, 1993.179
475.8573, 2007.773
476.3394, 2024.877
476.8215, 2029.174
477.3036, 2020.215
477.7857, 2011.760
478.2679, 2012.787
478.7500, 2016.914
479.2321, 2005.427
479.7142, 1965.336
480.1963, 1943.968
480.6784, 1967.279
481.1606, 2001.764
481.6427, 2018.110
482.1248, 2014.403
482.6069, 2002.022
483.0890, 1988.174
483.5711, 1974.219
484.0533, 1967.963
484.5354, 1975.762
485.0175, 1980.942
485.4996, 1977.784
485.9817, 1973.719
486.4638, 1975.290
486.9460, 1982.795
487.4281, 1991.005
487.9102, 1998.550
488.3923, 2003.553
488.8744, 1997.099
489.3565, 1976.219
489.8387, 1961.094
490.3208, 1964.367
490.8029, 1978.877
491.2850, 1989.618
491.7671, 1997.294
492.2492, 1999.467
492.7314, 1989.626
493.2135, 1976.984
493.6956, 1973.281
494.1777, 1978.750
494.6598, 1984.696
495.1419, 1984.552
495.6241, 1979.170
496.1062, 1974.058
496.5883, 1970.433
497.0704, 1965.323
497.5525, 1956.785
498.0346, 1947.832
498.5168, 1939.558
498.9989, 1932.910
499.4810, 1930.701
499.9631, 1937.716
500.4452, 1950.943
500.9273, 1958.963
501.4095, 1961.275
501.8916, 1960.149
502.3737, 1953.049
502.8558, 1945.179
503.3379, 1945.552
503.8200, 1956.779
504.3022, 1965.813
504.7843, 1968.782
505.2664, 1966.403
505.7485, 1955.937
506.2306, 1939.146
506.7127, 1926.731
507.1949, 1926.300
507.6770, 1935.186
508.1591, 1941.878
508.6412, 1948.294
509.1233, 1949.292
509.6054, 1939.870
510.0876, 1928.876
510.5697, 1922.481
511.0518, 1920.955
511.5339, 1921.614
512.0161, 1924.316
512.4982, 1926.686
512.9803, 1919.730
513.4624, 1900.991
513.9445, 1888.884
514.4266, 1896.231
514.9088, 1907.729
515.3909, 1900.846
515.8730, 1873.664
516.3551, 1853.437
516.8372, 1854.459
517.3193, 1861.512
517.8015, 1859.274
518.2836, 1849.539
518.7657, 1843.941
519.2478, 1849.195
519.7299, 1859.834
520.2120, 1862.270
520.6942, 1848.336
521.1763, 1841.882
521.6584, 1852.964
522.1405, 1861.282
522.6226, 1853.077
523.1047, 1833.022
523.5869, 1814.705
524.0690, 1805.354
524.5511, 1800.888
525.0332, 1794.723
525.5153, 1786.880
525.9974, 1780.262
526.4796, 1774.702
526.9617, 1771.985
527.4438, 1777.515
527.9259, 1789.836
528.4080, 1794.064
528.8901, 1781.335
529.3723, 1766.655
529.8544, 1758.110
530.3365, 1754.160
530.8186, 1752.194
531.3007, 1751.184
531.7828, 1749.476
532.2650, 1744.160
532.7471, 1733.944
533.2292, 1728.086
533.7113, 1729.715
534.1934, 1732.305
534.6755, 1736.402
535.1577, 1739.299
535.6398, 1735.890
536.1219, 1723.907
536.6040, 1713.204
537.0861, 1718.038
537.5682, 1731.721
538.0504, 1729.577
538.5325, 1706.674
539.0146, 1684.049
539.4967, 1676.960
539.9788, 1682.545
540.4609, 1686.179
540.9431, 1688.195
541.4252, 1688.118
541.9073, 1682.403
542.3894, 1676.774
542.8715, 1678.939
543.3536, 1687.904
543.8358, 1694.554
544.3179, 1691.213
544.8000, 1680.117
545.2821, 1671.060
545.7642, 1664.865
546.2463, 1658.449
546.7285, 1649.274
547.2106, 1641.023
547.6926, 1637.447
548.1747, 1638.199
548.6569, 1638.119
549.1390, 1632.308
549.6211, 1626.438
550.1032, 1630.529
550.5853, 1641.196
551.0674, 1641.382
551.5496, 1622.714
552.0317, 1598.725
552.5138, 1592.335
552.9959, 1611.962
553.4780, 1620.619
553.9601, 1611.328
554.4423, 1600.238
554.9244, 1593.621
555.4065, 1589.546
555.8886, 1584.507
556.3707, 1577.207
556.8528, 1568.332
557.3350, 1557.067
557.8171, 1544.183
558.2992, 1536.112
558.7813, 1533.864
559.2634, 1535.294
559.7455, 1541.285
560.2277, 1549.644
560.7098, 1553.572
561.1919, 1552.148
561.6740, 1547.856
562.1561, 1540.234
562.6382, 1530.879
563.1204, 1520.297
563.6025, 1509.328
564.0846, 1500.354
564.5667, 1495.076
565.0488, 1493.038
565.5309, 1493.294
566.0131, 1499.161
566.4952, 1498.899
566.9773, 1481.101
567.4594, 1464.124
567.9415, 1461.172
568.4236, 1470.096
568.9058, 1478.668
569.3879, 1483.543
569.8700, 1484.239
570.3521, 1476.546
570.8342, 1463.839
571.3163, 1459.388
571.7985, 1467.992
572.2806, 1478.152
572.7627, 1474.986
573.2448, 1456.200
573.7269, 1445.769
574.2090, 1449.177
574.6912, 1453.818
575.1733, 1457.720
575.6554, 1460.623
576.1375, 1462.550
576.6196, 1463.477
577.1017, 1463.179
577.5839, 1460.649
578.0660, 1456.740
578.5481, 1454.325
579.0302, 1453.522
579.5123, 1453.375
579.9944, 1452.770
580.4766, 1453.183
580.9587, 1459.480
581.4408, 1475.301
581.9229, 1481.532
582.4050, 1464.566
582.8871, 1447.121
583.3693, 1445.810
583.8514, 1455.890
584.3335, 1465.715
584.8156, 1469.968
585.2977, 1469.458
585.7798, 1464.164
586.2620, 1453.478
586.7441, 1445.426
587.2262, 1441.400
587.7083, 1438.271
588.1904, 1433.620
588.6725, 1428.841
589.1547, 1426.250
589.6368, 1426.150
590.1189, 1428.217
590.6010, 1436.790
591.0831, 1445.009
591.5652, 1442.047
592.0474, 1428.720
592.5295, 1414.858
593.0116, 1406.609
593.4937, 1403.600
593.9758, 1405.349
594.4579, 1415.252
594.9401, 1421.811
595.4222, 1426.356
595.9043, 1425.044
596.3864, 1411.344
596.8685, 1390.225
597.3506, 1374.508
597.8328, 1371.791
598.3149, 1370.412
598.7970, 1356.231
599.2791, 1335.437
599.7612, 1325.625
600.2433, 1330.180
600.7255, 1337.100
601.2076, 1336.490
601.6897, 1329.154
602.1718, 1321.629
602.6539, 1312.603
603.1360, 1305.257
603.6182, 1299.143
604.1003, 1295.299
604.5824, 1298.316
605.0645, 1305.116
605.5466, 1303.932
606.0287, 1283.704
606.5109, 1257.699
606.9930, 1247.034
607.4751, 1249.853
607.9572, 1252.103
608.4393, 1250.851
608.9214, 1245.803
609.4036, 1234.818
609.8857, 1217.873
610.3678, 1209.666
610.8499, 1218.930
611.3320, 1225.022
611.8141, 1223.600
612.2963, 1216.472
612.7784, 1203.033
613.2605, 1185.018
613.7426, 1168.821
614.2247, 1158.671
614.7068, 1154.248
615.1890, 1157.341
615.6711, 1168.518
616.1532, 1173.548
616.6353, 1165.882
617.1174, 1155.092
617.5995, 1153.564
618.0817, 1161.522
618.5638, 1161.284
619.0459, 1145.559
619.5280, 1129.199
620.0101, 1117.236
620.4922, 1108.198
620.9744, 1100.516
621.4565, 1093.561
621.9386, 1086.491
622.4207, 1078.164
622.9028, 1069.276
623.3849, 1062.854
623.8671, 1059.194
624.3492, 1056.284
624.8313, 1053.580
625.3134, 1051.307
625.7955, 1051.346
626.2776, 1053.507
626.7598, 1050.109
627.2419, 1034.913
627.7240, 1019.539
628.2061, 1008.399
628.6882, 1001.443
629.1703, 1000.513
629.6525, 1004.849
630.1346, 1007.576
630.6167, 1001.346
631.0988, 987.8044
631.5809, 975.8326
632.0630, 965.3104
632.5452, 956.5358
633.0273, 948.4901
633.5094, 943.3587
633.9915, 946.7425
634.4736, 957.9087
634.9557, 960.1187
635.4379, 941.2000
635.9200, 921.8187
636.4021, 916.4766
636.8842, 917.2057
637.3663, 909.8710
637.8484, 891.8712
638.3306, 873.0858
638.8127, 863.8457
639.2948, 862.3290
639.7769, 856.8959
640.2590, 845.4368
640.7411, 837.7540
641.2233, 839.6870
641.7054, 843.6608
642.1875, 842.7372
642.6696, 837.0422
643.1517, 827.2771
643.6339, 807.1585
644.1160, 789.8667
644.5981, 785.5836
645.0802, 787.6322
645.5623, 785.7278
646.0444, 777.8129
646.5266, 768.5530
647.0087, 761.8738
647.4908, 757.7429
647.9729, 757.2654
648.4550, 762.5154
648.9371, 762.7559
649.4193, 752.0204
649.9014, 738.8286
650.3835, 730.4662
650.8656, 726.6543
651.3477, 725.8204
651.8298, 731.4333
652.3120, 735.7199
652.7941, 733.3677
653.2762, 728.3380
653.7583, 726.7498
654.2404, 728.9489
654.7225, 729.5641
655.2047, 723.4316
655.6868, 713.5286
656.1689, 711.1504
656.6510, 718.2473
657.1331, 720.0535
657.6152, 709.1949
658.0974, 698.4409
658.5795, 703.3711
659.0616, 719.4470
659.5437, 725.8858
660.0258, 712.7665
660.5079, 699.8118
660.9901, 693.2451
661.4722, 690.4403
661.9543, 688.9379
662.4364, 688.3411
662.9185, 689.3375
663.4006, 692.7289
663.8828, 697.0105
664.3649, 699.6915
664.8470, 700.8483
665.3291, 696.8360
665.8112, 684.3711
666.2933, 673.2000
666.7755, 672.1194
667.2576, 678.4099
667.7397, 679.6415
668.2218, 670.5136
668.7039, 664.9724
669.1860, 671.0541
669.6682, 677.3099
670.1503, 671.6062
670.6324, 658.1221
671.1145, 650.9548
671.5966, 657.6700
672.0787, 668.8719
672.5609, 672.2230
673.0430, 668.2864
673.5251, 659.3551
674.0072, 644.1092
674.4893, 633.2076
674.9714, 634.6472
675.4536, 643.4086
675.9357, 646.4219
676.4178, 640.8329
676.8999, 635.6691
677.3820, 631.3751
677.8641, 627.3173
678.3463, 625.4013
678.8284, 622.7985
679.3105, 613.5609
679.7926, 595.8333
680.2747, 578.5996
680.7568, 570.5427
681.2390, 569.2999
681.7211, 571.0202
682.2032, 575.1931
682.6853, 576.4415
683.1674, 572.2527
683.6495, 564.5789
684.1317, 556.0061
684.6138, 546.0060
685.0959, 538.0535
685.5780, 534.6553
686.0601, 530.2017
686.5422, 520.7966
687.0244, 511.2290
687.5065, 508.0280
687.9886, 511.2313
688.4707, 512.2803
688.9528, 502.8238
689.4349, 491.4121
689.9171, 488.5609
690.3992, 491.8790
690.8813, 494.1872
691.3634, 493.5296
691.8455, 492.2948
692.3276, 492.8769
692.8098, 495.0703
693.2919, 497.3745
693.7740, 501.2559
694.2561, 501.9485
694.7382, 496.0538
695.2203, 488.9092
695.7025, 483.2516
696.1846, 479.3077
696.6667, 477.8195
697.1488, 482.2978
697.6309, 484.2661
698.1130, 475.9642
698.5952, 464.4477
699.0773, 458.9142
699.5594, 459.4739
700.0415, 460.5780
700.5236, 458.7115
701.0057, 455.9099
701.4879, 457.5814
701.9700, 464.1831
702.4521, 464.9260
702.9342, 456.3400
703.4163, 448.3728
703.8984, 447.5142
704.3806, 451.0490
704.8627, 452.6179
705.3448, 452.3391
705.8269, 449.9702
706.3090, 443.2622
706.7911, 436.6528
707.2733, 430.8614
707.7554, 427.6487
708.2375, 431.5104
708.7196, 443.2778
709.2017, 453.7166
709.6838, 451.8366
710.1660, 442.5354
710.6481, 439.0986
711.1302, 441.2499
711.6123, 440.2892
712.0944, 432.2603
712.5765, 423.9557
713.0587, 425.0130
713.5408, 436.2781
714.0229, 438.6909
714.5050, 422.5490
714.9871, 410.7483
715.4692, 409.2130
715.9514, 411.4087
716.4335, 412.3517
716.9156, 412.0490
717.3977, 413.0173
717.8798, 417.8216
718.3619, 421.9899
718.8441, 420.7380
719.3262, 416.9107
719.8083, 415.9493
720.2904, 418.0648
720.7725, 418.7814
721.2546, 414.7560
721.7368, 408.8283
722.2189, 408.3152
722.7010, 414.1322
723.1831, 419.3940
723.6652, 424.8299
724.1473, 427.1887
724.6295, 422.8110
725.1116, 414.7799
725.5937, 409.7137
726.0758, 408.8532
726.5579, 406.7567
727.0400, 399.4729
727.5222, 393.6830
728.0043, 394.5125
728.4864, 399.0940
728.9685, 403.3682
729.4506, 405.9334
729.9327, 406.0501
730.4149, 401.7332
730.8970, 395.0119
731.3791, 390.5010
731.8612, 388.0152
732.3433, 385.5540
732.8254, 382.3552
733.3076, 380.2139
733.7897, 381.1789
734.2718, 384.9950
734.7539, 388.4829
735.2360, 393.4649
735.7181, 395.0070
736.2003, 387.7226
736.6824, 381.4461
737.1645, 383.9605
737.6466, 392.3360
738.1287, 398.0515
738.6108, 398.4323
739.0930, 396.8883
739.5751, 394.0125
740.0572, 391.1236
740.5393, 390.2175
741.0214, 390.7921
741.5035, 390.3688
741.9857, 387.7738
742.4678, 385.4830
742.9499, 388.3488
743.4320, 395.7198
743.9141, 397.8435
744.3962, 393.6176
744.8784, 389.8081
745.3605, 389.7804
745.8426, 390.1671
746.3247, 385.6664
746.8068, 375.3098
747.2889, 369.2359
747.7711, 369.2397
748.2532, 370.8661
748.7353, 375.0471
749.2174, 378.9375
749.6995, 379.9130
750.1816, 378.1588
750.6638, 375.4212
751.1459, 371.7835
751.6280, 368.8672
752.1101, 367.4534
752.5922, 368.0726
753.0743, 373.8048
753.5565, 383.6439
754.0386, 389.6022
754.5207, 386.7254
755.0028, 379.1939
755.4849, 375.5861
755.9670, 376.6831
756.4492, 373.5372
756.9313, 363.1091
757.4134, 355.8066
757.8955, 357.6749
758.3776, 363.9559
758.8597, 367.8710
759.3419, 369.4135
759.8240, 369.3791
760.3061, 366.7368
760.7882, 363.8270
761.2703, 361.3499
761.7524, 359.1653
762.2346, 356.0735
762.7167, 352.7788
763.1988, 353.0167
763.6809, 361.4066
764.1630, 369.7587
764.6451, 366.7334
765.1273, 356.6332
765.6094, 349.2076
766.0915, 346.0710
766.5736, 347.6643
767.0557, 354.9518
767.5378, 363.9707
768.0200, 365.5563
768.5021, 358.3209
768.9842, 351.6305
769.4663, 344.3932
769.9484, 340.4295
770.4305, 343.0710
770.9127, 348.8077
771.3948, 353.5071
771.8769, 357.4520
772.3590, 357.1796
772.8411, 347.0683
773.3232, 338.9096
773.8054, 338.2555
774.2875, 341.1666
774.7696, 344.6778
775.2517, 347.5857
775.7338, 347.7766
776.2159, 342.5829
776.6981, 337.4224
777.1802, 339.6014
777.6623, 346.1533
778.1444, 350.8678
778.6265, 352.8471
779.1086, 352.0028
779.5908, 348.0183
780.0729, 343.0616
780.5550, 341.3001
781.0371, 343.0641
781.5192, 344.7807
782.0013, 346.3125
782.4835, 348.4182
782.9656, 353.4651
783.4477, 357.2394
783.9298, 352.5301
784.4119, 339.0592
784.8940, 330.5632
785.3762, 330.5207
785.8583, 331.7859
786.3404, 332.9503
786.8225, 334.2426
787.3046, 336.8142
787.7867, 339.7855
788.2689, 340.3492
788.7510, 336.8905
789.2331, 332.1958
789.7152, 326.9824
790.1973, 322.8698
790.6794, 323.5886
791.1616, 328.1265
791.6437, 331.2702
792.1258, 330.7897
792.6079, 329.1797
793.0900, 330.1133
793.5721, 333.1699
794.0543, 334.1035
794.5364, 332.7356
795.0185, 330.1634
795.5006, 326.1051
795.9827, 322.1445
796.4648, 319.5193
796.9470, 318.2914
797.4291, 319.2057
797.9112, 325.7086
798.3933, 329.3806
798.8754, 328.8761
799.3575, 326.4216
799.8397, 322.1920
800.3218, 317.2528
800.8039, 313.0935
801.2860, 309.9417
801.7681, 308.4932
802.2502, 308.2703
802.7324, 310.6526
803.2145, 320.4991
803.6966, 332.7709
804.1787, 337.2142
804.6608, 331.9490
805.1429, 324.3235
805.6251, 319.9582
806.1072, 318.0898
806.5893, 317.6844
807.0714, 318.4931
807.5535, 318.2010
808.0356, 316.2752
808.5178, 315.8409
808.9999, 319.3924
809.4820, 324.9578
809.9641, 327.5023
810.4462, 326.4317
810.9283, 324.4483
811.4105, 320.8702
811.8926, 317.4825
812.3747, 315.4573
812.8568, 313.6519
813.3389, 310.1427
813.8210, 304.9544
814.3032, 302.1134
814.7853, 304.5858
815.2674, 306.4777
815.7495, 303.9690
816.2316, 301.4231
816.7137, 303.6975
817.1959, 309.5940
817.6780, 314.7012
818.1601, 317.4729
818.6422, 317.6108
819.1243, 313.3171
819.6064, 307.1087
820.0886, 302.6852
820.5707, 299.9784
821.0528, 297.1623
821.5349, 293.6986
822.0170, 292.8104
822.4991, 299.4080
822.9813, 310.8044
823.4634, 315.0430
823.9455, 311.8343
824.4276, 307.5971
824.9097, 303.1449
825.3918, 299.8955
825.8740, 299.0716
826.3561, 300.1579
826.8382, 301.6642
827.3203, 305.2920
827.8024, 305.3147
828.2845, 296.3925
828.7667, 290.4542
829.2488, 294.4937
829.7309, 302.1444
830.2130, 305.8076
830.6951, 305.0278
831.1772, 304.2378
831.6594, 304.7054
832.1415, 305.1078
832.6236, 304.8118
833.1057, 304.2171
833.5878, 304.9145
834.0699, 305.7148
834.5521, 302.3219
835.0342, 292.0008
835.5163, 281.7293
835.9984, 278.1256
836.4805, 278.6639
836.9626, 279.9432
837.4448, 281.5203
837.9269, 282.9377
838.4090, 284.0365
838.8911, 284.9012
839.3732, 285.4796
839.8553, 286.0044
840.3375, 288.4332
840.8196, 292.8920
841.3017, 291.5012
841.7838, 281.4637
842.2659, 272.4845
842.7480, 271.4307
843.2302, 275.5323
843.7123, 277.7470
844.1944, 277.1645
844.6765, 277.8655
845.1586, 281.9187
845.6407, 284.1705
846.1229, 281.5140
846.6050, 277.2039
847.0871, 273.4444
847.5692, 270.5060
848.0513, 270.7179
848.5334, 277.8210
849.0156, 283.4705
849.4977, 284.3085
849.9798, 283.8408
850.4619, 285.4081
850.9440, 287.7302
851.4261, 286.9797
851.9083, 281.7266
852.3904, 277.4272
852.8725, 278.6040
853.3546, 281.7001
853.8367, 283.5988
854.3188, 284.2845
854.8010, 283.7754
855.2831, 282.2725
855.7652, 280.5880
856.2473, 279.2179
856.7294, 278.3047
857.2115, 278.7277
857.6937, 279.9060
858.1758, 278.8777
858.6579, 275.4398
859.1400, 271.6653
859.6221, 268.2587
860.1042, 266.8230
860.5864, 270.4805
861.0685, 278.8824
861.5506, 282.4324
862.0327, 279.8383
862.5148, 277.4262
862.9969, 276.6380
863.4791, 276.1432
863.9612, 274.6151
864.4433, 272.6196
864.9254, 272.3032
865.4075, 274.9909
865.8896, 276.5884
866.3718, 276.1216
866.8539, 275.7846
867.3360, 278.1972
867.8181, 279.9626
868.3002, 275.4935
868.7823, 265.2403
869.2645, 259.2607
869.7466, 263.0815
870.2287, 267.7898
870.7108, 271.2849
871.1929, 273.1510
871.6750, 272.3668
872.1572, 269.7928
872.6393, 267.0405
873.1214, 264.5980
873.6035, 263.0922
874.0856, 263.7258
874.5677, 264.8994
875.0499, 265.0465
875.5320, 264.2580
876.0141, 262.3241
876.4962, 259.5804
876.9783, 257.6887
877.4604, 257.7547
877.9426, 259.3237
878.4247, 262.2362
878.9068, 266.0244
879.3889, 269.7970
879.8710, 273.1704
880.3531, 272.1327
880.8353, 264.8179
881.3174, 256.4064
881.7995, 253.1424
882.2816, 254.2198
882.7637, 254.7549
883.2458, 254.7871
883.7280, 253.7559
884.2101, 251.1299
884.6922, 248.9492
885.1743, 248.7784
885.6564, 249.6022
886.1385, 248.7360
886.6207, 244.6711
887.1028, 246.0884
887.5849, 258.6787
888.0670, 267.5427
888.5491, 267.6909
889.0313, 263.5147
889.5134, 256.7159
889.9955, 248.5158
890.4776, 244.5712
890.9597, 247.9535
891.4418, 250.7380
891.9240, 251.8502
892.4061, 252.1241
892.8882, 251.2319
893.3703, 250.1936
893.8524, 250.4480
894.3345, 252.1018
894.8167, 253.8164
895.2988, 255.5696
895.7809, 256.6202
896.2630, 255.4808
896.7451, 254.2779
897.2272, 256.6538
897.7094, 260.7166
898.1915, 260.6252
898.6736, 254.2584
899.1557, 248.0593
899.6378, 248.7658
900.1199, 251.2365
900.6021, 248.4556
901.0842, 242.6842
901.5663, 238.2697
902.0484, 236.3158
902.5305, 237.3847
903.0126, 242.1937
903.4948, 247.8751
903.9769, 250.3028
904.4590, 250.1525
904.9411, 249.0151
905.4232, 247.1578
905.9053, 245.6732
906.3875, 244.9208
906.8696, 244.8843
907.3517, 245.7851
907.8338, 246.9942
908.3159, 246.1460
908.7980, 243.2225
909.2802, 241.4000
909.7623, 241.2572
910.2444, 239.9038
910.7265, 235.2797
911.2086, 230.9156
911.6907, 232.5509
912.1729, 240.0637
912.6550, 243.3558
913.1371, 241.0455
913.6192, 238.8171
914.1013, 237.2263
914.5834, 236.7475
915.0656, 238.5049
915.5477, 241.0611
916.0298, 240.7343
916.5119, 235.9021
916.9940, 234.3603
917.4761, 240.3662
917.9583, 243.6286
918.4404, 237.9922
918.9225, 231.9977
919.4046, 234.6563
919.8867, 242.7886
920.3688, 243.7854
920.8510, 230.7786
921.3331, 223.8665
921.8152, 231.7737
922.2973, 239.5942
922.7794, 239.7063
923.2615, 236.4998
923.7437, 235.0666
924.2258, 235.7476
924.7079, 236.5741
925.1900, 237.7056
925.6721, 237.6495
926.1542, 235.7665
926.6364, 232.4862
927.1185, 225.8427
927.6006, 219.0004
928.0827, 218.2873
928.5648, 224.4731
929.0469, 229.3988
929.5291, 226.3116
930.0112, 222.8646
930.4933, 225.9811
930.9754, 231.2202
931.4575, 233.1171
931.9396, 232.0002
932.4218, 230.8758
932.9039, 230.8106
933.3860, 229.6331
933.8681, 223.4375
934.3502, 216.7263
934.8323, 216.4557
935.3145, 219.7633
935.7966, 220.3067
936.2787, 217.8952
936.7608, 217.1018
937.2429, 220.4656
937.7250, 224.3880
938.2072, 223.7733
938.6893, 220.7411
939.1714, 220.7027
939.6535, 222.7684
940.1356, 222.7053
940.6177, 219.7747
941.0999, 217.0339
941.5820, 216.7467
942.0641, 217.2945
942.5462, 214.5027
943.0283, 209.7490
943.5104, 211.2478
943.9926, 218.8099
944.4747, 226.2012
944.9568, 231.5783
945.4389, 232.9301
945.9210, 227.5534
946.4031, 218.8977
946.8853, 217.4518
947.3674, 223.1694
947.8495, 226.4627
948.3316, 226.6555
948.8137, 225.0645
949.2958, 222.0609
949.7780, 218.0038
950.2601, 212.9131
950.7422, 207.4038
951.2243, 204.7082
951.7064, 204.9077
952.1885, 208.1514
952.6707, 215.9315
953.1528, 220.7251
953.6349, 217.7738
954.1170, 212.8139
954.5991, 213.9533
955.0812, 220.8126
955.5634, 225.5570
956.0455, 229.3888
956.5276, 226.2854
957.0097, 209.9821
957.4918, 198.4750
957.9739, 204.2133
958.4561, 217.4374
958.9382, 221.9971
959.4203, 217.1348
959.9024, 214.6478
960.3845, 215.8088
960.8666, 216.8636
961.3488, 217.9657
961.8309, 217.8736
962.3130, 215.4180
962.7951, 211.4492
963.2772, 207.1075
963.7593, 201.6524
964.2415, 199.8391
964.7236, 205.9992
965.2057, 209.5007
965.6878, 205.3775
966.1699, 201.1758
966.6520, 202.7481
967.1342, 207.5488
967.6163, 209.6219
968.0984, 208.0305
968.5805, 206.9323
969.0626, 207.1013
969.5447, 207.0122
970.0269, 206.5634
970.5090, 205.4664
970.9911, 202.2135
971.4732, 198.3162
971.9553, 197.9641
972.4374, 202.5791
972.9196, 207.0076
973.4017, 211.6149
973.8838, 214.6042
974.3659, 214.5732
974.8480, 213.2932
975.3301, 212.4334
975.8123, 211.6518
976.2944, 209.3771
976.7765, 204.5323
977.2586, 200.9906
977.7407, 201.0888
978.2228, 200.8837
978.7050, 197.3059
979.1871, 193.6547
979.6692, 193.2414
980.1513, 195.7399
980.6334, 199.2844
981.1155, 204.1694
981.5977, 207.8823
982.0798, 210.2014
982.5619, 210.5526
983.0440, 206.3685
983.5261, 201.7243
984.0082, 201.8092
984.4904, 205.6492
984.9725, 208.1211
985.4546, 208.1678
985.9367, 205.9022
986.4188, 197.3844
986.9009, 191.0456
987.3831, 194.4902
987.8652, 201.0132
988.3473, 202.5634
988.8294, 199.3419
989.3115, 196.1195
989.7936, 193.5780
990.2758, 193.3810
990.7579, 200.7862
991.2400, 205.7625
991.7221, 197.8950
992.2042, 186.4944
992.6863, 183.9218
993.1685, 189.5018
993.6506, 193.2495
994.1327, 190.6573
994.6148, 189.4779
995.0969, 195.5180
995.5790, 201.6010
996.0612, 203.8409
996.5433, 202.5696
997.0254, 195.8386
997.5075, 185.9634
997.9896, 182.5762
998.4717, 191.7714
998.9539, 199.2137
999.4360, 196.5204
999.9181, 191.6835
1000.400, 189.6863
1000.882, 189.2510
1001.364, 188.0275
1001.847, 186.2875
1002.329, 186.7430
1002.811, 191.5952
1003.293, 194.7265
1003.775, 191.8373
1004.257, 187.8048
1004.739, 184.2743
1005.221, 182.7086
1005.703, 186.6070
1006.186, 194.1911
1006.668, 197.6968
1007.150, 192.9588
1007.632, 189.2413
1008.114, 193.5599
1008.596, 197.2020
1009.078, 191.9794
1009.560, 184.5369
1010.043, 184.1861
1010.525, 189.6845
1011.007, 192.4384
1011.489, 189.1473
1011.971, 185.4854
1012.453, 182.9893
1012.935, 181.8719
1013.417, 183.6143
1013.899, 185.8276
1014.382, 185.3137
1014.864, 182.8068
1015.346, 181.8966
1015.828, 184.1577
1016.310, 185.4585
1016.792, 183.2128
1017.274, 180.7773
1017.756, 179.1156
1018.239, 178.8549
1018.721, 182.2170
1019.203, 187.3197
1019.685, 188.4633
1020.167, 183.4990
1020.649, 178.8696
1021.131, 175.6578
1021.613, 174.4836
1022.095, 176.9002
1022.578, 180.3835
1023.060, 182.9456
1023.542, 184.5892
1024.024, 185.9747
1024.506, 187.3558
1024.988, 187.5515
1025.470, 185.0297
1025.952, 182.8738
1026.435, 182.6247
1026.917, 182.8343
1027.399, 182.8132
1027.881, 182.1978
1028.363, 180.0557
1028.845, 175.9581
1029.327, 173.0972
1029.809, 173.0710
1030.292, 172.9355
1030.774, 169.2020
1031.256, 167.8130
1031.738, 176.5682
1032.220, 188.9199
1032.702, 192.0382
1033.184, 184.1602
1033.666, 179.5666
1034.148, 184.9312
1034.630, 186.0004
1035.113, 175.1302
1035.595, 165.2079
1036.077, 164.4115
1036.559, 168.3981
1037.041, 170.8677
1037.523, 171.6690
1038.005, 172.8857
1038.487, 174.1474
1038.970, 176.5051
1039.452, 183.0752
1039.934, 186.7071
1040.416, 181.6841
1040.898, 174.3149
1041.380, 172.4801
1041.862, 175.6066
1042.344, 177.3176
1042.826, 177.3059
1043.309, 176.5073
1043.791, 174.8080
1044.273, 172.3984
1044.755, 167.8737
1045.237, 164.9090
1045.719, 168.7080
1046.201, 176.8760
1046.683, 177.6547
1047.166, 167.3545
1047.648, 162.4947
1048.130, 164.7311
1048.612, 168.1158
1049.094, 171.6318
1049.576, 173.6976
1050.058, 172.4265
1050.540, 169.4198
1051.022, 169.1945
1051.505, 172.1009
1051.987, 174.5972
1052.469, 176.9460
1052.951, 176.7616
1053.433, 173.0376
1053.915, 169.0231
1054.397, 166.7156
1054.879, 165.9691
1055.361, 166.9120
1055.844, 169.2831
1056.326, 169.9122
1056.808, 168.8077
1057.290, 166.8630
1057.772, 164.2033
1058.254, 163.4562
1058.736, 166.1529
1059.218, 169.6197
1059.701, 170.3963
1060.183, 169.0365
1060.665, 166.2915
1061.147, 162.9266
1061.629, 164.5406
1062.111, 170.8291
1062.593, 173.9691
1063.075, 171.0319
1063.557, 166.8211
1064.040, 166.1165
1064.522, 166.7187
1065.004, 164.0788
1065.486, 159.7841
1065.968, 157.5771
1066.450, 157.4362
1066.932, 158.3306
1067.414, 159.8427
1067.896, 161.5520
1068.379, 163.2638
1068.861, 164.6871
1069.343, 166.4357
1069.825, 166.9809
1070.307, 161.7093
1070.789, 154.5699
1071.271, 154.6055
1071.753, 161.4052
1072.236, 166.4931
1072.718, 165.9652
1073.200, 163.9378
1073.682, 162.5654
1074.164, 161.8526
1074.646, 162.4526
1075.128, 163.2319
1075.610, 162.7642
1076.093, 161.2635
1076.575, 159.5251
1077.057, 157.7285
1077.539, 156.5989
1078.021, 156.4022
1078.503, 157.0144
1078.985, 159.9663
1079.467, 162.1404
1079.949, 159.7931
1080.432, 155.6611
1080.914, 154.7015
1081.396, 157.2916
1081.878, 159.0551
1082.360, 158.0169
1082.842, 157.9435
1083.324, 161.2104
1083.806, 163.3834
1084.288, 162.2666
1084.771, 159.1897
1085.253, 154.0125
1085.735, 147.9261
1086.217, 147.0223
1086.699, 154.3119
1087.181, 158.7023
1087.663, 158.7799
1088.145, 158.8885
1088.628, 160.8187
1089.110, 161.6362
1089.592, 158.3269
1090.074, 153.4849
1090.556, 152.9777
1091.038, 156.9926
1091.520, 160.1861
1092.002, 162.7476
1092.484, 162.8709
1092.967, 159.9762
1093.449, 156.0234
1093.931, 151.4782
1094.413, 149.4310
1094.895, 155.0409
1095.377, 164.8723
1095.859, 164.6060
1096.341, 155.9808
1096.823, 153.4174
1097.306, 157.2984
1097.788, 158.4294
1098.270, 154.0766
1098.752, 150.1886
1099.234, 151.5383
1099.716, 155.7123
1100.198, 160.7906
1100.680, 165.0422
1101.163, 164.1981
1101.645, 159.6851
1102.127, 154.1232
1102.609, 148.9778
1103.091, 147.6529
1103.573, 151.9954
1104.055, 156.1182
1104.537, 153.7140
1105.020, 150.4287
1105.502, 152.7694
1105.984, 156.2461
1106.466, 153.7519
1106.948, 148.2269
1107.430, 148.2842
1107.912, 155.2789
1108.394, 159.3132
1108.876, 154.1937
1109.359, 148.6821
1109.841, 144.6095
1110.323, 142.7328
1110.805, 145.6130
1111.287, 149.5318
1111.769, 149.8724
1112.251, 147.0050
1112.733, 144.0100
1113.215, 139.2486
1113.698, 139.2464
1114.180, 148.7372
1114.662, 155.7129
1115.144, 157.2314
1115.626, 155.8153
1116.108, 151.9642
1116.590, 147.5058
1117.072, 146.0773
1117.555, 147.6971
1118.037, 147.8126
1118.519, 145.8080
1119.001, 146.1255
1119.483, 149.7208
1119.965, 152.9273
1120.447, 154.3337
1120.929, 153.8084
1121.411, 150.9726
1121.894, 146.7133
1122.376, 142.6239
1122.858, 139.1736
1123.340, 139.7123
1123.822, 143.4369
1124.304, 145.1955
1124.786, 144.0624
1125.268, 143.0568
1125.750, 143.9274
1126.233, 145.0138
1126.715, 143.7091
1127.197, 142.1469
1127.679, 144.9283
1128.161, 148.4943
1128.643, 145.2172
1129.125, 137.9535
1129.607, 136.5590
1130.090, 142.9086
1130.572, 147.5919
1131.054, 144.9455
1131.536, 141.2058
1132.018, 138.8499
1132.500, 137.3515
1132.982, 136.1789
1133.464, 135.7649
1133.947, 137.4443
1134.429, 140.4161
1134.911, 141.3215
1135.393, 138.8578
1135.875, 137.4340
1136.357, 137.8622
1136.839, 138.6967
1137.321, 140.0059
1137.803, 141.2641
1138.286, 142.5285
1138.768, 143.1304
1139.250, 141.9139
1139.732, 139.0942
1140.214, 136.4662
1140.696, 133.8443
1141.178, 133.1581
1141.660, 134.7761
1142.142, 135.2284
1142.625, 133.2923
1143.107, 132.0044
1143.589, 133.8433
1144.071, 137.0981
1144.553, 138.8299
1145.035, 139.5439
1145.517, 140.6134
1145.999, 142.0216
1146.482, 144.5766
1146.964, 147.4634
1147.446, 146.4757
1147.928, 140.4105
1148.410, 135.6981
1148.892, 138.4228
1149.374, 142.1372
1149.856, 141.0209
1150.339, 138.2163
1150.821, 136.0253
1151.303, 134.7818
1151.785, 135.5618
1152.267, 137.4740
1152.749, 136.4580
1153.231, 130.2440
1153.713, 126.2842
1154.195, 128.0364
1154.677, 129.7842
1155.160, 129.5191
1155.642, 129.0957
1156.124, 130.3551
1156.606, 131.5499
1157.088, 129.3763
1157.570, 124.4220
1158.052, 124.2302
1158.534, 130.6046
1159.017, 133.0615
1159.499, 130.3173
1159.981, 128.3315
1160.463, 128.9685
1160.945, 130.0221
1161.427, 129.9685
1161.909, 128.9519
1162.391, 126.1625
1162.874, 123.0101
1163.356, 125.7837
1163.838, 132.0240
1164.320, 133.0293
1164.802, 129.2956
1165.284, 127.2644
1165.766, 128.8242
1166.248, 130.4411
1166.730, 129.5672
1167.213, 128.4837
1167.695, 129.2585
1168.177, 130.4661
1168.659, 131.7331
1169.141, 132.0078
1169.623, 128.3964
1170.105, 123.0049
1170.587, 122.5859
1171.069, 129.1722
1171.552, 133.4787
1172.034, 132.8995
1172.516, 131.4990
1172.998, 127.4514
1173.480, 126.4907
1173.962, 134.2402
1174.444, 141.4733
1174.926, 137.0729
1175.409, 125.5488
1175.891, 123.3795
1176.373, 131.5128
1176.855, 135.3438
1177.337, 134.7997
1177.819, 133.6884
1178.301, 132.7199
1178.783, 130.7941
1179.266, 127.3647
1179.748, 124.4780
1180.230, 124.2352
1180.712, 126.0006
1181.194, 130.7546
1181.676, 135.4864
1182.158, 133.9962
1182.640, 128.6496
1183.122, 124.4446
1183.604, 122.2589
1184.087, 120.9450
1184.569, 119.9965
1185.051, 120.6604
1185.533, 126.0453
1186.015, 129.6923
1186.497, 127.7861
1186.979, 124.3774
1187.461, 119.8019
1187.944, 117.1250
1188.426, 122.5612
1188.908, 133.9741
1189.390, 137.7803
1189.872, 131.0870
1190.354, 127.1404
1190.836, 126.5219
1191.318, 126.1158
1191.801, 125.3021
1192.283, 124.0260
1192.765, 122.0828
1193.247, 121.1782
1193.729, 124.0306
1194.211, 128.5933
1194.693, 130.5093
1195.175, 129.8538
1195.657, 124.8656
1196.140, 117.9331
1196.622, 116.0376
1197.104, 119.6495
1197.586, 124.2004
1198.068, 128.0082
1198.550, 129.0372
1199.032, 122.4903
1199.514, 117.3734
1199.996, 120.8134
1200.479, 125.6351
1200.961, 125.7973
1201.443, 123.9047
1201.925, 124.5352
1202.407, 127.3870
1202.889, 128.3345
1203.371, 126.6472
1203.853, 125.1838
1204.336, 123.4439
1204.818, 124.0278
1205.300, 128.3028
1205.782, 130.8790
1206.264, 128.6648
1206.746, 124.6956
1207.228, 122.2366
1207.710, 121.3409
1208.193, 122.9590
1208.675, 125.9638
1209.157, 127.4508
1209.639, 127.2911
1210.121, 125.2162
1210.603, 121.6512
1211.085, 117.7848
1211.567, 114.0280
1212.049, 112.3986
1212.531, 115.9896
1213.014, 119.5015
1213.496, 119.6246
1213.978, 119.2510
1214.460, 121.3675
1214.942, 123.4340
1215.424, 120.8487
1215.906, 115.4997
1216.388, 115.0515
1216.871, 120.9239
1217.353, 122.5774
1217.835, 118.6884
1218.317, 116.2388
1218.799, 116.3070
1219.281, 117.3009
1219.763, 118.6949
1220.245, 119.0149
1220.728, 116.7956
1221.210, 113.2082
1221.692, 108.4761
1222.174, 105.0253
1222.656, 110.3722
1223.138, 119.7254
1223.620, 123.3033
1224.102, 121.4109
1224.584, 118.3256
1225.067, 115.4364
1225.549, 113.8302
1226.031, 114.4685
1226.513, 115.5081
1226.995, 116.9688
1227.477, 117.8832
1227.959, 118.3325
1228.441, 117.4445
1228.923, 113.4689
1229.406, 108.8179
1229.888, 107.9012
1230.370, 110.2886
1230.852, 111.1618
1231.334, 110.4249
1231.816, 110.9937
1232.298, 112.9217
1232.780, 112.4657
1233.263, 109.0937
1233.745, 108.7644
1234.227, 114.9926
1234.709, 121.7244
##END=



