##NAMES=Stibnite
##RRUFFID=R050066
##IDEAL CHEMISTRY=Sb^3+^_2_S^2-^_3_
##LOCALITY=Wuling, Jiangxi Province, China
##OWNER=RRUFF
##SOURCE=Rock Currier
##DESCRIPTION=Lead-gray prismatic crystal
##STATUS=The identification of this mineral has been confirmed by X-ray diffraction and chemical analysis
##URL=rruff.info/R050066
##MEASURED CHEMISTRY=Sb_2.00_S_3.00_
121.046, 5918.451
121.528, 6390.039
122.010, 7021.200
122.492, 7789.676
122.974, 8658.349
123.456, 9724.469
123.939, 11009.560
124.421, 12510.430
124.903, 14225.980
125.385, 16185.250
125.867, 18429.439
126.349, 20665.830
126.831, 22990.199
127.313, 25237.260
127.796, 27318.721
128.278, 29232.170
128.760, 31068.410
129.242, 32903.910
129.724, 34740.641
130.206, 36595.871
130.688, 38644.430
131.170, 40598.102
131.652, 42382.461
132.135, 43951.410
132.617, 45178.988
133.099, 45862.820
133.581, 45809.199
134.063, 45522.949
134.545, 44906.852
135.027, 44168.281
135.509, 43409.172
135.992, 42674.328
136.474, 42020.250
136.956, 41554.660
137.438, 41258.961
137.920, 41230.090
138.402, 41406.629
138.884, 41853.520
139.366, 42628.031
139.848, 43748.609
140.331, 45212.789
140.813, 47000.289
141.295, 49167.680
141.777, 51659.629
142.259, 54490.961
142.741, 57639.301
143.223, 61070.500
143.705, 64773.109
144.188, 68723.719
144.670, 72909.938
145.152, 77417.281
145.634, 82029.070
146.116, 86730.773
146.598, 91513.977
147.080, 96373.398
147.562, 101340.398
148.044, 106374.898
148.527, 111343.297
149.009, 116290.602
149.491, 121140.703
149.973, 125931.500
150.455, 130648.398
150.937, 135247.000
151.419, 139739.500
151.901, 144095.500
152.383, 148275.094
152.866, 152456.203
153.348, 156341.594
153.830, 159949.094
154.312, 163186.906
154.794, 165831.594
155.276, 167793.094
155.758, 168960.906
156.240, 169143.906
156.723, 168157.906
157.205, 166486.000
157.687, 164112.000
158.169, 161158.406
158.651, 158132.203
159.133, 155220.594
159.615, 152549.406
160.097, 150407.703
160.579, 148711.797
161.062, 147573.906
161.544, 147120.906
162.026, 147332.797
162.508, 148005.594
162.990, 149053.094
163.472, 150514.406
163.954, 152309.703
164.436, 154576.203
164.919, 157071.094
165.401, 159613.000
165.883, 162203.594
166.365, 164865.203
166.847, 167644.094
167.329, 170502.594
167.811, 173276.297
168.293, 175893.297
168.775, 178457.000
169.258, 181058.500
169.740, 183702.797
170.222, 186319.500
170.704, 188894.094
171.186, 191399.797
171.668, 193783.797
172.150, 195908.000
172.632, 197975.000
173.115, 200244.703
173.597, 202752.500
174.079, 205216.000
174.561, 207401.094
175.043, 209439.797
175.525, 211588.094
176.007, 213956.594
176.489, 216438.703
176.971, 218888.797
177.454, 221279.094
177.936, 223805.703
178.418, 226582.500
178.900, 229576.906
179.382, 232782.000
179.864, 236163.703
180.346, 239775.500
180.828, 243674.094
181.311, 247834.500
181.793, 252355.703
182.275, 257297.406
182.757, 262639.406
183.239, 268406.000
183.721, 274628.594
184.203, 281261.000
184.685, 288276.812
185.167, 295648.688
185.650, 303455.188
186.132, 311913.594
186.614, 320775.094
187.096, 329830.500
187.578, 339154.500
188.060, 348516.812
188.542, 357802.594
189.024, 367016.812
189.507, 375889.906
189.989, 384252.406
190.471, 392145.406
190.953, 399530.906
191.435, 406500.500
191.917, 412838.312
192.399, 418186.594
192.881, 422422.188
193.363, 426083.000
193.846, 429375.000
194.328, 432307.406
194.810, 434809.188
195.292, 436769.812
195.774, 438379.500
196.256, 439880.406
196.738, 441270.594
197.220, 442600.906
197.702, 443990.312
198.185, 445314.500
198.667, 446409.500
199.149, 447233.094
199.631, 447810.906
200.113, 448218.000
200.595, 448487.500
201.077, 448434.906
201.559, 447851.594
202.042, 446912.406
202.524, 445770.812
203.006, 444507.000
203.488, 442985.094
203.970, 441072.094
204.452, 438780.812
204.934, 435980.906
205.416, 432379.312
205.898, 428294.000
206.381, 424029.094
206.863, 419640.094
207.345, 415062.594
207.827, 410216.500
208.309, 405097.188
208.791, 399721.594
209.273, 393946.000
209.755, 387947.812
210.238, 381972.312
210.720, 376037.000
211.202, 370128.406
211.684, 364251.812
212.166, 358403.406
212.648, 352616.406
213.130, 346923.188
213.612, 341345.094
214.094, 335905.906
214.577, 330587.906
215.059, 325528.406
215.541, 320947.406
216.023, 316853.688
216.505, 312991.000
216.987, 309278.594
217.469, 305827.312
217.951, 302702.094
218.434, 299927.906
218.916, 297455.906
219.398, 295190.688
219.880, 293153.312
220.362, 291589.406
220.844, 290633.688
221.326, 290179.188
221.808, 290004.000
222.290, 290095.812
222.773, 290533.906
223.255, 291341.188
223.737, 292531.406
224.219, 294169.906
224.701, 296303.594
225.183, 298913.406
225.665, 301877.312
226.147, 305178.406
226.629, 308917.500
227.112, 313129.594
227.594, 317801.000
228.076, 322971.406
228.558, 328700.500
229.040, 334824.688
229.522, 341081.906
230.004, 347482.188
230.486, 354208.500
230.969, 361550.188
231.451, 369245.094
231.933, 376784.906
232.415, 384064.688
232.897, 391190.406
233.379, 398344.094
233.861, 405486.312
234.343, 412186.312
234.825, 418404.906
235.307, 424031.906
235.790, 429043.406
236.272, 433508.500
236.754, 437027.688
237.236, 439177.688
237.718, 440064.188
238.200, 439862.500
238.682, 438622.000
239.165, 436290.406
239.647, 432783.812
240.129, 428076.312
240.611, 422342.312
241.093, 415487.094
241.575, 407567.406
242.057, 399205.688
242.539, 390212.406
243.021, 380926.000
243.503, 371485.812
243.986, 361925.094
244.468, 352472.406
244.950, 343241.406
245.432, 334259.094
245.914, 325606.812
246.396, 317094.000
246.878, 309123.688
247.361, 301932.188
247.843, 295484.000
248.325, 289642.594
248.807, 284342.406
249.289, 279621.188
249.771, 275462.000
250.253, 271876.906
250.735, 268741.312
251.217, 266132.188
251.699, 263961.812
252.182, 262064.297
252.664, 260401.500
253.146, 258911.500
253.628, 257458.000
254.110, 255864.500
254.592, 254563.797
255.074, 253825.797
255.556, 253370.000
256.039, 252835.000
256.521, 252098.000
257.003, 251250.000
257.485, 250434.500
257.967, 249630.406
258.449, 248912.297
258.931, 248282.906
259.413, 247746.406
259.896, 247273.703
260.378, 246869.094
260.860, 246613.797
261.342, 246608.406
261.824, 246902.203
262.306, 247361.797
262.788, 247805.000
263.270, 248531.094
263.752, 249700.500
264.235, 251338.703
264.717, 253398.406
265.199, 255810.203
265.681, 258507.906
266.163, 262112.406
266.645, 266716.688
267.127, 272010.000
267.609, 277748.000
268.091, 284072.312
268.574, 291297.812
269.056, 299613.000
269.538, 309075.812
270.020, 319681.094
270.502, 331632.312
270.984, 344739.906
271.466, 358980.812
271.948, 374384.000
272.431, 390959.406
272.913, 408735.000
273.395, 427713.188
273.877, 448220.312
274.359, 470453.594
274.841, 493940.000
275.323, 518847.312
275.805, 544663.000
276.288, 571080.875
276.770, 598111.812
277.252, 625240.125
277.734, 652072.312
278.216, 678890.125
278.698, 704271.188
279.180, 729257.688
279.662, 751907.125
280.144, 771383.625
280.626, 787350.312
281.109, 799263.625
281.591, 806834.312
282.073, 810112.812
282.555, 808011.875
283.037, 799311.312
283.519, 785586.688
284.001, 767316.125
284.483, 744934.125
284.966, 719745.625
285.448, 691959.625
285.930, 661863.125
286.412, 631703.188
286.894, 601040.625
287.376, 571043.000
287.858, 542066.812
288.340, 514047.688
288.823, 487617.688
289.305, 462802.812
289.787, 439781.688
290.269, 418857.406
290.751, 400092.594
291.233, 383204.906
291.715, 368369.688
292.197, 355447.312
292.679, 344172.812
293.162, 334622.406
293.644, 326590.406
294.126, 320049.094
294.608, 314961.406
295.090, 311171.906
295.572, 308662.500
296.054, 307427.500
296.536, 307297.094
297.018, 308265.812
297.501, 310129.812
297.983, 312934.594
298.465, 316567.812
298.947, 320785.812
299.429, 325532.188
299.911, 330882.906
300.393, 337017.000
300.875, 344041.188
301.358, 351486.812
301.840, 359065.906
302.322, 367165.688
302.804, 376150.688
303.286, 386059.688
303.768, 396670.094
304.250, 407802.312
304.732, 419409.812
305.215, 432082.312
305.697, 445989.312
306.179, 460587.906
306.661, 475928.812
307.143, 491849.906
307.625, 508195.094
308.107, 524838.812
308.589, 541745.375
309.071, 558119.125
309.553, 575763.375
310.036, 590890.500
310.518, 604845.125
311.000, 615384.000
311.482, 620718.000
311.964, 620126.375
312.446, 612293.375
312.928, 594225.188
313.410, 563799.188
313.893, 526807.625
314.375, 480079.406
314.857, 430359.688
315.339, 380701.312
315.821, 332347.906
316.303, 287271.594
316.785, 247681.094
317.267, 213591.797
317.750, 184300.406
318.232, 161310.500
318.714, 142215.594
319.196, 126488.602
319.678, 113712.000
320.160, 102954.898
320.642, 94065.711
321.124, 86792.570
321.606, 80574.531
322.089, 75533.430
322.571, 71199.906
323.053, 67487.703
323.535, 64249.570
324.017, 61371.398
324.499, 58863.500
324.981, 56640.910
325.463, 54658.570
325.945, 52897.430
326.428, 51277.840
326.910, 49773.531
327.392, 48402.289
327.874, 47175.801
328.356, 46106.648
328.838, 45103.219
329.320, 44121.961
329.802, 43174.230
330.284, 42278.980
330.767, 41439.750
331.249, 40660.660
331.731, 39952.922
332.213, 39326.852
332.695, 38731.922
333.177, 38194.820
333.659, 37668.531
334.142, 37104.430
334.624, 36510.930
335.106, 35959.262
335.588, 35506.359
336.070, 35146.641
336.552, 34789.000
337.034, 34420.391
337.516, 34069.621
337.998, 33751.500
338.480, 33455.340
338.963, 33161.102
339.445, 32860.660
339.927, 32563.240
340.409, 32289.461
340.891, 32038.039
341.373, 31815.990
341.855, 31634.199
342.337, 31469.650
342.819, 31307.400
343.302, 31143.949
343.784, 30983.859
344.266, 30828.461
344.748, 30677.930
345.230, 30537.070
345.712, 30404.779
346.194, 30284.980
346.677, 30192.689
347.159, 30113.820
347.641, 30014.211
348.123, 29861.939
348.605, 29686.080
349.087, 29560.711
349.569, 29501.510
350.051, 29431.410
350.533, 29304.260
351.016, 29151.480
351.498, 29009.539
351.980, 28885.100
352.462, 28766.840
352.944, 28646.770
353.426, 28525.369
353.908, 28407.400
354.390, 28296.730
354.872, 28184.359
355.355, 28053.461
355.837, 27902.131
356.319, 27765.029
356.801, 27668.619
357.283, 27578.920
357.765, 27457.811
358.247, 27303.529
358.729, 27139.779
359.211, 26986.381
359.694, 26843.330
360.176, 26689.461
360.658, 26525.270
361.140, 26352.859
361.622, 26175.230
362.104, 25990.180
362.586, 25790.080
363.069, 25569.920
363.551, 25342.311
364.033, 25137.490
364.515, 24962.350
364.997, 24799.750
365.479, 24670.240
365.961, 24535.359
366.443, 24366.381
366.925, 24160.820
367.408, 23938.221
367.890, 23707.471
368.372, 23466.180
368.854, 23262.080
369.336, 23104.090
369.818, 22975.570
370.300, 22890.410
370.782, 22824.279
371.264, 22732.289
371.747, 22583.750
372.229, 22414.779
372.711, 22281.381
373.193, 22185.490
373.675, 22108.020
374.157, 22060.240
374.639, 22015.180
375.121, 21932.350
375.603, 21800.900
376.086, 21680.971
376.568, 21611.641
377.050, 21574.500
377.532, 21541.141
378.014, 21509.359
378.496, 21456.221
378.978, 21348.990
379.460, 21181.051
379.943, 21047.830
380.425, 20973.330
380.907, 20912.859
381.389, 20840.850
381.871, 20760.359
382.353, 20685.881
382.835, 20626.381
383.317, 20574.900
383.799, 20507.289
384.282, 20405.750
384.764, 20310.150
385.246, 20228.609
385.728, 20150.000
386.210, 20068.770
386.692, 19981.670
387.174, 19882.750
387.656, 19758.740
388.138, 19604.289
388.621, 19473.949
389.103, 19389.039
389.585, 19306.070
390.067, 19202.891
390.549, 19089.811
391.031, 18987.369
391.513, 18906.670
391.996, 18840.039
392.478, 18777.980
392.960, 18721.580
393.442, 18658.340
393.924, 18584.520
394.406, 18500.061
394.888, 18401.881
395.370, 18284.820
395.852, 18181.730
396.335, 18121.689
396.817, 18083.381
397.299, 18025.830
397.781, 17940.920
398.263, 17852.869
398.745, 17781.561
399.227, 17728.330
399.709, 17683.270
400.191, 17683.619
400.674, 17654.971
401.156, 17530.199
401.638, 17351.900
402.120, 17209.039
402.602, 17144.580
403.084, 17134.699
403.566, 17123.869
404.048, 17114.779
404.530, 17099.820
405.013, 17080.480
405.495, 17055.061
405.977, 17013.510
406.459, 16961.480
406.941, 16923.330
407.423, 16927.090
407.905, 16967.170
408.387, 16983.010
408.870, 16958.590
409.352, 16938.301
409.834, 16944.939
410.316, 16964.850
410.798, 16977.770
411.280, 16973.109
411.762, 16973.881
412.244, 17010.920
412.727, 17077.631
413.209, 17130.250
413.691, 17153.980
414.173, 17165.830
414.655, 17185.289
415.137, 17211.561
415.619, 17240.590
416.101, 17261.160
416.583, 17291.131
417.065, 17354.199
417.548, 17444.520
418.030, 17532.170
418.512, 17600.840
418.994, 17650.369
419.476, 17681.410
419.958, 17657.400
420.440, 17661.029
420.922, 17724.080
421.405, 17803.590
421.887, 17857.100
422.369, 17877.029
422.851, 17887.100
423.333, 17912.410
423.815, 17953.820
424.297, 18003.350
424.779, 18075.990
425.262, 18137.430
425.744, 18173.779
426.226, 18190.689
426.708, 18197.350
427.190, 18195.340
427.672, 18188.480
428.154, 18180.189
428.636, 18170.609
429.118, 18160.779
429.601, 18141.650
430.083, 18134.551
430.565, 18179.811
431.047, 18280.980
431.529, 18355.061
432.011, 18365.510
432.493, 18347.680
432.975, 18330.289
433.457, 18317.211
433.940, 18310.119
434.422, 18310.449
434.904, 18317.699
435.386, 18328.820
435.868, 18358.670
436.350, 18373.721
436.832, 18363.359
437.314, 18340.199
437.797, 18308.609
438.279, 18273.350
438.761, 18251.619
439.243, 18265.039
439.725, 18315.670
440.207, 18372.350
440.689, 18445.480
441.171, 18510.939
441.654, 18558.500
442.136, 18592.850
442.618, 18621.289
443.100, 18644.670
443.582, 18666.490
444.064, 18690.600
444.546, 18716.711
445.028, 18742.471
445.510, 18767.301
445.992, 18790.990
446.475, 18806.770
446.957, 18812.760
447.439, 18844.131
447.921, 18935.699
448.403, 19031.971
448.885, 19092.539
449.367, 19118.609
449.849, 19123.400
450.332, 19111.381
450.814, 19091.869
451.296, 19097.080
451.778, 19161.109
452.260, 19199.529
452.742, 19176.590
453.224, 19151.631
453.706, 19180.240
454.189, 19259.199
454.671, 19334.539
455.153, 19349.400
455.635, 19317.980
456.117, 19333.670
456.599, 19417.859
457.081, 19499.961
457.563, 19542.590
458.045, 19567.500
458.528, 19599.131
459.010, 19642.600
459.492, 19688.439
459.974, 19735.070
460.456, 19778.699
460.938, 19804.250
461.420, 19806.551
461.902, 19814.721
462.384, 19858.211
462.867, 19939.180
463.349, 20014.721
463.831, 20092.881
464.313, 20157.920
464.795, 20200.760
465.277, 20227.750
465.759, 20244.789
466.241, 20254.779
466.724, 20266.020
467.206, 20294.930
467.688, 20350.199
468.170, 20391.199
468.652, 20406.461
469.134, 20417.141
469.616, 20429.320
470.098, 20443.840
470.581, 20462.230
471.063, 20488.551
471.545, 20513.961
472.027, 20521.650
472.509, 20512.561
472.991, 20510.170
473.473, 20521.779
473.955, 20542.949
474.437, 20575.070
474.919, 20621.471
475.402, 20643.381
475.884, 20607.010
476.366, 20564.590
476.848, 20559.590
477.330, 20587.270
477.812, 20623.891
478.294, 20658.699
478.776, 20683.270
479.259, 20666.900
479.741, 20559.881
480.223, 20500.199
480.705, 20522.869
481.187, 20567.230
481.669, 20600.850
482.151, 20617.971
482.633, 20619.350
483.116, 20595.760
483.598, 20560.260
484.080, 20552.260
484.562, 20574.801
485.044, 20610.561
485.526, 20659.570
486.008, 20713.820
486.490, 20760.410
486.972, 20798.520
487.455, 20831.279
487.937, 20859.490
488.419, 20883.039
488.901, 20899.580
489.383, 20909.789
489.865, 20919.670
490.347, 20933.020
490.829, 20949.930
491.311, 20971.869
491.794, 21010.930
492.276, 21038.939
492.758, 21050.711
493.240, 21052.170
493.722, 21048.240
494.204, 21039.820
494.686, 21025.400
495.168, 20998.650
495.651, 20963.520
496.133, 20942.240
496.615, 20935.789
497.097, 20940.789
497.579, 20967.439
498.061, 21000.090
498.543, 21015.131
499.025, 21007.830
499.508, 20992.150
499.990, 20967.109
500.472, 20940.980
500.954, 20926.211
501.436, 20924.330
501.918, 20931.420
502.400, 20948.789
502.882, 20973.090
503.364, 20962.520
503.846, 20862.811
504.329, 20794.689
504.811, 20794.400
505.293, 20820.510
505.775, 20833.801
506.257, 20826.801
506.739, 20816.500
507.221, 20831.971
507.703, 20864.250
508.186, 20838.430
508.668, 20730.551
509.150, 20631.721
509.632, 20598.971
510.114, 20600.439
510.596, 20583.580
511.078, 20538.189
511.560, 20491.869
512.042, 20460.381
512.525, 20433.980
513.007, 20401.119
513.489, 20359.369
513.971, 20305.500
514.453, 20233.570
514.935, 20146.801
515.417, 20083.850
515.899, 20087.061
516.382, 20058.949
516.864, 19964.010
517.346, 19848.881
517.828, 19755.160
518.310, 19689.020
518.792, 19632.400
519.274, 19577.859
519.756, 19520.670
520.239, 19432.850
520.721, 19303.820
521.203, 19190.840
521.685, 19133.230
522.167, 19103.760
522.649, 19051.740
523.131, 18981.520
523.613, 18876.449
524.096, 18689.270
524.578, 18489.850
525.060, 18356.619
525.542, 18291.400
526.024, 18253.721
526.506, 18218.971
526.988, 18181.590
527.470, 18112.410
527.952, 17985.381
528.435, 17873.240
528.917, 17795.529
529.399, 17726.320
529.881, 17643.311
530.363, 17548.320
530.845, 17464.480
531.327, 17413.480
531.809, 17380.660
532.291, 17343.170
532.774, 17301.010
533.256, 17240.561
533.738, 17149.840
534.220, 17046.070
534.702, 16961.961
535.184, 16904.580
535.666, 16837.119
536.148, 16721.711
536.630, 16624.029
537.113, 16608.119
537.595, 16648.029
538.077, 16672.471
538.559, 16642.660
539.041, 16576.930
539.523, 16509.039
540.005, 16434.051
540.487, 16379.740
540.969, 16375.330
541.452, 16365.300
541.934, 16307.210
542.416, 16215.400
542.898, 16134.510
543.380, 16085.360
543.862, 16048.230
544.344, 16013.760
544.826, 15977.600
545.309, 15922.260
545.791, 15841.010
546.273, 15756.780
546.755, 15699.150
547.237, 15674.410
547.719, 15631.260
548.201, 15550.450
548.683, 15474.820
549.166, 15417.290
549.648, 15372.470
550.130, 15337.960
550.612, 15312.060
551.094, 15278.750
551.576, 15209.950
552.058, 15113.770
552.540, 15052.260
553.023, 15040.440
553.505, 15020.840
553.987, 14948.150
554.469, 14845.630
554.951, 14779.760
555.433, 14775.900
555.915, 14760.360
556.397, 14705.620
556.879, 14631.030
557.362, 14546.460
557.844, 14459.720
558.326, 14391.440
558.808, 14358.170
559.290, 14352.890
559.772, 14350.480
560.254, 14369.930
560.736, 14347.680
561.218, 14227.600
561.701, 14094.390
562.183, 14001.080
562.665, 13947.000
563.147, 13906.620
563.629, 13881.790
564.111, 13854.510
564.593, 13797.990
565.075, 13718.830
565.557, 13646.810
566.040, 13593.050
566.522, 13547.440
567.004, 13496.050
567.486, 13440.090
567.968, 13373.160
568.450, 13270.370
568.932, 13184.800
569.414, 13150.430
569.896, 13140.570
570.379, 13112.120
570.861, 13050.250
571.343, 12986.200
571.825, 12963.540
572.307, 12972.080
572.789, 12954.810
573.271, 12903.700
573.753, 12842.960
574.236, 12787.360
574.718, 12734.170
575.200, 12672.560
575.682, 12575.980
576.164, 12517.260
576.646, 12540.200
577.128, 12589.630
577.610, 12625.760
578.093, 12639.720
578.575, 12627.000
579.057, 12580.250
579.539, 12513.310
580.021, 12469.770
580.503, 12455.980
580.985, 12437.590
581.467, 12404.320
581.950, 12367.730
582.432, 12341.120
582.914, 12321.320
583.396, 12290.130
583.878, 12229.150
584.360, 12167.500
584.842, 12123.620
585.324, 12094.550
585.806, 12079.770
586.289, 12078.080
586.771, 12068.470
587.253, 12023.580
587.735, 11941.360
588.217, 11870.310
588.699, 11816.900
589.181, 11765.940
589.663, 11706.620
590.145, 11651.740
590.628, 11626.890
591.110, 11635.180
591.592, 11616.330
592.074, 11506.640
592.556, 11358.150
593.038, 11253.850
593.520, 11193.730
594.002, 11138.470
594.484, 11069.490
594.967, 10992.760
595.449, 10919.560
595.931, 10852.940
596.413, 10782.170
596.895, 10704.580
597.377, 10625.660
597.859, 10546.240
598.341, 10468.020
598.823, 10396.460
599.306, 10335.600
599.788, 10266.990
600.270, 10160.810
600.752, 10027.950
601.234, 9914.026
601.716, 9825.958
602.198, 9747.511
602.680, 9673.001
603.162, 9598.534
603.645, 9505.931
604.127, 9376.307
604.609, 9257.693
605.091, 9151.225
605.573, 9060.069
606.055, 8998.501
606.537, 8955.948
607.019, 8900.389
607.502, 8808.772
607.984, 8702.436
608.466, 8623.842
608.948, 8573.298
609.430, 8512.700
609.912, 8430.600
610.394, 8344.206
610.876, 8262.943
611.359, 8189.125
611.841, 8138.079
612.323, 8147.405
612.805, 8134.896
613.287, 8056.959
613.769, 7952.682
614.251, 7863.812
614.733, 7797.106
615.216, 7735.787
615.698, 7663.664
616.180, 7587.393
616.662, 7537.075
617.144, 7520.327
617.626, 7486.181
618.108, 7412.783
618.590, 7325.626
619.072, 7251.008
619.555, 7187.969
620.037, 7129.063
620.519, 7077.800
621.001, 7025.650
621.483, 6964.792
621.965, 6900.950
622.447, 6846.825
622.929, 6804.335
623.411, 6760.351
623.894, 6700.479
624.376, 6626.348
624.858, 6550.570
625.340, 6471.706
625.822, 6396.940
626.304, 6331.375
626.786, 6269.263
627.268, 6202.135
627.750, 6129.490
628.233, 6063.996
628.715, 6018.105
629.197, 5972.551
629.679, 5908.420
630.161, 5835.124
630.643, 5775.839
631.125, 5737.805
631.607, 5703.943
632.089, 5652.643
632.572, 5583.690
633.054, 5515.565
633.536, 5450.124
634.018, 5381.287
634.500, 5302.904
634.982, 5221.864
635.464, 5146.013
635.946, 5075.572
636.429, 5011.361
636.911, 4956.137
637.393, 4905.079
637.875, 4861.809
638.357, 4818.679
638.839, 4753.504
639.321, 4658.045
639.803, 4558.881
640.286, 4498.186
640.768, 4479.263
641.250, 4443.176
641.732, 4387.670
642.214, 4319.370
642.696, 4221.505
643.178, 4122.086
643.660, 4062.594
644.143, 4053.007
644.625, 4035.489
645.107, 3987.008
645.589, 3926.067
646.071, 3858.907
646.553, 3793.413
647.035, 3747.445
647.517, 3728.261
647.999, 3718.749
648.482, 3693.067
648.964, 3650.166
649.446, 3612.073
649.928, 3581.969
650.410, 3549.451
650.892, 3502.202
651.374, 3453.450
651.856, 3423.732
652.338, 3417.784
652.821, 3410.373
653.303, 3391.757
653.785, 3370.731
654.267, 3350.091
654.749, 3333.164
655.231, 3329.959
655.713, 3344.119
656.195, 3359.022
656.677, 3350.637
657.160, 3319.013
657.642, 3281.315
658.124, 3231.039
658.606, 3193.141
659.088, 3184.085
659.570, 3191.710
660.052, 3197.531
660.534, 3204.099
661.016, 3196.891
661.499, 3157.331
661.981, 3117.877
662.463, 3102.636
662.945, 3102.972
663.427, 3097.900
663.909, 3080.261
664.391, 3063.808
664.873, 3073.592
665.356, 3103.961
665.838, 3097.197
666.320, 3042.307
666.802, 3002.086
667.284, 3013.206
667.766, 3045.191
668.248, 3042.709
668.730, 2997.224
669.213, 2965.380
669.695, 2964.943
670.177, 2965.362
670.659, 2944.369
671.141, 2917.173
671.623, 2914.413
672.105, 2941.863
672.587, 2963.226
673.070, 2940.177
673.552, 2882.935
674.034, 2818.937
674.516, 2747.963
674.998, 2686.756
675.480, 2641.101
675.962, 2609.171
676.444, 2591.812
676.926, 2594.451
677.409, 2581.046
677.891, 2550.616
678.373, 2506.792
678.855, 2442.482
679.337, 2370.008
679.819, 2294.381
680.301, 2220.137
680.783, 2170.127
681.265, 2182.338
681.748, 2216.485
682.230, 2204.692
682.712, 2154.240
683.194, 2100.509
683.676, 2054.055
684.158, 2015.077
684.640, 1985.967
685.122, 1966.931
685.604, 1937.546
686.087, 1890.369
686.569, 1843.724
687.051, 1798.213
687.533, 1756.434
688.015, 1717.509
688.497, 1683.347
688.979, 1662.751
689.461, 1674.686
689.943, 1685.733
690.426, 1661.961
690.908, 1617.704
691.390, 1579.824
691.872, 1554.387
692.354, 1538.529
692.836, 1531.966
693.318, 1530.344
693.800, 1512.084
694.283, 1469.551
694.765, 1435.247
695.247, 1415.628
695.729, 1404.033
696.211, 1398.290
696.693, 1396.399
697.175, 1391.634
697.657, 1378.479
698.140, 1369.300
698.622, 1377.391
699.104, 1386.036
699.586, 1374.986
700.068, 1346.893
700.550, 1316.521
701.032, 1290.845
701.514, 1275.884
701.997, 1291.163
702.479, 1334.002
702.961, 1349.953
703.443, 1329.108
703.925, 1296.931
704.407, 1262.844
704.889, 1231.763
705.371, 1218.027
705.853, 1233.802
706.336, 1240.695
706.818, 1237.248
707.300, 1224.593
707.782, 1189.104
708.264, 1149.373
708.746, 1139.833
709.228, 1171.675
709.710, 1208.034
710.192, 1217.863
710.675, 1210.538
711.157, 1205.954
711.639, 1203.202
712.121, 1183.491
712.603, 1136.110
713.085, 1089.234
713.567, 1086.803
714.049, 1134.765
714.531, 1169.726
715.014, 1187.045
715.496, 1198.057
715.978, 1217.651
716.460, 1224.571
716.942, 1185.181
717.424, 1102.828
717.906, 1045.837
718.388, 1064.323
718.870, 1089.329
719.353, 1064.563
719.835, 1019.109
720.317, 1002.911
720.799, 1023.280
721.281, 1051.928
721.763, 1068.681
722.245, 1072.296
722.727, 1053.573
723.210, 1010.240
723.692, 978.281
724.174, 964.895
724.656, 963.970
725.138, 977.675
725.620, 1000.780
726.102, 1001.789
726.584, 961.633
727.067, 929.005
727.549, 907.632
728.031, 895.724
728.513, 892.676
728.995, 898.130
729.477, 913.828
729.959, 942.151
730.441, 969.459
730.924, 984.829
731.406, 989.579
731.888, 982.776
732.370, 966.273
732.852, 952.166
733.334, 946.464
733.816, 943.473
734.298, 932.116
734.780, 909.853
735.263, 901.102
735.745, 916.757
736.227, 926.437
736.709, 915.074
737.191, 895.053
737.673, 876.457
738.155, 859.685
738.637, 851.389
739.119, 859.616
739.602, 869.411
740.084, 871.233
740.566, 870.808
741.048, 876.105
741.530, 888.078
742.012, 903.279
742.494, 922.109
742.976, 938.000
743.458, 934.605
743.941, 914.517
744.423, 898.593
744.905, 890.836
745.387, 886.745
745.869, 883.383
746.351, 880.744
746.833, 878.719
747.315, 876.036
747.797, 876.399
748.280, 880.812
748.762, 887.295
749.244, 900.295
749.726, 913.076
750.208, 911.078
750.690, 887.268
751.172, 872.832
751.654, 898.916
752.137, 928.088
752.619, 917.085
753.101, 881.113
753.583, 861.062
754.065, 870.042
754.547, 887.460
755.029, 891.374
755.511, 884.523
755.994, 882.528
756.476, 886.815
756.958, 871.491
757.440, 821.760
757.922, 769.541
758.404, 749.162
758.886, 759.061
759.368, 762.299
759.851, 740.651
760.333, 737.617
760.815, 776.873
761.297, 817.944
761.779, 832.871
762.261, 826.854
762.743, 818.745
763.225, 815.116
763.707, 808.945
764.190, 786.461
764.672, 764.551
765.154, 774.260
765.636, 805.828
766.118, 816.285
766.600, 786.109
767.082, 745.469
767.564, 746.755
768.046, 783.436
768.529, 769.422
769.011, 695.193
769.493, 631.454
769.975, 601.024
770.457, 598.619
770.939, 625.532
771.421, 685.247
771.903, 716.817
772.385, 693.643
772.868, 678.888
773.350, 688.252
773.832, 705.088
774.314, 720.380
774.796, 731.429
775.278, 732.955
775.760, 716.841
776.242, 703.451
776.724, 708.070
777.207, 722.612
777.689, 742.225
778.171, 762.047
778.653, 768.438
779.135, 754.458
779.617, 732.555
780.099, 720.715
780.581, 717.838
781.064, 713.894
781.546, 708.352
782.028, 704.703
782.510, 704.562
782.992, 706.593
783.474, 709.975
783.956, 715.254
784.438, 713.998
784.920, 692.631
785.403, 683.336
785.885, 704.669
786.367, 728.438
786.849, 728.790
787.331, 711.655
787.813, 704.749
788.295, 723.563
788.778, 740.699
789.260, 735.891
789.742, 726.139
790.224, 734.891
790.706, 755.745
791.188, 765.203
791.670, 752.680
792.152, 728.129
792.634, 693.385
793.117, 657.074
793.599, 657.451
794.081, 693.967
794.563, 721.158
795.045, 721.811
795.527, 711.983
796.009, 712.728
796.491, 723.200
796.973, 709.899
797.456, 650.209
797.938, 614.399
798.420, 631.781
798.902, 660.606
799.384, 675.471
799.866, 677.308
800.348, 667.644
800.830, 638.225
801.312, 613.728
801.795, 600.930
802.277, 595.421
802.759, 597.182
803.241, 602.912
803.723, 607.734
804.205, 610.083
804.687, 610.225
805.169, 608.322
805.652, 604.377
806.134, 597.437
806.616, 588.407
807.098, 578.227
807.580, 567.638
808.062, 565.572
808.544, 583.370
809.026, 612.054
809.508, 613.387
809.991, 582.380
810.473, 567.373
810.955, 583.151
811.437, 593.679
811.919, 566.642
812.401, 522.371
812.883, 518.420
813.365, 580.710
813.847, 622.546
814.330, 639.610
814.812, 642.019
815.294, 621.680
815.776, 595.265
816.258, 584.145
816.740, 589.705
817.222, 591.304
817.705, 572.858
818.187, 556.402
818.669, 559.134
819.151, 570.748
819.633, 580.634
820.115, 585.645
820.597, 581.622
821.079, 564.263
821.561, 546.407
822.044, 547.577
822.526, 562.378
823.008, 573.314
823.490, 579.344
823.972, 587.583
824.454, 601.849
824.936, 614.311
825.418, 611.542
825.901, 593.973
826.383, 595.386
826.865, 627.026
827.347, 640.972
827.829, 615.815
828.311, 583.135
828.793, 572.182
829.275, 579.022
829.757, 577.235
830.240, 555.274
830.722, 542.243
831.204, 544.371
831.686, 551.510
832.168, 566.286
832.650, 579.075
833.132, 569.411
833.614, 531.442
834.096, 507.067
834.579, 530.875
835.061, 563.359
835.543, 576.299
836.025, 574.211
836.507, 559.095
836.989, 536.433
837.471, 527.870
837.953, 553.906
838.435, 587.465
838.918, 584.749
839.400, 553.715
839.882, 515.131
840.364, 473.335
840.846, 451.265
841.328, 461.966
841.810, 490.010
842.292, 511.952
842.774, 527.713
843.257, 539.023
843.739, 547.970
844.221, 542.889
844.703, 512.151
845.185, 479.628
845.667, 469.422
846.149, 479.180
846.631, 486.922
847.114, 500.389
847.596, 500.006
848.078, 467.133
848.560, 438.970
849.042, 443.911
849.524, 463.387
850.006, 461.136
850.488, 427.831
850.971, 406.422
851.453, 418.221
851.935, 439.755
852.417, 463.428
852.899, 483.887
853.381, 495.576
853.863, 497.854
854.345, 492.023
854.828, 475.518
855.310, 459.278
855.792, 453.770
856.274, 457.609
856.756, 473.129
857.238, 496.510
857.720, 512.624
858.202, 514.768
858.684, 506.125
859.167, 486.158
859.649, 458.947
860.131, 446.141
860.613, 447.803
861.095, 461.537
861.577, 490.473
862.059, 507.906
862.541, 485.636
863.023, 438.929
863.506, 430.032
863.988, 476.026
864.470, 506.908
864.952, 516.199
865.434, 516.321
865.916, 508.865
866.398, 498.037
866.880, 489.221
867.362, 482.009
867.845, 480.287
868.327, 493.241
868.809, 499.673
869.291, 489.745
869.773, 475.432
870.255, 462.113
870.737, 452.914
871.219, 455.518
871.701, 476.568
872.184, 494.986
872.666, 505.220
873.148, 504.956
873.630, 479.233
874.112, 446.634
874.594, 441.421
875.076, 468.778
875.558, 500.879
876.041, 522.983
876.523, 533.135
877.005, 526.620
877.487, 507.087
877.969, 476.141
878.451, 438.144
878.933, 410.868
879.415, 403.865
879.898, 408.466
880.380, 413.963
880.862, 420.231
881.344, 428.141
881.826, 437.460
882.308, 439.441
882.790, 430.782
883.272, 422.136
883.755, 425.098
884.237, 434.317
884.719, 425.695
885.201, 394.668
885.683, 366.352
886.165, 335.413
886.647, 327.598
887.129, 367.459
887.611, 424.912
888.094, 453.167
888.576, 450.044
889.058, 433.968
889.540, 379.622
890.022, 349.297
890.504, 377.162
890.986, 409.648
891.468, 404.165
891.950, 374.018
892.433, 360.300
892.915, 376.087
893.397, 385.633
893.879, 366.380
894.361, 355.513
894.843, 383.556
895.325, 425.239
895.807, 448.337
896.289, 449.814
896.772, 446.436
897.254, 445.597
897.736, 441.936
898.218, 433.228
898.700, 419.059
899.182, 389.914
899.664, 356.293
900.146, 346.305
900.628, 369.546
901.111, 396.322
901.593, 393.624
902.075, 384.122
902.557, 408.415
903.039, 450.266
903.521, 469.309
904.003, 459.658
904.485, 435.973
904.968, 405.367
905.450, 378.057
905.932, 375.939
906.414, 391.148
906.896, 386.242
907.378, 362.207
907.860, 355.273
908.342, 378.489
908.825, 404.826
909.307, 405.557
909.789, 388.550
910.271, 386.318
910.753, 400.059
911.235, 411.272
911.717, 417.122
912.199, 424.728
912.682, 439.429
913.164, 454.536
913.646, 459.388
914.128, 453.864
914.610, 439.365
915.092, 410.178
915.574, 386.699
916.056, 375.286
916.538, 367.174
917.021, 352.619
917.503, 337.276
917.985, 340.573
918.467, 379.604
918.949, 394.832
919.431, 369.182
919.913, 341.490
920.395, 318.323
920.877, 301.716
921.360, 295.442
921.842, 298.139
922.324, 300.943
922.806, 300.878
923.288, 303.680
923.770, 311.450
924.252, 321.353
924.734, 337.303
925.216, 351.561
925.699, 350.520
926.181, 332.910
926.663, 318.378
927.145, 312.576
927.627, 313.796
928.109, 325.186
928.591, 339.919
929.073, 352.584
929.555, 362.737
930.038, 372.263
930.520, 381.977
931.002, 386.706
931.484, 381.862
931.966, 371.653
932.448, 352.776
932.930, 334.824
933.412, 337.549
933.895, 357.730
934.377, 370.382
934.859, 361.245
935.341, 347.403
935.823, 344.898
936.305, 349.979
936.787, 362.041
937.269, 375.775
937.752, 373.876
938.234, 354.684
938.716, 340.091
939.198, 348.019
939.680, 365.659
940.162, 372.807
940.644, 372.131
941.126, 372.747
941.609, 374.137
942.091, 364.822
942.573, 340.860
943.055, 321.725
943.537, 329.142
944.019, 356.130
944.501, 390.725
944.983, 429.106
945.465, 429.771
945.948, 387.837
946.430, 357.003
946.912, 366.015
947.394, 392.864
947.876, 407.806
948.358, 410.749
948.840, 396.161
949.322, 362.395
949.804, 338.876
950.287, 331.669
950.769, 335.083
951.251, 347.638
951.733, 362.774
952.215, 366.568
952.697, 358.541
953.179, 344.497
953.661, 322.688
954.143, 301.454
954.626, 280.977
955.108, 266.896
955.590, 263.810
956.072, 270.934
956.554, 288.151
957.036, 324.272
957.518, 336.522
958.000, 309.496
958.482, 296.006
958.965, 323.526
959.447, 357.402
959.929, 363.112
960.411, 343.735
960.893, 319.097
961.375, 281.163
961.857, 255.249
962.339, 239.968
962.822, 240.674
963.304, 271.737
963.786, 309.864
964.268, 327.308
964.750, 324.379
965.232, 312.613
965.714, 275.531
966.196, 255.842
966.679, 266.022
967.161, 283.121
967.643, 304.918
968.125, 323.113
968.607, 321.543
969.089, 298.048
969.571, 288.047
970.053, 307.277
970.536, 319.910
971.018, 311.982
971.500, 304.464
971.982, 314.402
972.464, 331.655
972.946, 334.387
973.428, 317.621
973.910, 316.168
974.392, 364.486
974.875, 388.432
975.357, 337.669
975.839, 283.783
976.321, 283.909
976.803, 320.389
977.285, 350.274
977.767, 367.647
978.249, 379.322
978.731, 395.446
979.214, 395.063
979.696, 349.965
980.178, 302.404
980.660, 296.953
981.142, 319.007
981.624, 318.411
982.106, 274.581
982.588, 257.378
983.070, 316.211
983.553, 370.858
984.035, 379.791
984.517, 369.320
984.999, 364.388
985.481, 365.600
985.963, 364.999
986.445, 360.454
986.927, 354.656
987.409, 346.252
987.892, 339.527
988.374, 337.684
988.856, 338.292
989.338, 342.898
989.820, 347.609
990.302, 336.995
990.784, 296.226
991.266, 271.650
991.749, 306.221
992.231, 336.622
992.713, 313.075
993.195, 268.394
993.677, 240.137
994.159, 232.558
994.641, 237.179
995.123, 257.603
995.606, 272.583
996.088, 266.947
996.570, 258.872
997.052, 260.603
997.534, 267.865
998.016, 280.668
998.498, 293.826
998.980, 285.001
999.463, 231.503
999.945, 190.473
1000.427, 195.099
1000.909, 215.233
1001.391, 231.808
1001.873, 248.432
1002.355, 279.743
1002.837, 320.877
1003.319, 337.874
1003.802, 306.063
1004.284, 275.282
1004.766, 270.984
1005.248, 274.731
1005.730, 277.952
1006.212, 277.789
1006.694, 266.983
1007.176, 248.495
1007.658, 243.098
1008.141, 267.832
1008.623, 286.833
1009.105, 276.235
1009.587, 261.210
1010.069, 261.717
1010.551, 268.680
1011.033, 265.575
1011.515, 252.873
1011.997, 248.393
1012.480, 264.510
1012.962, 277.419
1013.444, 270.525
1013.926, 263.283
1014.408, 271.261
1014.890, 286.354
1015.372, 298.967
1015.854, 306.791
1016.337, 306.510
1016.819, 290.067
1017.301, 279.643
1017.783, 286.299
1018.265, 299.056
1018.747, 314.675
1019.229, 329.526
1019.711, 342.640
1020.193, 351.938
1020.676, 346.958
1021.158, 312.413
1021.640, 288.538
1022.122, 300.901
1022.604, 313.998
1023.086, 302.843
1023.568, 282.971
1024.050, 272.784
1024.533, 273.559
1025.015, 280.591
1025.497, 300.856
1025.979, 310.331
1026.461, 293.351
1026.943, 275.084
1027.425, 267.141
1027.907, 265.851
1028.390, 269.618
1028.872, 276.050
1029.354, 274.964
1029.836, 255.471
1030.318, 248.491
1030.800, 273.917
1031.282, 295.703
1031.764, 300.321
1032.246, 292.333
1032.729, 267.867
1033.211, 234.262
1033.693, 222.941
1034.175, 250.545
1034.657, 268.729
1035.139, 270.101
1035.621, 264.810
1036.103, 246.402
1036.585, 231.031
1037.068, 238.482
1037.550, 261.632
1038.032, 272.131
1038.514, 265.088
1038.996, 256.183
1039.478, 237.490
1039.960, 228.688
1040.442, 253.218
1040.925, 269.461
1041.407, 226.835
1041.889, 155.137
1042.371, 146.083
1042.853, 227.697
1043.335, 265.498
1043.817, 234.283
1044.299, 207.752
1044.781, 204.764
1045.264, 205.767
1045.746, 190.721
1046.228, 175.606
1046.710, 203.898
1047.192, 288.730
1047.674, 307.322
1048.156, 222.061
1048.638, 186.025
1049.120, 247.890
1049.603, 314.484
1050.085, 328.035
1050.567, 311.048
1051.049, 301.123
1051.531, 298.294
1052.013, 303.668
1052.495, 318.788
1052.977, 336.378
1053.460, 359.908
1053.942, 360.039
1054.424, 316.265
1054.906, 259.478
1055.388, 233.071
1055.870, 233.382
1056.352, 240.705
1056.834, 255.230
1057.317, 258.437
1057.799, 247.338
1058.281, 257.955
1058.763, 307.714
1059.245, 366.691
1059.727, 406.723
1060.209, 422.327
1060.691, 381.369
1061.173, 296.921
1061.656, 253.353
1062.138, 254.344
1062.620, 270.977
1063.102, 292.230
1063.584, 298.963
1064.066, 268.466
1064.548, 231.958
1065.030, 257.578
1065.512, 317.970
1065.995, 336.667
1066.477, 320.958
1066.959, 316.898
1067.441, 333.102
1067.923, 338.912
1068.405, 312.536
1068.887, 277.049
1069.369, 255.425
1069.852, 244.653
1070.334, 243.424
1070.816, 248.229
1071.298, 255.756
1071.780, 262.802
1072.262, 260.007
1072.744, 241.959
1073.226, 224.018
1073.708, 219.850
1074.191, 219.626
1074.673, 211.177
1075.155, 203.437
1075.637, 213.455
1076.119, 234.283
1076.601, 241.241
1077.083, 226.453
1077.565, 219.144
1078.047, 249.650
1078.530, 270.595
1079.012, 248.964
1079.494, 215.611
1079.976, 189.494
1080.458, 174.498
1080.940, 177.607
1081.422, 199.014
1081.904, 212.089
1082.386, 200.318
1082.869, 194.925
1083.351, 212.243
1083.833, 226.602
1084.315, 213.473
1084.797, 196.917
1085.279, 213.744
1085.761, 259.929
1086.243, 285.018
1086.726, 280.163
1087.208, 269.711
1087.690, 244.726
1088.172, 229.684
1088.654, 236.915
1089.136, 250.414
1089.618, 257.185
1090.100, 258.751
1090.583, 258.200
1091.065, 252.746
1091.547, 267.062
1092.029, 311.907
1092.511, 324.358
1092.993, 281.939
1093.475, 244.602
1093.957, 252.874
1094.439, 281.125
1094.922, 285.833
1095.404, 270.516
1095.886, 260.233
1096.368, 254.957
1096.850, 254.143
1097.332, 257.574
1097.814, 263.609
1098.296, 271.600
1098.778, 276.385
1099.261, 273.179
1099.743, 261.992
1100.225, 234.971
1100.707, 202.337
1101.189, 190.312
1101.671, 199.289
1102.153, 229.143
1102.635, 275.036
1103.118, 310.097
1103.600, 316.520
1104.082, 307.052
1104.564, 286.888
1105.046, 264.857
1105.528, 250.010
1106.010, 241.536
1106.492, 241.896
1106.974, 246.370
1107.457, 237.532
1107.939, 206.459
1108.421, 184.745
1108.903, 207.893
1109.385, 221.042
1109.867, 171.222
1110.349, 118.038
1110.831, 120.335
1111.313, 158.186
1111.796, 186.742
1112.278, 199.652
1112.760, 215.189
1113.242, 260.134
1113.724, 271.572
1114.206, 201.332
1114.688, 143.190
1115.170, 147.589
1115.653, 175.891
1116.135, 187.276
1116.617, 185.625
1117.099, 192.174
1117.581, 209.701
1118.063, 227.862
1118.545, 250.569
1119.027, 259.076
1119.510, 245.024
1119.992, 227.128
1120.474, 218.130
1120.956, 215.948
1121.438, 216.867
1121.920, 220.914
1122.402, 230.827
1122.884, 245.631
1123.366, 252.248
1123.849, 248.747
1124.331, 231.738
1124.813, 200.010
1125.295, 180.759
1125.777, 208.575
1126.259, 252.645
1126.741, 254.432
1127.223, 234.986
1127.705, 235.159
1128.188, 252.075
1128.670, 273.090
1129.152, 292.627
1129.634, 302.094
1130.116, 295.757
1130.598, 283.830
1131.080, 269.193
1131.562, 257.025
1132.045, 250.207
1132.527, 249.092
1133.009, 257.661
1133.491, 271.302
1133.973, 279.664
1134.455, 280.937
1134.937, 274.622
1135.419, 250.988
1135.901, 233.786
1136.384, 238.374
1136.866, 239.859
1137.348, 220.587
1137.830, 193.521
1138.312, 168.390
1138.794, 148.337
1139.276, 158.773
1139.758, 219.005
1140.240, 242.074
1140.723, 214.150
1141.205, 194.084
1141.687, 198.470
1142.169, 213.829
1142.651, 232.698
1143.133, 248.941
1143.615, 250.215
1144.097, 238.864
1144.580, 226.570
1145.062, 213.845
1145.544, 202.656
1146.026, 194.163
1146.508, 197.421
1146.990, 214.514
1147.472, 222.969
1147.954, 200.750
1148.437, 166.815
1148.919, 132.895
1149.401, 111.466
1149.883, 131.332
1150.365, 171.412
1150.847, 191.035
1151.329, 189.129
1151.811, 194.010
1152.293, 218.832
1152.776, 232.974
1153.258, 203.609
1153.740, 185.427
1154.222, 227.490
1154.704, 267.841
1155.186, 246.454
1155.668, 194.315
1156.150, 166.306
1156.632, 165.400
1157.115, 177.259
1157.597, 217.091
1158.079, 235.430
1158.561, 224.714
1159.043, 203.150
1159.525, 168.147
1160.007, 148.714
1160.489, 172.894
1160.972, 220.634
1161.454, 248.373
1161.936, 257.025
1162.418, 253.959
1162.900, 240.264
1163.382, 226.205
1163.864, 213.275
1164.346, 195.364
1164.828, 170.878
1165.311, 164.091
1165.793, 206.820
1166.275, 257.341
1166.757, 256.212
1167.239, 231.747
1167.721, 212.023
1168.203, 205.224
1168.685, 229.858
1169.167, 277.350
1169.650, 310.213
1170.132, 316.950
1170.614, 303.028
1171.096, 244.227
1171.578, 201.052
1172.060, 204.876
1172.542, 226.039
1173.024, 261.500
1173.507, 289.922
1173.989, 265.758
1174.471, 198.011
1174.953, 191.354
1175.435, 280.943
1175.917, 319.564
1176.399, 289.390
1176.881, 263.066
1177.364, 261.746
1177.846, 261.435
1178.328, 244.285
1178.810, 223.615
1179.292, 224.296
1179.774, 238.186
1180.256, 233.704
1180.738, 216.098
1181.220, 200.872
1181.703, 191.359
1182.185, 194.458
1182.667, 210.156
1183.149, 223.436
1183.631, 227.119
1184.113, 218.327
1184.595, 177.744
1185.077, 142.060
1185.559, 149.734
1186.042, 174.205
1186.524, 182.921
1187.006, 181.177
1187.488, 194.287
1187.970, 228.337
1188.452, 241.272
1188.934, 199.944
1189.416, 183.178
1189.899, 218.774
1190.381, 241.009
1190.863, 218.976
1191.345, 185.212
1191.827, 166.105
1192.309, 162.600
1192.791, 182.587
1193.273, 224.261
1193.755, 243.355
1194.238, 241.564
1194.720, 241.665
1195.202, 245.992
1195.684, 236.976
1196.166, 209.208
1196.648, 198.861
1197.130, 247.730
1197.612, 300.340
1198.094, 281.484
1198.577, 238.746
1199.059, 228.768
1199.541, 233.475
1200.023, 218.966
1200.505, 188.768
1200.987, 168.177
1201.469, 163.620
1201.951, 162.028
1202.434, 158.934
1202.916, 160.435
1203.398, 159.178
1203.880, 176.160
1204.362, 240.446
1204.844, 297.658
1205.326, 286.097
1205.808, 231.384
1206.291, 213.009
1206.773, 231.887
1207.255, 241.534
1207.737, 242.056
1208.219, 237.699
1208.701, 229.363
1209.183, 216.032
1209.665, 197.843
1210.147, 188.186
1210.630, 200.798
1211.112, 223.035
1211.594, 249.130
1212.076, 267.372
1212.558, 260.988
1213.040, 238.462
1213.522, 201.240
1214.004, 162.564
1214.486, 162.234
1214.969, 214.212
1215.451, 240.561
1215.933, 189.797
1216.415, 164.740
1216.897, 209.893
1217.379, 243.093
1217.861, 226.747
1218.343, 197.243
1218.826, 184.662
1219.308, 187.957
1219.790, 209.875
1220.272, 248.039
1220.754, 257.153
1221.236, 240.016
1221.718, 223.205
1222.200, 210.919
1222.682, 205.517
1223.165, 206.700
1223.647, 201.392
1224.129, 175.343
1224.611, 155.078
1225.093, 172.558
1225.575, 201.180
1226.057, 226.912
1226.539, 240.025
1227.021, 221.532
1227.504, 185.194
1227.986, 164.414
1228.468, 163.872
1228.950, 157.652
1229.432, 124.970
1229.914, 125.058
1230.396, 180.839
1230.878, 217.931
1231.361, 210.069
1231.843, 192.550
1232.325, 187.895
1232.807, 196.302
1233.289, 223.780
1233.771, 259.567
1234.253, 259.381
1234.735, 238.170
1235.218, 250.586
1235.700, 286.002
1236.182, 294.276
1236.664, 269.555
1237.146, 248.002
1237.628, 247.430
1238.110, 244.953
1238.592, 214.613
1239.074, 196.214
1239.557, 227.747
1240.039, 259.572
1240.521, 246.731
1241.003, 219.634
1241.485, 222.861
1241.967, 248.133
1242.449, 258.297
1242.931, 250.052
1243.413, 249.656
1243.896, 257.799
1244.378, 269.940
1244.860, 284.983
1245.342, 266.582
1245.824, 200.307
1246.306, 163.844
1246.788, 241.594
1247.270, 335.830
1247.753, 305.992
1248.235, 232.108
1248.717, 205.006
1249.199, 206.149
1249.681, 207.919
1250.163, 207.697
1250.645, 215.477
1251.127, 232.568
1251.609, 221.759
1252.092, 137.806
1252.574, 94.252
1253.056, 109.003
1253.538, 137.309
1254.020, 176.109
1254.502, 195.816
1254.984, 172.151
1255.466, 138.071
1255.948, 146.452
1256.431, 178.060
1256.913, 170.695
1257.395, 140.548
1257.877, 136.764
1258.359, 150.774
1258.841, 147.562
1259.323, 126.053
1259.805, 111.399
1260.288, 113.094
1260.770, 120.937
1261.252, 127.875
1261.734, 143.344
1262.216, 195.277
1262.698, 225.726
1263.180, 173.753
1263.662, 122.452
1264.145, 152.888
1264.627, 226.468
1265.109, 255.115
1265.591, 241.068
1266.073, 210.383
1266.555, 166.015
1267.037, 150.342
1267.519, 162.387
1268.001, 166.908
1268.484, 156.614
1268.966, 159.252
1269.448, 193.569
1269.930, 218.644
1270.412, 186.158
1270.894, 153.824
1271.376, 169.692
1271.858, 192.622
1272.340, 183.523
1272.823, 164.179
##END=



