##NAMES=Stibivanite
##RRUFFID=R080125
##IDEAL CHEMISTRY=Sb^3+^_2_V^4+^O_5_
##LOCALITY=Consolidated Durham mines, Lake George, York County, New Brunswick, Canada
##OWNER=RRUFF
##SOURCE=William W. Pinch
##DESCRIPTION=Elongated sprays of green crystals on quartz
##STATUS=The identification of this mineral has been confirmed by single-crystal X-ray diffraction.
##URL=rruff.info/R080125
##MEASURED CHEMISTRY=Sb^3+^_2.03_V^4+^_0.98_O_5_
93.30109, 0.0000000E+00
93.78320, 180.4311
94.26532, 182.9799
94.74744, 183.6509
95.22955, 181.9674
95.71167, 179.3879
96.19379, 177.1769
96.67590, 175.8532
97.15802, 174.4815
97.64014, 173.2436
98.12225, 171.8397
98.60437, 169.5836
99.08649, 165.9608
99.56860, 161.9772
100.0507, 159.1065
100.5328, 157.1499
101.0150, 155.6147
101.4971, 154.0788
101.9792, 152.4993
102.4613, 151.5826
102.9434, 151.7654
103.4255, 152.6242
103.9077, 153.9931
104.3898, 155.8580
104.8719, 158.1012
105.3540, 160.5327
105.8361, 163.3321
106.3182, 166.0170
106.8004, 168.4684
107.2825, 170.7740
107.7646, 173.0310
108.2467, 175.2956
108.7288, 177.5578
109.2109, 179.7043
109.6931, 182.1795
110.1752, 184.1180
110.6573, 184.9577
111.1394, 184.9831
111.6215, 184.9116
112.1036, 185.3191
112.5858, 186.2590
113.0679, 187.7102
113.5500, 189.6345
114.0321, 192.0130
114.5142, 194.8987
114.9964, 198.2980
115.4785, 202.0272
115.9606, 205.8490
116.4427, 209.7473
116.9248, 214.0463
117.4069, 218.9382
117.8891, 224.2665
118.3712, 229.8203
118.8533, 235.6672
119.3354, 241.5289
119.8175, 247.0476
120.2996, 252.2801
120.7818, 257.6425
121.2639, 263.5854
121.7460, 270.1387
122.2281, 276.4310
122.7102, 282.5211
123.1923, 288.1190
123.6745, 292.8490
124.1566, 296.6973
124.6387, 300.1086
125.1208, 303.8201
125.6029, 308.2749
126.0850, 312.0289
126.5672, 316.0288
127.0493, 318.9263
127.5314, 320.0641
128.0135, 319.1311
128.4956, 315.6457
128.9777, 308.0698
129.4599, 293.4498
129.9420, 277.6461
130.4241, 259.6550
130.9062, 240.8977
131.3883, 223.1877
131.8704, 207.3394
132.3526, 193.4442
132.8347, 181.7702
133.3168, 172.1142
133.7989, 164.1901
134.2810, 158.1792
134.7632, 153.9230
135.2453, 150.6397
135.7274, 147.9202
136.2095, 145.8702
136.6916, 144.4915
137.1737, 144.1083
137.6559, 144.1990
138.1380, 144.2684
138.6201, 144.3086
139.1022, 144.3651
139.5843, 144.3300
140.0664, 144.3422
140.5486, 144.6542
141.0307, 145.4720
141.5128, 146.6489
141.9949, 147.7113
142.4770, 148.4500
142.9591, 149.4175
143.4413, 151.0740
143.9234, 153.0862
144.4055, 154.8515
144.8876, 155.8709
145.3697, 156.1383
145.8518, 156.5158
146.3340, 157.3694
146.8161, 158.0065
147.2982, 158.2302
147.7803, 158.0418
148.2624, 157.5376
148.7445, 156.8110
149.2267, 155.8940
149.7088, 154.5750
150.1909, 153.4765
150.6730, 151.6255
151.1551, 148.2736
151.6372, 143.4090
152.1194, 137.7525
152.6015, 132.0659
153.0836, 126.2285
153.5657, 120.9043
154.0478, 116.3053
154.5299, 112.1075
155.0121, 107.9043
155.4942, 103.5690
155.9763, 99.53020
156.4584, 96.63675
156.9405, 94.91162
157.4226, 93.35236
157.9048, 91.40625
158.3869, 89.45045
158.8690, 88.37361
159.3511, 88.64507
159.8332, 89.52837
160.3153, 90.14468
160.7975, 90.50027
161.2796, 90.70937
161.7617, 90.78747
162.2438, 90.74631
162.7259, 90.73093
163.2081, 90.75638
163.6902, 90.84173
164.1723, 90.99722
164.6544, 91.22552
165.1365, 91.51440
165.6186, 91.90849
166.1008, 92.47130
166.5829, 92.84074
167.0650, 92.60054
167.5471, 92.38110
168.0292, 92.62071
168.5113, 93.41860
168.9935, 94.49740
169.4756, 95.40479
169.9577, 96.06604
170.4398, 96.68845
170.9219, 97.12936
171.4040, 97.62515
171.8862, 98.41881
172.3683, 99.59098
172.8504, 100.9745
173.3325, 102.1877
173.8146, 103.2216
174.2967, 104.0396
174.7789, 104.4818
175.2610, 104.7620
175.7431, 105.1619
176.2252, 105.8223
176.7073, 106.6041
177.1894, 107.0288
177.6716, 106.6838
178.1537, 106.5283
178.6358, 106.8905
179.1179, 107.5607
179.6000, 108.1902
180.0821, 108.6623
180.5643, 108.8925
181.0464, 108.6683
181.5285, 108.0286
182.0106, 106.9976
182.4927, 105.5765
182.9748, 103.7704
183.4570, 101.5516
183.9391, 98.71056
184.4212, 95.54726
184.9033, 92.73015
185.3854, 90.30457
185.8675, 88.16515
186.3497, 86.20128
186.8318, 84.40860
187.3139, 82.94937
187.7960, 82.12780
188.2781, 81.59450
188.7602, 80.95835
189.2424, 80.08330
189.7245, 79.22058
190.2066, 78.76739
190.6887, 78.86692
191.1708, 78.85014
191.6530, 78.25179
192.1351, 77.53667
192.6172, 77.13892
193.0993, 77.24345
193.5814, 77.60999
194.0635, 77.73353
194.5457, 77.41561
195.0278, 77.25427
195.5099, 77.43970
195.9920, 77.78590
196.4741, 78.14560
196.9562, 78.45911
197.4384, 78.69788
197.9205, 78.74773
198.4026, 78.18229
198.8847, 78.04056
199.3668, 78.75693
199.8489, 79.83158
200.3311, 80.69478
200.8132, 81.05471
201.2953, 81.04781
201.7774, 81.20982
202.2595, 81.73647
202.7416, 82.22752
203.2238, 82.72901
203.7059, 83.15530
204.1880, 83.31297
204.6701, 83.06437
205.1522, 82.59286
205.6343, 82.74912
206.1165, 84.15943
206.5986, 85.41019
207.0807, 86.10665
207.5628, 86.44251
208.0449, 86.77433
208.5270, 87.27742
209.0092, 87.92556
209.4913, 88.60959
209.9734, 89.45923
210.4555, 90.18853
210.9376, 90.61198
211.4197, 90.82170
211.9019, 91.07230
212.3840, 91.48311
212.8661, 92.02578
213.3482, 92.63616
213.8303, 93.53743
214.3124, 94.16322
214.7946, 94.04813
215.2767, 93.30781
215.7588, 92.57764
216.2409, 92.17044
216.7230, 91.90816
217.2052, 91.44531
217.6873, 90.71845
218.1694, 89.92347
218.6515, 89.28323
219.1336, 88.78146
219.6157, 88.03744
220.0979, 86.69807
220.5800, 85.16253
221.0621, 83.87029
221.5442, 82.89548
222.0263, 82.05165
222.5084, 81.13940
222.9906, 80.13680
223.4727, 79.26136
223.9548, 78.54517
224.4369, 78.02412
224.9190, 77.82152
225.4011, 77.97407
225.8833, 78.17946
226.3654, 78.05498
226.8475, 77.52992
227.3296, 77.01561
227.8117, 76.53774
228.2938, 76.13590
228.7760, 75.84716
229.2581, 75.67715
229.7402, 75.60903
230.2223, 75.67456
230.7044, 75.98524
231.1865, 76.06429
231.6687, 75.67320
232.1508, 75.18748
232.6329, 74.79835
233.1150, 74.55482
233.5971, 74.43297
234.0792, 74.43462
234.5614, 74.67971
235.0435, 74.74336
235.5256, 74.46464
236.0077, 74.14178
236.4898, 73.89822
236.9719, 73.78555
237.4541, 73.85127
237.9362, 74.21436
238.4183, 75.15005
238.9004, 75.68690
239.3825, 75.58585
239.8646, 75.34091
240.3468, 75.28922
240.8289, 75.46216
241.3110, 75.62963
241.7931, 75.46407
242.2752, 74.68950
242.7573, 74.42551
243.2395, 74.87162
243.7216, 75.59139
244.2037, 76.42554
244.6858, 77.29719
245.1679, 78.08092
245.6501, 78.63403
246.1322, 78.90526
246.6143, 79.09195
247.0964, 79.18539
247.5785, 79.21251
248.0606, 79.10144
248.5428, 78.88871
249.0249, 78.80031
249.5070, 79.09058
249.9891, 79.84286
250.4712, 80.40444
250.9533, 80.58405
251.4355, 80.73532
251.9176, 81.13511
252.3997, 81.77723
252.8818, 82.42158
253.3639, 82.84638
253.8460, 83.04947
254.3282, 83.38515
254.8103, 84.03574
255.2924, 84.67278
255.7745, 85.02686
256.2566, 85.11329
256.7387, 85.15836
257.2209, 85.25951
257.7030, 85.46768
258.1851, 85.93227
258.6672, 86.87728
259.1493, 87.89381
259.6314, 88.72926
260.1136, 89.38818
260.5957, 89.94210
261.0778, 90.41567
261.5599, 90.81022
262.0420, 91.15516
262.5241, 91.28356
263.0063, 91.55926
263.4884, 92.29677
263.9705, 93.45602
264.4526, 94.71880
264.9347, 96.06325
265.4168, 97.32361
265.8990, 98.17455
266.3811, 98.40815
266.8632, 98.69521
267.3453, 99.51893
267.8274, 100.8351
268.3095, 102.3376
268.7917, 103.9966
269.2738, 105.7286
269.7559, 107.3702
270.2380, 108.8869
270.7201, 110.4927
271.2022, 112.4526
271.6844, 114.6909
272.1665, 116.7013
272.6486, 118.2447
273.1307, 119.6140
273.6128, 121.0625
274.0949, 122.6017
274.5771, 124.2996
275.0592, 126.2381
275.5413, 128.3980
276.0234, 130.6342
276.5055, 132.9134
276.9876, 135.3069
277.4698, 137.8792
277.9519, 140.6022
278.4340, 143.3595
278.9161, 146.1738
279.3982, 148.9881
279.8803, 151.5850
280.3625, 153.8404
280.8446, 156.0220
281.3267, 158.0991
281.8088, 160.2060
282.2909, 162.7119
282.7730, 166.1241
283.2552, 170.0656
283.7373, 173.2349
284.2194, 175.3115
284.7015, 177.1787
285.1836, 179.2549
285.6658, 181.4347
286.1479, 183.5700
286.6300, 185.5689
287.1121, 187.4918
287.5942, 189.5221
288.0764, 191.8247
288.5585, 193.8304
289.0406, 195.2764
289.5227, 196.3731
290.0048, 197.3120
290.4869, 198.1802
290.9691, 198.8902
291.4512, 199.2395
291.9333, 199.0954
292.4154, 199.0158
292.8975, 199.4575
293.3796, 199.8436
293.8618, 199.7099
294.3439, 198.9390
294.8260, 197.7751
295.3081, 196.4891
295.7902, 195.0701
296.2723, 193.5901
296.7545, 192.3185
297.2366, 190.7943
297.7187, 188.6599
298.2008, 185.9218
298.6829, 182.9360
299.1650, 180.0956
299.6472, 177.4211
300.1293, 174.6234
300.6114, 171.6180
301.0935, 168.5514
301.5756, 165.4317
302.0577, 162.3048
302.5399, 159.2396
303.0220, 156.3320
303.5041, 153.5792
303.9862, 150.7746
304.4683, 147.8242
304.9504, 144.9304
305.4326, 142.1711
305.9147, 139.5184
306.3968, 136.8990
306.8789, 134.2389
307.3610, 131.5940
307.8431, 129.2955
308.3253, 127.6765
308.8074, 125.8816
309.2895, 123.5356
309.7716, 120.9490
310.2537, 118.5235
310.7358, 116.4306
311.2180, 114.5432
311.7001, 112.5790
312.1822, 110.3934
312.6643, 108.4252
313.1464, 106.9720
313.6285, 105.6071
314.1107, 103.9152
314.5928, 101.7959
315.0749, 99.57800
315.5570, 97.79439
316.0391, 96.61480
316.5212, 95.25124
317.0034, 93.30837
317.4855, 91.39335
317.9676, 89.87522
318.4497, 88.76187
318.9318, 87.79313
319.4139, 86.71713
319.8961, 85.52128
320.3782, 84.36044
320.8603, 83.06414
321.3424, 81.99007
321.8245, 81.37265
322.3066, 81.09733
322.7888, 80.87840
323.2709, 80.53784
323.7530, 80.07994
324.2351, 79.52615
324.7172, 78.69434
325.1993, 78.03060
325.6815, 77.81322
326.1636, 77.78922
326.6457, 77.56719
327.1278, 76.91579
327.6099, 76.06733
328.0920, 75.63542
328.5742, 75.90517
329.0563, 75.97148
329.5384, 75.42305
330.0205, 74.71489
330.5026, 74.27836
330.9847, 74.23375
331.4669, 74.28552
331.9490, 73.96860
332.4311, 73.15903
332.9132, 72.52769
333.3953, 72.29420
333.8774, 72.18044
334.3596, 72.09671
334.8417, 72.01318
335.3238, 71.88147
335.8059, 71.62558
336.2880, 71.24244
336.7701, 70.92273
337.2523, 70.58852
337.7344, 70.43043
338.2165, 70.66909
338.6986, 71.14387
339.1807, 71.48308
339.6628, 71.40750
340.1450, 71.03527
340.6271, 70.82266
341.1092, 70.86569
341.5913, 70.88494
342.0735, 70.74499
342.5556, 70.53299
343.0377, 70.34534
343.5198, 70.21228
344.0019, 70.13371
344.4840, 70.12493
344.9662, 70.20433
345.4483, 70.27232
345.9304, 70.43444
346.4125, 70.48794
346.8946, 70.19076
347.3767, 69.50825
347.8589, 68.81965
348.3410, 68.53211
348.8231, 68.63305
349.3052, 68.65627
349.7873, 68.46232
350.2694, 68.26205
350.7516, 68.23593
351.2337, 68.34203
351.7158, 68.39711
352.1979, 68.28137
352.6800, 68.02916
353.1621, 67.71611
353.6443, 67.25777
354.1264, 66.93951
354.6085, 67.09515
355.0906, 67.46519
355.5727, 67.63254
356.0548, 67.39251
356.5370, 66.97423
357.0191, 66.64116
357.5012, 66.39153
357.9833, 66.27701
358.4654, 66.49110
358.9475, 66.75077
359.4297, 66.65341
359.9118, 66.07515
360.3939, 65.56516
360.8760, 65.68252
361.3581, 66.27636
361.8402, 66.54051
362.3224, 66.15640
362.8045, 65.59644
363.2866, 65.35075
363.7687, 65.38896
364.2508, 65.47726
364.7329, 65.54514
365.2151, 65.59846
365.6972, 65.65494
366.1793, 65.72138
366.6614, 65.75710
367.1435, 65.69667
367.6256, 65.57944
368.1078, 65.52949
368.5899, 65.69450
369.0720, 65.82265
369.5541, 65.59798
370.0362, 65.09001
370.5183, 64.78130
371.0005, 64.95344
371.4826, 65.41865
371.9647, 65.76540
372.4468, 66.02781
372.9289, 66.11288
373.4110, 65.80601
373.8932, 65.32819
374.3753, 65.14936
374.8574, 65.42807
375.3395, 65.78853
375.8216, 65.31220
376.3037, 65.79911
376.7859, 66.07910
377.2680, 66.16331
377.7501, 65.46529
378.2322, 65.77734
378.7143, 65.68460
379.1964, 65.57527
379.6786, 66.02949
380.1607, 65.44524
380.6428, 65.89052
381.1249, 65.92484
381.6070, 66.14723
382.0891, 65.96235
382.5713, 65.90326
383.0534, 66.25159
383.5355, 66.37433
384.0176, 66.14256
384.4997, 66.37691
384.9818, 65.77843
385.4640, 65.91079
385.9461, 66.35845
386.4282, 66.14716
386.9103, 66.38895
387.3924, 66.45819
387.8745, 65.74319
388.3567, 66.39207
388.8388, 66.45110
389.3209, 65.90075
389.8030, 66.04873
390.2851, 66.23272
390.7672, 66.34492
391.2494, 66.40737
391.7315, 66.48295
392.2136, 66.60834
392.6957, 66.77390
393.1778, 66.94228
393.6599, 67.13158
394.1421, 67.29578
394.6242, 67.43681
395.1063, 67.55016
395.5884, 67.63977
396.0706, 67.70319
396.5527, 67.71703
397.0348, 67.60616
397.5169, 67.28313
397.9990, 67.18698
398.4811, 67.54660
398.9633, 67.93142
399.4454, 68.18721
399.9275, 68.32627
400.4096, 68.42667
400.8917, 68.54168
401.3738, 68.65860
401.8560, 68.70356
402.3381, 68.58405
402.8202, 68.57458
403.3023, 68.79379
403.7844, 69.13333
404.2665, 69.50481
404.7487, 69.88674
405.2308, 70.24741
405.7129, 70.56025
406.1950, 70.83001
406.6771, 70.99246
407.1592, 70.89064
407.6414, 70.83057
408.1235, 71.06785
408.6056, 71.55926
409.0877, 72.04909
409.5698, 72.44959
410.0519, 72.73506
410.5341, 72.76379
411.0162, 72.42954
411.4983, 72.23874
411.9804, 72.68760
412.4625, 73.44160
412.9446, 73.92419
413.4268, 73.90482
413.9089, 73.83308
414.3910, 74.07195
414.8731, 74.57240
415.3552, 75.12785
415.8373, 75.73093
416.3195, 76.26318
416.8016, 76.51118
417.2837, 76.47437
417.7658, 76.41240
418.2479, 76.35674
418.7300, 76.33109
419.2122, 76.37963
419.6943, 76.50315
420.1764, 76.61754
420.6585, 76.61160
421.1406, 76.52529
421.6227, 76.73657
422.1049, 77.54904
422.5870, 78.29768
423.0691, 78.76933
423.5512, 78.98875
424.0333, 78.94060
424.5154, 78.60425
424.9976, 78.18932
425.4797, 78.09171
425.9618, 78.47776
426.4439, 78.88231
426.9260, 79.47916
427.4081, 79.96438
427.8903, 79.98032
428.3724, 79.62277
428.8545, 79.39750
429.3366, 79.77146
429.8187, 80.70147
430.3008, 81.17549
430.7830, 80.47918
431.2651, 80.10900
431.7472, 80.50461
432.2293, 81.27612
432.7114, 81.92636
433.1935, 82.27303
433.6757, 82.54386
434.1578, 83.18773
434.6399, 84.41964
435.1220, 85.25237
435.6041, 85.15749
436.0862, 85.02147
436.5684, 85.23676
437.0505, 85.78287
437.5326, 86.47661
438.0147, 87.27004
438.4968, 88.09058
438.9789, 88.60979
439.4611, 88.62455
439.9432, 88.85281
440.4253, 89.86885
440.9074, 91.13017
441.3895, 92.07666
441.8716, 92.57668
442.3538, 92.87458
442.8359, 93.04622
443.3180, 93.15111
443.8001, 93.56966
444.2822, 94.48176
444.7643, 95.53410
445.2465, 96.44814
445.7286, 97.23758
446.2107, 97.85989
446.6928, 98.26597
447.1749, 98.52688
447.6570, 98.63150
448.1392, 98.60884
448.6213, 98.71728
449.1034, 99.16050
449.5855, 99.76384
450.0677, 100.0135
450.5498, 99.74983
451.0319, 99.54206
451.5140, 99.57488
451.9961, 99.72169
452.4782, 99.77940
452.9604, 99.72506
453.4425, 99.78699
453.9246, 100.2400
454.4067, 101.1464
454.8888, 101.7773
455.3709, 102.1131
455.8531, 102.2496
456.3352, 101.9026
456.8173, 101.4459
457.2994, 101.5333
457.7815, 102.4714
458.2636, 103.8915
458.7458, 105.0201
459.2279, 105.6769
459.7100, 106.4178
460.1921, 107.2507
460.6742, 108.1684
461.1563, 109.1927
461.6385, 110.3064
462.1206, 111.4476
462.6027, 112.5732
463.0848, 113.6865
463.5669, 114.8326
464.0490, 116.1044
464.5312, 117.1971
465.0133, 117.6897
465.4954, 118.1180
465.9775, 119.1548
466.4596, 121.0047
466.9417, 122.8426
467.4239, 123.7896
467.9060, 123.9841
468.3881, 124.4013
468.8702, 125.2764
469.3523, 126.2133
469.8344, 126.8483
470.3166, 127.2736
470.7987, 127.7326
471.2808, 128.2473
471.7629, 128.8533
472.2450, 129.7909
472.7271, 130.9299
473.2093, 131.5136
473.6914, 131.0800
474.1735, 130.1961
474.6556, 130.0834
475.1377, 131.1472
475.6198, 131.5060
476.1020, 130.3781
476.5841, 128.7734
477.0662, 127.5636
477.5483, 126.7998
478.0304, 126.0644
478.5125, 125.0636
478.9947, 123.8033
479.4768, 122.3794
479.9589, 120.5810
480.4410, 118.8518
480.9231, 117.3427
481.4052, 115.8779
481.8874, 114.2954
482.3695, 112.5458
482.8516, 110.6830
483.3337, 108.7067
483.8158, 106.5660
484.2979, 104.7584
484.7801, 103.6097
485.2622, 102.4399
485.7443, 100.9005
486.2264, 99.21806
486.7085, 97.78346
487.1906, 96.78703
487.6728, 95.99654
488.1549, 95.08002
488.6370, 94.03188
489.1191, 92.93459
489.6012, 91.70663
490.0833, 90.54820
490.5655, 89.64401
491.0476, 88.96577
491.5297, 88.33050
492.0118, 87.70035
492.4939, 87.05282
492.9760, 86.31947
493.4582, 85.50722
493.9403, 84.81175
494.4224, 84.37242
494.9045, 84.07755
495.3866, 83.63832
495.8687, 82.98949
496.3509, 82.38327
496.8330, 81.88841
497.3151, 81.45683
497.7972, 81.07069
498.2793, 80.71184
498.7614, 80.29590
499.2436, 79.72112
499.7257, 79.01154
500.2078, 78.57980
500.6899, 78.74519
501.1720, 78.80200
501.6541, 78.58110
502.1363, 78.22443
502.6184, 77.83615
503.1005, 77.46583
503.5826, 77.20042
504.0647, 77.20154
504.5468, 77.51240
505.0290, 77.65162
505.5111, 77.46931
505.9932, 77.29803
506.4753, 77.30122
506.9575, 77.39231
507.4396, 77.41652
507.9217, 77.29524
508.4038, 77.16434
508.8859, 77.30215
509.3680, 77.67661
509.8502, 77.66589
510.3323, 76.96410
510.8144, 76.11182
511.2965, 75.64394
511.7786, 75.50111
512.2607, 75.38835
512.7429, 75.20109
513.2250, 75.04044
513.7071, 74.97901
514.1892, 75.01743
514.6713, 75.20004
515.1534, 75.60116
515.6356, 75.99623
516.1177, 75.89943
516.5998, 74.89315
517.0819, 74.34003
517.5640, 74.65382
518.0461, 75.12150
518.5283, 75.33769
519.0104, 75.26862
519.4925, 74.94237
519.9746, 74.33330
520.4567, 73.60571
520.9388, 73.41212
521.4210, 74.13754
521.9031, 74.68311
522.3852, 74.91257
522.8673, 74.94945
523.3494, 74.76688
523.8315, 74.43488
524.3137, 74.20913
524.7958, 74.31990
525.2779, 74.68789
525.7600, 75.08028
526.2421, 75.54704
526.7242, 75.84132
527.2064, 75.68281
527.6885, 75.38142
528.1706, 75.36377
528.6527, 75.71714
529.1348, 76.02971
529.6169, 75.99435
530.0991, 75.81861
530.5812, 75.85230
531.0633, 76.13683
531.5454, 76.50835
532.0275, 76.85442
532.5096, 77.18484
532.9918, 77.55995
533.4739, 78.05806
533.9560, 78.49149
534.4381, 78.86866
534.9202, 79.13725
535.4023, 79.14431
535.8845, 78.91549
536.3666, 78.75520
536.8487, 78.99406
537.3308, 79.63072
537.8129, 80.18017
538.2950, 80.84341
538.7772, 81.12491
539.2593, 80.53676
539.7414, 79.72684
540.2235, 79.42716
540.7056, 79.81783
541.1877, 80.40636
541.6699, 80.71532
542.1520, 80.78185
542.6341, 80.87730
543.1162, 81.04707
543.5983, 81.17821
544.0804, 81.17625
544.5626, 81.08801
545.0447, 80.99300
545.5268, 80.89504
546.0089, 80.80387
546.4910, 80.84805
546.9731, 80.87585
547.4553, 80.50814
547.9374, 79.65793
548.4195, 78.76219
548.9016, 78.22903
549.3837, 78.06235
549.8658, 78.01270
550.3480, 78.31475
550.8301, 78.43446
551.3122, 78.07833
551.7943, 77.52420
552.2764, 77.13124
552.7585, 76.98679
553.2407, 76.88951
553.7228, 76.55036
554.2049, 75.93981
554.6870, 75.64245
555.1691, 75.84278
555.6512, 76.10768
556.1334, 76.40984
556.6155, 76.62568
557.0976, 76.53269
557.5797, 76.03057
558.0618, 75.53716
558.5439, 75.49778
559.0261, 75.78942
559.5082, 75.96384
559.9903, 75.96036
560.4724, 75.83203
560.9545, 75.53576
561.4366, 75.13871
561.9188, 74.95876
562.4009, 75.26797
562.8830, 75.45725
563.3651, 75.19273
563.8472, 74.71767
564.3293, 74.27892
564.8115, 73.96334
565.2936, 73.94725
565.7757, 74.49171
566.2578, 75.60244
566.7399, 76.11682
567.2220, 75.39803
567.7042, 74.82638
568.1863, 74.69466
568.6684, 74.78336
569.1505, 74.92054
569.6326, 75.04578
570.1147, 75.08717
570.5969, 74.85994
571.0790, 74.44458
571.5611, 74.43298
572.0432, 75.01583
572.5253, 75.46372
573.0074, 75.20663
573.4896, 74.67294
573.9717, 74.51344
574.4538, 74.85455
574.9359, 75.29190
575.4180, 75.71162
575.9001, 76.07890
576.3823, 76.39087
576.8644, 76.63121
577.3465, 76.61172
577.8286, 76.11422
578.3107, 75.31228
578.7928, 75.06340
579.2750, 75.96145
579.7571, 76.64788
580.2392, 76.99566
580.7213, 77.14968
581.2034, 77.14918
581.6855, 77.05140
582.1677, 77.00407
582.6498, 77.16122
583.1319, 77.40785
583.6140, 77.23377
584.0961, 76.38512
584.5782, 75.99403
585.0604, 76.72671
585.5425, 77.77265
586.0246, 78.56343
586.5067, 79.06728
586.9889, 79.22440
587.4710, 78.68217
587.9531, 77.99602
588.4352, 77.92981
588.9174, 78.37605
589.3995, 78.59913
589.8816, 78.23430
590.3637, 77.63206
590.8458, 77.40371
591.3279, 77.71651
591.8101, 77.95238
592.2922, 77.96590
592.7743, 78.04559
593.2564, 78.43459
593.7385, 78.98711
594.2206, 79.41019
594.7028, 79.56795
595.1849, 79.57952
595.6670, 79.62575
596.1491, 79.70651
596.6312, 79.82577
597.1133, 80.02615
597.5955, 80.21130
598.0776, 80.30447
598.5597, 80.35293
599.0418, 80.46883
599.5239, 80.75294
600.0060, 80.94899
600.4882, 80.71286
600.9703, 80.24816
601.4524, 80.11032
601.9345, 80.41823
602.4166, 80.76252
602.8987, 80.76612
603.3809, 80.46032
603.8630, 80.31254
604.3451, 80.36404
604.8272, 80.49441
605.3093, 80.85000
605.7914, 81.16968
606.2736, 81.12415
606.7557, 80.72794
607.2378, 80.33950
607.7199, 80.29295
608.2020, 80.49429
608.6841, 80.42263
609.1663, 79.89816
609.6484, 79.62711
610.1305, 80.15775
610.6126, 80.78587
611.0947, 80.86207
611.5768, 80.38500
612.0590, 79.89366
612.5411, 79.53325
613.0232, 79.33083
613.5053, 79.36674
613.9874, 79.60361
614.4695, 79.88277
614.9517, 80.15072
615.4338, 80.38684
615.9159, 80.56361
616.3980, 80.68565
616.8801, 80.71913
617.3622, 80.56036
617.8444, 80.43282
618.3265, 80.46655
618.8086, 80.58237
619.2907, 80.64758
619.7728, 80.61409
620.2549, 80.54456
620.7371, 80.52825
621.2192, 80.56104
621.7013, 80.53552
622.1834, 80.41392
622.6655, 80.30749
623.1476, 80.30279
623.6298, 80.34789
624.1119, 80.34739
624.5940, 80.25893
625.0761, 80.23031
625.5582, 80.32688
626.0403, 80.52190
626.5225, 80.84456
627.0046, 81.26058
627.4867, 81.58749
627.9688, 81.70912
628.4509, 81.66231
628.9330, 81.55635
629.4152, 81.27535
629.8973, 81.15368
630.3794, 81.24592
630.8615, 81.43591
631.3436, 81.75471
631.8257, 82.11356
632.3079, 82.32415
632.7900, 82.28289
633.2721, 82.09232
633.7542, 81.85186
634.2363, 81.57268
634.7184, 81.36591
635.2006, 81.26214
635.6827, 81.20291
636.1648, 81.10399
636.6469, 80.99758
637.1290, 81.08176
637.6111, 81.61869
638.0933, 82.02845
638.5754, 82.02186
639.0575, 81.84350
639.5396, 81.74179
640.0217, 81.76836
640.5038, 81.89301
640.9860, 82.11532
641.4681, 82.39189
641.9502, 82.46999
642.4323, 82.16814
642.9144, 82.12273
643.3965, 82.79783
643.8787, 83.51518
644.3608, 83.81071
644.8429, 83.72386
645.3250, 83.56456
645.8071, 83.38261
646.2892, 83.25651
646.7714, 83.28956
647.2535, 83.44748
647.7356, 83.64609
648.2177, 83.86756
648.6998, 84.02885
649.1819, 84.01691
649.6641, 83.81980
650.1462, 83.71041
650.6283, 83.76861
651.1104, 83.81103
651.5925, 83.66195
652.0746, 83.56516
652.5568, 83.85715
653.0389, 84.52312
653.5210, 85.14528
654.0031, 85.38145
654.4852, 85.32600
654.9673, 85.20750
655.4495, 85.01640
655.9316, 84.86211
656.4137, 84.76369
656.8958, 84.73997
657.3779, 84.84173
657.8600, 85.06248
658.3422, 85.28904
658.8243, 85.48475
659.3064, 85.70464
659.7885, 86.04308
660.2706, 86.40626
660.7527, 86.60702
661.2349, 86.60639
661.7170, 86.60282
662.1991, 86.85557
662.6812, 87.34535
663.1633, 87.56796
663.6454, 87.29178
664.1276, 87.20945
664.6097, 87.89256
665.0918, 88.63927
665.5739, 88.75358
666.0560, 88.21484
666.5381, 87.69960
667.0203, 87.50281
667.5024, 87.48499
667.9845, 87.48976
668.4666, 87.54202
668.9487, 87.79455
669.4308, 88.31739
669.9130, 88.86514
670.3951, 89.08929
670.8772, 88.92957
671.3593, 88.94154
671.8414, 89.23335
672.3235, 89.57854
672.8057, 90.06718
673.2878, 90.50767
673.7699, 90.63696
674.2520, 90.44506
674.7341, 90.27239
675.2162, 90.38461
675.6984, 90.68871
676.1805, 90.97078
676.6626, 91.23746
677.1447, 91.70525
677.6268, 92.53770
678.1089, 93.40839
678.5911, 93.82169
679.0732, 93.65595
679.5553, 93.72921
680.0374, 94.22085
680.5195, 94.73826
681.0016, 95.14395
681.4838, 95.48519
681.9659, 95.85173
682.4480, 96.24963
682.9301, 96.56638
683.4122, 96.65462
683.8943, 96.58327
684.3765, 96.63425
684.8586, 96.82006
685.3407, 97.04701
685.8228, 97.24515
686.3049, 97.51268
686.7870, 98.06026
687.2692, 98.87650
687.7513, 99.48518
688.2334, 99.59168
688.7155, 99.71066
689.1976, 100.2679
689.6797, 100.9604
690.1619, 101.2663
690.6440, 101.0890
691.1261, 100.7895
691.6082, 100.7029
692.0903, 100.8180
692.5724, 101.1157
693.0546, 101.7502
693.5367, 102.1026
694.0188, 101.7234
694.5009, 101.2342
694.9830, 101.1392
695.4651, 101.4303
695.9473, 101.9689
696.4294, 103.1597
696.9116, 104.1452
697.3937, 104.1367
697.8758, 103.5639
698.3579, 103.2327
698.8400, 103.3182
699.3221, 103.4565
699.8043, 103.2938
700.2864, 102.8771
700.7685, 102.5457
701.2506, 102.2183
701.7327, 102.1477
702.2148, 102.7532
702.6970, 103.3264
703.1791, 103.3688
703.6612, 102.9626
704.1433, 102.4980
704.6254, 101.9142
705.1075, 101.5942
705.5897, 102.1568
706.0718, 103.1488
706.5539, 103.5507
707.0360, 103.1989
707.5181, 102.7207
708.0002, 102.6269
708.4824, 102.8335
708.9645, 102.9086
709.4466, 102.7537
709.9287, 102.6572
710.4108, 102.7053
710.8929, 102.7600
711.3751, 102.7172
711.8572, 102.6205
712.3393, 102.6003
712.8214, 102.7409
713.3035, 102.8703
713.7856, 102.8510
714.2678, 102.7089
714.7499, 102.4941
715.2320, 102.2148
715.7141, 101.8512
716.1962, 101.3749
716.6783, 100.8390
717.1605, 100.3922
717.6426, 99.95317
718.1247, 99.77456
718.6068, 100.0537
719.0889, 100.3727
719.5710, 100.5931
720.0532, 100.7108
720.5353, 100.7331
721.0174, 100.6569
721.4995, 100.5329
721.9816, 100.3629
722.4637, 100.1865
722.9459, 100.0431
723.4280, 99.94821
723.9101, 100.0791
724.3922, 100.5868
724.8743, 101.1555
725.3564, 101.1512
725.8386, 100.3269
726.3207, 99.81847
726.8028, 99.90910
727.2849, 99.97375
727.7670, 99.71821
728.2491, 99.38538
728.7313, 99.34533
729.2134, 99.64426
729.6955, 99.84219
730.1776, 99.45118
730.6597, 98.86689
731.1418, 98.72501
731.6240, 98.97954
732.1061, 99.36436
732.5882, 99.81496
733.0703, 100.1562
733.5524, 100.1523
734.0345, 99.78721
734.5167, 99.47463
734.9988, 99.28324
735.4809, 99.05553
735.9630, 98.68780
736.4451, 98.33733
736.9272, 98.10521
737.4094, 98.01208
737.8915, 98.07127
738.3736, 98.36487
738.8557, 98.71254
739.3378, 98.89552
739.8199, 98.96867
740.3021, 99.17517
740.7842, 99.56039
741.2663, 99.71888
741.7484, 99.25400
742.2305, 98.35203
742.7126, 97.95125
743.1948, 98.48843
743.6769, 98.73055
744.1590, 98.27264
744.6411, 97.85464
745.1232, 97.90881
745.6053, 98.28366
746.0875, 98.68559
746.5696, 99.08451
747.0517, 99.21917
747.5338, 98.54996
748.0159, 97.62588
748.4980, 97.49435
748.9802, 98.12784
749.4623, 98.75030
749.9444, 98.97862
750.4265, 98.92628
750.9086, 98.75028
751.3907, 98.34041
751.8729, 98.34670
752.3550, 99.19756
752.8371, 99.90137
753.3192, 100.0290
753.8013, 99.92795
754.2834, 100.0216
754.7656, 100.3509
755.2477, 100.5205
755.7298, 100.1906
756.2119, 99.74926
756.6940, 99.49405
757.1761, 99.43214
757.6583, 99.68156
758.1404, 100.2374
758.6225, 100.6062
759.1046, 100.2274
759.5867, 99.26207
760.0688, 98.84962
760.5510, 99.25874
761.0331, 99.50711
761.5152, 99.19884
761.9973, 98.89676
762.4794, 99.07002
762.9615, 99.58117
763.4437, 99.97773
763.9258, 100.1161
764.4079, 100.2199
764.8900, 100.3648
765.3721, 100.5505
765.8542, 100.8530
766.3364, 101.2070
766.8185, 101.3659
767.3006, 101.1855
767.7827, 100.8643
768.2648, 100.7807
768.7469, 100.9481
769.2291, 100.9534
769.7112, 100.7056
770.1933, 100.4866
770.6754, 100.3955
771.1575, 100.4369
771.6396, 100.6565
772.1218, 101.0953
772.6039, 101.4153
773.0860, 101.4396
773.5681, 101.4655
774.0502, 101.7211
774.5323, 102.0452
775.0145, 102.2222
775.4966, 102.2001
775.9787, 102.0130
776.4608, 101.5860
776.9429, 101.1132
777.4250, 101.1501
777.9072, 101.6822
778.3893, 102.0219
778.8714, 101.9551
779.3535, 101.8855
779.8356, 102.1920
780.3177, 102.8090
780.7999, 103.2801
781.2820, 103.6412
781.7641, 103.8078
782.2462, 103.5834
782.7283, 103.3429
783.2104, 103.3357
783.6926, 103.4905
784.1747, 103.6027
784.6568, 103.5876
785.1389, 103.6471
785.6210, 104.0859
786.1031, 104.6765
786.5853, 104.9491
787.0674, 104.9128
787.5495, 104.8501
788.0316, 104.8832
788.5137, 104.9275
788.9958, 104.8396
789.4780, 104.5971
789.9601, 104.5634
790.4422, 104.9408
790.9243, 105.2023
791.4064, 104.9969
791.8885, 104.8100
792.3707, 105.1727
792.8528, 105.9696
793.3349, 106.4580
793.8170, 106.1215
794.2991, 105.7869
794.7813, 106.0936
795.2634, 106.6487
795.7455, 106.9109
796.2276, 106.8437
796.7097, 106.6686
797.1918, 106.5068
797.6740, 106.4046
798.1561, 106.4962
798.6382, 106.7931
799.1203, 106.9352
799.6024, 106.8329
800.0845, 106.7766
800.5667, 106.9257
801.0488, 107.1935
801.5309, 107.4343
802.0130, 107.6498
802.4951, 107.8400
802.9772, 108.1799
803.4594, 108.2934
803.9415, 107.8007
804.4236, 107.1187
804.9057, 106.6444
805.3878, 106.4970
805.8699, 106.7836
806.3521, 107.7821
806.8342, 108.9575
807.3163, 109.5046
807.7985, 109.5090
808.2806, 109.1653
808.7627, 108.4985
809.2448, 108.2142
809.7269, 108.9216
810.2090, 110.2095
810.6912, 110.7701
811.1733, 110.1607
811.6554, 109.8896
812.1375, 110.4737
812.6196, 110.8006
813.1017, 110.1233
813.5839, 109.1086
814.0660, 108.6422
814.5481, 108.8513
815.0302, 109.2773
815.5123, 109.9551
815.9944, 110.5573
816.4766, 110.7885
816.9587, 110.7660
817.4408, 110.6367
817.9229, 110.4754
818.4050, 110.4487
818.8871, 110.7214
819.3693, 111.1792
819.8514, 111.5844
820.3335, 111.9460
820.8156, 111.9349
821.2977, 111.3634
821.7798, 110.8346
822.2620, 110.7618
822.7441, 111.0204
823.2262, 111.2586
823.7083, 111.5264
824.1904, 111.6579
824.6725, 111.4054
825.1547, 111.2845
825.6368, 111.7944
826.1189, 112.4417
826.6010, 112.4380
827.0831, 111.7030
827.5652, 111.1225
828.0474, 111.3784
828.5295, 112.0064
829.0116, 112.6506
829.4937, 113.1941
829.9758, 113.1764
830.4579, 112.5611
830.9401, 112.1107
831.4222, 112.4515
831.9043, 113.2877
832.3864, 113.7052
832.8685, 113.5902
833.3506, 113.6264
833.8328, 113.9574
834.3149, 114.2690
834.7970, 114.3853
835.2791, 114.3749
835.7612, 114.3653
836.2433, 114.3633
836.7255, 114.3245
837.2076, 114.2131
837.6897, 114.0953
838.1718, 113.9302
838.6539, 113.8182
839.1360, 113.9399
839.6182, 114.2688
840.1003, 114.5270
840.5824, 114.4820
841.0645, 114.3750
841.5466, 114.5859
842.0287, 115.0100
842.5109, 115.3007
842.9930, 115.4142
843.4751, 115.5043
843.9572, 115.6736
844.4393, 115.8392
844.9214, 115.7986
845.4036, 115.4867
845.8857, 115.2882
846.3678, 115.1575
846.8499, 115.2224
847.3320, 115.7204
847.8141, 116.3025
848.2963, 116.6546
848.7784, 116.7670
849.2605, 116.6214
849.7426, 115.8381
850.2247, 115.2619
850.7068, 115.3993
851.1890, 115.7779
851.6711, 115.8973
852.1532, 115.8015
852.6353, 115.8493
853.1174, 116.2336
853.5995, 116.6734
854.0817, 116.8407
854.5638, 116.8171
855.0459, 116.8075
855.5280, 116.8206
856.0101, 116.7937
856.4922, 116.6951
856.9744, 116.6023
857.4565, 116.6157
857.9386, 116.7321
858.4207, 116.8652
858.9028, 116.9711
859.3849, 117.2059
859.8671, 117.7556
860.3492, 118.2690
860.8313, 118.4354
861.3134, 118.3687
861.7955, 118.3942
862.2776, 118.6514
862.7598, 118.7439
863.2419, 118.4955
863.7240, 118.1250
864.2061, 117.5946
864.6882, 117.1174
865.1703, 117.1039
865.6525, 117.6107
866.1346, 118.0914
866.6167, 118.0415
867.0988, 117.7717
867.5809, 117.7529
868.0630, 117.9351
868.5452, 118.2284
869.0273, 118.5955
869.5094, 118.6995
869.9915, 118.2359
870.4736, 117.5294
870.9557, 117.5022
871.4379, 118.3288
871.9200, 118.8369
872.4021, 118.9268
872.8842, 118.8132
873.3663, 118.3899
873.8484, 117.9633
874.3306, 118.0672
874.8127, 118.7201
875.2948, 119.2045
875.7769, 119.4993
876.2590, 119.5866
876.7411, 119.2588
877.2233, 118.8799
877.7054, 118.7405
878.1875, 118.8340
878.6696, 119.0768
879.1517, 119.4885
879.6339, 119.8005
880.1160, 119.6350
880.5981, 119.3424
881.0802, 119.5494
881.5623, 120.0864
882.0444, 120.2731
882.5266, 119.8869
883.0087, 119.2561
883.4908, 118.6413
883.9729, 118.1271
884.4550, 118.1294
884.9371, 118.6778
885.4193, 119.2465
885.9014, 119.7839
886.3835, 120.1651
886.8656, 120.2586
887.3477, 120.1688
887.8298, 120.2050
888.3120, 120.5376
888.7941, 120.5373
889.2762, 119.7409
889.7583, 119.1792
890.2404, 119.2086
890.7225, 119.5861
891.2047, 120.2400
891.6868, 121.0708
892.1689, 121.5167
892.6510, 121.1473
893.1331, 120.6891
893.6152, 120.4468
894.0974, 120.3466
894.5795, 120.3518
895.0616, 120.4233
895.5437, 120.4896
896.0258, 120.5218
896.5079, 120.5538
896.9901, 120.6922
897.4722, 120.8322
897.9543, 120.6527
898.4364, 120.2181
898.9185, 119.8618
899.4006, 119.6766
899.8828, 119.8300
900.3649, 120.5629
900.8470, 121.5931
901.3291, 121.8102
901.8112, 120.9793
902.2933, 120.5222
902.7755, 120.7094
903.2576, 120.9076
903.7397, 120.8272
904.2218, 120.5548
904.7039, 120.1360
905.1860, 119.4972
905.6682, 119.3174
906.1503, 119.8607
906.6324, 120.5330
907.1145, 121.5739
907.5966, 122.3694
908.0787, 122.1987
908.5609, 121.3734
909.0430, 120.8408
909.5251, 120.9291
910.0072, 121.1874
910.4893, 121.4379
910.9714, 121.6635
911.4536, 121.7727
911.9357, 121.8639
912.4178, 122.2103
912.8999, 122.8313
913.3820, 123.3437
913.8641, 123.4068
914.3463, 123.2179
914.8284, 123.0672
915.3105, 122.9820
915.7926, 123.1857
916.2748, 123.6913
916.7569, 123.9483
917.2390, 123.6119
917.7211, 123.0997
918.2032, 123.1664
918.6854, 123.8481
919.1675, 124.0719
919.6496, 123.6053
920.1317, 123.4386
920.6138, 124.0975
921.0959, 124.7249
921.5781, 124.4668
922.0602, 123.5346
922.5423, 122.9694
923.0244, 122.9518
923.5065, 122.9407
923.9886, 122.7190
924.4708, 122.7221
924.9529, 123.3356
925.4350, 124.1717
925.9171, 124.7540
926.3992, 125.0326
926.8813, 125.2479
927.3635, 125.5539
927.8456, 125.7500
928.3277, 125.6171
928.8098, 125.3886
929.2919, 125.3075
929.7740, 125.3727
930.2562, 125.5187
930.7383, 125.7178
931.2204, 125.8630
931.7025, 125.8474
932.1846, 125.7066
932.6667, 125.2645
933.1489, 124.7392
933.6310, 125.1551
934.1131, 126.6579
934.5952, 128.0121
935.0773, 128.2684
935.5594, 127.8723
936.0416, 127.9320
936.5237, 128.4554
937.0058, 128.2828
937.4879, 127.1802
937.9700, 126.4820
938.4521, 126.8193
938.9343, 127.5368
939.4164, 127.8692
939.8985, 127.8438
940.3806, 127.9435
940.8627, 128.2816
941.3448, 128.5209
941.8270, 128.5476
942.3091, 128.5678
942.7912, 128.6447
943.2733, 128.8027
943.7554, 129.1227
944.2375, 129.6416
944.7197, 130.0339
945.2018, 130.1600
945.6839, 130.2576
946.1660, 130.3388
946.6481, 130.4895
947.1302, 130.9087
947.6124, 131.4570
948.0945, 131.6949
948.5766, 131.4071
949.0587, 131.1437
949.5408, 131.3329
950.0229, 131.6337
950.5051, 131.7442
950.9872, 131.6953
951.4693, 131.5701
951.9514, 131.3932
952.4335, 131.1428
952.9156, 130.7491
953.3978, 130.4341
953.8799, 130.5304
954.3620, 130.9576
954.8441, 131.6488
955.3262, 132.5107
955.8083, 132.9730
956.2905, 132.8093
956.7726, 132.5759
957.2547, 132.9379
957.7368, 133.7336
958.2189, 134.2594
958.7010, 134.5055
959.1832, 134.6011
959.6653, 134.4683
960.1474, 134.7001
960.6295, 135.6866
961.1116, 137.1616
961.5938, 138.6411
962.0759, 140.1072
962.5580, 141.8107
963.0401, 144.0034
963.5222, 145.8828
964.0043, 147.1196
964.4865, 148.1796
964.9686, 149.3476
965.4507, 150.6153
965.9328, 151.9577
966.4149, 153.3864
966.8970, 154.8515
967.3792, 156.1053
967.8613, 157.6893
968.3434, 159.9370
968.8255, 162.5137
969.3076, 165.1908
969.7897, 167.8987
970.2719, 170.4688
970.7540, 172.8742
971.2361, 175.1208
971.7182, 177.1879
972.2003, 179.1369
972.6824, 181.0969
973.1646, 182.9257
973.6467, 184.5326
974.1288, 185.8205
974.6109, 186.4819
975.0930, 186.5989
975.5751, 185.5823
976.0573, 182.6249
976.5394, 178.3270
977.0215, 173.2450
977.5036, 167.6680
977.9857, 161.9540
978.4678, 156.2624
978.9500, 151.2563
979.4321, 147.6852
979.9142, 145.1456
980.3963, 142.9455
980.8784, 141.1024
981.3605, 139.7699
981.8427, 138.9330
982.3248, 138.2554
982.8069, 137.5520
983.2890, 136.9788
983.7711, 136.7572
984.2532, 136.8712
984.7354, 137.3287
985.2175, 138.1521
985.6996, 138.4593
986.1817, 138.0022
986.6638, 137.3839
987.1459, 137.0002
987.6281, 136.8055
988.1102, 136.7407
988.5923, 136.8566
989.0744, 136.6494
989.5565, 135.8839
990.0386, 135.5226
990.5208, 136.0108
991.0029, 136.6712
991.4850, 136.9019
991.9671, 136.8255
992.4492, 136.9258
992.9313, 137.3141
993.4135, 137.6147
993.8956, 137.9831
994.3777, 138.0505
994.8598, 137.2676
995.3419, 136.4682
995.8240, 136.5320
996.3062, 137.3183
996.7883, 137.9418
997.2704, 138.2954
997.7525, 138.5508
998.2346, 138.6878
998.7167, 138.7818
999.1989, 138.8514
999.6810, 138.9117
1000.163, 138.9537
1000.645, 138.9910
1001.127, 139.1082
1001.609, 139.3181
1002.092, 139.6338
1002.574, 140.3688
1003.056, 140.9178
1003.538, 140.5276
1004.020, 139.7282
1004.502, 139.4665
1004.984, 139.8843
1005.466, 140.3357
1005.948, 140.5044
1006.431, 140.5569
1006.913, 140.5456
1007.395, 140.5360
1007.877, 140.6617
1008.359, 140.8446
1008.841, 140.8121
1009.323, 140.5177
1009.805, 140.3962
1010.288, 141.0097
1010.770, 141.7016
1011.252, 141.4894
1011.734, 140.8651
1012.216, 140.7314
1012.698, 141.0920
1013.180, 141.5578
1013.662, 141.9570
1014.144, 142.2130
1014.627, 142.2088
1015.109, 142.0437
1015.591, 141.8497
1016.073, 141.6698
1016.555, 141.6389
1017.037, 141.7737
1017.519, 142.1051
1018.001, 142.6536
1018.484, 143.0949
1018.966, 142.8497
1019.448, 142.2166
1019.930, 142.3822
1020.412, 143.2510
1020.894, 143.9926
1021.376, 144.4587
1021.858, 144.6916
1022.340, 144.6980
1022.823, 144.5953
1023.305, 144.5574
1023.787, 144.5826
1024.269, 144.6631
1024.751, 144.8044
1025.233, 144.9140
1025.715, 144.9719
1026.197, 145.0260
1026.680, 145.1167
1027.162, 145.1944
1027.644, 145.1550
1028.126, 144.9963
1028.608, 144.8511
1029.090, 144.7061
1029.572, 144.6245
1030.054, 144.5779
1030.536, 144.7435
1031.019, 145.3135
1031.501, 146.0767
1031.983, 146.5656
1032.465, 146.7181
1032.947, 147.1300
1033.429, 148.1474
1033.911, 148.4503
1034.393, 147.3074
1034.875, 146.1744
1035.358, 146.1200
1035.840, 146.7894
1036.322, 147.3765
1036.804, 147.9131
1037.286, 148.2079
1037.768, 148.0675
1038.250, 148.0394
1038.732, 148.3755
1039.215, 148.6899
1039.697, 148.6051
1040.179, 148.3234
1040.661, 148.3769
1041.143, 148.8768
1041.625, 149.3001
1042.107, 149.7742
1042.589, 149.9965
1043.072, 149.7747
1043.554, 149.4118
1044.036, 148.9889
1044.518, 148.6094
1045.000, 148.5323
1045.482, 148.8298
1045.964, 149.1725
1046.446, 149.6822
1046.928, 150.0417
1047.411, 150.0039
1047.893, 149.9441
1048.375, 150.2119
1048.857, 150.6568
1049.339, 150.9199
1049.821, 150.9702
1050.303, 150.8281
1050.785, 150.0365
1051.267, 149.6590
1051.750, 150.4945
1052.232, 151.4512
1052.714, 151.6129
1053.196, 151.2318
1053.678, 150.9318
1054.160, 150.7847
1054.642, 150.8474
1055.124, 151.1802
1055.607, 151.6619
1056.089, 152.7178
1056.571, 153.4796
1057.053, 152.7855
1057.535, 151.3772
1058.017, 150.9974
1058.499, 152.0654
1058.981, 152.9034
1059.464, 152.7221
1059.946, 152.5786
1060.428, 153.1712
1060.910, 153.7391
1061.392, 153.4021
1061.874, 152.6118
1062.356, 152.3690
1062.838, 152.8817
1063.320, 153.5803
1063.802, 154.7147
1064.285, 155.4071
1064.767, 154.7834
1065.249, 153.9879
1065.731, 154.0778
1066.213, 154.7205
1066.695, 155.1516
1067.177, 155.2180
1067.659, 155.1908
1068.142, 155.1285
1068.624, 155.0580
1069.106, 154.9645
1069.588, 154.8940
1070.070, 154.8404
1070.552, 154.8560
1071.034, 155.1533
1071.516, 155.7224
1071.999, 155.8988
1072.481, 154.8562
1072.963, 154.0860
1073.445, 154.4149
1073.927, 155.1640
1074.409, 156.0666
1074.891, 156.8513
1075.373, 157.0232
1075.855, 156.5955
1076.338, 156.4361
1076.820, 157.1913
1077.302, 157.7891
1077.784, 157.4198
1078.266, 156.9836
1078.748, 157.3419
1079.230, 158.0238
1079.712, 158.2142
1080.194, 157.8733
1080.677, 157.5994
1081.159, 157.5975
1081.641, 157.7419
1082.123, 157.9998
1082.605, 158.3561
1083.087, 158.9745
1083.569, 159.5738
1084.052, 159.7137
1084.534, 159.4468
1085.016, 159.2648
1085.498, 159.3454
1085.980, 159.4884
1086.462, 159.6814
1086.944, 159.8237
1087.426, 159.8889
1087.908, 159.8390
1088.391, 159.5170
1088.873, 159.0419
1089.355, 158.7958
1089.837, 158.8707
1090.319, 159.2610
1090.801, 160.2303
1091.283, 161.2006
1091.765, 162.1256
1092.247, 162.6722
1092.730, 162.1308
1093.212, 161.0024
1093.694, 160.7056
1094.176, 161.6863
1094.658, 162.5059
1095.140, 162.7085
1095.622, 162.5702
1096.104, 161.8654
1096.587, 161.1841
1097.069, 161.0826
1097.551, 161.3776
1098.033, 161.6534
1098.515, 161.8383
1098.997, 161.9570
1099.479, 161.9136
1099.961, 161.9458
1100.443, 162.1705
1100.926, 162.4626
1101.408, 162.8104
1101.890, 163.1277
1102.372, 163.2992
1102.854, 163.3123
1103.336, 163.1948
1103.818, 162.7725
1104.300, 162.4866
1104.782, 162.3320
1105.265, 162.4514
1105.747, 163.2117
1106.229, 164.1007
1106.711, 164.4046
1107.193, 164.1831
1107.675, 164.1865
1108.157, 164.6401
1108.639, 165.0646
1109.122, 165.4560
1109.604, 165.7366
1110.086, 165.8232
1110.568, 165.8290
1111.050, 165.8603
1111.532, 165.9037
1112.014, 165.8981
1112.496, 165.8433
1112.979, 165.7347
1113.461, 165.2966
1113.943, 165.1863
1114.425, 165.9236
1114.907, 166.6739
1115.389, 166.7705
1115.871, 166.4835
1116.353, 166.4423
1116.835, 166.7228
1117.318, 166.7828
1117.800, 166.2667
1118.282, 166.2158
1118.764, 167.2070
1119.246, 168.0324
1119.728, 167.8038
1120.210, 167.2441
1120.692, 167.5376
1121.174, 168.6598
1121.657, 169.2737
1122.139, 169.3106
1122.621, 168.9667
1123.103, 167.9368
1123.585, 167.3197
1124.067, 167.6574
1124.549, 168.4772
1125.031, 169.3718
1125.514, 170.2369
1125.996, 170.4937
1126.478, 169.9452
1126.960, 169.9016
1127.442, 170.5327
1127.924, 171.0140
1128.406, 171.0517
1128.888, 171.0733
1129.370, 171.4509
1129.853, 171.9859
1130.335, 172.2342
1130.817, 172.1970
1131.299, 171.8564
1131.781, 171.1798
1132.263, 170.9494
1132.745, 171.3457
1133.227, 171.7883
1133.709, 171.9359
1134.192, 172.0206
1134.674, 172.4024
1135.156, 172.9851
1135.638, 173.4012
1136.120, 173.6496
1136.602, 173.6906
1137.084, 173.5361
1137.566, 173.3232
1138.049, 173.1091
1138.531, 172.9818
1139.013, 173.0379
1139.495, 173.1997
1139.977, 173.2419
1140.459, 173.2850
1140.941, 173.8286
1141.423, 174.7072
1141.906, 175.1781
1142.388, 175.0988
1142.870, 174.8875
1143.352, 174.7717
1143.834, 174.8658
1144.316, 175.5172
1144.798, 176.3041
1145.280, 176.5293
1145.762, 176.4183
1146.245, 176.3955
1146.727, 176.5329
1147.209, 176.8120
1147.691, 177.2251
1148.173, 177.5890
1148.655, 177.7415
1149.137, 177.8183
1149.619, 177.9253
1150.101, 178.0330
1150.584, 178.0040
1151.066, 177.9855
1151.548, 178.4080
1152.030, 179.2549
1152.512, 179.7269
1152.994, 179.2989
1153.476, 178.7894
1153.958, 178.3832
1154.441, 178.2635
1154.923, 178.7945
1155.405, 179.5089
1155.887, 179.8589
1156.369, 179.8722
1156.851, 179.8473
1157.333, 179.8058
1157.815, 179.8677
1158.297, 180.1770
1158.780, 180.4339
1159.262, 180.3899
1159.744, 180.4153
1160.226, 180.8621
1160.708, 181.5292
1161.190, 182.0642
1161.672, 182.4591
1162.154, 182.6990
1162.636, 182.7021
1163.119, 182.6835
1163.601, 182.4386
1164.083, 182.6075
1164.565, 183.8653
1165.047, 185.0076
1165.529, 184.5277
1166.011, 182.9956
1166.493, 182.8878
1166.976, 184.7090
1167.458, 185.2638
1167.940, 184.2155
1168.422, 183.6030
1168.904, 183.9719
1169.386, 184.5823
1169.868, 184.9846
1170.350, 185.1749
1170.833, 185.0786
1171.315, 184.7798
1171.797, 184.7836
1172.279, 185.0696
1172.761, 185.4610
1173.243, 185.9146
1173.725, 186.1203
1174.207, 185.9716
1174.689, 185.9503
1175.172, 186.5441
1175.654, 187.3720
1176.136, 187.8542
1176.618, 188.0368
1177.100, 187.8887
1177.582, 187.5571
1178.064, 187.3757
1178.546, 187.4290
1179.028, 187.7465
1179.511, 188.3588
1179.993, 188.9676
1180.475, 189.2473
1180.957, 189.4814
1181.439, 190.1466
1181.921, 190.7886
1182.403, 190.6677
1182.885, 190.1008
1183.368, 189.8367
1183.850, 190.0352
1184.332, 190.4250
1184.814, 191.1470
1185.296, 191.5751
1185.778, 191.1909
1186.260, 190.7356
1186.742, 190.6577
1187.224, 190.7419
1187.707, 190.7017
1188.189, 190.5972
1188.671, 190.7559
1189.153, 191.3903
1189.635, 191.5794
1190.117, 190.4242
1190.599, 190.1325
1191.081, 191.8117
1191.564, 193.3115
1192.046, 193.3324
1192.528, 192.7162
1193.010, 192.5618
1193.492, 192.8318
1193.974, 193.2089
1194.456, 193.6998
1194.938, 194.3357
1195.421, 195.2126
1195.903, 195.6341
1196.385, 195.3497
1196.867, 194.8243
1197.349, 194.3641
1197.831, 194.0339
1198.313, 193.9207
1198.795, 194.0444
1199.277, 194.6906
1199.760, 195.6979
1200.242, 196.1204
1200.724, 195.9389
1201.206, 195.8295
1201.688, 196.0517
1202.170, 196.4336
1202.652, 196.8779
1203.134, 197.3006
1203.616, 197.6600
1204.099, 197.8844
1204.581, 197.7614
1205.063, 197.4747
1205.545, 197.3092
1206.027, 197.3318
1206.509, 197.5898
1206.991, 198.1247
1207.473, 198.5789
1207.956, 198.5981
1208.438, 198.7017
1208.920, 199.3795
1209.402, 200.0260
1209.884, 200.1329
1210.366, 199.9018
1210.848, 199.5332
1211.330, 199.1089
1211.813, 199.1347
1212.295, 200.0611
1212.777, 200.6317
1213.259, 200.5864
1213.741, 200.5692
1214.223, 200.8236
1214.705, 201.0076
1215.187, 200.5251
1215.669, 201.1523
1216.151, 201.5727
1216.634, 201.7976
1217.116, 201.2400
1217.598, 201.6925
1218.080, 201.7401
1218.562, 201.7711
1219.044, 202.3657
1219.526, 201.9219
1220.008, 202.5076
1220.491, 202.6826
1220.973, 203.0454
1221.455, 203.0009
1221.937, 203.0822
1222.419, 203.5709
1222.901, 203.8340
1223.383, 203.7427
1223.865, 204.1174
1224.348, 203.6596
1224.830, 203.9323
1225.312, 204.5204
1225.794, 204.4495
1226.276, 204.8317
1226.758, 205.0414
1227.240, 204.4667
1227.722, 205.2560
1228.204, 205.4554
1228.687, 205.0495
1229.169, 205.7920
1229.651, 205.1193
1230.133, 205.6080
1230.615, 206.0560
1231.097, 206.1719
1231.579, 206.4882
1232.061, 207.5502
1232.543, 208.2601
1233.026, 207.8876
1233.508, 207.1968
1233.990, 207.0473
1234.472, 207.3015
1234.954, 207.3331
1235.436, 207.0407
1235.918, 207.3275
1236.400, 208.2705
1236.883, 208.9475
1237.365, 209.1588
1237.847, 209.2741
1238.329, 209.4831
1238.811, 209.7336
1239.293, 209.9697
1239.775, 210.1982
1240.257, 210.4709
1240.740, 210.7338
1241.222, 210.8876
1241.704, 210.9154
1242.186, 210.6752
1242.668, 210.2655
1243.150, 210.2049
1243.632, 210.7442
1244.114, 211.3045
1244.596, 211.5724
1245.078, 211.6484
1245.561, 211.3659
1246.043, 211.1461
1246.525, 211.3226
1247.007, 211.8101
1247.489, 212.6228
1247.971, 213.6426
1248.453, 214.1526
1248.935, 213.6576
1249.418, 213.7236
1249.900, 214.7613
1250.382, 215.5961
1250.864, 216.0026
1251.346, 216.1338
1251.828, 216.0398
1252.310, 215.7776
1252.792, 215.3529
1253.275, 214.8992
1253.757, 215.0596
1254.239, 215.7718
1254.721, 216.2078
1255.203, 216.3708
1255.685, 216.7154
1256.167, 217.2800
1256.649, 217.3820
1257.131, 216.6597
1257.614, 216.1086
1258.096, 217.0054
1258.578, 218.2221
1259.060, 218.5662
1259.542, 218.3551
1260.024, 217.4142
1260.506, 216.5076
1260.988, 217.1800
1261.470, 219.1489
1261.953, 220.4267
1262.435, 220.3999
1262.917, 220.0998
1263.399, 219.3783
1263.881, 219.0036
1264.363, 219.3888
1264.845, 219.9315
1265.327, 220.4388
1265.810, 220.8120
1266.292, 220.8211
1266.774, 220.6658
1267.256, 221.3118
1267.738, 222.9279
1268.220, 223.4290
1268.702, 222.7757
1269.184, 222.1289
1269.667, 221.7117
1270.149, 221.7825
1270.631, 222.4544
1271.113, 223.1853
1271.595, 223.4652
1272.077, 223.5073
1272.559, 223.6045
1273.041, 223.6899
1273.523, 223.5657
1274.005, 223.4086
1274.488, 223.6194
1274.970, 224.0874
1275.452, 224.2636
1275.934, 224.0017
1276.416, 224.0905
1276.898, 225.3853
1277.380, 226.2187
1277.862, 225.4691
1278.345, 224.9962
1278.827, 226.2339
1279.309, 227.5526
1279.791, 227.4891
1280.273, 226.6653
1280.755, 226.4583
1281.237, 226.8603
1281.719, 227.2185
1282.202, 227.5253
1282.684, 227.8250
1283.166, 228.1256
1283.648, 228.3093
1284.130, 228.3536
1284.612, 228.8102
1285.094, 230.1288
1285.576, 231.4195
1286.058, 231.4154
1286.541, 230.8214
1287.023, 230.4998
##END=



