##NAMES=Stibnite
##RRUFFID=R050016
##IDEAL CHEMISTRY=Sb^3+^_2_S^2-^_3_
##LOCALITY=Romania
##OWNER=RRUFF
##SOURCE=Eugene Schlepp
##DESCRIPTION=Group of lead-gray prismatic crystals
##STATUS=The identification of this mineral has been confirmed by X-ray diffraction and chemical analysis
##URL=rruff.info/R050016
##MEASURED CHEMISTRY=(Sb_.996_As_.004_)_2_S_3_
90.190, 36.538
90.673, 32.686
91.155, 29.247
91.637, 23.458
92.119, 21.288
92.601, 27.129
93.083, 36.640
93.565, 42.410
94.047, 39.973
94.529, 31.673
95.012, 28.451
95.494, 33.143
95.976, 38.833
96.458, 43.953
96.940, 48.151
97.422, 49.966
97.904, 47.566
98.386, 41.901
98.869, 38.865
99.351, 41.807
99.833, 45.023
100.315, 42.492
100.797, 33.840
101.279, 27.060
101.761, 30.885
102.243, 41.504
102.726, 48.139
103.208, 45.301
103.690, 38.279
104.172, 35.331
104.654, 37.896
105.136, 41.342
105.618, 41.215
106.100, 39.083
106.582, 38.978
107.064, 45.575
107.547, 56.172
108.029, 60.436
108.511, 53.129
108.993, 45.707
109.475, 45.771
109.957, 51.950
110.439, 59.100
110.921, 62.636
111.404, 62.604
111.886, 66.100
112.368, 77.899
112.850, 89.698
113.332, 98.089
113.814, 102.756
114.296, 104.513
114.778, 102.570
115.260, 94.885
115.743, 92.649
116.225, 103.659
116.707, 115.016
117.189, 118.484
117.671, 113.223
118.153, 105.664
118.635, 104.494
119.117, 110.159
119.600, 122.173
120.082, 142.005
120.564, 165.717
121.046, 189.241
121.528, 211.648
122.010, 236.551
122.492, 271.538
122.974, 321.199
123.456, 375.362
123.939, 429.627
124.421, 489.193
124.903, 562.141
125.385, 651.242
125.867, 750.095
126.349, 839.424
126.831, 914.630
127.313, 985.117
127.796, 1057.535
128.278, 1124.094
128.760, 1172.629
129.242, 1195.779
129.724, 1200.317
130.206, 1214.401
130.688, 1255.355
131.170, 1285.528
131.652, 1291.509
132.135, 1280.868
132.617, 1268.427
133.099, 1262.573
133.581, 1261.578
134.063, 1254.770
134.545, 1233.386
135.027, 1216.153
135.509, 1212.482
135.992, 1219.628
136.474, 1228.127
136.956, 1230.984
137.438, 1230.563
137.920, 1240.289
138.402, 1259.410
138.884, 1288.087
139.366, 1327.602
139.848, 1377.360
140.331, 1434.157
140.813, 1494.315
141.295, 1560.668
141.777, 1639.903
142.259, 1735.782
142.741, 1841.918
143.223, 1955.870
143.705, 2077.556
144.188, 2198.220
144.670, 2308.420
145.152, 2412.826
145.634, 2527.668
146.116, 2658.092
146.598, 2798.425
147.080, 2945.749
147.562, 3102.256
148.044, 3255.137
148.527, 3391.883
149.009, 3518.253
149.491, 3644.180
149.973, 3773.045
150.455, 3903.974
150.937, 4036.577
151.419, 4173.267
151.901, 4305.710
152.383, 4431.611
152.866, 4550.290
153.348, 4657.847
153.830, 4753.319
154.312, 4836.222
154.794, 4907.528
155.276, 4970.322
155.758, 5012.657
156.240, 5026.727
156.723, 5017.166
157.205, 4990.496
157.687, 4946.592
158.169, 4887.757
158.651, 4818.689
159.133, 4732.047
159.615, 4647.262
160.097, 4567.589
160.579, 4496.235
161.062, 4442.264
161.544, 4413.780
162.026, 4407.869
162.508, 4409.215
162.990, 4414.389
163.472, 4433.427
163.954, 4471.080
164.436, 4524.137
164.919, 4585.581
165.401, 4651.204
165.883, 4721.195
166.365, 4797.370
166.847, 4886.001
167.329, 4972.868
167.811, 5049.030
168.293, 5117.905
168.775, 5188.641
169.258, 5268.697
169.740, 5357.340
170.222, 5442.374
170.704, 5520.404
171.186, 5598.350
171.668, 5679.769
172.150, 5763.621
172.632, 5847.190
173.115, 5927.093
173.597, 6003.771
174.079, 6087.262
174.561, 6188.623
175.043, 6287.130
175.525, 6372.211
176.007, 6448.169
176.489, 6524.484
176.971, 6606.485
177.454, 6694.147
177.936, 6797.750
178.418, 6932.576
178.900, 7069.630
179.382, 7195.669
179.864, 7316.293
180.346, 7445.138
180.828, 7593.025
181.311, 7759.692
181.793, 7936.955
182.275, 8124.862
182.757, 8324.206
183.239, 8530.385
183.721, 8747.790
184.203, 8984.439
184.685, 9249.314
185.167, 9542.059
185.650, 9843.034
186.132, 10162.230
186.614, 10479.850
187.096, 10786.000
187.578, 11087.040
188.060, 11396.160
188.542, 11731.470
189.024, 12091.100
189.507, 12424.740
189.989, 12735.230
190.471, 13012.020
190.953, 13253.530
191.435, 13458.000
191.917, 13622.420
192.399, 13742.650
192.881, 13819.100
193.363, 13882.750
193.846, 13930.790
194.328, 13968.160
194.810, 13998.250
195.292, 14018.500
195.774, 14022.650
196.256, 14004.560
196.738, 13965.620
197.220, 13931.950
197.702, 13910.070
198.185, 13887.490
198.667, 13862.040
199.149, 13833.810
199.631, 13803.020
200.113, 13768.860
200.595, 13732.270
201.077, 13703.460
201.559, 13703.370
202.042, 13689.330
202.524, 13652.070
203.006, 13595.450
203.488, 13526.080
203.970, 13447.540
204.452, 13360.240
204.934, 13268.070
205.416, 13179.700
205.898, 13075.360
206.381, 12944.050
206.863, 12796.220
207.345, 12648.650
207.827, 12511.360
208.309, 12378.940
208.791, 12226.830
209.273, 12033.870
209.755, 11844.730
210.238, 11671.080
210.720, 11504.230
211.202, 11334.520
211.684, 11158.220
212.166, 10974.980
212.648, 10781.380
213.130, 10562.270
213.612, 10355.500
214.094, 10158.620
214.577, 9979.525
215.059, 9829.779
215.541, 9715.963
216.023, 9622.397
216.505, 9506.804
216.987, 9334.226
217.469, 9196.615
217.951, 9126.772
218.434, 9078.755
218.916, 9006.588
219.398, 8894.695
219.880, 8767.014
220.362, 8669.323
220.844, 8609.778
221.326, 8568.402
221.808, 8542.704
222.290, 8531.778
222.773, 8536.431
223.255, 8556.351
223.737, 8588.363
224.219, 8626.253
224.701, 8664.922
225.183, 8723.036
225.665, 8805.297
226.147, 8900.883
226.629, 9004.626
227.112, 9114.755
227.594, 9231.051
228.076, 9349.493
228.558, 9458.394
229.040, 9605.703
229.522, 9818.996
230.004, 10045.820
230.486, 10256.000
230.969, 10449.650
231.451, 10648.230
231.933, 10879.440
232.415, 11150.850
232.897, 11408.790
233.379, 11645.570
233.861, 11873.210
234.343, 12102.430
234.825, 12328.630
235.307, 12536.070
235.790, 12710.460
236.272, 12851.600
236.754, 12985.990
237.236, 13143.210
237.718, 13261.320
238.200, 13315.500
238.682, 13315.090
239.165, 13283.640
239.647, 13238.670
240.129, 13176.730
240.611, 13073.840
241.093, 12917.840
241.575, 12731.050
242.057, 12513.940
242.539, 12275.630
243.021, 12030.750
243.503, 11786.770
243.986, 11541.820
244.468, 11289.570
244.950, 11027.750
245.432, 10763.340
245.914, 10484.680
246.396, 10210.920
246.878, 9962.408
247.361, 9748.062
247.843, 9560.748
248.325, 9387.786
248.807, 9227.776
249.289, 9086.574
249.771, 8972.745
250.253, 8873.971
250.735, 8779.054
251.217, 8685.125
251.699, 8598.438
252.182, 8524.864
252.664, 8464.354
253.146, 8419.006
253.628, 8397.636
254.110, 8387.314
254.592, 8382.768
255.074, 8383.537
255.556, 8378.463
256.039, 8349.985
256.521, 8300.109
257.003, 8269.875
257.485, 8283.411
257.967, 8300.098
258.449, 8280.201
258.931, 8226.483
259.413, 8181.219
259.896, 8178.815
260.378, 8206.804
260.860, 8217.803
261.342, 8197.722
261.824, 8176.970
262.306, 8175.318
262.788, 8191.615
263.270, 8226.451
263.752, 8288.672
264.235, 8367.412
264.717, 8438.974
265.199, 8497.116
265.681, 8572.492
266.163, 8686.744
266.645, 8836.349
267.127, 9015.991
267.609, 9228.271
268.091, 9468.097
268.574, 9725.401
269.056, 10000.060
269.538, 10313.780
270.020, 10672.940
270.502, 11085.890
270.984, 11547.950
271.466, 12066.120
271.948, 12625.430
272.431, 13217.850
272.913, 13845.580
273.395, 14508.860
273.877, 15210.380
274.359, 15950.400
274.841, 16739.311
275.323, 17576.670
275.805, 18451.830
276.288, 19383.301
276.770, 20347.760
277.252, 21302.100
277.734, 22239.439
278.216, 23154.500
278.698, 24049.170
279.180, 24953.199
279.662, 25744.490
280.144, 26428.039
280.626, 26987.930
281.109, 27418.801
281.591, 27717.119
282.073, 27866.770
282.555, 27852.949
283.037, 27665.980
283.519, 27288.971
284.001, 26684.480
284.483, 25945.301
284.966, 25085.689
285.448, 24132.971
285.930, 23121.760
286.412, 22083.420
286.894, 21015.330
287.376, 19975.260
287.858, 18933.270
288.340, 17948.529
288.823, 17027.830
289.305, 16183.870
289.787, 15441.750
290.269, 14817.640
290.751, 14289.850
291.233, 13777.340
291.715, 13223.150
292.197, 12777.060
292.679, 12483.100
293.162, 12280.580
293.644, 12114.960
294.126, 11968.540
294.608, 11852.450
295.090, 11784.960
295.572, 11768.210
296.054, 11796.580
296.536, 11890.170
297.018, 12009.740
297.501, 12128.720
297.983, 12247.940
298.465, 12390.390
298.947, 12577.690
299.429, 12811.400
299.911, 13074.080
300.393, 13389.800
300.875, 13707.890
301.358, 14003.880
301.840, 14283.360
302.322, 14561.990
302.804, 14838.750
303.286, 15124.320
303.768, 15451.830
304.250, 15831.110
304.732, 16233.100
305.215, 16648.100
305.697, 17076.900
306.179, 17518.680
306.661, 17975.891
307.143, 18448.801
307.625, 18948.561
308.107, 19473.881
308.589, 19990.990
309.071, 20504.279
309.553, 20984.699
310.036, 21410.400
310.518, 21796.420
311.000, 22068.820
311.482, 22245.150
311.964, 22279.150
312.446, 22057.891
312.928, 21570.510
313.410, 20781.650
313.893, 19552.881
314.375, 17901.730
314.857, 16170.880
315.339, 14311.310
315.821, 12476.460
316.303, 10797.500
316.785, 9298.209
317.267, 7990.333
317.750, 6889.716
318.232, 6009.434
318.714, 5254.624
319.196, 4640.302
319.678, 4128.679
320.160, 3725.037
320.642, 3411.404
321.124, 3144.853
321.606, 2905.799
322.089, 2694.603
322.571, 2517.213
323.053, 2389.983
323.535, 2276.777
324.017, 2177.029
324.499, 2089.762
324.981, 2016.945
325.463, 1958.378
325.945, 1906.531
326.428, 1850.559
326.910, 1785.479
327.392, 1730.099
327.874, 1691.946
328.356, 1655.518
328.838, 1610.810
329.320, 1559.895
329.802, 1513.001
330.284, 1479.701
330.767, 1458.943
331.249, 1434.443
331.731, 1402.059
332.213, 1371.458
332.695, 1344.889
333.177, 1322.018
333.659, 1302.299
334.142, 1286.265
334.624, 1271.982
335.106, 1255.154
335.588, 1234.378
336.070, 1217.947
336.552, 1212.904
337.034, 1210.691
337.516, 1205.282
337.998, 1196.100
338.480, 1181.708
338.963, 1156.438
339.445, 1123.808
339.927, 1099.021
340.409, 1085.406
340.891, 1078.713
341.373, 1078.310
341.855, 1082.748
342.337, 1083.004
342.819, 1072.737
343.302, 1059.299
343.784, 1051.020
344.266, 1048.115
344.748, 1046.776
345.230, 1046.008
345.712, 1044.479
346.194, 1036.058
346.677, 1010.103
347.159, 989.532
347.641, 986.237
348.123, 993.618
348.605, 1000.583
349.087, 1003.040
349.569, 1001.161
350.051, 994.841
350.533, 978.133
351.016, 967.777
351.498, 969.262
351.980, 972.951
352.462, 972.057
352.944, 965.921
353.426, 957.403
353.908, 948.713
354.390, 939.668
354.872, 934.073
355.355, 937.204
355.837, 938.592
356.319, 934.096
356.801, 926.493
357.283, 920.551
357.765, 918.918
358.247, 919.267
358.729, 916.648
359.211, 910.920
359.694, 902.619
360.176, 887.218
360.658, 872.221
361.140, 863.683
361.622, 862.464
362.104, 863.287
362.586, 863.338
363.069, 862.199
363.551, 856.778
364.033, 844.658
364.515, 832.317
364.997, 826.688
365.479, 825.514
365.961, 821.508
366.443, 810.806
366.925, 797.559
367.408, 784.951
367.890, 773.222
368.372, 764.171
368.854, 759.496
369.336, 757.825
369.818, 754.698
370.300, 748.216
370.782, 743.531
371.264, 743.413
371.747, 745.406
372.229, 746.361
372.711, 745.429
373.193, 743.418
373.675, 741.587
374.157, 740.962
374.639, 736.292
375.121, 724.162
375.603, 711.853
376.086, 702.528
376.568, 696.003
377.050, 690.600
377.532, 685.046
378.014, 680.070
378.496, 679.676
378.978, 690.000
379.460, 694.477
379.943, 685.864
380.425, 673.249
380.907, 664.637
381.389, 662.001
381.871, 662.668
382.353, 665.308
382.835, 669.893
383.317, 669.791
383.799, 660.656
384.282, 651.515
384.764, 650.788
385.246, 655.781
385.728, 656.982
386.210, 646.047
386.692, 631.635
387.174, 627.619
387.656, 633.996
388.138, 636.126
388.621, 623.995
389.103, 603.953
389.585, 593.135
390.067, 595.601
390.549, 598.757
391.031, 598.219
391.513, 595.811
391.996, 594.749
392.478, 595.750
392.960, 595.807
393.442, 590.924
393.924, 579.489
394.406, 571.225
394.888, 566.261
395.370, 563.912
395.852, 564.510
396.335, 567.433
396.817, 572.079
397.299, 578.396
397.781, 585.125
398.263, 588.546
398.745, 589.330
399.227, 585.137
399.709, 569.036
400.191, 552.839
400.674, 546.316
401.156, 550.526
401.638, 557.883
402.120, 563.179
402.602, 566.234
403.084, 564.740
403.566, 555.620
404.048, 547.823
404.530, 549.528
405.013, 556.534
405.495, 560.657
405.977, 559.244
406.459, 554.917
406.941, 547.678
407.423, 538.757
407.905, 534.818
408.387, 539.784
408.870, 548.108
409.352, 549.170
409.834, 539.771
410.316, 534.550
410.798, 537.989
411.280, 544.572
411.762, 551.409
412.244, 557.297
412.727, 559.291
413.209, 554.040
413.691, 542.629
414.173, 539.179
414.655, 555.502
415.137, 566.276
415.619, 562.441
416.101, 553.948
416.583, 552.634
417.065, 561.967
417.548, 574.505
418.030, 580.570
418.512, 579.613
418.994, 578.026
419.476, 575.695
419.958, 573.434
420.440, 570.575
420.922, 568.030
421.405, 568.510
421.887, 576.033
422.369, 584.970
422.851, 586.430
423.333, 580.724
423.815, 577.042
424.297, 580.790
424.779, 587.203
425.262, 586.061
425.744, 574.172
426.226, 566.549
426.708, 570.119
427.190, 578.227
427.672, 584.186
428.154, 587.030
428.636, 588.528
429.118, 590.089
429.601, 591.708
430.083, 593.013
430.565, 595.409
431.047, 595.831
431.529, 590.662
432.011, 584.447
432.493, 583.294
432.975, 589.042
433.457, 597.137
433.940, 602.056
434.422, 603.879
434.904, 601.415
435.386, 589.641
435.868, 579.191
436.350, 576.695
436.832, 579.951
437.314, 582.858
437.797, 583.282
438.279, 581.612
438.761, 576.676
439.243, 568.752
439.725, 564.462
440.207, 566.727
440.689, 573.493
441.171, 582.416
441.654, 595.086
442.136, 603.224
442.618, 601.184
443.100, 596.275
443.582, 596.138
444.064, 600.661
444.546, 603.717
445.028, 599.665
445.510, 590.462
445.992, 591.851
446.475, 620.156
446.957, 639.169
447.439, 639.959
447.921, 632.558
448.403, 625.539
448.885, 621.284
449.367, 618.992
449.849, 617.554
450.332, 617.004
450.814, 619.406
451.296, 626.722
451.778, 633.826
452.260, 638.844
452.742, 641.717
453.224, 641.942
453.706, 638.158
454.189, 633.766
454.671, 631.391
455.153, 630.778
455.635, 631.622
456.117, 634.438
456.599, 636.295
457.081, 632.280
457.563, 619.964
458.045, 614.807
458.528, 621.506
459.010, 631.361
459.492, 641.835
459.974, 651.372
460.456, 657.176
460.938, 657.584
461.420, 654.692
461.902, 653.432
462.384, 653.654
462.867, 655.924
463.349, 662.635
463.831, 669.344
464.313, 674.695
464.795, 677.899
465.277, 677.170
465.759, 669.522
466.241, 657.945
466.724, 648.301
467.206, 640.285
467.688, 636.930
468.170, 641.223
468.652, 650.019
469.134, 658.108
469.616, 666.111
470.098, 671.127
470.581, 670.048
471.063, 666.615
471.545, 665.480
472.027, 666.921
472.509, 668.048
472.991, 666.509
473.473, 662.665
473.955, 659.898
474.437, 661.392
474.919, 659.999
475.402, 650.869
475.884, 640.880
476.366, 636.456
476.848, 638.851
477.330, 645.234
477.812, 655.851
478.294, 669.859
478.776, 673.110
479.259, 660.723
479.741, 647.627
480.223, 639.296
480.705, 635.840
481.187, 639.097
481.669, 652.132
482.151, 665.372
482.633, 674.612
483.116, 679.313
483.598, 676.167
484.080, 664.164
484.562, 652.659
485.044, 651.472
485.526, 661.245
486.008, 667.891
486.490, 668.933
486.972, 670.116
487.455, 674.750
487.937, 679.971
488.419, 681.331
488.901, 677.503
489.383, 671.892
489.865, 669.119
490.347, 669.487
490.829, 669.524
491.311, 668.731
491.794, 668.167
492.276, 668.722
492.758, 669.799
493.240, 670.356
493.722, 670.399
494.204, 669.295
494.686, 666.418
495.168, 661.931
495.651, 654.929
496.133, 644.296
496.615, 636.609
497.097, 640.339
497.579, 657.412
498.061, 670.911
498.543, 681.311
499.025, 687.904
499.508, 686.914
499.990, 682.859
500.472, 684.513
500.954, 694.966
501.436, 705.591
501.918, 700.444
502.400, 675.211
502.882, 661.712
503.364, 670.165
503.846, 679.684
504.329, 678.753
504.811, 671.312
505.293, 666.076
505.775, 667.563
506.257, 669.171
506.739, 661.925
507.221, 649.265
507.703, 644.848
508.186, 653.517
508.668, 664.219
509.150, 663.627
509.632, 649.551
510.114, 642.498
510.596, 647.470
511.078, 653.525
511.560, 658.388
512.042, 660.891
512.525, 658.730
513.007, 651.260
513.489, 642.317
513.971, 637.195
514.453, 636.133
514.935, 637.061
515.417, 642.818
515.899, 646.460
516.382, 644.069
516.864, 637.344
517.346, 628.372
517.828, 614.278
518.310, 604.864
518.792, 612.354
519.274, 630.268
519.756, 642.741
520.239, 646.258
520.721, 642.917
521.203, 633.459
521.685, 617.349
522.167, 606.354
522.649, 602.301
523.131, 600.428
523.613, 601.070
524.096, 602.421
524.578, 602.091
525.060, 599.560
525.542, 596.886
526.024, 596.900
526.506, 599.427
526.988, 600.481
527.470, 599.875
527.952, 598.112
528.435, 594.916
528.917, 590.874
529.399, 587.057
529.881, 584.405
530.363, 579.876
530.845, 568.747
531.327, 556.072
531.809, 550.234
532.291, 551.980
532.774, 555.502
533.256, 556.352
533.738, 554.723
534.220, 552.167
534.702, 548.637
535.184, 544.145
535.666, 536.108
536.148, 528.905
536.630, 525.763
537.113, 527.226
537.595, 532.658
538.077, 545.500
538.559, 561.105
539.041, 565.007
539.523, 556.047
540.005, 545.182
540.487, 534.437
540.969, 526.484
541.452, 528.303
541.934, 543.978
542.416, 550.536
542.898, 535.076
543.380, 515.517
543.862, 504.568
544.344, 502.410
544.826, 506.682
545.309, 516.684
545.791, 528.018
546.273, 528.994
546.755, 514.877
547.237, 505.024
547.719, 504.258
548.201, 505.287
548.683, 504.739
549.166, 502.896
549.648, 501.231
550.130, 501.686
550.612, 500.736
551.094, 492.609
551.576, 479.751
552.058, 470.472
552.540, 467.001
553.023, 468.541
553.505, 476.107
553.987, 491.391
554.469, 494.993
554.951, 474.303
555.433, 458.525
555.915, 459.945
556.397, 469.400
556.879, 475.774
557.362, 475.935
557.844, 473.181
558.326, 470.778
558.808, 468.517
559.290, 464.582
559.772, 458.237
560.254, 452.541
560.736, 448.819
561.218, 446.950
561.701, 446.554
562.183, 448.118
562.665, 449.763
563.147, 451.440
563.629, 452.555
564.111, 453.424
564.593, 453.371
565.075, 449.430
565.557, 439.188
566.040, 425.597
566.522, 418.147
567.004, 419.736
567.486, 419.884
567.968, 414.106
568.450, 409.447
568.932, 410.563
569.414, 416.298
569.896, 422.232
570.379, 427.715
570.861, 431.396
571.343, 430.546
571.825, 426.610
572.307, 425.300
572.789, 428.575
573.271, 430.469
573.753, 422.968
574.236, 404.601
574.718, 395.912
575.200, 407.287
575.682, 415.328
576.164, 409.956
576.646, 400.966
577.128, 401.277
577.610, 412.849
578.093, 423.918
578.575, 422.034
579.057, 411.192
579.539, 405.616
580.021, 406.131
580.503, 406.997
580.985, 405.814
581.467, 403.172
581.950, 399.709
582.432, 394.227
582.914, 391.904
583.396, 397.035
583.878, 402.381
584.360, 402.461
584.842, 398.564
585.324, 394.067
585.806, 390.472
586.289, 389.019
586.771, 394.490
587.253, 408.549
587.735, 411.012
588.217, 393.122
588.699, 374.520
589.181, 369.935
589.663, 373.774
590.145, 374.253
590.628, 367.505
591.110, 360.985
591.592, 358.341
592.074, 357.962
592.556, 358.387
593.038, 359.036
593.520, 358.364
594.002, 354.802
594.484, 349.425
594.967, 348.020
595.449, 353.853
595.931, 356.419
596.413, 352.376
596.895, 345.745
597.377, 336.518
597.859, 326.221
598.341, 320.775
598.823, 326.058
599.306, 334.012
599.788, 337.978
600.270, 338.304
600.752, 335.410
601.234, 329.362
601.716, 321.939
602.198, 314.619
602.680, 307.260
603.162, 303.622
603.645, 309.587
604.127, 311.898
604.609, 304.163
605.091, 294.133
605.573, 290.597
606.055, 294.274
606.537, 296.601
607.019, 288.015
607.502, 275.898
607.984, 274.234
608.466, 282.394
608.948, 292.228
609.430, 301.708
609.912, 307.646
610.394, 304.261
610.876, 288.318
611.359, 274.842
611.841, 260.704
612.323, 252.117
612.805, 254.271
613.287, 262.295
613.769, 270.556
614.251, 277.293
614.733, 280.929
615.216, 278.087
615.698, 270.937
616.180, 267.809
616.662, 269.668
617.144, 267.240
617.626, 253.276
618.108, 234.564
618.590, 226.410
619.072, 233.548
619.555, 240.189
620.037, 248.514
620.519, 253.613
621.001, 250.605
621.483, 242.702
621.965, 236.046
622.447, 233.286
622.929, 232.069
623.411, 229.893
623.894, 226.728
624.376, 221.984
624.858, 215.092
625.340, 208.700
625.822, 203.783
626.304, 200.746
626.786, 201.197
627.268, 207.348
627.750, 212.086
628.233, 215.566
628.715, 216.391
629.197, 212.348
629.679, 204.855
630.161, 196.859
630.643, 189.592
631.125, 184.457
631.607, 185.980
632.089, 193.486
632.572, 193.209
633.054, 181.101
633.536, 168.538
634.018, 163.651
634.500, 164.445
634.982, 162.848
635.464, 156.627
635.946, 151.846
636.429, 150.286
636.911, 150.111
637.393, 149.965
637.875, 149.809
638.357, 150.606
638.839, 153.317
639.321, 155.416
639.803, 150.821
640.286, 139.707
640.768, 133.427
641.250, 134.750
641.732, 138.016
642.214, 139.825
642.696, 140.196
643.178, 139.545
643.660, 138.457
644.143, 135.521
644.625, 128.193
645.107, 120.606
645.589, 116.275
646.071, 115.063
646.553, 115.224
647.035, 115.928
647.517, 116.765
647.999, 117.359
648.482, 117.671
648.964, 115.994
649.446, 111.303
649.928, 106.922
650.410, 105.772
650.892, 107.098
651.374, 106.988
651.856, 103.281
652.338, 101.364
652.821, 104.321
653.303, 107.706
653.785, 107.284
654.267, 103.907
654.749, 101.089
655.231, 100.654
655.713, 102.246
656.195, 106.563
656.677, 113.099
657.160, 116.067
657.642, 113.837
658.124, 111.362
658.606, 112.863
659.088, 117.035
659.570, 117.569
660.052, 111.388
660.534, 106.453
661.016, 104.339
661.499, 102.982
661.981, 101.046
662.463, 98.599
662.945, 96.449
663.427, 95.168
663.909, 93.519
664.391, 88.269
664.873, 80.952
665.356, 79.428
665.838, 85.351
666.320, 91.040
666.802, 90.823
667.284, 86.861
667.766, 86.674
668.248, 96.406
668.730, 100.238
669.213, 91.400
669.695, 83.292
670.177, 84.840
670.659, 92.602
671.141, 99.104
671.623, 101.863
672.105, 100.770
672.587, 93.783
673.070, 83.204
673.552, 73.068
674.034, 64.051
674.516, 61.533
674.998, 69.844
675.480, 83.687
675.962, 90.188
676.444, 86.663
676.926, 82.089
677.409, 75.520
677.891, 68.898
678.373, 60.649
678.855, 53.652
679.337, 53.353
679.819, 61.931
680.301, 70.320
680.783, 71.913
681.265, 70.336
681.748, 71.210
682.230, 73.841
682.712, 72.880
683.194, 65.604
683.676, 56.562
684.158, 53.872
684.640, 58.991
685.122, 60.153
685.604, 54.896
686.087, 49.644
686.569, 46.665
687.051, 45.180
687.533, 44.379
688.015, 44.180
688.497, 44.941
688.979, 46.990
689.461, 49.860
689.943, 55.280
690.426, 60.783
690.908, 60.149
691.390, 51.977
691.872, 43.589
692.354, 44.455
692.836, 52.681
693.318, 53.492
693.800, 44.868
694.283, 38.661
694.765, 40.681
695.247, 44.349
695.729, 40.024
696.211, 27.551
696.693, 21.194
697.175, 26.258
697.657, 32.262
698.140, 35.870
698.622, 38.217
699.104, 41.308
699.586, 44.905
700.068, 46.210
700.550, 42.266
701.032, 36.022
701.514, 33.265
701.997, 33.440
702.479, 31.873
702.961, 27.078
703.443, 23.423
703.925, 25.405
704.407, 31.881
704.889, 34.157
705.371, 26.513
705.853, 23.339
706.336, 29.848
706.818, 36.943
707.300, 38.849
707.782, 36.645
708.264, 33.993
708.746, 32.046
709.228, 30.360
709.710, 28.677
710.192, 26.992
710.675, 24.858
711.157, 22.531
711.639, 21.823
712.121, 23.954
712.603, 27.189
713.085, 27.672
713.567, 24.754
714.049, 22.743
714.531, 22.271
715.014, 21.771
715.496, 18.525
715.978, 15.658
716.460, 19.429
716.942, 32.633
717.424, 40.074
717.906, 33.373
718.388, 24.400
718.870, 21.466
719.353, 21.763
719.835, 19.123
720.317, 11.988
720.799, 4.887
721.281, 2.011
721.763, 2.789
722.245, 6.472
722.727, 13.054
723.210, 17.396
723.692, 17.220
724.174, 16.463
724.656, 20.352
725.138, 29.044
725.620, 32.411
726.102, 24.331
726.584, 18.828
727.067, 20.696
727.549, 23.331
728.031, 20.393
728.513, 13.175
728.995, 8.469
729.477, 9.987
729.959, 13.335
730.441, 15.746
730.924, 17.294
731.406, 17.711
731.888, 17.232
732.370, 17.002
732.852, 17.645
733.334, 19.516
733.816, 24.616
734.298, 34.040
734.780, 37.330
735.263, 31.272
735.745, 24.245
736.227, 19.262
736.709, 16.990
737.191, 19.790
737.673, 30.681
738.155, 35.840
738.637, 28.234
739.119, 19.689
739.602, 15.407
740.084, 14.953
740.566, 18.433
741.048, 25.327
741.530, 30.822
742.012, 28.200
742.494, 22.874
742.976, 26.565
743.458, 37.331
743.941, 44.811
744.423, 46.072
744.905, 41.409
745.387, 29.480
745.869, 11.784
746.351, 4.439
746.833, 12.399
747.315, 19.988
747.797, 26.584
748.280, 30.205
748.762, 27.692
749.244, 21.132
749.726, 17.180
750.208, 19.076
750.690, 19.799
751.172, 14.776
751.654, 8.767
752.137, 5.664
752.619, 5.587
753.101, 8.399
753.583, 14.184
754.065, 19.095
754.547, 16.703
755.029, 9.360
755.511, 6.553
755.994, 8.764
756.476, 10.787
756.958, 9.902
757.440, 9.698
757.922, 16.329
758.404, 31.248
758.886, 39.742
759.368, 39.525
759.851, 36.052
760.333, 26.357
760.815, 17.233
761.297, 16.608
761.779, 22.984
762.261, 25.069
762.743, 14.543
763.225, 4.742
763.707, 3.493
764.190, 6.966
764.672, 12.437
765.154, 18.159
765.636, 20.347
766.118, 16.594
766.600, 9.696
767.082, 2.481
767.564, -4.349
768.046, -5.311
768.529, 0.610
769.011, 5.927
769.493, 6.526
769.975, 4.944
770.457, 5.952
770.939, 10.402
771.421, 13.762
771.903, 16.220
772.385, 17.287
772.868, 15.921
773.350, 13.755
773.832, 11.586
774.314, 9.769
774.796, 10.689
775.278, 18.888
775.760, 25.918
776.242, 25.186
776.724, 21.138
777.207, 20.042
777.689, 22.036
778.171, 22.552
778.653, 18.147
779.135, 13.125
779.617, 16.753
780.099, 26.756
780.581, 28.988
781.064, 21.610
781.546, 13.123
782.028, 7.363
782.510, 5.062
782.992, 8.415
783.474, 19.628
783.956, 26.574
784.438, 28.189
784.920, 27.001
785.403, 19.739
785.885, 12.828
786.367, 14.674
786.849, 24.918
787.331, 30.673
787.813, 23.746
788.295, 17.353
788.778, 20.019
789.260, 25.228
789.742, 25.331
790.224, 20.391
790.706, 15.016
791.188, 11.572
791.670, 9.403
792.152, 6.550
792.634, 4.375
793.117, 9.786
793.599, 22.298
794.081, 27.523
794.563, 17.396
795.045, 1.311
795.527, -4.820
796.009, -0.091
796.491, 3.732
796.973, 6.716
797.456, 8.560
797.938, 8.223
798.420, 7.588
798.902, 8.749
799.384, 11.564
799.866, 14.799
800.348, 21.526
800.830, 24.459
801.312, 16.972
801.795, 9.075
802.277, 11.602
802.759, 20.614
803.241, 22.926
803.723, 11.954
804.205, 0.795
804.687, 2.140
805.169, 8.450
805.652, 7.897
806.134, 1.969
806.616, -1.582
807.098, 0.177
807.580, 5.102
808.062, 11.580
808.544, 18.883
809.026, 23.817
809.508, 26.563
809.991, 23.230
810.473, 10.474
810.955, -1.084
811.437, -1.179
811.919, 8.062
812.401, 14.345
812.883, 17.652
813.365, 17.940
813.847, 9.986
814.330, 4.601
814.812, 10.983
815.294, 21.639
815.776, 22.427
816.258, 9.305
816.740, 0.773
817.222, 8.060
817.705, 16.813
818.187, 15.458
818.669, 10.401
819.151, 13.371
819.633, 24.844
820.115, 33.068
820.597, 28.577
821.079, 18.760
821.561, 12.650
822.044, 9.847
822.526, 9.961
823.008, 12.676
823.490, 16.202
823.972, 19.636
824.454, 22.411
824.936, 23.437
825.418, 22.685
825.901, 20.119
826.383, 14.759
826.865, 11.305
827.347, 12.115
827.829, 14.754
828.311, 15.694
828.793, 14.734
829.275, 17.947
829.757, 34.980
830.240, 42.775
830.722, 30.075
831.204, 14.875
831.686, 9.947
832.168, 12.366
832.650, 12.510
833.132, 6.873
833.614, 2.957
834.096, 5.432
834.579, 9.660
835.061, 13.033
835.543, 14.790
836.025, 13.230
836.507, 8.367
836.989, 4.393
837.471, 6.161
837.953, 9.674
838.435, 7.053
838.918, 0.687
839.400, -0.856
839.882, 3.580
840.364, 7.726
840.846, 7.279
841.328, 3.758
841.810, 0.330
842.292, -2.973
842.774, -7.484
843.257, -14.320
843.739, -17.770
844.221, -14.852
844.703, -8.127
845.185, -0.097
845.667, 9.721
846.149, 13.051
846.631, 2.051
847.114, -3.688
847.596, 2.836
848.078, 11.657
848.560, 16.562
849.042, 18.290
849.524, 19.648
850.006, 21.532
850.488, 21.913
850.971, 20.849
851.453, 17.416
851.935, 6.835
852.417, -4.793
852.899, -6.240
853.381, 3.937
853.863, 13.649
854.345, 14.228
854.828, 11.073
855.310, 9.812
855.792, 9.175
856.274, 4.733
856.756, -2.480
857.238, -3.535
857.720, 7.452
858.202, 22.238
858.684, 27.287
859.167, 24.450
859.649, 24.441
860.131, 27.633
860.613, 25.208
861.095, 12.907
861.577, -0.481
862.059, -4.700
862.541, -0.641
863.023, 3.440
863.506, 8.176
863.988, 10.588
864.470, 8.747
864.952, 7.218
865.434, 9.772
865.916, 14.502
866.398, 16.221
866.880, 13.339
867.362, 11.610
867.845, 12.911
868.327, 13.067
868.809, 10.830
869.291, 6.714
869.773, -0.725
870.255, -10.316
870.737, -14.696
871.219, -8.841
871.701, -1.434
872.184, 7.361
872.666, 13.251
873.148, 9.711
873.630, 0.558
874.112, -5.050
874.594, -4.048
875.076, -1.735
875.558, -2.320
876.041, -3.734
876.523, -3.517
877.005, -2.034
877.487, 1.077
877.969, 5.017
878.451, 4.603
878.933, -4.987
879.415, -16.655
879.898, -16.031
880.380, -6.227
880.862, -1.804
881.344, -3.731
881.826, -7.719
882.308, -12.333
882.790, -14.564
883.272, -9.178
883.755, 2.306
884.237, 3.189
884.719, -9.562
885.201, -15.634
885.683, -9.564
886.165, -0.231
886.647, 7.374
887.129, 12.692
887.611, 13.887
888.094, 9.114
888.576, 5.765
889.058, 5.498
889.540, 4.340
890.022, -0.926
890.504, -6.265
890.986, -7.350
891.468, -4.575
891.950, -2.309
892.433, -4.218
892.915, -2.066
893.397, 13.330
893.879, 25.729
894.361, 19.975
894.843, 5.513
895.325, -0.268
895.807, 6.530
896.289, 15.042
896.772, 25.729
897.254, 30.730
897.736, 19.262
898.218, 2.590
898.700, -4.924
899.182, -3.146
899.664, 0.377
900.146, 2.651
900.628, 2.799
901.111, -4.022
901.593, -10.867
902.075, -3.936
902.557, 11.444
903.039, 17.919
903.521, 11.393
904.003, 3.706
904.485, 4.968
904.968, 11.421
905.450, 17.697
905.932, 22.869
906.414, 21.647
906.896, 14.099
907.378, 7.968
907.860, 7.306
908.342, 8.060
908.825, 3.731
909.307, -4.665
909.789, -9.003
910.271, -9.213
910.753, -5.109
911.235, 4.467
911.717, 12.493
912.199, 13.263
912.682, 9.265
913.164, 7.696
913.646, 9.656
914.128, 9.426
914.610, 6.934
915.092, 1.979
915.574, -8.241
916.056, -17.229
916.538, -16.962
917.021, -8.277
917.503, -2.100
917.985, 3.362
918.467, 3.173
918.949, -12.238
919.431, -22.892
919.913, -14.232
920.395, 2.206
920.877, 8.344
921.360, 2.305
921.842, 0.086
922.324, 6.212
922.806, 12.790
923.288, 22.998
923.770, 28.165
924.252, 14.530
924.734, -8.393
925.216, -15.076
925.699, 4.196
926.181, 18.689
926.663, 12.610
927.145, 3.729
927.627, 1.324
928.109, 3.222
928.591, 8.273
929.073, 14.646
929.555, 16.466
930.038, 8.811
930.520, 2.482
931.002, 6.229
931.484, 13.705
931.966, 20.213
932.448, 24.572
932.930, 25.668
933.412, 23.260
933.895, 17.506
934.377, 5.210
934.859, -5.330
935.341, -1.467
935.823, 9.067
936.305, 12.708
936.787, 9.985
937.269, 8.860
937.752, 12.438
938.234, 15.866
938.716, 12.566
939.198, 6.844
939.680, 8.719
940.162, 15.462
940.644, 17.719
941.126, 14.557
941.609, 11.814
942.091, 12.941
942.573, 15.190
943.055, 14.585
943.537, 11.558
944.019, 7.659
944.501, 3.021
944.983, -2.436
945.465, -8.678
945.948, -9.181
946.430, 2.376
946.912, 18.996
947.394, 24.081
947.876, 17.992
948.358, 10.671
948.840, 2.137
949.322, -0.017
949.804, 8.073
950.287, 16.315
950.769, 14.099
951.251, 3.896
951.733, -3.830
952.215, -9.027
952.697, -12.470
953.179, -14.777
953.661, -12.039
954.143, 0.117
954.626, 11.654
955.108, 7.664
955.590, -10.416
956.072, -16.916
956.554, -6.976
957.036, -1.719
957.518, -6.485
958.000, -9.941
958.482, -4.399
958.965, 4.655
959.447, 7.711
959.929, 4.282
960.411, 0.137
960.893, -5.625
961.375, -10.424
961.857, -15.679
962.339, -17.085
962.822, -7.939
963.304, 5.455
963.786, 6.967
964.268, -8.839
964.750, -15.320
965.232, -4.402
965.714, 4.194
966.196, 4.726
966.679, 2.821
967.161, 3.157
967.643, 4.489
968.125, 2.233
968.607, -7.996
969.089, -10.829
969.571, 3.077
970.053, 13.393
970.536, 10.772
971.018, 4.207
971.500, 2.058
971.982, 3.445
972.464, 2.934
972.946, -1.793
973.428, -4.742
973.910, -3.902
974.392, -2.621
974.875, -4.727
975.357, -5.493
975.839, 3.199
976.321, 19.506
976.803, 28.412
977.285, 22.753
977.767, 17.324
978.249, 15.919
978.731, 14.841
979.214, 12.344
979.696, 8.795
980.178, 3.154
980.660, -3.848
981.142, -5.161
981.624, 7.268
982.106, 16.582
982.588, 15.756
983.070, 12.368
983.553, 11.302
984.035, 11.043
984.517, 7.518
984.999, 0.632
985.481, -1.868
985.963, 8.802
986.445, 15.720
986.927, 7.620
987.409, -1.791
987.892, 0.337
988.374, 7.781
988.856, 6.993
989.338, -4.194
989.820, -10.619
990.302, -1.366
990.784, 7.009
991.266, 6.979
991.749, 3.241
992.231, -2.157
992.713, -7.420
993.195, -10.244
993.677, -10.138
994.159, -7.285
994.641, 3.582
995.123, 10.501
995.606, 1.683
996.088, -8.974
996.570, -5.688
997.052, 5.500
997.534, 8.905
998.016, 0.505
998.498, -8.326
998.980, -14.368
999.463, -17.377
999.945, -15.530
1000.427, -11.991
1000.909, -10.959
1001.391, -10.550
1001.873, -4.290
1002.355, 10.101
1002.837, 20.131
1003.319, 17.253
1003.802, 11.931
1004.284, 10.289
1004.766, 8.936
1005.248, 2.415
1005.730, -6.530
1006.212, -9.907
1006.694, -5.184
1007.176, -0.206
1007.658, 2.369
1008.141, 3.217
1008.623, 1.639
1009.105, -0.647
1009.587, -2.249
1010.069, -3.023
1010.551, -3.018
1011.033, -2.168
1011.515, -1.295
1011.997, -0.933
1012.480, -0.418
1012.962, -0.538
1013.444, 0.604
1013.926, 8.235
1014.408, 18.124
1014.890, 17.332
1015.372, 0.509
1015.854, -8.462
1016.337, 9.704
1016.819, 25.990
1017.301, 24.383
1017.783, 14.982
1018.265, 2.835
1018.747, -7.740
1019.229, -7.822
1019.711, 6.144
1020.193, 17.689
1020.676, 22.273
1021.158, 21.808
1021.640, 13.486
1022.122, 3.692
1022.604, -3.051
1023.086, -6.485
1023.568, -6.302
1024.050, -1.621
1024.533, -0.001
1025.015, -7.102
1025.497, -13.078
1025.979, -14.601
1026.461, -13.017
1026.943, -6.198
1027.425, 1.929
1027.907, 2.047
1028.390, -8.676
1028.872, -15.926
1029.354, -16.883
1029.836, -13.930
1030.318, -1.776
1030.800, 8.239
1031.282, 6.307
1031.764, -3.395
1032.246, -13.281
1032.729, -23.476
1033.211, -26.594
1033.693, -12.418
1034.175, -4.136
1034.657, -13.847
1035.139, -24.082
1035.621, -21.314
1036.103, -12.189
1036.585, -10.195
1037.068, -17.209
1037.550, -19.230
1038.032, -9.161
1038.514, -3.693
1038.996, -8.081
1039.478, -14.222
1039.960, -19.890
1040.442, -23.505
1040.925, -21.671
1041.407, -13.919
1041.889, -8.878
1042.371, -9.238
1042.853, -6.979
1043.335, 2.700
1043.817, 8.613
1044.299, 2.325
1044.781, -7.828
1045.264, -9.717
1045.746, -3.753
1046.228, -1.963
1046.710, -8.527
1047.192, -6.914
1047.674, 9.301
1048.156, 21.688
1048.638, 21.157
1049.120, 14.867
1049.603, 10.852
1050.085, 9.011
1050.567, 9.231
1051.049, 12.639
1051.531, 12.367
1052.013, 7.407
1052.495, 0.501
1052.977, -8.574
1053.460, -14.543
1053.942, -11.207
1054.424, -1.202
1054.906, 6.559
1055.388, 12.073
1055.870, 14.179
1056.352, 12.622
1056.834, 10.122
1057.317, 7.437
1057.799, 5.089
1058.281, 3.376
1058.763, 2.717
1059.245, 4.407
1059.727, 8.184
1060.209, 12.608
1060.691, 17.389
1061.173, 19.648
1061.656, 18.675
1062.138, 14.929
1062.620, 8.400
1063.102, 1.708
1063.584, -0.156
1064.066, 1.063
1064.548, -0.819
1065.030, -4.454
1065.512, -3.238
1065.995, 3.061
1066.477, 8.180
1066.959, 8.857
1067.441, 6.167
1067.923, -1.010
1068.405, -9.062
1068.887, -11.614
1069.369, -10.649
1069.852, -10.228
1070.334, -10.484
1070.816, -8.719
1071.298, -4.030
1071.780, -1.363
1072.262, -7.733
1072.744, -14.865
1073.226, -13.403
1073.708, -8.815
1074.191, -7.883
1074.673, -9.858
1075.155, -11.762
1075.637, -12.668
1076.119, -11.985
1076.601, -8.154
1077.083, -4.509
1077.565, -2.859
1078.047, -2.278
1078.530, -2.974
1079.012, -3.687
1079.494, -2.678
1079.976, 0.186
1080.458, 4.088
1080.940, 11.071
1081.422, 14.621
1081.904, 9.960
1082.386, 4.994
1082.869, 3.196
1083.351, 3.472
1083.833, 6.019
1084.315, 9.628
1084.797, 9.042
1085.279, 0.839
1085.761, -3.822
1086.243, -1.698
1086.726, -0.244
1087.208, -2.734
1087.690, -4.492
1088.172, -1.131
1088.654, 4.769
1089.136, 6.973
1089.618, 4.802
1090.100, 4.548
1090.583, 6.798
1091.065, 9.546
1091.547, 13.614
1092.029, 14.127
1092.511, 7.422
1092.993, -1.913
1093.475, -7.447
1093.957, -9.402
1094.439, -8.905
1094.922, -5.891
1095.404, -2.942
1095.886, -0.260
1096.368, -2.497
1096.850, -11.865
1097.332, -17.926
1097.814, -9.601
1098.296, 6.852
1098.778, 19.699
1099.261, 28.257
1099.743, 29.463
1100.225, 23.947
1100.707, 13.397
1101.189, -0.795
1101.671, -13.928
1102.153, -23.512
1102.635, -27.693
1103.118, -19.752
1103.600, -8.684
1104.082, -9.062
1104.564, -15.127
1105.046, -15.280
1105.528, -9.894
1106.010, -6.692
1106.492, -8.599
1106.974, -11.155
1107.457, -11.994
1107.939, -11.971
1108.421, -11.766
1108.903, -10.878
1109.385, -8.276
1109.867, -4.834
1110.349, -1.587
1110.831, 1.144
1111.313, 1.138
1111.796, -6.076
1112.278, -10.247
1112.760, -6.461
1113.242, -2.340
1113.724, -1.397
1114.206, -2.297
1114.688, -4.495
1115.170, -7.279
1115.653, -6.858
1116.135, 0.009
1116.617, 0.226
1117.099, -12.116
1117.581, -16.918
1118.063, -5.829
1118.545, 6.148
1119.027, 8.039
1119.510, 4.810
1119.992, 6.533
1120.474, 12.871
1120.956, 15.619
1121.438, 14.682
1121.920, 13.293
1122.402, 11.922
1122.884, 8.648
1123.366, 2.475
1123.849, -1.973
1124.331, 0.954
1124.813, 8.020
1125.295, 13.783
1125.777, 17.305
1126.259, 13.858
1126.741, 5.789
1127.223, 2.598
1127.705, 5.713
1128.188, 7.570
1128.670, 3.260
1129.152, -1.704
1129.634, -1.965
1130.116, -0.593
1130.598, -1.243
1131.080, -1.943
1131.562, 2.187
1132.045, 8.635
1132.527, 8.826
1133.009, 0.090
1133.491, -7.347
1133.973, -10.712
1134.455, -10.566
1134.937, -5.976
1135.419, 0.855
1135.901, 11.629
1136.384, 21.947
1136.866, 25.527
1137.348, 22.390
1137.830, 16.800
1138.312, 5.750
1138.794, -1.131
1139.276, -2.631
1139.758, -1.979
1140.240, 1.740
1140.723, 2.654
1141.205, -5.143
1141.687, -16.646
1142.169, -20.641
1142.651, -17.473
1143.133, -15.486
1143.615, -14.611
1144.097, -11.435
1144.580, -5.535
1145.062, 1.263
1145.544, 8.112
1146.026, 11.162
1146.508, 4.924
1146.990, -4.670
1147.472, -7.766
1147.954, -6.331
1148.437, -1.502
1148.919, 3.649
1149.401, -0.039
1149.883, -11.646
1150.365, -16.656
1150.847, -6.456
1151.329, 3.163
1151.811, -0.011
1152.293, -4.975
1152.776, -4.076
1153.258, -1.290
1153.740, -1.259
1154.222, -2.605
1154.704, -0.098
1155.186, 7.473
1155.668, 7.797
1156.150, -10.916
1156.632, -20.438
1157.115, -11.454
1157.597, -3.410
1158.079, -5.233
1158.561, -8.978
1159.043, -6.037
1159.525, 0.838
1160.007, 1.601
1160.489, -4.814
1160.972, -4.760
1161.454, 2.209
1161.936, 7.848
1162.418, 10.500
1162.900, 8.904
1163.382, 2.025
1163.864, -2.469
1164.346, 7.905
1164.828, 22.862
1165.311, 18.701
1165.793, 4.581
1166.275, -0.550
1166.757, 2.565
1167.239, 7.837
1167.721, 13.230
1168.203, 17.980
1168.685, 22.459
1169.167, 23.316
1169.650, 15.255
1170.132, 6.685
1170.614, 4.356
1171.096, 3.279
1171.578, -3.560
1172.060, -12.665
1172.542, -14.855
1173.024, -8.470
1173.507, -4.511
1173.989, -4.957
1174.471, -5.123
1174.953, -2.558
1175.435, -4.735
1175.917, -17.890
1176.399, -29.211
1176.881, -25.914
1177.364, -13.360
1177.846, -5.231
1178.328, -1.477
1178.810, 0.085
1179.292, -0.701
1179.774, -8.462
1180.256, -22.383
1180.738, -26.984
1181.220, -15.661
1181.703, -4.492
1182.185, -10.036
1182.667, -20.909
1183.149, -24.547
1183.631, -23.148
1184.113, -17.250
1184.595, -9.674
1185.077, -4.628
1185.559, -2.428
1186.042, -0.878
1186.524, 1.080
1187.006, 0.413
1187.488, -9.749
1187.970, -14.455
1188.452, -1.233
1188.934, 10.649
1189.416, 5.659
1189.899, -4.988
1190.381, -5.504
1190.863, 2.173
1191.345, 2.710
1191.827, -5.889
1192.309, -9.914
1192.791, -8.553
1193.273, -5.999
1193.755, -3.295
1194.238, 0.223
1194.720, 5.126
1195.202, 9.333
1195.684, 8.234
1196.166, 6.151
1196.648, 15.433
1197.130, 28.763
1197.612, 31.551
1198.094, 25.151
1198.577, 13.878
1199.059, 0.966
1199.541, -3.325
1200.023, 8.861
1200.505, 19.592
1200.987, 20.253
1201.469, 17.185
1201.951, 10.110
1202.434, 3.994
1202.916, 3.451
1203.398, 6.558
1203.880, 10.246
1204.362, 14.346
1204.844, 12.798
1205.326, 2.286
1205.808, 0.157
1206.291, 9.812
1206.773, 12.977
1207.255, 3.557
1207.737, -7.232
1208.219, -11.602
1208.701, -11.499
1209.183, -7.790
1209.665, -3.170
1210.147, -5.451
1210.630, -11.471
1211.112, -14.910
1211.594, -15.378
1212.076, -13.252
1212.558, -9.296
1213.040, -7.197
1213.522, -9.392
1214.004, -11.571
1214.486, -13.118
1214.969, -12.247
1215.451, -5.841
1215.933, 1.248
1216.415, 5.228
1216.897, 6.884
1217.379, 7.953
1217.861, 8.404
1218.343, 7.410
1218.826, 4.920
1219.308, 0.332
1219.790, -7.160
1220.272, -8.853
1220.754, -1.970
1221.236, 3.133
1221.718, -0.713
1222.200, -6.892
1222.682, -5.378
1223.165, -0.963
1223.647, -1.950
1224.129, -6.922
1224.611, -18.056
1225.093, -29.371
1225.575, -26.022
1226.057, -8.118
1226.539, 7.299
1227.021, 15.219
1227.504, 16.743
1227.986, 4.356
1228.468, -3.612
1228.950, 3.885
1229.432, 12.683
1229.914, 16.006
1230.396, 13.898
1230.878, 4.135
1231.361, -10.111
1231.843, -10.294
1232.325, 4.227
1232.807, 11.276
1233.289, 10.539
1233.771, 11.411
1234.253, 15.360
1234.735, 14.944
1235.218, 6.432
1235.700, -2.008
1236.182, -2.976
1236.664, 0.188
1237.146, 8.660
1237.628, 14.929
1238.110, 6.122
1238.592, -7.037
1239.074, -8.211
1239.557, 1.400
1240.039, 11.215
1240.521, 21.370
1241.003, 22.810
1241.485, 8.211
1241.967, -0.220
1242.449, 2.384
1242.931, 4.711
1243.413, 2.102
1243.896, -1.822
1244.378, -3.961
1244.860, -4.522
1245.342, -2.907
1245.824, -0.370
1246.306, -2.247
1246.788, -6.539
1247.270, -8.172
1247.753, -6.713
1248.235, -1.779
1248.717, 5.741
1249.199, 8.887
1249.681, 2.531
1250.163, -3.973
1250.645, -7.950
1251.127, -9.119
1251.609, -4.138
1252.092, 0.366
1252.574, 0.037
1253.056, -4.437
1253.538, -13.190
1254.020, -25.066
1254.502, -32.763
1254.984, -36.345
1255.466, -33.496
1255.948, -24.391
1256.431, -12.559
1256.913, 0.253
1257.395, 5.910
1257.877, 0.477
1258.359, -7.522
1258.841, -11.223
1259.323, -12.720
1259.805, -14.913
1260.288, -14.933
1260.770, -6.139
1261.252, 3.627
1261.734, 1.654
1262.216, -8.077
1262.698, -9.424
1263.180, 0.275
1263.662, 6.331
1264.145, 7.454
1264.627, 8.582
1265.109, 9.797
1265.591, 13.728
1266.073, 21.812
1266.555, 24.894
1267.037, 15.614
1267.519, 3.147
1268.001, 1.349
1268.484, 4.647
1268.966, 2.357
1269.448, -1.005
1269.930, 3.442
1270.412, 11.769
1270.894, 14.556
1271.376, 11.814
1271.858, 11.803
1272.340, 17.574
1272.823, 21.854
##END=



