##NAMES=Stibnite
##RRUFFID=R050016
##IDEAL CHEMISTRY=Sb^3+^_2_S^2-^_3_
##LOCALITY=Romania
##OWNER=RRUFF
##SOURCE=Eugene Schlepp
##DESCRIPTION=Group of lead-gray prismatic crystals
##STATUS=The identification of this mineral has been confirmed by X-ray diffraction and chemical analysis
##URL=rruff.info/R050016
##MEASURED CHEMISTRY=(Sb_.996_As_.004_)_2_S_3_
90.190, 115.898
90.673, 114.495
91.155, 113.554
91.637, 111.223
92.119, 111.344
92.601, 116.814
93.083, 124.790
93.565, 130.561
94.047, 131.400
94.529, 128.520
95.012, 127.627
95.494, 129.600
95.976, 132.192
96.458, 135.173
96.940, 138.241
97.422, 140.137
97.904, 139.523
98.386, 137.094
98.869, 136.750
99.351, 141.644
99.833, 146.394
100.315, 145.253
100.797, 137.859
101.279, 131.912
101.761, 134.801
102.243, 143.806
102.726, 151.370
103.208, 155.578
103.690, 157.616
104.172, 158.899
104.654, 159.128
105.136, 159.590
105.618, 160.332
106.100, 161.807
106.582, 165.651
107.064, 174.042
107.547, 185.634
108.029, 195.730
108.511, 203.433
108.993, 210.334
109.475, 215.714
109.957, 220.589
110.439, 228.578
110.921, 244.303
111.404, 267.647
111.886, 287.601
112.368, 300.170
112.850, 311.646
113.332, 324.648
113.814, 339.391
114.296, 355.180
114.778, 371.279
115.260, 387.735
115.743, 404.596
116.225, 424.618
116.707, 443.175
117.189, 455.069
117.671, 460.507
118.153, 466.484
118.635, 481.786
119.117, 504.007
119.600, 542.814
120.082, 595.833
120.564, 662.999
121.046, 740.547
121.528, 828.302
122.010, 934.038
122.492, 1074.475
122.974, 1257.496
123.456, 1468.607
123.939, 1706.278
124.421, 1968.327
124.903, 2261.686
125.385, 2586.760
125.867, 2931.180
126.349, 3255.345
126.831, 3572.978
127.313, 3853.192
127.796, 4088.769
128.278, 4286.500
128.760, 4455.062
129.242, 4596.902
129.724, 4715.384
130.206, 4819.829
130.688, 4932.949
131.170, 5010.391
131.652, 5031.588
132.135, 5010.199
132.617, 4970.892
133.099, 4926.150
133.581, 4875.407
134.063, 4816.501
134.545, 4731.375
135.027, 4657.533
135.509, 4604.299
135.992, 4573.255
136.474, 4569.357
136.956, 4598.296
137.438, 4659.282
137.920, 4732.568
138.402, 4801.343
138.884, 4894.832
139.366, 5027.227
139.848, 5198.255
140.331, 5407.396
140.813, 5653.890
141.295, 5943.542
141.777, 6268.391
142.259, 6634.383
142.741, 7030.526
143.223, 7447.328
143.705, 7884.403
144.188, 8342.225
144.670, 8832.815
145.152, 9347.737
145.634, 9859.087
146.116, 10357.970
146.598, 10854.080
147.080, 11360.320
147.562, 11881.370
148.044, 12398.100
148.527, 12892.700
149.009, 13374.020
149.491, 13853.980
149.973, 14347.430
150.455, 14842.310
150.937, 15322.580
151.419, 15794.510
151.901, 16237.220
152.383, 16633.170
152.866, 16993.311
153.348, 17332.500
153.830, 17669.631
154.312, 17986.779
154.794, 18253.430
155.276, 18478.830
155.758, 18624.561
156.240, 18671.199
156.723, 18630.150
157.205, 18511.740
157.687, 18295.420
158.169, 18003.561
158.651, 17695.949
159.133, 17344.420
159.615, 17027.500
160.097, 16764.311
160.579, 16558.289
161.062, 16424.670
161.544, 16382.590
162.026, 16423.061
162.508, 16503.660
162.990, 16635.420
163.472, 16796.660
163.954, 16966.449
164.436, 17150.971
164.919, 17367.930
165.401, 17636.631
165.883, 17951.430
166.365, 18264.359
166.847, 18571.150
167.329, 18879.260
167.811, 19195.029
168.293, 19513.320
168.775, 19824.619
169.258, 20118.340
169.740, 20395.770
170.222, 20675.961
170.704, 20960.689
171.186, 21246.699
171.668, 21536.820
172.150, 21828.420
172.632, 22115.789
173.115, 22388.080
173.597, 22647.010
174.079, 22936.070
174.561, 23290.119
175.043, 23645.891
175.525, 23972.990
176.007, 24282.789
176.489, 24601.039
176.971, 24949.650
177.454, 25328.779
177.936, 25717.029
178.418, 26102.160
178.900, 26508.301
179.382, 26926.529
179.864, 27371.619
180.346, 27873.000
180.828, 28462.230
181.311, 29138.910
181.793, 29822.660
182.275, 30461.000
182.757, 31155.789
183.239, 31939.660
183.721, 32805.641
184.203, 33722.961
184.685, 34670.012
185.167, 35644.051
185.650, 36682.359
186.132, 37837.578
186.614, 39010.609
187.096, 40181.461
187.578, 41353.828
188.060, 42537.141
188.542, 43767.148
189.024, 45036.840
189.507, 46200.941
189.989, 47250.270
190.471, 48184.480
190.953, 48981.270
191.435, 49657.840
191.917, 50254.039
192.399, 50807.988
192.881, 51317.031
193.363, 51694.230
193.846, 51886.531
194.328, 51989.559
194.810, 51982.762
195.292, 51903.289
195.774, 51811.281
196.256, 51748.699
196.738, 51713.770
197.220, 51673.672
197.702, 51617.180
198.185, 51567.469
198.667, 51536.379
199.149, 51515.309
199.631, 51491.980
200.113, 51460.422
200.595, 51418.410
201.077, 51344.922
201.559, 51218.809
202.042, 51077.629
202.524, 50942.141
203.006, 50793.559
203.488, 50602.750
203.970, 50351.160
204.452, 50043.191
204.934, 49710.109
205.416, 49360.039
205.898, 48970.699
206.381, 48541.012
206.863, 48068.449
207.345, 47547.301
207.827, 46970.941
208.309, 46351.340
208.791, 45743.680
209.273, 45189.219
209.755, 44593.512
210.238, 43929.238
210.720, 43225.691
211.202, 42514.531
211.684, 41814.051
212.166, 41125.828
212.648, 40451.762
213.130, 39806.852
213.612, 39164.988
214.094, 38510.012
214.577, 37866.578
215.059, 37252.609
215.541, 36680.730
216.023, 36146.328
216.505, 35630.160
216.987, 35102.340
217.469, 34653.090
217.951, 34325.441
218.434, 34051.602
218.916, 33760.711
219.398, 33429.262
219.880, 33099.539
220.362, 32855.250
220.844, 32729.279
221.326, 32636.100
221.808, 32559.711
222.290, 32513.539
222.773, 32503.840
223.255, 32533.480
223.737, 32609.180
224.219, 32744.410
224.701, 32957.910
225.183, 33193.430
225.665, 33416.461
226.147, 33679.102
226.629, 34016.590
227.112, 34434.020
227.594, 34912.230
228.076, 35429.762
228.558, 35978.629
229.040, 36587.988
229.522, 37285.809
230.004, 38015.641
230.486, 38736.961
230.969, 39453.500
231.451, 40203.301
231.933, 41041.910
232.415, 41986.980
232.897, 42910.211
233.379, 43818.699
233.861, 44691.520
234.343, 45530.539
234.825, 46330.090
235.307, 47076.520
235.790, 47766.031
236.272, 48400.012
236.754, 48960.969
237.236, 49516.289
237.718, 49917.852
238.200, 50106.480
238.682, 50105.672
239.165, 49973.691
239.647, 49750.238
240.129, 49429.871
240.611, 48977.602
241.093, 48352.512
241.575, 47630.039
242.057, 46834.020
242.539, 45968.641
243.021, 45037.559
243.503, 44028.922
243.986, 42969.910
244.468, 41940.230
244.950, 40942.141
245.432, 39975.789
245.914, 39026.570
246.396, 38112.711
246.878, 37246.430
247.361, 36430.551
247.843, 35672.512
248.325, 34985.789
248.807, 34371.160
249.289, 33826.359
249.771, 33361.531
250.253, 32956.789
250.735, 32593.939
251.217, 32270.000
251.699, 31993.500
252.182, 31783.650
252.664, 31648.039
253.146, 31522.551
253.628, 31378.820
254.110, 31249.580
254.592, 31170.119
255.074, 31146.051
255.556, 31122.381
256.039, 31045.199
256.521, 30917.381
257.003, 30797.029
257.485, 30688.789
257.967, 30598.180
258.449, 30531.180
258.931, 30486.500
259.413, 30444.881
259.896, 30383.961
260.378, 30315.000
260.860, 30277.131
261.342, 30273.689
261.824, 30305.930
262.306, 30380.920
262.788, 30491.570
263.270, 30616.711
263.752, 30725.430
264.235, 30851.211
264.717, 31040.789
265.199, 31290.699
265.681, 31635.471
266.163, 32122.020
266.645, 32727.859
267.127, 33402.891
267.609, 34104.051
268.091, 34892.730
268.574, 35824.789
269.056, 36898.078
269.538, 38105.512
270.020, 39425.621
270.502, 40891.871
270.984, 42514.070
271.466, 44282.559
271.948, 46219.109
272.431, 48341.371
272.913, 50648.801
273.395, 53114.930
273.877, 55746.090
274.359, 58530.160
274.841, 61483.691
275.323, 64645.852
275.805, 67862.203
276.288, 71117.078
276.770, 74394.109
277.252, 77654.477
277.734, 80911.039
278.216, 84100.453
278.698, 87146.656
279.180, 90103.031
279.662, 92744.539
280.144, 95185.172
280.626, 97235.992
281.109, 98770.930
281.591, 99753.977
282.073, 100121.797
282.555, 99795.938
283.037, 98693.680
283.519, 97056.062
284.001, 94807.094
284.483, 92154.547
284.966, 89098.289
285.448, 85726.102
285.930, 82154.172
286.412, 78481.070
286.894, 74699.852
287.376, 71122.008
287.858, 67796.047
288.340, 64600.879
288.823, 61463.328
289.305, 58465.500
289.787, 55739.641
290.269, 53357.500
290.751, 51292.961
291.233, 49437.719
291.715, 47784.922
292.197, 46401.980
292.679, 45324.051
293.162, 44484.352
293.644, 43823.609
294.126, 43323.891
294.608, 42987.160
295.090, 42820.641
295.572, 42831.012
296.054, 43002.410
296.536, 43365.922
297.018, 43853.551
297.501, 44449.160
297.983, 45140.840
298.465, 45898.371
298.947, 46686.590
299.429, 47506.648
299.911, 48390.711
300.393, 49360.750
300.875, 50372.988
301.358, 51403.328
301.840, 52455.078
302.322, 53540.461
302.804, 54647.730
303.286, 55799.289
303.768, 57065.988
304.250, 58475.852
304.732, 59949.289
305.215, 61451.719
305.697, 62996.820
306.179, 64597.789
306.661, 66276.188
307.143, 68007.594
307.625, 69790.703
308.107, 71620.000
308.589, 73448.297
309.071, 75365.391
309.553, 77167.703
310.036, 78650.727
310.518, 79854.461
311.000, 80576.758
311.482, 80938.844
311.964, 80744.867
312.446, 79467.453
312.928, 76983.773
313.410, 73396.922
313.893, 68487.227
314.375, 62297.461
314.857, 55974.602
315.339, 49396.090
315.821, 43013.371
316.303, 37211.961
316.785, 32064.750
317.267, 27604.100
317.750, 23879.699
318.232, 20937.980
318.714, 18448.570
319.196, 16523.561
319.678, 14910.650
320.160, 13540.970
320.642, 12394.120
321.124, 11427.530
321.606, 10631.810
322.089, 9982.836
322.571, 9413.955
323.053, 8950.108
323.535, 8535.742
324.017, 8182.504
324.499, 7871.358
324.981, 7586.231
325.463, 7322.563
325.945, 7077.732
326.428, 6851.836
326.910, 6644.479
327.392, 6459.313
327.874, 6306.411
328.356, 6163.315
328.838, 6020.863
329.320, 5878.536
329.802, 5740.359
330.284, 5608.273
330.767, 5482.802
331.249, 5372.406
331.731, 5290.163
332.213, 5206.260
332.695, 5100.420
333.177, 4990.194
333.659, 4901.125
334.142, 4848.884
334.624, 4814.584
335.106, 4764.381
335.588, 4694.537
336.070, 4627.296
336.552, 4570.973
337.034, 4519.369
337.516, 4467.135
337.998, 4413.464
338.480, 4361.898
338.963, 4316.225
339.445, 4275.107
339.927, 4230.499
340.409, 4176.836
340.891, 4127.899
341.373, 4103.256
341.855, 4098.100
342.337, 4085.976
342.819, 4051.438
343.302, 4011.085
343.784, 3983.395
344.266, 3968.837
344.748, 3960.392
345.230, 3957.446
345.712, 3956.224
346.194, 3938.147
346.677, 3880.673
347.159, 3832.568
347.641, 3821.412
348.123, 3830.515
348.605, 3827.852
349.087, 3800.616
349.569, 3761.693
350.051, 3735.934
350.533, 3734.568
351.016, 3727.126
351.498, 3707.036
351.980, 3685.791
352.462, 3674.443
352.944, 3672.222
353.426, 3668.028
353.908, 3650.101
354.390, 3617.458
354.872, 3592.294
355.355, 3586.698
355.837, 3576.734
356.319, 3553.061
356.801, 3521.919
357.283, 3493.785
357.765, 3474.246
358.247, 3459.179
358.729, 3439.132
359.211, 3412.825
359.694, 3385.545
360.176, 3350.798
360.658, 3320.479
361.140, 3308.750
361.622, 3317.158
362.104, 3321.485
362.586, 3296.644
363.069, 3248.470
363.551, 3210.426
364.033, 3190.790
364.515, 3173.467
364.997, 3141.584
365.479, 3100.299
365.961, 3067.237
366.443, 3057.474
366.925, 3051.526
367.408, 3026.466
367.890, 2984.075
368.372, 2944.078
368.854, 2916.046
369.336, 2898.886
369.818, 2889.488
370.300, 2894.861
370.782, 2895.558
371.264, 2882.519
371.747, 2863.083
372.229, 2847.562
372.711, 2838.565
373.193, 2830.973
373.675, 2817.621
374.157, 2795.241
374.639, 2779.701
375.121, 2780.652
375.603, 2778.407
376.086, 2758.254
376.568, 2726.483
377.050, 2700.672
377.532, 2693.526
378.014, 2699.807
378.496, 2695.921
378.978, 2673.894
379.460, 2654.680
379.943, 2643.403
380.425, 2635.630
380.907, 2629.602
381.389, 2624.528
381.871, 2614.810
382.353, 2588.301
382.835, 2545.119
383.317, 2519.925
383.799, 2526.746
384.282, 2539.126
384.764, 2538.125
385.246, 2526.788
385.728, 2515.580
386.210, 2511.333
386.692, 2508.122
387.174, 2497.441
387.656, 2479.286
388.138, 2459.257
388.621, 2438.831
389.103, 2419.305
389.585, 2403.534
390.067, 2391.062
390.549, 2382.645
391.031, 2383.874
391.513, 2387.440
391.996, 2381.307
392.478, 2362.741
392.960, 2340.366
393.442, 2324.524
393.924, 2317.048
394.406, 2307.372
394.888, 2292.188
395.370, 2278.386
395.852, 2270.115
396.335, 2265.641
396.817, 2260.510
397.299, 2251.877
397.781, 2241.818
398.263, 2237.811
398.745, 2245.840
399.227, 2247.810
399.709, 2237.854
400.191, 2223.753
400.674, 2210.625
401.156, 2199.490
401.638, 2189.174
402.120, 2178.435
402.602, 2167.481
403.084, 2157.188
403.566, 2145.650
404.048, 2138.832
404.530, 2147.033
405.013, 2162.250
405.495, 2167.821
405.977, 2153.462
406.459, 2134.835
406.941, 2124.636
407.423, 2121.870
407.905, 2122.826
408.387, 2127.288
408.870, 2132.549
409.352, 2132.713
409.834, 2124.521
410.316, 2122.547
410.798, 2137.792
411.280, 2153.746
411.762, 2152.747
412.244, 2136.427
412.727, 2121.677
413.209, 2122.032
413.691, 2136.346
414.173, 2149.690
414.655, 2166.054
415.137, 2176.335
415.619, 2174.898
416.101, 2168.771
416.583, 2165.053
417.065, 2166.045
417.548, 2170.249
418.030, 2176.908
418.512, 2186.617
418.994, 2192.833
419.476, 2191.795
419.958, 2191.003
420.440, 2194.948
420.922, 2202.541
421.405, 2210.600
421.887, 2218.171
422.369, 2225.220
422.851, 2233.765
423.333, 2243.502
423.815, 2244.277
424.297, 2224.739
424.779, 2200.776
425.262, 2206.840
425.744, 2254.483
426.226, 2288.619
426.708, 2285.725
427.190, 2267.283
427.672, 2252.970
428.154, 2246.589
428.636, 2249.193
429.118, 2263.745
429.601, 2289.711
430.083, 2302.760
430.565, 2291.500
431.047, 2280.873
431.529, 2274.644
432.011, 2272.073
432.493, 2272.750
432.975, 2276.354
433.457, 2280.611
433.940, 2281.068
434.422, 2276.359
434.904, 2278.388
435.386, 2296.346
435.868, 2311.477
436.350, 2312.844
436.832, 2303.677
437.314, 2292.693
437.797, 2280.070
438.279, 2270.829
438.761, 2274.368
439.243, 2290.039
439.725, 2303.494
440.207, 2308.214
440.689, 2309.114
441.171, 2316.031
441.654, 2331.402
442.136, 2341.353
442.618, 2339.596
443.100, 2333.142
443.582, 2326.060
444.064, 2320.032
444.546, 2319.080
445.028, 2326.605
445.510, 2341.736
445.992, 2357.730
446.475, 2382.866
446.957, 2398.095
447.439, 2394.540
447.921, 2383.970
448.403, 2376.996
448.885, 2376.247
449.367, 2378.755
449.849, 2382.939
450.332, 2388.717
450.814, 2389.626
451.296, 2382.696
451.778, 2375.614
452.260, 2370.801
452.742, 2368.922
453.224, 2371.611
453.706, 2380.535
454.189, 2392.113
454.671, 2404.329
455.153, 2416.875
455.635, 2429.329
456.117, 2442.181
456.599, 2452.528
457.081, 2455.692
457.563, 2449.449
458.045, 2447.040
458.528, 2453.445
459.010, 2459.309
459.492, 2456.495
459.974, 2448.867
460.456, 2446.338
460.938, 2454.333
461.420, 2468.856
461.902, 2480.109
462.384, 2486.832
462.867, 2493.102
463.349, 2500.844
463.831, 2506.901
464.313, 2509.920
464.795, 2509.600
465.277, 2505.268
465.759, 2491.161
466.241, 2475.112
466.724, 2478.771
467.206, 2505.103
467.688, 2527.214
468.170, 2531.473
468.652, 2526.267
469.134, 2526.541
469.616, 2533.163
470.098, 2541.831
470.581, 2554.962
471.063, 2567.310
471.545, 2571.902
472.027, 2568.552
472.509, 2562.652
472.991, 2558.096
473.473, 2554.742
473.955, 2551.754
474.437, 2550.899
474.919, 2548.127
475.402, 2536.372
475.884, 2526.335
476.366, 2532.330
476.848, 2555.080
477.330, 2577.238
477.812, 2580.298
478.294, 2565.448
478.776, 2547.310
479.259, 2518.984
479.741, 2501.874
480.223, 2520.052
480.705, 2552.973
481.187, 2570.990
481.669, 2565.253
482.151, 2552.846
482.633, 2538.551
483.116, 2526.493
483.598, 2527.805
484.080, 2545.280
484.562, 2565.471
485.044, 2574.952
485.526, 2573.073
486.008, 2573.415
486.490, 2578.684
486.972, 2582.709
487.455, 2580.778
487.937, 2577.528
488.419, 2580.646
488.901, 2592.264
489.383, 2605.040
489.865, 2608.350
490.347, 2601.115
490.829, 2595.378
491.311, 2593.855
491.794, 2590.375
492.276, 2578.259
492.758, 2562.718
493.240, 2554.012
493.722, 2556.755
494.204, 2563.903
494.686, 2571.316
495.168, 2578.269
495.651, 2581.594
496.133, 2580.051
496.615, 2577.561
497.097, 2579.016
497.579, 2585.329
498.061, 2587.560
498.543, 2582.016
499.025, 2576.643
499.508, 2576.194
499.990, 2577.682
500.472, 2575.274
500.954, 2566.872
501.436, 2557.270
501.918, 2553.768
502.400, 2557.162
502.882, 2562.176
503.364, 2572.631
503.846, 2579.579
504.329, 2576.487
504.811, 2567.266
505.293, 2560.333
505.775, 2559.570
506.257, 2559.911
506.739, 2556.466
507.221, 2550.182
507.703, 2544.277
508.186, 2539.634
508.668, 2535.494
509.150, 2531.102
509.632, 2526.415
510.114, 2521.650
510.596, 2516.071
511.078, 2511.221
511.560, 2506.113
512.042, 2502.592
512.525, 2505.670
513.007, 2516.746
513.489, 2527.193
513.971, 2523.139
514.453, 2502.735
514.935, 2485.198
515.417, 2474.359
515.899, 2462.075
516.382, 2439.068
516.864, 2412.715
517.346, 2397.184
517.828, 2399.785
518.310, 2407.497
518.792, 2414.449
519.274, 2418.435
519.756, 2410.792
520.239, 2388.768
520.721, 2367.049
521.203, 2362.641
521.685, 2377.136
522.167, 2376.529
522.649, 2351.611
523.131, 2324.769
523.613, 2295.778
524.096, 2271.191
524.578, 2260.574
525.060, 2265.722
525.542, 2275.634
526.024, 2279.209
526.506, 2276.531
526.988, 2268.022
527.470, 2250.615
527.952, 2233.723
528.435, 2222.016
528.917, 2214.120
529.399, 2209.282
529.881, 2210.367
530.363, 2206.901
530.845, 2187.127
531.327, 2162.083
531.809, 2150.708
532.291, 2154.488
532.774, 2158.288
533.256, 2149.855
533.738, 2130.501
534.220, 2110.818
534.702, 2083.817
535.184, 2066.473
535.666, 2066.836
536.148, 2073.047
536.630, 2075.668
537.113, 2073.517
537.595, 2070.596
538.077, 2070.628
538.559, 2072.039
539.041, 2070.294
539.523, 2065.139
540.005, 2058.559
540.487, 2050.089
540.969, 2041.670
541.452, 2037.755
541.934, 2040.376
542.416, 2038.260
542.898, 2025.955
543.380, 2010.640
543.862, 1997.920
544.344, 1987.413
544.826, 1975.700
545.309, 1960.694
545.791, 1945.026
546.273, 1935.466
546.755, 1934.067
547.237, 1932.540
547.719, 1930.060
548.201, 1927.444
548.683, 1925.070
549.166, 1922.923
549.648, 1920.960
550.130, 1919.850
550.612, 1918.009
551.094, 1914.282
551.576, 1908.535
552.058, 1899.416
552.540, 1886.167
553.023, 1872.444
553.505, 1862.045
553.987, 1855.020
554.469, 1851.305
554.951, 1855.407
555.433, 1857.029
555.915, 1851.167
556.397, 1842.023
556.879, 1835.056
557.362, 1831.642
557.844, 1828.839
558.326, 1823.970
558.808, 1817.052
559.290, 1808.292
559.772, 1797.367
560.254, 1785.487
560.736, 1771.341
561.218, 1757.549
561.701, 1749.471
562.183, 1749.469
562.665, 1748.674
563.147, 1745.868
563.629, 1739.933
564.111, 1727.323
564.593, 1709.797
565.075, 1694.853
565.557, 1687.415
566.040, 1685.348
566.522, 1682.924
567.004, 1681.427
567.486, 1676.158
567.968, 1660.184
568.450, 1645.829
568.932, 1641.009
569.414, 1643.904
569.896, 1647.414
570.379, 1650.020
570.861, 1650.557
571.343, 1648.100
571.825, 1642.630
572.307, 1632.627
572.789, 1617.163
573.271, 1602.254
573.753, 1594.391
574.236, 1594.007
574.718, 1596.130
575.200, 1606.445
575.682, 1612.298
576.164, 1607.374
576.646, 1598.294
577.128, 1592.466
577.610, 1591.449
578.093, 1591.672
578.575, 1589.683
579.057, 1586.356
579.539, 1585.710
580.021, 1588.446
580.503, 1588.370
580.985, 1582.595
581.467, 1572.284
581.950, 1558.245
582.432, 1537.333
582.914, 1523.588
583.396, 1522.562
583.878, 1525.987
584.360, 1531.646
584.842, 1536.771
585.324, 1535.396
585.806, 1524.249
586.289, 1509.882
586.771, 1504.268
587.253, 1508.394
587.735, 1511.428
588.217, 1513.754
588.699, 1512.768
589.181, 1506.049
589.663, 1494.879
590.145, 1481.138
590.628, 1462.468
591.110, 1445.909
591.592, 1436.316
592.074, 1430.043
592.556, 1421.537
593.038, 1410.482
593.520, 1401.170
594.002, 1397.128
594.484, 1397.180
594.967, 1395.861
595.449, 1392.885
595.931, 1389.147
596.413, 1388.517
596.895, 1384.063
597.377, 1368.328
597.859, 1343.673
598.341, 1321.881
598.823, 1308.889
599.306, 1299.718
599.788, 1289.544
600.270, 1279.333
600.752, 1272.697
601.234, 1270.761
601.716, 1269.355
602.198, 1263.953
602.680, 1254.480
603.162, 1242.855
603.645, 1227.648
604.127, 1211.995
604.609, 1192.530
605.091, 1175.314
605.573, 1169.041
606.055, 1173.759
606.537, 1175.930
607.019, 1163.882
607.502, 1144.317
607.984, 1127.515
608.466, 1113.730
608.948, 1104.827
609.430, 1102.283
609.912, 1102.802
610.394, 1101.950
610.876, 1101.329
611.359, 1092.781
611.841, 1067.866
612.323, 1045.135
612.805, 1031.332
613.287, 1024.162
613.769, 1020.969
614.251, 1020.829
614.733, 1020.853
615.216, 1020.230
615.698, 1017.480
616.180, 1005.152
616.662, 982.046
617.144, 962.696
617.626, 955.767
618.108, 956.300
618.590, 953.315
619.072, 945.230
619.555, 937.385
620.037, 930.461
620.519, 923.335
621.001, 915.680
621.483, 907.288
621.965, 897.475
622.447, 885.932
622.929, 874.167
623.411, 864.144
623.894, 855.664
624.376, 847.628
624.858, 840.130
625.340, 831.651
625.822, 819.300
626.304, 805.972
626.786, 801.558
627.268, 813.265
627.750, 818.345
628.233, 812.468
628.715, 800.097
629.197, 779.220
629.679, 754.853
630.161, 738.229
630.643, 735.689
631.125, 739.758
631.607, 739.800
632.089, 735.932
632.572, 730.362
633.054, 723.552
633.536, 714.420
634.018, 701.963
634.500, 686.568
634.982, 669.613
635.464, 647.510
635.946, 629.935
636.429, 619.714
636.911, 613.946
637.393, 611.652
637.875, 611.680
638.357, 612.521
638.839, 613.817
639.321, 613.248
639.803, 604.418
640.286, 587.556
640.768, 577.744
641.250, 579.491
641.732, 582.234
642.214, 579.151
642.696, 570.606
643.178, 559.216
643.660, 541.261
644.143, 526.225
644.625, 516.288
645.107, 509.716
645.589, 506.031
646.071, 504.426
646.553, 503.647
647.035, 503.349
647.517, 502.068
647.999, 496.356
648.482, 486.370
648.964, 477.713
649.446, 471.121
649.928, 466.208
650.410, 463.292
650.892, 461.917
651.374, 459.762
651.856, 455.544
652.338, 452.443
652.821, 453.344
653.303, 453.720
653.785, 447.974
654.267, 438.203
654.749, 431.942
655.231, 434.104
655.713, 439.161
656.195, 437.256
656.677, 429.314
657.160, 425.684
657.642, 428.937
658.124, 432.142
658.606, 430.096
659.088, 423.860
659.570, 418.518
660.052, 413.571
660.534, 410.077
661.016, 408.624
661.499, 408.256
661.981, 408.895
662.463, 410.019
662.945, 410.655
663.427, 410.360
663.909, 409.290
664.391, 407.829
664.873, 405.819
665.356, 401.822
665.838, 395.348
666.320, 390.059
666.802, 388.559
667.284, 389.992
667.766, 391.495
668.248, 395.017
668.730, 395.422
669.213, 389.971
669.695, 384.107
670.177, 380.650
670.659, 379.138
671.141, 378.547
671.623, 378.898
672.105, 377.898
672.587, 372.339
673.070, 363.960
673.552, 356.231
674.034, 349.606
674.516, 346.335
674.998, 348.470
675.480, 352.966
675.962, 352.185
676.444, 343.072
676.926, 335.966
677.409, 332.322
677.891, 329.158
678.373, 325.638
678.855, 321.795
679.337, 317.777
679.819, 313.644
680.301, 309.218
680.783, 304.520
681.265, 299.435
681.748, 293.568
682.230, 287.125
682.712, 281.114
683.194, 276.018
683.676, 270.884
684.158, 263.638
684.640, 253.613
685.122, 246.281
685.604, 242.192
686.087, 239.841
686.569, 240.456
687.051, 241.511
687.533, 240.049
688.015, 235.699
688.497, 230.593
688.979, 223.507
689.461, 217.719
689.943, 217.968
690.426, 220.995
690.908, 219.149
691.390, 210.432
691.872, 201.328
692.354, 200.305
692.836, 205.617
693.318, 203.337
693.800, 191.218
694.283, 182.290
694.765, 181.958
695.247, 185.194
695.729, 186.089
696.211, 184.628
696.693, 183.756
697.175, 184.874
697.657, 185.142
698.140, 181.942
698.622, 178.314
699.104, 178.868
699.586, 183.186
700.068, 185.563
700.550, 180.998
701.032, 173.223
701.514, 169.389
701.997, 168.885
702.479, 167.033
702.961, 162.640
703.443, 157.643
703.925, 153.654
704.407, 150.529
704.889, 147.153
705.371, 140.406
705.853, 138.216
706.336, 145.541
706.818, 153.280
707.300, 155.436
707.782, 153.323
708.264, 151.223
708.746, 150.681
709.228, 150.443
709.710, 149.613
710.192, 148.414
710.675, 147.395
711.157, 146.474
711.639, 144.631
712.121, 141.125
712.603, 137.294
713.085, 136.061
713.567, 137.859
714.049, 140.093
714.531, 143.952
715.014, 146.022
715.496, 141.971
715.978, 136.253
716.460, 136.764
716.942, 146.011
717.424, 150.859
717.906, 144.195
718.388, 136.001
718.870, 132.326
719.353, 132.050
719.835, 133.355
720.317, 135.391
720.799, 136.242
721.281, 132.768
721.763, 126.856
722.245, 125.266
722.727, 127.990
723.210, 128.848
723.692, 124.983
724.174, 121.651
724.656, 125.874
725.138, 137.868
725.620, 143.739
726.102, 138.251
726.584, 133.298
727.067, 130.270
727.549, 128.378
728.031, 127.070
728.513, 126.289
728.995, 126.184
729.477, 127.278
729.959, 128.285
730.441, 129.035
730.924, 128.662
731.406, 124.132
731.888, 116.121
732.370, 110.610
732.852, 111.599
733.334, 116.667
733.816, 120.590
734.298, 123.391
734.780, 124.862
735.263, 124.646
735.745, 123.784
736.227, 122.296
736.709, 120.761
737.191, 120.533
737.673, 122.130
738.155, 123.134
738.637, 122.629
739.119, 122.046
739.602, 122.461
740.084, 123.188
740.566, 123.533
741.048, 123.182
741.530, 121.248
742.012, 114.144
742.494, 106.368
742.976, 107.883
743.458, 116.924
743.941, 124.215
744.423, 127.179
744.905, 125.495
745.387, 117.749
745.869, 104.985
746.351, 98.255
746.833, 99.853
747.315, 102.577
747.797, 107.282
748.280, 110.840
748.762, 110.061
749.244, 106.429
749.726, 104.828
750.208, 108.471
750.690, 109.823
751.172, 102.982
751.654, 94.807
752.137, 91.382
752.619, 92.380
753.101, 95.648
753.583, 100.307
754.065, 104.700
754.547, 106.712
755.029, 106.727
755.511, 105.969
755.994, 104.487
756.476, 102.896
756.958, 101.171
757.440, 100.441
757.922, 102.902
758.404, 109.312
758.886, 111.872
759.368, 107.030
759.851, 103.463
760.333, 104.006
760.815, 105.716
761.297, 106.469
761.779, 106.116
762.261, 104.894
762.743, 101.941
763.225, 99.263
763.707, 97.495
764.190, 96.919
764.672, 98.730
765.154, 102.266
765.636, 104.994
766.118, 105.537
766.600, 104.127
767.082, 99.779
767.564, 93.362
768.046, 90.902
768.529, 93.211
769.011, 96.105
769.493, 97.545
769.975, 98.167
770.457, 99.231
770.939, 101.089
771.421, 101.841
771.903, 101.038
772.385, 99.684
772.868, 97.058
773.350, 94.667
773.832, 94.236
774.314, 95.738
774.796, 97.294
775.278, 98.044
775.760, 98.925
776.242, 102.047
776.724, 104.787
777.207, 102.854
777.689, 96.633
778.171, 90.110
778.653, 85.518
779.135, 83.028
779.617, 83.772
780.099, 87.130
780.581, 89.633
781.064, 90.902
781.546, 91.331
782.028, 90.898
782.510, 90.331
782.992, 91.170
783.474, 93.851
783.956, 96.097
784.438, 99.698
784.920, 100.217
785.403, 92.150
785.885, 83.190
786.367, 82.452
786.849, 89.743
787.331, 93.826
787.813, 88.539
788.295, 83.277
788.778, 82.804
789.260, 84.621
789.742, 86.540
790.224, 87.926
790.706, 88.364
791.188, 87.620
791.670, 85.867
792.152, 82.049
792.634, 77.524
793.117, 76.974
793.599, 80.528
794.081, 84.609
794.563, 87.651
795.045, 88.837
795.527, 86.119
796.009, 78.909
796.491, 75.073
796.973, 75.624
797.456, 77.263
797.938, 80.068
798.420, 82.488
798.902, 81.907
799.384, 78.733
799.866, 78.023
800.348, 83.264
800.830, 86.804
801.312, 84.870
801.795, 82.126
802.277, 83.437
802.759, 87.186
803.241, 87.553
803.723, 81.363
804.205, 75.972
804.687, 79.784
805.169, 86.545
805.652, 86.053
806.134, 79.911
806.616, 75.764
807.098, 76.500
807.580, 79.808
808.062, 83.491
808.544, 87.295
809.026, 90.334
809.508, 92.763
809.991, 91.837
810.473, 85.841
810.955, 79.498
811.437, 77.012
811.919, 77.837
812.401, 78.880
812.883, 80.664
813.365, 81.729
813.847, 81.097
814.330, 80.715
814.812, 82.447
815.294, 84.663
815.776, 84.072
816.258, 79.561
816.740, 76.838
817.222, 79.690
817.705, 83.031
818.187, 82.585
818.669, 80.880
819.151, 83.182
819.633, 89.317
820.115, 92.179
820.597, 85.169
821.079, 75.047
821.561, 71.393
822.044, 72.418
822.526, 73.466
823.008, 73.800
823.490, 73.689
823.972, 73.235
824.454, 72.762
824.936, 73.045
825.418, 74.168
825.901, 74.498
826.383, 73.557
826.865, 73.697
827.347, 76.509
827.829, 79.754
828.311, 80.337
828.793, 78.115
829.275, 77.500
829.757, 81.652
830.240, 83.024
830.722, 77.531
831.204, 71.833
831.686, 71.105
832.168, 73.771
832.650, 75.023
833.132, 73.137
833.614, 71.761
834.096, 73.457
834.579, 75.422
835.061, 75.140
835.543, 73.406
836.025, 71.727
836.507, 70.595
836.989, 70.142
837.471, 71.519
837.953, 72.728
838.435, 68.965
838.918, 62.302
839.400, 60.043
839.882, 63.215
840.364, 67.011
840.846, 68.254
841.328, 67.474
841.810, 65.216
842.292, 61.318
842.774, 59.742
843.257, 61.182
843.739, 62.594
844.221, 62.375
844.703, 62.045
845.185, 64.065
845.667, 68.714
846.149, 71.340
846.631, 70.890
847.114, 69.985
847.596, 67.632
848.078, 66.231
848.560, 68.926
849.042, 73.830
849.524, 75.117
850.006, 69.799
850.488, 66.008
850.971, 68.696
851.453, 71.220
851.935, 66.953
852.417, 60.276
852.899, 59.680
853.381, 66.330
853.863, 71.582
854.345, 67.747
854.828, 61.590
855.310, 60.502
855.792, 62.406
856.274, 63.746
856.756, 63.883
857.238, 62.983
857.720, 60.973
858.202, 59.373
858.684, 61.226
859.167, 65.755
859.649, 69.275
860.131, 71.602
860.613, 70.917
861.095, 66.093
861.577, 60.739
862.059, 59.218
862.541, 61.020
863.023, 61.033
863.506, 58.524
863.988, 56.646
864.470, 55.728
864.952, 55.846
865.434, 57.894
865.916, 60.709
866.398, 61.146
866.880, 58.357
867.362, 55.375
867.845, 50.218
868.327, 47.294
868.809, 50.380
869.291, 54.795
869.773, 55.380
870.255, 52.323
870.737, 49.897
871.219, 49.101
871.701, 49.495
872.184, 51.783
872.666, 54.433
873.148, 56.453
873.630, 57.601
874.112, 57.549
874.594, 56.183
875.076, 54.464
875.558, 52.126
876.041, 50.605
876.523, 53.159
877.005, 57.582
877.487, 58.685
877.969, 55.761
878.451, 51.653
878.933, 48.090
879.415, 45.547
879.898, 45.088
880.380, 46.415
880.862, 48.790
881.344, 52.009
881.826, 52.943
882.308, 49.961
882.790, 46.908
883.272, 49.464
883.755, 56.611
884.237, 57.266
884.719, 49.617
885.201, 45.816
885.683, 49.160
886.165, 54.191
886.647, 57.614
887.129, 59.483
887.611, 59.745
888.094, 57.334
888.576, 56.569
889.058, 59.621
889.540, 61.274
890.022, 58.385
890.504, 54.387
890.986, 52.399
891.468, 52.333
891.950, 52.837
892.433, 53.884
892.915, 55.338
893.397, 59.155
893.879, 61.414
894.361, 57.500
894.843, 51.012
895.325, 48.370
895.807, 51.024
896.289, 54.830
896.772, 60.911
897.254, 64.281
897.736, 58.752
898.218, 50.416
898.700, 47.369
899.182, 49.405
899.664, 51.294
900.146, 50.612
900.628, 48.801
901.111, 45.834
901.593, 43.453
902.075, 45.212
902.557, 49.660
903.039, 52.427
903.521, 52.333
904.003, 51.295
904.485, 50.675
904.968, 50.607
905.450, 51.831
905.932, 53.878
906.414, 54.946
906.896, 54.807
907.378, 53.438
907.860, 50.761
908.342, 47.602
908.825, 45.033
909.307, 43.059
909.789, 41.381
910.271, 39.888
910.753, 40.991
911.235, 45.803
911.717, 50.298
912.199, 51.312
912.682, 50.018
913.164, 49.915
913.646, 51.735
914.128, 51.612
914.610, 49.281
915.092, 45.310
915.574, 37.787
916.056, 31.592
916.538, 32.852
917.021, 40.894
917.503, 46.891
917.985, 51.792
918.467, 52.987
918.949, 46.051
919.431, 40.173
919.913, 40.809
920.395, 44.486
920.877, 45.609
921.360, 43.535
921.842, 44.027
922.324, 50.142
922.806, 55.702
923.288, 61.349
923.770, 63.783
924.252, 57.027
924.734, 45.579
925.216, 41.076
925.699, 47.537
926.181, 53.311
926.663, 54.216
927.145, 53.182
927.627, 50.283
928.109, 47.526
928.591, 48.194
929.073, 51.528
929.555, 52.563
930.038, 47.853
930.520, 43.878
931.002, 45.661
931.484, 49.808
931.966, 54.045
932.448, 57.422
932.930, 58.988
933.412, 58.398
933.895, 55.000
934.377, 45.658
934.859, 37.405
935.341, 40.571
935.823, 49.181
936.305, 53.601
936.787, 53.440
937.269, 51.500
937.752, 48.985
938.234, 46.532
938.716, 44.477
939.198, 43.143
939.680, 43.652
940.162, 45.436
940.644, 46.714
941.126, 47.214
941.609, 47.651
942.091, 48.494
942.573, 48.691
943.055, 46.016
943.537, 41.306
944.019, 38.174
944.501, 36.604
944.983, 35.985
945.465, 36.167
945.948, 38.373
946.430, 44.041
946.912, 50.692
947.394, 52.351
947.876, 49.167
948.358, 44.847
948.840, 39.265
949.322, 37.965
949.804, 43.656
950.287, 49.744
950.769, 49.349
951.251, 43.983
951.733, 40.380
952.215, 38.907
952.697, 35.661
953.179, 28.873
953.661, 26.935
954.143, 35.287
954.626, 46.249
955.108, 49.536
955.590, 45.649
956.072, 43.325
956.554, 43.408
957.036, 42.084
957.518, 37.712
958.000, 34.509
958.482, 35.195
958.965, 38.061
959.447, 40.347
959.929, 42.074
960.411, 42.987
960.893, 43.038
961.375, 42.236
961.857, 39.068
962.339, 37.212
962.822, 40.677
963.304, 46.522
963.786, 47.334
964.268, 40.888
964.750, 38.078
965.232, 42.418
965.714, 45.315
966.196, 43.975
966.679, 41.404
967.161, 39.579
967.643, 38.356
968.125, 37.148
968.607, 34.868
969.089, 35.356
969.571, 42.430
970.053, 47.647
970.536, 47.430
971.018, 44.961
971.500, 42.733
971.982, 40.826
972.464, 38.967
972.946, 36.544
973.428, 35.408
973.910, 37.134
974.392, 38.608
974.875, 37.368
975.357, 35.962
975.839, 37.915
976.321, 42.768
976.803, 46.049
977.285, 46.694
977.767, 46.208
978.249, 44.226
978.731, 41.942
979.214, 40.389
979.696, 38.703
980.178, 34.538
980.660, 28.323
981.142, 26.091
981.624, 33.251
982.106, 39.002
982.588, 39.273
983.070, 38.055
983.553, 37.584
984.035, 37.562
984.517, 37.174
984.999, 36.345
985.481, 35.869
985.963, 36.649
986.445, 36.944
986.927, 35.192
987.409, 33.591
987.892, 34.904
988.374, 37.135
988.856, 35.879
989.338, 30.480
989.820, 27.339
990.302, 30.954
990.784, 34.585
991.266, 35.656
991.749, 35.151
992.231, 32.573
992.713, 29.557
993.195, 28.984
993.677, 31.483
994.159, 35.293
994.641, 42.846
995.123, 47.597
995.606, 43.097
996.088, 36.943
996.570, 36.862
997.052, 40.700
997.534, 42.723
998.016, 41.527
998.498, 38.882
998.980, 33.557
999.463, 29.409
999.945, 28.954
1000.427, 30.347
1000.909, 31.570
1001.391, 33.139
1001.873, 37.571
1002.355, 45.853
1002.837, 51.341
1003.319, 49.493
1003.802, 45.868
1004.284, 42.489
1004.766, 39.775
1005.248, 38.213
1005.730, 37.537
1006.212, 37.061
1006.694, 36.585
1007.176, 36.512
1007.658, 38.251
1008.141, 38.973
1008.623, 35.786
1009.105, 31.811
1009.587, 30.126
1010.069, 30.426
1010.551, 31.235
1011.033, 32.230
1011.515, 33.105
1011.997, 33.871
1012.480, 34.307
1012.962, 33.246
1013.444, 32.640
1013.926, 35.987
1014.408, 41.180
1014.890, 41.407
1015.372, 33.840
1015.854, 31.167
1016.337, 46.348
1016.819, 57.911
1017.301, 51.032
1017.783, 38.630
1018.265, 31.119
1018.747, 29.038
1019.229, 31.400
1019.711, 38.849
1020.193, 43.701
1020.676, 42.588
1021.158, 39.218
1021.640, 32.668
1022.122, 26.861
1022.604, 25.808
1023.086, 28.131
1023.568, 30.556
1024.050, 32.852
1024.533, 32.271
1025.015, 24.192
1025.497, 18.080
1025.979, 18.023
1026.461, 21.036
1026.943, 27.168
1027.425, 33.733
1027.907, 34.653
1028.390, 28.055
1028.872, 23.520
1029.354, 23.565
1029.836, 25.119
1030.318, 28.397
1030.800, 31.714
1031.282, 34.831
1031.764, 36.778
1032.246, 34.963
1032.729, 28.359
1033.211, 24.370
1033.693, 26.584
1034.175, 27.745
1034.657, 23.971
1035.139, 20.942
1035.621, 23.485
1036.103, 28.851
1036.585, 31.856
1037.068, 32.014
1037.550, 32.418
1038.032, 33.842
1038.514, 34.558
1038.996, 34.637
1039.478, 33.596
1039.960, 29.430
1040.442, 24.967
1040.925, 25.421
1041.407, 31.258
1041.889, 33.767
1042.371, 28.809
1042.853, 28.637
1043.335, 39.448
1043.817, 47.303
1044.299, 43.435
1044.781, 34.676
1045.264, 30.097
1045.746, 29.611
1046.228, 30.647
1046.710, 33.908
1047.192, 36.916
1047.674, 40.127
1048.156, 41.257
1048.638, 38.207
1049.120, 34.676
1049.603, 35.696
1050.085, 40.236
1050.567, 40.831
1051.049, 36.662
1051.531, 32.258
1052.013, 27.490
1052.495, 24.368
1052.977, 23.756
1053.460, 24.721
1053.942, 26.310
1054.424, 28.692
1054.906, 33.582
1055.388, 41.291
1055.870, 42.598
1056.352, 36.592
1056.834, 30.896
1057.317, 27.874
1057.799, 26.634
1058.281, 26.563
1058.763, 27.288
1059.245, 27.470
1059.727, 27.460
1060.209, 31.306
1060.691, 38.559
1061.173, 42.549
1061.656, 41.631
1062.138, 37.383
1062.620, 30.453
1063.102, 24.012
1063.584, 24.920
1064.066, 30.005
1064.548, 28.446
1065.030, 22.315
1065.512, 20.826
1065.995, 24.899
1066.477, 28.453
1066.959, 28.242
1067.441, 26.971
1067.923, 27.880
1068.405, 29.645
1068.887, 29.639
1069.369, 28.996
1069.852, 30.777
1070.334, 34.348
1070.816, 36.155
1071.298, 34.847
1071.780, 32.099
1072.262, 26.896
1072.744, 23.375
1073.226, 28.476
1073.708, 35.551
1074.191, 35.440
1074.673, 30.259
1075.155, 26.539
1075.637, 25.945
1076.119, 26.167
1076.601, 25.731
1077.083, 26.199
1077.565, 29.463
1078.047, 33.015
1078.530, 35.363
1079.012, 36.275
1079.494, 34.564
1079.976, 30.837
1080.458, 29.915
1080.940, 36.174
1081.422, 39.421
1081.904, 33.250
1082.386, 27.726
1082.869, 28.946
1083.351, 32.559
1083.833, 34.545
1084.315, 34.663
1084.797, 32.799
1085.279, 26.824
1085.761, 24.253
1086.243, 29.220
1086.726, 31.884
1087.208, 27.679
1087.690, 23.259
1088.172, 24.080
1088.654, 27.684
1089.136, 27.969
1089.618, 24.073
1090.100, 24.315
1090.583, 30.594
1091.065, 35.133
1091.547, 36.847
1092.029, 35.554
1092.511, 30.264
1092.993, 24.153
1093.475, 21.931
1093.957, 23.129
1094.439, 24.617
1094.922, 26.416
1095.404, 27.326
1095.886, 27.219
1096.368, 25.671
1096.850, 22.386
1097.332, 20.321
1097.814, 22.469
1098.296, 27.562
1098.778, 34.501
1099.261, 41.700
1099.743, 42.945
1100.225, 38.876
1100.707, 32.972
1101.189, 26.521
1101.671, 20.780
1102.153, 16.345
1102.635, 14.215
1103.118, 17.964
1103.600, 22.826
1104.082, 20.094
1104.564, 14.288
1105.046, 14.392
1105.528, 20.035
1106.010, 25.673
1106.492, 29.316
1106.974, 30.524
1107.457, 26.647
1107.939, 23.042
1108.421, 24.473
1108.903, 26.811
1109.385, 24.729
1109.867, 21.044
1110.349, 22.771
1110.831, 30.592
1111.313, 34.628
1111.796, 27.211
1112.278, 23.393
1112.760, 30.396
1113.242, 37.031
1113.724, 37.046
1114.206, 34.281
1114.688, 32.903
1115.170, 32.698
1115.653, 32.448
1116.135, 32.582
1116.617, 31.237
1117.099, 26.715
1117.581, 24.901
1118.063, 28.569
1118.545, 32.102
1119.027, 30.961
1119.510, 28.249
1119.992, 30.804
1120.474, 38.197
1120.956, 39.403
1121.438, 34.162
1121.920, 30.758
1122.402, 30.388
1122.884, 29.300
1123.366, 25.712
1123.849, 23.331
1124.331, 26.943
1124.813, 33.169
1125.295, 34.432
1125.777, 32.213
1126.259, 30.023
1126.741, 28.284
1127.223, 27.274
1127.705, 26.991
1128.188, 27.148
1128.670, 27.760
1129.152, 27.824
1129.634, 24.923
1130.116, 22.471
1130.598, 25.301
1131.080, 29.938
1131.562, 31.889
1132.045, 30.986
1132.527, 28.087
1133.009, 23.229
1133.491, 19.968
1133.973, 20.331
1134.455, 21.588
1134.937, 22.131
1135.419, 23.920
1135.901, 31.189
1136.384, 38.810
1136.866, 38.224
1137.348, 29.866
1137.830, 24.269
1138.312, 22.520
1138.794, 21.141
1139.276, 19.372
1139.758, 19.950
1140.240, 25.138
1140.723, 29.524
1141.205, 28.627
1141.687, 24.338
1142.169, 20.198
1142.651, 16.332
1143.133, 16.029
1143.615, 19.215
1144.097, 23.262
1144.580, 27.668
1145.062, 31.171
1145.544, 33.185
1146.026, 33.130
1146.508, 29.483
1146.990, 25.148
1147.472, 25.992
1147.954, 29.462
1148.437, 31.212
1148.919, 30.952
1149.401, 27.887
1149.883, 22.886
1150.365, 20.323
1150.847, 22.550
1151.329, 26.269
1151.811, 31.678
1152.293, 35.111
1152.776, 32.109
1153.258, 27.537
1153.740, 26.090
1154.222, 27.084
1154.704, 28.917
1155.186, 31.589
1155.668, 30.517
1156.150, 19.661
1156.632, 13.801
1157.115, 16.938
1157.597, 21.257
1158.079, 24.710
1158.561, 26.624
1159.043, 25.796
1159.525, 23.264
1160.007, 22.585
1160.489, 23.965
1160.972, 25.155
1161.454, 26.204
1161.936, 25.414
1162.418, 22.422
1162.900, 21.282
1163.382, 24.249
1163.864, 28.999
1164.346, 33.678
1164.828, 36.949
1165.311, 34.784
1165.793, 29.759
1166.275, 27.084
1166.757, 26.715
1167.239, 27.595
1167.721, 29.087
1168.203, 29.657
1168.685, 28.362
1169.167, 26.662
1169.650, 24.687
1170.132, 23.539
1170.614, 25.806
1171.096, 27.664
1171.578, 23.726
1172.060, 16.882
1172.542, 14.215
1173.024, 16.820
1173.507, 18.933
1173.989, 19.788
1174.471, 21.146
1174.953, 25.158
1175.435, 25.059
1175.917, 15.683
1176.399, 7.035
1176.881, 8.976
1177.364, 17.625
1177.846, 23.277
1178.328, 25.916
1178.810, 24.644
1179.292, 19.891
1179.774, 16.050
1180.256, 14.027
1180.738, 14.778
1181.220, 18.625
1181.703, 21.839
1182.185, 20.425
1182.667, 17.456
1183.149, 16.075
1183.631, 16.128
1184.113, 17.954
1184.595, 20.809
1185.077, 23.831
1185.559, 26.632
1186.042, 28.933
1186.524, 31.142
1187.006, 30.354
1187.488, 19.964
1187.970, 14.351
1188.452, 24.465
1188.934, 33.967
1189.416, 29.780
1189.899, 21.229
1190.381, 21.602
1190.863, 29.160
1191.345, 30.275
1191.827, 23.369
1192.309, 18.939
1192.791, 17.376
1193.273, 18.211
1193.755, 21.424
1194.238, 25.212
1194.720, 28.593
1195.202, 30.266
1195.684, 26.355
1196.166, 21.455
1196.648, 28.009
1197.130, 39.276
1197.612, 41.424
1198.094, 36.192
1198.577, 30.618
1199.059, 26.778
1199.541, 25.175
1200.023, 27.008
1200.505, 27.908
1200.987, 23.786
1201.469, 20.716
1201.951, 22.881
1202.434, 26.354
1202.916, 28.451
1203.398, 29.150
1203.880, 28.893
1204.362, 27.666
1204.844, 24.342
1205.326, 17.367
1205.808, 14.645
1206.291, 17.377
1206.773, 20.288
1207.255, 22.016
1207.737, 21.166
1208.219, 16.287
1208.701, 11.462
1209.183, 14.578
1209.665, 21.494
1210.147, 21.762
1210.630, 18.010
1211.112, 15.551
1211.594, 14.658
1212.076, 13.790
1212.558, 12.823
1213.040, 13.959
1213.522, 19.565
1214.004, 23.421
1214.486, 20.300
1214.969, 17.459
1215.451, 18.727
1215.933, 21.705
1216.415, 25.253
1216.897, 28.543
1217.379, 30.151
1217.861, 30.155
1218.343, 30.456
1218.826, 31.770
1219.308, 28.860
1219.790, 20.414
1220.272, 17.788
1220.754, 24.510
1221.236, 29.491
1221.718, 25.072
1222.200, 18.123
1222.682, 18.344
1223.165, 22.079
1223.647, 23.745
1224.129, 23.225
1224.611, 17.701
1225.093, 10.734
1225.575, 10.667
1226.057, 18.092
1226.539, 26.627
1227.021, 35.802
1227.504, 39.807
1227.986, 31.127
1228.468, 24.606
1228.950, 28.123
1229.432, 32.403
1229.914, 32.266
1230.396, 29.394
1230.878, 25.348
1231.361, 20.838
1231.843, 19.912
1232.325, 22.684
1232.807, 25.493
1233.289, 28.170
1233.771, 30.091
1234.253, 31.034
1234.735, 29.966
1235.218, 26.369
1235.700, 22.574
1236.182, 20.099
1236.664, 19.466
1237.146, 23.492
1237.628, 27.555
1238.110, 25.144
1238.592, 20.500
1239.074, 20.294
1239.557, 24.040
1240.039, 27.379
1240.521, 30.228
1241.003, 29.698
1241.485, 23.164
1241.967, 18.564
1242.449, 17.218
1242.931, 16.655
1243.413, 15.943
1243.896, 15.564
1244.378, 16.059
1244.860, 16.858
1245.342, 16.562
1245.824, 15.652
1246.306, 15.476
1246.788, 16.172
1247.270, 18.823
1247.753, 22.578
1248.235, 25.009
1248.717, 25.348
1249.199, 23.519
1249.681, 17.595
1250.163, 14.534
1250.645, 20.711
1251.127, 26.224
1251.609, 26.729
1252.092, 24.369
1252.574, 19.301
1253.056, 13.950
1253.538, 12.448
1254.020, 13.915
1254.502, 11.248
1254.984, 3.982
1255.466, 3.646
1255.948, 10.345
1256.431, 17.100
1256.913, 22.127
1257.395, 24.543
1257.877, 23.920
1258.359, 21.677
1258.841, 17.806
1259.323, 14.954
1259.805, 15.674
1260.288, 18.642
1260.770, 25.907
1261.252, 32.194
1261.734, 27.864
1262.216, 17.095
1262.698, 15.882
1263.180, 27.255
1263.662, 32.684
1264.145, 30.262
1264.627, 27.039
1265.109, 22.729
1265.591, 22.771
1266.073, 29.438
1266.555, 34.545
1267.037, 31.877
1267.519, 26.357
1268.001, 24.567
1268.484, 25.074
1268.966, 25.983
1269.448, 27.029
1269.930, 28.174
1270.412, 28.934
1270.894, 28.312
1271.376, 26.407
1271.858, 24.190
1272.340, 21.307
1272.823, 20.482
##END=



