##NAMES=Stibarsen
##RRUFFID=R060115
##IDEAL CHEMISTRY=SbAs
##LOCALITY=Moctezuma, Sonora, Mexico
##OWNER=RRUFF
##SOURCE=University of Arizona Mineral Museum
##DESCRIPTION=Tin-white reniform mass with many small inclusions of antimony
##STATUS=The identification of this mineral is confirmed by single-crystal X-ray diffraction and chemical analysis.
##URL=rruff.info/R060115
##MEASURED CHEMISTRY=gray phase: Sb_1.00_As_1.00_; light inclusions: Sb_2.00_(Sb_1.12_As_0.88_)_Î£=2_
89.78156, 0.0000000E+00
90.26367, 16.40264
90.74579, 16.54701
91.22791, 16.49013
91.71002, 16.25354
92.19214, 16.02595
92.67426, 15.93141
93.15638, 15.96171
93.63850, 16.11018
94.12061, 16.54131
94.60273, 17.04745
95.08485, 17.09392
95.56696, 16.64294
96.04908, 15.98579
96.53120, 15.38725
97.01331, 14.86008
97.49543, 14.45290
97.97755, 14.20010
98.45966, 14.10000
98.94178, 14.08370
99.42390, 14.15427
99.90602, 14.30393
100.3881, 14.60394
100.8703, 15.15584
101.3524, 15.49634
101.8345, 15.29943
102.3166, 14.39623
102.7987, 13.69334
103.2808, 13.30020
103.7630, 13.15046
104.2451, 12.95664
104.7272, 12.63091
105.2093, 12.37490
105.6914, 12.33993
106.1735, 12.71600
106.6557, 12.98909
107.1378, 13.09438
107.6199, 13.02989
108.1020, 12.87682
108.5841, 12.48088
109.0662, 12.07649
109.5484, 11.86881
110.0305, 11.97875
110.5126, 12.16241
110.9947, 12.43161
111.4768, 12.84398
111.9590, 13.08117
112.4411, 12.98725
112.9232, 12.73397
113.4053, 12.54515
113.8874, 12.39585
114.3695, 12.36726
114.8517, 12.59002
115.3338, 13.33044
115.8159, 13.67335
116.2980, 12.46543
116.7801, 13.20925
117.2622, 13.74000
117.7444, 14.06918
118.2265, 13.59281
118.7086, 14.15657
119.1907, 14.30349
119.6728, 14.43333
120.1549, 15.14348
120.6371, 14.78433
121.1192, 15.48528
121.6013, 15.82367
122.0834, 16.19528
122.5655, 16.82411
123.0476, 18.08954
123.5298, 19.38945
124.0119, 20.07324
124.4940, 20.18134
124.9761, 20.28559
125.4582, 20.87408
125.9404, 21.78131
126.4225, 22.67927
126.9046, 23.39762
127.3867, 24.04191
127.8688, 24.83246
128.3509, 25.79019
128.8331, 26.69016
129.3152, 27.09072
129.7973, 27.12940
130.2794, 27.48014
130.7615, 28.65938
131.2436, 30.42712
131.7258, 31.92179
132.2079, 33.05950
132.6900, 34.07590
133.1721, 35.26676
133.6542, 36.62737
134.1364, 38.22989
134.6185, 40.13609
135.1006, 42.35258
135.5827, 44.74568
136.0648, 47.26777
136.5469, 50.02443
137.0291, 53.44321
137.5112, 57.67852
137.9933, 61.84431
138.4754, 65.51164
138.9575, 68.66872
139.4396, 71.18229
139.9218, 72.93044
140.4039, 74.01450
140.8860, 74.94692
141.3681, 75.91531
141.8502, 76.37986
142.3323, 75.86208
142.8145, 74.12410
143.2966, 71.97730
143.7787, 69.36842
144.2608, 66.29138
144.7429, 63.76811
145.2250, 61.95631
145.7072, 60.52882
146.1893, 59.15838
146.6714, 57.68788
147.1535, 56.51109
147.6356, 55.73039
148.1178, 55.37606
148.5999, 55.21584
149.0820, 55.19152
149.5641, 55.38813
150.0462, 55.91468
150.5283, 57.35040
151.0105, 58.53207
151.4926, 58.57561
151.9747, 57.65683
152.4568, 57.06471
152.9389, 57.08780
153.4210, 57.38884
153.9032, 57.49644
154.3853, 57.70174
154.8674, 57.43195
155.3495, 56.35085
155.8316, 53.82554
156.3137, 51.91986
156.7959, 51.23102
157.2780, 51.33265
157.7601, 51.43040
158.2422, 51.61276
158.7243, 51.55671
159.2065, 51.04531
159.6886, 49.65095
160.1707, 48.50100
160.6528, 48.10513
161.1349, 48.21724
161.6170, 48.19027
162.0992, 47.77125
162.5813, 47.15302
163.0634, 46.44728
163.5455, 45.57105
164.0276, 44.75808
164.5097, 43.93390
164.9919, 43.19538
165.4740, 42.93278
165.9561, 43.60445
166.4382, 44.71004
166.9203, 45.80526
167.4024, 46.69935
167.8846, 47.61610
168.3667, 48.61308
168.8488, 49.71579
169.3309, 51.09990
169.8130, 53.18327
170.2952, 55.52896
170.7773, 57.56426
171.2594, 58.90464
171.7415, 60.03101
172.2236, 61.44698
172.7057, 63.12303
173.1879, 64.61638
173.6700, 65.48544
174.1521, 65.96219
174.6342, 66.44457
175.1163, 67.18193
175.5984, 67.95943
176.0806, 68.45905
176.5627, 68.68054
177.0448, 68.91031
177.5269, 69.49602
178.0090, 70.28957
178.4911, 70.95519
178.9733, 70.98795
179.4554, 70.90746
179.9375, 71.57024
180.4196, 73.00597
180.9017, 74.90046
181.3838, 76.84737
181.8660, 78.93900
182.3481, 81.59090
182.8302, 84.88905
183.3123, 88.87022
183.7944, 93.53901
184.2766, 98.89749
184.7587, 105.1178
185.2408, 112.8622
185.7229, 121.8813
186.2050, 131.1277
186.6871, 140.6658
187.1693, 150.1561
187.6514, 158.2971
188.1335, 165.6049
188.6156, 170.1961
189.0977, 169.1880
189.5798, 162.6897
190.0620, 152.9799
190.5441, 139.5650
191.0262, 123.1508
191.5083, 108.5578
191.9904, 95.83526
192.4725, 84.87602
192.9547, 75.54333
193.4368, 67.76347
193.9189, 61.27272
194.4010, 56.09897
194.8831, 52.19607
195.3652, 48.91987
195.8474, 46.29042
196.3295, 44.16452
196.8116, 42.30908
197.2937, 40.73825
197.7758, 39.34941
198.2579, 38.12861
198.7401, 37.07760
199.2222, 36.06276
199.7043, 35.04201
200.1864, 34.10392
200.6685, 33.54728
201.1507, 33.47150
201.6328, 33.32162
202.1149, 32.69503
202.5970, 31.53268
203.0791, 30.48002
203.5612, 29.56199
204.0434, 28.81502
204.5255, 28.41781
205.0076, 28.46008
205.4897, 28.54296
205.9718, 28.36764
206.4539, 27.85495
206.9361, 27.60045
207.4182, 27.79202
207.9003, 28.21474
208.3824, 28.10916
208.8645, 27.28919
209.3466, 26.42608
209.8288, 25.94011
210.3109, 25.91322
210.7930, 25.90022
211.2751, 25.84591
211.7572, 25.78204
212.2393, 25.86827
212.7215, 26.20974
213.2036, 26.46934
213.6857, 26.39452
214.1678, 25.86686
214.6499, 25.38721
215.1320, 24.94116
215.6142, 24.57536
216.0963, 24.55889
216.5784, 25.07589
217.0605, 25.59156
217.5426, 25.74880
218.0247, 25.44087
218.5069, 25.07141
218.9890, 24.59918
219.4711, 24.08975
219.9532, 23.88935
220.4353, 24.18358
220.9175, 24.47944
221.3996, 24.41400
221.8817, 23.74856
222.3638, 23.36901
222.8459, 23.48970
223.3280, 23.97570
223.8102, 24.10283
224.2923, 23.67280
224.7744, 23.19218
225.2565, 23.01540
225.7386, 23.34349
226.2207, 23.47415
226.7029, 23.25047
227.1850, 22.76580
227.6671, 22.52269
228.1492, 22.61213
228.6313, 22.81302
229.1134, 23.01156
229.5956, 23.26364
230.0777, 23.38194
230.5598, 23.28009
231.0419, 23.02390
231.5240, 22.96424
232.0062, 23.28169
232.4883, 23.55087
232.9704, 23.47943
233.4525, 22.82766
233.9346, 22.37240
234.4167, 22.24731
234.8989, 22.37320
235.3810, 22.37753
235.8631, 22.20841
236.3452, 21.98505
236.8273, 21.75870
237.3094, 21.47705
237.7916, 21.30434
238.2737, 21.25192
238.7558, 21.31441
239.2379, 21.48170
239.7200, 21.83059
240.2021, 22.18026
240.6843, 22.45404
241.1664, 22.70570
241.6485, 22.75171
242.1306, 22.49448
242.6127, 22.02654
243.0948, 21.72045
243.5770, 21.69253
244.0591, 21.66530
244.5412, 21.47164
245.0233, 20.94104
245.5054, 20.63126
245.9876, 20.63757
246.4697, 20.86647
246.9518, 21.02167
247.4339, 21.05980
247.9160, 21.08953
248.3981, 21.17781
248.8803, 21.40512
249.3624, 21.48987
249.8445, 21.35586
250.3266, 21.09421
250.8087, 20.96198
251.2908, 21.02724
251.7730, 21.11301
252.2551, 21.13821
252.7372, 21.07578
253.2193, 21.02016
253.7014, 20.96575
254.1835, 20.92079
254.6657, 20.91642
255.1478, 21.00115
255.6299, 21.04146
256.1120, 20.98562
256.5941, 20.82892
257.0763, 20.56184
257.5584, 20.04987
258.0405, 19.50944
258.5226, 19.42949
259.0047, 20.04232
259.4868, 20.63548
259.9690, 20.93543
260.4511, 20.89240
260.9332, 20.76947
261.4153, 20.51609
261.8974, 20.22545
262.3795, 20.07849
262.8617, 20.15056
263.3438, 20.17806
263.8259, 20.02331
264.3080, 19.62973
264.7901, 19.50764
265.2722, 19.79949
265.7544, 20.19359
266.2365, 20.16077
266.7186, 19.49764
267.2007, 19.04013
267.6828, 19.14412
268.1649, 19.86062
268.6471, 20.22618
269.1292, 20.14026
269.6113, 19.87353
270.0934, 19.76744
270.5755, 19.86658
271.0576, 19.95291
271.5398, 19.97500
272.0219, 19.93332
272.5040, 19.82121
272.9861, 19.61040
273.4682, 19.39333
273.9503, 19.25370
274.4325, 19.19008
274.9146, 19.22125
275.3967, 19.36826
275.8788, 19.61955
276.3610, 19.92322
276.8431, 20.33502
277.3252, 20.62239
277.8073, 20.45988
278.2894, 19.79049
278.7715, 19.33787
279.2537, 19.28377
279.7358, 19.54557
280.2179, 19.84508
280.7000, 20.22917
281.1821, 20.44217
281.6642, 20.14167
282.1464, 19.32322
282.6285, 18.77465
283.1106, 18.66567
283.5927, 18.87043
284.0748, 19.10376
284.5569, 19.37756
285.0391, 19.57509
285.5212, 19.56572
286.0033, 19.37078
286.4854, 19.25418
286.9675, 19.26806
287.4496, 19.34536
287.9318, 19.32938
288.4139, 19.21812
288.8960, 19.15289
289.3781, 19.28206
289.8602, 19.55151
290.3423, 19.67689
290.8245, 19.61646
291.3066, 19.45151
291.7887, 19.23679
292.2708, 18.98921
292.7529, 18.88183
293.2350, 19.12092
293.7172, 19.58264
294.1993, 19.87895
294.6814, 19.98363
295.1635, 19.96842
295.6456, 19.85626
296.1277, 19.67748
296.6099, 19.56449
297.0920, 19.64808
297.5741, 19.82568
298.0562, 19.88653
298.5383, 19.82128
299.0204, 19.71700
299.5026, 19.61266
299.9847, 19.53241
300.4668, 19.54002
300.9489, 19.73223
301.4311, 19.99004
301.9132, 20.12299
302.3953, 20.13758
302.8774, 20.16232
303.3595, 20.39048
303.8416, 20.68873
304.3238, 20.81885
304.8059, 20.60749
305.2880, 20.28872
305.7701, 20.08594
306.2522, 19.98672
306.7343, 19.92776
307.2165, 19.81428
307.6986, 19.73326
308.1807, 19.82084
308.6628, 20.23813
309.1449, 20.62408
309.6270, 20.61464
310.1092, 20.32418
310.5913, 20.12091
311.0734, 20.31820
311.5555, 20.63121
312.0376, 20.78757
312.5197, 20.66934
313.0019, 20.58042
313.4840, 20.84223
313.9661, 21.25440
314.4482, 21.41099
314.9303, 20.80126
315.4124, 20.12377
315.8946, 19.83192
316.3767, 20.03634
316.8588, 20.32756
317.3409, 20.68640
317.8230, 20.99561
318.3051, 21.10024
318.7873, 20.68374
319.2694, 20.29074
319.7515, 20.20450
320.2336, 20.46713
320.7157, 20.62670
321.1978, 20.41257
321.6800, 20.10356
322.1621, 19.95191
322.6442, 20.17133
323.1263, 20.38365
323.6084, 20.52490
324.0905, 20.59192
324.5727, 20.57180
325.0548, 20.43996
325.5369, 20.23533
326.0190, 19.98149
326.5012, 19.46215
326.9833, 19.14803
327.4654, 19.23511
327.9475, 19.59943
328.4296, 19.73875
328.9117, 19.37027
329.3939, 19.02648
329.8760, 18.94258
330.3581, 19.39712
330.8402, 19.58940
331.3223, 19.34454
331.8044, 18.88638
332.2866, 18.68529
332.7687, 18.94898
333.2508, 19.16632
333.7329, 19.15540
334.2150, 18.85219
334.6971, 18.62931
335.1793, 18.51677
335.6614, 18.45302
336.1435, 18.35863
336.6256, 18.21866
337.1077, 18.08476
337.5898, 17.96285
338.0720, 17.85373
338.5541, 17.81381
339.0362, 17.86826
339.5183, 17.93619
340.0004, 17.92389
340.4825, 17.81046
340.9647, 17.77431
341.4468, 17.87492
341.9289, 18.05762
342.4110, 18.13626
342.8931, 18.09739
343.3752, 18.03711
343.8574, 18.03425
344.3395, 18.08206
344.8216, 18.08835
345.3037, 18.05455
345.7858, 17.95320
346.2679, 17.65612
346.7501, 17.17936
347.2322, 16.82756
347.7143, 16.85807
348.1964, 17.14586
348.6785, 17.28254
349.1607, 17.24293
349.6428, 17.11897
350.1249, 16.96569
350.6070, 16.80518
351.0891, 16.70504
351.5713, 16.71599
352.0534, 16.79345
352.5355, 16.91808
353.0176, 17.08322
353.4997, 17.16331
353.9818, 16.93541
354.4640, 16.58580
354.9461, 16.41910
355.4282, 16.66829
355.9103, 16.94447
356.3924, 16.84764
356.8745, 16.46183
357.3567, 16.12306
357.8388, 16.08159
358.3209, 16.13389
358.8030, 16.08746
359.2851, 15.86012
359.7672, 15.66432
360.2494, 15.69906
360.7315, 15.83795
361.2136, 15.84784
361.6957, 15.43695
362.1778, 15.04183
362.6599, 14.89454
363.1421, 15.03782
363.6242, 15.23840
364.1063, 15.56244
364.5884, 15.85531
365.0705, 15.95628
365.5526, 15.65760
366.0348, 15.34832
366.5169, 15.06870
366.9990, 14.82739
367.4811, 14.72927
367.9632, 14.93560
368.4453, 15.18438
368.9275, 15.32593
369.4096, 15.31523
369.8917, 15.25483
370.3738, 15.08064
370.8559, 14.85950
371.3380, 14.79329
371.8202, 15.03449
372.3023, 15.22082
372.7844, 15.16355
373.2665, 14.73404
373.7487, 14.61927
374.2308, 14.99814
374.7129, 15.51168
375.1950, 15.66037
375.6771, 15.34625
376.1592, 14.97617
376.6414, 14.64649
377.1235, 14.35193
377.6056, 13.97729
378.0877, 13.45634
378.5698, 13.06099
379.0519, 13.12028
379.5341, 13.63724
380.0162, 14.00056
380.4983, 14.06772
380.9804, 13.97012
381.4625, 14.01543
381.9446, 14.20063
382.4268, 14.36150
382.9089, 14.42192
383.3910, 14.38065
383.8731, 14.18351
384.3552, 13.78994
384.8373, 13.42221
385.3195, 13.40846
385.8016, 13.64560
386.2837, 13.82959
386.7658, 13.73623
387.2479, 13.55814
387.7300, 13.57690
388.2122, 13.78369
388.6943, 13.95847
389.1764, 13.92487
389.6585, 13.76776
390.1406, 13.58418
390.6227, 13.35234
391.1049, 13.17180
391.5870, 13.11081
392.0691, 13.15620
392.5512, 13.26843
393.0333, 13.58185
393.5154, 13.85028
393.9976, 13.89281
394.4797, 13.62506
394.9618, 13.33979
395.4439, 12.98975
395.9260, 12.71473
396.4081, 12.70055
396.8903, 13.36090
397.3724, 13.91483
397.8545, 14.09642
398.3366, 13.88402
398.8188, 13.72978
399.3009, 13.79661
399.7830, 13.84236
400.2651, 13.70558
400.7472, 13.15956
401.2293, 12.77131
401.7115, 12.59923
402.1936, 12.59806
402.6757, 12.64679
403.1578, 12.80190
403.6399, 12.90741
404.1220, 12.84637
404.6042, 12.54475
405.0863, 12.56069
405.5684, 13.04317
406.0505, 13.60341
406.5326, 13.66023
407.0147, 13.13339
407.4969, 12.71404
407.9790, 12.60141
408.4611, 12.73270
408.9432, 12.88542
409.4253, 13.06386
409.9074, 13.21054
410.3896, 13.28961
410.8717, 13.30177
411.3538, 13.24236
411.8359, 13.10095
412.3180, 12.91454
412.8001, 12.68203
413.2823, 12.43506
413.7644, 12.28305
414.2465, 12.38347
414.7286, 12.56977
415.2107, 12.57066
415.6928, 12.36675
416.1750, 12.23679
416.6571, 12.49221
417.1392, 12.92201
417.6213, 13.25307
418.1034, 13.42545
418.5855, 13.43697
419.0677, 13.16655
419.5498, 12.69765
420.0319, 12.35341
420.5140, 12.34937
420.9961, 12.44655
421.4782, 12.50445
421.9604, 12.49278
422.4425, 12.46999
422.9246, 12.42291
423.4067, 12.37905
423.8889, 12.37576
424.3710, 12.50209
424.8531, 12.58077
425.3352, 12.55414
425.8173, 12.42210
426.2994, 12.32096
426.7816, 12.25836
427.2637, 12.21988
427.7458, 12.20630
428.2279, 12.25731
428.7100, 12.22025
429.1921, 12.02096
429.6743, 11.76982
430.1564, 11.77918
430.6385, 12.13516
431.1206, 12.41547
431.6027, 12.37291
432.0848, 12.03020
432.5670, 11.97676
433.0491, 12.26432
433.5312, 12.62961
434.0133, 12.83115
434.4954, 12.87474
434.9775, 12.76435
435.4597, 12.39781
435.9418, 12.00884
436.4239, 12.17515
436.9060, 12.79360
437.3881, 13.21146
437.8702, 12.73162
438.3524, 11.89646
438.8345, 11.51251
439.3166, 11.70569
439.7987, 12.06790
440.2808, 12.44536
440.7629, 12.74822
441.2451, 12.83339
441.7272, 12.40646
442.2093, 11.96156
442.6914, 11.76410
443.1735, 11.79029
443.6556, 11.86057
444.1378, 11.96507
444.6199, 12.05558
445.1020, 12.10237
445.5841, 12.10067
446.0662, 12.05722
446.5483, 11.90717
447.0305, 11.72936
447.5126, 11.65569
447.9947, 11.74650
448.4768, 11.87310
448.9590, 12.04787
449.4411, 12.27368
449.9232, 12.32712
450.4053, 12.10174
450.8874, 11.85772
451.3695, 11.78487
451.8517, 11.90384
452.3338, 12.13409
452.8159, 12.55533
453.2980, 12.98095
453.7801, 12.93378
454.2622, 12.37525
454.7444, 11.92245
455.2265, 11.97147
455.7086, 12.37026
456.1907, 12.41010
456.6728, 12.06459
457.1549, 11.70624
457.6371, 11.76865
458.1192, 12.07889
458.6013, 12.19674
459.0834, 11.93983
459.5655, 11.59186
460.0476, 11.42905
460.5298, 11.42244
461.0119, 11.49260
461.4940, 11.69156
461.9761, 11.88706
462.4582, 11.94462
462.9403, 11.84181
463.4225, 11.78512
463.9046, 11.98295
464.3867, 12.21971
464.8688, 12.28708
465.3509, 11.91415
465.8330, 11.62056
466.3152, 11.52810
466.7973, 11.60072
467.2794, 11.70763
467.7615, 11.90651
468.2436, 12.07509
468.7257, 12.17856
469.2079, 12.21787
469.6900, 12.18032
470.1721, 12.03773
470.6542, 11.84903
471.1363, 11.66629
471.6184, 11.48071
472.1006, 11.32766
472.5827, 11.18816
473.0648, 11.10050
473.5469, 11.26238
474.0291, 11.70517
474.5112, 12.02906
474.9933, 11.85639
475.4754, 11.34110
475.9575, 11.20455
476.4396, 11.50916
476.9218, 11.90452
477.4039, 12.02536
477.8860, 11.94937
478.3681, 11.85551
478.8502, 11.81595
479.3323, 11.76247
479.8145, 11.53454
480.2966, 11.20801
480.7787, 11.06777
481.2608, 11.45189
481.7429, 11.93555
482.2250, 12.22789
482.7072, 12.27727
483.1893, 12.24251
483.6714, 12.12933
484.1535, 11.98025
484.6356, 11.83848
485.1177, 11.63559
485.5999, 11.52525
486.0820, 11.62290
486.5641, 11.84934
487.0462, 11.90508
487.5283, 11.68136
488.0104, 11.43094
488.4926, 11.23004
488.9747, 11.06982
489.4568, 11.04572
489.9389, 11.20947
490.4210, 11.41670
490.9031, 11.48731
491.3853, 11.41093
491.8674, 11.38159
492.3495, 11.44769
492.8316, 11.57185
493.3137, 11.73561
493.7958, 11.92421
494.2780, 11.95710
494.7601, 11.53235
495.2422, 10.92892
495.7243, 10.74935
496.2064, 11.03343
496.6885, 11.35043
497.1707, 11.30408
497.6528, 11.09467
498.1349, 10.99925
498.6170, 11.14663
499.0992, 11.35000
499.5813, 11.61632
500.0634, 11.86612
500.5455, 11.90906
501.0276, 11.36530
501.5097, 10.88735
501.9919, 10.77953
502.4740, 11.12201
502.9561, 11.41343
503.4382, 11.65904
503.9203, 11.81347
504.4024, 11.83226
504.8846, 11.61879
505.3667, 11.46964
505.8488, 11.41624
506.3309, 11.42840
506.8130, 11.44658
507.2951, 11.47313
507.7773, 11.49037
508.2594, 11.45119
508.7415, 11.39116
509.2236, 11.59268
509.7057, 12.08265
510.1878, 12.49308
510.6700, 12.43201
511.1521, 12.04535
511.6342, 11.78020
512.1163, 11.73425
512.5984, 11.72578
513.0806, 11.53815
513.5627, 11.24720
514.0448, 11.01149
514.5269, 10.80260
515.0090, 10.75283
515.4911, 11.06603
515.9733, 11.67966
516.4554, 12.16860
516.9375, 12.41275
517.4196, 12.45479
517.9017, 12.29021
518.3839, 11.81739
518.8660, 11.38810
519.3481, 10.98100
519.8302, 10.66538
520.3123, 10.53593
520.7944, 10.70307
521.2766, 10.86011
521.7587, 10.99661
522.2408, 11.08476
522.7229, 10.96032
523.2050, 10.53545
523.6871, 10.22330
524.1693, 10.31527
524.6514, 10.76895
525.1335, 11.05182
525.6156, 11.15132
526.0977, 11.16650
526.5798, 11.19371
527.0620, 11.21879
527.5441, 11.18588
528.0262, 11.04582
528.5083, 10.91784
528.9904, 10.98734
529.4725, 11.17354
529.9547, 11.27919
530.4368, 11.09014
530.9189, 10.88072
531.4010, 10.83625
531.8831, 10.96122
532.3652, 11.10935
532.8474, 11.28247
533.3295, 11.43010
533.8116, 11.52166
534.2937, 11.53526
534.7758, 11.51966
535.2579, 11.45311
535.7401, 11.36979
536.2222, 11.32496
536.7043, 11.34378
537.1864, 11.33857
537.6685, 11.27754
538.1506, 11.17978
538.6328, 11.11772
539.1149, 11.08182
539.5970, 11.13970
540.0791, 11.47345
540.5612, 11.97142
541.0433, 11.99801
541.5255, 11.48888
542.0076, 10.92165
542.4897, 10.79082
542.9718, 10.93977
543.4539, 11.05731
543.9360, 11.05898
544.4182, 11.00148
544.9003, 10.85380
545.3824, 10.68008
545.8645, 10.62303
546.3466, 10.89357
546.8287, 11.15595
547.3109, 11.21846
547.7930, 11.06852
548.2751, 10.99883
548.7572, 11.23282
549.2393, 11.41696
549.7214, 11.34349
550.2036, 10.83457
550.6857, 10.47014
551.1678, 10.27664
551.6499, 10.20038
552.1320, 10.17339
552.6141, 10.19491
553.0963, 10.27462
553.5784, 10.43560
554.0605, 10.63843
554.5426, 10.78225
555.0247, 10.86879
555.5068, 10.92871
555.9890, 10.99443
556.4711, 11.04065
556.9532, 10.98323
557.4353, 10.82010
557.9174, 10.71262
558.3995, 10.84944
558.8817, 11.07741
559.3638, 11.22103
559.8459, 11.18382
560.3281, 11.16925
560.8102, 11.35894
561.2923, 11.60083
561.7744, 11.65389
562.2565, 11.10944
562.7386, 10.77932
563.2208, 10.94542
563.7029, 11.51479
564.1850, 11.84014
564.6671, 11.83347
565.1492, 11.73541
565.6313, 11.69133
566.1135, 11.72279
566.5956, 11.43641
567.0777, 10.72679
567.5598, 10.07822
568.0419, 10.11907
568.5240, 10.70983
569.0062, 11.12806
569.4883, 11.20095
569.9704, 11.11713
570.4525, 11.07814
570.9346, 11.06879
571.4167, 11.05166
571.8989, 11.00954
572.3810, 10.95332
572.8631, 10.84461
573.3452, 10.70654
573.8273, 10.68064
574.3094, 11.02645
574.7916, 11.33759
575.2737, 11.34605
575.7558, 10.86095
576.2379, 10.62013
576.7200, 10.84212
577.2021, 11.14811
577.6843, 11.17113
578.1664, 10.75347
578.6485, 10.53831
579.1306, 10.64794
579.6127, 10.92824
580.0948, 11.07369
580.5770, 11.08375
581.0591, 11.08000
581.5412, 11.11978
582.0233, 11.17139
582.5054, 11.15721
582.9875, 11.08413
583.4697, 11.00208
583.9518, 10.91924
584.4339, 10.85958
584.9160, 10.86406
585.3981, 10.94499
585.8802, 11.01173
586.3624, 11.00339
586.8445, 10.96729
587.3266, 10.94690
587.8087, 10.95596
588.2908, 10.97500
588.7729, 11.01433
589.2551, 11.05916
589.7372, 11.09522
590.2193, 11.17748
590.7014, 10.76768
591.1835, 11.25393
591.6656, 11.52710
592.1478, 11.59866
592.6299, 10.86471
593.1120, 11.17091
593.5941, 11.06026
594.0762, 10.93252
594.5583, 11.38510
595.0405, 10.76832
595.5226, 11.21170
596.0047, 11.23635
596.4868, 10.87278
596.9689, 10.64629
597.4510, 10.72826
597.9332, 10.87408
598.4153, 11.01819
598.8974, 11.11754
599.3795, 11.11310
599.8616, 10.85618
600.3438, 10.63969
600.8259, 10.57849
601.3080, 10.62384
601.7901, 10.56919
602.2722, 10.29562
602.7543, 10.12363
603.2365, 10.19762
603.7186, 10.51177
604.2007, 10.78762
604.6828, 11.02155
605.1649, 11.22182
605.6470, 11.45140
606.1292, 11.66278
606.6113, 11.61516
607.0934, 11.24789
607.5755, 10.83246
608.0576, 10.58070
608.5398, 10.48783
609.0219, 10.56424
609.5040, 10.94593
609.9861, 11.31192
610.4683, 11.49717
610.9504, 11.53739
611.4325, 11.51087
611.9146, 11.46307
612.3967, 11.32406
612.8788, 10.97118
613.3610, 10.44419
613.8431, 10.21582
614.3252, 10.44651
614.8073, 10.70822
615.2894, 10.75527
615.7715, 10.56692
616.2537, 10.57952
616.7358, 10.82722
617.2179, 11.11109
617.7000, 11.24818
618.1821, 11.25522
618.6642, 11.16527
619.1464, 10.95207
619.6285, 10.75768
620.1106, 10.74819
620.5927, 10.85289
621.0748, 10.94981
621.5569, 11.10451
622.0391, 11.12863
622.5212, 10.74467
623.0033, 10.14162
623.4854, 9.897009
623.9675, 10.52605
624.4496, 11.10202
624.9318, 11.37239
625.4139, 11.34128
625.8960, 11.15987
626.3781, 10.70485
626.8602, 10.38837
627.3423, 10.55742
627.8245, 11.19313
628.3066, 11.66141
628.7887, 11.95615
629.2708, 12.02141
629.7529, 11.61093
630.2350, 10.94322
630.7172, 10.51209
631.1993, 10.44987
631.6814, 10.57555
632.1635, 10.93021
632.6456, 11.33298
633.1277, 11.50202
633.6099, 11.03135
634.0920, 10.64568
634.5741, 10.62358
635.0562, 10.87916
635.5383, 11.06390
636.0204, 11.14204
636.5026, 11.18452
636.9847, 11.19119
637.4668, 11.16898
637.9489, 11.25913
638.4310, 11.50195
638.9131, 11.67980
639.3953, 11.56871
639.8774, 11.25259
640.3595, 11.13665
640.8416, 11.24711
641.3237, 11.41652
641.8058, 11.53781
642.2880, 11.60103
642.7701, 11.57811
643.2522, 11.43557
643.7343, 11.28241
644.2164, 11.11484
644.6985, 10.98741
645.1807, 10.97410
645.6628, 11.22479
646.1449, 11.42569
646.6270, 11.50383
647.1091, 11.51174
647.5912, 11.58760
648.0734, 11.76525
648.5555, 11.92271
649.0376, 12.04851
649.5197, 12.11954
650.0018, 11.98694
650.4839, 11.65145
650.9661, 11.34380
651.4482, 11.23285
651.9303, 11.23804
652.4124, 11.18868
652.8945, 11.08115
653.3766, 11.07912
653.8588, 11.47195
654.3409, 11.90591
654.8230, 12.06068
655.3051, 11.77683
655.7872, 11.51428
656.2693, 11.30550
656.7515, 11.20298
657.2336, 11.27212
657.7158, 11.65330
658.1979, 11.89155
658.6800, 11.91158
659.1621, 11.81993
659.6442, 11.80948
660.1263, 11.88139
660.6085, 11.92210
661.0906, 11.90016
661.5727, 11.82289
662.0548, 11.62775
662.5369, 11.36800
663.0190, 11.24661
663.5012, 11.57707
663.9833, 11.92779
664.4654, 11.88603
664.9475, 11.50303
665.4296, 11.25039
665.9117, 11.40631
666.3939, 11.62371
666.8760, 11.74573
667.3581, 11.76737
667.8402, 11.69563
668.3223, 11.42572
668.8044, 11.22664
669.2866, 11.37694
669.7687, 11.90097
670.2508, 12.14488
670.7329, 12.03634
671.2150, 11.81494
671.6971, 11.75235
672.1793, 11.78949
672.6614, 11.74675
673.1435, 11.51413
673.6256, 11.37270
674.1077, 11.70463
674.5898, 12.23668
675.0720, 12.54211
675.5541, 12.27665
676.0362, 12.00869
676.5183, 11.86203
677.0004, 11.82631
677.4825, 11.86861
677.9647, 12.02095
678.4468, 12.20131
678.9289, 12.45534
679.4110, 12.71344
679.8931, 12.54403
680.3752, 11.91572
680.8574, 11.39363
681.3395, 11.43291
681.8216, 11.76940
682.3037, 11.79547
682.7858, 11.53308
683.2679, 11.35141
683.7501, 11.64731
684.2322, 12.03014
684.7143, 12.12795
685.1964, 11.82938
685.6785, 11.66425
686.1606, 11.88764
686.6428, 12.21321
687.1249, 12.44153
687.6070, 12.55888
688.0891, 12.60872
688.5712, 12.59999
689.0533, 12.50978
689.5355, 12.22286
690.0176, 11.75502
690.4997, 11.56520
690.9818, 11.79327
691.4639, 12.16238
691.9460, 12.34786
692.4282, 12.38139
692.9103, 12.32591
693.3924, 12.14212
693.8745, 11.95052
694.3566, 11.78946
694.8387, 11.67427
695.3209, 11.64114
695.8030, 11.88408
696.2851, 11.98998
696.7672, 11.75082
697.2493, 11.27917
697.7314, 11.20347
698.2136, 11.63420
698.6957, 12.10353
699.1778, 12.46061
699.6599, 12.68960
700.1420, 12.66361
700.6241, 12.39427
701.1063, 12.09673
701.5884, 11.89249
702.0705, 11.76092
702.5526, 11.70910
703.0347, 11.73592
703.5168, 11.71454
703.9990, 11.37675
704.4811, 11.11403
704.9632, 11.26607
705.4453, 12.15217
705.9274, 12.61393
706.4095, 12.41028
706.8917, 12.04724
707.3738, 11.97954
707.8560, 12.25173
708.3381, 12.39253
708.8202, 12.33981
709.3023, 12.24732
709.7844, 12.33850
710.2665, 12.54741
710.7487, 12.68636
711.2308, 12.69021
711.7129, 12.65725
712.1950, 12.63170
712.6771, 12.62888
713.1592, 12.67212
713.6414, 12.87314
714.1235, 12.99924
714.6056, 12.95867
715.0877, 12.81526
715.5698, 12.67671
716.0519, 12.50798
716.5341, 12.44648
717.0162, 12.56618
717.4983, 12.78579
717.9804, 12.86102
718.4625, 12.80118
718.9446, 12.73034
719.4268, 12.76800
719.9089, 12.78958
720.3910, 12.50178
720.8731, 12.01267
721.3552, 11.76951
721.8373, 12.31614
722.3195, 12.88958
722.8016, 13.01174
723.2837, 12.65432
723.7658, 12.50576
724.2479, 12.72129
724.7300, 12.97548
725.2122, 13.11982
725.6943, 13.15265
726.1764, 13.23465
726.6585, 13.38957
727.1406, 13.44526
727.6227, 13.11312
728.1049, 12.60688
728.5870, 12.53326
729.0691, 12.95229
729.5512, 13.27060
730.0333, 12.84303
730.5154, 12.24173
730.9976, 12.02549
731.4797, 12.39990
731.9618, 12.79568
732.4439, 13.28321
732.9260, 13.63095
733.4081, 13.60641
733.8903, 13.02794
734.3724, 12.69851
734.8545, 12.69591
735.3366, 12.85819
735.8187, 13.04012
736.3008, 13.22237
736.7830, 13.29247
737.2651, 13.19053
737.7472, 13.09342
738.2293, 13.25711
738.7114, 13.51760
739.1935, 13.62753
739.6757, 13.37508
740.1578, 13.13315
740.6399, 12.92637
741.1220, 12.81912
741.6041, 12.93490
742.0862, 13.45549
742.5684, 13.77962
743.0505, 13.74729
743.5326, 13.53412
744.0147, 13.57484
744.4968, 13.84368
744.9789, 13.99324
745.4611, 13.78946
745.9432, 13.53419
746.4253, 13.69731
746.9074, 14.13087
747.3895, 14.45072
747.8716, 14.48339
748.3538, 14.37024
748.8359, 14.06356
749.3180, 13.63181
749.8001, 13.41611
750.2822, 13.56899
750.7643, 13.68269
751.2465, 13.60490
751.7286, 13.39287
752.2107, 13.33343
752.6928, 13.42817
753.1749, 13.55962
753.6570, 13.70846
754.1392, 13.83019
754.6213, 13.81788
755.1034, 13.69476
755.5855, 13.59560
756.0676, 13.67353
756.5498, 13.72733
757.0319, 13.55312
757.5140, 13.13397
757.9962, 13.03204
758.4783, 13.51694
758.9604, 13.97060
759.4425, 14.08338
759.9246, 13.86592
760.4067, 13.79908
760.8889, 13.89169
761.3710, 14.06125
761.8531, 14.36180
762.3352, 14.66020
762.8173, 14.62622
763.2994, 14.25747
763.7816, 13.95595
764.2637, 14.07325
764.7458, 14.28106
765.2279, 14.01876
765.7100, 14.51010
766.1921, 14.78837
766.6743, 14.86502
767.1564, 14.13617
767.6385, 14.44745
768.1206, 14.34190
768.6027, 14.21926
769.0848, 14.67693
769.5670, 14.06524
770.0491, 14.51372
770.5312, 14.53899
771.0133, 14.75796
771.4954, 14.24347
771.9775, 14.17941
772.4597, 14.69801
772.9418, 15.28655
773.4239, 15.47768
773.9060, 14.95912
774.3881, 14.68146
774.8702, 14.85244
775.3524, 15.07381
775.8345, 14.92534
776.3166, 14.34522
776.7987, 14.25039
777.2808, 14.78391
777.7629, 15.35729
778.2451, 15.18948
778.7272, 14.62779
779.2093, 14.40726
779.6914, 14.75311
780.1735, 15.06313
780.6556, 14.86332
781.1378, 14.51097
781.6199, 14.35754
782.1020, 14.65800
782.5841, 14.82411
783.0662, 14.81338
783.5483, 14.71484
784.0305, 14.59209
784.5126, 14.43979
784.9947, 14.42995
785.4768, 14.61115
785.9589, 14.80471
786.4410, 14.77756
786.9232, 14.62047
787.4053, 14.48367
787.8874, 14.37719
788.3695, 14.36956
788.8516, 14.63973
789.3337, 14.95606
789.8159, 15.04821
790.2980, 14.72990
790.7801, 14.47781
791.2622, 14.28609
791.7443, 14.18977
792.2264, 14.32040
792.7086, 14.65574
793.1907, 14.71893
793.6728, 14.35926
794.1549, 14.00761
794.6370, 14.30969
795.1191, 14.90156
795.6013, 15.17286
796.0834, 14.79068
796.5655, 14.40696
797.0476, 14.21082
797.5297, 14.15888
798.0118, 14.19532
798.4940, 14.36064
798.9761, 14.52465
799.4582, 14.70009
799.9403, 14.83349
800.4224, 14.80561
800.9045, 14.65359
801.3867, 14.62448
801.8688, 14.80516
802.3509, 14.97896
802.8330, 14.83260
803.3151, 14.57981
803.7972, 14.53545
804.2794, 15.01379
804.7615, 15.31529
805.2436, 15.12750
805.7258, 14.78712
806.2079, 14.65962
806.6900, 14.82074
807.1721, 14.88694
807.6542, 14.79689
808.1364, 14.66566
808.6185, 14.65165
809.1006, 14.72236
809.5827, 14.76907
810.0648, 14.74366
810.5469, 14.77173
811.0291, 15.08318
811.5112, 15.43872
811.9933, 15.55817
812.4754, 15.16269
812.9575, 14.87007
813.4396, 14.72002
813.9218, 14.67134
814.4039, 14.69335
814.8860, 14.79032
815.3681, 14.90542
815.8502, 15.04445
816.3323, 15.14992
816.8145, 15.11265
817.2966, 15.00517
817.7787, 14.96194
818.2608, 15.03157
818.7429, 15.10403
819.2250, 15.09233
819.7072, 15.07705
820.1893, 15.15372
820.6714, 15.46544
821.1535, 15.54479
821.6356, 15.30960
822.1177, 14.98843
822.5999, 14.82159
823.0820, 14.79204
823.5641, 14.78179
824.0462, 14.77322
824.5283, 14.81404
825.0104, 14.99678
825.4926, 15.22929
825.9747, 15.40868
826.4568, 15.51678
826.9389, 15.56760
827.4210, 15.53850
827.9031, 15.47233
828.3853, 15.39260
828.8674, 15.29790
829.3495, 15.18801
829.8316, 15.05233
830.3137, 14.95186
830.7958, 14.98312
831.2780, 15.08660
831.7601, 15.11853
832.2422, 15.05958
832.7243, 15.03363
833.2064, 15.19112
833.6885, 15.36117
834.1707, 15.26914
834.6528, 15.75861
835.1349, 16.03501
835.6170, 16.10979
836.0991, 15.37907
836.5812, 15.68849
837.0634, 15.58106
837.5455, 15.45655
838.0276, 15.91236
838.5097, 15.28898
838.9918, 15.62952
839.4739, 16.06780
839.9561, 16.13617
840.4382, 15.80989
840.9203, 15.51446
841.4024, 15.38036
841.8845, 15.32218
842.3666, 15.31535
842.8488, 15.35831
843.3309, 15.35844
843.8130, 15.30625
844.2951, 15.26533
844.7772, 15.30709
845.2593, 15.37646
845.7415, 15.30154
846.2236, 15.11700
846.7057, 15.01117
847.1878, 15.15854
847.6699, 15.34987
848.1520, 15.50951
848.6342, 15.61992
849.1163, 15.59455
849.5984, 15.35169
850.0805, 15.13924
850.5626, 15.05141
851.0447, 15.04575
851.5269, 14.95505
852.0090, 14.79819
852.4911, 14.73358
852.9732, 14.92659
853.4553, 15.16142
853.9374, 15.24182
854.4196, 15.20996
854.9017, 15.16996
855.3839, 15.20209
855.8660, 15.16059
856.3481, 14.96807
856.8302, 14.71194
857.3123, 14.59450
857.7944, 14.62506
858.2766, 14.65746
858.7587, 14.64863
859.2408, 14.63892
859.7229, 14.72945
860.2050, 14.85726
860.6871, 14.88366
861.1693, 14.65636
861.6514, 14.49041
862.1335, 14.60001
862.6156, 14.79395
863.0977, 14.79558
863.5798, 14.47778
864.0620, 14.36167
864.5441, 14.55388
865.0262, 14.79911
865.5083, 14.72436
865.9904, 14.43535
866.4725, 14.27408
866.9547, 14.31897
867.4368, 14.37909
867.9189, 14.34963
868.4010, 14.25265
868.8831, 14.09502
869.3652, 13.81285
869.8474, 13.63829
870.3295, 13.58490
870.8116, 13.61870
871.2937, 13.76884
871.7758, 14.01379
872.2579, 14.05855
872.7401, 13.89368
873.2222, 13.74960
873.7043, 13.89704
874.1864, 14.09730
874.6685, 14.06866
875.1506, 13.78673
875.6328, 13.62665
876.1149, 13.87649
876.5970, 14.05138
877.0791, 13.94336
877.5612, 13.58483
878.0433, 13.27363
878.5255, 13.00717
879.0076, 12.86968
879.4897, 13.06611
879.9718, 13.32610
880.4539, 13.14353
880.9360, 12.67116
881.4182, 12.43666
881.9003, 13.04086
882.3824, 13.49457
882.8645, 13.27194
883.3466, 12.68011
883.8287, 12.55551
884.3109, 13.01441
884.7930, 13.26902
885.2751, 13.05433
885.7572, 12.64221
886.2393, 12.42112
886.7214, 12.36722
887.2036, 12.43233
887.6857, 12.66745
888.1678, 12.90290
888.6499, 13.18892
889.1320, 13.37205
889.6141, 13.22508
890.0963, 12.54826
890.5784, 12.08685
891.0605, 11.90116
891.5426, 11.89813
892.0247, 12.04999
892.5068, 12.28908
892.9890, 12.40965
893.4711, 12.37630
893.9532, 12.28063
894.4353, 12.03755
894.9174, 11.86075
895.3995, 11.99483
895.8817, 12.60053
896.3638, 12.83063
896.8459, 12.55105
897.3280, 12.17029
897.8101, 11.90059
898.2922, 11.74207
898.7744, 11.76392
899.2565, 11.94684
899.7386, 12.08402
900.2207, 11.94981
900.7028, 11.79902
901.1849, 11.87061
901.6671, 12.12706
902.1492, 12.24269
902.6313, 12.11376
903.1134, 11.95903
903.5955, 11.79921
904.0776, 11.67659
904.5598, 11.79787
905.0419, 12.11344
905.5240, 12.22092
906.0062, 11.88179
906.4883, 11.42353
906.9704, 10.99154
907.4525, 10.68039
907.9346, 10.63944
908.4167, 11.28071
908.8989, 11.66931
909.3810, 11.67057
909.8631, 11.48738
910.3452, 11.34173
910.8273, 11.23436
911.3094, 11.20347
911.7916, 11.26740
912.2737, 11.29210
912.7558, 11.03283
913.2379, 10.73644
913.7200, 10.71663
914.2021, 11.09372
914.6843, 11.32568
915.1664, 11.31829
915.6485, 11.16319
916.1306, 10.82515
916.6127, 10.33146
917.0948, 10.19491
917.5770, 10.41454
918.0591, 10.70771
918.5412, 10.92381
919.0233, 11.09958
919.5054, 11.32542
919.9875, 11.55701
920.4697, 11.61670
920.9518, 11.28432
921.4339, 10.97601
921.9160, 10.76970
922.3981, 10.65140
922.8802, 10.60177
923.3624, 10.61928
923.8445, 10.64116
924.3266, 10.64504
924.8087, 10.65766
925.2908, 10.79918
925.7729, 10.93729
926.2551, 10.85509
926.7372, 10.17797
927.2193, 9.875441
927.7014, 10.29693
928.1835, 10.84377
928.6656, 10.94626
929.1478, 10.60547
929.6299, 10.28396
930.1120, 9.996613
930.5941, 9.882460
931.0762, 10.20827
931.5583, 10.67877
932.0405, 11.01911
932.5226, 11.19660
933.0047, 11.21270
933.4868, 10.88680
933.9689, 10.62287
934.4510, 10.61586
934.9332, 10.78146
935.4153, 10.59637
935.8974, 10.08436
936.3795, 9.802814
936.8616, 10.19459
937.3438, 10.71709
937.8259, 10.85368
938.3080, 10.70704
938.7901, 10.47953
939.2722, 10.00089
939.7543, 9.777386
940.2365, 10.01626
940.7186, 10.34895
941.2007, 10.13162
941.6828, 9.440073
942.1649, 9.252183
942.6470, 9.753470
943.1292, 10.31508
943.6113, 10.35185
944.0934, 10.17068
944.5755, 10.05721
945.0576, 10.05294
945.5397, 10.13141
946.0219, 10.40925
946.5040, 10.56376
946.9861, 10.35864
947.4682, 9.879493
947.9503, 9.597212
948.4324, 9.515996
948.9146, 9.574761
949.3967, 10.12970
949.8788, 10.47157
950.3609, 10.61182
950.8430, 9.946569
951.3251, 10.32145
951.8073, 10.27951
952.2894, 9.775470
952.7715, 9.799490
953.2536, 10.01692
953.7357, 10.26133
954.2179, 10.48746
954.7000, 10.45913
955.1821, 10.06471
955.6642, 9.729787
956.1464, 9.885021
956.6285, 10.15068
957.1106, 10.14622
957.5927, 9.744440
958.0748, 9.566566
958.5569, 9.692465
959.0391, 9.826570
959.5212, 9.713984
960.0033, 9.469110
960.4854, 9.468061
960.9675, 9.669698
961.4496, 9.837629
961.9318, 9.774020
962.4139, 9.720078
962.8960, 9.891028
963.3781, 10.15264
963.8602, 10.12327
964.3423, 9.497327
964.8245, 10.00878
965.3066, 10.30715
965.7887, 10.40390
966.2708, 9.695161
966.7529, 10.02655
967.2350, 9.941099
967.7172, 9.838566
968.1993, 10.01848
968.6814, 9.753958
969.1635, 9.500820
969.6456, 9.548207
970.1277, 9.927427
970.6099, 10.23725
971.0920, 10.48464
971.5741, 10.56265
972.0562, 10.24567
972.5383, 9.814403
973.0204, 9.636339
973.5026, 9.666396
973.9847, 9.686340
974.4668, 9.534902
974.9489, 9.494634
975.4310, 9.695841
975.9131, 9.983590
976.3953, 10.00630
976.8774, 9.786104
977.3595, 9.684953
977.8416, 9.823721
978.3237, 9.922622
978.8058, 9.597318
979.2880, 9.164117
979.7701, 8.975245
980.2522, 9.163175
980.7343, 9.361776
981.2164, 9.592239
981.6985, 9.768843
982.1807, 9.802805
982.6628, 9.740724
983.1449, 9.824915
983.6270, 10.02670
984.1091, 10.16715
984.5912, 10.07642
985.0734, 9.964478
985.5555, 9.971986
986.0376, 10.04380
986.5197, 10.02126
987.0018, 9.862863
987.4839, 9.735732
987.9661, 9.649061
988.4482, 9.648437
988.9303, 9.930496
989.4124, 10.30537
989.8945, 10.35499
990.3766, 9.948425
990.8588, 9.614507
991.3409, 9.686205
991.8230, 9.785260
992.3051, 9.635638
992.7872, 9.259358
993.2693, 9.278295
993.7515, 9.708776
994.2336, 10.05650
994.7157, 9.930490
995.1978, 9.686858
995.6799, 9.778373
996.1620, 10.07210
996.6442, 10.25716
997.1263, 10.14982
997.6084, 10.05801
998.0905, 10.00050
998.5726, 9.983264
999.0547, 10.05193
999.5369, 10.18043
1000.019, 10.15910
1000.501, 9.951812
1000.983, 9.827169
1001.465, 10.07901
1001.947, 10.41279
1002.430, 10.63343
1002.912, 10.72289
1003.394, 10.64398
1003.876, 10.32984
1004.358, 10.05236
1004.840, 9.876983
1005.322, 9.841819
1005.804, 10.19013
1006.287, 10.72667
1006.769, 10.96890
1007.251, 10.51955
1007.733, 10.08633
1008.215, 9.853007
1008.697, 9.756876
1009.179, 9.788095
1009.661, 9.969743
1010.143, 9.947779
1010.626, 9.690203
1011.108, 9.534633
1011.590, 9.933292
1012.072, 10.43524
1012.554, 10.53764
1013.036, 10.27528
1013.518, 10.13001
1014.000, 10.29887
1014.483, 10.37660
1014.965, 10.24699
1015.447, 10.00192
1015.929, 9.754450
1016.411, 9.544492
1016.893, 9.556433
1017.375, 9.910975
1017.857, 10.22554
1018.339, 10.20654
1018.822, 10.08402
1019.304, 10.05450
1019.786, 10.12887
1020.268, 10.26786
1020.750, 10.49440
1021.232, 10.63803
1021.714, 10.51690
1022.196, 10.29097
1022.679, 10.20677
1023.161, 10.22752
1023.643, 10.24922
1024.125, 10.23587
1024.607, 10.21958
1025.089, 10.19429
1025.571, 10.18099
1026.053, 10.24599
1026.535, 10.36627
1027.018, 10.31209
1027.500, 10.04170
1027.982, 9.866343
1028.464, 10.19854
1028.946, 10.58506
1029.428, 10.60489
1029.910, 10.24494
1030.392, 10.14894
1030.875, 10.40347
1031.357, 10.60725
1031.839, 10.61880
1032.321, 10.50131
1032.803, 10.26101
1033.285, 9.995473
1033.767, 9.937849
1034.249, 10.34163
1034.731, 10.58828
1035.214, 10.42735
1035.696, 10.15568
1036.178, 9.948772
1036.660, 9.808848
1037.142, 9.880948
1037.624, 10.15295
1038.106, 10.33277
1038.588, 10.06361
1039.071, 9.772778
1039.553, 9.872418
1040.035, 10.22227
1040.517, 10.29651
1040.999, 9.900432
1041.481, 9.724060
1041.963, 9.910186
1042.445, 10.22394
1042.927, 10.41985
1043.410, 10.49839
1043.892, 10.42030
1044.374, 10.16089
1044.856, 9.976829
1045.338, 10.08103
1045.820, 10.15143
1046.302, 10.00944
1046.784, 9.720258
1047.266, 9.615188
1047.749, 9.687047
1048.231, 9.876987
1048.713, 10.24457
1049.195, 10.56868
1049.677, 10.69418
1050.159, 10.66312
1050.641, 10.50476
1051.123, 10.10388
1051.606, 9.944749
1052.088, 10.07760
1052.570, 10.26908
1053.052, 10.37352
1053.534, 10.39722
1054.016, 10.35369
1054.498, 10.24193
1054.980, 10.05519
1055.463, 9.677456
1055.945, 9.363443
1056.427, 9.131804
1056.909, 9.028893
1057.391, 9.191044
1057.873, 9.582244
1058.355, 9.925504
1058.837, 10.18323
1059.319, 10.34381
1059.802, 10.40552
1060.284, 10.35659
1060.766, 10.10816
1061.248, 9.685430
1061.730, 9.503416
1062.212, 9.609928
1062.694, 9.707986
1063.176, 9.675651
1063.658, 9.602859
1064.141, 9.650037
1064.623, 9.739826
1065.105, 9.722848
1065.587, 9.424079
1066.069, 9.346167
1066.551, 9.674846
1067.033, 10.00465
1067.515, 9.972492
1067.998, 9.682445
1068.480, 9.792590
1068.962, 10.21047
1069.444, 10.41541
1069.926, 9.847513
1070.408, 9.300877
1070.890, 9.230317
1071.372, 9.382737
1071.854, 9.361467
1072.337, 9.134976
1072.819, 9.077116
1073.301, 9.241978
1073.783, 9.417310
1074.265, 9.364785
1074.747, 9.251802
1075.229, 9.285433
1075.711, 9.458091
1076.193, 9.451231
1076.676, 9.133672
1077.158, 8.924135
1077.640, 8.951644
1078.122, 9.109641
1078.604, 9.265606
1079.086, 9.399329
1079.568, 9.466019
1080.051, 9.450686
1080.533, 9.392928
1081.015, 9.201640
1081.497, 9.086917
1081.979, 9.220929
1082.461, 9.530728
1082.943, 9.486304
1083.425, 9.138043
1083.907, 8.863451
1084.390, 8.842222
1084.872, 8.943763
1085.354, 9.240073
1085.836, 9.528220
1086.318, 9.540160
1086.800, 9.193460
1087.282, 8.888663
1087.764, 8.628106
1088.246, 8.440684
1088.729, 8.332820
1089.211, 8.322837
1089.693, 8.512658
1090.175, 8.830629
1090.657, 8.995202
1091.139, 8.844091
1091.621, 8.754736
1092.103, 8.789950
1092.586, 8.873791
1093.068, 8.877136
1093.550, 8.856749
1094.032, 9.009518
1094.514, 9.358119
1094.996, 9.526731
1095.478, 9.150036
1095.960, 8.781274
1096.443, 8.593664
1096.925, 8.583298
1097.407, 8.860051
1097.889, 9.355381
1098.371, 9.523293
1098.853, 9.134688
1099.335, 8.702355
1099.817, 8.551524
1100.299, 8.549088
1100.781, 8.609075
1101.264, 8.730196
1101.746, 8.703961
1102.228, 8.513982
1102.710, 8.399278
1103.192, 8.542218
1103.674, 8.736445
1104.156, 8.718976
1104.638, 8.598300
1105.121, 8.558241
1105.603, 8.752843
1106.085, 8.761500
1106.567, 8.523052
1107.049, 8.272527
1107.531, 8.170248
1108.013, 8.198992
1108.495, 8.417256
1108.978, 8.750066
1109.460, 8.912201
1109.942, 8.624141
1110.424, 8.389026
1110.906, 8.285920
1111.388, 8.279695
1111.870, 8.381899
1112.352, 8.545524
1112.834, 8.517794
1113.317, 8.285935
1113.799, 8.145453
1114.281, 8.412984
1114.763, 8.658598
1115.245, 8.639805
1115.727, 8.459060
1116.209, 8.371531
1116.691, 8.373513
1117.173, 8.359971
1117.656, 8.305757
1118.138, 8.248597
1118.620, 8.167171
1119.102, 8.137423
1119.584, 8.283339
1120.066, 8.594743
1120.548, 8.691153
1121.030, 8.534816
1121.513, 8.440423
1121.995, 8.577891
1122.477, 8.719452
1122.959, 8.487773
1123.441, 8.123203
1123.923, 7.977101
1124.405, 8.216921
1124.887, 8.390114
1125.370, 8.490369
1125.852, 8.522848
1126.334, 8.462513
1126.816, 8.355984
1127.298, 8.331028
1127.780, 8.337070
1128.262, 8.252669
1128.744, 7.840965
1129.226, 7.636626
1129.709, 7.760477
1130.191, 7.976932
1130.673, 8.111825
1131.155, 8.167935
1131.637, 8.179925
1132.119, 8.135671
1132.601, 7.964309
1133.083, 7.353812
1133.566, 6.957705
1134.048, 7.092717
1134.530, 7.457888
1135.012, 7.659531
1135.494, 7.716550
1135.976, 7.887517
1136.458, 8.193519
1136.940, 8.415416
1137.422, 8.354921
1137.905, 8.212602
1138.387, 8.080098
1138.869, 7.961859
1139.351, 7.843275
1139.833, 7.718554
1140.315, 7.754726
1140.797, 8.010901
1141.279, 8.222007
1141.761, 8.074432
1142.244, 7.837557
1142.726, 7.765050
1143.208, 7.855203
1143.690, 7.837328
1144.172, 7.695407
1144.654, 7.528130
1145.136, 7.345281
1145.618, 7.211946
1146.101, 7.262986
1146.583, 7.383977
1147.065, 7.436267
1147.547, 7.384588
1148.029, 7.304819
1148.511, 7.157494
1148.993, 7.129267
1149.475, 7.366185
1149.958, 7.675424
1150.440, 7.725052
1150.922, 7.619216
1151.404, 7.543257
1151.886, 7.537143
1152.368, 7.592021
1152.850, 7.741285
1153.332, 7.871409
1153.814, 7.931572
1154.297, 7.911627
1154.779, 7.699550
1155.261, 7.383901
1155.743, 7.221550
1156.225, 7.561759
1156.707, 7.658646
1157.189, 7.266288
1157.671, 6.865919
1158.153, 6.939506
1158.636, 7.348963
1159.118, 7.506595
1159.600, 7.453118
1160.082, 7.441751
1160.564, 7.736260
1161.046, 7.893774
1161.528, 7.691763
1162.010, 7.412017
1162.493, 7.397201
1162.975, 7.605929
1163.457, 7.795157
1163.939, 7.942740
1164.421, 7.961480
1164.903, 7.657825
1165.385, 7.376498
1165.867, 7.332526
1166.349, 7.365496
1166.832, 7.134317
1167.314, 6.679060
1167.796, 6.603823
1168.278, 6.977662
1168.760, 7.407938
1169.242, 7.783091
1169.724, 7.967589
1170.206, 7.719323
1170.688, 7.259247
1171.171, 7.152483
1171.653, 7.392531
1172.135, 7.577550
1172.617, 7.633773
1173.099, 7.617894
1173.581, 7.538453
1174.063, 7.436440
1174.545, 7.328486
1175.028, 7.223331
1175.510, 7.164023
1175.992, 7.150792
1176.474, 7.168002
1176.956, 7.212270
1177.438, 7.283531
1177.920, 7.377403
1178.402, 7.500890
1178.885, 7.729210
1179.367, 8.046049
1179.849, 8.020251
1180.331, 7.616454
1180.813, 7.237360
1181.295, 6.998537
1181.777, 6.895533
1182.259, 7.035951
1182.741, 7.240644
1183.224, 7.297692
1183.706, 7.175935
1184.188, 7.060945
1184.670, 6.939642
1185.152, 6.927348
1185.634, 7.146660
1186.116, 7.372494
1186.598, 7.274505
1187.081, 7.056603
1187.563, 7.018900
1188.045, 7.268183
1188.527, 7.346574
1189.009, 7.219744
1189.491, 7.126680
1189.973, 7.249773
1190.455, 7.412294
1190.938, 7.377452
1191.420, 7.237700
1191.902, 7.146721
1192.384, 7.170028
1192.866, 7.092677
1193.348, 6.873655
1193.830, 6.754462
1194.312, 7.042593
1194.794, 7.394530
1195.276, 7.264000
1195.759, 6.881004
1196.241, 6.726359
1196.723, 6.976903
1197.205, 7.216792
1197.687, 7.446205
1198.169, 7.645244
1198.651, 7.885707
1199.133, 8.021208
1199.616, 7.688945
1200.098, 7.108587
1200.580, 6.854380
1201.062, 7.197978
1201.544, 7.424911
1202.026, 7.493415
1202.508, 7.487410
1202.990, 7.438706
1203.473, 7.386833
1203.955, 7.422157
1204.437, 7.500641
1204.919, 7.463209
1205.401, 7.201913
1205.883, 7.047349
1206.365, 7.039668
1206.847, 7.074268
1207.329, 7.047851
1207.812, 7.006253
1208.294, 7.005943
1208.776, 7.043686
1209.258, 7.100395
1209.740, 7.203958
1210.222, 7.246577
1210.704, 7.214478
1211.186, 7.128406
1211.668, 6.909437
1212.151, 6.716431
1212.633, 6.817953
1213.115, 7.158860
1213.597, 7.356420
1214.079, 7.326636
1214.561, 7.315040
1215.043, 7.358113
1215.525, 7.415597
1216.008, 7.469076
1216.490, 7.495933
1216.972, 7.435792
1217.454, 7.309033
1217.936, 7.302393
1218.418, 7.528800
1218.900, 7.464752
1219.382, 6.950105
1219.865, 6.448567
1220.347, 6.613330
1220.829, 6.976085
1221.311, 6.924534
1221.793, 6.498177
1222.275, 6.459795
1222.757, 6.974894
1223.239, 7.278513
1223.721, 7.194729
1224.203, 7.003982
1224.686, 6.988949
1225.168, 7.043684
1225.650, 7.045028
1226.132, 6.997917
1226.614, 7.050448
1227.096, 7.229459
1227.578, 7.379676
1228.061, 7.480019
1228.543, 7.484204
1229.025, 7.213814
1229.507, 6.922005
1229.989, 6.886972
1230.471, 7.095631
1230.953, 7.219143
1231.435, 7.242280
1231.917, 7.345497
1232.400, 7.601816
1232.882, 7.788007
1233.364, 7.577229
1233.846, 7.290858
1234.328, 7.244177
1234.810, 7.401389
1235.292, 7.478819
1235.774, 7.475485
1236.256, 7.384322
1236.739, 7.179789
1237.221, 7.014740
1237.703, 7.100936
1238.185, 7.209269
1238.667, 7.100006
1239.149, 6.845140
1239.631, 6.820828
1240.113, 7.014241
1240.596, 7.031932
1241.078, 6.742842
1241.560, 6.469403
1242.042, 6.432824
1242.524, 6.523880
1243.006, 6.712435
1243.488, 6.950841
1243.970, 7.019881
1244.453, 6.954860
1244.935, 7.084669
1245.417, 7.541656
1245.899, 7.879630
1246.381, 7.730971
1246.863, 7.477975
1247.345, 7.336401
1247.827, 7.266513
1248.309, 7.148726
1248.792, 6.992474
1249.274, 6.819939
1249.756, 6.623824
1250.238, 6.501832
1250.720, 6.595914
1251.202, 6.654603
1251.684, 6.513575
1252.166, 6.321737
1252.648, 6.568061
1253.131, 7.080839
1253.613, 7.316244
1254.095, 7.108402
1254.577, 6.981705
1255.059, 7.154733
1255.541, 7.370871
1256.023, 7.585721
1256.505, 7.730612
1256.988, 7.580317
1257.470, 7.273292
1257.952, 7.126271
1258.434, 7.225575
1258.916, 7.218725
1259.398, 6.938324
1259.880, 6.829664
1260.362, 7.114195
1260.844, 7.499606
1261.327, 7.488677
1261.809, 7.262248
1262.291, 7.068043
1262.773, 6.942245
1263.255, 6.944108
1263.737, 7.123491
1264.219, 7.240172
1264.701, 7.194184
1265.183, 7.119990
1265.666, 7.151495
1266.148, 7.275009
1266.630, 7.558854
1267.112, 8.003098
1267.594, 8.032177
1268.076, 7.581363
1268.558, 7.235391
1269.040, 7.194198
1269.523, 7.192726
1270.005, 6.948465
1270.487, 6.639297
1270.969, 6.380054
1271.451, 6.198380
1271.933, 6.327168
1272.415, 6.759827
1272.897, 7.053734
1273.380, 7.080815
1273.862, 7.071446
1274.344, 7.205513
1274.826, 7.347578
1275.308, 7.422134
1275.790, 7.434033
1276.272, 7.402062
1276.754, 7.324125
1277.236, 7.150965
1277.719, 6.853209
1278.201, 6.661909
1278.683, 6.788981
1279.165, 6.949852
1279.647, 7.035944
1280.129, 7.077350
1280.611, 7.133038
1281.093, 7.201783
1281.576, 7.321709
1282.058, 7.507927
1282.540, 7.498455
1283.022, 6.950683
1283.504, 6.673359
1283.986, 6.957691
1284.468, 7.425757
1284.950, 7.477143
1285.432, 7.317221
1285.915, 7.281745
1286.397, 7.404410
1286.879, 7.464810
1287.361, 7.455877
1287.843, 7.330618
1288.325, 7.045989
1288.807, 6.773810
1289.289, 6.730142
1289.771, 6.790227
1290.254, 6.830451
1290.736, 6.848716
1291.218, 6.898240
1291.700, 6.981588
1292.182, 7.068449
1292.664, 7.152247
1293.146, 7.254682
1293.628, 7.503431
1294.111, 7.670841
1294.593, 7.490069
1295.075, 7.151288
1295.557, 7.053988
1296.039, 7.174728
1296.521, 7.259966
1297.003, 7.279874
1297.485, 7.296644
1297.968, 7.406667
1298.450, 7.425162
1298.932, 7.194597
1299.414, 6.968467
1299.896, 7.259270
1300.378, 7.855119
1300.860, 8.166697
1301.342, 8.137296
1301.824, 7.801032
##END=



