##NAMES=Stichtite
##RRUFFID=R050328
##IDEAL CHEMISTRY=Mg_6_Cr^3+^_2_CO_3_(OH)_16_&#183;4H_2_O
##LOCALITY=Dundas, Tasmania, Australia
##OWNER=RRUFF
##SOURCE=Marcus Origlieri
##DESCRIPTION=Aggregate of contorted purple plates
##STATUS=The identification of this mineral has been confirmed by X-ray diffraction and chemical analysis
##URL=rruff.info/R050328
##MEASURED CHEMISTRY=Mg_6.00_(Cr_1.11_Al_0.71_Fe^3+^_0.18_)_Σ=2_(CO_3_)(OH)_16_·4H_2_O
92.52344, 2649.863
93.00555, 2628.818
93.48767, 2632.994
93.96979, 2721.207
94.45190, 2809.907
94.93402, 2887.926
95.41614, 2920.066
95.89825, 2921.531
96.38037, 2916.960
96.86249, 2907.098
97.34460, 2895.983
97.82672, 2889.617
98.30884, 2881.162
98.79095, 2869.899
99.27307, 2852.504
99.75519, 2827.911
100.2373, 2803.773
100.7194, 2782.815
101.2015, 2766.391
101.6837, 2754.686
102.1658, 2745.330
102.6479, 2736.077
103.1300, 2726.452
103.6121, 2719.064
104.0942, 2716.405
104.5764, 2716.809
105.0585, 2718.775
105.5406, 2722.300
106.0227, 2726.846
106.5048, 2730.693
106.9869, 2732.126
107.4691, 2733.641
107.9512, 2736.621
108.4333, 2740.633
108.9154, 2744.605
109.3975, 2747.094
109.8796, 2747.396
110.3618, 2750.216
110.8439, 2757.460
111.3260, 2765.418
111.8081, 2772.520
112.2902, 2778.532
112.7723, 2784.221
113.2544, 2790.627
113.7366, 2797.949
114.2187, 2805.816
114.7008, 2814.812
115.1829, 2823.994
115.6650, 2832.340
116.1471, 2839.497
116.6293, 2846.034
117.1114, 2853.353
117.5935, 2861.968
118.0756, 2870.185
118.5577, 2877.235
119.0398, 2883.531
119.5220, 2889.963
120.0041, 2896.368
120.4862, 2903.744
120.9683, 2913.804
121.4504, 2927.727
121.9325, 2942.191
122.4147, 2954.596
122.8968, 2964.823
123.3789, 2974.202
123.8610, 2982.767
124.3431, 2990.971
124.8252, 2999.319
125.3074, 3008.214
125.7895, 3017.010
126.2716, 3023.994
126.7537, 3027.217
127.2358, 3032.095
127.7179, 3041.460
128.2001, 3052.941
128.6822, 3063.594
129.1643, 3071.543
129.6464, 3076.980
130.1285, 3081.867
130.6107, 3087.220
131.0928, 3091.011
131.5749, 3091.394
132.0570, 3089.616
132.5391, 3088.435
133.0212, 3090.426
133.5034, 3096.292
133.9855, 3100.815
134.4676, 3104.465
134.9497, 3106.791
135.4318, 3107.186
135.9139, 3105.748
136.3960, 3103.423
136.8782, 3101.132
137.3603, 3098.840
137.8424, 3096.920
138.3245, 3096.907
138.8066, 3096.699
139.2887, 3093.489
139.7709, 3086.339
140.2530, 3077.478
140.7351, 3069.066
141.2172, 3061.057
141.6993, 3054.189
142.1814, 3049.791
142.6636, 3047.086
143.1457, 3043.192
143.6278, 3037.438
144.1099, 3030.232
144.5920, 3021.624
145.0741, 3011.715
145.5563, 3001.958
146.0384, 2994.092
146.5205, 2988.502
147.0026, 2981.700
147.4847, 2971.415
147.9668, 2960.790
148.4490, 2951.511
148.9311, 2943.964
149.4132, 2937.307
149.8953, 2930.438
150.3774, 2923.523
150.8595, 2915.846
151.3417, 2906.892
151.8238, 2897.582
152.3059, 2888.601
152.7880, 2880.263
153.2701, 2872.346
153.7522, 2864.438
154.2344, 2857.357
154.7165, 2849.286
155.1986, 2839.215
155.6807, 2828.346
156.1628, 2818.379
156.6449, 2810.295
157.1271, 2803.369
157.6092, 2794.562
158.0913, 2782.161
158.5734, 2770.145
159.0555, 2760.702
159.5376, 2752.703
160.0198, 2742.952
160.5019, 2729.162
160.9840, 2712.511
161.4661, 2697.886
161.9482, 2686.093
162.4303, 2675.313
162.9125, 2664.600
163.3946, 2653.953
163.8767, 2643.401
164.3588, 2633.106
164.8409, 2622.937
165.3230, 2612.559
165.8052, 2601.827
166.2873, 2590.991
166.7694, 2580.626
167.2515, 2570.848
167.7336, 2561.020
168.2157, 2550.608
168.6979, 2539.999
169.1800, 2529.551
169.6621, 2519.380
170.1442, 2509.497
170.6263, 2499.708
171.1084, 2489.216
171.5906, 2480.323
172.0727, 2474.731
172.5548, 2470.719
173.0369, 2465.824
173.5190, 2458.396
174.0011, 2448.787
174.4833, 2439.993
174.9654, 2431.964
175.4475, 2424.897
175.9296, 2419.095
176.4117, 2414.298
176.8938, 2410.080
177.3760, 2406.199
177.8581, 2402.671
178.3402, 2398.756
178.8223, 2394.209
179.3044, 2389.586
179.7865, 2384.730
180.2687, 2379.903
180.7508, 2375.815
181.2329, 2373.236
181.7150, 2372.360
182.1971, 2370.510
182.6792, 2367.502
183.1614, 2363.870
183.6435, 2359.563
184.1256, 2354.724
184.6077, 2350.060
185.0898, 2346.183
185.5719, 2343.190
186.0541, 2340.484
186.5362, 2338.692
187.0183, 2336.802
187.5004, 2333.408
187.9825, 2328.243
188.4646, 2323.466
188.9468, 2321.744
189.4289, 2322.295
189.9110, 2321.923
190.3931, 2319.172
190.8752, 2315.308
191.3573, 2312.495
191.8395, 2311.360
192.3216, 2309.917
192.8037, 2305.561
193.2858, 2299.637
193.7679, 2295.336
194.2500, 2295.488
194.7322, 2298.529
195.2143, 2299.340
195.6964, 2297.090
196.1785, 2293.564
196.6606, 2289.075
197.1427, 2284.210
197.6249, 2280.323
198.1070, 2278.500
198.5891, 2278.556
199.0712, 2278.753
199.5533, 2280.188
200.0354, 2280.397
200.5176, 2277.814
200.9997, 2273.267
201.4818, 2268.597
201.9639, 2265.271
202.4460, 2263.319
202.9281, 2261.293
203.4103, 2259.249
203.8924, 2257.084
204.3745, 2254.713
204.8566, 2252.182
205.3387, 2249.616
205.8208, 2247.060
206.3030, 2244.438
206.7851, 2242.575
207.2672, 2241.962
207.7493, 2241.569
208.2314, 2241.347
208.7135, 2241.073
209.1957, 2240.209
209.6778, 2238.109
210.1599, 2234.443
210.6420, 2232.257
211.1241, 2233.235
211.6062, 2233.922
212.0884, 2232.105
212.5705, 2228.038
213.0526, 2223.682
213.5347, 2220.662
214.0168, 2219.149
214.4989, 2218.450
214.9811, 2219.972
215.4632, 2221.159
215.9453, 2220.036
216.4274, 2216.610
216.9095, 2212.632
217.3916, 2209.547
217.8737, 2207.395
218.3559, 2205.110
218.8380, 2201.595
219.3201, 2198.639
219.8022, 2198.564
220.2843, 2201.543
220.7664, 2204.091
221.2486, 2202.895
221.7307, 2198.769
222.2128, 2195.363
222.6949, 2193.579
223.1770, 2192.537
223.6591, 2191.244
224.1413, 2189.613
224.6234, 2188.106
225.1055, 2187.280
225.5876, 2186.796
226.0697, 2186.036
226.5518, 2184.696
227.0340, 2183.057
227.5161, 2181.363
227.9982, 2179.430
228.4803, 2178.070
228.9624, 2178.353
229.4445, 2179.353
229.9267, 2179.900
230.4088, 2179.563
230.8909, 2178.545
231.3730, 2177.183
231.8551, 2175.424
232.3372, 2173.462
232.8194, 2171.395
233.3015, 2169.188
233.7836, 2166.612
234.2657, 2163.310
234.7478, 2160.015
235.2299, 2158.661
235.7121, 2160.571
236.1942, 2161.769
236.6763, 2160.507
237.1584, 2158.286
237.6405, 2156.827
238.1227, 2156.980
238.6048, 2157.854
239.0869, 2157.063
239.5690, 2153.451
240.0511, 2150.130
240.5332, 2147.733
241.0154, 2145.852
241.4975, 2144.179
241.9796, 2142.584
242.4617, 2141.011
242.9438, 2139.235
243.4259, 2136.333
243.9081, 2134.807
244.3902, 2136.354
244.8723, 2138.573
245.3544, 2139.159
245.8365, 2137.227
246.3186, 2133.603
246.8008, 2130.032
247.2829, 2125.481
247.7650, 2122.687
248.2471, 2122.637
248.7292, 2123.792
249.2113, 2125.065
249.6935, 2126.007
250.1756, 2126.370
250.6577, 2125.606
251.1398, 2122.207
251.6219, 2119.835
252.1040, 2119.424
252.5862, 2119.498
253.0683, 2118.720
253.5504, 2116.716
254.0325, 2114.051
254.5146, 2111.569
254.9967, 2108.757
255.4789, 2107.357
255.9610, 2109.198
256.4431, 2111.416
256.9252, 2111.105
257.4073, 2107.700
257.8894, 2103.399
258.3716, 2101.186
258.8537, 2102.200
259.3358, 2102.581
259.8179, 2101.604
260.3000, 2100.438
260.7821, 2100.435
261.2643, 2101.749
261.7464, 2102.902
262.2285, 2102.110
262.7106, 2098.750
263.1927, 2096.292
263.6748, 2095.190
264.1570, 2094.739
264.6391, 2094.483
265.1212, 2094.341
265.6033, 2094.227
266.0854, 2094.186
266.5675, 2094.181
267.0497, 2093.476
267.5318, 2091.499
268.0139, 2089.196
268.4960, 2086.911
268.9781, 2084.753
269.4602, 2083.701
269.9424, 2085.076
270.4245, 2088.425
270.9066, 2090.177
271.3887, 2090.026
271.8708, 2088.439
272.3529, 2084.753
272.8351, 2079.252
273.3172, 2075.092
273.7993, 2074.708
274.2814, 2077.101
274.7635, 2078.464
275.2456, 2078.386
275.7278, 2077.660
276.2099, 2076.124
276.6920, 2074.015
277.1741, 2073.495
277.6562, 2076.606
278.1383, 2081.303
278.6205, 2083.200
279.1026, 2081.151
279.5847, 2078.808
280.0668, 2078.843
280.5489, 2080.851
281.0310, 2082.410
281.5132, 2082.422
281.9953, 2081.831
282.4774, 2082.263
282.9595, 2084.002
283.4416, 2085.074
283.9237, 2083.574
284.4059, 2080.203
284.8880, 2078.039
285.3701, 2078.348
285.8522, 2079.401
286.3343, 2079.231
286.8164, 2077.907
287.2986, 2076.764
287.7807, 2076.614
288.2628, 2077.216
288.7449, 2077.889
289.2270, 2078.764
289.7091, 2079.270
290.1913, 2078.665
290.6734, 2077.254
291.1555, 2076.121
291.6376, 2075.806
292.1197, 2076.123
292.6018, 2076.919
293.0840, 2078.735
293.5661, 2079.678
294.0482, 2077.566
294.5303, 2073.821
295.0124, 2071.041
295.4945, 2071.025
295.9767, 2072.162
296.4588, 2071.204
296.9409, 2067.392
297.4230, 2064.109
297.9051, 2063.749
298.3872, 2064.734
298.8694, 2065.268
299.3515, 2064.688
299.8336, 2063.741
300.3157, 2063.938
300.7978, 2065.761
301.2799, 2065.733
301.7621, 2059.486
302.2442, 2052.332
302.7263, 2049.687
303.2084, 2053.129
303.6905, 2057.414
304.1726, 2056.288
304.6548, 2049.435
305.1369, 2044.854
305.6190, 2046.234
306.1011, 2049.228
306.5832, 2050.695
307.0653, 2050.421
307.5475, 2049.422
308.0296, 2047.981
308.5117, 2046.224
308.9938, 2045.760
309.4759, 2047.813
309.9580, 2050.048
310.4402, 2051.086
310.9223, 2051.015
311.4044, 2050.259
311.8865, 2048.612
312.3686, 2046.385
312.8507, 2044.871
313.3329, 2044.043
313.8150, 2044.073
314.2971, 2046.028
314.7792, 2048.705
315.2613, 2049.753
315.7434, 2047.324
316.2256, 2043.111
316.7077, 2040.724
317.1898, 2040.447
317.6719, 2041.199
318.1540, 2043.633
318.6361, 2046.373
319.1183, 2047.871
319.6004, 2047.568
320.0825, 2046.180
320.5646, 2044.559
321.0467, 2042.690
321.5288, 2040.683
322.0110, 2038.535
322.4931, 2036.273
322.9752, 2033.716
323.4573, 2030.828
323.9394, 2028.351
324.4215, 2027.686
324.9037, 2028.771
325.3858, 2027.813
325.8679, 2022.095
326.3500, 2016.237
326.8321, 2013.766
327.3142, 2014.327
327.7964, 2015.263
328.2785, 2015.081
328.7606, 2013.869
329.2427, 2011.984
329.7248, 2009.300
330.2069, 2006.171
330.6891, 2002.703
331.1712, 1999.011
331.6533, 1995.301
332.1354, 1991.629
332.6175, 1988.016
333.0996, 1984.420
333.5818, 1980.689
334.0639, 1977.407
334.5460, 1975.282
335.0281, 1973.633
335.5102, 1971.645
335.9923, 1968.895
336.4745, 1966.210
336.9566, 1964.894
337.4387, 1965.077
337.9208, 1964.422
338.4029, 1961.427
338.8850, 1957.752
339.3671, 1955.125
339.8492, 1953.736
340.3314, 1952.426
340.8135, 1950.037
341.2956, 1946.814
341.7777, 1944.516
342.2598, 1943.922
342.7419, 1943.670
343.2241, 1942.589
343.7062, 1940.799
344.1883, 1938.875
344.6704, 1936.717
345.1525, 1934.669
345.6346, 1933.647
346.1168, 1933.968
346.5989, 1934.431
347.0810, 1934.250
347.5631, 1933.605
348.0452, 1932.743
348.5273, 1931.972
349.0095, 1930.797
349.4916, 1928.107
349.9737, 1923.861
350.4558, 1920.619
350.9379, 1919.770
351.4200, 1920.645
351.9022, 1922.307
352.3843, 1925.373
352.8664, 1927.390
353.3485, 1925.890
353.8306, 1921.761
354.3127, 1918.662
354.7949, 1918.000
355.2770, 1918.015
355.7591, 1916.270
356.2412, 1912.818
356.7233, 1909.646
357.2054, 1907.074
357.6876, 1905.338
358.1697, 1905.523
358.6518, 1908.142
359.1339, 1909.952
359.6160, 1907.338
360.0981, 1901.153
360.5803, 1896.205
361.0624, 1894.100
361.5445, 1892.676
362.0266, 1889.752
362.5087, 1885.596
362.9908, 1882.574
363.4730, 1882.188
363.9551, 1883.810
364.4372, 1885.377
364.9193, 1887.452
365.4014, 1888.575
365.8835, 1887.772
366.3657, 1885.621
366.8478, 1883.000
367.3299, 1880.023
367.8120, 1877.405
368.2941, 1876.390
368.7762, 1877.175
369.2584, 1878.474
369.7405, 1881.258
370.2226, 1883.815
370.7047, 1884.305
371.1868, 1882.558
371.6689, 1879.803
372.1511, 1876.934
372.6332, 1873.952
373.1153, 1871.657
373.5974, 1870.913
374.0795, 1869.935
374.5616, 1867.182
375.0438, 1863.461
375.5259, 1860.966
376.0080, 1861.046
376.4901, 1862.880
376.9722, 1863.570
377.4543, 1862.543
377.9365, 1861.128
378.4186, 1859.048
378.9007, 1856.815
379.3828, 1854.861
379.8649, 1853.338
380.3470, 1852.451
380.8292, 1852.627
381.3113, 1854.642
381.7934, 1855.319
382.2755, 1853.821
382.7576, 1851.907
383.2397, 1850.572
383.7219, 1849.758
384.2040, 1848.907
384.6861, 1847.583
385.1682, 1845.820
385.6503, 1844.054
386.1324, 1841.906
386.6146, 1840.230
387.0967, 1839.453
387.5788, 1839.168
388.0609, 1839.078
388.5430, 1839.046
389.0251, 1838.625
389.5073, 1836.651
389.9894, 1831.624
390.4715, 1828.206
390.9536, 1827.026
391.4357, 1826.952
391.9178, 1827.974
392.4000, 1829.645
392.8821, 1830.600
393.3642, 1829.262
393.8463, 1825.537
394.3284, 1822.318
394.8105, 1819.121
395.2927, 1817.073
395.7748, 1817.543
396.2569, 1819.188
396.7390, 1819.717
397.2211, 1817.779
397.7032, 1814.524
398.1854, 1812.535
398.6675, 1812.149
399.1496, 1812.022
399.6317, 1811.914
400.1138, 1811.852
400.5959, 1812.208
401.0781, 1813.010
401.5602, 1813.024
402.0423, 1810.070
402.5244, 1804.605
403.0065, 1801.999
403.4886, 1804.584
403.9708, 1807.670
404.4529, 1807.898
404.9350, 1805.979
405.4171, 1803.824
405.8992, 1801.465
406.3813, 1799.738
406.8635, 1800.647
407.3456, 1804.579
407.8277, 1807.544
408.3098, 1807.080
408.7919, 1804.621
409.2740, 1802.589
409.7562, 1801.045
410.2383, 1800.121
410.7204, 1799.911
411.2025, 1800.384
411.6846, 1801.723
412.1667, 1804.344
412.6489, 1806.808
413.1310, 1806.967
413.6131, 1804.915
414.0952, 1803.288
414.5773, 1802.628
415.0594, 1802.526
415.5416, 1802.679
416.0237, 1803.057
416.5058, 1803.749
416.9879, 1805.053
417.4700, 1806.641
417.9521, 1806.744
418.4343, 1803.863
418.9164, 1801.544
419.3985, 1800.532
419.8806, 1800.723
420.3627, 1802.405
420.8448, 1805.643
421.3270, 1809.135
421.8091, 1810.923
422.2912, 1810.366
422.7733, 1809.731
423.2554, 1808.035
423.7375, 1807.100
424.2197, 1809.281
424.7018, 1813.432
425.1839, 1815.743
425.6660, 1813.179
426.1481, 1806.703
426.6302, 1802.861
427.1124, 1805.003
427.5945, 1805.807
428.0766, 1802.560
428.5587, 1798.508
429.0408, 1797.026
429.5229, 1799.090
430.0051, 1803.072
430.4872, 1807.538
430.9693, 1813.586
431.4514, 1815.508
431.9335, 1808.376
432.4156, 1801.208
432.8978, 1797.376
433.3799, 1796.454
433.8620, 1796.674
434.3441, 1797.284
434.8262, 1798.019
435.3083, 1797.911
435.7905, 1796.410
436.2726, 1795.582
436.7547, 1797.394
437.2368, 1799.555
437.7189, 1799.854
438.2010, 1797.803
438.6832, 1795.083
439.1653, 1792.796
439.6474, 1790.973
440.1295, 1789.787
440.6116, 1789.322
441.0938, 1789.410
441.5759, 1789.997
442.0580, 1791.009
442.5401, 1792.319
443.0222, 1794.524
443.5043, 1796.573
443.9865, 1796.737
444.4686, 1795.330
444.9507, 1795.592
445.4328, 1800.106
445.9149, 1806.106
446.3970, 1806.771
446.8792, 1800.262
447.3613, 1794.820
447.8434, 1793.123
448.3255, 1793.501
448.8076, 1794.168
449.2897, 1794.762
449.7719, 1795.269
450.2540, 1795.623
450.7361, 1795.809
451.2182, 1796.413
451.7003, 1797.941
452.1824, 1799.279
452.6646, 1800.347
453.1467, 1800.894
453.6288, 1800.093
454.1109, 1797.574
454.5930, 1794.757
455.0751, 1794.598
455.5573, 1798.848
456.0394, 1802.403
456.5215, 1805.839
457.0036, 1808.213
457.4857, 1808.741
457.9678, 1807.644
458.4500, 1805.621
458.9321, 1802.829
459.4142, 1799.696
459.8963, 1798.932
460.3784, 1802.124
460.8605, 1804.893
461.3427, 1805.946
461.8248, 1806.169
462.3069, 1806.658
462.7890, 1807.688
463.2711, 1807.978
463.7532, 1805.643
464.2354, 1800.909
464.7175, 1797.265
465.1996, 1795.656
465.6817, 1794.314
466.1638, 1792.267
466.6459, 1789.523
467.1281, 1785.937
467.6102, 1780.378
468.0923, 1774.935
468.5744, 1772.934
469.0565, 1773.870
469.5386, 1772.576
470.0208, 1766.220
470.5029, 1757.596
470.9850, 1752.039
471.4671, 1750.179
471.9492, 1747.041
472.4313, 1740.545
472.9135, 1732.615
473.3956, 1724.600
473.8777, 1716.923
474.3598, 1710.907
474.8419, 1707.948
475.3240, 1707.624
475.8062, 1705.775
476.2883, 1701.008
476.7704, 1696.669
477.2525, 1693.596
477.7346, 1691.253
478.2167, 1689.175
478.6989, 1687.160
479.1810, 1684.964
479.6631, 1682.127
480.1452, 1678.398
480.6273, 1675.402
481.1094, 1674.094
481.5916, 1672.538
482.0737, 1669.770
482.5558, 1666.367
483.0379, 1663.362
483.5200, 1661.244
484.0021, 1659.705
484.4843, 1658.330
484.9664, 1657.285
485.4485, 1655.542
485.9306, 1651.465
486.4127, 1647.898
486.8948, 1647.591
487.3770, 1649.929
487.8591, 1651.195
488.3412, 1647.876
488.8233, 1642.504
489.3054, 1640.614
489.7875, 1642.680
490.2697, 1643.947
490.7518, 1641.454
491.2339, 1636.921
491.7160, 1633.867
492.1981, 1632.535
492.6802, 1632.009
493.1624, 1632.455
493.6445, 1633.287
494.1266, 1633.547
494.6087, 1633.084
495.0908, 1632.549
495.5729, 1632.568
496.0551, 1633.127
496.5372, 1633.225
497.0193, 1632.461
497.5014, 1631.781
497.9835, 1631.466
498.4656, 1631.411
498.9478, 1631.612
499.4299, 1632.024
499.9120, 1632.213
500.3941, 1631.371
500.8762, 1628.905
501.3583, 1627.758
501.8405, 1629.411
502.3226, 1630.878
502.8047, 1630.596
503.2868, 1629.435
503.7689, 1628.964
504.2510, 1629.912
504.7331, 1632.088
505.2152, 1635.744
505.6974, 1641.434
506.1795, 1645.125
506.6616, 1643.820
507.1437, 1642.333
507.6258, 1644.297
508.1079, 1649.358
508.5901, 1655.050
509.0722, 1660.926
509.5543, 1666.380
510.0364, 1670.041
510.5185, 1671.943
511.0006, 1674.619
511.4828, 1679.421
511.9649, 1685.561
512.4470, 1691.208
512.9291, 1695.919
513.4113, 1701.649
513.8934, 1709.340
514.3755, 1717.978
514.8576, 1726.534
515.3397, 1734.927
515.8218, 1743.384
516.3040, 1752.053
516.7861, 1761.006
517.2682, 1770.634
517.7503, 1780.667
518.2324, 1791.738
518.7145, 1804.732
519.1967, 1818.393
519.6788, 1830.941
520.1609, 1842.469
520.6430, 1855.408
521.1251, 1872.824
521.6072, 1894.620
522.0894, 1913.715
522.5715, 1928.253
523.0536, 1943.074
523.5357, 1960.413
524.0178, 1978.648
524.4999, 1995.806
524.9821, 2011.343
525.4642, 2026.584
525.9463, 2042.458
526.4284, 2058.996
526.9105, 2077.159
527.3926, 2097.452
527.8748, 2117.936
528.3569, 2137.191
528.8390, 2155.435
529.3211, 2173.683
529.8032, 2192.265
530.2853, 2210.532
530.7675, 2227.360
531.2496, 2243.684
531.7317, 2261.896
532.2138, 2282.809
532.6959, 2303.658
533.1780, 2320.869
533.6602, 2333.846
534.1423, 2346.907
534.6244, 2360.269
535.1065, 2373.540
535.5886, 2387.640
536.0707, 2401.195
536.5529, 2412.490
537.0350, 2420.746
537.5171, 2425.833
537.9992, 2427.469
538.4813, 2425.710
538.9634, 2420.293
539.4456, 2410.835
539.9277, 2397.805
540.4098, 2380.869
540.8919, 2360.842
541.3740, 2339.420
541.8561, 2317.732
542.3383, 2293.967
542.8204, 2265.740
543.3025, 2233.304
543.7846, 2198.685
544.2667, 2161.446
544.7488, 2124.058
545.2310, 2089.591
545.7131, 2057.690
546.1952, 2024.705
546.6773, 1987.862
547.1594, 1952.087
547.6415, 1921.068
548.1237, 1893.678
548.6058, 1866.234
549.0879, 1837.379
549.5700, 1808.500
550.0521, 1781.841
550.5342, 1757.593
551.0164, 1735.550
551.4985, 1716.228
551.9806, 1698.379
552.4627, 1680.834
552.9448, 1664.347
553.4269, 1650.547
553.9091, 1640.316
554.3912, 1631.919
554.8733, 1622.450
555.3554, 1611.735
555.8375, 1600.752
556.3196, 1588.726
556.8018, 1577.528
557.2839, 1568.466
557.7660, 1561.034
558.2481, 1553.870
558.7302, 1546.123
559.2123, 1538.919
559.6945, 1533.974
560.1766, 1530.766
560.6587, 1527.073
561.1408, 1522.288
561.6229, 1516.545
562.1050, 1509.661
562.5872, 1501.371
563.0693, 1494.183
563.5514, 1487.582
564.0335, 1482.671
564.5156, 1481.338
564.9977, 1481.846
565.4799, 1481.031
565.9620, 1477.649
566.4441, 1473.039
566.9262, 1469.329
567.4083, 1466.806
567.8904, 1463.991
568.3726, 1459.579
568.8547, 1456.267
569.3368, 1456.431
569.8189, 1457.942
570.3010, 1457.082
570.7831, 1452.179
571.2653, 1446.108
571.7474, 1442.309
572.2295, 1440.500
572.7116, 1438.097
573.1937, 1434.359
573.6758, 1430.848
574.1580, 1429.238
574.6401, 1429.015
575.1222, 1428.151
575.6043, 1425.995
576.0864, 1423.688
576.5685, 1421.731
577.0507, 1420.029
577.5328, 1418.486
578.0149, 1417.066
578.4970, 1415.620
578.9791, 1413.992
579.4612, 1412.185
579.9434, 1410.253
580.4255, 1408.064
580.9076, 1405.909
581.3897, 1403.501
581.8718, 1401.313
582.3539, 1400.120
582.8361, 1399.971
583.3182, 1399.762
583.8003, 1397.790
584.2824, 1394.502
584.7645, 1393.617
585.2466, 1396.152
585.7288, 1398.201
586.2108, 1397.643
586.6929, 1395.506
587.1750, 1393.007
587.6572, 1389.964
588.1393, 1387.705
588.6214, 1387.475
589.1035, 1388.044
589.5856, 1387.837
590.0677, 1386.727
590.5499, 1385.276
591.0320, 1383.820
591.5141, 1382.342
591.9962, 1380.814
592.4783, 1379.638
592.9604, 1377.829
593.4426, 1374.422
593.9247, 1371.187
594.4068, 1369.375
594.8889, 1368.892
595.3710, 1368.984
595.8531, 1369.258
596.3353, 1369.627
596.8174, 1370.131
597.2995, 1371.015
597.7816, 1370.507
598.2637, 1367.180
598.7458, 1363.434
599.2280, 1361.218
599.7101, 1360.370
600.1922, 1359.997
600.6743, 1360.017
601.1564, 1360.217
601.6385, 1360.863
602.1207, 1361.560
602.6028, 1360.936
603.0849, 1358.460
603.5670, 1355.398
604.0491, 1353.434
604.5313, 1352.844
605.0134, 1351.609
605.4955, 1348.264
605.9776, 1346.035
606.4597, 1347.399
606.9418, 1349.841
607.4240, 1349.618
607.9061, 1345.865
608.3882, 1341.695
608.8703, 1341.190
609.3524, 1343.976
609.8345, 1344.635
610.3167, 1342.075
610.7988, 1340.005
611.2809, 1341.196
611.7630, 1343.543
612.2451, 1344.080
612.7272, 1342.250
613.2094, 1340.142
613.6915, 1338.171
614.1736, 1336.738
614.6557, 1336.896
615.1378, 1338.376
615.6199, 1339.131
616.1021, 1337.831
616.5842, 1335.188
617.0663, 1333.249
617.5484, 1332.344
618.0305, 1331.580
618.5126, 1331.483
618.9948, 1331.018
619.4769, 1328.821
619.9590, 1325.826
620.4411, 1324.403
620.9232, 1326.012
621.4053, 1328.640
621.8875, 1328.690
622.3696, 1326.227
622.8517, 1325.282
623.3338, 1327.301
623.8159, 1329.476
624.2980, 1329.500
624.7802, 1327.795
625.2623, 1325.590
625.7444, 1322.241
626.2265, 1319.421
626.7086, 1318.243
627.1907, 1317.912
627.6729, 1317.150
628.1550, 1315.805
628.6371, 1314.933
629.1192, 1315.625
629.6013, 1317.563
630.0834, 1318.034
630.5656, 1315.853
631.0477, 1314.147
631.5298, 1313.746
632.0119, 1313.625
632.4940, 1312.928
632.9761, 1311.720
633.4583, 1310.740
633.9404, 1310.567
634.4225, 1310.761
634.9046, 1310.862
635.3867, 1310.821
635.8688, 1309.839
636.3510, 1307.418
636.8331, 1304.571
637.3152, 1302.438
637.7973, 1301.076
638.2794, 1300.043
638.7615, 1299.162
639.2437, 1298.798
639.7258, 1299.531
640.2079, 1300.695
640.6900, 1301.550
641.1721, 1301.828
641.6542, 1301.287
642.1364, 1299.287
642.6185, 1296.050
643.1006, 1294.837
643.5827, 1296.807
644.0648, 1298.230
644.5469, 1297.298
645.0291, 1295.525
645.5112, 1294.076
645.9933, 1293.050
646.4754, 1292.406
646.9575, 1292.538
647.4396, 1292.760
647.9218, 1292.306
648.4039, 1291.262
648.8860, 1289.981
649.3681, 1288.557
649.8502, 1287.327
650.3323, 1286.886
650.8145, 1287.553
651.2966, 1287.540
651.7787, 1286.345
652.2608, 1285.073
652.7429, 1283.844
653.2250, 1282.818
653.7072, 1282.371
654.1893, 1282.541
654.6714, 1282.506
655.1535, 1281.030
655.6356, 1278.732
656.1177, 1277.905
656.5999, 1278.782
657.0820, 1279.695
657.5641, 1279.907
658.0462, 1279.691
658.5283, 1279.532
659.0104, 1279.459
659.4926, 1279.304
659.9747, 1278.928
660.4568, 1278.571
660.9389, 1278.350
661.4210, 1278.268
661.9031, 1278.525
662.3853, 1279.157
662.8674, 1279.400
663.3495, 1277.746
663.8316, 1273.957
664.3137, 1271.943
664.7958, 1272.303
665.2780, 1273.341
665.7601, 1274.629
666.2422, 1276.035
666.7243, 1277.492
667.2064, 1279.034
667.6885, 1280.268
668.1707, 1281.174
668.6528, 1281.583
669.1349, 1281.201
669.6170, 1280.124
670.0991, 1278.689
670.5812, 1277.043
671.0634, 1275.314
671.5455, 1273.607
672.0276, 1271.602
672.5097, 1270.904
672.9918, 1273.657
673.4739, 1275.368
673.9561, 1273.598
674.4382, 1270.483
674.9203, 1268.926
675.4024, 1269.650
675.8845, 1270.772
676.3666, 1270.885
676.8488, 1270.281
677.3309, 1269.377
677.8130, 1268.214
678.2951, 1267.461
678.7772, 1267.430
679.2593, 1268.005
679.7415, 1269.163
680.2236, 1271.585
680.7057, 1272.334
681.1878, 1269.584
681.6699, 1267.150
682.1520, 1267.432
682.6342, 1268.884
683.1163, 1268.877
683.5984, 1266.683
684.0805, 1264.137
684.5626, 1263.606
685.0447, 1264.539
685.5269, 1263.672
686.0090, 1260.602
686.4911, 1257.774
686.9732, 1256.286
687.4553, 1255.594
687.9374, 1255.019
688.4196, 1254.659
688.9017, 1253.694
689.3838, 1252.035
689.8659, 1249.716
690.3480, 1246.011
690.8301, 1241.889
691.3123, 1238.906
691.7944, 1237.567
692.2765, 1237.321
692.7586, 1237.797
693.2407, 1238.896
693.7228, 1239.184
694.2050, 1238.424
694.6871, 1237.499
695.1692, 1237.139
695.6513, 1236.400
696.1334, 1233.972
696.6155, 1229.863
697.0977, 1226.247
697.5798, 1223.530
698.0619, 1221.732
698.5440, 1221.650
699.0261, 1222.329
699.5082, 1221.639
699.9904, 1219.061
700.4725, 1216.237
700.9546, 1215.054
701.4367, 1215.360
701.9188, 1214.715
702.4009, 1212.546
702.8831, 1210.576
703.3652, 1209.272
703.8473, 1208.294
704.3294, 1207.418
704.8115, 1206.644
705.2936, 1206.074
705.7758, 1206.124
706.2579, 1206.029
706.7400, 1205.118
707.2221, 1203.584
707.7042, 1201.560
708.1863, 1199.153
708.6685, 1197.353
709.1506, 1197.255
709.6327, 1198.497
710.1148, 1198.223
710.5969, 1195.087
711.0790, 1192.914
711.5612, 1192.948
712.0433, 1193.378
712.5254, 1193.338
713.0075, 1192.738
713.4896, 1191.507
713.9717, 1189.245
714.4539, 1187.048
714.9360, 1186.107
715.4181, 1185.925
715.9002, 1185.455
716.3823, 1184.517
716.8644, 1183.103
717.3466, 1181.000
717.8287, 1178.711
718.3108, 1178.237
718.7929, 1181.601
719.2750, 1182.912
719.7571, 1180.572
720.2393, 1177.696
720.7214, 1175.299
721.2035, 1173.612
721.6856, 1173.083
722.1677, 1174.117
722.6498, 1174.933
723.1320, 1173.659
723.6141, 1171.219
724.0962, 1169.400
724.5783, 1168.346
725.0604, 1167.914
725.5425, 1168.190
726.0247, 1168.537
726.5068, 1167.548
726.9889, 1164.514
727.4710, 1162.315
727.9531, 1161.424
728.4352, 1160.824
728.9174, 1160.408
729.3995, 1159.991
729.8816, 1159.029
730.3637, 1157.470
730.8458, 1156.859
731.3279, 1159.536
731.8101, 1163.200
732.2922, 1163.835
732.7743, 1161.760
733.2564, 1159.342
733.7385, 1157.315
734.2206, 1156.216
734.7028, 1157.190
735.1849, 1160.593
735.6670, 1160.629
736.1491, 1152.762
736.6312, 1147.335
737.1133, 1147.755
737.5955, 1149.950
738.0776, 1150.232
738.5597, 1148.653
739.0418, 1147.820
739.5239, 1149.914
740.0060, 1152.347
740.4882, 1151.811
740.9703, 1149.142
741.4524, 1146.748
741.9345, 1145.139
742.4166, 1144.235
742.8987, 1144.154
743.3809, 1144.593
743.8630, 1143.914
744.3451, 1140.323
744.8272, 1138.915
745.3093, 1142.764
745.7914, 1145.982
746.2736, 1144.340
746.7557, 1139.927
747.2378, 1137.405
747.7199, 1138.589
748.2020, 1140.339
748.6841, 1140.249
749.1663, 1139.141
749.6484, 1138.391
750.1305, 1138.063
750.6126, 1137.711
751.0947, 1137.128
751.5768, 1136.276
752.0590, 1134.933
752.5411, 1132.756
753.0232, 1131.789
753.5053, 1133.191
753.9874, 1134.270
754.4695, 1134.241
754.9517, 1133.490
755.4338, 1132.038
755.9159, 1129.982
756.3980, 1128.766
756.8801, 1130.417
757.3622, 1132.060
757.8444, 1129.878
758.3265, 1125.624
758.8086, 1124.107
759.2907, 1126.380
759.7728, 1128.632
760.2549, 1126.946
760.7371, 1122.165
761.2192, 1119.585
761.7013, 1119.698
762.1834, 1120.748
762.6655, 1123.791
763.1476, 1126.290
763.6298, 1126.197
764.1119, 1124.278
764.5940, 1122.687
765.0761, 1121.986
765.5582, 1121.416
766.0403, 1120.566
766.5225, 1119.689
767.0046, 1118.949
767.4867, 1118.435
767.9688, 1118.461
768.4509, 1119.206
768.9330, 1119.994
769.4152, 1119.564
769.8973, 1117.852
770.3794, 1116.422
770.8615, 1115.276
771.3436, 1114.495
771.8257, 1114.375
772.3079, 1114.453
772.7900, 1114.030
773.2721, 1113.078
773.7542, 1112.102
774.2363, 1110.597
774.7184, 1109.734
775.2006, 1111.176
775.6827, 1113.082
776.1648, 1112.529
776.6469, 1109.433
777.1290, 1106.601
777.6111, 1106.401
778.0933, 1105.063
778.5754, 1104.815
779.0575, 1105.869
779.5396, 1105.764
780.0217, 1108.261
780.5038, 1110.097
780.9860, 1108.279
781.4681, 1103.824
781.9502, 1101.170
782.4323, 1101.422
782.9144, 1101.602
783.3965, 1101.437
783.8787, 1101.327
784.3608, 1101.828
784.8429, 1102.446
785.3250, 1102.147
785.8071, 1100.598
786.2892, 1099.053
786.7714, 1098.787
787.2535, 1099.163
787.7356, 1099.035
788.2177, 1098.406
788.6998, 1097.588
789.1819, 1096.689
789.6641, 1095.635
790.1462, 1094.167
790.6283, 1092.293
791.1104, 1091.982
791.5925, 1094.685
792.0746, 1096.500
792.5568, 1096.484
793.0389, 1095.633
793.5210, 1094.141
794.0031, 1092.361
794.4852, 1091.317
794.9673, 1091.584
795.4495, 1092.096
795.9316, 1092.458
796.4137, 1092.516
796.8958, 1091.863
797.3779, 1090.657
797.8600, 1089.663
798.3422, 1089.283
798.8243, 1089.046
799.3064, 1088.031
799.7885, 1086.180
800.2706, 1085.141
800.7527, 1085.315
801.2349, 1085.072
801.7170, 1083.515
802.1991, 1081.452
802.6812, 1079.822
803.1633, 1078.605
803.6454, 1078.107
804.1276, 1079.594
804.6097, 1080.309
805.0918, 1077.788
805.5739, 1074.988
806.0560, 1075.558
806.5381, 1079.097
807.0203, 1082.347
807.5024, 1083.512
807.9845, 1083.221
808.4666, 1081.950
808.9487, 1079.939
809.4308, 1078.113
809.9130, 1076.577
810.3951, 1074.985
810.8772, 1072.931
811.3593, 1071.201
811.8414, 1071.641
812.3235, 1075.397
812.8057, 1076.982
813.2878, 1074.699
813.7699, 1072.310
814.2520, 1070.520
814.7341, 1069.290
815.2162, 1068.692
815.6984, 1068.668
816.1805, 1068.744
816.6626, 1068.693
817.1447, 1068.707
817.6268, 1069.583
818.1089, 1070.338
818.5911, 1068.773
819.0732, 1065.123
819.5553, 1062.297
820.0374, 1062.287
820.5195, 1063.689
821.0016, 1063.265
821.4838, 1060.920
821.9659, 1060.452
822.4480, 1062.703
822.9301, 1064.967
823.4122, 1066.254
823.8943, 1066.412
824.3765, 1064.659
824.8586, 1060.195
825.3407, 1058.054
825.8228, 1061.066
826.3049, 1063.199
826.7870, 1061.461
827.2692, 1058.448
827.7513, 1057.034
828.2334, 1057.270
828.7155, 1057.211
829.1976, 1055.490
829.6797, 1053.636
830.1619, 1053.783
830.6440, 1055.032
831.1261, 1055.026
831.6082, 1053.622
832.0903, 1052.516
832.5724, 1052.712
833.0546, 1053.564
833.5367, 1053.848
834.0188, 1053.523
834.5009, 1052.879
834.9830, 1051.781
835.4651, 1050.612
835.9473, 1049.166
836.4294, 1047.996
836.9115, 1047.786
837.3936, 1048.500
837.8757, 1049.240
838.3578, 1050.573
838.8400, 1051.037
839.3221, 1049.611
839.8042, 1047.411
840.2863, 1045.061
840.7684, 1042.996
841.2505, 1042.125
841.7327, 1043.025
842.2148, 1044.248
842.6969, 1043.811
843.1790, 1042.366
843.6611, 1041.959
844.1432, 1042.609
844.6254, 1042.810
845.1075, 1041.899
845.5896, 1040.416
846.0717, 1038.990
846.5538, 1037.621
847.0359, 1036.729
847.5181, 1036.545
848.0002, 1036.387
848.4823, 1036.306
848.9644, 1036.023
849.4465, 1035.337
849.9286, 1034.295
850.4108, 1032.998
850.8929, 1031.254
851.3750, 1029.738
851.8571, 1028.604
852.3392, 1027.857
852.8214, 1027.636
853.3035, 1027.770
853.7856, 1027.995
854.2677, 1028.211
854.7498, 1028.339
855.2319, 1028.281
855.7141, 1028.100
856.1962, 1027.869
856.6783, 1027.624
857.1604, 1027.731
857.6425, 1028.324
858.1246, 1028.581
858.6068, 1027.712
859.0889, 1026.096
859.5710, 1025.262
860.0531, 1025.873
860.5352, 1025.439
861.0173, 1022.601
861.4995, 1020.392
861.9816, 1021.004
862.4637, 1022.563
862.9458, 1022.504
863.4279, 1020.556
863.9100, 1018.669
864.3922, 1016.822
864.8743, 1015.719
865.3564, 1016.453
865.8385, 1017.690
866.3206, 1017.656
866.8027, 1016.434
867.2849, 1015.424
867.7670, 1015.417
868.2491, 1015.993
868.7312, 1016.980
869.2133, 1018.066
869.6954, 1018.313
870.1776, 1017.678
870.6597, 1016.578
871.1418, 1015.152
871.6239, 1013.767
872.1060, 1013.074
872.5881, 1013.064
873.0703, 1011.603
873.5524, 1007.554
874.0345, 1005.067
874.5166, 1006.386
874.9987, 1008.006
875.4808, 1006.483
875.9630, 1003.004
876.4451, 1001.192
876.9272, 1002.367
877.4093, 1002.813
877.8914, 1001.153
878.3735, 999.2126
878.8557, 998.0549
879.3378, 997.3801
879.8199, 996.5259
880.3020, 995.3849
880.7841, 994.5345
881.2662, 994.7014
881.7484, 995.0417
882.2305, 994.3629
882.7126, 993.0666
883.1947, 992.0109
883.6768, 991.3727
884.1589, 991.2667
884.6411, 991.8525
885.1232, 992.4788
885.6053, 991.8046
886.0874, 989.8079
886.5695, 987.0910
887.0516, 983.0006
887.5338, 981.3511
888.0159, 984.9114
888.4980, 989.3806
888.9801, 989.1377
889.4622, 984.2011
889.9443, 981.7496
890.4265, 984.9045
890.9086, 986.0264
891.3907, 982.1930
891.8728, 978.3013
892.3549, 977.8532
892.8370, 979.4313
893.3192, 979.9834
893.8013, 978.7522
894.2834, 977.2906
894.7655, 976.0911
895.2476, 975.2234
895.7297, 975.5328
896.2119, 975.8967
896.6940, 973.5536
897.1761, 968.7209
897.6582, 965.5265
898.1403, 967.1697
898.6224, 970.9332
899.1046, 972.5651
899.5867, 972.4260
900.0688, 972.1531
900.5509, 971.8965
901.0330, 971.0623
901.5151, 969.2648
901.9973, 967.3171
902.4794, 966.4600
902.9615, 966.6956
903.4436, 966.8214
903.9257, 966.7720
904.4078, 966.8100
904.8900, 967.1818
905.3721, 967.4224
905.8542, 967.4197
906.3363, 966.9871
906.8184, 965.4485
907.3005, 962.0563
907.7827, 959.4107
908.2648, 957.7772
908.7469, 957.0215
909.2290, 957.8946
909.7111, 959.1338
910.1932, 959.2514
910.6754, 958.0886
911.1575, 956.3161
911.6396, 953.3710
912.1217, 951.2554
912.6038, 952.7617
913.0859, 955.4134
913.5681, 955.5219
914.0502, 953.3077
914.5323, 950.8346
915.0144, 949.0296
915.4965, 948.0604
915.9786, 948.4619
916.4607, 949.8059
916.9428, 950.8027
917.4249, 951.4124
917.9070, 950.7842
918.3892, 948.6317
918.8713, 946.0861
919.3534, 943.8880
919.8355, 942.2637
920.3176, 942.1650
920.7997, 944.3747
921.2819, 945.1375
921.7640, 943.8188
922.2461, 942.1708
922.7282, 940.4557
923.2103, 939.0925
923.6924, 938.8440
924.1746, 939.6269
924.6567, 939.9970
925.1388, 939.5756
925.6209, 939.1648
926.1030, 939.2473
926.5851, 939.0406
927.0673, 937.3416
927.5494, 935.1950
928.0315, 934.9440
928.5136, 937.2306
928.9957, 938.4716
929.4778, 935.4061
929.9600, 931.9378
930.4421, 931.6412
930.9242, 932.8590
931.4063, 932.8652
931.8884, 931.4952
932.3705, 930.3090
932.8527, 930.2331
933.3348, 930.2932
933.8169, 928.8734
934.2990, 926.6724
934.7811, 925.6796
935.2632, 925.8549
935.7454, 926.3280
936.2275, 926.8167
936.7096, 927.0909
937.1917, 926.9070
937.6738, 926.3513
938.1559, 925.6937
938.6381, 924.9005
939.1202, 924.3118
939.6023, 924.0079
940.0844, 923.7447
940.5665, 923.3799
941.0486, 923.0007
941.5308, 922.7333
942.0129, 922.5687
942.4950, 922.5676
942.9771, 922.9162
943.4592, 923.1375
943.9413, 923.7089
944.4235, 923.6096
944.9056, 921.6677
945.3877, 918.7072
945.8698, 916.4011
946.3519, 914.8712
946.8340, 914.4340
947.3162, 916.4833
947.7983, 918.1449
948.2804, 917.5655
948.7625, 916.0213
949.2446, 915.1083
949.7267, 914.7794
950.2089, 913.7033
950.6910, 910.7585
951.1731, 908.7224
951.6552, 911.0993
952.1373, 914.6481
952.6194, 915.0082
953.1016, 913.1306
953.5837, 911.9726
954.0658, 912.3455
954.5479, 913.1982
955.0300, 913.8870
955.5121, 914.1119
955.9943, 912.9362
956.4764, 910.7958
956.9585, 909.3884
957.4406, 908.8832
957.9227, 909.1442
958.4048, 910.1842
958.8870, 910.9037
959.3691, 909.5841
959.8512, 906.6190
960.3333, 905.3299
960.8154, 905.9548
961.2975, 906.5504
961.7797, 906.7855
962.2618, 906.9699
962.7439, 907.4928
963.2260, 907.8444
963.7081, 906.7319
964.1902, 903.5787
964.6724, 902.0707
965.1545, 903.2715
965.6366, 904.3713
966.1187, 905.0751
966.6008, 905.1281
967.0829, 903.9541
967.5651, 902.0029
968.0472, 900.7214
968.5293, 900.6178
969.0114, 900.0446
969.4935, 897.9859
969.9756, 896.3440
970.4578, 896.2307
970.9399, 896.7708
971.4220, 897.1315
971.9041, 897.1970
972.3862, 897.0025
972.8683, 896.3784
973.3505, 895.9005
973.8326, 896.1000
974.3147, 896.3542
974.7968, 895.7466
975.2789, 894.9208
975.7610, 895.5715
976.2432, 897.6822
976.7253, 898.6069
977.2074, 895.9420
977.6895, 892.5710
978.1716, 891.9120
978.6537, 892.5800
979.1359, 892.2324
979.6180, 890.8846
980.1001, 889.3860
980.5822, 888.1067
981.0643, 887.4335
981.5464, 887.8658
982.0286, 889.0654
982.5107, 890.5349
982.9928, 892.0997
983.4749, 892.8022
983.9570, 892.5509
984.4391, 892.1507
984.9213, 892.0104
985.4034, 892.0547
985.8855, 892.2816
986.3676, 892.6033
986.8497, 892.0778
987.3318, 890.5837
987.8140, 889.7229
988.2961, 889.9113
988.7782, 890.2199
989.2603, 889.9579
989.7424, 889.5860
990.2245, 890.1271
990.7067, 891.7388
991.1888, 893.0703
991.6709, 894.3788
992.1530, 894.7513
992.6351, 893.5497
993.1172, 891.9508
993.5994, 890.4164
994.0815, 889.2980
994.5636, 889.9090
995.0457, 893.6098
995.5278, 895.1743
996.0099, 892.1605
996.4921, 890.2095
996.9742, 891.8409
997.4563, 894.1612
997.9384, 894.3427
998.4205, 893.1104
998.9026, 893.4718
999.3848, 897.1158
999.8669, 898.9117
1000.349, 895.9052
1000.831, 893.1393
1001.313, 893.4617
1001.795, 894.9900
1002.277, 895.6239
1002.760, 895.3390
1003.242, 895.2783
1003.724, 896.1807
1004.206, 896.3861
1004.688, 893.7841
1005.170, 891.5419
1005.652, 892.6821
1006.134, 895.5099
1006.617, 897.4368
1007.099, 898.0911
1007.581, 898.4846
1008.063, 899.0936
1008.545, 899.6684
1009.027, 900.2773
1009.509, 900.5331
1009.991, 899.2604
1010.473, 897.4623
1010.956, 897.7338
1011.438, 900.3303
1011.920, 902.4877
1012.402, 902.0700
1012.884, 900.9932
1013.366, 901.9729
1013.848, 903.8107
1014.330, 904.1895
1014.813, 903.2594
1015.295, 902.0295
1015.777, 900.8962
1016.259, 900.2648
1016.741, 900.6663
1017.223, 901.3666
1017.705, 900.7972
1018.187, 899.3840
1018.669, 898.4351
1019.152, 898.1260
1019.634, 898.8971
1020.116, 900.8857
1020.598, 903.0204
1021.080, 904.3383
1021.562, 904.7217
1022.044, 903.4211
1022.526, 900.6431
1023.008, 898.6927
1023.491, 897.7936
1023.973, 896.4203
1024.455, 893.8295
1024.937, 891.5253
1025.419, 891.3329
1025.901, 892.8085
1026.383, 894.0941
1026.865, 895.2283
1027.348, 895.4620
1027.830, 894.6353
1028.312, 893.3450
1028.794, 891.7340
1029.276, 890.1438
1029.758, 888.8900
1030.240, 888.0712
1030.722, 888.7687
1031.204, 891.5319
1031.687, 893.2360
1032.169, 893.2172
1032.651, 893.2794
1033.133, 894.4905
1033.615, 895.7441
1034.097, 895.3245
1034.579, 893.4353
1035.061, 893.3358
1035.544, 895.7296
1036.026, 898.1904
1036.508, 901.2116
1036.990, 902.9023
1037.472, 901.3437
1037.954, 899.0695
1038.436, 899.5967
1038.918, 902.8072
1039.401, 905.2602
1039.883, 905.9454
1040.365, 907.7220
1040.847, 910.8417
1041.329, 914.9865
1041.811, 921.3200
1042.293, 927.7712
1042.775, 930.9172
1043.257, 930.8980
1043.740, 933.4581
1044.222, 941.1640
1044.704, 947.4884
1045.186, 950.8562
1045.668, 954.2693
1046.150, 959.5037
1046.632, 965.2045
1047.114, 969.3512
1047.596, 972.0815
1048.079, 975.9990
1048.561, 982.1190
1049.043, 988.2204
1049.525, 993.6085
1050.007, 999.4045
1050.489, 1007.602
1050.971, 1015.577
1051.453, 1019.280
1051.936, 1019.225
1052.418, 1021.252
1052.900, 1028.013
1053.382, 1033.963
1053.864, 1038.602
1054.346, 1041.608
1054.828, 1041.800
1055.310, 1040.961
1055.792, 1041.353
1056.275, 1042.834
1056.757, 1043.537
1057.239, 1043.898
1057.721, 1041.685
1058.203, 1035.620
1058.685, 1027.599
1059.167, 1017.887
1059.649, 1007.356
1060.131, 996.9111
1060.614, 985.8768
1061.096, 975.3536
1061.578, 962.9482
1062.060, 950.6771
1062.542, 938.5956
1063.024, 927.3317
1063.506, 916.8812
1063.988, 907.6982
1064.471, 901.1821
1064.953, 896.4735
1065.435, 890.1379
1065.917, 880.3186
1066.399, 872.0072
1066.881, 867.8859
1067.363, 864.9965
1067.845, 862.2173
1068.328, 859.3116
1068.810, 856.0613
1069.292, 852.5668
1069.774, 848.9539
1070.256, 845.0583
1070.738, 842.2420
1071.220, 842.1434
1071.702, 842.0944
1072.184, 840.1974
1072.667, 837.8436
1073.149, 836.4313
1073.631, 835.9056
1074.113, 835.9520
1074.595, 836.6083
1075.077, 836.3077
1075.559, 833.5176
1076.041, 830.5762
1076.523, 828.2838
1077.006, 826.8881
1077.488, 826.9638
1077.970, 827.9863
1078.452, 829.2998
1078.934, 830.7361
1079.416, 830.2766
1079.898, 824.1998
1080.380, 819.5783
1080.862, 821.5082
1081.345, 825.2305
1081.827, 827.4520
1082.309, 827.7935
1082.791, 825.4715
1083.273, 820.6912
1083.755, 817.6292
1084.237, 819.5130
1084.719, 821.4084
1085.202, 820.9894
1085.684, 819.6373
1086.166, 817.8904
1086.648, 816.2715
1087.130, 815.8235
1087.612, 816.3926
1088.094, 815.8203
1088.576, 812.4088
1089.058, 809.5339
1089.541, 809.2002
1090.023, 809.3265
1090.505, 808.0107
1090.987, 806.5345
1091.469, 807.2910
1091.951, 809.7853
1092.433, 810.5980
1092.915, 807.9951
1093.397, 805.6566
1093.880, 805.0569
1094.362, 805.0935
1094.844, 805.3544
1095.326, 805.7413
1095.808, 806.3022
1096.290, 806.9147
1096.772, 807.4122
1097.254, 807.9563
1097.737, 807.3135
1098.219, 803.6530
1098.701, 800.5106
1099.183, 799.9515
1099.665, 800.2019
1100.147, 799.4307
1100.629, 799.7317
1101.111, 798.3883
1101.594, 800.3104
1102.076, 801.7709
1102.558, 802.5519
1103.040, 802.2973
1103.522, 800.0450
1104.004, 797.5818
1104.486, 795.8463
1104.968, 794.8998
1105.450, 795.0654
1105.932, 796.2936
1106.415, 796.7454
1106.897, 794.9617
1107.379, 794.0278
1107.861, 795.3954
1108.343, 796.7512
1108.825, 796.9620
1109.307, 796.4561
1109.789, 795.5609
1110.272, 794.4177
1110.754, 793.7230
1111.236, 793.7781
1111.718, 793.8284
1112.200, 793.8649
1112.682, 793.8201
1113.164, 793.9891
1113.646, 793.8047
1114.129, 792.2913
1114.611, 790.0200
1115.093, 789.0231
1115.575, 789.9669
1116.057, 790.1755
1116.539, 789.0588
1117.021, 788.0994
1117.503, 787.6131
1117.985, 787.3073
1118.468, 786.6667
1118.950, 786.2806
1119.432, 787.6266
1119.914, 790.9991
1120.396, 792.3959
1120.878, 790.7651
1121.360, 789.4142
1121.842, 788.8676
1122.324, 788.3557
1122.807, 787.3369
1123.289, 786.4060
1123.771, 786.4507
1124.253, 787.3030
1124.735, 787.4870
1125.217, 786.7565
1125.699, 786.2316
1126.181, 785.9817
1126.664, 785.8636
1127.146, 785.7678
1127.628, 786.0283
1128.110, 787.1807
1128.592, 786.6097
1129.074, 786.3734
1129.556, 786.1566
1130.038, 784.8182
1130.521, 784.4996
1131.003, 783.6486
1131.485, 781.7048
1131.967, 780.7373
1132.449, 782.3340
1132.931, 784.5618
1133.413, 783.9837
1133.895, 781.1621
1134.377, 780.3126
1134.859, 781.3437
1135.342, 781.5565
1135.824, 780.6044
1136.306, 779.6208
1136.788, 779.0939
1137.270, 778.9548
1137.752, 779.3113
1138.234, 779.6345
1138.716, 777.9743
1139.199, 775.1243
1139.681, 774.9658
1140.163, 777.2065
1140.645, 778.7676
1141.127, 778.8161
1141.609, 778.1882
1142.091, 777.3500
1142.573, 776.8814
1143.056, 778.3526
1143.538, 780.3513
1144.020, 779.6033
1144.502, 777.0711
1144.984, 775.0468
1145.466, 773.9910
1145.948, 774.0085
1146.430, 775.1104
1146.912, 776.2423
1147.395, 776.4721
1147.877, 776.2587
1148.359, 775.9724
1148.841, 775.6705
1149.323, 775.1837
1149.805, 774.8231
1150.287, 775.5145
1150.769, 777.2394
1151.251, 778.4731
1151.734, 778.3065
1152.216, 777.7269
1152.698, 777.5399
1153.180, 777.0460
1153.662, 775.0160
1154.144, 772.7711
1154.626, 772.3069
1155.108, 773.2499
1155.591, 773.6461
1156.073, 772.8466
1156.555, 772.3721
1157.037, 773.1608
1157.519, 773.8476
1158.001, 773.6895
1158.483, 773.4062
1158.965, 773.7112
1159.448, 774.2098
1159.930, 774.1077
1160.412, 773.3532
1160.894, 772.7861
1161.376, 772.4179
1161.858, 772.3661
1162.340, 773.5844
1162.822, 773.8991
1163.304, 771.9758
1163.786, 769.3275
1164.269, 766.8932
1164.751, 764.9871
1165.233, 764.8275
1165.715, 767.0063
1166.197, 768.3635
1166.679, 768.8902
1167.161, 768.4839
1167.643, 766.6157
1168.126, 765.2075
1168.608, 765.4716
1169.090, 766.7184
1169.572, 768.1890
1170.054, 769.6295
1170.536, 768.5121
1171.018, 764.6249
1171.500, 763.2381
1171.983, 764.8683
1172.465, 766.6184
1172.947, 767.4962
1173.429, 768.1384
1173.911, 769.1288
1174.393, 770.0024
1174.875, 769.8118
1175.357, 768.7612
1175.839, 767.3522
1176.322, 765.8072
1176.804, 765.2461
1177.286, 765.6067
1177.768, 765.2186
1178.250, 763.3597
1178.732, 761.8138
1179.214, 762.4568
1179.696, 764.1014
1180.178, 765.6783
1180.661, 766.8481
1181.143, 766.9110
1181.625, 766.1734
1182.107, 765.1135
1182.589, 764.0341
1183.071, 763.7205
1183.553, 764.8126
1184.035, 765.6383
1184.518, 764.8323
1185.000, 763.7469
1185.482, 762.9262
1185.964, 762.6643
1186.446, 763.8146
1186.928, 765.5704
1187.410, 765.8976
1187.892, 764.4110
1188.375, 763.6890
1188.857, 765.6054
1189.339, 766.4282
1189.821, 764.9062
1190.303, 762.6947
1190.785, 759.4180
1191.267, 756.7858
1191.749, 757.0798
1192.231, 759.4741
1192.714, 760.7658
1193.196, 760.7514
1193.678, 760.3580
1194.160, 759.2795
1194.642, 758.7621
1195.124, 759.3840
1195.606, 759.5624
1196.088, 758.2031
1196.570, 756.4456
1197.053, 755.9220
1197.535, 755.3104
1198.017, 756.2903
1198.499, 755.7381
1198.981, 756.3644
1199.463, 758.1678
1199.945, 758.2437
1200.427, 755.8435
1200.910, 753.8303
1201.392, 754.2406
1201.874, 752.9916
1202.356, 754.7036
1202.838, 753.1902
1203.320, 753.2457
1203.802, 754.3264
1204.284, 755.4631
1204.766, 756.3602
1205.249, 756.5934
1205.731, 756.0790
1206.213, 755.3046
1206.695, 754.5935
1207.177, 753.6680
1207.659, 751.7637
1208.141, 750.1295
1208.623, 749.8677
1209.105, 750.5395
1209.588, 752.1957
1210.070, 754.1237
1210.552, 754.4606
1211.034, 752.6495
1211.516, 750.9543
1211.998, 749.7526
1212.480, 748.9357
1212.962, 748.6340
1213.445, 748.5276
1213.927, 748.3722
1214.409, 748.3814
1214.891, 748.6827
1215.373, 749.3644
1215.855, 751.0967
1216.337, 750.7385
1216.819, 750.2951
1217.302, 751.0381
1217.784, 748.4061
1218.266, 748.8616
1218.748, 748.8964
1219.230, 746.3461
1219.712, 743.5497
1220.194, 743.6808
1220.676, 745.7350
1221.158, 746.4603
1221.641, 746.1298
1222.123, 746.3402
1222.605, 746.9588
1223.087, 746.5268
1223.569, 744.8993
1224.051, 743.5998
1224.533, 743.4781
1225.015, 743.9420
1225.497, 744.6493
1225.980, 745.3624
1226.462, 745.9907
1226.944, 746.3072
1227.426, 745.6316
1227.908, 744.5616
1228.390, 744.5402
1228.872, 745.5628
1229.354, 745.9078
1229.837, 744.7056
1230.319, 743.5955
1230.801, 743.3844
1231.283, 743.0496
1231.765, 741.7347
1232.247, 740.5466
1232.729, 740.8324
1233.211, 741.6057
1233.693, 740.7828
1234.176, 738.4654
1234.658, 737.6757
1235.140, 739.1052
1235.622, 739.8635
1236.104, 739.4545
1236.586, 740.0157
1237.068, 742.6158
1237.550, 744.0594
1238.032, 741.7625
1238.515, 738.1283
1238.997, 737.1912
1239.479, 738.3224
1239.961, 739.0619
1240.443, 739.5325
1240.925, 740.3348
1241.407, 741.4449
1241.889, 742.9095
1242.372, 744.4543
1242.854, 743.9855
1243.336, 739.7936
1243.818, 735.8336
1244.300, 736.7932
1244.782, 738.7191
1245.264, 737.5279
1245.746, 735.2273
1246.229, 734.3401
1246.711, 734.3757
1247.193, 733.5685
1247.675, 731.8340
1248.157, 731.4904
1248.639, 734.5397
1249.121, 736.0981
1249.603, 733.7562
1250.085, 731.9569
1250.568, 732.1921
1251.050, 733.3220
1251.532, 735.3250
1252.014, 736.9886
1252.496, 735.9915
1252.978, 732.6771
1253.460, 730.8016
1253.942, 730.3586
1254.424, 731.9208
1254.907, 735.6355
1255.389, 737.4277
1255.871, 736.1941
1256.353, 733.9232
1256.835, 731.8085
1257.317, 730.3301
1257.799, 730.1197
1258.281, 730.9225
1258.764, 733.1618
1259.246, 735.5530
1259.728, 735.5807
1260.210, 733.8482
1260.692, 731.9358
1261.174, 730.2979
1261.656, 728.9073
1262.138, 727.6158
1262.620, 727.3644
1263.103, 729.9925
1263.585, 731.8658
1264.067, 730.5367
1264.549, 728.7617
1265.031, 728.2686
1265.513, 728.6638
1265.995, 729.6534
1266.477, 730.9492
1266.959, 731.0075
1267.442, 731.0610
1267.924, 730.8632
1268.406, 729.6193
1268.888, 729.5364
1269.370, 727.7274
1269.852, 726.8840
1270.334, 728.4457
1270.816, 730.5553
1271.299, 731.2747
1271.781, 731.0942
1272.263, 731.0798
1272.745, 730.9144
1273.227, 729.0710
1273.709, 729.7566
1274.191, 727.0497
1274.673, 729.7106
1275.156, 731.3176
1275.638, 730.7985
1276.120, 729.9020
1276.602, 729.4477
1277.084, 729.0565
1277.566, 728.4476
1278.048, 727.9514
1278.530, 727.7686
1279.012, 727.7873
1279.495, 727.5613
1279.977, 728.8094
1280.459, 727.5115
1280.941, 728.1663
1281.423, 728.3159
1281.905, 727.3693
1282.387, 728.6010
1282.869, 726.6049
1283.351, 725.1710
1283.834, 725.4961
1284.316, 725.7992
1284.798, 724.8168
1285.280, 723.5250
1285.762, 723.1373
1286.244, 724.0142
##END=



