##NAMES=Stichtite
##RRUFFID=R050475
##IDEAL CHEMISTRY=Mg_6_Cr^3+^_2_CO_3_(OH)_16_&#183;4H_2_O
##LOCALITY=near Dundas, Tasmania, Australia
##OWNER=RRUFF
##SOURCE=California Institute of Technology
##DESCRIPTION=Aggregate of purple contorted plates
##STATUS=The identification of this mineral has been confirmed by X-ray diffraction and chemical analysis
##URL=rruff.info/R050475
##MEASURED CHEMISTRY=Mg_6.00_(Cr_0.97_Fe^3+^_0.75_Al_0.28_)_Σ=2_(CO_3_)(OH)_16_·4H_2_O ; (dark phase) C not measured but estimated by difference; light inclusion: chromite (Mg_0.53_Fe^2+^_0.47_)_Σ=1_(Cr^3+^_1.62_Al_0.33_Fe^3+^_0.05_)_Σ=2_O_4_
93.30109, 0.0000000E+00
93.78320, 246.8539
94.26532, 249.1513
94.74744, 250.0116
95.22955, 248.7957
95.71167, 247.0008
96.19379, 245.6319
96.67590, 245.4226
97.15802, 245.0059
97.64014, 244.3767
98.12225, 243.4008
98.60437, 241.7753
99.08649, 239.3112
99.56860, 236.4800
100.0507, 234.0438
100.5328, 231.7236
101.0150, 229.2409
101.4971, 226.0608
101.9792, 222.0881
102.4613, 219.1473
102.9434, 217.8774
103.4255, 217.9239
103.9077, 219.6248
104.3898, 223.4247
104.8719, 227.9262
105.3540, 230.3419
105.8361, 230.1327
106.3182, 228.4955
106.8004, 225.2654
107.2825, 221.1588
107.7646, 216.8816
108.2467, 212.8040
108.7288, 208.9407
109.2109, 205.6687
109.6931, 202.8662
110.1752, 200.7081
110.6573, 199.4917
111.1394, 199.0143
111.6215, 198.7891
112.1036, 198.3949
112.5858, 197.7847
113.0679, 197.3989
113.5500, 197.3777
114.0321, 197.4566
114.5142, 197.4757
114.9964, 197.4082
115.4785, 197.2562
115.9606, 196.9023
116.4427, 196.3555
116.9248, 196.1285
117.4069, 196.5929
117.8891, 197.4416
118.3712, 198.0244
118.8533, 198.1141
119.3354, 198.0550
119.8175, 198.1997
120.2996, 198.5288
120.7818, 198.8479
121.2639, 198.9611
121.7460, 198.8554
122.2281, 198.8861
122.7102, 199.2431
123.1923, 199.6775
123.6745, 200.1448
124.1566, 200.6155
124.6387, 200.9548
125.1208, 200.8860
125.6029, 200.0000
126.0850, 199.5929
126.5672, 199.9964
127.0493, 200.6927
127.5314, 201.3271
128.0135, 201.7530
128.4956, 201.9710
128.9777, 201.9830
129.4599, 201.5181
129.9420, 201.1365
130.4241, 200.8981
130.9062, 200.7652
131.3883, 200.6743
131.8704, 200.5874
132.3526, 200.5208
132.8347, 200.5605
133.3168, 200.9005
133.7989, 201.1363
134.2810, 201.1043
134.7632, 200.8200
135.2453, 200.3601
135.7274, 199.6725
136.2095, 198.8557
136.6916, 198.2511
137.1737, 197.9385
137.6559, 197.8042
138.1380, 197.7433
138.6201, 197.7575
139.1022, 197.8361
139.5843, 198.1156
140.0664, 198.4400
140.5486, 198.5581
141.0307, 198.3318
141.5128, 197.8323
141.9949, 197.2527
142.4770, 196.5173
142.9591, 195.8110
143.4413, 195.2227
143.9234, 194.7183
144.4055, 194.2344
144.8876, 193.7442
145.3697, 193.2495
145.8518, 192.6755
146.3340, 191.9400
146.8161, 191.1933
147.2982, 190.4573
147.7803, 189.7454
148.2624, 189.0697
148.7445, 188.4289
149.2267, 187.8047
149.7088, 187.3321
150.1909, 186.9165
150.6730, 186.6799
151.1551, 186.8472
151.6372, 187.3761
152.1194, 187.8701
152.6015, 187.8041
153.0836, 186.8281
153.5657, 186.2226
154.0478, 186.3662
154.5299, 186.6987
155.0121, 186.6276
155.4942, 185.9889
155.9763, 185.1107
156.4584, 184.4929
156.9405, 184.1586
157.4226, 183.7595
157.9048, 183.0444
158.3869, 182.2044
158.8690, 181.7078
159.3511, 181.8398
159.8332, 182.0884
160.3153, 181.7842
160.7975, 180.9187
161.2796, 180.0321
161.7617, 179.4884
162.2438, 179.2583
162.7259, 178.9933
163.2081, 178.5312
163.6902, 178.0766
164.1723, 177.7922
164.6544, 177.6907
165.1365, 177.6666
165.6186, 177.6254
166.1008, 177.5766
166.5829, 177.4692
167.0650, 177.3850
167.5471, 177.1868
168.0292, 176.7079
168.5113, 175.9250
168.9935, 175.0525
169.4756, 174.4646
169.9577, 174.3532
170.4398, 174.1688
170.9219, 173.8148
171.4040, 173.4124
171.8862, 173.0572
172.3683, 172.7853
172.8504, 172.5729
173.3325, 172.3619
173.8146, 172.1654
174.2967, 171.9550
174.7789, 171.6164
175.2610, 171.2987
175.7431, 171.2217
176.2252, 171.4948
176.7073, 171.9807
177.1894, 172.2205
177.6716, 172.1725
178.1537, 171.9702
178.6358, 171.4214
179.1179, 170.7404
179.6000, 170.3612
180.0821, 170.5439
180.5643, 171.1165
181.0464, 171.5510
181.5285, 171.9824
182.0106, 172.1363
182.4927, 171.7054
182.9748, 170.8153
183.4570, 170.0226
183.9391, 169.5662
184.4212, 169.4203
184.9033, 169.4583
185.3854, 169.8006
185.8675, 170.1264
186.3497, 170.1312
186.8318, 169.8057
187.3139, 169.4935
187.7960, 169.4415
188.2781, 169.4375
188.7602, 169.2222
189.2424, 168.6845
189.7245, 168.0598
190.2066, 167.6294
190.6887, 167.4007
191.1708, 167.3482
191.6530, 167.6470
192.1351, 168.0258
192.6172, 168.2742
193.0993, 168.3262
193.5814, 168.1817
194.0635, 167.7531
194.5457, 166.6882
195.0278, 166.0749
195.5099, 166.4324
195.9920, 167.1416
196.4741, 167.6102
196.9562, 167.5715
197.4384, 167.1682
197.9205, 166.8023
198.4026, 166.4868
198.8847, 166.2000
199.3668, 165.9107
199.8489, 165.6552
200.3311, 165.4802
200.8132, 165.4104
201.2953, 165.4254
201.7774, 165.4453
202.2595, 165.6221
202.7416, 165.6263
203.2238, 165.1851
203.7059, 164.6007
204.1880, 164.3589
204.6701, 164.7499
205.1522, 165.5615
205.6343, 165.8256
206.1165, 165.0580
206.5986, 164.3653
207.0807, 163.9726
207.5628, 163.8160
208.0449, 163.7856
208.5270, 163.8426
209.0092, 163.9592
209.4913, 164.0188
209.9734, 163.9400
210.4555, 163.9120
210.9376, 164.0276
211.4197, 164.2500
211.9019, 164.5281
212.3840, 164.9360
212.8661, 165.2727
213.3482, 164.9933
213.8303, 163.6428
214.3124, 162.4483
214.7946, 162.2784
215.2767, 162.9535
215.7588, 163.4827
216.2409, 163.3236
216.7230, 162.8360
217.2052, 162.7441
217.6873, 163.2456
218.1694, 163.7376
218.6515, 163.6374
219.1336, 162.9734
219.6157, 162.5348
220.0979, 162.8736
220.5800, 163.4233
221.0621, 163.5023
221.5442, 162.9415
222.0263, 162.3074
222.5084, 162.2313
222.9906, 162.7763
223.4727, 163.1773
223.9548, 162.9897
224.4369, 162.6873
224.9190, 162.6790
225.4011, 163.0553
225.8833, 163.4374
226.3654, 163.3089
226.8475, 162.5379
227.3296, 161.8920
227.8117, 161.5206
228.2938, 161.3327
228.7760, 161.3392
229.2581, 161.5309
229.7402, 161.7986
230.2223, 161.9966
230.7044, 162.0983
231.1865, 162.2166
231.6687, 162.5697
232.1508, 162.8015
232.6329, 162.5634
233.1150, 161.8425
233.5971, 161.0361
234.0792, 160.7650
234.5614, 161.4003
235.0435, 161.6481
235.5256, 161.1337
236.0077, 160.5363
236.4898, 160.2843
236.9719, 160.4452
237.4541, 160.7946
237.9362, 161.0620
238.4183, 161.3274
238.9004, 161.2734
239.3825, 160.5629
239.8646, 159.8426
240.3468, 159.5634
240.8289, 159.7632
241.3110, 160.1445
241.7931, 160.3411
242.2752, 160.2651
242.7573, 160.2396
243.2395, 160.2836
243.7216, 160.3542
244.2037, 160.5262
244.6858, 160.7563
245.1679, 160.7878
245.6501, 160.2542
246.1322, 158.8520
246.6143, 158.2197
247.0964, 158.9839
247.5785, 159.9574
248.0606, 160.3714
248.5428, 160.1627
249.0249, 159.6998
249.5070, 159.2926
249.9891, 158.9368
250.4712, 158.8038
250.9533, 159.2381
251.4355, 159.6175
251.9176, 159.4016
252.3997, 158.6230
252.8818, 157.8530
253.3639, 157.5904
253.8460, 157.8572
254.3282, 157.9908
254.8103, 157.9337
255.2924, 157.7943
255.7745, 157.5930
256.2566, 157.3477
256.7387, 157.1804
257.2209, 157.2157
257.7030, 157.4131
258.1851, 157.4790
258.6672, 157.2246
259.1493, 156.9899
259.6314, 157.0466
260.1136, 157.3685
260.5957, 157.7134
261.0778, 157.9887
261.5599, 158.1549
262.0420, 158.1752
262.5241, 158.0654
263.0063, 157.7890
263.4884, 157.1391
263.9705, 156.1834
264.4526, 155.5401
264.9347, 155.6270
265.4168, 156.1472
265.8990, 156.4859
266.3811, 156.6113
266.8632, 156.6156
267.3453, 156.4993
267.8274, 156.2855
268.3095, 156.1559
268.7917, 156.2049
269.2738, 156.3529
269.7559, 156.5118
270.2380, 156.6999
270.7201, 156.7962
271.2022, 156.6366
271.6844, 156.2702
272.1665, 156.0430
272.6486, 156.1413
273.1307, 156.3056
273.6128, 156.2919
274.0949, 156.1001
274.5771, 155.8174
275.0592, 155.4327
275.5413, 154.9773
276.0234, 154.6469
276.5055, 154.5214
276.9876, 154.4659
277.4698, 154.3542
277.9519, 154.2031
278.4340, 154.0981
278.9161, 154.1577
279.3982, 154.3239
279.8803, 154.2755
280.3625, 153.7175
280.8446, 153.3984
281.3267, 154.0462
281.8088, 155.2609
282.2909, 156.0881
282.7730, 155.7163
283.2552, 154.5732
283.7373, 154.1385
284.2194, 154.7785
284.7015, 155.4572
285.1836, 155.7332
285.6658, 155.7245
286.1479, 155.5800
286.6300, 155.3232
287.1121, 155.0145
287.5942, 154.7856
288.0764, 154.6375
288.5585, 154.5743
289.0406, 154.7408
289.5227, 154.9292
290.0048, 154.8773
290.4869, 154.4526
290.9691, 153.8966
291.4512, 153.6612
291.9333, 153.8826
292.4154, 153.9944
292.8975, 153.7610
293.3796, 153.4167
293.8618, 153.0680
294.3439, 152.7437
294.8260, 152.5783
295.3081, 152.9068
295.7902, 153.9411
296.2723, 154.4559
296.7545, 153.5130
297.2366, 152.5055
297.7187, 152.3497
298.2008, 153.0661
298.6829, 153.8865
299.1650, 153.9398
299.6472, 153.1211
300.1293, 152.5210
300.6114, 152.3383
301.0935, 152.2762
301.5756, 152.2856
302.0577, 152.3197
302.5399, 152.2756
303.0220, 152.0135
303.5041, 151.5515
303.9862, 151.3003
304.4683, 151.4790
304.9504, 151.6265
305.4326, 151.4897
305.9147, 151.2110
306.3968, 151.0717
306.8789, 151.2786
307.3610, 151.7360
307.8431, 152.0200
308.3253, 152.0295
308.8074, 152.0157
309.2895, 152.1728
309.7716, 152.3105
310.2537, 152.1399
310.7358, 151.4989
311.2180, 150.6556
311.7001, 150.2314
312.1822, 150.4177
312.6643, 150.6024
313.1464, 150.7597
313.6285, 150.8132
314.1107, 150.6623
314.5928, 150.2854
315.0749, 149.8130
315.5570, 149.3946
316.0391, 148.9914
316.5212, 148.7897
317.0034, 149.0081
317.4855, 149.2781
317.9676, 149.4019
318.4497, 149.3664
318.9318, 149.2811
319.4139, 149.2697
319.8961, 149.3493
320.3782, 149.3386
320.8603, 149.0998
321.3424, 148.8999
321.8245, 148.9308
322.3066, 149.0932
322.7888, 149.1219
323.2709, 148.7597
323.7530, 148.0865
324.2351, 147.7190
324.7172, 147.8564
325.1993, 148.0401
325.6815, 148.2624
326.1636, 148.4021
326.6457, 148.2555
327.1278, 147.6753
327.6099, 146.8764
328.0920, 146.3680
328.5742, 146.1974
329.0563, 146.2371
329.5384, 146.7554
330.0205, 147.2809
330.5026, 147.3365
330.9847, 146.7886
331.4669, 146.0259
331.9490, 145.5885
332.4311, 145.5445
332.9132, 145.5287
333.3953, 145.4804
333.8774, 145.4563
334.3596, 145.5257
334.8417, 145.6740
335.3238, 145.7902
335.8059, 145.7350
336.2880, 145.5051
336.7701, 145.3777
337.2523, 145.5127
337.7344, 145.5755
338.2165, 145.3647
338.6986, 144.9662
339.1807, 144.5799
339.6628, 144.3069
340.1450, 144.1446
340.6271, 144.0874
341.1092, 144.1546
341.5913, 144.2959
342.0735, 144.5945
342.5556, 144.9116
343.0377, 145.0684
343.5198, 144.9842
344.0019, 144.7585
344.4840, 144.5537
344.9662, 144.3872
345.4483, 144.1599
345.9304, 143.6571
346.4125, 143.1927
346.8946, 143.0682
347.3767, 143.3260
347.8589, 143.6039
348.3410, 143.4285
348.8231, 142.8198
349.3052, 142.6255
349.7873, 143.2415
350.2694, 143.9997
350.7516, 144.5696
351.2337, 144.9165
351.7158, 144.9341
352.1979, 144.3619
352.6800, 143.3970
353.1621, 142.6694
353.6443, 142.1786
354.1264, 141.9596
354.6085, 142.2665
355.0906, 142.8052
355.5727, 143.0966
356.0548, 142.8917
356.5370, 142.4854
357.0191, 142.2566
357.5012, 142.2180
357.9833, 142.2388
358.4654, 142.3523
358.9475, 142.4462
359.4297, 142.3704
359.9118, 142.0831
360.3939, 141.7641
360.8760, 141.5580
361.3581, 141.4401
361.8402, 141.2819
362.3224, 141.0546
362.8045, 140.7759
363.2866, 140.4154
363.7687, 139.9875
364.2508, 139.6716
364.7329, 139.5554
365.2151, 139.5885
365.6972, 139.6951
366.1793, 139.8725
366.6614, 140.1087
367.1435, 140.4844
367.6256, 140.9144
368.1078, 141.1331
368.5899, 141.0749
369.0720, 140.8208
369.5541, 140.2894
370.0362, 139.5449
370.5183, 139.0404
371.0005, 139.0533
371.4826, 139.3850
371.9647, 139.5789
372.4468, 139.6103
372.9289, 139.5882
373.4110, 139.5249
373.8932, 139.4411
374.3753, 139.3367
374.8574, 139.1918
375.3395, 139.1532
375.8216, 139.5117
376.3037, 140.3493
376.7859, 140.8026
377.2680, 140.5422
377.7501, 140.0321
378.2322, 139.6227
378.7143, 139.3453
379.1964, 139.1236
379.6786, 138.9004
380.1607, 138.6821
380.6428, 138.5269
381.1249, 138.2673
381.6070, 138.2397
382.0891, 138.8305
382.5713, 139.7073
383.0534, 140.2271
383.5355, 140.1055
384.0176, 139.5668
384.4997, 139.0817
384.9818, 138.6034
385.4640, 138.2723
385.9461, 138.1850
386.4282, 138.1901
386.9103, 138.1504
387.3924, 138.0517
387.8745, 137.9911
388.3567, 138.1030
388.8388, 138.4520
389.3209, 138.4913
389.8030, 137.9737
390.2851, 137.4521
390.7672, 137.1559
391.2494, 137.0158
391.7315, 136.8316
392.2136, 136.4727
392.6957, 136.0385
393.1778, 135.9357
393.6599, 136.5601
394.1421, 136.9599
394.6242, 136.9414
395.1063, 136.7402
395.5884, 136.5661
396.0706, 136.4710
396.5527, 136.3680
397.0348, 136.0983
397.5169, 135.5660
397.9990, 135.2546
398.4811, 135.4212
398.9633, 135.5817
399.4454, 135.5379
399.9275, 135.3258
400.4096, 135.0741
400.8917, 134.8576
401.3738, 134.6780
401.8560, 134.5484
402.3381, 134.5043
402.8202, 134.4453
403.3023, 134.3500
403.7844, 134.2234
404.2665, 134.0415
404.7487, 133.7896
405.2308, 133.5792
405.7129, 133.5879
406.1950, 133.8315
406.6771, 134.0007
407.1592, 133.9735
407.6414, 133.9262
408.1235, 134.0280
408.6056, 134.2443
409.0877, 134.3779
409.5698, 134.1419
410.0519, 132.5096
410.5341, 133.3798
411.0162, 133.8790
411.4983, 134.0270
411.9804, 132.7725
412.4625, 133.3291
412.9446, 133.1599
413.4268, 132.9610
413.9089, 133.7726
414.3910, 134.0263
414.8731, 133.7731
415.3552, 133.5275
415.8373, 133.3592
416.3195, 133.3025
416.8016, 133.4902
417.2837, 133.9465
417.7658, 134.2342
418.2479, 134.0641
418.7300, 133.7572
419.2122, 133.7452
419.6943, 134.0576
420.1764, 134.3029
420.6585, 134.1262
421.1406, 133.5808
421.6227, 133.3113
422.1049, 133.6733
422.5870, 133.8919
423.0691, 133.5269
423.5512, 132.8296
424.0333, 132.2258
424.5154, 131.8828
424.9976, 131.7699
425.4797, 131.8448
425.9618, 132.2218
426.4439, 132.5744
426.9260, 133.1355
427.4081, 133.5002
427.8903, 133.1418
428.3724, 132.2211
428.8545, 131.5387
429.3366, 131.8267
429.8187, 133.0184
430.3008, 133.5865
430.7830, 132.7207
431.2651, 132.1033
431.7472, 132.1351
432.2293, 132.5056
432.7114, 132.8582
433.1935, 133.0559
433.6757, 133.1518
434.1578, 133.2626
434.6399, 133.4657
435.1220, 133.4042
435.6041, 132.6806
436.0862, 131.9953
436.5684, 131.7314
437.0505, 131.8162
437.5326, 131.9265
438.0147, 131.8420
438.4968, 131.6138
438.9789, 131.3997
439.4611, 131.1537
439.9432, 131.0408
440.4253, 131.2587
440.9074, 131.5868
441.3895, 131.8071
441.8716, 131.8740
442.3538, 131.8454
442.8359, 131.6839
443.3180, 131.4358
443.8001, 131.4190
444.2822, 131.7968
444.7643, 132.2322
445.2465, 132.4803
445.7286, 132.5442
446.2107, 132.3087
446.6928, 131.4146
447.1749, 130.4275
447.6570, 129.8948
448.1392, 129.8123
448.6213, 130.0501
449.1034, 130.6843
449.5855, 131.4676
450.0677, 131.6537
450.5498, 130.9323
451.0319, 130.3864
451.5140, 130.4210
451.9961, 130.7185
452.4782, 130.8936
452.9604, 130.8745
453.4425, 130.8237
453.9246, 130.9167
454.4067, 131.1768
454.8888, 131.3345
455.3709, 131.2595
455.8531, 131.2413
456.3352, 131.5716
456.8173, 131.9915
457.2994, 131.9996
457.7815, 131.3597
458.2636, 130.4227
458.7458, 129.9400
459.2279, 130.1607
459.7100, 130.3295
460.1921, 130.3683
460.6742, 130.4027
461.1563, 130.6255
461.6385, 130.9412
462.1206, 130.9983
462.6027, 130.4405
463.0848, 129.4162
463.5669, 128.6914
464.0490, 128.3115
464.5312, 128.1582
465.0133, 128.4053
465.4954, 128.7343
465.9775, 128.8306
466.4596, 128.6187
466.9417, 128.2270
467.4239, 127.5509
467.9060, 126.7034
468.3881, 126.5715
468.8702, 127.6740
469.3523, 128.7463
469.8344, 128.5323
470.3166, 127.4108
470.7987, 126.4124
471.2808, 125.8321
471.7629, 125.4513
472.2450, 125.1285
472.7271, 124.8544
473.2093, 124.5476
473.6914, 124.1239
474.1735, 123.7429
474.6556, 123.8009
475.1377, 124.5005
475.6198, 124.8877
476.1020, 124.6173
476.5841, 124.1158
477.0662, 123.6881
477.5483, 123.3904
478.0304, 123.2132
478.5125, 123.1505
478.9947, 123.2025
479.4768, 123.3800
479.9589, 124.0889
480.4410, 124.4219
480.9231, 123.8382
481.4052, 122.4722
481.8874, 123.2309
482.3695, 123.6186
482.8516, 123.6552
483.3337, 122.2892
483.8158, 122.7344
484.2979, 122.4538
484.7801, 122.1433
485.2622, 122.8435
485.7443, 121.6814
486.2264, 122.3655
486.7085, 122.3127
487.1906, 122.5971
487.6728, 122.1512
488.1549, 121.9309
488.6370, 122.4412
489.1191, 122.5469
489.6012, 122.0169
490.0833, 122.3228
490.5655, 121.1353
491.0476, 121.2582
491.5297, 121.9466
492.0118, 121.4533
492.4939, 121.2132
492.9760, 121.1951
493.4582, 121.0349
493.9403, 120.9119
494.4224, 120.9460
494.9045, 121.0504
495.3866, 120.9848
495.8687, 120.6609
496.3509, 120.4175
496.8330, 120.3380
497.3151, 120.3733
497.7972, 120.5550
498.2793, 120.8425
498.7614, 120.9960
499.2436, 120.7675
499.7257, 120.1931
500.2078, 119.9275
500.6899, 120.3660
501.1720, 120.6346
501.6541, 120.3912
502.1363, 120.0094
502.6184, 119.9545
503.1005, 120.3216
503.5826, 120.7616
504.0647, 120.7927
504.5468, 120.3536
505.0290, 120.1359
505.5111, 120.3000
505.9932, 120.4969
506.4753, 120.6513
506.9575, 120.7314
507.4396, 120.6600
507.9217, 120.3652
508.4038, 120.0581
508.8859, 120.0027
509.3680, 120.1896
509.8502, 120.4550
510.3323, 120.7951
510.8144, 121.1543
511.2965, 121.5347
511.7786, 121.9127
512.2607, 122.1257
512.7429, 121.9002
513.2250, 121.6775
513.7071, 121.9103
514.1892, 122.5049
514.6713, 123.0392
515.1534, 123.3264
515.6356, 123.4618
516.1177, 123.6285
516.5998, 123.8415
517.0819, 124.0615
517.5640, 124.3359
518.0461, 124.5790
518.5283, 124.6860
519.0104, 124.7020
519.4925, 124.7647
519.9746, 124.9622
520.4567, 125.2817
520.9388, 125.6893
521.4210, 126.2751
521.9031, 126.7771
522.3852, 127.0337
522.8673, 127.3056
523.3494, 127.8782
523.8315, 128.6949
524.3137, 129.3715
524.7958, 129.6133
525.2779, 129.4783
525.7600, 129.0259
526.2421, 128.0583
526.7242, 127.5273
527.2064, 128.1835
527.6885, 129.3439
528.1706, 130.2037
528.6527, 130.7086
529.1348, 130.8976
529.6169, 130.5416
530.0991, 129.9723
530.5812, 129.7974
531.0633, 130.0848
531.5454, 130.3792
532.0275, 130.3484
532.5096, 130.0361
532.9918, 129.7430
533.4739, 129.4410
533.9560, 129.1916
534.4381, 129.1084
534.9202, 129.0306
535.4023, 128.7043
535.8845, 128.1292
536.3666, 127.6256
536.8487, 127.5766
537.3308, 127.9796
537.8129, 127.9529
538.2950, 127.1777
538.7772, 126.3655
539.2593, 125.5552
539.7414, 124.8558
540.2235, 124.5013
540.7056, 124.5318
541.1877, 124.4460
541.6699, 123.5353
542.1520, 121.9656
542.6341, 120.9518
543.1162, 120.7661
543.5983, 120.6811
544.0804, 120.2742
544.5626, 119.6367
545.0447, 118.8890
545.5268, 117.9100
546.0089, 117.0868
546.4910, 116.7790
546.9731, 116.7506
547.4553, 116.5372
547.9374, 116.0358
548.4195, 115.4523
548.9016, 114.9771
549.3837, 114.6110
549.8658, 114.2523
550.3480, 113.8472
550.8301, 113.5096
551.3122, 113.3522
551.7943, 113.2443
552.2764, 112.9861
552.7585, 112.5437
553.2407, 112.1061
553.7228, 111.9289
554.2049, 112.0319
554.6870, 112.0280
555.1691, 111.8465
555.6512, 111.6543
556.1334, 111.5790
556.6155, 111.5033
557.0976, 111.2113
557.5797, 110.6066
558.0618, 110.0872
558.5439, 110.2133
559.0261, 110.7497
559.5082, 110.7294
559.9903, 109.9093
560.4724, 109.0368
560.9545, 108.6707
561.4366, 108.7486
561.9188, 108.8249
562.4009, 108.9082
562.8830, 108.9752
563.3651, 109.0328
563.8472, 109.0628
564.3293, 109.0291
564.8115, 108.9291
565.2936, 108.8068
565.7757, 108.7025
566.2578, 108.6161
566.7399, 108.5599
567.2220, 108.7157
567.7042, 108.6726
568.1863, 108.1054
568.6684, 107.4502
569.1505, 107.2267
569.6326, 107.5116
570.1147, 107.8425
570.5969, 107.6859
571.0790, 107.1456
571.5611, 106.9203
572.0432, 107.1321
572.5253, 107.3308
573.0074, 107.2981
573.4896, 107.1047
573.9717, 106.8270
574.4538, 106.4264
574.9359, 106.1040
575.4180, 105.8971
575.9001, 105.8520
576.3823, 106.1847
576.8644, 106.8604
577.3465, 107.3103
577.8286, 107.0796
578.3107, 106.3326
578.7928, 105.8775
579.2750, 105.8670
579.7571, 105.9634
580.2392, 106.4080
580.7213, 106.7642
581.2034, 106.5473
581.6855, 105.8551
582.1677, 105.2685
582.6498, 105.2700
583.1319, 105.6619
583.6140, 105.7152
584.0961, 105.2807
584.5782, 105.0244
585.0604, 105.3037
585.5425, 105.6976
586.0246, 105.8638
586.5067, 105.8015
586.9889, 105.6616
587.4710, 105.4467
587.9531, 105.2309
588.4352, 105.1012
588.9174, 105.0525
589.3995, 105.0654
589.8816, 105.1585
590.3637, 105.2274
590.8458, 105.0674
591.3279, 104.5265
591.8101, 104.1935
592.2922, 104.1980
592.7743, 104.2764
593.2564, 104.3660
593.7385, 104.4109
594.2206, 104.2801
594.7028, 103.9111
595.1849, 103.5293
595.6670, 103.6038
596.1491, 104.2387
596.6312, 104.5498
597.1133, 104.3936
597.5955, 104.0043
598.0776, 103.2691
598.5597, 102.4589
599.0418, 102.1336
599.5239, 102.5903
600.0060, 103.2162
600.4882, 103.6329
600.9703, 103.8382
601.4524, 103.7439
601.9345, 103.3181
602.4166, 102.9442
602.8987, 103.0191
603.3809, 103.4902
603.8630, 103.5723
604.3451, 102.8914
604.8272, 102.3573
605.3093, 102.2358
605.7914, 102.2767
606.2736, 102.1963
606.7557, 101.9848
607.2378, 101.8813
607.7199, 102.1401
608.2020, 102.6546
608.6841, 102.8811
609.1663, 102.7391
609.6484, 102.5403
610.1305, 102.3123
610.6126, 102.1132
611.0947, 102.0208
611.5768, 102.0300
612.0590, 102.0027
612.5411, 101.8145
613.0232, 101.6050
613.5053, 101.5530
613.9874, 101.6314
614.4695, 101.6931
614.9517, 101.6773
615.4338, 101.6180
615.9159, 101.5701
616.3980, 101.5408
616.8801, 101.4971
617.3622, 101.4889
617.8444, 101.4139
618.3265, 101.1742
618.8086, 100.8550
619.2907, 100.5750
619.7728, 100.3773
620.2549, 100.2621
620.7371, 100.2495
621.2192, 100.3351
621.7013, 100.4181
622.1834, 100.4982
622.6655, 100.5645
623.1476, 100.6203
623.6298, 100.6537
624.1119, 100.6462
624.5940, 100.6011
625.0761, 100.5010
625.5582, 100.3431
626.0403, 100.1237
626.5225, 99.73068
627.0046, 99.22066
627.4867, 98.97409
627.9688, 99.27314
628.4509, 99.91872
628.9330, 100.2578
629.4152, 100.1083
629.8973, 99.97399
630.3794, 99.92074
630.8615, 99.83884
631.3436, 99.56910
631.8257, 99.22318
632.3079, 99.11835
632.7900, 99.49792
633.2721, 99.93472
633.7542, 99.66009
634.2363, 98.78580
634.7184, 98.40702
635.2006, 98.85849
635.6827, 99.46797
636.1648, 99.68427
636.6469, 99.53208
637.1290, 99.33311
637.6111, 98.98753
638.0933, 98.71946
638.5754, 98.57182
639.0575, 98.55733
639.5396, 98.79958
640.0217, 99.24179
640.5038, 99.54163
640.9860, 99.38615
641.4681, 98.88747
641.9502, 98.60593
642.4323, 98.61628
642.9144, 98.65587
643.3965, 98.78815
643.8787, 98.83411
644.3608, 98.61021
644.8429, 98.16625
645.3250, 97.76553
645.8071, 97.48502
646.2892, 97.32362
646.7714, 97.34302
647.2535, 97.48660
647.7356, 97.55254
648.2177, 97.47659
648.6998, 97.39650
649.1819, 97.48786
649.6641, 97.76782
650.1462, 97.87734
650.6283, 97.60228
651.1104, 97.43446
651.5925, 97.60805
652.0746, 97.85300
652.5568, 97.87791
653.0389, 97.65808
653.5210, 97.39845
654.0031, 97.26080
654.4852, 97.20699
654.9673, 97.13419
655.4495, 97.04074
655.9316, 96.92175
656.4137, 96.68800
656.8958, 96.53731
657.3779, 96.89318
657.8600, 97.74145
658.3422, 98.16947
658.8243, 97.83165
659.3064, 97.27358
659.7885, 96.55232
660.2706, 95.89328
660.7527, 95.72343
661.2349, 96.12661
661.7170, 96.63827
662.1991, 96.71583
662.6812, 96.38137
663.1633, 96.17042
663.6454, 96.16067
664.1276, 96.11726
664.6097, 95.83436
665.0918, 95.56905
665.5739, 95.61993
666.0560, 95.98701
666.5381, 96.24926
667.0203, 96.09472
667.5024, 95.83323
667.9845, 95.82422
668.4666, 96.00121
668.9487, 96.08573
669.4308, 95.96996
669.9130, 95.82108
670.3951, 95.88379
670.8772, 96.20765
671.3593, 96.34293
671.8414, 96.25172
672.3235, 96.00719
672.8057, 95.50436
673.2878, 94.92567
673.7699, 94.36501
674.2520, 93.88078
674.7341, 93.69083
675.2162, 94.28875
675.6984, 95.17944
676.1805, 95.19157
676.6626, 94.36136
677.1447, 93.77539
677.6268, 93.89177
678.1089, 94.29075
678.5911, 94.35606
679.0732, 93.96976
679.5553, 93.96339
680.0374, 94.80529
680.5195, 95.47898
681.0016, 95.52950
681.4838, 95.22860
681.9659, 94.84689
682.4480, 94.49021
682.9301, 94.27197
683.4122, 94.35452
683.8943, 94.65162
684.3765, 94.82470
684.8586, 94.86424
685.3407, 94.81824
685.8228, 94.65319
686.3049, 94.46465
686.7870, 94.40534
687.2692, 94.47058
687.7513, 94.43907
688.2334, 94.15350
688.7155, 93.89501
689.1976, 93.83448
689.6797, 93.89338
690.1619, 93.98414
690.6440, 94.06548
691.1261, 94.05329
691.6082, 93.83286
692.0903, 93.44738
692.5724, 93.20889
693.0546, 93.15703
693.5367, 93.14114
694.0188, 93.12837
694.5009, 93.13150
694.9830, 93.16410
695.4651, 93.22420
695.9473, 93.29338
696.4294, 93.54041
696.9116, 93.62200
697.3937, 93.07190
697.8758, 92.25438
698.3579, 91.90475
698.8400, 92.15888
699.3221, 92.51791
699.8043, 92.50477
700.2864, 92.17257
700.7685, 91.92906
701.2506, 91.81721
701.7327, 91.70060
702.2148, 91.47218
702.6970, 91.29894
703.1791, 91.35069
703.6612, 91.56648
704.1433, 91.69456
704.6254, 91.58568
705.1075, 91.43273
705.5897, 91.42954
706.0718, 91.49039
706.5539, 91.40010
707.0360, 91.13029
707.5181, 90.89487
708.0002, 90.88004
708.4824, 91.03196
708.9645, 91.06533
709.4466, 90.84623
709.9287, 90.76829
710.4108, 91.08961
710.8929, 91.34751
711.3751, 91.18728
711.8572, 90.75953
712.3393, 90.48772
712.8214, 90.58578
713.3035, 90.71236
713.7856, 90.48273
714.2678, 90.08686
714.7499, 89.93715
715.2320, 90.08324
715.7141, 90.36125
716.1962, 90.69664
716.6783, 91.02040
717.1605, 91.11147
717.6426, 90.79980
718.1247, 90.58582
718.6068, 90.54792
719.0889, 90.52217
719.5710, 90.44956
720.0532, 90.33394
720.5353, 90.16666
721.0174, 89.93265
721.4995, 89.75944
721.9816, 89.75457
722.4637, 89.88045
722.9459, 90.16922
723.4280, 90.58401
723.9101, 90.71564
724.3922, 90.33379
724.8743, 89.64696
725.3564, 89.02058
725.8386, 88.39766
726.3207, 88.03735
726.8028, 88.08614
727.2849, 88.21704
727.7670, 88.45599
728.2491, 88.65837
728.7313, 88.54720
729.2134, 88.10485
729.6955, 87.87328
730.1776, 88.46600
730.6597, 89.37551
731.1418, 89.81726
731.6240, 89.83057
732.1061, 89.69124
732.5882, 89.47977
733.0703, 89.26005
733.5524, 89.13444
734.0345, 89.11630
734.5167, 88.87400
734.9988, 88.08497
735.4809, 87.49297
735.9630, 87.21130
736.4451, 87.16817
736.9272, 87.43557
737.4094, 87.91719
737.8915, 88.24845
738.3736, 88.21211
738.8557, 87.98164
739.3378, 87.63535
739.8199, 87.25394
740.3021, 87.10320
740.7842, 87.23531
741.2663, 87.48450
741.7484, 87.75402
742.2305, 88.00124
742.7126, 88.00388
743.1948, 87.55631
743.6769, 87.23685
744.1590, 87.13847
744.6411, 87.10610
745.1232, 87.08228
745.6053, 87.06075
746.0875, 87.06548
746.5696, 87.13562
747.0517, 87.09398
747.5338, 86.63651
748.0159, 86.04947
748.4980, 85.86886
748.9802, 86.08588
749.4623, 86.32822
749.9444, 86.40820
750.4265, 86.40739
750.9086, 86.48109
751.3907, 86.65457
751.8729, 86.78683
752.3550, 86.92850
752.8371, 86.95779
753.3192, 86.73251
753.8013, 86.44392
754.2834, 86.32788
754.7656, 86.40571
755.2477, 86.44411
755.7298, 86.25874
756.2119, 86.04760
756.6940, 86.04679
757.1761, 86.16505
757.6583, 86.13101
758.1404, 85.88445
758.6225, 85.69738
759.1046, 85.88651
759.5867, 86.35326
760.0688, 86.36575
760.5510, 85.66671
761.0331, 85.20472
761.5152, 85.32014
761.9973, 85.56192
762.4794, 85.60107
762.9615, 85.49767
763.4437, 85.46758
763.9258, 85.69316
764.4079, 85.75129
764.8900, 85.17245
765.3721, 84.48764
765.8542, 84.42532
766.3364, 84.87916
766.8185, 85.16353
767.3006, 84.89397
767.7827, 84.41633
768.2648, 84.38332
768.7469, 84.81669
769.2291, 85.07959
769.7112, 85.11955
770.1933, 85.05643
770.6754, 84.87725
771.1575, 84.67319
771.6396, 84.60047
772.1218, 84.66907
772.6039, 84.77416
773.0860, 85.07780
773.5681, 85.22246
774.0502, 84.81099
774.5323, 84.21911
775.0145, 84.08270
775.4966, 84.45924
775.9787, 84.72094
776.4608, 84.22521
776.9429, 83.36830
777.4250, 83.15211
777.9072, 83.56217
778.3893, 83.95970
778.8714, 84.22601
779.3535, 84.35604
779.8356, 84.33028
780.3177, 84.16206
780.7999, 83.94370
781.2820, 83.50577
781.7641, 83.26200
782.2462, 83.32828
782.7283, 83.50213
783.2104, 83.72668
783.6926, 83.94493
784.1747, 84.08250
784.6568, 84.11696
785.1389, 84.03825
785.6210, 83.76842
786.1031, 83.40541
786.5853, 83.10137
787.0674, 82.87825
787.5495, 82.84236
788.0316, 83.06084
788.5137, 83.32034
788.9958, 83.28508
789.4780, 82.91767
789.9601, 82.80424
790.4422, 83.13071
790.9243, 83.41463
791.4064, 83.55314
791.8885, 83.59988
792.3707, 83.54590
792.8528, 83.42372
793.3349, 83.39223
793.8170, 83.68773
794.2991, 83.84225
794.7813, 83.39846
795.2634, 82.72424
795.7455, 82.31094
796.2276, 82.20329
796.7097, 82.21867
797.1918, 82.24748
797.6740, 82.32609
798.1561, 82.59575
798.6382, 83.07349
799.1203, 83.22923
799.6024, 82.92119
800.0845, 82.61292
800.5667, 82.53587
801.0488, 82.59050
801.5309, 82.61320
802.0130, 82.60860
802.4951, 82.55330
802.9772, 82.30950
803.4594, 82.16965
803.9415, 82.43822
804.4236, 82.77748
804.9057, 82.70213
805.3878, 82.21294
805.8699, 81.79198
806.3521, 81.78419
806.8342, 81.99037
807.3163, 82.17688
807.7985, 82.32243
808.2806, 82.30347
808.7627, 82.09589
809.2448, 81.87088
809.7269, 81.74548
810.2090, 81.69827
810.6912, 81.65901
811.1733, 81.59933
811.6554, 81.61658
812.1375, 81.82000
812.6196, 81.97403
813.1017, 82.01043
813.5839, 81.93617
814.0660, 81.67708
814.5481, 81.21092
815.0302, 80.98895
815.5123, 81.50065
815.9944, 82.04700
816.4766, 81.96310
816.9587, 81.54312
817.4408, 81.37603
817.9229, 81.56474
818.4050, 81.77216
818.8871, 81.73009
819.3693, 81.48625
819.8514, 81.08575
820.3335, 80.51208
820.8156, 80.23415
821.2977, 80.39146
821.7798, 80.65189
822.2620, 80.83930
822.7441, 80.94796
823.2262, 80.95673
823.7083, 80.83218
824.1904, 80.68468
824.6725, 80.43999
825.1547, 80.25694
825.6368, 80.26131
826.1189, 80.34396
826.6010, 80.34434
827.0831, 80.24043
827.5652, 80.16584
828.0474, 80.23019
828.5295, 80.35171
829.0116, 80.44207
829.4937, 80.50932
829.9758, 80.61201
830.4579, 80.74817
830.9401, 80.73534
831.4222, 80.39767
831.9043, 79.90054
832.3864, 79.77790
832.8685, 80.12826
833.3506, 80.37895
833.8328, 80.54698
834.3149, 80.49123
834.7970, 79.91702
835.2791, 79.17139
835.7612, 78.90324
836.2433, 79.19881
836.7255, 79.48709
837.2076, 79.75301
837.6897, 79.90816
838.1718, 79.86587
838.6539, 79.71390
839.1360, 79.53225
839.6182, 79.34969
840.1003, 79.19118
840.5824, 79.05651
841.0645, 78.98256
841.5466, 79.03467
842.0287, 79.18960
842.5109, 79.43726
842.9930, 79.75981
843.4751, 79.86208
843.9572, 79.52737
844.4393, 79.00858
844.9214, 78.89085
845.4036, 79.31005
845.8857, 79.41152
846.3678, 78.95515
846.8499, 78.60829
847.3320, 78.75003
847.8141, 79.02177
848.2963, 79.04031
848.7784, 78.81161
849.2605, 78.58102
849.7426, 78.30875
850.2247, 78.14839
850.7068, 78.24989
851.1890, 78.42793
851.6711, 78.51942
852.1532, 78.51023
852.6353, 78.41377
853.1174, 78.21744
853.5995, 78.07781
854.0817, 78.26777
854.5638, 78.63356
855.0459, 78.76176
855.5280, 78.64302
856.0101, 78.42203
856.4922, 78.14510
856.9744, 77.88326
857.4565, 77.71707
857.9386, 77.64791
858.4207, 77.77723
858.9028, 78.32124
859.3849, 78.53080
859.8671, 78.06695
860.3492, 77.43803
860.8313, 76.85719
861.3134, 76.41328
861.7955, 76.40562
862.2776, 77.13335
862.7598, 77.66390
863.2419, 77.62401
863.7240, 77.44083
864.2061, 77.32265
864.6882, 77.29623
865.1703, 77.39332
865.6525, 77.60723
866.1346, 77.80856
866.6167, 77.92207
867.0988, 77.94273
867.5809, 77.86201
868.0630, 77.68124
868.5452, 77.35886
869.0273, 76.89767
869.5094, 76.50436
869.9915, 76.33858
870.4736, 76.31272
870.9557, 76.16753
871.4379, 75.83952
871.9200, 75.78093
872.4021, 76.16032
872.8842, 76.46331
873.3663, 76.40845
873.8484, 76.19902
874.3306, 76.14990
874.8127, 76.26961
875.2948, 76.28197
875.7769, 76.02073
876.2590, 75.84307
876.7411, 75.96741
877.2233, 76.12513
877.7054, 76.04292
878.1875, 75.78555
878.6696, 75.61884
879.1517, 75.68126
879.6339, 75.70031
880.1160, 75.34562
880.5981, 74.88754
881.0802, 74.69850
881.5623, 74.75401
882.0444, 74.92307
882.5266, 75.14745
883.0087, 75.31918
883.4908, 75.34426
883.9729, 75.20873
884.4550, 74.72385
884.9371, 73.84434
885.4193, 73.50609
885.9014, 74.00877
886.3835, 74.61678
886.8656, 74.84843
887.3477, 74.79302
887.8298, 74.69533
888.3120, 74.57097
888.7941, 74.36292
889.2762, 73.88686
889.7583, 73.55222
890.2404, 73.55188
890.7225, 73.70374
891.2047, 73.82982
891.6868, 73.92159
892.1689, 74.05565
892.6510, 74.43966
893.1331, 74.62868
893.6152, 74.21387
894.0974, 73.62463
894.5795, 73.29478
895.0616, 73.21452
895.5437, 73.21335
896.0258, 73.22001
896.5079, 73.23457
896.9901, 73.29359
897.4722, 73.34724
897.9543, 73.22548
898.4364, 72.97074
898.9185, 72.84319
899.4006, 72.91612
899.8828, 73.07557
900.3649, 73.25168
900.8470, 73.38523
901.3291, 73.22576
901.8112, 72.69444
902.2933, 72.23763
902.7755, 71.81020
903.2576, 71.65396
903.7397, 72.12802
904.2218, 72.76211
904.7039, 72.68348
905.1860, 71.73447
905.6682, 71.28899
906.1503, 71.70210
906.6324, 72.18049
907.1145, 72.82581
907.5966, 73.21802
908.0787, 72.75883
908.5609, 71.77546
909.0430, 71.26834
909.5251, 71.68015
910.0072, 72.05248
910.4893, 71.58128
910.9714, 71.01208
911.4536, 71.26395
911.9357, 71.96152
912.4178, 72.17608
912.8999, 71.73526
913.3820, 71.34044
913.8641, 71.63227
914.3463, 72.20489
914.8284, 72.26942
915.3105, 71.93254
915.7926, 71.67318
916.2748, 71.55640
916.7569, 71.45082
917.2390, 71.28182
917.7211, 71.09996
918.2032, 70.96946
918.6854, 70.88689
919.1675, 71.02517
919.6496, 71.51951
920.1317, 71.80739
920.6138, 71.67422
921.0959, 71.39125
921.5781, 71.10979
922.0602, 70.86947
922.5423, 70.88550
923.0244, 71.46912
923.5065, 71.71855
923.9886, 71.32860
924.4708, 70.90439
924.9529, 70.71671
925.4350, 70.64371
925.9171, 70.51656
926.3992, 70.32188
926.8813, 70.16885
927.3635, 70.10120
927.8456, 70.08585
928.3277, 70.18916
928.8098, 70.27442
929.2919, 70.13500
929.7740, 69.84219
930.2562, 69.60177
930.7383, 69.49935
931.2204, 69.54559
931.7025, 69.90479
932.1846, 70.33871
932.6667, 70.29552
933.1489, 69.91990
933.6310, 69.80602
934.1131, 70.07097
934.5952, 70.35767
935.0773, 70.40278
935.5594, 70.27993
936.0416, 70.13515
936.5237, 69.96742
937.0058, 69.86839
937.4879, 69.86161
937.9700, 69.78858
938.4521, 69.53623
938.9343, 69.32133
939.4164, 69.45484
939.8985, 69.90073
940.3806, 70.00306
940.8627, 69.50887
941.3448, 69.17030
941.8270, 69.11447
942.3091, 69.16071
942.7912, 69.25878
943.2733, 69.37748
943.7554, 69.47472
944.2375, 69.55163
944.7197, 69.57858
945.2018, 69.54019
945.6839, 69.46350
946.1660, 69.33566
946.6481, 69.19215
947.1302, 69.04871
947.6124, 68.91813
948.0945, 68.82814
948.5766, 68.79338
949.0587, 68.76830
949.5408, 68.74773
950.0229, 68.70211
950.5051, 68.56887
950.9872, 68.39989
951.4693, 68.28591
951.9514, 68.24696
952.4335, 68.25982
952.9156, 68.30624
953.3978, 68.40298
953.8799, 68.63965
954.3620, 68.93226
954.8441, 69.04740
955.3262, 68.98103
955.8083, 68.83836
956.2905, 68.66133
956.7726, 68.44579
957.2547, 68.12634
957.7368, 67.81125
958.2189, 68.11704
958.7010, 69.09583
959.1832, 69.57000
959.6653, 69.30125
960.1474, 68.83447
960.6295, 68.43281
961.1116, 68.11948
961.5938, 67.93663
962.0759, 67.88659
962.5580, 67.93945
963.0401, 68.11276
963.5222, 68.36455
964.0043, 68.85975
964.4865, 69.22093
964.9686, 69.07973
965.4507, 68.58153
965.9328, 68.17426
966.4149, 67.83644
966.8970, 67.64852
967.3792, 67.70786
967.8613, 67.80733
968.3434, 67.95508
968.8255, 68.04558
969.3076, 67.94448
969.7897, 67.68301
970.2719, 67.42736
970.7540, 67.16261
971.2361, 67.03942
971.7182, 67.23134
972.2003, 67.48093
972.6824, 67.65664
973.1646, 67.71783
973.6467, 67.56273
974.1288, 67.21659
974.6109, 66.95670
975.0930, 66.99359
975.5751, 67.10011
976.0573, 67.05268
976.5394, 66.94736
977.0215, 66.89838
977.5036, 66.92837
977.9857, 67.11678
978.4678, 67.47044
978.9500, 67.69124
979.4321, 67.37919
979.9142, 66.84605
980.3963, 66.76427
980.8784, 67.00648
981.3605, 67.09608
981.8427, 66.97900
982.3248, 66.91187
982.8069, 67.03848
983.2890, 67.18087
983.7711, 67.03590
984.2532, 66.66356
984.7354, 66.55068
985.2175, 66.70887
985.6996, 66.64184
986.1817, 66.17783
986.6638, 65.96900
987.1459, 66.58047
987.6281, 67.51114
988.1102, 67.54050
988.5923, 66.48014
989.0744, 65.95557
989.5565, 66.13728
990.0386, 66.35229
990.5208, 66.43456
991.0029, 66.46494
991.4850, 66.54748
991.9671, 66.62528
992.4492, 66.45250
992.9313, 65.78519
993.4135, 65.45578
993.8956, 65.62437
994.3777, 65.91853
994.8598, 66.35490
995.3419, 66.76408
995.8240, 67.01411
996.3062, 67.10117
996.7883, 67.02553
997.2704, 66.65645
997.7525, 66.35868
998.2346, 66.15847
998.7167, 66.06457
999.1989, 66.17018
999.6810, 66.32811
1000.163, 66.36072
1000.645, 66.26114
1001.127, 66.13274
1001.609, 65.93934
1002.092, 65.83046
1002.574, 65.92867
1003.056, 66.07391
1003.538, 66.12479
1004.020, 66.13998
1004.502, 66.23782
1004.984, 66.43485
1005.466, 66.65005
1005.948, 66.94011
1006.431, 67.09048
1006.913, 66.77169
1007.395, 66.35295
1007.877, 66.32545
1008.359, 66.56688
1008.841, 66.67265
1009.323, 66.52975
1009.805, 66.37578
1010.288, 66.41303
1010.770, 66.51257
1011.252, 66.53427
1011.734, 66.49873
1012.216, 66.37672
1012.698, 66.22928
1013.180, 66.32620
1013.662, 66.75993
1014.144, 67.10738
1014.627, 66.84151
1015.109, 66.28015
1015.591, 66.02968
1016.073, 66.03411
1016.555, 66.16019
1017.037, 66.36282
1017.519, 66.51106
1018.001, 66.53757
1018.484, 66.53275
1018.966, 66.65572
1019.448, 66.82552
1019.930, 66.69955
1020.412, 66.31416
1020.894, 65.96908
1021.376, 65.71928
1021.858, 65.66619
1022.340, 65.89265
1022.823, 66.17884
1023.305, 66.14572
1023.787, 65.83810
1024.269, 65.70092
1024.751, 65.74072
1025.233, 65.84593
1025.715, 66.01405
1026.197, 66.08965
1026.680, 65.94088
1027.162, 65.74322
1027.644, 65.87132
1028.126, 66.33894
1028.608, 66.48374
1029.090, 66.22762
1029.572, 66.02677
1030.054, 65.99821
1030.536, 65.97486
1031.019, 65.82036
1031.501, 65.62614
1031.983, 65.60546
1032.465, 65.79655
1032.947, 65.85163
1033.429, 65.71466
1033.911, 65.58225
1034.393, 65.47221
1034.875, 65.41618
1035.358, 65.42616
1035.840, 65.51517
1036.322, 65.74654
1036.804, 66.20599
1037.286, 66.38692
1037.768, 66.10483
1038.250, 65.87650
1038.732, 65.83842
1039.215, 65.85310
1039.697, 65.82886
1040.179, 65.78210
1040.661, 65.73777
1041.143, 65.65034
1041.625, 65.73445
1042.107, 66.21070
1042.589, 66.55556
1043.072, 66.68140
1043.554, 66.63213
1044.036, 66.25983
1044.518, 65.76836
1045.000, 65.66781
1045.482, 66.07169
1045.964, 66.47311
1046.446, 66.95753
1046.928, 67.27559
1047.411, 67.20570
1047.893, 67.09554
1048.375, 67.24184
1048.857, 67.53757
1049.339, 67.73440
1049.821, 67.83096
1050.303, 67.71600
1050.785, 67.12310
1051.267, 66.64452
1051.750, 66.43431
1052.232, 66.44096
1052.714, 66.69582
1053.196, 67.11369
1053.678, 67.60344
1054.160, 68.22415
1054.642, 68.39300
1055.124, 67.39156
1055.607, 66.67738
1056.089, 67.14214
1056.571, 67.79045
1057.053, 67.72468
1057.535, 67.21840
1058.017, 67.01625
1058.499, 67.29136
1058.981, 67.39661
1059.464, 67.00758
1059.946, 66.58018
1060.428, 66.24538
1060.910, 65.99670
1061.392, 65.85087
1061.874, 65.77229
1062.356, 65.71203
1062.838, 65.66314
1063.320, 65.54806
1063.802, 65.12904
1064.285, 64.90957
1064.767, 65.34005
1065.249, 65.85979
1065.731, 66.12316
1066.213, 66.05807
1066.695, 65.43644
1067.177, 64.23795
1067.659, 63.49416
1068.142, 63.93559
1068.624, 64.50821
1069.106, 64.93418
1069.588, 65.08871
1070.070, 64.58153
1070.552, 63.84606
1071.034, 63.67242
1071.516, 64.18551
1071.999, 64.79646
1072.481, 65.66794
1072.963, 66.04573
1073.445, 65.06279
1073.927, 63.93872
1074.409, 63.74603
1074.891, 64.09407
1075.373, 64.26523
1075.855, 64.13883
1076.338, 63.96621
1076.820, 63.74932
1077.302, 63.66968
1077.784, 64.00906
1078.266, 64.32713
1078.748, 64.21477
1079.230, 63.88462
1079.712, 63.69909
1080.194, 63.68214
1080.677, 63.57405
1081.159, 63.15189
1081.641, 62.89619
1082.123, 63.22476
1082.605, 63.60448
1083.087, 63.69470
1083.569, 63.56504
1084.052, 63.24919
1084.534, 62.82505
1085.016, 62.55608
1085.498, 62.56842
1085.980, 62.63155
1086.462, 62.57475
1086.944, 62.61229
1087.426, 63.00475
1087.908, 63.48676
1088.391, 63.80227
1088.873, 63.90458
1089.355, 63.73600
1089.837, 63.19794
1090.319, 62.75673
1090.801, 62.69117
1091.283, 62.66377
1091.765, 62.39531
1092.247, 62.14457
1092.730, 62.17782
1093.212, 62.46261
1093.694, 62.91145
1094.176, 63.55651
1094.658, 63.92194
1095.140, 63.65581
1095.622, 63.30471
1096.104, 63.04438
1096.587, 62.86626
1097.069, 62.77009
1097.551, 62.73906
1098.033, 62.74870
1098.515, 62.79508
1098.997, 62.86377
1099.479, 62.98290
1099.961, 63.07933
1100.443, 63.12725
1100.926, 63.14610
1101.408, 63.17717
1101.890, 63.17513
1102.372, 63.05436
1102.854, 62.81185
1103.336, 62.56047
1103.818, 62.20084
1104.300, 62.02060
1104.782, 62.23904
1105.265, 62.47560
1105.747, 62.50067
1106.229, 62.44218
1106.711, 62.52085
1107.193, 62.70304
1107.675, 62.65515
1108.157, 62.11271
1108.639, 61.76927
1109.122, 61.75364
1109.604, 61.89870
1110.086, 62.31474
1110.568, 62.71859
1111.050, 62.82941
1111.532, 62.69706
1112.014, 62.52232
1112.496, 62.23113
1112.979, 62.12734
1113.461, 62.42268
1113.943, 62.63490
1114.425, 62.65871
1114.907, 62.55367
1115.389, 62.26823
1115.871, 61.91437
1116.353, 61.75819
1116.835, 61.84212
1117.318, 61.87141
1117.800, 61.79987
1118.282, 61.76057
1118.764, 61.79532
1119.246, 61.82924
1119.728, 61.78385
1120.210, 61.75196
1120.692, 61.90089
1121.174, 62.22542
1121.657, 62.42508
1122.139, 62.48304
1122.621, 62.46344
1123.103, 62.36148
1123.585, 62.18839
1124.067, 61.87771
1124.549, 61.65038
1125.031, 61.82395
1125.514, 62.25397
1125.996, 62.17528
1126.478, 61.39155
1126.960, 61.24350
1127.442, 61.94865
1127.924, 62.42712
1128.406, 62.30251
1128.888, 62.08863
1129.370, 62.21871
1129.853, 62.49023
1130.335, 62.37493
1130.817, 61.87419
1131.299, 61.76667
1131.781, 62.07924
1132.263, 62.17316
1132.745, 61.91177
1133.227, 61.55716
1133.709, 61.23923
1134.192, 61.07666
1134.674, 61.30825
1135.156, 61.79974
1135.638, 62.01314
1136.120, 61.96392
1136.602, 61.65525
1137.084, 61.14204
1137.566, 61.00868
1138.049, 61.47644
1138.531, 62.06559
1139.013, 62.35785
1139.495, 62.38224
1139.977, 62.01316
1140.459, 61.47203
1140.941, 61.47710
1141.423, 61.91293
1141.906, 62.21169
1142.388, 62.22593
1142.870, 62.05849
1143.352, 61.74533
1143.834, 61.46965
1144.316, 61.49920
1144.798, 61.66455
1145.280, 61.72203
1145.762, 61.70932
1146.245, 61.74817
1146.727, 61.81187
1147.209, 61.68540
1147.691, 61.29016
1148.173, 61.06916
1148.655, 61.52385
1149.137, 62.11003
1149.619, 62.45883
1150.101, 62.58902
1150.584, 62.38084
1151.066, 62.02120
1151.548, 61.91357
1152.030, 62.09166
1152.512, 62.11056
1152.994, 61.61508
1153.476, 61.25645
1153.958, 61.52772
1154.441, 61.84916
1154.923, 61.76994
1155.405, 61.56012
1155.887, 61.59461
1156.369, 61.82302
1156.851, 61.91789
1157.333, 61.76283
1157.815, 61.69076
1158.297, 61.95236
1158.780, 62.06413
1159.262, 61.64001
1159.744, 61.24595
1160.226, 61.39111
1160.708, 61.80695
1161.190, 61.96867
1161.672, 61.84937
1162.154, 61.76483
1162.636, 61.67102
1163.119, 61.70292
1163.601, 61.96947
1164.083, 62.19172
1164.565, 62.27314
1165.047, 62.23195
1165.529, 62.04948
1166.011, 61.77895
1166.493, 61.65656
1166.976, 61.73875
1167.458, 61.63007
1167.940, 61.23314
1168.422, 61.20222
1168.904, 61.78773
1169.386, 62.22955
1169.868, 61.97624
1170.350, 61.48396
1170.833, 61.57691
1171.315, 62.09072
1171.797, 61.92943
1172.279, 61.18299
1172.761, 60.90945
1173.243, 61.20150
1173.725, 61.55879
1174.207, 61.78440
1174.689, 61.93344
1175.172, 62.05725
1175.654, 62.13208
1176.136, 62.13729
1176.618, 62.05322
1177.100, 61.72013
1177.582, 61.28149
1178.064, 61.18641
1178.546, 61.44704
1179.028, 61.62001
1179.511, 61.47539
1179.993, 61.42637
1180.475, 62.12078
1180.957, 62.77605
1181.439, 62.44194
1181.921, 61.74731
1182.403, 61.43140
1182.885, 61.45085
1183.368, 61.57215
1183.850, 61.72260
1184.332, 61.80209
1184.814, 61.75991
1185.296, 61.65704
1185.778, 61.37419
1186.260, 61.20349
1186.742, 61.53708
1187.224, 61.90754
1187.707, 61.65879
1188.189, 60.99880
1188.671, 60.79903
1189.153, 61.32891
1189.635, 61.58297
1190.117, 61.15102
1190.599, 60.97776
1191.081, 61.40496
1191.564, 61.83920
1192.046, 61.98481
1192.528, 61.93616
1193.010, 61.77922
1193.492, 61.54222
1193.974, 61.47433
1194.456, 61.61817
1194.938, 61.70743
1195.421, 61.72392
1195.903, 61.71491
1196.385, 61.68980
1196.867, 61.67596
1197.349, 61.69682
1197.831, 61.72619
1198.313, 61.69964
1198.795, 61.64185
1199.277, 61.70589
1199.760, 61.85610
1200.242, 61.90999
1200.724, 61.84866
1201.206, 61.69809
1201.688, 61.48040
1202.170, 61.31559
1202.652, 61.29150
1203.134, 61.39941
1203.616, 61.75554
1204.099, 62.13858
1204.581, 62.17866
1205.063, 62.02560
1205.545, 61.98455
1206.027, 62.06881
1206.509, 62.11896
1206.991, 62.07810
1207.473, 61.99936
1207.956, 61.87834
1208.438, 61.76977
1208.920, 61.77459
1209.402, 61.72990
1209.884, 61.32634
1210.366, 60.88946
1210.848, 61.03833
1211.330, 61.72601
1211.813, 62.07389
1212.295, 61.83478
1212.777, 61.56336
1213.259, 61.18337
1213.741, 60.92537
1214.223, 60.88177
1214.705, 60.92426
1215.187, 60.98435
1215.669, 61.04957
1216.151, 61.09259
1216.634, 61.11652
1217.116, 61.19112
1217.598, 61.32972
1218.080, 61.31776
1218.562, 61.12266
1219.044, 61.05749
1219.526, 61.23633
1220.008, 61.38552
1220.491, 61.26622
1220.973, 61.07451
1221.455, 61.22511
1221.937, 61.53373
1222.419, 61.42726
1222.901, 61.10304
1223.383, 61.10937
1223.865, 61.46181
1224.348, 61.97793
1224.830, 62.55830
1225.312, 62.86058
1225.794, 62.52861
1226.276, 62.07487
1226.758, 61.82796
1227.240, 61.69582
1227.722, 61.65971
1228.204, 61.64690
1228.687, 61.56251
1229.169, 61.42310
1229.651, 61.30812
1230.133, 61.22863
1230.615, 61.19737
1231.097, 61.16256
1231.579, 61.25842
1232.061, 61.67381
1232.543, 62.02160
1233.026, 62.14014
1233.508, 62.08846
1233.990, 61.89766
1234.472, 61.60749
1234.954, 61.36915
1235.436, 61.16554
1235.918, 61.16932
1236.400, 61.40772
1236.883, 61.54716
1237.365, 61.51466
1237.847, 61.47424
1238.329, 61.51024
1238.811, 61.61730
1239.293, 61.84031
1239.775, 62.03658
1240.257, 61.78054
1240.740, 61.32476
1241.222, 61.27388
1241.704, 61.54561
1242.186, 61.88567
1242.668, 62.18841
1243.150, 62.32286
1243.632, 62.23133
1244.114, 61.98484
1244.596, 61.33235
1245.078, 60.91757
1245.561, 61.53671
1246.043, 62.18127
1246.525, 61.74086
1247.007, 60.90420
1247.489, 60.85209
1247.971, 61.53144
1248.453, 61.87806
1248.935, 61.62200
1249.418, 61.43280
1249.900, 61.28497
1250.382, 61.27924
1250.864, 61.51709
1251.346, 61.71766
1251.828, 61.69589
1252.310, 61.62197
1252.792, 61.72657
1253.275, 61.96712
1253.757, 62.22564
1254.239, 62.47957
1254.721, 62.37776
1255.203, 61.95186
1255.685, 61.51211
1256.167, 61.16837
1256.649, 61.22854
1257.131, 61.85757
1257.614, 62.39137
1258.096, 62.03290
1258.578, 61.41186
1259.060, 61.17982
1259.542, 61.18570
1260.024, 61.34017
1260.506, 61.54512
1260.988, 61.61864
1261.470, 61.60174
1261.953, 61.80215
1262.435, 62.39827
1262.917, 62.74559
1263.399, 62.53497
1263.881, 62.26984
1264.363, 61.92703
1264.845, 61.75695
1265.327, 61.93089
1265.810, 62.29865
1266.292, 62.79539
1266.774, 63.28907
1267.256, 63.14667
1267.738, 62.25988
1268.220, 61.95974
1268.702, 62.27204
1269.184, 62.29076
1269.667, 61.86678
1270.149, 61.68216
1270.631, 62.04674
1271.113, 62.51144
1271.595, 62.68827
1272.077, 62.62530
1272.559, 62.18861
1273.041, 61.72065
1273.523, 61.77179
1274.005, 62.15865
1274.488, 62.70875
1274.970, 63.21098
1275.452, 63.14589
1275.934, 62.37457
1276.416, 61.79779
1276.898, 61.84446
1277.380, 61.99107
1277.862, 62.16754
1278.345, 62.32723
1278.827, 62.51955
1279.309, 62.60554
1279.791, 62.38220
1280.273, 62.04044
1280.755, 62.04036
1281.237, 62.37524
1281.719, 62.42187
1282.202, 62.14746
1282.684, 62.04947
1283.166, 62.17628
1283.648, 62.39312
1284.130, 62.65048
1284.612, 62.84578
1285.094, 62.90646
1285.576, 62.90180
1286.058, 62.93388
1286.541, 62.93601
1287.023, 62.85018
##END=



