##NAMES=Stilbite-Ca
##RRUFFID=R050106
##IDEAL CHEMISTRY=NaCa_4_(Si_27_Al_9_)O_72_&#183;28H_2_O
##LOCALITY=Corea, Sonora, Mexico
##OWNER=RRUFF
##SOURCE=Fred Devito
##DESCRIPTION=White to colorless sheaflike aggregates of flattened single crystals
##STATUS=The identification of this mineral has been confirmed by X-ray diffraction and chemical analysis
##URL=rruff.info/R050106
##MEASURED CHEMISTRY=Na_1.42_Ca_4.28_(Si_26.02_Al_9.98_)O_72_Â·27.61H_2_O; trace amounts of K; H_2_O estimated by difference
101.6312, 8621.020
102.1133, 8774.611
102.5954, 8805.894
103.0775, 8830.542
103.5596, 8850.633
104.0418, 8866.444
104.5239, 8875.501
105.0060, 8867.805
105.4881, 8859.606
105.9702, 8876.708
106.4523, 8934.518
106.9345, 8996.874
107.4166, 9025.010
107.8987, 9014.561
108.3808, 8987.142
108.8629, 8944.019
109.3450, 8892.331
109.8272, 8839.867
110.3093, 8787.088
110.7914, 8735.466
111.2735, 8693.221
111.7556, 8659.035
112.2377, 8636.613
112.7199, 8631.449
113.2020, 8638.652
113.6841, 8647.562
114.1662, 8647.193
114.6483, 8633.291
115.1304, 8627.578
115.6126, 8635.455
116.0947, 8645.614
116.5768, 8659.396
117.0589, 8673.918
117.5410, 8676.946
118.0231, 8647.041
118.5053, 8530.240
118.9874, 8459.755
119.4695, 8465.540
119.9516, 8506.812
120.4337, 8538.470
120.9158, 8540.662
121.3980, 8523.209
121.8801, 8519.549
122.3622, 8548.395
122.8443, 8565.582
123.3264, 8551.289
123.8085, 8511.428
124.2907, 8467.077
124.7728, 8430.190
125.2549, 8398.217
125.7370, 8361.370
126.2191, 8306.373
126.7012, 8253.751
127.1834, 8229.168
127.6655, 8238.251
128.1476, 8245.946
128.6297, 8223.685
129.1118, 8181.859
129.5939, 8136.550
130.0761, 8091.288
130.5582, 8047.056
131.0403, 8004.359
131.5224, 7953.693
132.0045, 7919.852
132.4866, 7925.171
132.9688, 7960.093
133.4509, 7991.904
133.9330, 7992.294
134.4151, 7957.792
134.8972, 7919.071
135.3793, 7856.209
135.8615, 7805.208
136.3436, 7786.739
136.8257, 7802.690
137.3078, 7837.826
137.7899, 7871.082
138.2720, 7904.582
138.7542, 7931.485
139.2363, 7961.352
139.7184, 7981.116
140.2005, 7974.139
140.6826, 7934.283
141.1647, 7875.980
141.6469, 7841.863
142.1290, 7853.599
142.6111, 7867.281
143.0932, 7878.426
143.5753, 7888.974
144.0574, 7902.922
144.5396, 7923.179
145.0217, 7948.618
145.5038, 7969.554
145.9859, 7976.886
146.4680, 7989.147
146.9501, 8023.094
147.4323, 8073.632
147.9144, 8113.858
148.3965, 8119.767
148.8786, 8091.817
149.3607, 8074.901
149.8429, 8080.712
150.3250, 8091.767
150.8071, 8091.419
151.2892, 8077.563
151.7713, 8057.126
152.2534, 8028.867
152.7356, 7996.409
153.2177, 7976.653
153.6998, 7986.713
154.1819, 8013.347
154.6640, 8026.031
155.1461, 8020.673
155.6283, 7999.342
156.1104, 7961.677
156.5925, 7909.762
157.0746, 7857.718
157.5567, 7820.684
158.0388, 7798.005
158.5210, 7758.646
159.0031, 7675.099
159.4852, 7590.828
159.9673, 7535.252
160.4494, 7510.776
160.9315, 7493.047
161.4137, 7453.924
161.8958, 7388.212
162.3779, 7316.816
162.8600, 7220.868
163.3421, 7133.038
163.8242, 7084.185
164.3064, 7083.300
164.7885, 7102.615
165.2706, 7082.572
165.7527, 6984.379
166.2348, 6906.906
166.7169, 6876.637
167.1991, 6864.281
167.6812, 6842.246
168.1633, 6797.055
168.6454, 6731.083
169.1275, 6652.817
169.6096, 6537.439
170.0918, 6436.405
170.5739, 6363.649
171.0560, 6309.620
171.5381, 6258.226
172.0202, 6198.735
172.5023, 6132.021
172.9845, 6073.920
173.4666, 6028.702
173.9487, 5985.730
174.4308, 5944.741
174.9129, 5903.341
175.3951, 5853.861
175.8772, 5787.049
176.3593, 5702.066
176.8414, 5635.755
177.3235, 5595.414
177.8056, 5566.122
178.2878, 5543.230
178.7699, 5525.394
179.2520, 5500.146
179.7341, 5450.394
180.2162, 5376.493
180.6983, 5314.788
181.1805, 5272.541
181.6626, 5243.247
182.1447, 5223.473
182.6268, 5215.830
183.1089, 5205.024
183.5910, 5169.549
184.0732, 5113.879
184.5553, 5059.880
185.0374, 5012.658
185.5195, 4972.489
186.0016, 4941.275
186.4837, 4923.651
186.9659, 4908.567
187.4480, 4885.506
187.9301, 4855.143
188.4122, 4822.848
188.8943, 4787.484
189.3764, 4750.727
189.8586, 4726.008
190.3407, 4725.773
190.8228, 4729.347
191.3049, 4721.696
191.7870, 4702.075
192.2691, 4677.573
192.7513, 4654.891
193.2334, 4634.582
193.7155, 4610.522
194.1976, 4569.731
194.6797, 4532.125
195.1618, 4512.655
195.6440, 4513.712
196.1261, 4520.047
196.6082, 4511.129
197.0903, 4481.514
197.5724, 4452.676
198.0546, 4425.757
198.5367, 4401.971
199.0188, 4380.600
199.5009, 4361.470
199.9830, 4348.818
200.4651, 4353.166
200.9473, 4392.454
201.4294, 4415.146
201.9115, 4408.470
202.3936, 4389.128
202.8757, 4373.710
203.3578, 4369.241
203.8400, 4367.487
204.3221, 4345.016
204.8042, 4272.132
205.2863, 4217.391
205.7684, 4191.060
206.2505, 4184.272
206.7327, 4190.738
207.2148, 4208.096
207.6969, 4230.831
208.1790, 4236.044
208.6611, 4203.593
209.1432, 4174.542
209.6254, 4152.519
210.1075, 4137.399
210.5896, 4128.030
211.0717, 4123.708
211.5538, 4124.660
212.0359, 4132.890
212.5181, 4160.816
213.0002, 4181.910
213.4823, 4186.646
213.9644, 4179.421
214.4465, 4169.329
214.9286, 4161.472
215.4108, 4155.939
215.8929, 4153.528
216.3750, 4150.995
216.8571, 4153.813
217.3392, 4164.553
217.8213, 4182.602
218.3035, 4208.483
218.7856, 4247.830
219.2677, 4296.356
219.7498, 4309.487
220.2319, 4250.690
220.7140, 4193.396
221.1962, 4177.562
221.6783, 4200.748
222.1604, 4240.303
222.6425, 4288.769
223.1246, 4341.118
223.6067, 4360.177
224.0889, 4320.811
224.5710, 4267.980
225.0531, 4225.392
225.5352, 4195.202
226.0173, 4186.603
226.4994, 4217.849
226.9816, 4281.284
227.4637, 4320.475
227.9458, 4320.231
228.4279, 4301.658
228.9100, 4280.330
229.3921, 4256.761
229.8743, 4234.643
230.3564, 4212.892
230.8385, 4194.662
231.3206, 4191.929
231.8027, 4216.928
232.2849, 4253.381
232.7670, 4291.020
233.2491, 4333.601
233.7312, 4351.086
234.2133, 4286.925
234.6954, 4176.608
235.1776, 4109.450
235.6597, 4144.407
236.1418, 4222.743
236.6239, 4257.508
237.1060, 4239.817
237.5881, 4203.318
238.0703, 4160.183
238.5524, 4115.693
239.0345, 4082.651
239.5166, 4070.328
239.9987, 4070.919
240.4808, 4069.459
240.9630, 4063.573
241.4451, 4061.643
241.9272, 4082.000
242.4093, 4110.563
242.8914, 4117.197
243.3735, 4065.850
243.8557, 3987.153
244.3378, 3956.839
244.8199, 3993.778
245.3020, 4039.153
245.7841, 4068.213
246.2662, 4080.695
246.7484, 4072.192
247.2305, 4024.000
247.7126, 3954.878
248.1947, 3921.813
248.6768, 3944.865
249.1589, 3966.529
249.6411, 3951.022
250.1232, 3913.182
250.6053, 3879.777
251.0874, 3867.050
251.5695, 3868.641
252.0516, 3864.258
252.5338, 3850.926
253.0159, 3836.358
253.4980, 3824.210
253.9801, 3813.525
254.4622, 3802.074
254.9443, 3784.813
255.4265, 3766.546
255.9086, 3768.719
256.3907, 3814.650
256.8728, 3841.920
257.3549, 3810.629
257.8370, 3747.967
258.3192, 3700.564
258.8013, 3701.078
259.2834, 3734.052
259.7655, 3740.089
260.2476, 3698.632
260.7297, 3661.951
261.2119, 3652.606
261.6940, 3659.774
262.1761, 3666.667
262.6582, 3662.811
263.1403, 3652.519
263.6224, 3652.759
264.1046, 3671.275
264.5867, 3688.431
265.0688, 3704.007
265.5509, 3713.152
266.0330, 3707.301
266.5151, 3678.174
266.9973, 3633.836
267.4794, 3600.939
267.9615, 3577.081
268.4436, 3570.966
268.9257, 3590.720
269.4078, 3625.167
269.8900, 3662.900
270.3721, 3702.004
270.8542, 3735.288
271.3363, 3735.278
271.8184, 3672.007
272.3005, 3625.665
272.7827, 3626.133
273.2648, 3650.152
273.7469, 3670.077
274.2290, 3671.723
274.7111, 3663.689
275.1932, 3669.962
275.6754, 3699.553
276.1575, 3727.656
276.6396, 3753.751
277.1217, 3773.279
277.6038, 3777.946
278.0859, 3762.022
278.5681, 3738.230
279.0502, 3737.640
279.5323, 3775.811
280.0144, 3807.325
280.4965, 3823.188
280.9786, 3828.793
281.4608, 3827.782
281.9429, 3821.212
282.4250, 3811.479
282.9071, 3800.494
283.3892, 3779.410
283.8713, 3778.451
284.3535, 3824.541
284.8356, 3878.553
285.3177, 3908.558
285.7998, 3904.165
286.2819, 3877.460
286.7640, 3845.333
287.2462, 3802.038
287.7283, 3768.299
288.2104, 3752.712
288.6925, 3743.285
289.1746, 3729.342
289.6567, 3708.584
290.1389, 3691.091
290.6210, 3693.002
291.1031, 3720.917
291.5852, 3746.435
292.0673, 3779.094
292.5495, 3799.475
293.0316, 3786.121
293.5137, 3738.484
293.9958, 3686.170
294.4779, 3667.004
294.9601, 3688.994
295.4422, 3705.171
295.9243, 3714.357
296.4064, 3714.143
296.8885, 3697.766
297.3706, 3667.195
297.8528, 3635.611
298.3349, 3610.885
298.8170, 3591.152
299.2991, 3597.230
299.7812, 3685.287
300.2633, 3751.589
300.7455, 3724.900
301.2276, 3622.566
301.7097, 3528.502
302.1918, 3524.227
302.6739, 3611.218
303.1560, 3676.492
303.6382, 3719.424
304.1203, 3737.992
304.6024, 3717.600
305.0845, 3671.239
305.5666, 3633.040
306.0487, 3634.608
306.5309, 3668.726
307.0130, 3675.834
307.4951, 3628.987
307.9772, 3591.896
308.4593, 3604.487
308.9414, 3644.485
309.4236, 3667.474
309.9057, 3638.564
310.3878, 3577.035
310.8699, 3548.479
311.3520, 3565.271
311.8341, 3593.622
312.3163, 3632.295
312.7984, 3669.343
313.2805, 3685.033
313.7626, 3664.254
314.2447, 3625.510
314.7268, 3606.103
315.2090, 3611.344
315.6911, 3621.280
316.1732, 3632.131
316.6553, 3641.742
317.1374, 3647.664
317.6195, 3648.933
318.1017, 3646.647
318.5838, 3637.459
319.0659, 3617.680
319.5480, 3613.583
320.0301, 3657.948
320.5122, 3709.991
320.9944, 3729.822
321.4765, 3705.780
321.9586, 3672.595
322.4407, 3670.248
322.9228, 3698.696
323.4049, 3707.916
323.8871, 3669.589
324.3692, 3618.902
324.8513, 3589.394
325.3334, 3583.567
325.8155, 3585.729
326.2976, 3592.639
326.7798, 3601.043
327.2619, 3589.225
327.7440, 3538.132
328.2261, 3486.510
328.7082, 3474.099
329.1903, 3498.093
329.6725, 3524.210
330.1546, 3541.525
330.6367, 3548.772
331.1188, 3539.802
331.6009, 3508.869
332.0830, 3474.825
332.5652, 3456.513
333.0473, 3450.078
333.5294, 3442.727
334.0115, 3421.798
334.4936, 3401.598
334.9757, 3407.412
335.4579, 3443.692
335.9400, 3478.274
336.4221, 3485.334
336.9042, 3469.891
337.3863, 3453.142
337.8684, 3430.754
338.3506, 3412.654
338.8327, 3413.157
339.3148, 3430.140
339.7969, 3438.875
340.2790, 3419.311
340.7611, 3382.157
341.2433, 3366.660
341.7254, 3382.920
342.2075, 3408.327
342.6896, 3442.718
343.1717, 3478.966
343.6538, 3494.488
344.1360, 3476.302
344.6181, 3435.977
345.1002, 3401.980
345.5823, 3368.389
346.0644, 3349.084
346.5465, 3360.693
347.0287, 3385.380
347.5108, 3393.449
347.9929, 3374.630
348.4750, 3347.113
348.9571, 3341.770
349.4392, 3374.305
349.9214, 3390.392
350.4035, 3371.856
350.8856, 3344.729
351.3677, 3332.063
351.8498, 3337.542
352.3319, 3350.620
352.8141, 3359.384
353.2962, 3361.065
353.7783, 3372.822
354.2604, 3405.308
354.7425, 3437.243
355.2246, 3458.011
355.7068, 3467.526
356.1889, 3468.309
356.6710, 3459.856
357.1531, 3442.541
357.6352, 3447.862
358.1173, 3504.094
358.5995, 3551.190
359.0816, 3571.163
359.5637, 3571.334
360.0458, 3560.623
360.5279, 3542.045
361.0100, 3524.218
361.4922, 3540.266
361.9743, 3632.471
362.4564, 3700.200
362.9385, 3726.416
363.4206, 3728.466
363.9027, 3719.530
364.3849, 3704.905
364.8670, 3690.412
365.3491, 3684.974
365.8312, 3688.013
366.3133, 3702.398
366.7954, 3732.530
367.2776, 3769.925
367.7597, 3815.852
368.2418, 3867.415
368.7239, 3911.564
369.2060, 3926.356
369.6881, 3907.808
370.1703, 3917.834
370.6524, 3980.320
371.1345, 4049.114
371.6166, 4111.085
372.0987, 4162.517
372.5808, 4196.973
373.0630, 4200.179
373.5451, 4184.163
374.0272, 4195.222
374.5093, 4246.646
374.9915, 4296.319
375.4736, 4318.687
375.9557, 4328.393
376.4378, 4344.188
376.9199, 4369.307
377.4020, 4407.196
377.8842, 4472.936
378.3663, 4569.452
378.8484, 4644.283
379.3305, 4661.348
379.8126, 4654.329
380.2947, 4668.125
380.7769, 4708.528
381.2590, 4758.021
381.7411, 4808.941
382.2232, 4860.512
382.7053, 4906.381
383.1874, 4939.493
383.6696, 4977.639
384.1517, 5055.521
384.6338, 5173.623
385.1159, 5271.934
385.5980, 5320.717
386.0801, 5346.872
386.5623, 5376.839
387.0444, 5414.357
387.5265, 5469.312
388.0086, 5554.204
388.4907, 5671.287
388.9728, 5780.520
389.4550, 5878.680
389.9371, 5972.599
390.4192, 6064.672
390.9013, 6155.871
391.3834, 6245.537
391.8655, 6331.625
392.3477, 6418.518
392.8298, 6526.660
393.3119, 6691.146
393.7940, 6832.648
394.2761, 6924.815
394.7582, 6992.969
395.2404, 7062.197
395.7225, 7142.467
396.2046, 7236.965
396.6867, 7353.968
397.1688, 7508.908
397.6509, 7655.143
398.1331, 7796.189
398.6152, 7927.473
399.0973, 8038.368
399.5794, 8133.338
400.0615, 8233.605
400.5436, 8364.471
401.0258, 8528.649
401.5079, 8664.693
401.9900, 8745.854
402.4721, 8825.109
402.9542, 8927.691
403.4363, 9038.475
403.9185, 9129.685
404.4006, 9183.582
404.8827, 9212.553
405.3648, 9250.109
405.8469, 9304.585
406.3290, 9345.541
406.8112, 9365.995
407.2933, 9367.475
407.7754, 9346.309
408.2575, 9300.060
408.7396, 9244.130
409.2217, 9191.130
409.7039, 9141.107
410.1860, 9097.183
410.6681, 9078.363
411.1502, 9040.754
411.6323, 8932.029
412.1144, 8758.881
412.5966, 8598.084
413.0787, 8494.709
413.5608, 8419.675
414.0429, 8333.904
414.5250, 8235.821
415.0071, 8107.872
415.4893, 7913.805
415.9714, 7672.774
416.4535, 7493.489
416.9356, 7432.391
417.4177, 7388.100
417.8998, 7306.013
418.3820, 7192.525
418.8641, 7065.624
419.3462, 6930.789
419.8283, 6793.820
420.3104, 6671.710
420.7925, 6569.278
421.2747, 6471.883
421.7568, 6374.466
422.2389, 6283.446
422.7210, 6210.531
423.2031, 6156.307
423.6852, 6105.770
424.1674, 6041.586
424.6495, 5963.341
425.1316, 5872.875
425.6137, 5744.047
426.0958, 5630.021
426.5779, 5563.613
427.0601, 5530.275
427.5422, 5491.589
428.0243, 5419.650
428.5064, 5326.349
428.9885, 5265.273
429.4706, 5263.272
429.9528, 5248.333
430.4349, 5202.737
430.9170, 5140.075
431.3991, 5068.364
431.8812, 4989.531
432.3633, 4917.390
432.8455, 4876.979
433.3276, 4870.557
433.8097, 4843.406
434.2918, 4767.029
434.7739, 4690.024
435.2560, 4659.257
435.7382, 4665.538
436.2203, 4651.503
436.7024, 4556.909
437.1845, 4432.393
437.6666, 4377.146
438.1487, 4402.451
438.6309, 4449.136
439.1130, 4502.980
439.5951, 4545.702
440.0772, 4527.399
440.5593, 4379.032
441.0414, 4247.733
441.5236, 4232.251
442.0057, 4297.333
442.4878, 4355.731
442.9699, 4376.750
443.4520, 4375.228
443.9341, 4375.427
444.4163, 4373.620
444.8984, 4383.257
445.3805, 4425.050
445.8626, 4464.778
446.3447, 4469.095
446.8268, 4439.692
447.3090, 4404.729
447.7911, 4387.210
448.2732, 4387.094
448.7553, 4400.210
449.2374, 4449.851
449.7195, 4487.172
450.2017, 4501.575
450.6838, 4497.473
451.1659, 4476.899
451.6480, 4439.970
452.1301, 4400.013
452.6122, 4382.010
453.0944, 4390.565
453.5765, 4405.591
454.0586, 4441.908
454.5407, 4470.459
455.0228, 4469.557
455.5049, 4441.071
455.9871, 4408.480
456.4692, 4389.524
456.9513, 4380.173
457.4334, 4364.934
457.9156, 4340.501
458.3977, 4318.627
458.8798, 4315.278
459.3619, 4318.536
459.8440, 4304.646
460.3261, 4262.639
460.8083, 4211.350
461.2904, 4163.301
461.7725, 4117.326
462.2546, 4066.085
462.7367, 4003.523
463.2188, 3942.908
463.7010, 3912.010
464.1831, 3924.662
464.6652, 3917.817
465.1473, 3871.993
465.6294, 3812.259
466.1115, 3756.507
466.5937, 3707.735
467.0758, 3663.268
467.5579, 3620.674
468.0400, 3586.169
468.5221, 3547.476
469.0042, 3529.419
469.4864, 3510.778
469.9685, 3495.192
470.4506, 3475.106
470.9327, 3435.952
471.4148, 3372.982
471.8969, 3307.625
472.3791, 3277.773
472.8612, 3292.974
473.3433, 3300.923
473.8254, 3276.720
474.3075, 3262.896
474.7896, 3286.766
475.2718, 3342.490
475.7539, 3403.083
476.2360, 3461.659
476.7181, 3511.810
477.2002, 3534.103
477.6823, 3523.529
478.1645, 3513.271
478.6466, 3513.830
479.1287, 3528.650
479.6108, 3563.042
480.0929, 3624.074
480.5750, 3689.954
481.0572, 3751.698
481.5393, 3810.111
482.0214, 3865.684
482.5035, 3918.306
482.9856, 3971.925
483.4677, 4029.158
483.9499, 4088.254
484.4320, 4166.947
484.9141, 4283.861
485.3962, 4401.886
485.8783, 4499.909
486.3604, 4583.730
486.8426, 4671.848
487.3247, 4775.802
487.8068, 4882.905
488.2889, 4950.149
488.7710, 4925.370
489.2531, 4958.935
489.7353, 5111.692
490.2174, 5283.736
490.6995, 5403.787
491.1816, 5465.974
491.6637, 5508.275
492.1458, 5559.801
492.6280, 5619.420
493.1101, 5682.808
493.5922, 5760.939
494.0743, 5818.744
494.5564, 5835.996
495.0385, 5821.322
495.5207, 5782.602
496.0028, 5717.795
496.4849, 5636.236
496.9670, 5536.942
497.4491, 5425.462
497.9312, 5327.083
498.4134, 5253.555
498.8955, 5177.332
499.3776, 5059.198
499.8597, 4891.682
500.3418, 4725.159
500.8239, 4564.441
501.3061, 4403.574
501.7882, 4231.057
502.2703, 4053.828
502.7524, 3895.906
503.2345, 3773.150
503.7166, 3676.240
504.1988, 3575.719
504.6809, 3479.066
505.1630, 3365.840
505.6451, 3211.244
506.1272, 3056.994
506.6093, 2934.443
507.0915, 2848.164
507.5736, 2785.426
508.0557, 2744.998
508.5378, 2722.915
509.0199, 2676.414
509.5020, 2592.007
509.9842, 2509.458
510.4663, 2450.958
510.9484, 2406.087
511.4305, 2360.801
511.9126, 2311.737
512.3948, 2262.106
512.8769, 2215.257
513.3590, 2169.944
513.8411, 2117.197
514.3232, 2050.575
514.8054, 1991.954
515.2875, 1972.196
515.7696, 2000.147
516.2517, 2009.817
516.7338, 1990.184
517.2159, 1960.409
517.6981, 1925.147
518.1802, 1888.881
518.6623, 1861.253
519.1444, 1847.648
519.6265, 1842.633
520.1086, 1831.573
520.5908, 1809.132
521.0729, 1790.916
521.5550, 1783.794
522.0371, 1775.904
522.5192, 1755.107
523.0013, 1724.404
523.4835, 1700.378
523.9656, 1699.855
524.4477, 1714.990
524.9298, 1717.673
525.4119, 1705.474
525.8940, 1689.552
526.3762, 1677.413
526.8583, 1662.914
527.3404, 1632.040
527.8225, 1572.132
528.3046, 1533.764
528.7867, 1566.025
529.2689, 1631.027
529.7510, 1660.498
530.2331, 1642.430
530.7152, 1608.542
531.1973, 1583.879
531.6794, 1568.485
532.1616, 1569.260
532.6437, 1611.083
533.1258, 1637.987
533.6079, 1623.942
534.0900, 1588.219
534.5721, 1556.881
535.0543, 1538.999
535.5364, 1526.681
536.0185, 1508.287
536.5006, 1482.618
536.9827, 1456.405
537.4648, 1409.424
537.9470, 1385.516
538.4291, 1427.368
538.9112, 1504.273
539.3933, 1547.495
539.8754, 1514.808
540.3575, 1457.717
540.8397, 1444.073
541.3218, 1469.633
541.8039, 1487.051
542.2860, 1479.255
542.7681, 1462.145
543.2502, 1458.525
543.7324, 1469.428
544.2145, 1477.484
544.6966, 1477.510
545.1787, 1476.047
545.6608, 1479.168
546.1429, 1485.343
546.6251, 1489.142
547.1072, 1487.600
547.5893, 1481.086
548.0714, 1469.965
548.5535, 1449.638
549.0356, 1433.112
549.5178, 1421.530
549.9999, 1413.109
550.4820, 1407.236
550.9641, 1403.524
551.4462, 1400.932
551.9283, 1397.157
552.4105, 1394.588
552.8926, 1404.045
553.3747, 1430.167
553.8568, 1444.076
554.3389, 1421.469
554.8210, 1388.000
555.3032, 1384.822
555.7853, 1420.099
556.2674, 1451.509
556.7495, 1459.575
557.2316, 1456.314
557.7137, 1457.256
558.1959, 1463.365
558.6780, 1465.939
559.1601, 1458.376
559.6422, 1441.741
560.1243, 1423.425
560.6064, 1399.435
561.0886, 1378.646
561.5707, 1360.058
562.0528, 1346.215
562.5349, 1342.305
563.0170, 1347.456
563.4991, 1351.656
563.9813, 1341.135
564.4634, 1319.383
564.9455, 1316.958
565.4276, 1341.808
565.9097, 1367.051
566.3918, 1376.558
566.8740, 1380.479
567.3561, 1394.362
567.8382, 1425.826
568.3203, 1448.483
568.8024, 1441.682
569.2845, 1418.271
569.7667, 1399.741
570.2488, 1389.639
570.7309, 1382.262
571.2130, 1373.775
571.6951, 1364.005
572.1772, 1348.422
572.6594, 1307.833
573.1415, 1285.522
573.6236, 1302.783
574.1057, 1335.215
574.5878, 1355.594
575.0699, 1358.519
575.5521, 1359.606
576.0342, 1382.026
576.5163, 1423.643
576.9984, 1433.751
577.4805, 1397.881
577.9626, 1359.100
578.4448, 1330.405
578.9269, 1314.388
579.4090, 1319.686
579.8911, 1355.880
580.3732, 1389.763
580.8553, 1401.137
581.3375, 1396.635
581.8196, 1385.448
582.3017, 1369.423
582.7838, 1354.802
583.2659, 1345.892
583.7480, 1342.881
584.2302, 1350.518
584.7123, 1383.883
585.1944, 1408.549
585.6765, 1413.777
586.1586, 1409.708
586.6407, 1407.614
587.1229, 1409.648
587.6050, 1409.273
588.0871, 1395.393
588.5692, 1370.339
589.0513, 1360.976
589.5334, 1370.595
590.0156, 1388.358
590.4977, 1416.213
590.9798, 1446.398
591.4619, 1467.848
591.9440, 1478.982
592.4261, 1483.268
592.9083, 1482.599
593.3904, 1476.242
593.8725, 1455.563
594.3546, 1422.094
594.8367, 1403.418
595.3188, 1425.276
595.8010, 1481.090
596.2831, 1514.027
596.7652, 1502.035
597.2473, 1493.961
597.7294, 1498.028
598.2115, 1505.374
598.6937, 1506.320
599.1758, 1500.816
599.6579, 1498.410
600.1400, 1510.858
600.6221, 1532.832
601.1042, 1541.776
601.5864, 1534.438
602.0685, 1530.072
602.5506, 1540.874
603.0327, 1557.238
603.5148, 1560.774
603.9969, 1546.409
604.4791, 1539.715
604.9612, 1558.501
605.4433, 1581.970
605.9254, 1588.308
606.4075, 1578.216
606.8896, 1564.329
607.3718, 1554.288
607.8539, 1547.528
608.3360, 1542.460
608.8181, 1540.152
609.3002, 1537.472
609.7823, 1523.411
610.2645, 1517.846
610.7466, 1545.024
611.2287, 1595.066
611.7108, 1627.495
612.1929, 1609.219
612.6750, 1569.191
613.1572, 1552.593
613.6393, 1558.087
614.1214, 1563.156
614.6035, 1560.206
615.0856, 1553.436
615.5677, 1547.434
616.0499, 1541.069
616.5320, 1542.176
617.0141, 1564.198
617.4962, 1581.014
617.9783, 1571.699
618.4604, 1547.741
618.9426, 1534.467
619.4247, 1542.753
619.9068, 1556.909
620.3889, 1547.766
620.8710, 1509.969
621.3531, 1490.479
621.8353, 1506.004
622.3174, 1520.674
622.7995, 1510.981
623.2816, 1486.787
623.7637, 1467.595
624.2458, 1456.956
624.7280, 1454.087
625.2101, 1463.816
625.6922, 1479.838
626.1743, 1493.832
626.6564, 1503.611
627.1385, 1494.182
627.6207, 1444.225
628.1028, 1356.440
628.5849, 1319.006
629.0670, 1401.319
629.5491, 1450.835
630.0313, 1416.429
630.5134, 1359.601
630.9955, 1340.982
631.4776, 1367.954
631.9597, 1401.768
632.4418, 1413.100
632.9240, 1406.711
633.4061, 1392.520
633.8882, 1368.928
634.3703, 1354.066
634.8524, 1360.843
635.3345, 1376.551
635.8167, 1375.538
636.2988, 1354.262
636.7809, 1333.777
637.2630, 1307.114
637.7451, 1291.105
638.2272, 1312.846
638.7094, 1355.581
639.1915, 1372.617
639.6736, 1337.793
640.1557, 1277.995
640.6378, 1247.346
641.1199, 1251.080
641.6021, 1256.847
642.0842, 1267.555
642.5663, 1272.297
643.0484, 1260.922
643.5305, 1239.088
644.0126, 1221.184
644.4948, 1211.601
644.9769, 1206.113
645.4590, 1199.727
645.9411, 1195.816
646.4232, 1206.972
646.9053, 1234.755
647.3875, 1254.153
647.8696, 1237.095
648.3517, 1185.842
648.8338, 1163.950
649.3159, 1199.260
649.7980, 1227.316
650.2802, 1239.980
650.7623, 1240.105
651.2444, 1225.240
651.7265, 1197.576
652.2086, 1172.786
652.6907, 1163.757
653.1729, 1164.225
653.6550, 1167.178
654.1371, 1171.979
654.6192, 1156.922
655.1013, 1103.258
655.5834, 1043.886
656.0656, 1038.818
656.5477, 1118.960
657.0298, 1165.137
657.5119, 1149.917
657.9940, 1127.803
658.4761, 1126.849
658.9583, 1138.754
659.4404, 1146.965
659.9225, 1144.798
660.4046, 1132.342
660.8867, 1098.861
661.3688, 1047.557
661.8510, 1035.645
662.3331, 1082.631
662.8152, 1130.029
663.2974, 1139.121
663.7795, 1120.994
664.2616, 1109.243
664.7437, 1107.136
665.2258, 1106.424
665.7079, 1105.449
666.1901, 1104.082
666.6722, 1101.166
667.1543, 1097.438
667.6364, 1096.341
668.1185, 1100.840
668.6006, 1108.123
669.0828, 1111.342
669.5649, 1112.655
670.0470, 1100.298
670.5291, 1050.110
671.0112, 1009.095
671.4933, 1019.775
671.9755, 1070.034
672.4576, 1109.141
672.9397, 1127.477
673.4218, 1125.620
673.9039, 1086.964
674.3860, 1032.366
674.8682, 1004.118
675.3503, 1011.651
675.8324, 1032.305
676.3145, 1044.116
676.7966, 1047.410
677.2787, 1049.919
677.7609, 1055.675
678.2430, 1053.737
678.7251, 1034.117
679.2072, 1011.617
679.6893, 999.4092
680.1714, 998.2704
680.6536, 998.9222
681.1357, 1001.480
681.6178, 999.9135
682.0999, 979.9466
682.5820, 947.3801
683.0641, 928.0336
683.5463, 932.2956
684.0284, 950.3468
684.5105, 969.0166
684.9926, 988.5943
685.4747, 1006.926
685.9568, 1027.895
686.4390, 1043.076
686.9211, 1053.699
687.4032, 1055.622
687.8853, 1038.913
688.3674, 1001.256
688.8495, 967.6996
689.3317, 959.8564
689.8138, 968.9197
690.2959, 977.2439
690.7780, 984.0352
691.2601, 996.1273
691.7422, 1019.677
692.2244, 1044.674
692.7065, 1048.435
693.1886, 1018.328
693.6707, 996.2065
694.1528, 981.4634
694.6349, 974.5543
695.1171, 977.8491
695.5992, 988.6766
696.0813, 1005.311
696.5634, 1028.129
697.0455, 1046.081
697.5276, 1044.209
698.0098, 1027.877
698.4919, 1014.735
698.9740, 1006.618
699.4561, 1000.037
699.9382, 993.2293
700.4203, 986.0603
700.9025, 977.9161
701.3846, 966.3535
701.8667, 957.8409
702.3488, 946.9835
702.8309, 944.1682
703.3130, 967.3834
703.7952, 1002.700
704.2773, 1015.718
704.7594, 986.8470
705.2415, 948.6082
705.7236, 947.7164
706.2057, 976.0214
706.6879, 988.7507
707.1700, 977.7878
707.6521, 964.3018
708.1342, 963.5979
708.6163, 972.5444
709.0984, 976.8344
709.5806, 973.5457
710.0627, 969.9586
710.5448, 965.3287
711.0269, 961.5486
711.5090, 955.2661
711.9911, 950.9614
712.4733, 963.2482
712.9554, 1005.835
713.4375, 1050.028
713.9196, 1046.183
714.4017, 1002.263
714.8839, 973.8355
715.3660, 972.2645
715.8481, 976.1607
716.3302, 968.3739
716.8123, 951.6447
717.2944, 943.9401
717.7766, 948.8311
718.2587, 957.1039
718.7408, 971.1793
719.2229, 985.6188
719.7050, 1000.497
720.1871, 1012.255
720.6693, 1010.718
721.1514, 986.0344
721.6335, 955.5390
722.1156, 945.1519
722.5977, 952.4042
723.0798, 961.9515
723.5620, 971.2032
724.0441, 981.4706
724.5262, 995.8651
725.0083, 1012.483
725.4904, 1017.008
725.9725, 997.0264
726.4547, 982.3371
726.9368, 976.0531
727.4189, 975.5992
727.9010, 981.4820
728.3831, 991.6183
728.8652, 1000.540
729.3474, 1004.375
729.8295, 1007.853
730.3116, 1022.677
730.7937, 1043.998
731.2758, 1045.771
731.7579, 1021.495
732.2401, 994.0556
732.7222, 980.6013
733.2043, 980.0350
733.6864, 985.1500
734.1685, 1011.196
734.6506, 1021.234
735.1328, 1001.911
735.6149, 976.3062
736.0970, 956.5080
736.5791, 944.1778
737.0612, 938.9543
737.5433, 942.0671
738.0255, 949.2036
738.5076, 958.4534
738.9897, 967.7820
739.4718, 969.8512
739.9539, 963.4536
740.4360, 956.5365
740.9182, 954.4775
741.4003, 957.3917
741.8824, 966.4187
742.3645, 988.6880
742.8466, 1004.148
743.3287, 1011.230
743.8109, 1012.024
744.2930, 1004.422
744.7751, 991.6864
745.2572, 980.4570
745.7393, 971.4102
746.2214, 968.4655
746.7036, 978.2161
747.1857, 994.9560
747.6678, 1009.587
748.1499, 1020.597
748.6320, 1028.925
749.1141, 1035.939
749.5963, 1038.542
750.0784, 1024.509
750.5605, 981.3097
751.0426, 957.9022
751.5247, 968.2121
752.0068, 987.2093
752.4890, 1007.451
752.9711, 1025.631
753.4532, 1034.073
753.9353, 1027.246
754.4174, 1021.613
754.8995, 1028.743
755.3817, 1039.311
755.8638, 1038.899
756.3459, 1030.751
756.8280, 1035.204
757.3101, 1064.662
757.7922, 1096.769
758.2744, 1081.672
758.7565, 1012.011
759.2386, 973.4641
759.7207, 980.5099
760.2028, 997.1486
760.6849, 1007.695
761.1671, 1013.846
761.6492, 1018.774
762.1313, 1021.679
762.6134, 1026.145
763.0955, 1035.578
763.5776, 1044.482
764.0598, 1044.631
764.5419, 1042.054
765.0240, 1052.013
765.5061, 1079.964
765.9882, 1108.722
766.4703, 1118.311
766.9525, 1110.769
767.4346, 1093.401
767.9167, 1064.259
768.3988, 1042.861
768.8809, 1037.222
769.3630, 1044.590
769.8452, 1061.736
770.3273, 1091.661
770.8094, 1120.398
771.2915, 1167.365
771.7736, 1190.717
772.2557, 1148.655
772.7379, 1088.554
773.2200, 1068.530
773.7021, 1099.080
774.1842, 1147.091
774.6663, 1203.126
775.1484, 1253.926
775.6306, 1275.541
776.1127, 1271.562
776.5948, 1256.644
777.0769, 1234.399
777.5590, 1217.342
778.0411, 1222.383
778.5233, 1248.958
779.0054, 1255.807
779.4875, 1221.908
779.9696, 1204.445
780.4517, 1222.630
780.9338, 1255.005
781.4160, 1299.286
781.8981, 1347.456
782.3802, 1363.097
782.8623, 1300.916
783.3444, 1239.657
783.8265, 1236.778
784.3087, 1263.700
784.7908, 1280.021
785.2729, 1279.460
785.7550, 1274.033
786.2371, 1271.566
786.7192, 1272.923
787.2014, 1285.041
787.6835, 1310.790
788.1656, 1313.349
788.6477, 1273.221
789.1298, 1240.432
789.6119, 1262.457
790.0941, 1320.276
790.5762, 1338.933
791.0583, 1292.391
791.5404, 1254.422
792.0225, 1233.831
792.5046, 1226.760
792.9868, 1239.732
793.4689, 1262.342
793.9510, 1276.382
794.4331, 1274.971
794.9152, 1258.621
795.3973, 1213.275
795.8795, 1156.179
796.3616, 1138.840
796.8437, 1161.552
797.3258, 1177.290
797.8079, 1163.658
798.2900, 1131.798
798.7722, 1097.210
799.2543, 1054.054
799.7364, 1039.894
800.2185, 1086.115
800.7006, 1117.829
801.1827, 1098.312
801.6649, 1062.877
802.1470, 1051.799
802.6291, 1068.124
803.1112, 1076.161
803.5933, 1055.161
804.0754, 1028.379
804.5576, 1008.571
805.0397, 996.3190
805.5218, 995.6186
806.0039, 1004.991
806.4860, 1009.615
806.9681, 993.7527
807.4503, 966.5899
807.9324, 960.0778
808.4145, 976.0542
808.8966, 980.7303
809.3787, 964.2604
809.8608, 941.9084
810.3430, 923.1534
810.8251, 909.0963
811.3072, 908.0284
811.7893, 946.9970
812.2714, 959.4850
812.7535, 911.7381
813.2357, 862.4919
813.7178, 857.9081
814.1999, 881.6249
814.6820, 888.6748
815.1641, 859.5162
815.6462, 828.4930
816.1284, 828.6819
816.6105, 842.9333
817.0926, 840.7562
817.5747, 823.8635
818.0568, 813.8304
818.5389, 821.1378
819.0211, 835.7671
819.5032, 843.2584
819.9853, 843.6873
820.4674, 834.4933
820.9495, 811.2402
821.4316, 788.8559
821.9138, 767.7909
822.3959, 754.3360
822.8780, 763.7736
823.3601, 797.6884
823.8422, 808.8413
824.3243, 760.8915
824.8065, 726.3486
825.2886, 744.4160
825.7707, 783.0618
826.2528, 810.9825
826.7349, 822.1458
827.2170, 820.6021
827.6992, 806.7306
828.1813, 784.8166
828.6635, 751.8311
829.1456, 715.6592
829.6277, 705.2089
830.1098, 724.5254
830.5919, 752.9150
831.0740, 777.8284
831.5562, 796.4041
832.0383, 799.0427
832.5204, 781.8749
833.0025, 761.4141
833.4846, 731.9930
833.9667, 708.6724
834.4489, 702.2750
834.9310, 705.8229
835.4131, 709.8182
835.8952, 713.7584
836.3773, 717.8422
836.8594, 725.8855
837.3416, 730.2744
837.8237, 725.3386
838.3058, 714.0001
838.7879, 696.4478
839.2700, 675.0255
839.7521, 664.8254
840.2343, 688.6444
840.7164, 725.1348
841.1985, 728.3844
841.6806, 705.4843
842.1627, 697.2794
842.6448, 714.2798
843.1270, 732.8633
843.6091, 731.4818
844.0912, 713.6454
844.5733, 696.9119
845.0554, 677.6837
845.5375, 669.4794
846.0197, 681.2505
846.5018, 695.4995
846.9839, 703.9102
847.4660, 706.5207
847.9481, 702.5569
848.4302, 689.4780
848.9124, 676.4022
849.3945, 652.8481
849.8766, 642.3387
850.3587, 678.1354
850.8408, 733.9637
851.3229, 759.1052
851.8051, 739.0855
852.2872, 709.3595
852.7693, 703.1523
853.2514, 707.6323
853.7335, 693.2455
854.2156, 664.9151
854.6978, 652.3932
855.1799, 664.6258
855.6620, 681.2333
856.1441, 681.3524
856.6262, 667.7194
857.1083, 658.7232
857.5905, 655.0551
858.0726, 654.2589
858.5547, 660.0609
859.0368, 663.0541
859.5189, 648.7910
860.0010, 626.6880
860.4832, 625.6439
860.9653, 658.9119
861.4474, 688.5836
861.9295, 712.1215
862.4116, 725.9836
862.8937, 721.5388
863.3759, 707.7849
863.8580, 700.3224
864.3401, 703.6262
864.8222, 708.0623
865.3043, 705.5289
865.7864, 700.2560
866.2686, 699.2401
866.7507, 700.7092
867.2328, 694.5036
867.7149, 678.9391
868.1970, 675.0084
868.6791, 708.5781
869.1613, 764.2314
869.6434, 772.8918
870.1255, 727.4321
870.6076, 686.4326
871.0897, 657.2614
871.5718, 640.2819
872.0540, 638.3690
872.5361, 648.2328
873.0182, 658.6089
873.5003, 674.9950
873.9824, 681.7822
874.4645, 669.5563
874.9467, 657.9771
875.4288, 656.2612
875.9109, 660.7684
876.3930, 667.6735
876.8751, 676.2620
877.3572, 679.3321
877.8394, 669.5089
878.3215, 656.3521
878.8036, 646.1702
879.2857, 638.8818
879.7678, 630.6967
880.2499, 622.9865
880.7321, 629.4396
881.2142, 667.5427
881.6963, 711.2891
882.1784, 701.0317
882.6605, 645.1863
883.1426, 601.6799
883.6248, 578.0548
884.1069, 579.6946
884.5890, 615.5674
885.0711, 666.3113
885.5532, 684.6985
886.0353, 657.3985
886.5175, 652.1278
886.9996, 687.2032
887.4817, 714.2475
887.9638, 710.0145
888.4459, 691.3827
888.9280, 674.6695
889.4102, 660.0270
889.8923, 653.9767
890.3744, 667.3362
890.8565, 677.1474
891.3386, 670.5475
891.8207, 660.2267
892.3029, 662.8704
892.7850, 673.7747
893.2671, 669.2375
893.7492, 630.5118
894.2313, 599.3469
894.7134, 627.5879
895.1956, 679.3816
895.6777, 692.9868
896.1598, 673.7908
896.6419, 664.4996
897.1240, 683.0676
897.6061, 713.2078
898.0883, 739.9391
898.5704, 760.1999
899.0525, 747.5511
899.5346, 699.5932
900.0167, 661.5947
900.4988, 646.3083
900.9810, 645.1949
901.4631, 652.7601
901.9452, 667.1995
902.4273, 674.9476
902.9094, 671.6207
903.3915, 670.5360
903.8737, 680.4811
904.3558, 684.1316
904.8379, 659.3940
905.3200, 626.7672
905.8021, 628.6146
906.2842, 680.4107
906.7664, 713.2416
907.2485, 692.6733
907.7306, 668.2060
908.2127, 670.2470
908.6948, 683.2714
909.1769, 684.7629
909.6591, 672.2457
910.1412, 659.8831
910.6233, 656.0393
911.1054, 651.0616
911.5875, 654.6443
912.0696, 653.5493
912.5518, 659.5728
913.0339, 670.3144
913.5160, 668.6333
913.9981, 644.0144
914.4802, 613.3102
914.9623, 602.1890
915.4445, 609.3666
915.9266, 629.9016
916.4087, 664.9318
916.8908, 683.8069
917.3729, 671.3693
917.8550, 653.1508
918.3372, 662.7900
918.8193, 697.5333
919.3014, 700.1637
919.7835, 641.9857
920.2656, 618.5344
920.7477, 674.6776
921.2299, 732.8329
921.7120, 735.8354
922.1941, 701.6617
922.6762, 671.3668
923.1583, 640.6863
923.6404, 628.5219
924.1226, 660.9338
924.6047, 686.5085
925.0868, 665.9978
925.5689, 630.8151
926.0510, 627.8241
926.5331, 660.8530
927.0153, 686.4412
927.4974, 672.1259
927.9795, 653.4767
928.4616, 663.1298
928.9437, 681.7838
929.4258, 679.3101
929.9080, 657.5190
930.3901, 636.7919
930.8722, 626.8507
931.3543, 631.3080
931.8364, 668.9985
932.3185, 721.6355
932.8007, 729.9593
933.2828, 698.9431
933.7649, 687.5623
934.2470, 717.2580
934.7291, 752.1389
935.2112, 752.0806
935.6934, 723.1464
936.1755, 696.2523
936.6576, 669.5415
937.1397, 659.4570
937.6218, 673.9406
938.1039, 689.8956
938.5861, 691.0134
939.0682, 683.2357
939.5503, 682.8534
940.0324, 694.8031
940.5145, 699.4813
940.9966, 685.8165
941.4788, 679.6519
941.9609, 702.9783
942.4430, 727.7776
942.9251, 717.5815
943.4072, 675.4623
943.8893, 655.1968
944.3715, 692.5723
944.8536, 716.5275
945.3357, 692.0145
945.8178, 659.4351
946.2999, 646.8767
946.7820, 653.0891
947.2642, 672.8898
947.7463, 707.0984
948.2284, 729.8987
948.7105, 712.0787
949.1926, 686.7072
949.6747, 689.8352
950.1569, 708.0696
950.6390, 713.5227
951.1211, 701.9648
951.6032, 689.7690
952.0853, 688.1644
952.5674, 692.5593
953.0496, 699.4695
953.5317, 706.2469
954.0138, 701.8557
954.4959, 687.3094
954.9780, 679.7209
955.4601, 687.5828
955.9423, 699.5681
956.4244, 699.1758
956.9065, 688.0233
957.3886, 677.2237
957.8707, 665.8459
958.3528, 671.6353
958.8350, 704.0679
959.3171, 731.9990
959.7992, 725.9464
960.2813, 697.5878
960.7634, 691.8581
961.2455, 718.6540
961.7277, 738.5097
962.2098, 752.1062
962.6919, 754.9052
963.1740, 736.5170
963.6561, 712.6794
964.1382, 708.8696
964.6204, 728.3062
965.1025, 729.9907
965.5846, 681.9261
966.0667, 660.3706
966.5488, 710.6284
967.0309, 761.9910
967.5131, 755.0884
967.9952, 711.7849
968.4773, 689.9792
968.9594, 705.2408
969.4415, 723.8901
969.9236, 737.3207
970.4058, 748.0991
970.8879, 759.8563
971.3700, 768.7515
971.8521, 764.6718
972.3342, 750.3123
972.8163, 747.2822
973.2985, 776.2339
973.7806, 803.4368
974.2627, 795.2294
974.7448, 773.6637
975.2269, 763.8113
975.7090, 767.3394
976.1912, 785.3289
976.6733, 816.9256
977.1554, 836.0552
977.6375, 800.5869
978.1196, 744.8391
978.6017, 737.9147
979.0839, 764.7774
979.5660, 774.1071
980.0481, 758.7458
980.5302, 751.6115
981.0123, 775.6592
981.4944, 815.9394
981.9766, 853.6732
982.4587, 885.4164
982.9408, 879.3087
983.4229, 834.0317
983.9050, 793.4608
984.3871, 771.9406
984.8693, 771.7654
985.3514, 800.8948
985.8335, 850.0732
986.3156, 862.9133
986.7977, 830.4139
987.2798, 818.2711
987.7620, 842.3931
988.2441, 860.7431
988.7262, 845.4750
989.2083, 816.7404
989.6904, 812.3251
990.1725, 836.8154
990.6547, 851.5057
991.1368, 856.7548
991.6189, 850.7709
992.1011, 819.9177
992.5832, 792.5602
993.0653, 794.3841
993.5474, 818.5713
994.0295, 839.8301
994.5117, 865.5066
994.9938, 872.9745
995.4759, 842.0308
995.9580, 815.7677
996.4401, 812.0884
996.9222, 820.6069
997.4044, 833.2609
997.8865, 848.1140
998.3686, 855.5522
998.8507, 853.6422
999.3328, 843.8118
999.8149, 806.2202
1000.297, 780.1344
1000.779, 808.7703
1001.261, 864.5476
1001.743, 895.9039
1002.226, 891.0349
1002.708, 878.8602
1003.190, 865.0088
1003.672, 856.9106
1004.154, 864.4696
1004.636, 877.0226
1005.118, 879.0200
1005.600, 873.6735
1006.082, 879.4633
1006.565, 907.0181
1007.047, 926.9480
1007.529, 901.9492
1008.011, 868.8420
1008.493, 878.9150
1008.975, 910.7159
1009.457, 913.3951
1009.939, 882.2122
1010.422, 859.1226
1010.904, 875.0844
1011.386, 862.4402
1011.868, 899.0045
1012.350, 883.0587
1012.832, 893.9592
1013.314, 923.8937
1013.796, 928.0304
1014.278, 892.6711
1014.761, 855.5319
1015.243, 855.8588
1015.725, 876.1581
1016.207, 878.4208
1016.689, 866.6442
1017.171, 854.3196
1017.653, 844.4335
1018.135, 846.1181
1018.617, 864.3043
1019.100, 890.9611
1019.582, 918.1489
1020.064, 943.4977
1020.546, 954.6847
1021.028, 951.8934
1021.510, 935.1927
1021.992, 903.5157
1022.474, 880.1426
1022.957, 882.0856
1023.439, 900.0693
1023.921, 914.7742
1024.403, 926.0194
1024.885, 942.5240
1025.367, 967.3806
1025.849, 971.0979
1026.331, 940.2722
1026.813, 902.9139
1027.296, 884.5905
1027.778, 881.6597
1028.260, 880.0181
1028.742, 878.6559
1029.224, 884.4641
1029.706, 900.1045
1030.188, 916.9083
1030.670, 935.6656
1031.152, 945.6059
1031.635, 930.3569
1032.117, 892.4172
1032.599, 865.9435
1033.081, 847.7238
1033.563, 852.6802
1034.045, 902.9208
1034.527, 937.3354
1035.009, 910.9262
1035.492, 862.4319
1035.974, 857.1560
1036.456, 900.8960
1036.938, 926.6699
1037.420, 927.2128
1037.902, 922.4994
1038.384, 912.3874
1038.866, 901.2720
1039.349, 885.2991
1039.831, 872.5261
1040.313, 884.7718
1040.795, 934.1902
1041.277, 963.8219
1041.759, 969.1617
1042.241, 961.1844
1042.723, 926.5510
1043.205, 893.4135
1043.688, 886.5575
1044.170, 898.4485
1044.652, 904.1502
1045.134, 900.1926
1045.616, 895.9663
1046.098, 889.8524
1046.580, 886.5276
1047.062, 897.6950
1047.544, 904.6492
1048.027, 875.1678
1048.509, 821.7426
1048.991, 810.5361
1049.473, 882.2606
1049.955, 933.3795
1050.437, 939.5934
1050.919, 929.2521
1051.401, 901.1765
1051.884, 873.6095
1052.366, 869.2003
1052.848, 887.2999
1053.330, 905.7020
1053.812, 925.7922
1054.294, 936.4142
1054.776, 927.8672
1055.258, 916.4836
1055.740, 911.3386
1056.223, 910.2858
1056.705, 911.2784
1057.187, 913.4778
1057.669, 909.7076
1058.151, 882.7066
1058.633, 870.1063
1059.115, 901.6019
1059.597, 935.7448
1060.079, 933.2466
1060.562, 914.7874
1061.044, 923.7751
1061.526, 967.7410
1062.008, 1001.489
1062.490, 1006.964
1062.972, 1002.064
1063.454, 983.4420
1063.936, 967.6814
1064.419, 974.9117
1064.901, 994.1289
1065.383, 999.7567
1065.865, 985.3856
1066.347, 970.9433
1066.829, 965.5076
1067.311, 960.3201
1067.793, 948.5563
1068.276, 936.8209
1068.758, 932.3279
1069.240, 933.2297
1069.722, 932.3965
1070.204, 926.9274
1070.686, 929.1441
1071.168, 949.5623
1071.650, 973.1178
1072.132, 996.3834
1072.615, 1014.163
1073.097, 1018.828
1073.579, 1013.693
1074.061, 1008.210
1074.543, 1004.360
1075.025, 1004.933
1075.507, 1014.667
1075.989, 1025.257
1076.472, 1032.673
1076.954, 1037.414
1077.436, 1040.432
1077.918, 1041.577
1078.400, 1037.507
1078.882, 1022.631
1079.364, 1022.364
1079.846, 1064.763
1080.328, 1107.631
1080.811, 1127.494
1081.293, 1129.544
1081.775, 1110.722
1082.257, 1080.710
1082.739, 1071.172
1083.221, 1099.759
1083.703, 1123.717
1084.185, 1117.523
1084.667, 1107.146
1085.150, 1106.591
1085.632, 1113.597
1086.114, 1127.119
1086.596, 1144.708
1087.078, 1159.917
1087.560, 1172.739
1088.042, 1176.990
1088.524, 1162.310
1089.007, 1146.578
1089.489, 1137.948
1089.971, 1137.074
1090.453, 1145.491
1090.935, 1161.815
1091.417, 1181.415
1091.899, 1207.883
1092.381, 1224.462
1092.864, 1221.005
1093.346, 1210.184
1093.828, 1191.039
1094.310, 1174.839
1094.792, 1177.221
1095.274, 1195.917
1095.756, 1212.450
1096.238, 1219.036
1096.720, 1229.527
1097.203, 1265.514
1097.685, 1287.253
1098.167, 1255.372
1098.649, 1207.991
1099.131, 1192.859
1099.613, 1207.898
1100.095, 1216.508
1100.577, 1208.741
1101.059, 1197.699
1101.542, 1163.169
1102.024, 1153.508
1102.506, 1236.110
1102.988, 1326.449
1103.470, 1316.094
1103.952, 1217.768
1104.434, 1142.044
1104.916, 1103.249
1105.399, 1095.193
1105.881, 1143.940
1106.363, 1190.699
1106.845, 1204.330
1107.327, 1206.864
1107.809, 1226.528
1108.291, 1258.897
1108.773, 1272.194
1109.255, 1252.566
1109.738, 1235.182
1110.220, 1219.464
1110.702, 1211.041
1111.184, 1223.685
1111.666, 1235.658
1112.148, 1218.807
1112.630, 1180.214
1113.112, 1160.460
1113.594, 1167.409
1114.077, 1179.378
1114.559, 1211.324
1115.041, 1227.334
1115.523, 1202.491
1116.005, 1171.086
1116.487, 1163.224
1116.969, 1175.201
1117.451, 1192.156
1117.934, 1220.965
1118.416, 1236.431
1118.898, 1237.318
1119.380, 1226.044
1119.862, 1194.456
1120.344, 1164.188
1120.826, 1156.889
1121.308, 1136.597
1121.791, 1124.463
1122.273, 1123.935
1122.755, 1109.069
1123.237, 1118.434
1123.719, 1121.785
1124.201, 1105.655
1124.683, 1095.601
1125.165, 1117.490
1125.647, 1153.052
1126.130, 1149.382
1126.612, 1098.210
1127.094, 1085.300
1127.576, 1119.149
1128.058, 1140.794
1128.540, 1133.953
1129.022, 1124.159
1129.504, 1131.527
1129.986, 1141.824
1130.469, 1118.420
1130.951, 1063.872
1131.433, 1059.074
1131.915, 1105.159
1132.397, 1144.616
1132.879, 1166.343
1133.361, 1161.445
1133.843, 1120.677
1134.326, 1074.726
1134.808, 1078.154
1135.290, 1118.344
1135.772, 1140.497
1136.254, 1144.127
1136.736, 1114.278
1137.218, 1054.350
1137.700, 1024.893
1138.182, 1057.807
1138.665, 1103.640
1139.147, 1100.467
1139.629, 1065.621
1140.111, 1025.009
1140.593, 989.3103
1141.075, 1002.215
1141.557, 1056.217
1142.039, 1096.546
1142.521, 1100.757
1143.004, 1086.552
1143.486, 1059.799
1143.968, 1036.674
1144.450, 1048.882
1144.932, 1075.251
1145.414, 1082.014
1145.896, 1068.919
1146.378, 1042.612
1146.861, 1007.338
1147.343, 979.2441
1147.825, 971.9854
1148.307, 971.7959
1148.789, 970.5355
1149.271, 967.2325
1149.753, 951.3729
1150.235, 936.6029
1150.718, 956.1573
1151.200, 1009.104
1151.682, 1044.746
1152.164, 1035.940
1152.646, 1015.682
1153.128, 994.1790
1153.610, 973.2993
1154.092, 951.3343
1154.574, 932.5908
1155.057, 923.3167
1155.539, 922.9746
1156.021, 925.2850
1156.503, 929.7052
1156.985, 934.7501
1157.467, 946.8923
1157.949, 951.1099
1158.431, 934.8734
1158.913, 913.0779
1159.396, 897.1510
1159.878, 887.6613
1160.360, 886.3375
1160.842, 899.7640
1161.324, 901.5206
1161.806, 886.2021
1162.288, 867.7992
1162.770, 843.9757
1163.253, 825.5709
1163.735, 821.3588
1164.217, 826.6313
1164.699, 832.4310
1165.181, 839.2101
1165.663, 840.8864
1166.145, 837.9829
1166.627, 824.6653
1167.109, 793.9493
1167.592, 780.1399
1168.074, 807.4036
1168.556, 841.4915
1169.038, 829.0862
1169.520, 781.9392
1170.002, 773.1370
1170.484, 801.1654
1170.966, 820.5779
1171.448, 826.5414
1171.931, 819.8982
1172.413, 800.8540
1172.895, 790.2889
1173.377, 815.3276
1173.859, 847.3970
1174.341, 808.5228
1174.823, 820.9139
1175.305, 822.0374
1175.788, 787.5365
1176.270, 813.2996
1176.752, 788.4857
1177.234, 756.7226
1177.716, 745.2007
1178.198, 741.3914
1178.680, 732.1459
1179.162, 722.3633
1179.645, 713.0992
1180.127, 710.5385
1180.609, 734.9012
1181.091, 776.8646
1181.573, 793.7686
1182.055, 765.5799
1182.537, 738.3814
1183.019, 741.9244
1183.501, 750.0226
1183.984, 747.9135
1184.466, 741.4461
1184.948, 734.3188
1185.430, 728.4910
1185.912, 729.5569
1186.394, 739.5925
1186.876, 736.9999
1187.358, 701.6032
1187.840, 676.5341
1188.323, 679.1598
1188.805, 685.2312
1189.287, 677.8713
1189.769, 669.1250
1190.251, 680.4647
1190.733, 708.3164
1191.215, 705.3770
1191.697, 648.9648
1192.180, 626.8672
1192.662, 657.1821
1193.144, 681.6063
1193.626, 681.2040
1194.108, 664.5719
1194.590, 634.2002
1195.072, 601.8681
1195.554, 605.7101
1196.036, 645.2982
1196.519, 657.3239
1197.001, 642.0800
1197.483, 635.1138
1197.965, 643.8575
1198.447, 652.5221
1198.929, 651.6658
1199.411, 648.1292
1199.893, 650.6862
1200.375, 657.6011
1200.858, 670.3264
1201.340, 682.5510
1201.822, 673.0698
1202.304, 647.0944
1202.786, 632.5417
1203.268, 637.6076
1203.750, 639.9311
1204.232, 620.0245
1204.715, 597.2080
1205.197, 583.5292
1205.679, 579.4359
1206.161, 587.7743
1206.643, 604.7503
1207.125, 628.5483
1207.607, 655.7925
1208.089, 674.0052
1208.572, 677.0151
1209.054, 677.2787
1209.536, 681.0314
1210.018, 679.4589
1210.500, 669.6696
1210.982, 652.1956
1211.464, 615.1730
1211.946, 573.9857
1212.428, 570.4557
1212.911, 612.5277
1213.393, 638.4492
1213.875, 641.4047
1214.357, 645.1177
1214.839, 653.6899
1215.321, 662.2105
1215.803, 670.5583
1216.285, 670.8248
1216.767, 649.7787
1217.250, 647.6624
1217.732, 632.7892
1218.214, 616.6580
1218.696, 609.7733
1219.178, 584.0617
1219.660, 583.0712
1220.142, 618.1630
1220.624, 655.6765
1221.107, 672.5665
1221.589, 672.8102
1222.071, 654.4609
1222.553, 628.0985
1223.035, 605.3887
1223.517, 592.3768
1223.999, 608.7217
1224.481, 645.4908
1224.964, 670.0615
1225.446, 670.8231
1225.928, 652.2042
1226.410, 592.3284
1226.892, 545.4783
1227.374, 546.2067
1227.856, 570.2322
1228.338, 612.6045
1228.820, 656.3298
1229.302, 681.0070
1229.785, 684.4639
1230.267, 669.1381
1230.749, 610.1880
1231.231, 579.2672
1231.713, 593.0185
1232.195, 611.3313
1232.677, 628.7937
1233.159, 636.9769
1233.642, 624.1179
1234.124, 604.1695
1234.606, 611.5074
1235.088, 645.8696
1235.570, 651.9392
1236.052, 628.3387
1236.534, 615.9641
1237.016, 620.8553
1237.499, 630.9346
1237.981, 640.9300
1238.463, 646.7022
1238.945, 643.6086
1239.427, 634.4529
1239.909, 622.8342
1240.391, 609.7410
1240.873, 594.7733
1241.355, 580.8019
1241.838, 573.1337
1242.320, 573.3273
1242.802, 583.2705
1243.284, 605.6516
1243.766, 627.5198
1244.248, 648.6406
1244.730, 657.5059
1245.212, 635.4871
1245.695, 608.4577
1246.177, 604.6435
1246.659, 612.1705
1247.141, 597.7693
1247.623, 556.7766
1248.105, 550.0089
1248.587, 622.1490
1249.069, 647.9674
1249.552, 587.0958
1250.034, 551.6780
1250.516, 593.4293
1250.998, 649.7392
1251.480, 666.6690
1251.962, 653.2131
1252.444, 623.1371
1252.926, 578.4720
1253.408, 583.8814
1253.891, 633.0420
1254.373, 650.7673
1254.855, 627.4441
1255.337, 599.8021
1255.819, 584.9374
1256.301, 579.1281
1256.783, 580.1907
1257.265, 586.0273
1257.747, 600.4142
1258.230, 612.8234
1258.712, 606.5428
1259.194, 588.4067
1259.676, 566.1663
1260.158, 545.9611
1260.640, 546.0876
1261.122, 580.6570
1261.604, 605.8950
1262.087, 596.2130
1262.569, 590.4397
1263.051, 609.8079
1263.533, 630.5891
1264.015, 632.5056
1264.497, 627.9719
1264.979, 639.8420
1265.461, 633.1633
1265.943, 625.4085
1266.426, 629.4106
1266.908, 610.2851
1267.390, 611.9899
1267.872, 622.9960
1268.354, 640.4023
1268.836, 654.5125
1269.318, 657.8121
1269.800, 654.7629
1270.282, 654.7874
1270.765, 652.4434
1271.247, 625.3134
1271.729, 590.2738
1272.211, 587.7692
1272.693, 613.1588
1273.175, 639.6250
1273.657, 658.4695
1274.139, 671.2048
1274.622, 682.5073
1275.104, 680.6440
1275.586, 652.8067
1276.068, 618.2571
1276.550, 574.8977
1277.032, 542.3236
1277.514, 545.1425
1277.996, 575.3868
1278.479, 606.6912
1278.961, 642.4841
1279.443, 652.0298
1279.925, 625.5539
1280.407, 607.8939
1280.889, 606.6467
1281.371, 604.8696
1281.853, 594.2138
##END=



