##NAMES=Stilpnomelane
##RRUFFID=R070696
##IDEAL CHEMISTRY=(K,Ca,Na)(Fe^2+^,Mg,Al,Fe^3+^)_8_(Si,Al)_12_(O,OH)_36_&#183;nH_2_O
##LOCALITY=Brunsjo mine, Grythyttan, Vastmanland, Sweden
##OWNER=RRUFF
##SOURCE=James Shigley
##DESCRIPTION=Radiating black platy
##STATUS=The identification of this mineral has been confirmed by single-crystal X-ray diffraction.
##URL=rruff.info/R070696
149.3690, 6158.773
149.8511, 6186.925
150.3332, 6205.360
150.8153, 6205.584
151.2974, 6202.801
151.7796, 6202.299
152.2617, 6207.312
152.7438, 6210.306
153.2259, 6208.700
153.7080, 6203.884
154.1901, 6201.770
154.6722, 6233.169
155.1544, 6249.866
155.6365, 6221.636
156.1186, 6074.318
156.6007, 5950.823
157.0828, 5894.973
157.5649, 5906.511
158.0471, 5916.999
158.5292, 5902.694
159.0113, 5879.107
159.4934, 5862.515
159.9755, 5861.615
160.4576, 5865.843
160.9398, 5871.549
161.4219, 5878.868
161.9040, 5885.485
162.3861, 5890.080
162.8682, 5893.346
163.3503, 5896.514
163.8325, 5911.666
164.3146, 5919.968
164.7967, 5906.111
165.2788, 5857.921
165.7609, 5804.993
166.2430, 5753.870
166.7252, 5708.956
167.2073, 5686.155
167.6894, 5711.986
168.1715, 5758.100
168.6536, 5795.008
169.1357, 5815.169
169.6179, 5822.337
170.1000, 5807.532
170.5821, 5773.535
171.0642, 5755.077
171.5463, 5813.825
172.0284, 5901.784
172.5106, 5937.609
172.9927, 5840.406
173.4748, 5698.173
173.9569, 5608.792
174.4390, 5578.233
174.9211, 5577.535
175.4033, 5592.130
175.8854, 5617.696
176.3675, 5641.703
176.8496, 5660.544
177.3317, 5673.411
177.8138, 5676.547
178.2959, 5666.890
178.7781, 5655.153
179.2602, 5660.715
179.7423, 5679.907
180.2244, 5689.863
180.7065, 5670.021
181.1886, 5629.257
181.6708, 5590.964
182.1529, 5557.132
182.6350, 5529.727
183.1171, 5508.278
183.5992, 5492.975
184.0813, 5492.790
184.5635, 5535.896
185.0456, 5608.767
185.5277, 5644.220
186.0098, 5605.056
186.4919, 5521.839
186.9740, 5490.346
187.4562, 5517.706
187.9383, 5544.953
188.4204, 5483.266
188.9025, 5342.398
189.3846, 5240.970
189.8667, 5245.655
190.3489, 5337.012
190.8310, 5388.324
191.3131, 5392.032
191.7952, 5378.695
192.2773, 5403.169
192.7594, 5467.684
193.2416, 5512.024
193.7237, 5489.347
194.2058, 5404.126
194.6879, 5355.813
195.1700, 5358.873
195.6521, 5389.228
196.1343, 5395.351
196.6164, 5374.083
197.0985, 5348.488
197.5806, 5333.580
198.0627, 5329.865
198.5448, 5325.801
199.0270, 5322.154
199.5091, 5316.182
199.9912, 5293.330
200.4733, 5248.021
200.9554, 5206.844
201.4375, 5196.819
201.9196, 5223.701
202.4018, 5244.051
202.8839, 5250.878
203.3660, 5244.661
203.8481, 5223.109
204.3302, 5177.323
204.8123, 5134.744
205.2945, 5130.403
205.7766, 5176.445
206.2587, 5211.369
206.7408, 5217.124
207.2229, 5193.216
207.7050, 5164.865
208.1872, 5129.230
208.6693, 5092.766
209.1514, 5064.034
209.6335, 5044.113
210.1156, 5028.384
210.5977, 5015.401
211.0799, 5004.850
211.5620, 4996.976
212.0441, 4988.620
212.5262, 4985.211
213.0083, 5000.992
213.4904, 5045.677
213.9726, 5087.690
214.4547, 5113.423
214.9368, 5120.592
215.4189, 5116.731
215.9010, 5097.033
216.3831, 5067.687
216.8653, 5047.516
217.3474, 5038.385
217.8295, 5034.810
218.3116, 5036.578
218.7937, 5052.126
219.2758, 5049.989
219.7580, 5020.515
220.2401, 4970.028
220.7222, 4933.872
221.2043, 4913.799
221.6864, 4905.218
222.1685, 4905.502
222.6507, 4916.734
223.1328, 4932.774
223.6149, 4955.364
224.0970, 4984.111
224.5791, 5004.403
225.0612, 5011.677
225.5434, 5015.555
226.0255, 5025.438
226.5076, 5045.773
226.9897, 5063.498
227.4718, 5079.220
227.9539, 5093.869
228.4361, 5088.614
228.9182, 5053.036
229.4003, 5006.637
229.8824, 4971.105
230.3645, 4948.483
230.8466, 4933.312
231.3288, 4921.236
231.8109, 4908.191
232.2930, 4922.906
232.7751, 4984.072
233.2572, 5061.064
233.7393, 5106.700
234.2215, 5106.224
234.7036, 5098.945
235.1857, 5100.445
235.6678, 5122.787
236.1499, 5113.405
236.6320, 5054.361
237.1142, 4971.792
237.5963, 4913.990
238.0784, 4887.326
238.5605, 4876.839
239.0426, 4877.618
239.5247, 4891.640
240.0069, 4912.615
240.4890, 4944.030
240.9711, 4981.387
241.4532, 5014.630
241.9353, 5047.813
242.4174, 5070.835
242.8996, 5077.301
243.3817, 5057.717
243.8638, 5041.894
244.3459, 5033.827
244.8280, 5030.256
245.3101, 5017.201
245.7922, 4985.774
246.2744, 4956.945
246.7565, 4943.737
247.2386, 4954.802
247.7207, 4963.541
248.2028, 4967.612
248.6849, 4967.792
249.1671, 4967.949
249.6492, 4965.811
250.1313, 4966.729
250.6134, 4977.810
251.0955, 5014.875
251.5776, 5027.140
252.0598, 4999.281
252.5419, 4936.158
253.0240, 4891.617
253.5061, 4866.625
253.9882, 4859.488
254.4703, 4872.458
254.9525, 4919.063
255.4346, 4955.838
255.9167, 4975.937
256.3988, 4979.612
256.8809, 4975.749
257.3630, 4960.804
257.8452, 4942.705
258.3273, 4925.818
258.8094, 4901.542
259.2915, 4900.589
259.7736, 4941.867
260.2557, 5026.856
260.7379, 5061.771
261.2200, 5027.599
261.7021, 4968.210
262.1842, 4928.620
262.6663, 4913.534
263.1484, 4906.320
263.6306, 4900.316
264.1127, 4894.690
264.5948, 4917.315
265.0769, 4984.275
265.5590, 5058.823
266.0411, 5097.336
266.5233, 5091.183
267.0054, 5073.566
267.4875, 5047.552
267.9696, 5011.710
268.4517, 4999.781
268.9338, 5020.693
269.4160, 5053.217
269.8981, 5069.917
270.3802, 5067.888
270.8623, 5059.282
271.3444, 5044.253
271.8265, 5021.669
272.3087, 5013.119
272.7908, 5022.371
273.2729, 5039.791
273.7550, 5050.145
274.2371, 5051.688
274.7192, 5055.177
275.2014, 5064.645
275.6835, 5080.416
276.1656, 5101.756
276.6477, 5134.554
277.1298, 5163.219
277.6119, 5152.285
278.0940, 5094.114
278.5761, 5052.604
279.0583, 5066.998
279.5404, 5138.719
280.0225, 5174.466
280.5046, 5165.950
280.9867, 5137.053
281.4688, 5125.146
281.9510, 5130.895
282.4331, 5141.738
282.9152, 5159.634
283.3973, 5182.747
283.8794, 5175.488
284.3615, 5127.396
284.8437, 5070.242
285.3258, 5059.137
285.8079, 5094.541
286.2900, 5137.232
286.7721, 5173.826
287.2542, 5203.165
287.7364, 5212.721
288.2185, 5197.663
288.7006, 5174.221
289.1827, 5168.871
289.6648, 5180.716
290.1469, 5192.380
290.6291, 5195.583
291.1112, 5191.393
291.5933, 5183.304
292.0754, 5170.986
292.5575, 5156.289
293.0396, 5137.894
293.5218, 5116.925
294.0039, 5103.626
294.4860, 5103.706
294.9681, 5115.261
295.4502, 5139.661
295.9323, 5183.044
296.4145, 5218.591
296.8966, 5200.918
297.3787, 5140.310
297.8608, 5081.745
298.3429, 5056.668
298.8250, 5049.836
299.3072, 5028.514
299.7893, 4983.382
300.2714, 4946.750
300.7535, 4968.795
301.2356, 5033.603
301.7177, 5088.283
302.1999, 5092.098
302.6820, 5073.270
303.1641, 5074.493
303.6462, 5106.285
304.1283, 5135.628
304.6104, 5121.732
305.0926, 5079.301
305.5747, 5046.836
306.0568, 5068.722
306.5389, 5099.326
307.0210, 5083.378
307.5031, 5003.705
307.9853, 4922.787
308.4674, 4885.753
308.9495, 4882.918
309.4316, 4893.446
309.9137, 4923.644
310.3958, 4953.042
310.8780, 4961.993
311.3601, 4942.076
311.8422, 4925.220
312.3243, 4944.651
312.8064, 4979.043
313.2885, 4989.516
313.7707, 4915.938
314.2528, 4843.743
314.7349, 4838.417
315.2170, 4929.361
315.6991, 4995.163
316.1812, 4957.389
316.6634, 4865.477
317.1455, 4797.002
317.6276, 4796.677
318.1097, 4811.556
318.5918, 4819.170
319.0739, 4815.783
319.5561, 4810.540
320.0382, 4805.209
320.5203, 4799.703
321.0024, 4793.866
321.4845, 4775.246
321.9666, 4767.395
322.4488, 4785.782
322.9308, 4843.056
323.4130, 4877.576
323.8951, 4874.767
324.3772, 4846.591
324.8593, 4807.763
325.3414, 4722.638
325.8235, 4663.140
326.3057, 4654.744
326.7878, 4714.819
327.2699, 4757.300
327.7520, 4773.961
328.2341, 4776.000
328.7162, 4775.797
329.1984, 4779.257
329.6805, 4772.915
330.1626, 4751.229
330.6447, 4711.379
331.1268, 4675.840
331.6089, 4642.185
332.0911, 4614.251
332.5732, 4594.653
333.0553, 4577.195
333.5374, 4580.882
334.0195, 4617.763
334.5016, 4688.227
334.9838, 4740.145
335.4659, 4777.817
335.9480, 4791.348
336.4301, 4763.162
336.9122, 4675.416
337.3943, 4604.178
337.8765, 4563.770
338.3586, 4552.983
338.8407, 4567.609
339.3228, 4616.047
339.8049, 4666.972
340.2870, 4693.229
340.7692, 4693.631
341.2513, 4676.417
341.7334, 4630.472
342.2155, 4572.419
342.6976, 4577.981
343.1797, 4655.611
343.6619, 4733.833
344.1440, 4740.952
344.6261, 4685.142
345.1082, 4648.833
345.5903, 4655.616
346.0724, 4682.518
346.5546, 4674.911
347.0367, 4633.689
347.5188, 4595.796
348.0009, 4593.654
348.4830, 4617.098
348.9651, 4636.993
349.4473, 4648.756
349.9294, 4653.587
350.4115, 4652.506
350.8936, 4645.551
351.3757, 4632.922
351.8578, 4598.999
352.3400, 4563.404
352.8221, 4562.804
353.3042, 4615.842
353.7863, 4672.082
354.2684, 4683.308
354.7505, 4660.022
355.2327, 4631.268
355.7148, 4596.937
356.1969, 4572.981
356.6790, 4583.454
357.1611, 4645.743
357.6432, 4692.234
358.1254, 4662.617
358.6075, 4590.549
359.0896, 4537.889
359.5717, 4549.427
360.0538, 4573.508
360.5359, 4580.284
361.0181, 4563.254
361.5002, 4544.738
361.9823, 4521.571
362.4644, 4504.267
362.9465, 4506.746
363.4286, 4567.701
363.9108, 4616.963
364.3929, 4623.068
364.8750, 4576.233
365.3571, 4544.089
365.8392, 4547.530
366.3214, 4565.941
366.8035, 4578.898
367.2856, 4586.267
367.7677, 4586.554
368.2498, 4578.232
368.7319, 4560.849
369.2140, 4541.165
369.6961, 4516.528
370.1783, 4491.579
370.6604, 4469.222
371.1425, 4445.958
371.6246, 4431.715
372.1067, 4427.206
372.5888, 4432.623
373.0710, 4452.505
373.5531, 4498.022
374.0352, 4538.696
374.5173, 4550.155
374.9994, 4524.753
375.4815, 4505.161
375.9637, 4498.398
376.4458, 4498.917
376.9279, 4487.922
377.4100, 4462.260
377.8921, 4440.003
378.3742, 4433.209
378.8564, 4441.406
379.3385, 4451.486
379.8206, 4466.119
380.3027, 4474.998
380.7848, 4448.271
381.2669, 4388.295
381.7491, 4346.919
382.2312, 4364.346
382.7133, 4420.843
383.1954, 4463.155
383.6775, 4488.227
384.1596, 4497.987
384.6418, 4483.459
385.1239, 4453.047
385.6060, 4432.137
386.0881, 4447.379
386.5702, 4471.336
387.0523, 4466.225
387.5345, 4430.049
388.0166, 4392.950
388.4987, 4370.373
388.9808, 4362.577
389.4629, 4369.762
389.9450, 4414.619
390.4272, 4456.107
390.9093, 4459.586
391.3914, 4428.834
391.8735, 4408.046
392.3556, 4427.771
392.8377, 4461.458
393.3199, 4486.741
393.8020, 4508.314
394.2841, 4509.850
394.7662, 4470.458
395.2483, 4401.935
395.7304, 4355.095
396.2126, 4356.523
396.6947, 4370.354
397.1768, 4380.163
397.6589, 4402.051
398.1410, 4393.476
398.6231, 4312.357
399.1053, 4202.168
399.5874, 4163.587
400.0695, 4249.507
400.5516, 4344.508
401.0337, 4411.684
401.5158, 4448.020
401.9980, 4467.076
402.4801, 4468.472
402.9622, 4452.725
403.4443, 4414.465
403.9264, 4341.282
404.4085, 4283.630
404.8907, 4260.448
405.3728, 4270.230
405.8549, 4274.700
406.3370, 4272.774
406.8191, 4269.455
407.3012, 4271.032
407.7834, 4277.479
408.2655, 4280.799
408.7476, 4278.243
409.2297, 4271.983
409.7118, 4265.759
410.1939, 4259.681
410.6761, 4258.403
411.1582, 4271.638
411.6403, 4292.567
412.1224, 4302.894
412.6045, 4295.933
413.0866, 4283.637
413.5687, 4277.073
414.0508, 4276.207
414.5330, 4281.001
415.0151, 4295.127
415.4972, 4312.913
415.9793, 4331.941
416.4614, 4354.750
416.9435, 4365.121
417.4257, 4340.458
417.9078, 4298.258
418.3899, 4266.338
418.8720, 4267.400
419.3541, 4271.664
419.8362, 4263.805
420.3184, 4241.888
420.8005, 4221.208
421.2826, 4206.125
421.7647, 4194.491
422.2468, 4184.692
422.7289, 4165.587
423.2111, 4160.186
423.6932, 4185.218
424.1753, 4236.526
424.6574, 4258.273
425.1395, 4218.083
425.6216, 4178.896
426.1038, 4178.877
426.5859, 4244.534
427.0680, 4292.873
427.5501, 4318.608
428.0322, 4324.793
428.5143, 4315.909
428.9965, 4285.177
429.4786, 4257.296
429.9607, 4246.726
430.4428, 4255.116
430.9249, 4252.147
431.4070, 4236.791
431.8892, 4212.599
432.3713, 4168.974
432.8534, 4108.493
433.3355, 4091.035
433.8176, 4171.380
434.2997, 4301.811
434.7819, 4352.395
435.2640, 4322.336
435.7461, 4269.405
436.2282, 4238.495
436.7103, 4222.135
437.1924, 4204.843
437.6746, 4179.050
438.1567, 4155.029
438.6388, 4136.384
439.1209, 4125.963
439.6030, 4135.210
440.0851, 4200.779
440.5673, 4271.676
441.0494, 4299.104
441.5315, 4256.821
442.0136, 4219.715
442.4957, 4230.310
442.9778, 4264.878
443.4600, 4282.865
443.9421, 4260.799
444.4242, 4231.219
444.9063, 4203.734
445.3884, 4179.042
445.8705, 4157.130
446.3527, 4131.086
446.8348, 4111.855
447.3169, 4110.720
447.7990, 4150.889
448.2811, 4172.718
448.7632, 4161.138
449.2454, 4122.358
449.7275, 4099.620
450.2096, 4097.572
450.6917, 4101.970
451.1738, 4103.694
451.6559, 4101.964
452.1381, 4105.463
452.6202, 4117.860
453.1023, 4131.386
453.5844, 4125.604
454.0665, 4100.598
454.5486, 4085.118
455.0308, 4103.235
455.5129, 4142.666
455.9950, 4159.829
456.4771, 4152.058
456.9592, 4139.945
457.4413, 4144.769
457.9234, 4160.642
458.4055, 4174.950
458.8877, 4187.562
459.3698, 4192.725
459.8519, 4180.728
460.3340, 4154.126
460.8161, 4128.665
461.2982, 4117.399
461.7804, 4108.882
462.2625, 4090.731
462.7446, 4045.783
463.2267, 4019.088
463.7088, 4037.088
464.1909, 4084.150
464.6731, 4127.301
465.1552, 4173.053
465.6373, 4202.727
466.1194, 4205.600
466.6015, 4173.469
467.0836, 4147.558
467.5658, 4127.026
468.0479, 4113.361
468.5300, 4108.018
469.0121, 4111.306
469.4942, 4123.264
469.9763, 4150.240
470.4585, 4186.503
470.9406, 4198.231
471.4227, 4181.001
471.9048, 4154.423
472.3869, 4126.825
472.8690, 4099.054
473.3512, 4085.180
473.8333, 4089.346
474.3154, 4101.588
474.7975, 4112.259
475.2796, 4119.776
475.7617, 4113.953
476.2439, 4067.728
476.7260, 4012.897
477.2081, 4008.061
477.6902, 4055.048
478.1723, 4107.767
478.6544, 4134.304
479.1366, 4142.906
479.6187, 4143.470
480.1008, 4128.690
480.5829, 4118.452
481.0650, 4128.735
481.5471, 4153.559
482.0293, 4171.390
482.5114, 4169.027
482.9935, 4161.800
483.4756, 4157.496
483.9577, 4158.465
484.4398, 4158.997
484.9220, 4158.677
485.4041, 4157.686
485.8862, 4155.849
486.3683, 4149.375
486.8504, 4148.410
487.3326, 4158.305
487.8147, 4178.468
488.2968, 4187.965
488.7789, 4185.322
489.2610, 4175.592
489.7431, 4157.614
490.2253, 4129.920
490.7074, 4119.604
491.1895, 4132.372
491.6716, 4159.876
492.1537, 4194.111
492.6358, 4233.118
493.1180, 4255.775
493.6001, 4231.537
494.0822, 4188.205
494.5643, 4183.662
495.0464, 4222.515
495.5285, 4267.019
496.0107, 4291.767
496.4928, 4299.685
496.9749, 4294.957
497.4570, 4272.308
497.9391, 4244.359
498.4212, 4210.118
498.9034, 4173.818
499.3855, 4153.667
499.8676, 4164.908
500.3497, 4187.423
500.8318, 4211.235
501.3139, 4238.417
501.7961, 4260.844
502.2782, 4289.374
502.7603, 4308.792
503.2424, 4293.655
503.7245, 4206.328
504.2066, 4147.649
504.6887, 4147.341
505.1708, 4201.117
505.6530, 4237.691
506.1351, 4254.164
506.6172, 4260.771
507.0993, 4264.901
507.5814, 4266.456
508.0635, 4260.225
508.5457, 4241.326
509.0278, 4223.552
509.5099, 4233.455
509.9920, 4266.771
510.4741, 4300.649
510.9562, 4328.694
511.4384, 4347.925
511.9205, 4352.846
512.4026, 4343.437
512.8847, 4324.768
513.3668, 4285.148
513.8489, 4244.173
514.3311, 4225.166
514.8132, 4254.345
515.2953, 4282.192
515.7774, 4286.858
516.2595, 4274.174
516.7416, 4262.602
517.2238, 4256.135
517.7059, 4251.527
518.1880, 4247.696
518.6701, 4244.667
519.1522, 4241.773
519.6343, 4234.732
520.1165, 4231.407
520.5986, 4243.992
521.0807, 4283.679
521.5628, 4304.067
522.0449, 4291.737
522.5270, 4255.686
523.0092, 4225.852
523.4913, 4201.059
523.9734, 4190.496
524.4555, 4206.253
524.9376, 4241.922
525.4197, 4274.976
525.9019, 4304.866
526.3840, 4326.569
526.8661, 4329.180
527.3482, 4319.710
527.8303, 4314.205
528.3124, 4324.198
528.7946, 4336.253
529.2767, 4341.221
529.7588, 4339.548
530.2409, 4333.924
530.7230, 4321.253
531.2051, 4307.928
531.6873, 4297.111
532.1694, 4285.761
532.6515, 4284.528
533.1336, 4307.380
533.6157, 4337.498
534.0978, 4349.424
534.5800, 4324.854
535.0621, 4310.583
535.5442, 4320.011
536.0263, 4350.423
536.5084, 4372.050
536.9905, 4384.787
537.4727, 4389.698
537.9548, 4384.027
538.4369, 4368.269
538.9190, 4357.329
539.4011, 4350.786
539.8832, 4354.478
540.3654, 4385.344
540.8475, 4436.212
541.3296, 4478.883
541.8117, 4500.983
542.2938, 4508.694
542.7759, 4505.836
543.2581, 4493.318
543.7402, 4479.697
544.2223, 4461.296
544.7044, 4448.968
545.1865, 4454.258
545.6686, 4492.921
546.1508, 4522.444
546.6329, 4513.471
547.1150, 4491.112
547.5971, 4500.594
548.0792, 4588.773
548.5613, 4658.898
549.0435, 4685.047
549.5256, 4668.325
550.0077, 4664.310
550.4898, 4680.862
550.9719, 4695.307
551.4540, 4685.184
551.9362, 4647.992
552.4183, 4631.729
552.9004, 4643.168
553.3825, 4670.779
553.8646, 4705.790
554.3467, 4744.885
554.8289, 4768.018
555.3110, 4753.382
555.7931, 4724.149
556.2752, 4714.527
556.7573, 4722.623
557.2394, 4730.797
557.7216, 4720.204
558.2037, 4708.408
558.6858, 4714.568
559.1679, 4755.075
559.6500, 4784.610
560.1321, 4779.583
560.6143, 4756.254
561.0964, 4740.667
561.5785, 4736.781
562.0606, 4740.440
562.5427, 4755.351
563.0248, 4779.892
563.5070, 4793.231
563.9891, 4793.163
564.4712, 4785.875
564.9533, 4769.169
565.4354, 4740.482
565.9175, 4739.204
566.3997, 4774.227
566.8818, 4819.718
567.3639, 4839.780
567.8460, 4837.592
568.3281, 4828.094
568.8102, 4804.184
569.2924, 4785.641
569.7744, 4808.270
570.2565, 4865.334
570.7386, 4916.089
571.2208, 4925.644
571.7029, 4925.275
572.1850, 4943.742
572.6671, 4995.126
573.1492, 5032.261
573.6313, 5022.800
574.1135, 4997.544
574.5956, 4994.827
575.0777, 5049.969
575.5598, 5085.730
576.0419, 5084.764
576.5240, 5055.572
577.0062, 5039.312
577.4883, 5042.660
577.9704, 5042.567
578.4525, 5021.103
578.9346, 4978.921
579.4167, 4959.885
579.8989, 4967.464
580.3810, 4982.062
580.8631, 4976.069
581.3452, 4958.533
581.8273, 4960.365
582.3094, 5003.599
582.7916, 5048.971
583.2737, 5049.656
583.7558, 5018.443
584.2379, 4992.469
584.7200, 4984.898
585.2021, 4991.488
585.6843, 5016.852
586.1664, 5065.095
586.6485, 5097.297
587.1306, 5109.834
587.6127, 5100.738
588.0948, 5066.862
588.5770, 4982.300
589.0591, 4921.105
589.5412, 4889.009
590.0233, 4880.679
590.5054, 4891.759
590.9875, 4927.074
591.4697, 4950.731
591.9518, 4941.278
592.4339, 4911.131
592.9160, 4909.887
593.3981, 4937.627
593.8802, 4965.914
594.3624, 4966.919
594.8445, 4955.872
595.3266, 4960.776
595.8087, 4992.417
596.2908, 5016.083
596.7729, 5002.500
597.2551, 4967.584
597.7372, 4934.105
598.2193, 4908.926
598.7014, 4886.587
599.1835, 4869.383
599.6656, 4855.491
600.1478, 4831.228
600.6299, 4778.436
601.1120, 4738.541
601.5941, 4738.017
602.0762, 4788.489
602.5583, 4789.049
603.0405, 4720.907
603.5226, 4648.405
604.0047, 4653.778
604.4868, 4727.447
604.9689, 4779.448
605.4510, 4790.558
605.9332, 4771.804
606.4153, 4722.269
606.8974, 4653.276
607.3795, 4599.882
607.8616, 4595.965
608.3438, 4604.029
608.8259, 4592.901
609.3080, 4561.595
609.7901, 4538.468
610.2722, 4542.313
610.7543, 4551.876
611.2365, 4553.185
611.7186, 4539.894
612.2007, 4526.815
612.6828, 4515.321
613.1649, 4503.092
613.6470, 4485.920
614.1292, 4461.460
614.6113, 4442.003
615.0934, 4433.915
615.5755, 4431.247
616.0576, 4409.157
616.5397, 4368.078
617.0219, 4337.970
617.5040, 4354.727
617.9861, 4389.640
618.4682, 4391.800
618.9503, 4356.261
619.4324, 4313.097
619.9146, 4283.401
620.3967, 4257.543
620.8788, 4223.721
621.3609, 4153.146
621.8430, 4110.329
622.3251, 4144.787
622.8073, 4215.769
623.2894, 4229.777
623.7715, 4132.686
624.2536, 4055.168
624.7357, 4037.243
625.2178, 4071.651
625.7000, 4073.502
626.1821, 4035.996
626.6642, 3993.835
627.1463, 3973.796
627.6284, 3970.979
628.1105, 3956.568
628.5927, 3926.807
629.0748, 3895.957
629.5569, 3882.491
630.0390, 3877.313
630.5211, 3862.893
631.0032, 3818.135
631.4854, 3782.690
631.9675, 3794.901
632.4496, 3834.903
632.9317, 3850.431
633.4138, 3801.341
633.8959, 3751.353
634.3781, 3720.863
634.8602, 3710.258
635.3423, 3708.093
635.8244, 3724.150
636.3065, 3732.854
636.7886, 3709.504
637.2708, 3651.485
637.7529, 3614.978
638.2350, 3605.282
638.7171, 3610.740
639.1992, 3628.428
639.6813, 3650.775
640.1635, 3649.545
640.6456, 3601.577
641.1277, 3544.550
641.6098, 3509.926
642.0919, 3495.520
642.5740, 3495.980
643.0562, 3528.702
643.5383, 3558.190
644.0204, 3563.940
644.5025, 3541.690
644.9846, 3526.890
645.4667, 3529.055
645.9489, 3531.524
646.4310, 3523.166
646.9131, 3499.405
647.3952, 3482.510
647.8773, 3476.324
648.3594, 3470.695
648.8416, 3447.163
649.3237, 3408.407
649.8058, 3380.156
650.2879, 3375.326
650.7700, 3377.132
651.2521, 3354.047
651.7343, 3316.014
652.2164, 3296.546
652.6985, 3340.652
653.1806, 3387.027
653.6627, 3388.998
654.1448, 3342.782
654.6270, 3311.544
655.1091, 3332.198
655.5912, 3354.789
656.0733, 3349.486
656.5554, 3302.769
657.0375, 3259.718
657.5197, 3215.581
658.0018, 3181.691
658.4839, 3184.577
658.9660, 3224.583
659.4481, 3231.990
659.9302, 3174.784
660.4123, 3101.505
660.8944, 3106.495
661.3765, 3169.671
661.8586, 3216.400
662.3408, 3183.179
662.8229, 3136.219
663.3050, 3136.785
663.7871, 3182.708
664.2692, 3208.625
664.7513, 3166.784
665.2335, 3117.845
665.7156, 3100.117
666.1977, 3126.444
666.6798, 3147.106
667.1619, 3164.186
667.6440, 3173.171
668.1262, 3171.197
668.6083, 3159.032
669.0904, 3122.232
669.5725, 3048.248
670.0546, 2969.172
670.5367, 2939.788
671.0189, 2952.865
671.5010, 2979.729
671.9831, 3031.556
672.4652, 3072.711
672.9473, 3062.052
673.4294, 3008.367
673.9116, 2959.098
674.3937, 2917.907
674.8758, 2898.398
675.3579, 2914.692
675.8400, 2978.576
676.3221, 3027.504
676.8043, 3063.463
677.2864, 3081.444
677.7685, 3073.472
678.2506, 3036.469
678.7327, 2996.373
679.2148, 2951.608
679.6970, 2914.982
680.1791, 2911.128
680.6612, 2932.305
681.1433, 2951.345
681.6254, 2963.915
682.1075, 2964.841
682.5897, 2939.137
683.0718, 2897.032
683.5539, 2866.417
684.0360, 2868.217
684.5181, 2875.151
685.0002, 2876.729
685.4824, 2872.055
685.9645, 2866.534
686.4466, 2861.606
686.9287, 2853.828
687.4108, 2839.843
687.8929, 2818.439
688.3751, 2801.162
688.8572, 2787.861
689.3393, 2779.642
689.8214, 2778.913
690.3035, 2784.476
690.7856, 2793.961
691.2678, 2809.481
691.7499, 2822.314
692.2320, 2823.150
692.7141, 2816.374
693.1962, 2809.526
693.6783, 2809.801
694.1605, 2805.647
694.6426, 2785.915
695.1247, 2756.508
695.6068, 2747.832
696.0889, 2776.321
696.5710, 2796.003
697.0532, 2782.933
697.5353, 2740.779
698.0174, 2735.992
698.4995, 2774.081
698.9816, 2803.325
699.4637, 2766.330
699.9459, 2694.029
700.4280, 2659.569
700.9101, 2675.496
701.3922, 2692.555
701.8743, 2668.617
702.3564, 2628.372
702.8386, 2598.580
703.3207, 2587.578
703.8028, 2585.023
704.2849, 2595.089
704.7670, 2610.806
705.2491, 2620.485
705.7313, 2618.925
706.2134, 2624.963
706.6955, 2646.895
707.1776, 2676.446
707.6597, 2687.152
708.1418, 2679.341
708.6240, 2666.906
709.1061, 2651.893
709.5882, 2639.225
710.0703, 2641.425
710.5524, 2656.571
711.0345, 2664.684
711.5167, 2637.314
711.9988, 2610.992
712.4809, 2613.649
712.9630, 2658.555
713.4451, 2698.206
713.9272, 2744.731
714.4094, 2770.763
714.8915, 2744.997
715.3736, 2645.987
715.8557, 2595.691
716.3378, 2615.440
716.8199, 2658.040
717.3021, 2654.068
717.7842, 2612.224
718.2663, 2569.822
718.7484, 2530.690
719.2305, 2507.365
719.7126, 2518.956
720.1948, 2556.503
720.6769, 2598.183
721.1590, 2662.210
721.6411, 2702.277
722.1232, 2686.125
722.6053, 2619.813
723.0875, 2581.941
723.5696, 2589.948
724.0517, 2595.559
724.5338, 2572.535
725.0159, 2522.963
725.4980, 2495.187
725.9802, 2491.323
726.4623, 2492.028
726.9444, 2472.558
727.4265, 2448.554
727.9086, 2456.078
728.3907, 2505.315
728.8729, 2549.595
729.3550, 2558.396
729.8371, 2546.649
730.3192, 2528.725
730.8013, 2492.257
731.2834, 2471.677
731.7656, 2475.351
732.2477, 2491.837
732.7298, 2504.870
733.2119, 2514.061
733.6940, 2520.972
734.1761, 2524.260
734.6583, 2527.452
735.1404, 2543.512
735.6225, 2568.727
736.1046, 2582.984
736.5867, 2565.972
737.0688, 2540.831
737.5510, 2531.624
738.0331, 2534.689
738.5152, 2529.930
738.9973, 2494.735
739.4794, 2463.531
739.9615, 2457.757
740.4437, 2480.351
740.9258, 2482.555
741.4079, 2452.478
741.8900, 2425.917
742.3721, 2437.206
742.8542, 2482.042
743.3364, 2486.893
743.8185, 2444.329
744.3006, 2398.130
744.7827, 2396.735
745.2648, 2419.378
745.7469, 2433.412
746.2291, 2427.919
746.7112, 2423.563
747.1933, 2433.943
747.6754, 2449.694
748.1575, 2458.964
748.6396, 2460.512
749.1218, 2454.560
749.6038, 2438.137
750.0859, 2416.373
750.5681, 2400.229
751.0502, 2390.263
751.5323, 2378.333
752.0144, 2357.917
752.4965, 2338.437
752.9786, 2342.000
753.4608, 2362.995
753.9429, 2380.595
754.4250, 2373.335
754.9071, 2367.599
755.3892, 2391.654
755.8713, 2441.297
756.3535, 2459.836
756.8356, 2405.698
757.3177, 2352.684
757.7998, 2326.993
758.2819, 2329.104
758.7640, 2349.229
759.2462, 2393.948
759.7283, 2426.655
760.2104, 2401.557
760.6925, 2342.428
761.1746, 2319.254
761.6567, 2340.230
762.1389, 2366.282
762.6210, 2371.523
763.1031, 2364.491
763.5852, 2353.181
764.0673, 2335.930
764.5494, 2321.616
765.0316, 2313.704
765.5137, 2308.332
765.9958, 2297.183
766.4779, 2269.692
766.9600, 2282.198
767.4421, 2357.918
767.9243, 2446.514
768.4064, 2457.314
768.8885, 2406.456
769.3706, 2363.282
769.8527, 2353.008
770.3348, 2357.633
770.8170, 2369.547
771.2991, 2383.859
771.7812, 2389.030
772.2633, 2371.115
772.7454, 2354.885
773.2275, 2347.589
773.7097, 2347.689
774.1918, 2350.384
774.6739, 2357.950
775.1560, 2361.054
775.6381, 2355.847
776.1202, 2343.198
776.6024, 2322.824
777.0845, 2295.493
777.5666, 2272.500
778.0487, 2261.651
778.5308, 2258.155
779.0129, 2259.801
779.4951, 2266.279
779.9772, 2269.512
780.4593, 2263.937
780.9414, 2256.693
781.4235, 2250.725
781.9056, 2244.857
782.3878, 2246.089
782.8699, 2254.386
783.3520, 2270.013
783.8341, 2303.552
784.3162, 2347.054
784.7983, 2357.852
785.2805, 2328.407
785.7626, 2292.162
786.2447, 2273.004
786.7268, 2266.810
787.2089, 2269.014
787.6910, 2283.474
788.1732, 2296.412
788.6553, 2305.677
789.1374, 2311.136
789.6195, 2311.742
790.1016, 2304.579
790.5837, 2302.945
791.0659, 2311.438
791.5480, 2320.437
792.0301, 2313.784
792.5122, 2293.350
792.9943, 2265.525
793.4764, 2220.442
793.9586, 2187.406
794.4407, 2211.185
794.9228, 2264.904
795.4049, 2294.646
795.8870, 2240.511
796.3691, 2211.939
796.8513, 2258.699
797.3334, 2346.392
797.8155, 2366.213
798.2976, 2300.096
798.7797, 2240.005
799.2618, 2215.390
799.7440, 2220.338
800.2261, 2257.705
800.7082, 2318.792
801.1903, 2355.267
801.6724, 2303.709
802.1545, 2246.161
802.6367, 2260.981
803.1188, 2339.533
803.6009, 2378.893
804.0830, 2310.027
804.5651, 2246.245
805.0472, 2230.731
805.5294, 2262.105
806.0115, 2263.268
806.4936, 2228.283
806.9757, 2200.221
807.4578, 2219.504
807.9399, 2264.594
808.4221, 2287.603
808.9042, 2286.909
809.3863, 2274.959
809.8684, 2243.128
810.3505, 2214.937
810.8326, 2211.403
811.3148, 2243.604
811.7969, 2263.088
812.2790, 2261.129
812.7611, 2253.902
813.2432, 2254.574
813.7253, 2264.013
814.2075, 2257.743
814.6896, 2232.590
815.1717, 2207.654
815.6538, 2207.778
816.1359, 2219.296
816.6180, 2219.883
817.1002, 2204.173
817.5823, 2183.249
818.0644, 2141.754
818.5465, 2108.582
819.0286, 2116.127
819.5107, 2201.005
819.9929, 2250.279
820.4750, 2252.860
820.9571, 2235.144
821.4392, 2222.457
821.9213, 2215.953
822.4034, 2232.176
822.8856, 2282.754
823.3677, 2325.271
823.8498, 2305.137
824.3319, 2252.398
824.8140, 2212.546
825.2961, 2193.142
825.7783, 2194.612
826.2604, 2244.353
826.7425, 2302.583
827.2246, 2312.873
827.7067, 2258.142
828.1888, 2219.847
828.6710, 2214.791
829.1531, 2224.600
829.6352, 2215.799
830.1173, 2195.787
830.5994, 2190.183
831.0815, 2219.442
831.5637, 2248.740
832.0458, 2247.513
832.5279, 2230.355
833.0100, 2225.492
833.4921, 2268.608
833.9742, 2283.170
834.4564, 2242.597
834.9385, 2177.262
835.4206, 2168.403
835.9027, 2218.822
836.3848, 2251.918
836.8669, 2235.871
837.3491, 2200.949
837.8312, 2188.511
838.3133, 2193.341
838.7954, 2201.639
839.2775, 2218.359
839.7596, 2225.900
840.2417, 2204.312
840.7238, 2166.917
841.2059, 2162.442
841.6880, 2210.108
842.1702, 2241.823
842.6523, 2230.220
843.1344, 2196.290
843.6165, 2203.054
844.0986, 2244.459
844.5807, 2282.957
845.0629, 2304.451
845.5450, 2310.943
846.0271, 2293.502
846.5092, 2260.344
846.9913, 2241.332
847.4734, 2264.642
847.9556, 2280.196
848.4377, 2274.921
848.9198, 2252.247
849.4019, 2224.646
849.8840, 2191.377
850.3661, 2160.622
850.8483, 2125.714
851.3304, 2102.623
851.8125, 2133.613
852.2946, 2204.965
852.7767, 2262.674
853.2589, 2271.205
853.7410, 2268.139
854.2231, 2271.631
854.7052, 2280.598
855.1873, 2279.678
855.6694, 2265.054
856.1516, 2249.953
856.6337, 2240.918
857.1158, 2234.731
857.5979, 2218.060
858.0800, 2191.823
858.5621, 2164.865
859.0443, 2127.349
859.5264, 2103.354
860.0085, 2125.232
860.4906, 2184.706
860.9727, 2225.710
861.4548, 2214.933
861.9370, 2205.739
862.4191, 2216.183
862.9012, 2241.630
863.3833, 2250.264
863.8654, 2241.410
864.3475, 2227.966
864.8297, 2210.735
865.3118, 2196.457
865.7939, 2201.325
866.2760, 2220.723
866.7581, 2231.407
867.2402, 2213.487
867.7224, 2193.576
868.2045, 2180.683
868.6866, 2175.344
869.1687, 2186.357
869.6508, 2221.105
870.1329, 2248.086
870.6151, 2249.796
871.0972, 2234.854
871.5793, 2224.881
872.0614, 2219.797
872.5435, 2219.586
873.0256, 2231.431
873.5078, 2241.889
873.9899, 2241.016
874.4720, 2229.773
874.9541, 2217.903
875.4362, 2205.219
875.9183, 2193.190
876.4005, 2178.087
876.8826, 2164.636
877.3647, 2182.157
877.8468, 2228.837
878.3289, 2267.878
878.8110, 2282.001
879.2932, 2276.909
879.7753, 2242.337
880.2574, 2189.296
880.7395, 2163.924
881.2216, 2213.952
881.7037, 2256.707
882.1859, 2261.882
882.6680, 2240.577
883.1501, 2249.061
883.6322, 2291.349
884.1143, 2323.808
884.5964, 2323.521
885.0786, 2305.357
885.5607, 2287.002
886.0428, 2271.260
886.5249, 2266.903
887.0070, 2301.210
887.4891, 2323.740
887.9713, 2301.167
888.4534, 2248.702
888.9355, 2219.780
889.4176, 2219.447
889.8997, 2227.897
890.3818, 2244.002
890.8640, 2260.142
891.3461, 2255.634
891.8282, 2235.217
892.3103, 2216.337
892.7924, 2198.409
893.2745, 2193.686
893.7567, 2221.149
894.2388, 2266.952
894.7209, 2292.164
895.2030, 2286.544
895.6851, 2275.952
896.1672, 2261.722
896.6494, 2248.854
897.1315, 2249.491
897.6136, 2262.069
898.0957, 2278.724
898.5778, 2300.169
899.0599, 2318.951
899.5421, 2328.837
900.0242, 2331.391
900.5063, 2329.248
900.9884, 2315.618
901.4705, 2307.133
901.9526, 2304.781
902.4348, 2309.004
902.9169, 2328.242
903.3990, 2360.869
903.8811, 2370.064
904.3632, 2343.350
904.8453, 2299.298
905.3275, 2234.279
905.8096, 2171.943
906.2917, 2149.165
906.7738, 2217.865
907.2559, 2267.819
907.7380, 2272.884
908.2202, 2259.466
908.7023, 2258.963
909.1844, 2272.890
909.6665, 2277.698
910.1486, 2269.021
910.6307, 2255.834
911.1129, 2242.485
911.5950, 2233.712
912.0771, 2239.549
912.5592, 2271.517
913.0413, 2292.366
913.5234, 2272.528
914.0056, 2249.318
914.4877, 2257.289
914.9698, 2307.619
915.4519, 2333.970
915.9340, 2331.145
916.4161, 2318.808
916.8983, 2319.701
917.3804, 2323.871
917.8625, 2310.923
918.3446, 2276.353
918.8267, 2244.661
919.3088, 2218.941
919.7910, 2207.650
920.2731, 2220.969
920.7552, 2265.607
921.2373, 2286.738
921.7194, 2280.376
922.2015, 2266.604
922.6837, 2261.773
923.1658, 2260.187
923.6479, 2245.111
924.1300, 2217.323
924.6121, 2197.105
925.0942, 2197.720
925.5764, 2207.275
926.0585, 2223.192
926.5406, 2244.729
927.0227, 2253.487
927.5048, 2246.683
927.9869, 2236.570
928.4691, 2225.013
928.9511, 2216.281
929.4332, 2224.001
929.9153, 2245.624
930.3975, 2268.421
930.8796, 2302.589
931.3617, 2319.481
931.8438, 2286.664
932.3259, 2219.552
932.8080, 2193.614
933.2902, 2221.632
933.7723, 2256.979
934.2544, 2292.239
934.7365, 2318.652
935.2186, 2306.050
935.7007, 2266.121
936.1829, 2236.708
936.6650, 2238.792
937.1471, 2250.399
937.6292, 2268.137
938.1113, 2285.912
938.5934, 2293.726
939.0756, 2294.127
939.5577, 2273.533
940.0398, 2219.962
940.5219, 2164.486
941.0040, 2163.668
941.4861, 2200.655
941.9683, 2225.790
942.4504, 2224.230
942.9325, 2216.547
943.4146, 2215.285
943.8967, 2213.974
944.3788, 2204.957
944.8610, 2183.933
945.3431, 2165.010
945.8252, 2147.902
946.3073, 2134.265
946.7894, 2126.769
947.2715, 2123.962
947.7537, 2118.366
948.2358, 2108.447
948.7179, 2111.210
949.2000, 2149.919
949.6821, 2195.609
950.1642, 2231.390
950.6464, 2258.505
951.1285, 2252.774
951.6106, 2202.264
952.0927, 2155.490
952.5748, 2146.155
953.0569, 2163.144
953.5391, 2179.818
954.0212, 2195.281
954.5033, 2204.781
954.9854, 2198.256
955.4675, 2192.000
955.9496, 2197.557
956.4318, 2212.107
956.9139, 2217.346
957.3960, 2211.106
957.8781, 2203.519
958.3602, 2197.331
958.8423, 2192.465
959.3245, 2190.805
959.8066, 2190.479
960.2887, 2186.046
960.7708, 2165.801
961.2529, 2151.626
961.7350, 2153.311
962.2172, 2166.157
962.6993, 2184.665
963.1814, 2212.746
963.6635, 2227.102
964.1456, 2220.804
964.6277, 2210.046
965.1099, 2223.069
965.5920, 2245.300
966.0741, 2247.263
966.5562, 2215.548
967.0383, 2184.521
967.5204, 2158.505
968.0026, 2145.509
968.4847, 2158.793
968.9668, 2212.351
969.4489, 2205.273
969.9310, 2127.952
970.4131, 2053.977
970.8953, 2053.167
971.3774, 2090.523
971.8595, 2119.489
972.3416, 2136.327
972.8237, 2149.660
973.3058, 2174.595
973.7880, 2182.528
974.2701, 2153.762
974.7522, 2095.877
975.2343, 2074.267
975.7164, 2089.481
976.1985, 2105.614
976.6807, 2105.954
977.1628, 2096.390
977.6449, 2076.578
978.1270, 2052.094
978.6091, 2038.317
979.0912, 2038.249
979.5734, 2054.420
980.0555, 2098.573
980.5376, 2148.425
981.0197, 2155.958
981.5018, 2125.302
981.9839, 2108.990
982.4661, 2124.071
982.9482, 2141.421
983.4303, 2123.910
983.9124, 2098.409
984.3945, 2098.790
984.8766, 2159.063
985.3588, 2189.622
985.8409, 2181.206
986.3230, 2157.769
986.8051, 2131.986
987.2872, 2108.050
987.7693, 2113.253
988.2515, 2148.575
988.7336, 2177.489
989.2157, 2170.635
989.6978, 2151.737
990.1799, 2135.317
990.6620, 2122.366
991.1442, 2113.525
991.6263, 2111.950
992.1084, 2103.674
992.5905, 2074.884
993.0726, 2040.927
993.5547, 2040.120
994.0369, 2066.479
994.5190, 2100.329
995.0011, 2161.449
995.4832, 2196.139
995.9653, 2164.829
996.4474, 2099.551
996.9296, 2051.913
997.4117, 2019.911
997.8938, 2019.409
998.3759, 2058.477
998.8580, 2110.287
999.3401, 2154.673
999.8223, 2184.437
1000.304, 2184.585
1000.786, 2139.607
1001.269, 2104.365
1001.751, 2097.085
1002.233, 2099.462
1002.715, 2100.638
1003.197, 2100.478
1003.679, 2110.774
1004.161, 2131.734
1004.643, 2139.687
1005.126, 2094.851
1005.608, 2045.969
1006.090, 2043.991
1006.572, 2085.030
1007.054, 2109.953
1007.536, 2111.839
1008.018, 2095.942
1008.500, 2052.294
1008.982, 2001.775
1009.465, 2007.482
1009.947, 2055.222
1010.429, 2084.808
1010.911, 2059.362
1011.393, 2031.701
1011.875, 2031.334
1012.357, 2048.199
1012.839, 2067.263
1013.322, 2088.207
1013.804, 2114.248
1014.286, 2150.916
1014.768, 2173.303
1015.250, 2139.319
1015.732, 2077.273
1016.214, 2036.926
1016.696, 2023.746
1017.178, 2028.512
1017.661, 2061.851
1018.143, 2099.240
1018.625, 2137.034
1019.107, 2171.688
1019.589, 2150.861
1020.071, 2073.858
1020.553, 2004.777
1021.035, 1973.524
1021.517, 1970.121
1022.000, 2000.234
1022.482, 2050.007
1022.964, 2083.198
1023.446, 2097.722
1023.928, 2080.613
1024.410, 2012.963
1024.892, 1939.177
1025.374, 1936.303
1025.857, 1988.161
1026.339, 2036.020
1026.821, 2071.246
1027.303, 2087.955
1027.785, 2062.305
1028.267, 2031.000
1028.749, 2030.375
1029.231, 2069.238
1029.714, 2074.454
1030.196, 2038.830
1030.678, 2007.280
1031.160, 2017.713
1031.642, 2047.997
1032.124, 2063.242
1032.606, 2065.535
1033.088, 2067.190
1033.570, 2063.361
1034.052, 2073.348
1034.535, 2115.869
1035.017, 2165.460
1035.499, 2153.946
1035.981, 2087.135
1036.463, 2041.750
1036.945, 2043.216
1037.427, 2050.600
1037.909, 2014.324
1038.392, 1971.333
1038.874, 1966.165
1039.356, 2023.721
1039.838, 2067.360
1040.320, 2098.730
1040.802, 2110.802
1041.284, 2078.009
1041.766, 2026.289
1042.249, 2031.105
1042.731, 2086.733
1043.213, 2130.323
1043.695, 2127.625
1044.177, 2110.325
1044.659, 2083.522
1045.141, 2054.490
1045.623, 2050.449
1046.105, 2072.083
1046.588, 2084.355
1047.070, 2073.482
1047.552, 2057.512
1048.034, 2059.823
1048.516, 2043.943
1048.998, 2062.976
1049.480, 2026.705
1049.962, 2007.279
1050.444, 2007.279
1050.927, 2020.114
1051.409, 2049.531
1051.891, 2086.838
1052.373, 2098.241
1052.855, 2084.493
1053.337, 2071.551
1053.819, 2078.302
1054.301, 2085.329
1054.784, 2081.521
1055.266, 2069.969
1055.748, 2061.798
1056.230, 2057.521
1056.712, 2049.547
1057.194, 2031.996
1057.676, 2017.855
1058.158, 2030.632
1058.641, 2053.714
1059.123, 2061.788
1059.605, 2033.023
1060.087, 2020.070
1060.569, 2026.939
1061.051, 2046.477
1061.533, 2079.656
1062.015, 2120.611
1062.497, 2149.411
1062.979, 2164.786
1063.462, 2161.537
1063.944, 2118.577
1064.426, 2074.153
1064.908, 2051.271
1065.390, 2042.426
1065.872, 2016.891
1066.354, 1970.627
1066.836, 1956.423
1067.318, 2000.213
1067.801, 2056.873
1068.283, 2078.338
1068.765, 2074.533
1069.247, 2056.047
1069.729, 2008.421
1070.211, 1984.855
1070.693, 1995.406
1071.175, 2014.374
1071.658, 2026.152
1072.140, 2029.664
1072.622, 2012.681
1073.104, 1978.928
1073.586, 1960.776
1074.068, 1991.755
1074.550, 2025.006
1075.032, 2036.186
1075.515, 2034.611
1075.997, 2052.360
1076.479, 2091.804
1076.961, 2086.446
1077.443, 2005.965
1077.925, 1921.519
1078.407, 1905.517
1078.889, 1930.776
1079.371, 1969.744
1079.854, 2032.261
1080.336, 2060.847
1080.818, 2044.752
1081.300, 2020.799
1081.782, 2012.859
1082.264, 2015.858
1082.746, 2020.479
1083.228, 2024.857
1083.710, 2020.728
1084.193, 1982.220
1084.675, 1962.255
1085.157, 1986.952
1085.639, 2032.289
1086.121, 2052.894
1086.603, 2049.940
1087.085, 2050.725
1087.567, 2061.092
1088.050, 2069.791
1088.532, 2068.418
1089.014, 2060.116
1089.496, 2046.176
1089.978, 2025.787
1090.460, 2005.494
1090.942, 1980.645
1091.424, 1975.737
1091.906, 2021.749
1092.389, 2082.145
1092.871, 2084.442
1093.353, 2048.681
1093.835, 2029.196
1094.317, 2068.385
1094.799, 2090.435
1095.281, 2081.410
1095.763, 2057.886
1096.245, 2034.863
1096.728, 2014.912
1097.210, 2013.121
1097.692, 2031.723
1098.174, 2049.237
1098.656, 2052.886
1099.138, 2050.011
1099.620, 2039.539
1100.102, 2024.922
1100.585, 2034.543
1101.067, 2070.371
1101.549, 2096.738
1102.031, 2097.012
1102.513, 2087.705
1102.995, 2084.049
1103.477, 2083.498
1103.959, 2082.260
1104.442, 2078.700
1104.924, 2076.455
1105.406, 2076.104
1105.888, 2075.545
1106.370, 2081.833
1106.852, 2083.496
1107.334, 2039.634
1107.816, 1958.754
1108.298, 1911.943
1108.781, 1962.500
1109.263, 2009.591
1109.745, 2022.934
1110.227, 2018.491
1110.709, 2033.785
1111.191, 2064.973
1111.673, 2087.470
1112.155, 2094.323
1112.637, 2095.978
1113.120, 2102.514
1113.602, 2103.912
1114.084, 2088.105
1114.566, 2053.539
1115.048, 2039.282
1115.530, 2046.745
1116.012, 2054.226
1116.494, 2045.646
1116.977, 2033.342
1117.459, 2031.268
1117.941, 2035.370
1118.423, 2035.808
1118.905, 2026.069
1119.387, 2024.383
1119.869, 2035.069
1120.351, 2046.155
1120.833, 2040.499
1121.316, 2026.847
1121.798, 2021.096
1122.280, 2024.869
1122.762, 2033.896
1123.244, 2051.677
1123.726, 2069.120
1124.208, 2085.054
1124.690, 2097.774
1125.172, 2101.556
1125.655, 2097.453
1126.137, 2090.711
1126.619, 2085.361
1127.101, 2072.125
1127.583, 2019.943
1128.065, 1977.798
1128.547, 1996.738
1129.029, 2086.552
1129.512, 2129.878
1129.994, 2126.360
1130.476, 2116.999
1130.958, 2133.260
1131.440, 2151.813
1131.922, 2161.202
1132.404, 2156.199
1132.886, 2117.365
1133.369, 2019.466
1133.851, 1976.061
1134.333, 2011.602
1134.815, 2071.762
1135.297, 2098.283
1135.779, 2106.088
1136.261, 2115.356
1136.743, 2129.205
1137.225, 2134.980
1137.708, 2129.285
1138.190, 2118.278
1138.672, 2097.529
1139.154, 2079.436
1139.636, 2103.491
1140.118, 2154.001
1140.600, 2189.667
1141.082, 2194.702
1141.564, 2185.009
1142.047, 2158.586
1142.529, 2126.013
1143.011, 2090.796
1143.493, 2054.552
1143.975, 2037.956
1144.457, 2040.661
1144.939, 2056.269
1145.421, 2100.156
1145.904, 2135.262
1146.386, 2136.134
1146.868, 2117.029
1147.350, 2102.527
1147.832, 2092.525
1148.314, 2087.626
1148.796, 2088.782
1149.278, 2089.129
1149.760, 2084.397
1150.243, 2074.545
1150.725, 2052.609
1151.207, 2018.931
1151.689, 2018.877
1152.171, 2060.566
1152.653, 2092.516
1153.135, 2087.600
1153.617, 2075.161
1154.099, 2105.242
1154.582, 2149.954
1155.064, 2164.353
1155.546, 2107.394
1156.028, 2084.757
1156.510, 2108.104
1156.992, 2136.022
1157.474, 2132.053
1157.956, 2113.146
1158.438, 2120.878
1158.921, 2146.977
1159.403, 2154.982
1159.885, 2102.457
1160.367, 2071.990
1160.849, 2081.800
1161.331, 2110.196
1161.813, 2135.145
1162.295, 2153.206
1162.778, 2148.406
1163.260, 2117.990
1163.742, 2093.889
1164.224, 2093.094
1164.706, 2101.625
1165.188, 2121.139
1165.670, 2141.776
1166.152, 2113.369
1166.635, 2049.090
1167.117, 2031.903
1167.599, 2107.121
1168.081, 2180.683
1168.563, 2193.470
1169.045, 2185.036
1169.527, 2191.145
1170.009, 2212.224
1170.491, 2219.864
1170.974, 2213.937
1171.456, 2193.156
1171.938, 2138.504
1172.420, 2087.349
1172.902, 2067.770
1173.384, 2068.790
1173.866, 2069.798
1174.348, 2072.822
1174.830, 2057.397
1175.313, 2019.155
1175.795, 1992.822
1176.277, 2022.866
1176.759, 2068.662
1177.241, 2089.803
1177.723, 2088.644
1178.205, 2104.584
1178.687, 2150.657
1179.170, 2159.815
1179.652, 2107.052
1180.134, 2042.776
1180.616, 2031.691
1181.098, 2045.948
1181.580, 2047.246
1182.062, 2025.670
1182.544, 2020.827
1183.026, 2039.008
1183.509, 2060.085
1183.991, 2080.323
1184.473, 2092.306
1184.955, 2070.526
1185.437, 2033.252
1185.919, 2016.985
1186.401, 2053.905
1186.883, 2070.629
1187.365, 2057.827
1187.848, 2036.700
1188.330, 2021.838
1188.812, 2011.688
1189.294, 2001.509
1189.776, 1992.430
1190.258, 1989.540
1190.740, 1999.161
1191.222, 2009.185
1191.705, 2016.436
1192.187, 2025.153
1192.669, 2047.428
1193.151, 2074.682
1193.633, 2079.913
1194.115, 2061.173
1194.597, 2042.790
1195.079, 2036.988
1195.562, 2031.051
1196.044, 2019.076
1196.526, 2005.924
1197.008, 2008.848
1197.490, 2020.739
1197.972, 2012.330
1198.454, 1970.143
1198.936, 1938.839
1199.418, 1952.569
1199.901, 1970.393
1200.383, 1969.669
1200.865, 1954.685
1201.347, 1943.731
1201.829, 1937.915
1202.311, 1943.791
1202.793, 1968.937
1203.275, 1998.135
1203.757, 2039.968
1204.240, 2069.362
1204.722, 2056.985
1205.204, 2004.188
1205.686, 1982.078
1206.168, 1988.930
1206.650, 2004.015
1207.132, 2031.347
1207.614, 2045.815
1208.097, 2020.495
1208.579, 1982.971
1209.061, 1976.536
1209.543, 1999.896
1210.025, 1989.758
1210.507, 1939.771
1210.989, 1899.916
1211.471, 1920.492
1211.953, 1948.169
1212.436, 1939.659
1212.918, 1914.233
1213.400, 1930.673
1213.882, 1987.930
1214.364, 2030.646
1214.846, 2048.434
1215.328, 2042.784
1215.810, 1986.400
1216.292, 1931.316
1216.775, 1929.404
1217.257, 1889.494
1217.739, 1953.440
1218.221, 1879.592
1218.703, 1842.240
1219.185, 1891.014
1219.667, 1950.512
1220.149, 1954.360
1220.632, 1944.411
1221.114, 1970.521
1221.596, 2039.539
1222.078, 2054.835
1222.560, 2016.946
1223.042, 1979.478
1223.524, 1976.201
1224.006, 1981.538
1224.489, 1977.237
1224.971, 1970.107
1225.453, 1973.393
1225.935, 1991.141
1226.417, 1984.566
1226.899, 1951.617
1227.381, 1922.218
1227.863, 1925.991
1228.345, 1934.479
1228.828, 1920.800
1229.310, 1897.044
1229.792, 1895.147
1230.274, 1917.630
1230.756, 1935.371
1231.238, 1945.493
1231.720, 1944.358
1232.202, 1915.855
1232.684, 1886.154
1233.167, 1873.978
1233.649, 1878.475
1234.131, 1899.897
1234.613, 1939.910
1235.095, 1954.451
1235.577, 1926.448
1236.059, 1901.514
1236.541, 1933.774
1237.024, 1976.350
1237.506, 1985.379
1237.988, 1964.012
1238.470, 1941.449
1238.952, 1917.519
1239.434, 1915.550
1239.916, 1957.562
1240.398, 1992.907
1240.880, 1972.216
1241.363, 1929.191
1241.845, 1892.733
1242.327, 1862.245
1242.809, 1878.376
1243.291, 1940.142
1243.773, 1980.793
1244.255, 1946.475
1244.737, 1904.600
1245.219, 1898.522
1245.702, 1913.073
1246.184, 1931.531
1246.666, 1956.503
1247.148, 1952.786
1247.630, 1920.781
1248.112, 1885.508
1248.594, 1846.060
1249.076, 1827.019
1249.558, 1865.710
1250.041, 1923.301
1250.523, 1935.310
1251.005, 1902.115
1251.487, 1882.188
1251.969, 1879.735
1252.451, 1882.050
1252.933, 1878.325
1253.415, 1879.115
1253.898, 1896.749
1254.380, 1919.774
1254.862, 1920.617
1255.344, 1902.550
1255.826, 1903.751
1256.308, 1931.397
1256.790, 1956.184
1257.272, 1963.981
1257.755, 1957.237
1258.237, 1932.694
1258.719, 1898.991
1259.201, 1877.603
1259.683, 1868.786
1260.165, 1881.448
1260.647, 1926.747
1261.129, 1945.673
1261.611, 1851.975
1262.094, 1785.601
1262.576, 1836.777
1263.058, 1959.644
1263.540, 1983.963
1264.022, 1932.192
1264.504, 1886.378
1264.986, 1869.275
1265.468, 1869.379
1265.950, 1893.262
1266.433, 1921.107
1266.915, 1951.102
1267.397, 1973.659
1267.879, 1932.025
1268.361, 1849.943
1268.843, 1805.676
1269.325, 1858.406
1269.807, 1899.618
1270.290, 1912.794
1270.772, 1911.226
1271.254, 1899.383
1271.736, 1882.078
1272.218, 1870.646
1272.700, 1866.081
1273.182, 1871.369
1273.664, 1904.007
1274.146, 1920.269
1274.629, 1912.963
1275.111, 1898.742
1275.593, 1891.312
1276.075, 1889.062
1276.557, 1894.127
1277.039, 1902.599
1277.521, 1897.270
1278.003, 1859.460
1278.485, 1841.564
1278.968, 1853.114
1279.450, 1872.184
1279.932, 1876.952
1280.414, 1874.438
1280.896, 1874.388
1281.378, 1876.061
1281.860, 1870.319
1282.342, 1854.640
1282.825, 1837.532
1283.307, 1817.616
1283.789, 1809.779
1284.271, 1845.637
1284.753, 1889.420
1285.235, 1899.384
1285.717, 1878.129
1286.199, 1880.722
1286.682, 1912.629
1287.164, 1913.321
1287.646, 1861.150
1288.128, 1811.487
1288.610, 1822.315
1289.092, 1853.167
1289.574, 1871.839
1290.056, 1878.600
1290.538, 1879.456
1291.021, 1874.466
1291.503, 1862.531
1291.985, 1837.769
1292.467, 1826.213
1292.949, 1876.163
1293.431, 1915.851
1293.913, 1884.550
1294.395, 1801.744
1294.877, 1780.360
1295.360, 1810.785
1295.842, 1843.424
1296.324, 1867.012
1296.806, 1875.790
1297.288, 1848.683
##END=



