##NAMES=Stilbite-Ca
##RRUFFID=R050012
##IDEAL CHEMISTRY=NaCa_4_(Si_27_Al_9_)O_72_&#183;28H_2_O
##LOCALITY=Harborville, Nova Scotia, Canada
##OWNER=RRUFF
##SOURCE=University of Arizona Mineral Museum
##DESCRIPTION=Globular aggregate of thin tabular white single crystals
##STATUS=The identification of this mineral has been confirmed by X-ray diffraction and chemical analysis
##URL=rruff.info/R050012
##MEASURED CHEMISTRY=(Na_1.50_K_0.03_)_Σ=1.53_Ca_4.15_(Si_26.17_Al_9.83_)O_72_·27.91H_2_O; H_2_O estimated by difference
125.3585, 2399.622
125.8406, 2492.871
126.3227, 2602.724
126.8048, 2715.440
127.2869, 2814.760
127.7690, 2890.269
128.2512, 2949.383
128.7333, 3020.080
129.2154, 3119.032
129.6975, 3209.048
130.1796, 3274.853
130.6617, 3329.446
131.1439, 3392.492
131.6260, 3477.703
132.1081, 3579.979
132.5902, 3659.108
133.0723, 3698.141
133.5544, 3729.585
134.0366, 3759.121
134.5187, 3784.978
135.0008, 3801.869
135.4829, 3805.125
135.9650, 3795.694
136.4471, 3794.068
136.9293, 3798.126
137.4114, 3811.092
137.8935, 3832.701
138.3756, 3863.964
138.8577, 3908.963
139.3398, 3972.948
139.8220, 4056.363
140.3041, 4123.282
140.7862, 4156.200
141.2683, 4193.090
141.7504, 4248.183
142.2325, 4321.227
142.7147, 4405.471
143.1968, 4495.107
143.6789, 4590.781
144.1610, 4710.251
144.6431, 4867.422
145.1252, 5033.020
145.6074, 5201.619
146.0895, 5368.399
146.5716, 5514.623
147.0537, 5625.475
147.5358, 5696.920
148.0179, 5748.370
148.5001, 5770.059
148.9822, 5779.497
149.4643, 5795.073
149.9464, 5816.483
150.4285, 5819.831
150.9106, 5783.550
151.3928, 5707.535
151.8749, 5619.682
152.3570, 5520.220
152.8391, 5410.250
153.3212, 5284.331
153.8033, 5141.712
154.2855, 5001.986
154.7676, 4878.286
155.2497, 4769.935
155.7318, 4675.477
156.2139, 4596.179
156.6960, 4530.057
157.1782, 4474.786
157.6603, 4430.189
158.1424, 4397.516
158.6245, 4388.621
159.1066, 4393.723
159.5887, 4388.727
160.0709, 4356.741
160.5530, 4315.313
161.0351, 4287.725
161.5172, 4274.192
161.9993, 4276.279
162.4814, 4309.962
162.9636, 4359.901
163.4457, 4398.368
163.9278, 4413.303
164.4099, 4411.398
164.8920, 4402.812
165.3741, 4385.809
165.8563, 4366.956
166.3384, 4352.653
166.8205, 4339.290
167.3026, 4320.302
167.7847, 4294.316
168.2668, 4260.540
168.7490, 4215.184
169.2311, 4152.880
169.7132, 4090.540
170.1953, 4038.249
170.6774, 3991.561
171.1595, 3943.644
171.6417, 3890.774
172.1238, 3834.929
172.6059, 3780.404
173.0880, 3725.692
173.5701, 3675.691
174.0522, 3635.018
174.5344, 3598.968
175.0165, 3561.236
175.4986, 3517.504
175.9807, 3470.639
176.4628, 3427.150
176.9449, 3384.814
177.4271, 3350.855
177.9092, 3333.642
178.3913, 3323.815
178.8734, 3308.228
179.3555, 3278.617
179.8376, 3240.565
180.3197, 3210.262
180.8019, 3190.276
181.2840, 3174.239
181.7661, 3160.241
182.2482, 3148.113
182.7303, 3138.313
183.2124, 3131.761
183.6946, 3126.534
184.1767, 3116.456
184.6588, 3097.306
185.1409, 3080.820
185.6230, 3071.717
186.1051, 3066.030
186.5873, 3059.134
187.0694, 3048.771
187.5515, 3036.314
188.0336, 3024.940
188.5157, 3014.227
188.9978, 3005.786
189.4800, 3002.370
189.9621, 3000.075
190.4442, 2995.517
190.9263, 2987.434
191.4084, 2975.064
191.8905, 2954.605
192.3727, 2914.220
192.8548, 2887.567
193.3369, 2885.323
193.8190, 2894.505
194.3011, 2904.133
194.7832, 2909.939
195.2654, 2912.051
195.7475, 2910.291
196.2296, 2902.196
196.7117, 2894.641
197.1938, 2888.469
197.6759, 2883.141
198.1581, 2879.454
198.6402, 2877.491
199.1223, 2874.289
199.6044, 2862.620
200.0865, 2832.434
200.5686, 2814.470
201.0508, 2823.166
201.5329, 2835.558
202.0150, 2832.778
202.4971, 2810.032
202.9792, 2777.965
203.4613, 2752.547
203.9435, 2733.284
204.4256, 2722.882
204.9077, 2728.381
205.3898, 2736.422
205.8719, 2738.661
206.3540, 2733.180
206.8362, 2722.737
207.3183, 2709.746
207.8004, 2690.844
208.2825, 2678.605
208.7646, 2681.299
209.2467, 2683.529
209.7289, 2674.394
210.2110, 2653.876
210.6931, 2631.247
211.1752, 2618.322
211.6573, 2619.590
212.1395, 2614.201
212.6216, 2598.053
213.1037, 2579.344
213.5858, 2558.284
214.0679, 2537.310
214.5500, 2522.286
215.0322, 2520.507
215.5143, 2534.650
215.9964, 2544.331
216.4785, 2549.298
216.9606, 2550.185
217.4427, 2542.671
217.9249, 2530.408
218.4070, 2523.054
218.8891, 2530.806
219.3712, 2554.453
219.8533, 2564.381
220.3354, 2541.826
220.8176, 2523.194
221.2997, 2520.617
221.7818, 2529.595
222.2639, 2540.290
222.7460, 2546.505
223.2281, 2548.179
223.7103, 2544.038
224.1924, 2523.415
224.6745, 2508.573
225.1566, 2507.368
225.6387, 2514.152
226.1208, 2520.577
226.6030, 2521.902
227.0851, 2519.107
227.5672, 2516.256
228.0493, 2513.423
228.5314, 2510.395
229.0135, 2503.986
229.4957, 2498.502
229.9778, 2500.124
230.4599, 2511.890
230.9420, 2528.808
231.4241, 2538.847
231.9062, 2540.608
232.3884, 2536.824
232.8705, 2519.982
233.3526, 2502.886
233.8347, 2498.983
234.3168, 2512.289
234.7989, 2532.060
235.2811, 2538.466
235.7632, 2522.727
236.2453, 2514.550
236.7274, 2520.800
237.2095, 2531.322
237.6916, 2539.244
238.1738, 2543.371
238.6559, 2547.470
239.1380, 2558.824
239.6201, 2582.928
240.1022, 2593.530
240.5843, 2577.743
241.0665, 2558.085
241.5486, 2542.599
242.0307, 2532.928
242.5128, 2528.973
242.9949, 2534.371
243.4770, 2551.026
243.9592, 2553.760
244.4413, 2527.509
244.9234, 2500.717
245.4055, 2482.353
245.8876, 2472.016
246.3697, 2466.479
246.8519, 2463.690
247.3340, 2463.670
247.8161, 2467.427
248.2982, 2481.913
248.7803, 2490.507
249.2624, 2484.013
249.7446, 2469.023
250.2267, 2455.958
250.7088, 2450.023
251.1909, 2449.936
251.6730, 2452.520
252.1551, 2459.505
252.6373, 2465.674
253.1194, 2471.849
253.6015, 2475.499
254.0836, 2472.067
254.5657, 2458.467
255.0478, 2442.785
255.5300, 2439.328
256.0121, 2451.808
256.4942, 2462.486
256.9763, 2467.466
257.4584, 2467.962
257.9406, 2462.010
258.4227, 2448.871
258.9048, 2437.482
259.3869, 2439.377
259.8690, 2455.291
260.3511, 2467.771
260.8333, 2474.181
261.3154, 2475.194
261.7975, 2469.232
262.2796, 2456.958
262.7617, 2446.062
263.2438, 2442.525
263.7260, 2445.326
264.2081, 2448.831
264.6902, 2453.454
265.1723, 2457.153
265.6544, 2459.477
266.1365, 2460.081
266.6187, 2457.427
267.1008, 2445.856
267.5829, 2431.418
268.0650, 2429.320
268.5471, 2444.010
269.0292, 2457.629
269.5114, 2455.712
269.9935, 2444.434
270.4756, 2433.154
270.9577, 2421.853
271.4398, 2413.512
271.9219, 2413.173
272.4041, 2421.085
272.8862, 2428.757
273.3683, 2432.685
273.8504, 2433.218
274.3325, 2431.437
274.8146, 2426.399
275.2968, 2420.828
275.7789, 2415.542
276.2610, 2410.963
276.7431, 2408.924
277.2252, 2410.406
277.7073, 2414.379
278.1895, 2420.069
278.6716, 2428.597
279.1537, 2433.767
279.6358, 2430.789
280.1179, 2423.547
280.6000, 2417.429
281.0822, 2413.047
281.5643, 2413.370
282.0464, 2424.574
282.5285, 2447.879
283.0106, 2465.649
283.4927, 2476.123
283.9749, 2480.075
284.4570, 2475.361
284.9391, 2462.771
285.4212, 2450.737
285.9033, 2446.641
286.3854, 2450.387
286.8676, 2450.646
287.3497, 2447.219
287.8318, 2440.889
288.3139, 2427.228
288.7960, 2410.461
289.2781, 2402.281
289.7603, 2410.130
290.2424, 2429.814
290.7245, 2443.645
291.2066, 2446.782
291.6887, 2450.517
292.1708, 2460.216
292.6530, 2470.106
293.1351, 2472.525
293.6172, 2464.840
294.0993, 2450.549
294.5814, 2434.782
295.0635, 2407.759
295.5457, 2399.511
296.0278, 2428.237
296.5099, 2461.192
296.9920, 2472.734
297.4741, 2461.906
297.9562, 2446.554
298.4384, 2445.284
298.9205, 2460.359
299.4026, 2474.115
299.8847, 2493.156
300.3668, 2504.400
300.8489, 2496.369
301.3311, 2476.979
301.8131, 2463.240
302.2953, 2467.260
302.7774, 2484.941
303.2595, 2494.914
303.7416, 2489.854
304.2237, 2487.703
304.7058, 2493.714
305.1880, 2503.512
305.6701, 2513.223
306.1522, 2521.515
306.6343, 2527.275
307.1164, 2527.220
307.5985, 2518.688
308.0807, 2514.302
308.5628, 2521.314
309.0449, 2529.712
309.5270, 2534.087
310.0091, 2533.807
310.4912, 2530.702
310.9734, 2526.219
311.4555, 2520.303
311.9376, 2511.425
312.4197, 2494.662
312.9018, 2482.270
313.3839, 2483.431
313.8661, 2494.445
314.3482, 2506.008
314.8303, 2517.929
315.3124, 2526.103
315.7945, 2518.385
316.2766, 2490.672
316.7588, 2471.811
317.2409, 2490.173
317.7230, 2523.055
318.2051, 2530.919
318.6872, 2496.985
319.1693, 2458.823
319.6515, 2445.354
320.1336, 2452.082
320.6157, 2459.604
321.0978, 2463.262
321.5799, 2461.956
322.0620, 2450.474
322.5442, 2425.919
323.0263, 2410.211
323.5084, 2417.887
323.9905, 2434.269
324.4726, 2439.763
324.9547, 2431.121
325.4369, 2417.668
325.9190, 2406.957
326.4011, 2399.220
326.8832, 2397.470
327.3653, 2407.987
327.8474, 2418.486
328.3296, 2421.945
328.8117, 2419.519
329.2938, 2415.871
329.7759, 2413.823
330.2580, 2412.499
330.7401, 2407.967
331.2223, 2397.654
331.7044, 2387.259
332.1865, 2376.963
332.6686, 2367.019
333.1507, 2357.038
333.6328, 2347.114
334.1150, 2338.758
334.5971, 2333.833
335.0792, 2331.358
335.5613, 2335.549
336.0434, 2356.089
336.5255, 2373.968
337.0077, 2378.271
337.4898, 2370.656
337.9719, 2358.901
338.4540, 2347.358
338.9361, 2336.928
339.4182, 2336.887
339.9004, 2357.976
340.3825, 2373.531
340.8646, 2374.947
341.3467, 2367.413
341.8288, 2356.085
342.3109, 2341.949
342.7931, 2329.073
343.2752, 2324.881
343.7573, 2330.814
344.2394, 2335.143
344.7215, 2334.092
345.2036, 2331.163
345.6858, 2328.223
346.1679, 2325.498
346.6500, 2325.000
347.1321, 2330.365
347.6142, 2338.893
348.0963, 2341.603
348.5785, 2335.164
349.0606, 2330.679
349.5427, 2342.198
350.0248, 2363.384
350.5069, 2374.820
350.9890, 2363.734
351.4712, 2349.138
351.9533, 2349.378
352.4354, 2361.249
352.9175, 2366.675
353.3996, 2355.129
353.8817, 2334.233
354.3639, 2324.345
354.8460, 2328.348
355.3281, 2334.329
355.8102, 2342.484
356.2923, 2349.987
356.7744, 2350.943
357.2566, 2344.780
357.7387, 2340.771
358.2208, 2351.003
358.7029, 2380.662
359.1850, 2394.921
359.6671, 2379.140
360.1493, 2364.841
360.6314, 2366.906
361.1135, 2381.512
361.5956, 2398.234
362.0777, 2411.022
362.5598, 2421.358
363.0420, 2435.257
363.5241, 2458.890
364.0062, 2475.819
364.4883, 2478.471
364.9704, 2477.937
365.4525, 2484.190
365.9347, 2498.992
366.4168, 2515.937
366.8989, 2528.322
367.3810, 2536.117
367.8631, 2540.345
368.3452, 2531.669
368.8274, 2531.293
369.3095, 2556.317
369.7916, 2597.276
370.2737, 2630.705
370.7558, 2639.999
371.2379, 2640.162
371.7201, 2660.750
372.2022, 2704.849
372.6843, 2738.771
373.1664, 2741.794
373.6485, 2729.954
374.1306, 2726.925
374.6128, 2733.301
375.0949, 2748.784
375.5770, 2781.251
376.0591, 2821.322
376.5412, 2848.033
377.0233, 2855.895
377.5055, 2860.113
377.9876, 2877.648
378.4697, 2910.313
378.9518, 2933.148
379.4339, 2935.311
379.9160, 2937.001
380.3982, 2950.599
380.8803, 2973.742
381.3624, 2997.573
381.8445, 3017.037
382.3266, 3034.813
382.8087, 3059.642
383.2909, 3103.092
383.7730, 3138.135
384.2551, 3160.782
384.7372, 3177.111
385.2193, 3188.960
385.7014, 3198.425
386.1836, 3211.526
386.6657, 3235.453
387.1478, 3270.709
387.6299, 3304.970
388.1120, 3332.645
388.5941, 3366.530
389.0763, 3417.957
389.5584, 3476.341
390.0405, 3523.271
390.5226, 3549.122
391.0047, 3566.975
391.4868, 3596.950
391.9690, 3639.494
392.4511, 3689.521
392.9332, 3752.157
393.4153, 3815.920
393.8974, 3867.736
394.3795, 3907.850
394.8617, 3950.295
395.3438, 4008.005
395.8259, 4070.318
396.3080, 4114.422
396.7901, 4136.841
397.2722, 4167.303
397.7544, 4229.973
398.2365, 4318.686
398.7186, 4397.194
399.2007, 4465.287
399.6828, 4523.037
400.1649, 4563.736
400.6471, 4595.512
401.1292, 4631.162
401.6113, 4675.116
402.0934, 4726.076
402.5755, 4784.105
403.0576, 4855.405
403.5398, 4913.344
404.0219, 4955.681
404.5040, 4989.342
404.9861, 5016.615
405.4682, 5038.362
405.9503, 5055.764
406.4325, 5070.175
406.9146, 5079.540
407.3967, 5073.548
407.8788, 5037.670
408.3609, 5016.704
408.8430, 5039.245
409.3252, 5065.668
409.8073, 5063.307
410.2894, 5027.813
410.7715, 4980.756
411.2536, 4935.130
411.7357, 4892.189
412.2179, 4864.551
412.7000, 4863.738
413.1821, 4852.684
413.6642, 4794.619
414.1463, 4708.553
414.6284, 4631.833
415.1106, 4574.104
415.5927, 4523.618
416.0748, 4476.033
416.5569, 4429.125
417.0390, 4374.768
417.5211, 4309.102
418.0033, 4239.603
418.4854, 4177.106
418.9675, 4123.156
419.4496, 4072.394
419.9317, 4028.657
420.4138, 3985.205
420.8960, 3935.658
421.3781, 3881.827
421.8602, 3830.479
422.3423, 3785.830
422.8244, 3746.657
423.3065, 3707.668
423.7887, 3666.733
424.2708, 3629.384
424.7529, 3600.643
425.2350, 3572.347
425.7171, 3538.361
426.1992, 3497.555
426.6814, 3452.625
427.1635, 3403.745
427.6456, 3351.337
428.1277, 3304.730
428.6098, 3263.319
429.0919, 3229.197
429.5741, 3209.057
430.0562, 3194.972
430.5383, 3174.349
431.0204, 3140.628
431.5025, 3107.596
431.9846, 3089.514
432.4668, 3082.097
432.9489, 3069.816
433.4310, 3048.277
433.9131, 3022.198
434.3952, 2995.052
434.8773, 2966.310
435.3595, 2945.833
435.8416, 2945.290
436.3237, 2943.242
436.8058, 2921.563
437.2879, 2887.412
437.7701, 2860.537
438.2522, 2851.384
438.7343, 2853.521
439.2164, 2850.678
439.6985, 2838.814
440.1806, 2829.094
440.6628, 2823.775
441.1449, 2818.670
441.6270, 2810.436
442.1091, 2799.652
442.5912, 2789.494
443.0733, 2782.527
443.5555, 2778.029
444.0376, 2772.773
444.5197, 2765.546
445.0018, 2760.972
445.4839, 2762.749
445.9660, 2767.123
446.4482, 2770.420
446.9303, 2771.964
447.4124, 2774.190
447.8945, 2779.770
448.3766, 2786.860
448.8587, 2791.219
449.3409, 2792.155
449.8230, 2792.657
450.3051, 2795.651
450.7872, 2800.513
451.2693, 2801.499
451.7514, 2794.991
452.2336, 2789.138
452.7157, 2784.115
453.1978, 2782.256
453.6799, 2790.262
454.1620, 2808.969
454.6441, 2826.315
455.1263, 2825.197
455.6084, 2801.087
456.0905, 2784.227
456.5726, 2784.146
457.0547, 2781.904
457.5368, 2767.768
458.0190, 2748.654
458.5011, 2737.320
458.9832, 2740.433
459.4653, 2746.804
459.9474, 2739.215
460.4295, 2717.473
460.9117, 2696.594
461.3938, 2678.168
461.8759, 2663.201
462.3580, 2656.211
462.8401, 2654.829
463.3222, 2645.469
463.8044, 2617.963
464.2865, 2585.963
464.7686, 2558.717
465.2507, 2537.019
465.7328, 2524.666
466.2149, 2524.952
466.6971, 2529.612
467.1792, 2522.293
467.6613, 2494.875
468.1434, 2472.025
468.6255, 2453.872
469.1076, 2440.008
469.5898, 2432.837
470.0719, 2430.006
470.5540, 2425.379
471.0361, 2414.497
471.5182, 2400.708
472.0003, 2394.487
472.4825, 2399.471
472.9646, 2402.208
473.4467, 2397.766
473.9288, 2391.622
474.4109, 2385.143
474.8930, 2379.295
475.3752, 2378.807
475.8573, 2388.372
476.3394, 2404.206
476.8215, 2420.436
477.3036, 2436.889
477.7857, 2453.949
478.2679, 2471.924
478.7500, 2490.496
479.2321, 2508.889
479.7142, 2525.919
480.1963, 2545.259
480.6784, 2566.897
481.1606, 2591.613
481.6427, 2620.388
482.1248, 2653.139
482.6069, 2688.655
483.0890, 2726.250
483.5711, 2765.923
484.0533, 2808.519
484.5354, 2854.244
485.0175, 2902.988
485.4996, 2955.372
485.9817, 3009.877
486.4638, 3063.352
486.9460, 3116.530
487.4281, 3174.958
487.9102, 3247.152
488.3923, 3327.806
488.8744, 3401.106
489.3565, 3466.471
489.8387, 3526.084
490.3208, 3576.987
490.8029, 3624.564
491.2850, 3680.154
491.7671, 3747.049
492.2492, 3812.501
492.7314, 3878.129
493.2135, 3936.230
493.6956, 3975.619
494.1777, 3996.540
494.6598, 4011.380
495.1419, 4031.110
495.6241, 4051.694
496.1062, 4046.876
496.5883, 4000.324
497.0704, 3949.737
497.5525, 3906.456
498.0346, 3855.562
498.5168, 3778.356
498.9989, 3676.881
499.4810, 3576.741
499.9631, 3503.175
500.4452, 3447.527
500.9273, 3376.505
501.4095, 3286.047
501.8916, 3197.016
502.3737, 3120.246
502.8558, 3048.652
503.3379, 2971.327
503.8200, 2887.157
504.3022, 2802.390
504.7843, 2714.466
505.2664, 2630.201
505.7485, 2559.723
506.2306, 2502.638
506.7127, 2451.654
507.1949, 2401.332
507.6770, 2353.354
508.1591, 2315.963
508.6412, 2302.747
509.1233, 2279.961
509.6054, 2237.181
510.0876, 2191.328
510.5697, 2153.292
511.0518, 2124.341
511.5339, 2101.948
512.0161, 2087.164
512.4982, 2075.848
512.9803, 2053.883
513.4624, 2018.536
513.9445, 1974.825
514.4266, 1974.361
514.9088, 1968.432
515.3909, 1957.340
515.8730, 1925.610
516.3551, 1920.530
516.8372, 1904.769
517.3193, 1888.572
517.8015, 1887.240
518.2836, 1858.510
518.7657, 1856.947
519.2478, 1844.538
519.7299, 1837.093
520.2120, 1818.902
520.6942, 1804.025
521.1763, 1799.904
521.6584, 1789.828
522.1405, 1772.653
522.6226, 1772.239
523.1047, 1778.398
523.5869, 1783.738
524.0690, 1784.372
524.5511, 1782.316
525.0332, 1782.137
525.5153, 1783.785
525.9974, 1778.826
526.4796, 1763.156
526.9617, 1743.664
527.4438, 1726.818
527.9259, 1712.363
528.4080, 1699.693
528.8901, 1687.988
529.3723, 1678.769
529.8544, 1673.212
530.3365, 1670.712
530.8186, 1670.194
531.3007, 1671.276
531.7828, 1674.366
532.2650, 1681.404
532.7471, 1694.731
533.2292, 1697.260
533.7113, 1674.757
534.1934, 1657.700
534.6755, 1662.552
535.1577, 1675.470
535.6398, 1675.653
536.1219, 1655.986
536.6040, 1634.385
537.0861, 1629.662
537.5682, 1636.507
538.0504, 1636.886
538.5325, 1627.893
539.0146, 1618.651
539.4967, 1615.045
539.9788, 1616.621
540.4609, 1620.909
540.9431, 1636.049
541.4252, 1642.598
541.9073, 1630.649
542.3894, 1612.259
542.8715, 1596.757
543.3536, 1586.336
543.8358, 1581.198
544.3179, 1581.967
544.8000, 1587.654
545.2821, 1595.427
545.7642, 1609.194
546.2463, 1614.191
546.7285, 1596.683
547.2106, 1576.350
547.6927, 1569.051
548.1748, 1574.449
548.6569, 1580.552
549.1390, 1580.285
549.6211, 1579.457
550.1032, 1587.291
550.5853, 1601.072
551.0674, 1607.651
551.5496, 1601.069
552.0317, 1588.840
552.5138, 1583.144
552.9959, 1586.247
553.4780, 1588.303
553.9601, 1592.118
554.4423, 1592.093
554.9244, 1578.864
555.4065, 1562.512
555.8886, 1561.259
556.3707, 1582.226
556.8528, 1606.723
557.3350, 1611.662
557.8171, 1599.112
558.2992, 1584.469
558.7813, 1567.006
559.2634, 1554.353
559.7455, 1554.067
560.2277, 1562.340
560.7098, 1566.089
561.1919, 1561.891
561.6740, 1559.015
562.1561, 1559.373
562.6382, 1563.077
563.1204, 1573.188
563.6025, 1587.857
564.0846, 1598.394
564.5667, 1597.974
565.0488, 1589.498
565.5309, 1584.927
566.0131, 1587.272
566.4952, 1585.899
566.9773, 1572.832
567.4594, 1560.467
567.9415, 1557.965
568.4236, 1563.704
568.9058, 1568.650
569.3879, 1568.493
569.8700, 1566.359
570.3521, 1565.111
570.8342, 1564.538
571.3163, 1564.616
571.7985, 1565.576
572.2806, 1564.385
572.7627, 1555.949
573.2448, 1538.300
573.7269, 1532.046
574.2090, 1548.172
574.6912, 1561.904
575.1733, 1565.790
575.6554, 1564.752
576.1375, 1565.241
576.6196, 1568.388
577.1017, 1569.204
577.5839, 1559.273
578.0660, 1543.429
578.5481, 1539.662
579.0302, 1549.586
579.5123, 1559.178
579.9944, 1560.679
580.4766, 1559.365
580.9587, 1567.366
581.4408, 1588.788
581.9229, 1601.168
582.4050, 1595.041
582.8871, 1584.648
583.3693, 1576.917
583.8514, 1572.788
584.3335, 1572.654
584.8156, 1576.754
585.2977, 1583.145
585.7798, 1589.945
586.2620, 1597.596
586.7441, 1599.319
587.2262, 1589.957
587.7083, 1582.646
588.1904, 1588.091
588.6725, 1599.633
589.1547, 1606.611
589.6368, 1607.040
590.1189, 1604.446
590.6010, 1598.784
591.0831, 1591.989
591.5652, 1585.571
592.0474, 1580.223
592.5295, 1577.653
593.0116, 1578.973
593.4937, 1584.026
593.9758, 1593.210
594.4579, 1610.349
594.9401, 1622.414
595.4222, 1625.498
595.9043, 1625.660
596.3864, 1621.671
596.8685, 1617.206
597.3506, 1622.137
597.8328, 1646.138
598.3149, 1668.766
598.7970, 1666.579
599.2791, 1649.053
599.7612, 1641.220
600.2433, 1647.898
600.7255, 1659.395
601.2076, 1668.992
601.6897, 1675.994
602.1718, 1674.561
602.6539, 1652.756
603.1360, 1638.833
603.6182, 1636.922
604.1003, 1641.890
604.5824, 1653.064
605.0645, 1668.039
605.5466, 1680.386
606.0287, 1686.095
606.5109, 1687.726
606.9930, 1688.946
607.4751, 1689.629
607.9572, 1688.911
608.4393, 1686.677
608.9214, 1682.506
609.4036, 1675.594
609.8857, 1665.910
610.3678, 1656.818
610.8499, 1640.840
611.3320, 1634.794
611.8141, 1651.894
612.2963, 1674.942
612.7784, 1686.748
613.2605, 1685.657
613.7426, 1680.532
614.2247, 1677.540
614.7068, 1675.677
615.1890, 1672.091
615.6711, 1666.655
616.1532, 1662.791
616.6353, 1662.838
617.1174, 1662.333
617.5995, 1654.454
618.0817, 1639.001
618.5638, 1630.315
619.0459, 1636.619
619.5280, 1640.909
620.0101, 1631.022
620.4922, 1618.219
620.9744, 1619.580
621.4565, 1636.412
621.9386, 1652.623
622.4207, 1652.390
622.9028, 1640.543
623.3849, 1636.605
623.8671, 1642.065
624.3492, 1646.843
624.8313, 1648.195
625.3134, 1647.268
625.7955, 1645.185
626.2776, 1642.013
626.7598, 1637.745
627.2419, 1629.348
627.7240, 1623.138
628.2061, 1626.306
628.6882, 1632.105
629.1703, 1628.222
629.6525, 1613.259
630.1346, 1599.819
630.6167, 1602.063
631.0988, 1616.172
631.5809, 1619.953
632.0630, 1610.850
632.5452, 1601.213
633.0273, 1593.156
633.5094, 1587.670
633.9915, 1588.523
634.4736, 1595.140
634.9557, 1593.991
635.4379, 1573.366
635.9200, 1553.832
636.4021, 1547.631
636.8842, 1549.841
637.3663, 1553.178
637.8484, 1555.516
638.3306, 1557.721
638.8127, 1561.308
639.2948, 1565.392
639.7769, 1564.080
640.2590, 1556.220
640.7411, 1546.780
641.2233, 1534.605
641.7054, 1523.978
642.1875, 1519.891
642.6696, 1521.840
643.1517, 1523.961
643.6339, 1525.797
644.1160, 1526.712
644.5981, 1529.054
645.0802, 1529.184
645.5623, 1518.573
646.0444, 1497.177
646.5266, 1477.294
647.0087, 1470.536
647.4908, 1474.779
647.9729, 1481.639
648.4550, 1493.069
648.9371, 1498.897
649.4193, 1494.537
649.9014, 1485.763
650.3835, 1475.497
650.8656, 1464.651
651.3477, 1460.227
651.8298, 1470.860
652.3120, 1479.650
652.7941, 1476.838
653.2762, 1468.367
653.7583, 1462.213
654.2404, 1459.547
654.7225, 1456.330
655.2047, 1448.518
655.6868, 1438.727
656.1689, 1437.838
656.6510, 1448.517
657.1331, 1450.421
657.6152, 1432.671
658.0974, 1414.607
658.5795, 1418.042
659.0616, 1437.382
659.5437, 1447.495
660.0258, 1439.094
660.5079, 1429.948
660.9901, 1425.974
661.4722, 1424.297
661.9543, 1420.827
662.4364, 1416.203
662.9185, 1415.760
663.4006, 1424.262
663.8828, 1435.591
664.3649, 1435.386
664.8470, 1423.249
665.3291, 1411.951
665.8112, 1401.999
666.2933, 1396.841
666.7755, 1403.206
667.2576, 1416.614
667.7397, 1417.516
668.2218, 1394.609
668.7039, 1377.691
669.1860, 1375.169
669.6682, 1378.529
670.1503, 1384.859
670.6324, 1390.963
671.1145, 1389.939
671.5966, 1377.533
672.0787, 1362.921
672.5609, 1359.851
673.0430, 1366.746
673.5251, 1372.287
674.0072, 1375.208
674.4893, 1378.479
674.9714, 1385.470
675.4536, 1392.761
675.9357, 1390.734
676.4178, 1372.357
676.8999, 1360.033
677.3820, 1357.565
677.8641, 1357.961
678.3463, 1359.755
678.8284, 1361.203
679.3105, 1359.517
679.7926, 1353.822
680.2747, 1347.741
680.7568, 1344.176
681.2390, 1342.907
681.7211, 1344.948
682.2032, 1349.961
682.6853, 1351.141
683.1674, 1344.770
683.6495, 1335.716
684.1317, 1331.614
684.6138, 1333.549
685.0959, 1334.777
685.5780, 1333.218
686.0601, 1333.487
686.5422, 1340.432
687.0244, 1347.473
687.5065, 1345.251
687.9886, 1333.833
688.4707, 1326.603
688.9528, 1336.447
689.4349, 1350.289
689.9171, 1351.850
690.3992, 1344.984
690.8813, 1342.265
691.3634, 1346.986
691.8455, 1350.982
692.3276, 1345.351
692.8098, 1331.611
693.2919, 1323.288
693.7740, 1321.848
694.2561, 1322.663
694.7382, 1328.214
695.2203, 1332.765
695.7025, 1331.197
696.1846, 1325.123
696.6667, 1320.750
697.1488, 1319.492
697.6309, 1320.418
698.1130, 1324.945
698.5952, 1330.304
699.0773, 1332.341
699.5594, 1331.413
700.0415, 1331.448
700.5236, 1335.012
701.0057, 1340.184
701.4879, 1339.152
701.9700, 1318.595
702.4521, 1330.393
702.9342, 1336.732
703.4163, 1337.905
703.8984, 1318.438
704.3806, 1325.623
704.8627, 1322.127
705.3448, 1318.193
705.8269, 1329.129
706.3090, 1312.664
706.7911, 1323.364
707.2733, 1323.220
707.7554, 1328.040
708.2375, 1321.502
708.7196, 1308.162
709.2017, 1295.399
709.6838, 1298.744
710.1660, 1311.005
710.6481, 1312.424
711.1302, 1303.469
711.6123, 1296.669
712.0944, 1296.444
712.5765, 1300.237
713.0587, 1305.664
713.5408, 1312.984
714.0229, 1316.322
714.5050, 1310.639
714.9871, 1307.844
715.4692, 1314.203
715.9514, 1320.643
716.4335, 1318.767
716.9156, 1309.738
717.3977, 1301.328
717.8798, 1295.610
718.3619, 1293.066
718.8441, 1295.875
719.3262, 1301.408
719.8083, 1305.052
720.2904, 1306.394
720.7725, 1307.557
721.2546, 1309.765
721.7368, 1313.514
722.2189, 1321.483
722.7010, 1335.274
723.1831, 1342.059
723.6652, 1339.708
724.1473, 1332.401
724.6295, 1318.510
725.1116, 1302.761
725.5937, 1294.464
726.0758, 1294.693
726.5579, 1298.994
727.0400, 1312.902
727.5222, 1324.242
728.0043, 1323.868
728.4864, 1316.743
728.9685, 1310.479
729.4506, 1307.431
729.9327, 1306.825
730.4149, 1309.105
730.8970, 1312.892
731.3791, 1315.769
731.8612, 1317.550
732.3433, 1316.530
732.8254, 1312.230
733.3076, 1304.075
733.7897, 1289.137
734.2718, 1269.049
734.7539, 1265.918
735.2360, 1298.178
735.7181, 1316.439
736.2003, 1300.328
736.6824, 1282.919
737.1645, 1289.469
737.6466, 1311.081
738.1287, 1320.364
738.6108, 1304.344
739.0930, 1289.074
739.5751, 1293.067
740.0572, 1303.053
740.5393, 1302.597
741.0214, 1293.478
741.5035, 1285.852
741.9857, 1284.503
742.4678, 1288.262
742.9499, 1299.229
743.4320, 1316.073
743.9141, 1317.996
744.3962, 1301.459
744.8784, 1288.421
745.3605, 1288.595
745.8426, 1294.227
746.3247, 1294.309
746.8068, 1287.692
747.2889, 1286.641
747.7711, 1296.709
748.2532, 1304.812
748.7353, 1308.926
749.2174, 1309.037
749.6995, 1301.526
750.1816, 1289.457
750.6638, 1284.761
751.1459, 1297.387
751.6280, 1311.115
752.1101, 1309.406
752.5922, 1298.725
753.0743, 1289.555
753.5565, 1283.817
754.0386, 1282.743
754.5207, 1287.325
755.0028, 1295.061
755.4849, 1302.230
755.9670, 1309.392
756.4492, 1308.883
756.9313, 1295.259
757.4134, 1287.835
757.8955, 1300.000
758.3776, 1319.203
758.8597, 1325.375
759.3419, 1317.321
759.8240, 1311.539
760.3061, 1308.012
760.7882, 1308.552
761.2703, 1317.284
761.7524, 1328.162
762.2346, 1335.725
762.7167, 1339.011
763.1988, 1338.793
763.6809, 1334.665
764.1630, 1328.746
764.6451, 1320.477
765.1273, 1312.842
765.6094, 1314.144
766.0915, 1324.967
766.5736, 1340.450
767.0557, 1358.663
767.5378, 1374.732
768.0200, 1375.793
768.5021, 1358.056
768.9842, 1348.112
769.4663, 1347.052
769.9484, 1352.669
770.4305, 1370.397
770.9127, 1390.020
771.3948, 1393.837
771.8769, 1379.927
772.3590, 1376.292
772.8411, 1397.247
773.3232, 1415.649
773.8054, 1419.780
774.2875, 1416.945
774.7696, 1412.432
775.2517, 1408.710
775.7338, 1410.526
776.2159, 1423.141
776.6981, 1436.666
777.1802, 1437.317
777.6623, 1431.063
778.1444, 1433.161
778.6265, 1444.210
779.1086, 1452.175
779.5908, 1449.718
780.0729, 1444.504
780.5550, 1453.544
781.0371, 1479.696
781.5192, 1488.960
782.0013, 1473.087
782.4835, 1462.641
782.9656, 1472.810
783.4477, 1490.545
783.9298, 1498.569
784.4119, 1496.603
784.8940, 1498.440
785.3762, 1513.812
785.8583, 1521.151
786.3404, 1505.676
786.8225, 1486.912
787.3046, 1483.632
787.7867, 1492.694
788.2689, 1498.091
788.7510, 1492.321
789.2331, 1483.794
789.7152, 1478.406
790.1973, 1475.451
790.6794, 1473.465
791.1616, 1472.692
791.6437, 1475.734
792.1258, 1483.741
792.6079, 1491.249
793.0900, 1491.120
793.5721, 1483.721
794.0543, 1471.315
794.5364, 1452.517
795.0185, 1437.642
795.5006, 1431.181
795.9827, 1426.138
796.4648, 1414.677
796.9470, 1397.828
797.4291, 1387.105
797.9112, 1389.012
798.3933, 1387.821
798.8754, 1376.919
799.3575, 1368.633
799.8397, 1375.853
800.3218, 1389.120
800.8039, 1387.942
801.2860, 1364.990
801.7681, 1346.823
802.2502, 1355.651
802.7324, 1367.223
803.2145, 1357.915
803.6966, 1335.244
804.1787, 1313.340
804.6608, 1296.734
805.1429, 1285.946
805.6251, 1283.154
806.1072, 1284.095
806.5893, 1278.302
807.0714, 1267.042
807.5535, 1260.982
808.0356, 1262.252
808.5178, 1263.339
808.9999, 1259.339
809.4820, 1251.607
809.9641, 1243.696
810.4462, 1236.093
810.9283, 1226.160
811.4105, 1211.249
811.8926, 1198.257
812.3747, 1190.389
812.8568, 1185.484
813.3389, 1181.988
813.8210, 1179.841
814.3032, 1175.821
814.7853, 1165.184
815.2674, 1158.068
815.7495, 1161.450
816.2316, 1167.102
816.7137, 1167.178
817.1959, 1162.606
817.6780, 1158.893
818.1601, 1158.591
818.6422, 1158.456
819.1243, 1157.192
819.6064, 1153.468
820.0886, 1142.973
820.5707, 1127.932
821.0528, 1115.792
821.5349, 1109.245
822.0170, 1108.608
822.4991, 1116.744
822.9813, 1129.675
823.4634, 1127.436
823.9455, 1108.895
824.4276, 1099.597
824.9097, 1106.811
825.3918, 1116.057
825.8740, 1116.457
826.3561, 1110.536
826.8382, 1106.991
827.3203, 1108.703
827.8024, 1106.075
828.2845, 1094.875
828.7667, 1084.508
829.2488, 1076.688
829.7309, 1072.450
830.2130, 1075.401
830.6951, 1085.533
831.1772, 1090.040
831.6594, 1081.263
832.1415, 1071.894
832.6236, 1066.085
833.1057, 1063.313
833.5878, 1065.277
834.0699, 1069.630
834.5521, 1068.779
835.0342, 1057.971
835.5163, 1048.984
835.9984, 1056.624
836.4805, 1071.075
836.9626, 1076.464
837.4448, 1073.594
837.9269, 1067.606
838.4090, 1060.670
838.8911, 1057.676
839.3732, 1066.155
839.8553, 1080.702
840.3375, 1078.522
840.8196, 1059.152
841.3017, 1047.505
841.7838, 1048.713
842.2659, 1055.013
842.7480, 1063.176
843.2302, 1070.142
843.7123, 1066.975
844.1944, 1047.403
844.6765, 1039.127
845.1586, 1051.098
845.6407, 1061.018
846.1229, 1058.474
846.6050, 1052.518
847.0871, 1053.402
847.5692, 1060.325
848.0513, 1061.635
848.5334, 1050.552
849.0156, 1040.724
849.4977, 1034.716
849.9798, 1032.336
850.4619, 1036.778
850.9440, 1043.894
851.4261, 1044.738
851.9083, 1036.243
852.3904, 1026.760
852.8725, 1019.330
853.3546, 1015.638
853.8367, 1020.258
854.3188, 1029.101
854.8010, 1034.389
855.2831, 1034.458
855.7652, 1030.714
856.2473, 1022.836
856.7294, 1015.700
857.2115, 1021.239
857.6937, 1035.502
858.1758, 1038.956
858.6579, 1030.186
859.1400, 1024.175
859.6221, 1028.234
860.1042, 1035.506
860.5864, 1035.397
861.0685, 1028.415
861.5506, 1030.419
862.0327, 1045.729
862.5148, 1052.114
862.9969, 1040.069
863.4791, 1027.384
863.9612, 1030.947
864.4433, 1044.169
864.9254, 1042.406
865.4075, 1012.004
865.8896, 995.1705
866.3718, 999.0823
866.8539, 1007.298
867.3360, 1019.158
867.8181, 1029.151
868.3002, 1029.971
868.7823, 1021.829
869.2645, 1014.010
869.7466, 1004.543
870.2287, 1001.457
870.7108, 1015.391
871.1929, 1030.767
871.6750, 1033.847
872.1572, 1026.695
872.6393, 1015.697
873.1214, 1002.693
873.6035, 992.4394
874.0856, 988.6828
874.5677, 989.1436
875.0499, 993.3539
875.5320, 999.1262
876.0141, 1001.938
876.4962, 1001.250
876.9783, 999.8399
877.4604, 999.4898
877.9426, 999.7931
878.4247, 999.8845
878.9068, 1000.075
879.3889, 1001.640
879.8710, 1004.596
880.3531, 1009.093
880.8353, 1015.445
881.3174, 1018.671
881.7995, 1011.316
882.2816, 996.1440
882.7637, 992.1085
883.2458, 1001.176
883.7280, 1006.890
884.2101, 1006.486
884.6922, 1002.360
885.1743, 994.3774
885.6564, 985.5551
886.1385, 982.3423
886.6207, 985.0363
887.1028, 992.4918
887.5849, 1011.122
888.0670, 1024.052
888.5491, 1023.200
889.0313, 1018.105
889.5134, 1018.411
889.9955, 1021.944
890.4776, 1018.263
890.9597, 998.0988
891.4418, 986.3123
891.9240, 994.3875
892.4061, 1002.756
892.8882, 999.2431
893.3703, 990.7057
893.8524, 987.4550
894.3345, 990.5046
894.8167, 992.6097
895.2988, 988.9031
895.7809, 985.9346
896.2630, 990.6272
896.7451, 995.1917
897.2272, 988.2682
897.7094, 974.4983
898.1915, 967.8506
898.6736, 973.3567
899.1557, 981.0756
899.6378, 983.1155
900.1199, 982.9471
900.6021, 986.1276
901.0842, 990.0607
901.5663, 987.1598
902.0484, 977.8372
902.5305, 972.1191
903.0126, 976.8306
903.4948, 984.5873
903.9769, 984.1503
904.4590, 977.9977
904.9411, 972.2816
905.4232, 967.9318
905.9053, 970.3793
906.3875, 981.2888
906.8696, 991.7896
907.3517, 992.9684
907.8338, 987.7988
908.3159, 986.6445
908.7980, 989.5679
909.2802, 987.1273
909.7623, 977.3480
910.2444, 970.3401
910.7265, 971.8696
911.2086, 975.8537
911.6907, 972.8302
912.1729, 962.9602
912.6550, 959.3378
913.1371, 964.0986
913.6192, 968.2032
914.1013, 969.3834
914.5834, 971.1964
915.0656, 977.3456
915.5477, 984.9084
916.0298, 987.0454
916.5119, 982.5107
916.9940, 977.1459
917.4761, 969.5878
917.9583, 963.1445
918.4404, 956.6033
918.9225, 953.1100
919.4046, 956.9161
919.8867, 965.9928
920.3688, 973.0090
920.8510, 978.0243
921.3331, 979.6633
921.8152, 974.2608
922.2973, 969.4459
922.7794, 971.5493
923.2615, 974.3151
923.7437, 966.2843
924.2258, 949.6973
924.7079, 945.4643
925.1900, 970.9356
925.6721, 991.3740
926.1542, 988.8606
926.6364, 979.3036
927.1185, 971.8048
927.6006, 967.9083
928.0827, 970.5038
928.5648, 979.1711
929.0469, 983.0476
929.5291, 968.7180
930.0112, 955.9218
930.4933, 966.3036
930.9754, 982.0324
931.4575, 977.2994
931.9396, 957.6805
932.4218, 945.6019
932.9039, 949.0881
933.3860, 956.8243
933.8681, 962.0507
934.3502, 963.6542
934.8323, 957.3447
935.3145, 947.2550
935.7966, 941.4894
936.2787, 941.0804
936.7608, 944.1288
937.2429, 949.8311
937.7250, 955.4383
938.2072, 958.1074
938.6893, 957.9960
939.1714, 953.1057
939.6535, 945.6105
940.1356, 945.7475
940.6177, 954.8062
941.0999, 960.7966
941.5820, 954.4827
942.0641, 944.4813
942.5462, 949.9799
943.0283, 966.2297
943.5104, 964.4236
943.9926, 945.3621
944.4747, 937.0906
944.9568, 948.4901
945.4389, 962.4893
945.9210, 963.2780
946.4031, 956.3793
946.8853, 959.4269
947.3674, 972.3158
947.8495, 972.4528
948.3316, 957.1313
948.8137, 943.9273
949.2958, 939.6374
949.7780, 939.8804
950.2601, 939.9823
950.7422, 940.2808
951.2243, 942.5953
951.7064, 947.0181
952.1885, 953.6856
952.6707, 964.2584
953.1528, 970.1024
953.6349, 965.3337
954.1170, 957.9091
954.5991, 959.3765
955.0812, 969.0798
955.5634, 972.2628
956.0455, 966.6396
956.5276, 961.3716
957.0097, 957.1691
957.4918, 954.1630
957.9739, 952.4796
958.4561, 951.9575
958.9382, 952.3217
959.4203, 953.5580
959.9024, 955.7959
960.3845, 957.7634
960.8666, 963.7584
961.3488, 981.0295
961.8309, 993.2673
962.3130, 987.3021
962.7951, 971.1979
963.2772, 959.9790
963.7593, 953.6027
964.2415, 952.4261
964.7236, 962.4688
965.2057, 968.9579
965.6878, 966.9045
966.1699, 963.0270
966.6520, 959.7581
967.1342, 958.2280
967.6163, 961.5751
968.0984, 971.4479
968.5805, 979.8040
969.0626, 990.7692
969.5447, 994.1711
970.0269, 978.3957
970.5090, 962.3698
970.9911, 962.2924
971.4732, 973.1625
971.9553, 981.0449
972.4374, 984.4867
972.9196, 985.5703
973.4017, 983.0869
973.8838, 980.2276
974.3659, 974.2164
974.8480, 971.5655
975.3301, 983.7906
975.8123, 1003.953
976.2944, 1009.142
976.7765, 990.4348
977.2586, 974.6263
977.7407, 965.8813
978.2228, 963.4460
978.7050, 968.7249
979.1871, 978.8776
979.6692, 995.8834
980.1513, 1015.338
980.6334, 1023.010
981.1155, 1011.809
981.5977, 1001.377
982.0798, 999.4847
982.5619, 997.4995
983.0440, 987.7973
983.5261, 977.9528
984.0082, 976.2034
984.4904, 982.2391
984.9725, 992.5430
985.4546, 1009.767
985.9367, 1020.494
986.4188, 1013.093
986.9009, 1005.570
987.3831, 1010.410
987.8652, 1019.657
988.3473, 1023.338
988.8294, 1021.779
989.3115, 1022.015
989.7936, 1028.219
990.2758, 1030.258
990.7579, 1017.058
991.2400, 1005.917
991.7221, 1012.602
992.2042, 1024.704
992.6863, 1023.986
993.1685, 1012.651
993.6506, 1010.088
994.1327, 1027.280
994.6148, 1040.329
995.0969, 1034.022
995.5790, 1024.911
996.0612, 1023.812
996.5433, 1026.882
997.0254, 1030.517
997.5075, 1032.959
997.9896, 1029.629
998.4717, 1015.402
998.9539, 1006.118
999.4360, 1011.388
999.9181, 1021.662
1000.400, 1035.134
1000.882, 1046.480
1001.364, 1046.799
1001.847, 1038.512
1002.329, 1035.124
1002.811, 1043.107
1003.293, 1050.665
1003.775, 1050.758
1004.257, 1050.179
1004.739, 1055.450
1005.221, 1061.576
1005.703, 1060.687
1006.186, 1054.074
1006.668, 1050.191
1007.150, 1052.454
1007.632, 1055.692
1008.114, 1058.681
1008.596, 1060.611
1009.078, 1059.635
1009.560, 1058.186
1010.043, 1060.216
1010.525, 1064.659
1011.007, 1066.271
1011.489, 1062.960
1011.971, 1058.548
1012.453, 1049.806
1012.935, 1045.985
1013.417, 1056.932
1013.899, 1072.795
1014.382, 1085.104
1014.864, 1091.775
1015.346, 1089.571
1015.828, 1074.356
1016.310, 1064.429
1016.792, 1072.841
1017.274, 1081.243
1017.756, 1080.219
1018.239, 1073.739
1018.721, 1062.320
1019.203, 1049.807
1019.685, 1046.326
1020.167, 1056.355
1020.649, 1064.370
1021.131, 1062.142
1021.613, 1060.765
1022.095, 1067.906
1022.578, 1076.085
1023.060, 1079.603
1023.542, 1078.071
1024.024, 1070.645
1024.506, 1055.514
1024.988, 1045.570
1025.470, 1047.834
1025.952, 1051.073
1026.435, 1050.648
1026.917, 1050.042
1027.399, 1052.084
1027.881, 1056.174
1028.363, 1060.706
1028.845, 1065.438
1029.327, 1070.862
1029.809, 1078.268
1030.292, 1084.701
1030.774, 1091.625
1031.256, 1095.099
1031.738, 1091.097
1032.220, 1082.378
1032.702, 1073.025
1033.184, 1063.089
1033.666, 1056.227
1034.148, 1054.556
1034.630, 1053.467
1035.113, 1053.700
1035.595, 1052.727
1036.077, 1045.358
1036.559, 1037.912
1037.041, 1041.966
1037.523, 1058.143
1038.005, 1067.284
1038.487, 1064.359
1038.970, 1062.205
1039.452, 1058.468
1039.934, 1059.928
1040.416, 1078.312
1040.898, 1095.823
1041.380, 1086.331
1041.862, 1053.450
1042.344, 1037.895
1042.826, 1049.444
1043.309, 1057.052
1043.791, 1058.281
1044.273, 1058.265
1044.755, 1059.466
1045.237, 1059.266
1045.719, 1054.215
1046.201, 1045.680
1046.683, 1040.045
1047.166, 1038.035
1047.648, 1035.905
1048.130, 1032.034
1048.612, 1033.592
1049.094, 1045.239
1049.576, 1056.617
1050.058, 1059.088
1050.540, 1054.620
1051.022, 1047.306
1051.505, 1036.184
1051.987, 1032.957
1052.469, 1039.241
1052.951, 1042.960
1053.433, 1040.691
1053.915, 1039.205
1054.397, 1043.689
1054.879, 1049.552
1055.361, 1047.480
1055.844, 1038.448
1056.326, 1034.235
1056.808, 1034.797
1057.290, 1036.321
1057.772, 1038.171
1058.254, 1038.887
1058.736, 1037.501
1059.218, 1037.124
1059.701, 1043.253
1060.183, 1052.530
1060.665, 1053.438
1061.147, 1046.949
1061.629, 1035.710
1062.111, 1021.475
1062.593, 1014.246
1063.075, 1017.801
1063.557, 1027.985
1064.040, 1043.159
1064.522, 1057.532
1065.004, 1058.720
1065.486, 1051.300
1065.968, 1044.588
1066.450, 1039.957
1066.932, 1038.964
1067.414, 1041.699
1067.896, 1045.717
1068.379, 1049.081
1068.861, 1054.052
1069.343, 1065.391
1069.825, 1078.231
1070.307, 1087.825
1070.789, 1092.771
1071.271, 1088.019
1071.753, 1076.120
1072.236, 1069.127
1072.718, 1072.641
1073.200, 1080.483
1073.682, 1091.117
1074.164, 1101.035
1074.646, 1109.132
1075.128, 1113.528
1075.610, 1107.991
1076.093, 1097.601
1076.575, 1096.450
1077.057, 1108.537
1077.539, 1120.176
1078.021, 1126.244
1078.503, 1129.470
1078.985, 1128.391
1079.467, 1127.602
1079.949, 1129.938
1080.432, 1135.351
1080.914, 1146.259
1081.396, 1162.006
1081.878, 1167.769
1082.360, 1151.863
1082.842, 1139.697
1083.324, 1135.211
1083.806, 1135.091
1084.288, 1142.005
1084.771, 1149.461
1085.253, 1147.109
1085.735, 1138.568
1086.217, 1142.555
1086.699, 1166.974
1087.181, 1183.169
1087.663, 1192.317
1088.145, 1189.279
1088.628, 1163.952
1089.110, 1142.443
1089.592, 1144.786
1090.074, 1162.927
1090.556, 1180.674
1091.038, 1198.207
1091.520, 1209.382
1092.002, 1213.587
1092.484, 1214.481
1092.967, 1212.247
1093.449, 1209.531
1093.931, 1207.820
1094.413, 1204.819
1094.895, 1195.907
1095.377, 1185.307
1095.859, 1193.226
1096.341, 1215.845
1096.823, 1219.901
1097.306, 1205.203
1097.788, 1198.306
1098.270, 1207.351
1098.752, 1218.785
1099.234, 1222.152
1099.716, 1220.773
1100.198, 1218.705
1100.680, 1216.151
1101.163, 1213.342
1101.645, 1210.454
1102.127, 1206.487
1102.609, 1202.593
1103.091, 1205.365
1103.573, 1218.475
1104.055, 1227.720
1104.537, 1215.968
1105.020, 1200.786
1105.502, 1195.805
1105.984, 1198.738
1106.466, 1211.581
1106.948, 1228.038
1107.430, 1236.205
1107.912, 1233.602
1108.394, 1225.618
1108.876, 1203.764
1109.359, 1193.125
1109.841, 1218.939
1110.323, 1240.981
1110.805, 1226.654
1111.287, 1200.109
1111.769, 1190.053
1112.251, 1196.229
1112.733, 1207.411
1113.215, 1227.898
1113.698, 1240.330
1114.180, 1245.080
1114.662, 1240.005
1115.144, 1216.428
1115.626, 1194.421
1116.108, 1187.989
1116.590, 1191.376
1117.072, 1194.581
1117.555, 1197.611
1118.037, 1197.808
1118.519, 1194.043
1119.001, 1194.461
1119.483, 1200.813
1119.965, 1205.639
1120.447, 1205.433
1120.929, 1205.973
1121.411, 1214.908
1121.894, 1224.850
1122.376, 1210.601
1122.858, 1179.323
1123.340, 1169.508
1123.822, 1179.511
1124.304, 1194.454
1124.786, 1208.842
1125.268, 1212.291
1125.750, 1198.519
1126.233, 1178.517
1126.715, 1159.845
1127.197, 1146.559
1127.679, 1150.073
1128.161, 1159.315
1128.643, 1152.628
1129.125, 1136.446
1129.607, 1134.892
1130.090, 1152.513
1130.572, 1165.799
1131.054, 1159.615
1131.536, 1152.318
1132.018, 1155.047
1132.500, 1158.162
1132.982, 1155.316
1133.464, 1148.892
1133.947, 1140.607
1134.429, 1131.708
1134.911, 1125.194
1135.393, 1120.459
1135.875, 1121.428
1136.357, 1136.402
1136.839, 1145.099
1137.321, 1140.708
1137.803, 1134.414
1138.286, 1133.751
1138.768, 1133.155
1139.250, 1123.114
1139.732, 1105.296
1140.214, 1094.919
1140.696, 1092.120
1141.178, 1098.307
1141.660, 1115.234
1142.142, 1120.724
1142.625, 1107.038
1143.107, 1091.308
1143.589, 1086.697
1144.071, 1088.534
1144.553, 1090.118
1145.035, 1091.030
1145.517, 1089.688
1145.999, 1086.592
1146.482, 1081.958
1146.964, 1077.078
1147.446, 1077.910
1147.928, 1086.008
1148.410, 1090.204
1148.892, 1078.624
1149.374, 1066.007
1149.856, 1068.017
1150.339, 1072.961
1150.821, 1068.079
1151.303, 1058.878
1151.785, 1055.052
1152.267, 1056.256
1152.749, 1055.307
1153.231, 1050.378
1153.713, 1043.657
1154.195, 1032.284
1154.677, 1023.784
1155.160, 1021.127
1155.642, 1021.338
1156.124, 1024.718
1156.606, 1027.949
1157.088, 1025.105
1157.570, 1017.088
1158.052, 1015.734
1158.534, 1024.417
1159.017, 1023.410
1159.499, 1010.154
1159.981, 995.7556
1160.463, 982.7499
1160.945, 976.7524
1161.427, 983.0278
1161.909, 991.9946
1162.391, 984.5513
1162.874, 967.6422
1163.356, 968.5065
1163.838, 979.4796
1164.320, 972.1160
1164.802, 949.3889
1165.284, 937.9186
1165.766, 944.9390
1166.248, 951.7375
1166.730, 945.2500
1167.213, 936.0240
1167.695, 931.4686
1168.177, 929.3805
1168.659, 928.1702
1169.141, 928.0170
1169.623, 930.9613
1170.105, 935.0213
1170.587, 933.9056
1171.069, 925.5540
1171.552, 920.1985
1172.034, 921.4580
1172.516, 922.9244
1172.998, 925.1561
1173.480, 925.2683
1173.962, 922.1929
1174.444, 915.7637
1174.926, 903.3026
1175.409, 889.3033
1175.891, 892.4876
1176.373, 915.1707
1176.855, 919.9481
1177.337, 906.3752
1177.819, 894.3085
1178.301, 887.5908
1178.783, 888.4171
1179.266, 897.8699
1179.748, 907.7419
1180.230, 910.3170
1180.712, 906.1772
1181.194, 890.2960
1181.676, 872.2389
1182.158, 869.4239
1182.640, 877.5829
1183.122, 889.5314
1183.604, 900.9042
1184.087, 902.0881
1184.569, 888.0419
1185.051, 875.6498
1185.533, 874.3729
1186.015, 873.9946
1186.497, 869.5067
1186.979, 865.1553
1187.461, 865.4420
1187.944, 866.6864
1188.426, 861.7683
1188.908, 852.5894
1189.390, 851.7921
1189.872, 863.6194
1190.354, 868.0640
1190.836, 862.9004
1191.318, 861.1940
1191.801, 866.8297
1192.283, 868.4607
1192.765, 859.2227
1193.247, 846.1305
1193.729, 837.0660
1194.211, 831.9688
1194.693, 832.1946
1195.175, 835.6236
1195.657, 836.0325
1196.140, 834.6104
1196.622, 836.9751
1197.104, 842.9114
1197.586, 845.4850
1198.068, 841.2054
1198.550, 837.9084
1199.032, 843.2628
1199.514, 847.4171
1199.996, 842.9578
1200.479, 836.9458
1200.961, 835.3601
1201.443, 835.5923
1201.925, 832.5573
1202.407, 826.9066
1202.889, 825.3571
1203.371, 830.2450
1203.853, 831.5995
1204.336, 828.1517
1204.818, 824.9762
1205.300, 822.6234
1205.782, 823.3269
1206.264, 828.8775
1206.746, 834.2558
1207.228, 833.4122
1207.710, 828.1487
1208.193, 821.7781
1208.675, 815.1298
1209.157, 809.7478
1209.639, 806.5076
1210.121, 809.3716
1210.603, 816.9290
1211.085, 821.0295
1211.567, 818.4011
1212.049, 814.8543
1212.531, 811.5125
1213.014, 811.5420
1213.496, 824.0496
1213.978, 832.2912
1214.460, 815.4793
1214.942, 794.3557
1215.424, 798.3112
1215.906, 820.4605
1216.388, 832.1605
1216.871, 831.6199
1217.353, 831.4890
1217.835, 832.2111
1218.317, 830.9126
1218.799, 826.5873
1219.281, 825.3554
1219.763, 830.1346
1220.245, 833.1708
1220.728, 826.5606
1221.210, 817.4149
1221.692, 820.5454
1222.174, 828.9016
1222.656, 826.7950
1223.138, 818.9776
1223.620, 815.0589
1224.102, 815.5182
1224.584, 818.8742
1225.067, 823.9936
1225.549, 823.9961
1226.031, 813.1754
1226.513, 802.2891
1226.995, 789.9521
1227.477, 784.7334
1227.959, 797.1935
1228.441, 811.0845
1228.923, 814.5591
1229.406, 811.4883
1229.888, 807.7695
1230.370, 803.6981
1230.852, 803.3267
1231.334, 806.8685
1231.816, 809.4294
1232.298, 810.5645
1232.780, 805.5911
1233.263, 794.2122
1233.745, 787.1056
1234.227, 790.3621
1234.709, 798.5518
1235.191, 809.5424
1235.673, 818.4499
1236.155, 818.2776
1236.637, 814.5847
1237.120, 813.6438
1237.602, 813.5954
1238.084, 810.6362
1238.566, 804.9670
1239.048, 798.8814
1239.530, 791.6652
1240.012, 788.8498
1240.494, 791.0699
1240.976, 797.8525
1241.458, 814.4636
##END=



