##NAMES=Stilpnomelane
##RRUFFID=R070696
##IDEAL CHEMISTRY=(K,Ca,Na)(Fe^2+^,Mg,Al,Fe^3+^)_8_(Si,Al)_12_(O,OH)_36_&#183;nH_2_O
##LOCALITY=Brunsjo mine, Grythyttan, Vastmanland, Sweden
##OWNER=RRUFF
##SOURCE=James Shigley
##DESCRIPTION=Radiating black platy
##STATUS=The identification of this mineral has been confirmed by single-crystal X-ray diffraction.
##URL=rruff.info/R070696
114.9269, 26502.35
115.4091, 26546.35
115.8912, 26565.98
116.3733, 26559.61
116.8554, 26533.51
117.3375, 26486.45
117.8196, 26419.36
118.3018, 26338.42
118.7839, 26253.29
119.2660, 26140.21
119.7481, 26056.10
120.2302, 26001.83
120.7123, 25975.26
121.1945, 25982.24
121.6766, 26028.92
122.1587, 26099.32
122.6408, 26130.36
123.1229, 26110.88
123.6050, 26075.37
124.0872, 26021.29
124.5693, 25955.58
125.0514, 25906.49
125.5335, 25902.04
126.0156, 25929.18
126.4978, 25922.48
126.9799, 25843.81
127.4620, 25751.55
127.9441, 25706.49
128.4262, 25716.94
128.9083, 25737.83
129.3905, 25738.50
129.8726, 25724.02
130.3547, 25701.06
130.8368, 25675.30
131.3189, 25643.52
131.8010, 25591.38
132.2832, 25499.91
132.7653, 25410.98
133.2474, 25344.73
133.7295, 25300.49
134.2116, 25274.55
134.6937, 25273.17
135.1759, 25302.33
135.6580, 25310.46
136.1401, 25268.77
136.6222, 25222.25
137.1043, 25199.85
137.5864, 25204.27
138.0686, 25209.34
138.5507, 25168.78
139.0328, 25037.42
139.5149, 24945.91
139.9970, 24927.78
140.4791, 24933.88
140.9613, 24919.84
141.4434, 24866.80
141.9255, 24789.65
142.4076, 24737.24
142.8897, 24741.56
143.3718, 24737.46
143.8540, 24700.49
144.3361, 24651.78
144.8182, 24635.04
145.3003, 24685.61
145.7824, 24791.47
146.2645, 24797.88
146.7467, 24622.11
147.2288, 24448.20
147.7109, 24354.31
148.1930, 24337.65
148.6751, 24357.71
149.1572, 24393.84
149.6394, 24444.46
150.1215, 24467.26
150.6036, 24436.58
151.0857, 24390.94
151.5678, 24365.01
152.0499, 24362.56
152.5321, 24378.44
153.0142, 24428.25
153.4963, 24502.06
153.9784, 24546.04
154.4605, 24526.66
154.9426, 24464.64
155.4248, 24405.30
155.9069, 24347.37
156.3890, 24307.83
156.8711, 24299.32
157.3532, 24319.91
157.8353, 24355.56
158.3175, 24402.93
158.7996, 24461.52
159.2817, 24514.04
159.7638, 24570.99
160.2459, 24608.26
160.7280, 24604.96
161.2102, 24558.80
161.6923, 24494.97
162.1744, 24440.39
162.6565, 24395.64
163.1386, 24359.66
163.6208, 24343.72
164.1029, 24329.14
164.5850, 24295.35
165.0671, 24235.11
165.5492, 24170.83
166.0313, 24153.82
166.5135, 24224.88
166.9956, 24283.08
167.4777, 24313.22
167.9598, 24325.90
168.4419, 24330.44
168.9240, 24331.12
169.4062, 24329.75
169.8883, 24335.49
170.3704, 24400.45
170.8525, 24416.17
171.3346, 24323.88
171.8167, 24171.85
172.2989, 24040.78
172.7810, 23984.15
173.2631, 24000.94
173.7452, 24034.98
174.2273, 24113.36
174.7094, 24179.26
175.1916, 24211.34
175.6737, 24210.81
176.1558, 24189.43
176.6379, 24155.35
177.1200, 24106.94
177.6021, 24049.96
178.0843, 23956.59
178.5664, 23874.29
179.0485, 23846.51
179.5306, 23876.09
180.0127, 23916.42
180.4948, 23919.76
180.9770, 23884.38
181.4591, 23857.15
181.9412, 23839.27
182.4233, 23833.77
182.9054, 23854.26
183.3875, 23910.47
183.8697, 23961.37
184.3518, 23948.63
184.8339, 23881.33
185.3160, 23811.99
185.7981, 23749.80
186.2802, 23698.57
186.7624, 23669.71
187.2445, 23673.22
187.7266, 23688.89
188.2087, 23696.38
188.6908, 23696.08
189.1729, 23694.14
189.6551, 23694.25
190.1372, 23696.09
190.6193, 23696.78
191.1014, 23692.88
191.5835, 23690.46
192.0656, 23700.57
192.5478, 23724.15
193.0299, 23736.95
193.5120, 23706.93
193.9941, 23628.01
194.4762, 23565.24
194.9583, 23539.85
195.4405, 23531.94
195.9226, 23541.29
196.4047, 23567.60
196.8868, 23585.83
197.3689, 23545.50
197.8510, 23404.44
198.3332, 23333.71
198.8153, 23460.49
199.2974, 23608.63
199.7795, 23628.71
200.2616, 23469.40
200.7437, 23232.47
201.2259, 23121.54
201.7080, 23216.67
202.1901, 23300.72
202.6722, 23346.38
203.1543, 23367.51
203.6364, 23375.27
204.1186, 23374.42
204.6007, 23366.00
205.0828, 23352.36
205.5649, 23326.13
206.0470, 23304.37
206.5291, 23297.99
207.0113, 23294.51
207.4934, 23276.29
207.9755, 23232.96
208.4576, 23172.36
208.9397, 23131.58
209.4218, 23126.02
209.9040, 23125.39
210.3861, 23132.06
210.8682, 23140.05
211.3503, 23138.28
211.8324, 23118.26
212.3146, 23084.21
212.7967, 23076.51
213.2788, 23127.70
213.7609, 23167.80
214.2430, 23173.55
214.7251, 23153.36
215.2073, 23126.59
215.6894, 23104.73
216.1715, 23087.95
216.6536, 23078.75
217.1357, 23082.02
217.6178, 23086.03
218.1000, 23088.49
218.5821, 23088.08
219.0642, 23080.74
219.5463, 23060.75
220.0284, 23029.27
220.5105, 23014.67
220.9927, 23027.58
221.4748, 23045.88
221.9569, 23057.25
222.4390, 23062.18
222.9211, 23069.36
223.4032, 23088.73
223.8854, 23118.72
224.3675, 23129.57
224.8496, 23109.40
225.3317, 23079.50
225.8138, 23055.67
226.2959, 23038.55
226.7781, 23018.13
227.2602, 22982.99
227.7423, 22935.24
228.2244, 22900.54
228.7065, 22885.26
229.1886, 22880.65
229.6708, 22880.80
230.1529, 22885.43
230.6350, 22890.55
231.1171, 22894.48
231.5992, 22896.43
232.0813, 22892.48
232.5635, 22873.89
233.0456, 22852.85
233.5277, 22847.40
234.0098, 22861.43
234.4919, 22873.87
234.9740, 22855.43
235.4562, 22819.22
235.9383, 22806.28
236.4204, 22845.22
236.9025, 22907.49
237.3846, 22952.54
237.8667, 22978.02
238.3489, 22987.97
238.8310, 22980.79
239.3131, 22960.41
239.7952, 22932.85
240.2773, 22891.60
240.7594, 22846.25
241.2416, 22816.13
241.7237, 22806.47
242.2058, 22800.30
242.6879, 22775.08
243.1700, 22742.52
243.6521, 22732.18
244.1343, 22773.56
244.6164, 22844.19
245.0985, 22893.74
245.5806, 22922.60
246.0627, 22925.48
246.5448, 22887.23
247.0270, 22822.40
247.5091, 22761.41
247.9912, 22719.86
248.4733, 22692.99
248.9554, 22664.76
249.4375, 22627.57
249.9197, 22604.71
250.4018, 22621.08
250.8839, 22660.12
251.3660, 22687.14
251.8481, 22670.60
252.3302, 22627.67
252.8124, 22620.30
253.2945, 22669.35
253.7766, 22720.65
254.2587, 22752.30
254.7408, 22766.30
255.2229, 22765.35
255.7051, 22748.81
256.1872, 22718.47
256.6693, 22675.38
257.1514, 22595.26
257.6335, 22543.79
258.1157, 22560.85
258.5978, 22621.71
259.0799, 22681.58
259.5620, 22719.75
260.0441, 22736.78
260.5262, 22732.82
261.0084, 22692.05
261.4905, 22653.62
261.9726, 22633.23
262.4547, 22625.82
262.9368, 22622.98
263.4189, 22620.30
263.9011, 22618.47
264.3832, 22619.50
264.8653, 22618.05
265.3474, 22629.14
265.8295, 22661.50
266.3116, 22707.52
266.7938, 22756.26
267.2759, 22805.03
267.7580, 22850.88
268.2401, 22883.30
268.7222, 22902.62
269.2043, 22906.01
269.6865, 22880.35
270.1686, 22843.60
270.6507, 22822.91
271.1328, 22837.03
271.6149, 22872.97
272.0970, 22883.74
272.5792, 22842.97
273.0613, 22820.86
273.5434, 22856.64
274.0255, 22915.39
274.5076, 22944.95
274.9897, 22908.08
275.4719, 22843.45
275.9540, 22877.33
276.4361, 23102.53
276.9182, 23259.95
277.4003, 23246.34
277.8824, 23150.18
278.3646, 23068.52
278.8467, 23044.58
279.3288, 23062.13
279.8109, 23083.76
280.2930, 23109.96
280.7751, 23139.89
281.2573, 23179.63
281.7394, 23219.80
282.2215, 23249.10
282.7036, 23261.71
283.1857, 23267.44
283.6678, 23290.56
284.1500, 23349.32
284.6321, 23384.07
285.1142, 23363.10
285.5963, 23325.55
286.0784, 23301.46
286.5605, 23300.63
287.0427, 23323.54
287.5248, 23386.55
288.0069, 23533.87
288.4890, 23604.37
288.9711, 23493.24
289.4532, 23345.86
289.9354, 23280.38
290.4175, 23329.77
290.8996, 23420.74
291.3817, 23441.33
291.8638, 23363.67
292.3459, 23306.43
292.8281, 23311.14
293.3102, 23326.05
293.7923, 23313.45
294.2744, 23267.17
294.7565, 23217.39
295.2386, 23205.83
295.7208, 23243.23
296.2029, 23268.03
296.6850, 23269.54
297.1671, 23258.23
297.6492, 23222.64
298.1313, 23168.26
298.6135, 23134.67
299.0956, 23178.71
299.5777, 23313.57
300.0598, 23413.43
300.5419, 23480.59
301.0240, 23494.60
301.5062, 23409.79
301.9883, 23244.43
302.4704, 23089.76
302.9525, 23033.62
303.4346, 23078.12
303.9167, 23113.71
304.3989, 23141.59
304.8810, 23154.14
305.3631, 23138.53
305.8452, 23103.00
306.3273, 23073.31
306.8094, 23080.25
307.2916, 23116.76
307.7737, 23111.19
308.2558, 23028.90
308.7379, 22949.17
309.2200, 22918.94
309.7021, 22918.84
310.1843, 22904.64
310.6664, 22832.73
311.1485, 22728.49
311.6306, 22690.92
312.1127, 22755.66
312.5948, 22823.57
313.0770, 22847.13
313.5591, 22844.08
314.0412, 22841.25
314.5233, 22853.20
315.0054, 22870.25
315.4875, 22869.97
315.9697, 22845.41
316.4518, 22822.41
316.9339, 22818.44
317.4160, 22820.18
317.8981, 22812.86
318.3802, 22792.09
318.8624, 22760.03
319.3445, 22699.75
319.8266, 22595.55
320.3087, 22555.94
320.7908, 22699.21
321.2729, 22893.83
321.7551, 23014.61
322.2372, 23030.73
322.7193, 22996.28
323.2014, 22955.56
323.6835, 22908.76
324.1656, 22854.76
324.6478, 22768.33
325.1299, 22696.87
325.6120, 22701.04
326.0941, 22795.43
326.5762, 22882.80
327.0583, 22883.62
327.5405, 22812.52
328.0226, 22747.87
328.5047, 22697.99
328.9868, 22673.26
329.4689, 22697.50
329.9510, 22770.18
330.4332, 22815.65
330.9153, 22770.97
331.3974, 22673.14
331.8795, 22615.23
332.3616, 22618.57
332.8438, 22645.64
333.3259, 22673.09
333.8080, 22698.84
334.2901, 22699.02
334.7722, 22637.13
335.2544, 22557.69
335.7365, 22529.24
336.2186, 22562.46
336.7007, 22602.54
337.1828, 22603.48
337.6649, 22572.25
338.1471, 22546.94
338.6292, 22522.03
339.1113, 22511.43
339.5934, 22538.30
340.0755, 22599.23
340.5576, 22652.70
341.0398, 22671.67
341.5219, 22660.79
342.0040, 22650.91
342.4861, 22659.70
342.9682, 22652.33
343.4503, 22585.50
343.9325, 22483.86
344.4146, 22426.29
344.8967, 22458.39
345.3788, 22548.33
345.8609, 22597.94
346.3430, 22598.56
346.8252, 22584.63
347.3073, 22555.73
347.7894, 22519.80
348.2715, 22485.10
348.7536, 22453.59
349.2357, 22433.92
349.7179, 22444.85
350.2000, 22513.14
350.6821, 22556.24
351.1642, 22557.79
351.6463, 22539.21
352.1284, 22508.92
352.6106, 22472.57
353.0927, 22453.52
353.5748, 22486.12
354.0569, 22598.16
354.5390, 22652.33
355.0211, 22609.56
355.5033, 22550.32
355.9854, 22513.40
356.4675, 22502.12
356.9496, 22505.93
357.4317, 22516.79
357.9138, 22534.72
358.3960, 22558.64
358.8781, 22615.65
359.3602, 22649.81
359.8423, 22629.27
360.3244, 22575.65
360.8065, 22526.48
361.2887, 22502.80
361.7708, 22500.71
362.2529, 22503.63
362.7350, 22514.64
363.2171, 22526.63
363.6992, 22550.06
364.1814, 22568.91
364.6635, 22560.48
365.1456, 22516.80
365.6277, 22461.83
366.1098, 22436.80
366.5919, 22445.07
367.0741, 22476.49
367.5562, 22584.57
368.0383, 22674.93
368.5204, 22669.75
369.0025, 22566.65
369.4846, 22442.92
369.9668, 22382.23
370.4489, 22390.16
370.9310, 22387.24
371.4131, 22351.46
371.8952, 22323.48
372.3773, 22332.14
372.8595, 22367.43
373.3416, 22395.74
373.8237, 22386.27
374.3058, 22351.71
374.7879, 22344.18
375.2701, 22374.71
375.7522, 22409.32
376.2343, 22441.35
376.7164, 22463.81
377.1985, 22461.04
377.6806, 22413.47
378.1628, 22354.39
378.6449, 22331.43
379.1270, 22347.16
379.6091, 22362.01
380.0912, 22362.09
380.5733, 22349.20
381.0555, 22323.71
381.5376, 22277.25
382.0197, 22240.44
382.5018, 22244.28
382.9839, 22276.52
383.4660, 22290.29
383.9482, 22266.14
384.4303, 22230.53
384.9124, 22221.92
385.3945, 22240.55
385.8766, 22264.11
386.3587, 22300.11
386.8409, 22331.73
387.3230, 22331.29
387.8051, 22294.37
388.2872, 22253.28
388.7693, 22240.17
389.2514, 22258.58
389.7336, 22262.51
390.2157, 22244.37
390.6978, 22218.78
391.1799, 22181.88
391.6620, 22142.37
392.1441, 22130.60
392.6263, 22171.00
393.1084, 22250.60
393.5905, 22285.59
394.0726, 22228.63
394.5547, 22187.36
395.0368, 22200.69
395.5190, 22234.11
396.0011, 22238.10
396.4832, 22194.18
396.9653, 22128.53
397.4474, 22092.07
397.9295, 22112.40
398.4117, 22112.79
398.8938, 22065.85
399.3759, 22021.88
399.8580, 22026.88
400.3401, 22077.09
400.8222, 22124.45
401.3044, 22114.45
401.7865, 22040.22
402.2686, 21990.32
402.7507, 21976.69
403.2328, 21977.64
403.7149, 21997.99
404.1971, 22026.59
404.6792, 22043.18
405.1613, 22034.02
405.6434, 22007.33
406.1255, 21983.09
406.6076, 21956.59
407.0898, 21944.56
407.5719, 21983.16
408.0540, 22024.57
408.5361, 22013.00
409.0182, 21927.12
409.5003, 21827.99
409.9825, 21772.47
410.4646, 21759.41
410.9467, 21769.95
411.4288, 21816.82
411.9109, 21865.80
412.3930, 21880.62
412.8752, 21862.31
413.3573, 21836.81
413.8394, 21814.61
414.3215, 21792.52
414.8036, 21760.99
415.2857, 21717.20
415.7679, 21682.17
416.2500, 21677.80
416.7321, 21700.80
417.2142, 21713.14
417.6963, 21706.56
418.1784, 21694.84
418.6606, 21684.08
419.1427, 21674.80
419.6248, 21667.45
420.1069, 21661.93
420.5890, 21658.84
421.0711, 21660.73
421.5533, 21688.62
422.0354, 21691.98
422.5175, 21647.68
422.9996, 21584.64
423.4817, 21528.88
423.9638, 21488.24
424.4460, 21463.23
424.9281, 21456.36
425.4102, 21474.70
425.8923, 21486.16
426.3744, 21479.50
426.8565, 21477.83
427.3387, 21498.75
427.8208, 21534.16
428.3029, 21563.14
428.7850, 21571.76
429.2671, 21561.62
429.7492, 21541.24
430.2314, 21512.53
430.7135, 21468.31
431.1956, 21379.71
431.6777, 21289.30
432.1598, 21247.61
432.6420, 21272.06
433.1241, 21322.17
433.6062, 21358.60
434.0883, 21382.78
434.5704, 21360.74
435.0526, 21236.23
435.5347, 21115.86
436.0168, 21099.98
436.4989, 21178.23
436.9810, 21241.15
437.4631, 21207.16
437.9453, 21128.27
438.4274, 21114.39
438.9095, 21183.53
439.3916, 21242.98
439.8737, 21216.92
440.3558, 21128.24
440.8380, 21070.71
441.3201, 21069.40
441.8022, 21080.78
442.2843, 21080.16
442.7664, 21073.13
443.2485, 21077.44
443.7307, 21102.74
444.2128, 21133.69
444.6949, 21139.69
445.1770, 21108.73
445.6591, 21075.80
446.1412, 21031.58
446.6234, 20992.69
447.1055, 20981.21
447.5876, 20994.12
448.0697, 21000.22
448.5518, 20964.88
449.0339, 20884.32
449.5161, 20853.31
449.9982, 20944.04
450.4803, 21007.33
450.9624, 20977.86
451.4445, 20905.81
451.9266, 20871.48
452.4088, 20914.86
452.8909, 20993.28
453.3730, 21023.19
453.8551, 20995.57
454.3372, 20949.27
454.8193, 20856.10
455.3015, 20771.43
455.7836, 20732.40
456.2657, 20740.51
456.7478, 20767.37
457.2299, 20805.58
457.7120, 20847.38
458.1942, 20861.88
458.6763, 20840.48
459.1584, 20810.55
459.6405, 20783.95
460.1226, 20762.88
460.6047, 20754.34
461.0869, 20770.70
461.5690, 20788.51
462.0511, 20792.99
462.5332, 20784.63
463.0153, 20760.84
463.4974, 20714.70
463.9796, 20665.54
464.4617, 20653.93
464.9438, 20694.74
465.4259, 20730.83
465.9080, 20755.62
466.3901, 20773.09
466.8723, 20785.00
467.3544, 20792.43
467.8365, 20799.07
468.3186, 20809.79
468.8007, 20824.55
469.2828, 20820.77
469.7650, 20784.16
470.2471, 20744.37
470.7292, 20689.79
471.2113, 20641.62
471.6934, 20632.54
472.1755, 20675.66
472.6577, 20740.78
473.1398, 20771.44
473.6219, 20753.63
474.1040, 20762.37
474.5861, 20852.20
475.0682, 20932.09
475.5504, 20940.11
476.0325, 20885.20
476.5146, 20826.74
476.9967, 20798.97
477.4788, 20792.96
477.9609, 20786.14
478.4431, 20775.67
478.9252, 20781.03
479.4073, 20829.92
479.8894, 20896.83
480.3715, 20925.99
480.8536, 20901.76
481.3358, 20862.92
481.8179, 20809.56
482.3000, 20758.88
482.7821, 20753.93
483.2642, 20809.39
483.7463, 20878.33
484.2285, 20900.33
484.7106, 20859.52
485.1927, 20836.00
485.6748, 20840.67
486.1569, 20851.08
486.6390, 20847.38
487.1212, 20839.18
487.6033, 20854.74
488.0854, 20913.37
488.5675, 20997.88
489.0496, 21049.52
489.5317, 21047.03
490.0139, 21048.67
490.4960, 21071.66
490.9781, 21093.91
491.4602, 21093.82
491.9423, 21070.94
492.4244, 21048.42
492.9066, 21043.05
493.3887, 21054.99
493.8708, 21093.73
494.3529, 21183.87
494.8350, 21250.31
495.3171, 21206.00
495.7993, 21114.61
496.2814, 21090.54
496.7635, 21194.67
497.2456, 21321.28
497.7277, 21398.72
498.2098, 21430.12
498.6920, 21415.51
499.1741, 21343.10
499.6562, 21261.08
500.1383, 21244.02
500.6204, 21311.85
501.1025, 21362.38
501.5847, 21393.62
502.0668, 21402.70
502.5489, 21362.73
503.0310, 21294.11
503.5131, 21262.50
503.9952, 21314.19
504.4774, 21428.16
504.9595, 21509.35
505.4416, 21548.05
505.9237, 21565.67
506.4058, 21549.88
506.8879, 21525.76
507.3701, 21512.54
507.8522, 21513.98
508.3343, 21523.63
508.8164, 21534.12
509.2985, 21546.29
509.7806, 21573.22
510.2628, 21627.56
510.7449, 21673.07
511.2270, 21688.03
511.7091, 21681.27
512.1912, 21664.15
512.6733, 21632.61
513.1555, 21602.08
513.6376, 21582.42
514.1197, 21573.54
514.6018, 21576.91
515.0839, 21594.75
515.5660, 21618.28
516.0482, 21634.90
516.5303, 21640.92
517.0124, 21658.36
517.4945, 21699.02
517.9766, 21741.47
518.4587, 21774.07
518.9409, 21797.46
519.4230, 21816.81
519.9051, 21835.69
520.3872, 21850.58
520.8693, 21848.05
521.3514, 21809.05
521.8336, 21789.01
522.3157, 21808.70
522.7978, 21834.44
523.2799, 21841.53
523.7620, 21829.72
524.2441, 21816.73
524.7263, 21812.88
525.2084, 21818.82
525.6905, 21840.79
526.1726, 21885.05
526.6547, 21924.53
527.1368, 21947.38
527.6190, 21955.93
528.1011, 21948.48
528.5832, 21909.71
529.0653, 21892.70
529.5474, 21950.61
530.0295, 22042.89
530.5117, 22090.59
530.9938, 22077.50
531.4759, 22052.58
531.9580, 22065.36
532.4401, 22119.52
532.9222, 22154.44
533.4044, 22156.30
533.8865, 22157.39
534.3686, 22170.81
534.8507, 22189.38
535.3328, 22197.34
535.8149, 22189.23
536.2971, 22183.75
536.7792, 22217.38
537.2613, 22302.95
537.7434, 22362.93
538.2255, 22383.81
538.7076, 22386.48
539.1898, 22372.44
539.6719, 22348.92
540.1540, 22332.02
540.6361, 22324.39
541.1182, 22331.35
541.6003, 22370.39
542.0825, 22437.80
542.5646, 22485.58
543.0467, 22488.55
543.5288, 22478.04
544.0109, 22510.89
544.4930, 22598.33
544.9752, 22655.66
545.4573, 22658.13
545.9394, 22636.29
546.4215, 22601.10
546.9036, 22561.09
547.3857, 22532.69
547.8679, 22525.06
548.3500, 22539.47
548.8321, 22583.66
549.3142, 22682.91
549.7963, 22767.49
550.2784, 22840.85
550.7606, 22892.40
551.2427, 22908.87
551.7248, 22893.72
552.2069, 22867.87
552.6890, 22838.30
553.1711, 22811.49
553.6533, 22808.75
554.1354, 22832.76
554.6175, 22867.89
555.0996, 22901.97
555.5817, 22946.90
556.0638, 23029.73
556.5460, 23175.89
557.0281, 23281.79
557.5102, 23265.33
557.9923, 23206.49
558.4744, 23221.52
558.9565, 23317.07
559.4387, 23402.29
559.9208, 23399.34
560.4029, 23319.21
560.8850, 23279.29
561.3671, 23311.26
561.8492, 23346.96
562.3314, 23381.07
562.8135, 23413.99
563.2956, 23446.16
563.7777, 23477.83
564.2598, 23510.19
564.7419, 23551.61
565.2241, 23598.94
565.7062, 23612.57
566.1883, 23570.96
566.6704, 23544.96
567.1525, 23599.08
567.6346, 23684.49
568.1168, 23724.78
568.5989, 23690.74
569.0810, 23658.15
569.5631, 23682.04
570.0452, 23732.27
570.5273, 23749.67
571.0095, 23723.93
571.4916, 23697.44
571.9737, 23713.27
572.4558, 23771.24
572.9379, 23794.93
573.4200, 23726.44
573.9022, 23695.67
574.3843, 23767.71
574.8664, 23873.89
575.3485, 23929.19
575.8306, 23914.26
576.3127, 23885.57
576.7949, 23914.44
577.2770, 23998.45
577.7591, 24050.70
578.2412, 24059.40
578.7233, 24056.07
579.2054, 24040.96
579.6876, 24029.35
580.1697, 24052.45
580.6519, 24137.23
581.1340, 24209.23
581.6161, 24200.98
582.0982, 24153.86
582.5803, 24155.07
583.0624, 24221.55
583.5446, 24291.64
584.0267, 24305.09
584.5088, 24261.44
584.9909, 24241.54
585.4730, 24269.61
585.9551, 24290.85
586.4373, 24282.61
586.9194, 24267.07
587.4015, 24277.89
587.8836, 24320.20
588.3657, 24355.20
588.8478, 24321.46
589.3300, 24227.64
589.8121, 24202.26
590.2942, 24281.08
590.7763, 24352.49
591.2584, 24344.91
591.7405, 24292.45
592.2227, 24243.50
592.7048, 24191.76
593.1869, 24170.67
593.6690, 24232.16
594.1511, 24321.92
594.6332, 24346.52
595.1154, 24294.69
595.5975, 24235.68
596.0796, 24231.70
596.5617, 24277.71
597.0438, 24293.86
597.5259, 24259.94
598.0081, 24219.54
598.4902, 24165.64
598.9723, 24115.28
599.4544, 24081.72
599.9365, 24068.17
600.4186, 24073.40
600.9008, 24111.46
601.3829, 24169.67
601.8650, 24186.93
602.3471, 24152.71
602.8292, 24125.63
603.3113, 24142.16
603.7935, 24179.78
604.2756, 24192.93
604.7577, 24176.57
605.2398, 24151.35
605.7219, 24124.34
606.2040, 24090.82
606.6862, 24037.91
607.1683, 23970.31
607.6504, 23913.21
608.1325, 23884.38
608.6146, 23878.84
609.0967, 23880.59
609.5789, 23915.59
610.0610, 23906.77
610.5431, 23784.24
611.0252, 23666.62
611.5073, 23652.81
611.9894, 23729.30
612.4716, 23791.56
612.9537, 23765.30
613.4358, 23695.21
613.9179, 23651.19
614.4000, 23632.08
614.8821, 23614.36
615.3643, 23591.31
615.8464, 23561.43
616.3285, 23521.09
616.8106, 23466.95
617.2927, 23414.17
617.7748, 23348.22
618.2570, 23298.19
618.7391, 23296.31
619.2212, 23321.64
619.7033, 23332.82
620.1854, 23310.75
620.6675, 23260.71
621.1497, 23180.05
621.6318, 23060.54
622.1139, 22975.46
622.5960, 22945.39
623.0781, 22933.18
623.5602, 22921.61
624.0424, 22908.93
624.5245, 22891.06
625.0066, 22870.29
625.4887, 22839.27
625.9708, 22782.56
626.4529, 22713.56
626.9351, 22666.00
627.4172, 22646.98
627.8993, 22625.29
628.3814, 22564.88
628.8635, 22464.43
629.3456, 22399.46
629.8278, 22408.67
630.3099, 22408.81
630.7920, 22383.60
631.2741, 22344.74
631.7562, 22302.54
632.2383, 22259.76
632.7205, 22217.60
633.2026, 22178.63
633.6847, 22141.09
634.1668, 22099.21
634.6489, 22052.70
635.1310, 22003.35
635.6132, 21950.55
636.0953, 21896.37
636.5774, 21844.07
637.0595, 21789.39
637.5416, 21747.25
638.0237, 21723.64
638.5059, 21710.62
638.9880, 21712.74
639.4701, 21720.51
639.9522, 21707.51
640.4343, 21656.32
640.9164, 21588.41
641.3986, 21555.00
641.8807, 21565.24
642.3628, 21563.23
642.8449, 21541.20
643.3270, 21505.06
643.8091, 21453.86
644.2913, 21392.37
644.7734, 21336.09
645.2555, 21285.04
645.7376, 21245.83
646.2197, 21237.06
646.7018, 21241.12
647.1840, 21219.85
647.6661, 21164.20
648.1482, 21093.26
648.6303, 21024.16
649.1124, 20956.64
649.5945, 20911.64
650.0767, 20901.46
650.5588, 20899.16
651.0409, 20913.56
651.5230, 20924.77
652.0051, 20913.78
652.4872, 20877.58
652.9694, 20826.49
653.4515, 20755.94
653.9336, 20679.35
654.4157, 20625.65
654.8978, 20594.98
655.3799, 20572.94
655.8621, 20557.49
656.3442, 20538.88
656.8263, 20495.87
657.3084, 20405.61
657.7905, 20343.77
658.2726, 20336.10
658.7548, 20332.43
659.2369, 20297.96
659.7190, 20248.10
660.2011, 20220.81
660.6832, 20234.82
661.1653, 20257.26
661.6475, 20234.13
662.1296, 20169.02
662.6117, 20126.93
663.0938, 20123.77
663.5759, 20122.28
664.0580, 20094.54
664.5402, 20047.71
665.0223, 20009.42
665.5044, 19990.85
665.9865, 19964.80
666.4686, 19911.54
666.9507, 19853.76
667.4329, 19820.98
667.9150, 19811.42
668.3971, 19796.10
668.8792, 19750.15
669.3613, 19687.85
669.8434, 19666.26
670.3256, 19708.88
670.8077, 19706.18
671.2898, 19587.52
671.7719, 19463.30
672.2540, 19432.67
672.7361, 19480.64
673.2183, 19514.00
673.7004, 19491.99
674.1825, 19460.35
674.6646, 19466.19
675.1467, 19483.01
675.6288, 19444.29
676.1110, 19334.74
676.5931, 19217.24
677.0752, 19161.49
677.5573, 19167.47
678.0394, 19189.71
678.5215, 19265.30
679.0037, 19296.65
679.4858, 19211.17
679.9679, 19103.05
680.4500, 19073.11
680.9321, 19131.20
681.4142, 19176.94
681.8964, 19127.93
682.3785, 19055.66
682.8606, 19070.46
683.3427, 19152.14
683.8248, 19185.95
684.3069, 19119.33
684.7891, 19005.80
685.2712, 18930.97
685.7533, 18904.55
686.2354, 18881.15
686.7175, 18841.26
687.1996, 18826.23
687.6818, 18889.03
688.1639, 18968.56
688.6460, 18970.07
689.1281, 18863.74
689.6102, 18748.58
690.0923, 18698.95
690.5745, 18697.46
691.0566, 18721.46
691.5387, 18766.64
692.0208, 18785.59
692.5029, 18747.79
692.9850, 18674.24
693.4672, 18617.05
693.9493, 18577.46
694.4314, 18552.99
694.9135, 18555.80
695.3956, 18560.49
695.8777, 18545.66
696.3599, 18524.97
696.8420, 18530.54
697.3241, 18579.98
697.8062, 18631.39
698.2883, 18636.58
698.7704, 18605.99
699.2526, 18571.25
699.7347, 18535.15
700.2168, 18510.58
700.6989, 18509.07
701.1810, 18524.25
701.6631, 18531.14
702.1453, 18524.67
702.6274, 18516.51
703.1095, 18493.69
703.5916, 18480.56
704.0737, 18512.83
704.5558, 18568.36
705.0380, 18584.53
705.5201, 18521.13
706.0022, 18434.54
706.4843, 18406.48
706.9664, 18425.09
707.4485, 18421.88
707.9307, 18382.10
708.4128, 18342.03
708.8949, 18332.58
709.3770, 18347.80
709.8591, 18348.30
710.3412, 18311.79
710.8234, 18291.81
711.3055, 18293.91
711.7876, 18313.73
712.2697, 18354.33
712.7518, 18410.02
713.2339, 18471.23
713.7161, 18544.71
714.1982, 18595.32
714.6803, 18538.72
715.1624, 18395.48
715.6445, 18321.24
716.1266, 18355.00
716.6088, 18426.93
717.0909, 18488.53
717.5730, 18537.89
718.0551, 18550.45
718.5372, 18473.44
719.0193, 18433.97
719.5015, 18501.92
719.9836, 18573.37
720.4657, 18548.39
720.9478, 18441.61
721.4299, 18346.54
721.9120, 18321.75
722.3942, 18333.41
722.8763, 18339.70
723.3584, 18338.97
723.8405, 18312.17
724.3226, 18248.70
724.8047, 18192.54
725.2869, 18182.81
725.7690, 18217.13
726.2511, 18265.37
726.7332, 18365.57
727.2153, 18427.61
727.6974, 18403.40
728.1796, 18365.20
728.6617, 18382.24
729.1438, 18443.78
729.6259, 18482.62
730.1080, 18457.23
730.5901, 18396.24
731.0723, 18326.44
731.5544, 18252.95
732.0365, 18195.69
732.5186, 18157.46
733.0007, 18156.19
733.4828, 18221.26
733.9650, 18341.47
734.4471, 18398.32
734.9292, 18346.84
735.4113, 18290.45
735.8934, 18219.09
736.3755, 18160.02
736.8577, 18136.45
737.3398, 18143.71
737.8219, 18159.16
738.3040, 18173.45
738.7861, 18188.46
739.2682, 18206.97
739.7504, 18227.81
740.2325, 18251.18
740.7146, 18277.00
741.1967, 18290.34
741.6788, 18275.19
742.1609, 18238.33
742.6431, 18223.10
743.1252, 18257.90
743.6073, 18264.26
744.0894, 18208.63
744.5715, 18147.80
745.0536, 18116.64
745.5358, 18110.53
746.0179, 18108.41
746.5000, 18101.50
746.9821, 18098.33
747.4642, 18115.17
747.9464, 18137.71
748.4285, 18129.87
748.9106, 18090.89
749.3927, 18065.01
749.8748, 18086.04
750.3569, 18142.16
750.8391, 18198.42
751.3212, 18269.10
751.8033, 18298.16
752.2854, 18243.63
752.7675, 18185.00
753.2496, 18176.82
753.7318, 18198.73
754.2139, 18199.48
754.6960, 18157.43
755.1781, 18115.57
755.6602, 18097.19
756.1423, 18089.85
756.6245, 18077.31
757.1066, 18060.39
757.5887, 18051.17
758.0708, 18057.20
758.5529, 18072.35
759.0350, 18082.90
759.5172, 18087.45
759.9993, 18103.81
760.4814, 18144.05
760.9635, 18174.46
761.4456, 18167.69
761.9277, 18137.86
762.4099, 18118.38
762.8920, 18109.73
763.3741, 18111.52
763.8562, 18141.49
764.3383, 18166.49
764.8204, 18148.44
765.3026, 18106.92
765.7847, 18090.82
766.2668, 18121.61
766.7489, 18167.16
767.2310, 18193.11
767.7131, 18199.42
768.1953, 18178.22
768.6774, 18124.22
769.1595, 18084.00
769.6416, 18084.54
770.1237, 18106.43
770.6058, 18111.30
771.0880, 18085.23
771.5701, 18084.18
772.0522, 18144.26
772.5343, 18188.38
773.0164, 18157.95
773.4985, 18106.12
773.9807, 18117.78
774.4628, 18209.46
774.9449, 18289.20
775.4270, 18273.33
775.9091, 18210.62
776.3912, 18170.27
776.8734, 18154.28
777.3555, 18168.99
777.8376, 18219.29
778.3198, 18267.84
778.8019, 18260.98
779.2840, 18195.13
779.7661, 18181.41
780.2482, 18259.20
780.7303, 18323.50
781.2125, 18351.35
781.6946, 18353.94
782.1767, 18333.23
782.6588, 18292.29
783.1409, 18251.10
783.6230, 18212.05
784.1052, 18179.43
784.5873, 18149.57
785.0694, 18130.75
785.5515, 18145.77
786.0336, 18192.07
786.5157, 18230.58
786.9979, 18226.26
787.4800, 18196.81
787.9621, 18196.13
788.4442, 18226.76
788.9263, 18266.06
789.4084, 18323.56
789.8906, 18359.79
790.3727, 18328.11
790.8548, 18245.03
791.3369, 18203.47
791.8190, 18234.85
792.3011, 18260.25
792.7833, 18266.85
793.2654, 18264.74
793.7475, 18248.47
794.2296, 18231.02
794.7117, 18248.96
795.1938, 18327.13
795.6760, 18393.52
796.1581, 18343.51
796.6402, 18226.39
797.1223, 18176.72
797.6044, 18203.42
798.0865, 18245.21
798.5687, 18272.52
799.0508, 18286.43
799.5329, 18284.66
800.0150, 18254.21
800.4971, 18261.16
800.9792, 18359.77
801.4614, 18422.83
801.9435, 18360.55
802.4256, 18265.48
802.9077, 18260.55
803.3898, 18362.78
803.8719, 18442.81
804.3541, 18435.31
804.8362, 18402.53
805.3183, 18373.06
805.8004, 18358.71
806.2825, 18392.88
806.7646, 18475.62
807.2468, 18539.32
807.7289, 18507.97
808.2110, 18414.57
808.6931, 18384.62
809.1752, 18424.07
809.6573, 18431.60
810.1395, 18368.77
810.6216, 18302.77
811.1037, 18302.63
811.5858, 18361.71
812.0679, 18391.49
812.5500, 18350.29
813.0322, 18339.53
813.5143, 18410.96
813.9964, 18480.59
814.4785, 18471.09
814.9606, 18409.62
815.4427, 18384.88
815.9249, 18444.96
816.4070, 18504.47
816.8891, 18471.96
817.3712, 18399.71
817.8533, 18382.15
818.3354, 18418.22
818.8176, 18449.66
819.2997, 18445.93
819.7818, 18420.68
820.2639, 18398.03
820.7460, 18379.19
821.2281, 18343.75
821.7103, 18264.56
822.1924, 18235.86
822.6745, 18329.05
823.1566, 18471.46
823.6387, 18559.10
824.1208, 18588.76
824.6030, 18598.12
825.0851, 18580.05
825.5672, 18555.36
826.0493, 18517.23
826.5314, 18486.17
827.0135, 18497.06
827.4957, 18546.21
827.9778, 18581.28
828.4599, 18556.82
828.9420, 18512.96
829.4241, 18511.71
829.9063, 18539.56
830.3884, 18548.70
830.8705, 18530.19
831.3526, 18507.71
831.8347, 18500.28
832.3168, 18502.34
832.7990, 18488.86
833.2811, 18441.69
833.7632, 18443.83
834.2453, 18547.64
834.7274, 18639.22
835.2095, 18631.52
835.6917, 18572.21
836.1738, 18548.80
836.6559, 18585.20
837.1380, 18597.99
837.6201, 18523.20
838.1022, 18461.60
838.5844, 18507.83
839.0665, 18604.30
839.5486, 18641.84
840.0307, 18592.72
840.5128, 18532.30
840.9949, 18528.38
841.4771, 18558.18
841.9592, 18580.00
842.4413, 18594.58
842.9234, 18606.49
843.4055, 18616.89
843.8876, 18628.97
844.3698, 18648.99
844.8519, 18672.64
845.3340, 18661.01
845.8161, 18588.20
846.2982, 18547.12
846.7803, 18554.04
847.2625, 18594.00
847.7446, 18695.69
848.2267, 18819.65
848.7088, 18852.38
849.1909, 18721.37
849.6730, 18624.46
850.1552, 18633.37
850.6373, 18677.98
851.1194, 18723.71
851.6015, 18760.22
852.0836, 18781.64
852.5657, 18785.68
853.0479, 18764.25
853.5300, 18676.23
854.0121, 18571.14
854.4942, 18560.12
854.9763, 18630.66
855.4584, 18707.59
855.9406, 18767.33
856.4227, 18787.37
856.9048, 18728.85
857.3869, 18606.12
857.8690, 18580.09
858.3511, 18692.85
858.8333, 18775.34
859.3154, 18797.51
859.7975, 18777.15
860.2796, 18698.31
860.7617, 18584.69
861.2438, 18530.91
861.7260, 18568.85
862.2081, 18621.49
862.6902, 18700.17
863.1723, 18766.08
863.6544, 18784.28
864.1365, 18771.21
864.6187, 18763.73
865.1008, 18774.34
865.5829, 18778.36
866.0650, 18746.42
866.5471, 18702.01
867.0292, 18672.95
867.5114, 18661.89
867.9935, 18680.04
868.4756, 18729.40
868.9577, 18778.10
869.4398, 18791.03
869.9219, 18775.38
870.4041, 18763.45
870.8862, 18751.49
871.3683, 18775.85
871.8504, 18863.62
872.3325, 18943.98
872.8146, 18954.40
873.2968, 18909.61
873.7789, 18880.95
874.2610, 18873.84
874.7431, 18875.35
875.2252, 18896.20
875.7073, 18914.44
876.1895, 18917.90
876.6716, 18911.55
877.1537, 18906.70
877.6358, 18906.85
878.1179, 18893.14
878.6000, 18827.12
879.0822, 18769.83
879.5643, 18791.78
880.0464, 18855.84
880.5285, 18891.64
881.0106, 18883.28
881.4927, 18858.55
881.9749, 18834.84
882.4570, 18817.84
882.9391, 18825.30
883.4212, 18853.42
883.9033, 18868.16
884.3854, 18862.32
884.8676, 18868.10
885.3497, 18911.71
885.8318, 18975.13
886.3139, 19006.18
886.7960, 18988.59
887.2781, 18991.97
887.7603, 19033.10
888.2424, 19069.17
888.7245, 19088.21
889.2066, 19087.58
889.6887, 19055.36
890.1708, 18987.15
890.6530, 18941.86
891.1351, 18933.37
891.6172, 18943.09
892.0993, 18989.17
892.5814, 19032.53
893.0635, 19025.04
893.5457, 18973.55
894.0278, 18926.63
894.5099, 18902.89
894.9920, 18903.83
895.4741, 18948.42
895.9562, 19010.38
896.4384, 19047.98
896.9205, 19059.68
897.4026, 19056.36
897.8847, 19042.87
898.3668, 19034.89
898.8489, 19067.21
899.3311, 19130.60
899.8132, 19141.09
900.2953, 19094.42
900.7774, 19059.17
901.2595, 19058.44
901.7416, 19074.49
902.2238, 19091.64
902.7059, 19108.89
903.1880, 19110.88
903.6701, 19082.26
904.1522, 19068.73
904.6343, 19096.68
905.1165, 19118.48
905.5986, 19098.20
906.0807, 19053.57
906.5628, 19019.23
907.0449, 18991.09
907.5270, 18997.94
908.0092, 19087.83
908.4913, 19172.08
908.9734, 19195.90
909.4555, 19181.21
909.9376, 19150.28
910.4197, 19113.90
910.9019, 19103.73
911.3840, 19165.07
911.8661, 19235.98
912.3482, 19240.95
912.8303, 19209.79
913.3124, 19208.48
913.7946, 19239.48
914.2767, 19249.08
914.7588, 19201.24
915.2409, 19133.88
915.7230, 19114.79
916.2051, 19138.54
916.6873, 19159.59
917.1694, 19175.15
917.6515, 19200.67
918.1336, 19250.85
918.6157, 19281.20
919.0978, 19216.58
919.5800, 19056.64
920.0621, 19007.54
920.5442, 19128.92
921.0263, 19231.72
921.5084, 19286.47
921.9905, 19305.66
922.4727, 19283.53
922.9548, 19233.13
923.4369, 19195.09
923.9190, 19172.41
924.4011, 19159.40
924.8832, 19164.42
925.3654, 19169.36
925.8475, 19163.69
926.3296, 19152.07
926.8117, 19140.64
927.2938, 19130.90
927.7759, 19125.21
928.2581, 19127.67
928.7402, 19131.79
929.2223, 19123.20
929.7044, 19117.67
930.1865, 19145.59
930.6686, 19203.15
931.1508, 19262.46
931.6329, 19311.91
932.1150, 19331.76
932.5971, 19265.44
933.0792, 19153.79
933.5613, 19120.76
934.0435, 19165.51
934.5256, 19219.02
935.0077, 19254.76
935.4898, 19265.57
935.9719, 19234.32
936.4540, 19170.57
936.9362, 19154.31
937.4183, 19193.08
937.9004, 19224.94
938.3825, 19234.36
938.8646, 19245.26
939.3467, 19286.31
939.8289, 19336.51
940.3110, 19318.19
940.7931, 19175.75
941.2752, 19096.34
941.7573, 19117.91
942.2394, 19155.09
942.7216, 19199.74
943.2037, 19229.40
943.6858, 19206.76
944.1679, 19131.51
944.6500, 19078.44
945.1321, 19067.01
945.6143, 19070.26
946.0964, 19096.85
946.5785, 19120.24
947.0606, 19107.04
947.5427, 19072.54
948.0248, 19061.26
948.5070, 19090.92
948.9891, 19129.86
949.4712, 19167.29
949.9533, 19196.27
950.4354, 19206.95
950.9175, 19204.28
951.3997, 19194.19
951.8818, 19180.55
952.3639, 19175.74
952.8460, 19195.94
953.3281, 19219.88
953.8102, 19206.86
954.2924, 19170.14
954.7745, 19150.04
955.2566, 19150.66
955.7387, 19158.73
956.2208, 19168.04
956.7029, 19171.32
957.1851, 19154.18
957.6672, 19118.38
958.1493, 19083.09
958.6314, 19046.71
959.1135, 19033.54
959.5956, 19053.58
960.0778, 19089.77
960.5599, 19132.21
961.0420, 19173.79
961.5241, 19173.24
962.0062, 19103.31
962.4883, 19075.75
962.9705, 19126.67
963.4526, 19168.73
963.9347, 19141.46
964.4168, 19091.75
964.8989, 19105.96
965.3810, 19203.03
965.8632, 19245.00
966.3453, 19190.23
966.8274, 19135.78
967.3095, 19081.29
967.7916, 19052.29
968.2737, 19101.28
968.7559, 19190.97
969.2380, 19201.92
969.7201, 19065.98
970.2022, 18971.88
970.6843, 19021.57
971.1664, 19093.12
971.6486, 19108.07
972.1307, 19091.86
972.6128, 19091.88
973.0949, 19113.46
973.5770, 19121.37
974.0591, 19081.79
974.5413, 19040.63
975.0234, 19041.39
975.5055, 19060.07
975.9877, 19067.61
976.4698, 19061.57
976.9519, 19044.42
977.4340, 19017.10
977.9161, 18998.21
978.3983, 19016.95
978.8804, 19052.01
979.3625, 19064.68
979.8446, 19057.74
980.3267, 19040.60
980.8088, 19016.63
981.2910, 18991.59
981.7731, 18969.60
982.2552, 18950.72
982.7373, 18927.18
983.2194, 18903.76
983.7015, 18929.39
984.1837, 19007.52
984.6658, 19062.46
985.1479, 19061.30
985.6300, 19039.68
986.1121, 19038.45
986.5942, 19056.57
987.0764, 19091.15
987.5585, 19149.82
988.0406, 19180.85
988.5227, 19173.85
989.0048, 19143.34
989.4869, 19087.86
989.9691, 19028.01
990.4512, 19015.42
990.9333, 19071.24
991.4154, 19060.79
991.8975, 18909.32
992.3796, 18832.44
992.8618, 18945.51
993.3439, 19091.75
993.8260, 19126.19
994.3081, 19068.65
994.7902, 19032.61
995.2723, 19040.42
995.7545, 19030.87
996.2366, 18957.40
996.7187, 18916.68
997.2008, 18982.99
997.6829, 19086.71
998.1650, 19143.54
998.6472, 19147.21
999.1293, 19132.26
999.6114, 19077.78
1000.094, 19043.82
1000.576, 19080.79
1001.058, 19117.85
1001.540, 19082.70
1002.022, 19008.51
1002.504, 18976.79
1002.986, 19012.30
1003.468, 19035.66
1003.950, 18990.96
1004.433, 18941.34
1004.915, 18921.70
1005.397, 18928.03
1005.879, 18971.66
1006.361, 19035.75
1006.843, 19060.02
1007.325, 19005.11
1007.807, 18953.55
1008.289, 18995.00
1008.772, 19058.34
1009.254, 19046.55
1009.736, 18990.99
1010.218, 18964.79
1010.700, 18986.06
1011.182, 19037.08
1011.664, 19124.62
1012.146, 19196.08
1012.629, 19155.23
1013.111, 19056.82
1013.593, 19018.03
1014.075, 19036.22
1014.557, 19046.09
1015.039, 19022.48
1015.521, 19002.12
1016.003, 19030.93
1016.485, 19086.10
1016.968, 19118.24
1017.450, 19128.13
1017.932, 19110.07
1018.414, 19066.83
1018.896, 19034.15
1019.378, 19032.72
1019.860, 19050.44
1020.342, 19069.48
1020.825, 19090.49
1021.307, 19133.97
1021.789, 19196.96
1022.271, 19180.89
1022.753, 19054.70
1023.235, 18946.65
1023.717, 18961.21
1024.199, 19052.54
1024.681, 19111.90
1025.164, 19139.06
1025.646, 19126.20
1026.128, 19063.06
1026.610, 19042.36
1027.092, 19108.61
1027.574, 19182.33
1028.056, 19173.93
1028.538, 19104.04
1029.021, 19084.04
1029.503, 19123.36
1029.985, 19172.99
1030.467, 19243.40
1030.949, 19274.32
1031.431, 19215.10
1031.913, 19143.48
1032.395, 19183.26
1032.877, 19332.48
1033.359, 19379.73
1033.842, 19278.28
1034.324, 19196.55
1034.806, 19152.40
1035.288, 19143.31
1035.770, 19180.76
1036.252, 19242.69
1036.734, 19291.21
1037.216, 19329.61
1037.699, 19332.52
1038.181, 19280.34
1038.663, 19225.80
1039.145, 19153.22
1039.627, 19110.98
1040.109, 19159.95
1040.591, 19261.40
1041.073, 19303.25
1041.556, 19260.93
1042.038, 19226.78
1042.520, 19181.93
1043.002, 19169.56
1043.484, 19234.01
1043.966, 19307.60
1044.448, 19329.30
1044.930, 19309.44
1045.412, 19297.95
1045.895, 19309.28
1046.377, 19304.99
1046.859, 19261.59
1047.341, 19226.65
1047.823, 19207.93
1048.305, 19214.94
1048.787, 19276.73
1049.269, 19382.20
1049.751, 19444.20
1050.234, 19423.79
1050.716, 19400.57
1051.198, 19376.26
1051.680, 19364.78
1052.162, 19392.52
1052.644, 19426.84
1053.126, 19417.75
1053.608, 19363.51
1054.091, 19322.10
1054.573, 19287.90
1055.055, 19293.35
1055.537, 19405.19
1056.019, 19501.16
1056.501, 19473.03
1056.983, 19383.44
1057.465, 19342.37
1057.948, 19366.53
1058.430, 19393.04
1058.912, 19395.97
1059.394, 19408.46
1059.876, 19479.22
1060.358, 19531.22
1060.840, 19474.24
1061.322, 19359.75
1061.804, 19300.88
1062.286, 19324.10
1062.769, 19345.33
1063.251, 19320.51
1063.733, 19305.20
1064.215, 19328.69
1064.697, 19370.91
1065.179, 19427.53
1065.661, 19484.06
1066.143, 19512.95
1066.626, 19507.16
1067.108, 19475.47
1067.590, 19384.14
1068.072, 19311.65
1068.554, 19316.96
1069.036, 19351.21
1069.518, 19355.00
1070.000, 19340.88
1070.483, 19370.56
1070.965, 19476.36
1071.447, 19551.49
1071.929, 19521.34
1072.411, 19476.94
1072.893, 19485.71
1073.375, 19503.60
1073.857, 19468.66
1074.339, 19391.83
1074.822, 19328.80
1075.304, 19291.09
1075.786, 19293.13
1076.268, 19389.39
1076.750, 19475.32
1077.232, 19459.47
1077.714, 19407.48
1078.196, 19403.02
1078.679, 19447.30
1079.161, 19496.93
1079.643, 19547.42
1080.125, 19572.11
1080.607, 19530.52
1081.089, 19488.59
1081.571, 19505.65
1082.053, 19542.07
1082.536, 19540.99
1083.018, 19503.13
1083.500, 19469.17
1083.982, 19448.73
1084.464, 19445.95
1084.946, 19471.96
1085.428, 19506.54
1085.910, 19542.06
1086.392, 19573.27
1086.875, 19591.27
1087.357, 19597.93
1087.839, 19609.68
1088.321, 19642.34
1088.803, 19658.51
1089.285, 19615.63
1089.767, 19578.14
1090.249, 19615.00
1090.731, 19670.52
1091.214, 19656.42
1091.696, 19575.28
1092.178, 19517.19
1092.660, 19521.42
1093.142, 19534.27
1093.624, 19527.54
1094.106, 19531.51
1094.588, 19593.79
1095.071, 19663.21
1095.553, 19656.00
1096.035, 19576.92
1096.517, 19526.60
1096.999, 19534.85
1097.481, 19574.62
1097.963, 19679.63
1098.445, 19767.72
1098.927, 19776.93
1099.410, 19744.59
1099.892, 19713.27
1100.374, 19690.80
1100.856, 19686.93
1101.338, 19700.99
1101.820, 19739.14
1102.302, 19878.98
1102.784, 19958.53
1103.266, 19798.83
1103.749, 19581.21
1104.231, 19564.79
1104.713, 19742.04
1105.195, 19849.66
1105.677, 19788.30
1106.159, 19740.15
1106.641, 19740.54
1107.123, 19757.06
1107.606, 19785.14
1108.088, 19813.19
1108.570, 19829.54
1109.052, 19833.63
1109.534, 19826.36
1110.016, 19785.07
1110.498, 19769.15
1110.980, 19820.89
1111.463, 19855.27
1111.945, 19811.75
1112.427, 19749.72
1112.909, 19739.23
1113.391, 19776.14
1113.873, 19805.55
1114.355, 19831.79
1114.837, 19841.51
1115.319, 19814.91
1115.802, 19798.28
1116.284, 19818.86
1116.766, 19846.87
1117.248, 19846.27
1117.730, 19823.82
1118.212, 19825.33
1118.694, 19863.18
1119.176, 19898.02
1119.658, 19930.53
1120.141, 19960.03
1120.623, 20002.02
1121.105, 20016.70
1121.587, 19945.11
1122.069, 19817.69
1122.551, 19776.51
1123.033, 19855.87
1123.515, 19910.50
1123.998, 19928.16
1124.480, 19952.80
1124.962, 20002.71
1125.444, 20054.80
1125.926, 20089.77
1126.408, 20109.17
1126.890, 20117.30
1127.372, 20113.25
1127.854, 20099.93
1128.337, 20072.58
1128.819, 20062.42
1129.301, 20079.79
1129.783, 20112.03
1130.265, 20154.43
1130.747, 20191.90
1131.229, 20176.98
1131.711, 20109.71
1132.193, 20097.05
1132.676, 20141.52
1133.158, 20174.80
1133.640, 20180.10
1134.122, 20179.43
1134.604, 20187.83
1135.086, 20201.35
1135.568, 20215.77
1136.050, 20229.24
1136.533, 20227.55
1137.015, 20213.21
1137.497, 20201.40
1137.979, 20196.65
1138.461, 20215.95
1138.943, 20271.26
1139.425, 20328.44
1139.907, 20330.88
1140.390, 20303.07
1140.872, 20309.48
1141.354, 20338.74
1141.836, 20355.58
1142.318, 20356.48
1142.800, 20355.60
1143.282, 20359.52
1143.764, 20363.77
1144.246, 20366.04
1144.729, 20363.95
1145.211, 20345.00
1145.693, 20323.73
1146.175, 20330.99
1146.657, 20361.14
1147.139, 20385.58
1147.621, 20394.95
1148.103, 20407.76
1148.585, 20469.14
1149.068, 20501.62
1149.550, 20388.49
1150.032, 20249.32
1150.514, 20231.54
1150.996, 20297.52
1151.478, 20345.29
1151.960, 20352.95
1152.442, 20366.70
1152.925, 20436.08
1153.407, 20474.29
1153.889, 20391.41
1154.371, 20308.98
1154.853, 20333.29
1155.335, 20409.94
1155.817, 20452.74
1156.299, 20455.27
1156.781, 20465.83
1157.264, 20516.85
1157.746, 20538.25
1158.228, 20476.63
1158.710, 20428.01
1159.192, 20455.70
1159.674, 20505.19
1160.156, 20514.88
1160.638, 20491.70
1161.120, 20483.99
1161.603, 20502.58
1162.085, 20515.09
1162.567, 20510.17
1163.049, 20519.35
1163.531, 20570.45
1164.013, 20611.09
1164.495, 20593.95
1164.977, 20539.90
1165.460, 20502.78
1165.942, 20483.48
1166.424, 20475.33
1166.906, 20480.92
1167.388, 20486.79
1167.870, 20489.70
1168.352, 20494.76
1168.834, 20506.06
1169.317, 20518.02
1169.799, 20519.56
1170.281, 20513.09
1170.763, 20521.01
1171.245, 20542.96
1171.727, 20569.53
1172.209, 20599.02
1172.691, 20604.77
1173.173, 20574.07
1173.656, 20537.93
1174.138, 20534.27
1174.620, 20499.81
1175.102, 20512.66
1175.584, 20458.38
1176.066, 20425.48
1176.548, 20418.19
1177.030, 20441.90
1177.512, 20493.51
1177.995, 20535.72
1178.477, 20539.36
1178.959, 20560.78
1179.441, 20539.55
1179.923, 20550.64
1180.405, 20528.23
1180.887, 20493.45
1181.369, 20489.99
1181.852, 20519.57
1182.334, 20557.42
1182.816, 20601.84
1183.298, 20612.39
1183.780, 20515.14
1184.262, 20434.03
1184.744, 20472.54
1185.226, 20552.33
1185.708, 20597.79
1186.191, 20608.66
1186.673, 20607.05
1187.155, 20595.56
1187.637, 20580.81
1188.119, 20569.84
1188.601, 20547.71
1189.083, 20487.53
1189.565, 20439.92
1190.047, 20456.33
1190.530, 20493.54
1191.012, 20480.55
1191.494, 20418.28
1191.976, 20388.29
1192.458, 20402.80
1192.940, 20418.85
1193.422, 20437.26
1193.904, 20443.78
1194.387, 20424.74
1194.869, 20414.32
1195.351, 20451.93
1195.833, 20520.07
1196.315, 20567.90
1196.797, 20595.35
1197.279, 20547.63
1197.761, 20425.02
1198.244, 20377.26
1198.726, 20441.05
1199.208, 20518.49
1199.690, 20545.96
1200.172, 20538.53
1200.654, 20500.67
1201.136, 20453.17
1201.618, 20464.80
1202.100, 20413.46
1202.583, 20468.62
1203.065, 20370.43
1203.547, 20314.56
1204.029, 20340.93
1204.511, 20390.11
1204.993, 20428.01
1205.475, 20453.66
1205.957, 20464.00
1206.439, 20463.66
1206.922, 20462.39
1207.404, 20452.05
1207.886, 20399.53
1208.368, 20312.34
1208.850, 20281.38
1209.332, 20385.14
1209.814, 20448.42
1210.296, 20362.32
1210.779, 20293.32
1211.261, 20341.30
1211.743, 20426.96
1212.225, 20469.48
1212.707, 20481.97
1213.189, 20525.70
1213.671, 20627.59
1214.153, 20636.31
1214.635, 20489.43
1215.118, 20406.49
1215.600, 20453.51
1216.082, 20500.44
1216.564, 20468.62
1217.046, 20407.24
1217.528, 20386.69
1218.010, 20402.14
1218.492, 20430.79
1218.974, 20471.51
1219.457, 20497.53
1219.939, 20505.64
1220.421, 20476.60
1220.903, 20406.04
1221.385, 20353.59
1221.867, 20371.34
1222.349, 20419.59
1222.831, 20448.98
1223.314, 20460.48
1223.796, 20453.77
1224.278, 20431.56
1224.760, 20383.10
1225.242, 20323.45
1225.724, 20312.67
1226.206, 20378.45
1226.688, 20448.59
1227.171, 20487.59
1227.653, 20506.23
1228.135, 20502.88
1228.617, 20489.55
1229.099, 20473.43
1229.581, 20456.61
1230.063, 20430.77
1230.545, 20397.30
1231.027, 20411.65
1231.510, 20548.88
1231.992, 20621.86
1232.474, 20595.16
1232.956, 20543.99
1233.438, 20472.60
1233.920, 20417.86
1234.402, 20418.28
1234.884, 20453.60
1235.366, 20467.23
1235.849, 20457.40
1236.331, 20460.62
1236.813, 20477.88
1237.295, 20481.70
1237.777, 20467.05
1238.259, 20450.58
1238.741, 20440.64
1239.223, 20433.44
1239.706, 20420.65
1240.188, 20413.60
1240.670, 20456.48
1241.152, 20511.48
1241.634, 20475.80
1242.116, 20384.63
1242.598, 20359.14
1243.080, 20412.89
1243.563, 20443.20
1244.045, 20386.30
1244.527, 20342.88
1245.009, 20396.96
1245.491, 20461.11
1245.973, 20473.44
1246.455, 20469.66
1246.937, 20487.78
1247.419, 20521.11
1247.901, 20551.32
1248.384, 20579.13
1248.866, 20576.84
1249.348, 20514.76
1249.830, 20474.88
1250.312, 20474.82
1250.794, 20477.86
1251.276, 20472.86
1251.758, 20453.43
1252.241, 20401.61
1252.723, 20345.13
1253.205, 20394.73
1253.687, 20544.87
1254.169, 20587.92
1254.651, 20527.86
1255.133, 20450.39
1255.615, 20378.86
1256.098, 20355.48
1256.580, 20403.38
1257.062, 20460.26
1257.544, 20454.25
1258.026, 20426.43
1258.508, 20431.54
1258.990, 20451.43
1259.472, 20464.49
1259.954, 20469.56
1260.437, 20463.98
1260.919, 20451.71
1261.401, 20456.47
1261.883, 20494.91
1262.365, 20529.51
1262.847, 20557.74
1263.329, 20567.34
1263.811, 20527.71
1264.293, 20492.54
1264.776, 20516.52
1265.258, 20566.71
1265.740, 20578.45
1266.222, 20551.29
1266.704, 20545.90
1267.186, 20567.45
1267.668, 20583.83
1268.150, 20591.76
1268.633, 20595.06
1269.115, 20594.61
1269.597, 20598.83
1270.079, 20616.82
1270.561, 20635.80
1271.043, 20634.51
1271.525, 20616.38
1272.007, 20578.08
1272.490, 20533.50
1272.972, 20511.75
1273.454, 20515.89
1273.936, 20544.34
1274.418, 20595.23
1274.900, 20636.68
1275.382, 20632.57
1275.864, 20638.73
1276.346, 20722.41
1276.829, 20781.48
1277.311, 20695.34
1277.793, 20583.25
1278.275, 20610.25
1278.757, 20744.37
1279.239, 20809.67
1279.721, 20788.24
1280.203, 20780.76
1280.686, 20800.21
1281.168, 20781.74
1281.650, 20699.91
1282.132, 20655.95
1282.614, 20707.48
1283.096, 20766.49
1283.578, 20725.15
1284.060, 20632.15
1284.542, 20605.26
1285.025, 20625.73
1285.507, 20647.08
1285.989, 20665.65
1286.471, 20681.29
1286.953, 20694.90
1287.435, 20709.84
1287.917, 20733.81
##END=



