##NAMES=Stilpnomelane
##RRUFFID=R110195
##IDEAL CHEMISTRY=(K,Ca,Na)(Fe^2+^,Mg,Al,Fe^3+^)_8_(Si,Al)_12_(O,OH)_36_&#183;nH_2_O
##LOCALITY=Broughton talc mine, Saint-Pierre-de-Broughton, Quebec, Canada
##OWNER=RRUFF
##SOURCE=Donald Doell
##DESCRIPTION=Aggregates of dark green plates, 180 deg twin around (-2 0 3) = [0 1 2].
##STATUS=The identification of this mineral has been confirmed by single-crystal X-ray diffraction.
##URL=rruff.info/R110195
103.1743, 1389.118
103.6564, 1389.304
104.1385, 1389.773
104.6207, 1390.796
105.1028, 1392.221
105.5849, 1393.615
106.0670, 1394.522
106.5491, 1395.069
107.0313, 1395.433
107.5134, 1395.545
107.9955, 1395.645
108.4776, 1395.948
108.9597, 1396.422
109.4418, 1397.023
109.9240, 1398.176
110.4061, 1399.174
110.8882, 1399.159
111.3703, 1397.702
111.8524, 1395.687
112.3345, 1395.647
112.8167, 1400.148
113.2988, 1403.260
113.7809, 1403.347
114.2630, 1401.772
114.7451, 1400.243
115.2272, 1399.823
115.7094, 1400.456
116.1915, 1401.254
116.6736, 1402.521
117.1557, 1403.611
117.6378, 1404.208
118.1199, 1404.387
118.6021, 1404.453
119.0842, 1404.650
119.5663, 1404.974
120.0484, 1405.197
120.5305, 1404.774
121.0126, 1404.541
121.4948, 1405.563
121.9769, 1408.105
122.4590, 1410.617
122.9411, 1411.227
123.4232, 1410.406
123.9053, 1409.453
124.3875, 1408.539
124.8696, 1407.791
125.3517, 1407.594
125.8338, 1408.120
126.3159, 1409.097
126.7980, 1410.666
127.2802, 1412.622
127.7623, 1414.017
128.2444, 1413.840
128.7265, 1411.920
129.2086, 1410.295
129.6907, 1409.370
130.1729, 1408.612
130.6550, 1408.003
131.1371, 1407.445
131.6192, 1406.623
132.1013, 1405.075
132.5834, 1402.462
133.0656, 1399.684
133.5477, 1396.305
134.0298, 1393.064
134.5119, 1390.634
134.9940, 1389.221
135.4761, 1388.402
135.9583, 1387.236
136.4404, 1384.993
136.9225, 1383.332
137.4046, 1383.151
137.8867, 1383.448
138.3688, 1382.729
138.8510, 1380.214
139.3331, 1376.421
139.8152, 1373.051
140.2973, 1370.337
140.7794, 1367.592
141.2615, 1364.196
141.7437, 1360.388
142.2258, 1357.225
142.7079, 1355.463
143.1900, 1354.684
143.6721, 1353.799
144.1542, 1352.631
144.6364, 1351.497
145.1185, 1350.935
145.6006, 1351.123
146.0827, 1350.786
146.5648, 1348.623
147.0469, 1345.771
147.5291, 1343.380
148.0112, 1341.979
148.4933, 1341.143
148.9754, 1339.826
149.4575, 1337.421
149.9396, 1335.626
150.4218, 1335.173
150.9039, 1335.494
151.3860, 1335.822
151.8681, 1335.661
152.3502, 1335.116
152.8323, 1335.106
153.3145, 1336.620
153.7966, 1337.717
154.2787, 1337.777
154.7608, 1337.103
155.2429, 1336.341
155.7250, 1335.997
156.2072, 1336.106
156.6893, 1336.059
157.1714, 1335.831
157.6535, 1335.493
158.1356, 1335.014
158.6177, 1334.427
159.0999, 1333.824
159.5820, 1333.275
160.0641, 1332.779
160.5462, 1332.447
161.0283, 1331.906
161.5104, 1331.765
161.9926, 1332.841
162.4747, 1335.213
162.9568, 1337.618
163.4389, 1338.607
163.9210, 1338.257
164.4031, 1337.837
164.8853, 1337.375
165.3674, 1337.020
165.8495, 1337.049
166.3316, 1337.586
166.8137, 1338.288
167.2958, 1339.145
167.7780, 1340.034
168.2601, 1340.219
168.7422, 1338.982
169.2243, 1336.661
169.7064, 1334.581
170.1885, 1332.694
170.6707, 1331.389
171.1528, 1331.219
171.6349, 1331.906
172.1170, 1332.315
172.5991, 1331.301
173.0812, 1328.775
173.5634, 1326.774
174.0455, 1325.471
174.5276, 1324.710
175.0097, 1324.823
175.4918, 1325.601
175.9739, 1326.298
176.4561, 1326.004
176.9382, 1324.310
177.4203, 1322.974
177.9024, 1322.315
178.3845, 1321.713
178.8666, 1320.842
179.3488, 1319.667
179.8309, 1318.353
180.3130, 1317.164
180.7951, 1316.298
181.2772, 1315.069
181.7593, 1313.061
182.2415, 1311.011
182.7236, 1309.561
183.2057, 1308.834
183.6878, 1308.378
184.1699, 1307.501
184.6520, 1305.898
185.1342, 1304.471
185.6163, 1303.330
186.0984, 1302.345
186.5805, 1301.418
187.0626, 1300.531
187.5447, 1299.616
188.0269, 1298.465
188.5090, 1296.916
188.9911, 1295.772
189.4732, 1295.685
189.9553, 1296.046
190.4374, 1295.715
190.9196, 1294.199
191.4017, 1292.227
191.8838, 1290.827
192.3659, 1289.992
192.8480, 1289.291
193.3301, 1288.756
193.8123, 1288.243
194.2944, 1287.196
194.7765, 1285.283
195.2586, 1282.972
195.7407, 1280.604
196.2228, 1278.177
196.7050, 1276.224
197.1871, 1275.512
197.6692, 1275.965
198.1513, 1275.770
198.6334, 1274.078
199.1155, 1272.027
199.5977, 1270.347
200.0798, 1269.091
200.5619, 1268.014
201.0440, 1266.854
201.5261, 1265.572
202.0082, 1264.480
202.4904, 1263.774
202.9725, 1263.170
203.4546, 1262.528
203.9367, 1261.835
204.4188, 1261.167
204.9009, 1260.546
205.3831, 1259.811
205.8652, 1259.652
206.3473, 1260.865
206.8294, 1262.028
207.3115, 1262.354
207.7936, 1261.702
208.2758, 1260.386
208.7579, 1258.734
209.2400, 1256.231
209.7221, 1254.580
210.2042, 1254.320
210.6863, 1254.373
211.1685, 1253.947
211.6506, 1252.913
212.1327, 1251.772
212.6148, 1251.299
213.0969, 1252.195
213.5790, 1252.243
214.0612, 1250.676
214.5433, 1248.801
215.0254, 1247.726
215.5075, 1247.691
215.9896, 1248.003
216.4717, 1247.648
216.9539, 1246.084
217.4360, 1245.170
217.9181, 1245.527
218.4002, 1246.251
218.8823, 1246.404
219.3644, 1245.757
219.8466, 1244.831
220.3287, 1244.336
220.8108, 1244.349
221.2929, 1244.336
221.7750, 1244.355
222.2571, 1244.270
222.7393, 1243.797
223.2214, 1242.822
223.7035, 1241.822
224.1856, 1241.541
224.6677, 1241.919
225.1498, 1242.101
225.6320, 1241.823
226.1141, 1241.228
226.5962, 1240.569
227.0783, 1239.919
227.5604, 1239.100
228.0425, 1237.511
228.5247, 1235.417
229.0068, 1234.108
229.4889, 1234.807
229.9710, 1236.583
230.4531, 1237.274
230.9352, 1236.320
231.4174, 1234.982
231.8995, 1234.022
232.3816, 1233.424
232.8637, 1233.227
233.3458, 1233.576
233.8279, 1234.350
234.3101, 1235.323
234.7922, 1237.024
235.2743, 1237.925
235.7564, 1236.582
236.2385, 1233.928
236.7206, 1231.855
237.2028, 1231.704
237.6849, 1233.010
238.1670, 1233.821
238.6491, 1234.116
239.1312, 1233.857
239.6133, 1232.690
240.0955, 1231.092
240.5776, 1229.865
241.0597, 1229.572
241.5418, 1230.006
242.0239, 1230.154
242.5060, 1229.811
242.9882, 1229.445
243.4703, 1229.421
243.9524, 1229.420
244.4345, 1228.861
244.9166, 1227.266
245.3987, 1225.015
245.8809, 1223.986
246.3630, 1225.320
246.8451, 1226.480
247.3272, 1227.151
247.8093, 1227.300
248.2914, 1226.820
248.7736, 1225.615
249.2557, 1223.894
249.7378, 1222.520
250.2199, 1221.854
250.7020, 1221.108
251.1841, 1219.961
251.6663, 1218.756
252.1484, 1217.985
252.6305, 1217.892
253.1126, 1218.210
253.5947, 1218.083
254.0768, 1217.174
254.5590, 1216.182
255.0411, 1214.776
255.5232, 1213.459
256.0053, 1212.854
256.4874, 1213.227
256.9695, 1214.212
257.4517, 1214.924
257.9338, 1215.502
258.4159, 1215.570
258.8980, 1214.706
259.3801, 1213.507
259.8622, 1212.596
260.3444, 1212.184
260.8265, 1212.036
261.3086, 1211.694
261.7907, 1210.557
262.2728, 1210.229
262.7549, 1211.576
263.2371, 1213.318
263.7192, 1214.027
264.2013, 1213.346
264.6834, 1212.217
265.1655, 1212.112
265.6476, 1213.831
266.1298, 1214.590
266.6119, 1213.379
267.0940, 1211.720
267.5761, 1211.148
268.0582, 1211.939
268.5403, 1213.138
269.0225, 1213.688
269.5046, 1213.469
269.9867, 1212.932
270.4688, 1211.534
270.9509, 1210.177
271.4330, 1209.860
271.9152, 1210.646
272.3973, 1211.459
272.8794, 1211.151
273.3615, 1209.621
273.8436, 1208.801
274.3257, 1208.921
274.8079, 1209.609
275.2900, 1210.836
275.7721, 1212.530
276.2542, 1214.051
276.7363, 1214.950
277.2184, 1215.188
277.7006, 1215.167
278.1827, 1214.588
278.6648, 1213.984
279.1469, 1213.761
279.6290, 1213.885
280.1111, 1214.021
280.5933, 1213.895
281.0754, 1213.671
281.5575, 1213.856
282.0396, 1214.826
282.5217, 1215.752
283.0038, 1216.095
283.4860, 1215.936
283.9681, 1215.665
284.4502, 1215.369
284.9323, 1215.148
285.4144, 1215.195
285.8965, 1215.599
286.3787, 1216.032
286.8608, 1216.208
287.3429, 1216.238
287.8250, 1216.587
288.3071, 1217.571
288.7892, 1218.714
289.2714, 1219.282
289.7535, 1219.216
290.2356, 1219.155
290.7177, 1219.504
291.1998, 1220.085
291.6819, 1220.429
292.1641, 1220.406
292.6462, 1220.165
293.1283, 1219.791
293.6104, 1219.305
294.0925, 1218.910
294.5746, 1218.768
295.0568, 1218.761
295.5389, 1218.682
296.0210, 1218.535
296.5031, 1218.239
296.9852, 1217.438
297.4673, 1216.374
297.9495, 1215.784
298.4316, 1216.527
298.9137, 1217.645
299.3958, 1217.404
299.8779, 1215.421
300.3600, 1213.775
300.8422, 1214.596
301.3243, 1216.598
301.8064, 1217.545
302.2885, 1216.531
302.7706, 1214.680
303.2527, 1213.070
303.7349, 1211.679
304.2170, 1210.780
304.6991, 1210.881
305.1812, 1211.386
305.6633, 1211.483
306.1454, 1210.996
306.6276, 1210.293
307.1097, 1209.621
307.5918, 1208.987
308.0739, 1208.474
308.5560, 1208.193
309.0381, 1207.984
309.5203, 1207.691
310.0024, 1207.311
310.4845, 1206.805
310.9666, 1206.077
311.4487, 1205.172
311.9308, 1204.286
312.4130, 1203.357
312.8951, 1202.615
313.3772, 1202.332
313.8593, 1202.440
314.3414, 1202.533
314.8235, 1202.535
315.3057, 1202.366
315.7878, 1201.743
316.2699, 1200.473
316.7520, 1199.156
317.2341, 1198.370
317.7162, 1197.886
318.1984, 1197.183
318.6805, 1195.765
319.1626, 1194.174
319.6447, 1193.411
320.1268, 1193.662
320.6089, 1193.821
321.0911, 1193.024
321.5732, 1191.815
322.0553, 1190.907
322.5374, 1190.406
323.0195, 1190.305
323.5016, 1191.004
323.9838, 1192.522
324.4659, 1193.127
324.9480, 1191.698
325.4301, 1189.282
325.9122, 1186.942
326.3943, 1184.549
326.8765, 1183.111
327.3586, 1184.251
327.8407, 1187.345
328.3228, 1188.761
328.8049, 1187.019
329.2870, 1184.204
329.7692, 1182.399
330.2513, 1181.530
330.7334, 1180.932
331.2155, 1180.296
331.6976, 1179.704
332.1797, 1179.453
332.6619, 1179.752
333.1440, 1179.887
333.6261, 1178.903
334.1082, 1177.268
334.5903, 1176.118
335.0724, 1176.073
335.5546, 1176.560
336.0367, 1176.965
336.5188, 1177.303
337.0009, 1177.343
337.4830, 1176.762
337.9651, 1175.842
338.4473, 1175.095
338.9294, 1174.533
339.4115, 1174.231
339.8936, 1174.472
340.3757, 1175.156
340.8578, 1175.483
341.3400, 1175.067
341.8221, 1174.222
342.3042, 1173.392
342.7863, 1172.533
343.2684, 1171.887
343.7505, 1171.766
344.2327, 1171.936
344.7148, 1171.836
345.1969, 1171.323
345.6790, 1170.579
346.1611, 1169.533
346.6432, 1168.260
347.1254, 1167.603
347.6075, 1168.458
348.0896, 1169.719
348.5717, 1169.906
349.0538, 1168.865
349.5359, 1167.621
350.0181, 1166.838
350.5002, 1166.488
350.9823, 1166.300
351.4644, 1165.965
351.9465, 1166.047
352.4286, 1167.661
352.9108, 1170.315
353.3929, 1171.467
353.8750, 1169.357
354.3571, 1165.498
354.8392, 1163.709
355.3214, 1164.566
355.8035, 1165.785
356.2856, 1167.205
356.7677, 1168.326
357.2498, 1167.915
357.7319, 1165.429
358.2141, 1162.424
358.6962, 1161.102
359.1783, 1161.739
359.6604, 1162.271
360.1425, 1162.551
360.6246, 1162.584
361.1068, 1162.205
361.5889, 1161.456
362.0710, 1160.897
362.5531, 1161.102
363.0352, 1162.048
363.5173, 1162.375
363.9995, 1161.970
364.4816, 1161.134
364.9637, 1159.532
365.4458, 1157.578
365.9279, 1156.293
366.4100, 1156.241
366.8922, 1157.126
367.3743, 1158.031
367.8564, 1158.916
368.3385, 1159.864
368.8206, 1161.362
369.3027, 1162.720
369.7849, 1162.997
370.2670, 1161.962
370.7491, 1160.294
371.2312, 1158.919
371.7133, 1157.986
372.1954, 1156.922
372.6776, 1155.339
373.1597, 1153.962
373.6418, 1153.303
374.1239, 1153.299
374.6060, 1153.531
375.0881, 1153.669
375.5703, 1153.724
376.0524, 1153.990
376.5345, 1155.041
377.0166, 1155.661
377.4987, 1155.396
377.9808, 1154.580
378.4630, 1153.653
378.9451, 1152.816
379.4272, 1152.088
379.9093, 1151.488
380.3914, 1150.845
380.8735, 1150.666
381.3557, 1151.789
381.8378, 1152.753
382.3199, 1152.025
382.8020, 1149.659
383.2841, 1147.347
383.7662, 1147.109
384.2484, 1149.296
384.7305, 1151.053
385.2126, 1152.413
385.6947, 1153.266
386.1768, 1153.329
386.6589, 1152.850
387.1411, 1152.272
387.6232, 1151.831
388.1053, 1151.520
388.5874, 1151.336
389.0695, 1151.411
389.5516, 1151.363
390.0338, 1151.229
390.5159, 1150.891
390.9980, 1150.053
391.4801, 1148.649
391.9622, 1147.354
392.4443, 1147.236
392.9265, 1148.485
393.4086, 1149.074
393.8907, 1148.065
394.3728, 1146.984
394.8549, 1146.933
395.3370, 1147.658
395.8192, 1148.066
396.3013, 1147.248
396.7834, 1145.586
397.2655, 1144.343
397.7476, 1143.605
398.2297, 1143.072
398.7119, 1142.501
399.1940, 1142.060
399.6761, 1142.099
400.1582, 1142.940
400.6403, 1143.745
401.1224, 1143.621
401.6046, 1142.602
402.0867, 1141.312
402.5688, 1139.741
403.0509, 1138.178
403.5330, 1136.906
404.0151, 1135.915
404.4973, 1135.204
404.9794, 1134.943
405.4615, 1134.911
405.9436, 1134.721
406.4257, 1134.322
406.9078, 1133.833
407.3900, 1133.256
407.8721, 1132.661
408.3542, 1132.333
408.8363, 1132.841
409.3184, 1133.137
409.8005, 1132.280
410.2827, 1130.586
410.7648, 1129.183
411.2469, 1128.590
411.7290, 1128.520
412.2111, 1128.435
412.6932, 1128.653
413.1754, 1128.113
413.6575, 1125.833
414.1396, 1123.132
414.6217, 1121.386
415.1038, 1120.822
415.5859, 1120.853
416.0681, 1120.995
416.5502, 1121.288
417.0323, 1121.126
417.5144, 1120.116
417.9965, 1119.137
418.4786, 1118.680
418.9608, 1118.501
419.4429, 1117.970
419.9250, 1116.733
420.4071, 1115.239
420.8892, 1114.799
421.3713, 1116.827
421.8535, 1117.762
422.3356, 1117.179
422.8177, 1115.789
423.2998, 1113.734
423.7819, 1111.272
424.2640, 1109.162
424.7462, 1108.310
425.2283, 1108.825
425.7104, 1108.891
426.1925, 1107.912
426.6746, 1107.115
427.1567, 1107.041
427.6389, 1107.331
428.1210, 1107.422
428.6031, 1107.035
429.0852, 1106.352
429.5673, 1105.773
430.0494, 1105.384
430.5316, 1104.794
431.0137, 1103.625
431.4958, 1102.427
431.9779, 1101.584
432.4600, 1101.108
432.9421, 1100.720
433.4243, 1100.340
433.9064, 1099.901
434.3885, 1099.031
434.8706, 1097.494
435.3527, 1096.026
435.8348, 1095.336
436.3170, 1094.991
436.7991, 1094.210
437.2812, 1092.515
437.7633, 1090.729
438.2454, 1089.729
438.7275, 1089.391
439.2097, 1088.846
439.6918, 1087.669
440.1739, 1086.354
440.6560, 1085.675
441.1381, 1085.635
441.6202, 1085.712
442.1024, 1085.964
442.5845, 1086.147
443.0666, 1085.938
443.5487, 1085.325
444.0308, 1084.571
444.5129, 1083.866
444.9951, 1083.197
445.4772, 1082.424
445.9593, 1081.406
446.4414, 1080.471
446.9235, 1079.847
447.4056, 1079.335
447.8878, 1078.604
448.3699, 1077.547
448.8520, 1076.357
449.3341, 1075.340
449.8162, 1074.638
450.2983, 1073.706
450.7805, 1072.062
451.2626, 1070.666
451.7447, 1070.103
452.2268, 1070.222
452.7089, 1070.579
453.1910, 1070.926
453.6732, 1071.181
454.1553, 1070.980
454.6374, 1070.203
455.1195, 1069.128
455.6016, 1067.342
456.0837, 1065.612
456.5659, 1064.718
457.0480, 1064.738
457.5301, 1064.973
458.0122, 1064.542
458.4943, 1063.467
458.9764, 1063.158
459.4586, 1064.333
459.9407, 1065.255
460.4228, 1064.958
460.9049, 1063.836
461.3870, 1062.534
461.8691, 1061.163
462.3513, 1059.890
462.8334, 1058.907
463.3155, 1058.215
463.7976, 1057.841
464.2797, 1058.009
464.7618, 1058.248
465.2440, 1057.883
465.7261, 1056.904
466.2082, 1056.064
466.6903, 1055.740
467.1724, 1055.620
467.6545, 1055.239
468.1367, 1054.591
468.6188, 1054.223
469.1009, 1054.714
469.5830, 1055.727
470.0651, 1055.549
470.5472, 1052.926
471.0294, 1050.873
471.5115, 1050.174
471.9936, 1050.452
472.4757, 1051.705
472.9578, 1053.787
473.4399, 1055.437
473.9221, 1054.995
474.4042, 1051.945
474.8863, 1049.762
475.3684, 1048.792
475.8505, 1048.183
476.3326, 1047.594
476.8148, 1047.159
477.2969, 1047.291
477.7790, 1048.215
478.2611, 1049.405
478.7432, 1049.676
479.2253, 1048.676
479.7075, 1047.759
480.1896, 1047.074
480.6717, 1046.520
481.1538, 1046.133
481.6359, 1045.856
482.1180, 1045.486
482.6002, 1044.645
483.0823, 1043.686
483.5644, 1043.933
484.0465, 1045.939
484.5286, 1047.070
485.0107, 1044.818
485.4929, 1041.763
485.9750, 1041.327
486.4571, 1044.395
486.9392, 1047.253
487.4213, 1047.067
487.9034, 1045.133
488.3856, 1044.372
488.8677, 1045.309
489.3498, 1046.872
489.8319, 1048.420
490.3140, 1049.849
490.7961, 1050.456
491.2783, 1049.699
491.7604, 1048.708
492.2425, 1047.628
492.7246, 1046.745
493.2067, 1046.663
493.6888, 1047.595
494.1710, 1049.037
494.6531, 1050.258
495.1352, 1051.351
495.6173, 1051.876
496.0994, 1051.242
496.5815, 1050.700
497.0637, 1051.016
497.5458, 1051.887
498.0279, 1052.571
498.5100, 1052.636
498.9921, 1052.315
499.4742, 1052.108
499.9564, 1051.818
500.4385, 1052.155
500.9206, 1054.132
501.4027, 1056.028
501.8848, 1056.570
502.3669, 1055.901
502.8491, 1055.225
503.3312, 1055.350
503.8133, 1056.074
504.2954, 1057.004
504.7775, 1058.278
505.2596, 1059.094
505.7418, 1058.747
506.2239, 1057.898
506.7060, 1057.462
507.1881, 1057.516
507.6702, 1057.872
508.1523, 1058.596
508.6345, 1059.511
509.1166, 1060.395
509.5987, 1061.218
510.0808, 1061.812
510.5629, 1062.050
511.0450, 1061.927
511.5272, 1061.515
512.0093, 1060.312
512.4914, 1059.444
512.9735, 1059.294
513.4556, 1059.636
513.9377, 1060.352
514.4199, 1061.339
514.9020, 1062.198
515.3841, 1062.396
515.8662, 1061.844
516.3483, 1061.253
516.8304, 1060.592
517.3126, 1059.929
517.7947, 1059.140
518.2768, 1058.407
518.7589, 1058.016
519.2410, 1058.086
519.7231, 1058.388
520.2053, 1058.509
520.6874, 1058.406
521.1695, 1058.823
521.6516, 1060.433
522.1337, 1061.821
522.6158, 1061.961
523.0980, 1061.142
523.5801, 1060.153
524.0622, 1058.950
524.5443, 1058.020
525.0264, 1057.963
525.5085, 1058.689
525.9907, 1059.817
526.4728, 1061.469
526.9549, 1062.920
527.4370, 1062.819
527.9191, 1060.813
528.4012, 1059.653
528.8834, 1060.466
529.3655, 1061.483
529.8476, 1061.397
530.3297, 1060.450
530.8118, 1059.515
531.2939, 1059.044
531.7761, 1058.973
532.2582, 1059.174
532.7403, 1059.868
533.2224, 1060.401
533.7045, 1060.171
534.1866, 1060.284
534.6688, 1061.900
535.1509, 1064.499
535.6330, 1066.444
536.1151, 1066.537
536.5972, 1065.426
537.0793, 1064.749
537.5615, 1064.495
538.0436, 1064.775
538.5257, 1066.245
539.0078, 1067.802
539.4899, 1068.361
539.9720, 1067.953
540.4542, 1067.625
540.9363, 1068.220
541.4184, 1069.040
541.9005, 1068.915
542.3826, 1067.863
542.8647, 1066.902
543.3469, 1066.396
543.8290, 1066.488
544.3111, 1067.800
544.7932, 1071.330
545.2753, 1073.553
545.7574, 1073.001
546.2396, 1071.638
546.7217, 1071.046
547.2038, 1071.295
547.6859, 1071.677
548.1680, 1071.648
548.6501, 1071.442
549.1323, 1072.203
549.6144, 1074.865
550.0965, 1076.863
550.5786, 1077.400
551.0607, 1077.672
551.5428, 1078.460
552.0250, 1079.844
552.5071, 1081.605
552.9892, 1084.165
553.4713, 1086.797
553.9534, 1086.879
554.4355, 1083.746
554.9177, 1081.461
555.3998, 1082.060
555.8819, 1084.067
556.3640, 1085.434
556.8461, 1086.058
557.3282, 1086.665
557.8104, 1087.893
558.2925, 1089.047
558.7746, 1088.855
559.2567, 1087.502
559.7388, 1086.865
560.2209, 1088.159
560.7031, 1090.836
561.1852, 1093.157
561.6673, 1095.739
562.1494, 1097.039
562.6315, 1095.590
563.1136, 1093.989
563.5958, 1094.326
564.0779, 1096.371
564.5600, 1098.554
565.0421, 1099.789
565.5242, 1100.304
566.0063, 1100.778
566.4885, 1101.046
566.9706, 1101.741
567.4527, 1103.852
567.9348, 1105.801
568.4169, 1106.035
568.8990, 1104.801
569.3812, 1104.228
569.8633, 1106.004
570.3454, 1108.787
570.8275, 1110.840
571.3096, 1112.147
571.7917, 1112.674
572.2739, 1112.156
572.7560, 1111.266
573.2381, 1111.220
573.7202, 1112.167
574.2023, 1113.320
574.6844, 1114.758
575.1666, 1116.261
575.6487, 1117.730
576.1308, 1119.137
576.6129, 1120.435
577.0950, 1121.598
577.5771, 1122.692
578.0593, 1123.957
578.5414, 1125.738
579.0235, 1126.729
579.5056, 1125.728
579.9877, 1124.977
580.4698, 1125.602
580.9520, 1127.263
581.4341, 1129.132
581.9162, 1130.999
582.3983, 1132.568
582.8804, 1133.302
583.3625, 1133.274
583.8447, 1133.248
584.3268, 1133.364
584.8089, 1133.603
585.2910, 1133.872
585.7731, 1134.207
586.2552, 1134.962
586.7374, 1136.671
587.2195, 1138.289
587.7016, 1138.969
588.1837, 1139.266
588.6658, 1140.213
589.1479, 1142.101
589.6301, 1144.394
590.1122, 1146.602
590.5943, 1148.855
591.0764, 1149.662
591.5585, 1146.863
592.0406, 1145.132
592.5228, 1146.380
593.0049, 1148.889
593.4870, 1150.637
593.9691, 1151.107
594.4512, 1151.153
594.9333, 1151.646
595.4155, 1152.413
595.8976, 1152.557
596.3797, 1151.851
596.8618, 1151.336
597.3439, 1151.782
597.8260, 1152.780
598.3082, 1153.281
598.7903, 1153.078
599.2724, 1152.919
599.7545, 1153.116
600.2366, 1153.435
600.7188, 1153.635
601.2009, 1153.702
601.6830, 1153.730
602.1651, 1153.783
602.6472, 1153.847
603.1293, 1153.876
603.6115, 1153.865
604.0936, 1153.813
604.5757, 1153.626
605.0578, 1153.476
605.5399, 1153.763
606.0220, 1154.211
606.5042, 1153.963
606.9863, 1152.352
607.4684, 1150.086
607.9505, 1148.102
608.4326, 1146.409
608.9147, 1145.457
609.3969, 1145.582
609.8790, 1146.090
610.3611, 1146.186
610.8432, 1145.924
611.3253, 1146.008
611.8074, 1147.606
612.2896, 1148.427
612.7717, 1146.560
613.2538, 1143.296
613.7359, 1140.880
614.2180, 1139.954
614.7001, 1139.555
615.1823, 1138.531
615.6644, 1136.838
616.1465, 1135.437
616.6286, 1134.735
617.1107, 1133.759
617.5928, 1132.189
618.0750, 1130.290
618.5571, 1128.253
619.0392, 1126.136
619.5213, 1124.138
620.0034, 1122.400
620.4855, 1120.898
620.9677, 1119.668
621.4498, 1118.734
621.9319, 1117.561
622.4140, 1115.745
622.8961, 1113.699
623.3782, 1112.417
623.8604, 1112.321
624.3425, 1111.569
624.8246, 1109.363
625.3067, 1106.969
625.7888, 1105.152
626.2709, 1103.857
626.7531, 1102.841
627.2352, 1102.000
627.7173, 1101.049
628.1994, 1099.430
628.6815, 1097.016
629.1636, 1094.568
629.6458, 1092.088
630.1279, 1089.631
630.6100, 1087.010
631.0921, 1084.466
631.5742, 1082.502
632.0563, 1081.394
632.5385, 1080.425
633.0206, 1079.075
633.5027, 1077.508
633.9848, 1076.076
634.4669, 1074.827
634.9490, 1073.511
635.4312, 1071.943
635.9133, 1070.160
636.3954, 1068.294
636.8775, 1066.330
637.3596, 1064.319
637.8417, 1062.085
638.3239, 1059.961
638.8060, 1058.369
639.2881, 1057.121
639.7702, 1055.592
640.2523, 1053.356
640.7344, 1050.756
641.2166, 1048.433
641.6987, 1046.379
642.1808, 1044.521
642.6629, 1042.898
643.1450, 1041.361
643.6271, 1039.768
644.1093, 1038.140
644.5914, 1036.587
645.0735, 1035.325
645.5556, 1033.926
646.0377, 1032.075
646.5198, 1030.019
647.0020, 1028.238
647.4841, 1026.766
647.9662, 1025.010
648.4483, 1022.311
648.9304, 1018.937
649.4125, 1016.778
649.8947, 1016.800
650.3768, 1016.249
650.8589, 1014.519
651.3410, 1012.197
651.8231, 1009.451
652.3052, 1006.423
652.7874, 1003.514
653.2695, 1000.654
653.7516, 998.2629
654.2337, 997.2155
654.7158, 997.2029
655.1979, 996.7593
655.6801, 995.4240
656.1622, 993.8235
656.6443, 992.7219
657.1264, 992.1884
657.6085, 990.8331
658.0906, 987.8804
658.5728, 985.2072
659.0549, 983.1143
659.5370, 981.5897
660.0191, 980.8367
660.5012, 980.7161
660.9833, 980.5208
661.4655, 979.8294
661.9476, 978.5370
662.4297, 975.9162
662.9118, 971.6688
663.3939, 968.6080
663.8760, 968.3163
664.3582, 968.7245
664.8403, 967.0097
665.3224, 963.3860
665.8045, 960.8237
666.2866, 960.5594
666.7687, 960.6663
667.2509, 960.5092
667.7330, 959.8685
668.2151, 958.2477
668.6972, 955.6080
669.1793, 952.7338
669.6614, 950.3293
670.1436, 948.4094
670.6257, 947.2602
671.1078, 947.4621
671.5899, 947.2259
672.0720, 945.8915
672.5541, 944.0220
673.0363, 941.8563
673.5184, 939.4693
674.0005, 937.2521
674.4826, 935.3230
674.9647, 933.6484
675.4468, 932.1405
675.9290, 930.8478
676.4111, 930.1804
676.8932, 930.2899
677.3753, 930.0413
677.8574, 927.9232
678.3395, 923.8198
678.8217, 920.8911
679.3038, 920.0119
679.7859, 919.2490
680.2680, 918.7665
680.7501, 917.9548
681.2322, 915.9460
681.7144, 912.8890
682.1965, 910.1100
682.6786, 908.4495
683.1607, 907.6362
683.6428, 907.5818
684.1249, 908.1522
684.6071, 908.1110
685.0892, 906.9714
685.5713, 905.5186
686.0534, 904.7276
686.5355, 904.6759
687.0176, 903.8028
687.4998, 901.2504
687.9819, 899.0270
688.4640, 897.8279
688.9461, 897.0765
689.4282, 896.2674
689.9103, 895.2817
690.3925, 894.1312
690.8746, 892.7557
691.3567, 891.3031
691.8388, 890.1318
692.3209, 889.2515
692.8030, 888.5323
693.2852, 887.9869
693.7673, 887.5237
694.2494, 887.1337
694.7315, 886.7921
695.2136, 886.1419
695.6957, 884.8199
696.1779, 883.6154
696.6600, 883.0520
697.1421, 882.5988
697.6242, 881.4114
698.1063, 879.5845
698.5884, 878.2077
699.0706, 878.2438
699.5527, 879.0870
700.0348, 878.8566
700.5169, 877.3130
700.9990, 876.2655
701.4811, 876.3500
701.9633, 876.6127
702.4454, 876.0366
702.9275, 874.9387
703.4096, 874.4259
703.8917, 875.3127
704.3738, 875.8801
704.8560, 874.9459
705.3381, 873.5670
705.8202, 873.1444
706.3023, 873.6754
706.7844, 874.1585
707.2665, 873.9352
707.7487, 873.0934
708.2308, 871.6138
708.7129, 869.0938
709.1950, 867.9170
709.6771, 869.3544
710.1592, 870.8798
710.6414, 870.7939
711.1235, 869.6465
711.6056, 868.5499
712.0877, 867.6642
712.5698, 866.9077
713.0519, 866.2979
713.5341, 865.7751
714.0162, 865.1437
714.4983, 864.5008
714.9804, 864.3511
715.4625, 865.0294
715.9446, 866.0294
716.4268, 866.0886
716.9089, 864.7557
717.3910, 864.6094
717.8731, 866.9577
718.3552, 868.7875
718.8373, 868.4946
719.3195, 866.9387
719.8016, 865.1672
720.2837, 863.2153
720.7658, 861.6885
721.2479, 860.9493
721.7300, 860.7247
722.2122, 860.9820
722.6943, 861.5084
723.1764, 861.6564
723.6585, 861.1389
724.1406, 860.3490
724.6227, 859.8804
725.1049, 859.7596
725.5870, 859.6935
726.0691, 859.7786
726.5512, 859.7578
727.0333, 859.3187
727.5154, 858.8707
727.9976, 859.0277
728.4797, 859.8063
728.9618, 860.0818
729.4439, 858.5919
729.9260, 857.0718
730.4081, 857.6574
730.8903, 859.3975
731.3724, 859.7558
731.8545, 858.0621
732.3366, 855.9818
732.8187, 855.3142
733.3008, 855.9163
733.7830, 856.0281
734.2651, 855.5385
734.7472, 854.8016
735.2293, 853.1765
735.7114, 851.9376
736.1935, 852.4807
736.6757, 854.3493
737.1578, 855.4031
737.6399, 854.4828
738.1220, 853.2278
738.6041, 852.8484
739.0862, 852.8004
739.5684, 852.0705
740.0505, 850.6221
740.5326, 849.3382
741.0147, 848.8850
741.4968, 848.9775
741.9789, 848.7094
742.4611, 847.9034
742.9432, 847.4114
743.4253, 847.7239
743.9074, 847.8359
744.3895, 846.8290
744.8716, 845.3288
745.3538, 844.5425
745.8359, 844.8390
746.3180, 845.2531
746.8001, 845.3098
747.2822, 845.3050
747.7643, 845.6287
748.2465, 846.1786
748.7286, 846.5219
749.2107, 846.4619
749.6928, 846.3190
750.1749, 846.8050
750.6570, 848.0118
751.1392, 847.6987
751.6213, 844.9996
752.1034, 842.7719
752.5855, 842.4507
753.0676, 842.9692
753.5497, 843.0768
754.0319, 842.7438
754.5140, 842.3326
754.9961, 841.5995
755.4782, 841.1472
755.9603, 841.7841
756.4424, 842.7557
756.9246, 842.7634
757.4067, 841.6376
757.8888, 840.3889
758.3709, 839.8902
758.8530, 839.9170
759.3351, 839.5994
759.8173, 838.8300
760.2994, 838.7507
760.7815, 840.0467
761.2636, 841.2995
761.7457, 841.2225
762.2278, 840.0505
762.7100, 839.0026
763.1921, 838.1389
763.6742, 837.3609
764.1563, 836.2141
764.6384, 835.5101
765.1205, 836.4959
765.6027, 838.4801
766.0848, 839.5290
766.5669, 838.7217
767.0490, 837.1553
767.5311, 836.2775
768.0132, 835.9255
768.4954, 835.0295
768.9775, 833.4058
769.4596, 832.3088
769.9417, 832.4930
770.4238, 833.3075
770.9059, 833.6123
771.3881, 833.2188
771.8702, 833.0456
772.3523, 833.0920
772.8344, 833.3418
773.3165, 834.3437
773.7986, 835.2149
774.2808, 834.5898
774.7629, 832.5519
775.2450, 830.9991
775.7271, 831.7018
776.2092, 833.1248
776.6913, 832.6908
777.1735, 830.9182
777.6556, 829.9697
778.1377, 830.3485
778.6198, 831.3546
779.1019, 832.5002
779.5840, 833.6876
780.0662, 834.4082
780.5483, 834.6259
781.0304, 834.4304
781.5125, 833.4142
781.9946, 832.4094
782.4767, 831.8961
782.9589, 831.6606
783.4410, 831.2012
783.9231, 830.2932
784.4052, 829.6844
784.8873, 830.2914
785.3694, 831.1348
785.8516, 830.7455
786.3337, 829.4656
786.8158, 828.7733
787.2979, 829.2542
787.7800, 830.1083
788.2621, 830.2177
788.7443, 829.6246
789.2264, 829.7979
789.7085, 831.3004
790.1906, 831.9451
790.6727, 830.2635
791.1548, 828.2740
791.6370, 828.3673
792.1191, 830.1669
792.6012, 830.9994
793.0833, 829.1848
793.5654, 827.9438
794.0475, 829.2802
794.5297, 831.2261
795.0118, 831.7951
795.4939, 830.9809
795.9760, 829.6539
796.4581, 828.2041
796.9402, 827.0417
797.4224, 826.9600
797.9045, 827.7899
798.3866, 828.5558
798.8687, 829.2357
799.3508, 829.2165
799.8329, 827.9832
800.3151, 826.1673
800.7972, 824.8947
801.2793, 824.1553
801.7614, 824.0182
802.2435, 825.4461
802.7256, 826.2451
803.2078, 824.8710
803.6899, 823.1524
804.1720, 823.1556
804.6541, 824.9178
805.1362, 826.7950
805.6183, 828.1126
806.1005, 828.9227
806.5826, 829.4173
807.0647, 829.4140
807.5468, 828.2585
808.0289, 825.9509
808.5110, 823.4303
808.9932, 821.2601
809.4753, 819.6530
809.9574, 819.4218
810.4395, 821.1229
810.9216, 821.5641
811.4037, 819.6254
811.8859, 818.0236
812.3680, 818.7132
812.8501, 820.2777
813.3322, 820.4528
813.8143, 818.8367
814.2964, 818.1213
814.7786, 819.7994
815.2607, 821.6069
815.7428, 822.3455
816.2249, 822.3268
816.7070, 821.9177
817.1891, 821.2871
817.6713, 820.6989
818.1534, 820.4008
818.6355, 820.1956
819.1176, 819.3765
819.5997, 818.1379
820.0818, 818.3899
820.5640, 820.6679
821.0461, 822.5480
821.5282, 822.1526
822.0103, 820.2947
822.4924, 819.4973
822.9745, 820.5422
823.4567, 820.8860
823.9388, 820.0165
824.4209, 819.0459
824.9030, 818.1393
825.3851, 817.4775
825.8672, 817.3824
826.3494, 817.8864
826.8315, 818.3543
827.3136, 818.8799
827.7957, 818.8958
828.2778, 817.2894
828.7599, 815.0450
829.2421, 814.1503
829.7242, 814.8220
830.2063, 815.5421
830.6884, 815.0889
831.1705, 814.0731
831.6526, 814.1564
832.1348, 815.3828
832.6169, 816.2044
833.0990, 816.4834
833.5811, 816.0965
834.0632, 814.5390
834.5453, 812.5723
835.0275, 811.9504
835.5096, 813.2761
835.9917, 814.1522
836.4738, 814.2343
836.9559, 814.2487
837.4380, 814.2474
837.9202, 814.4520
838.4023, 815.5068
838.8844, 817.2098
839.3665, 817.9388
839.8486, 816.1618
840.3307, 813.8737
840.8129, 812.9418
841.2950, 813.0436
841.7771, 814.0439
842.2592, 815.6213
842.7413, 816.0994
843.2234, 814.3198
843.7056, 811.4656
844.1877, 809.9210
844.6698, 809.7775
845.1519, 809.8998
845.6340, 810.3287
846.1161, 810.8203
846.5983, 811.3029
847.0804, 811.7616
847.5625, 812.2396
848.0446, 812.7571
848.5267, 812.9039
849.0089, 812.1905
849.4910, 811.7072
849.9731, 812.0207
850.4552, 812.4886
850.9373, 812.5854
851.4194, 812.3010
851.9016, 811.7730
852.3837, 810.9484
852.8658, 810.3148
853.3479, 810.6815
853.8300, 811.3729
854.3121, 810.8715
854.7943, 809.4249
855.2764, 808.7988
855.7585, 809.7648
856.2406, 811.1390
856.7227, 811.3233
857.2048, 810.4260
857.6870, 809.8748
858.1691, 809.6682
858.6512, 809.8719
859.1333, 810.7877
859.6154, 811.6495
860.0975, 811.5972
860.5797, 810.8640
861.0618, 810.7968
861.5439, 812.0845
862.0260, 812.8752
862.5081, 812.7850
862.9902, 812.3473
863.4724, 811.7531
863.9545, 811.0854
864.4366, 810.2211
864.9187, 809.1621
865.4008, 808.8076
865.8829, 810.6180
866.3651, 812.7486
866.8472, 813.0372
867.3293, 811.9525
867.8114, 810.2511
868.2935, 808.3234
868.7756, 807.4395
869.2578, 808.6656
869.7399, 811.2585
870.2220, 813.6563
870.7041, 815.8918
871.1862, 816.9223
871.6683, 816.5179
872.1505, 815.3063
872.6326, 813.1535
873.1147, 810.8879
873.5968, 810.0056
874.0789, 810.8529
874.5610, 811.2118
875.0432, 810.5040
875.5253, 810.0867
876.0074, 810.5464
876.4895, 811.1932
876.9716, 811.5444
877.4537, 811.5539
877.9359, 811.2615
878.4180, 810.5814
878.9001, 809.8536
879.3822, 809.0081
879.8643, 808.4285
880.3464, 808.8396
880.8286, 809.8783
881.3107, 810.4730
881.7928, 810.2553
882.2749, 809.8346
882.7570, 809.9210
883.2391, 810.2947
883.7213, 810.1926
884.2034, 809.6497
884.6855, 809.2360
885.1676, 809.0938
885.6497, 809.0636
886.1318, 809.1127
886.6140, 809.0704
887.0961, 808.2035
887.5782, 805.5641
888.0603, 804.5978
888.5424, 806.6876
889.0245, 808.5602
889.5067, 808.6944
889.9888, 808.0472
890.4709, 807.5861
890.9530, 807.3555
891.4351, 807.3866
891.9172, 808.2128
892.3994, 808.6398
892.8815, 807.6298
893.3636, 806.4117
893.8457, 806.4815
894.3278, 807.4459
894.8099, 807.7657
895.2921, 806.7385
895.7742, 805.3704
896.2563, 804.2698
896.7384, 803.6462
897.2205, 804.2530
897.7026, 805.7394
898.1848, 806.6577
898.6669, 806.5723
899.1490, 806.1824
899.6311, 806.2459
900.1132, 806.4489
900.5953, 805.2241
901.0775, 802.3216
901.5596, 801.0111
902.0417, 802.1078
902.5238, 803.6464
903.0059, 804.5905
903.4880, 805.0987
903.9702, 805.5198
904.4523, 805.9321
904.9344, 805.9052
905.4165, 804.5812
905.8986, 803.9193
906.3807, 804.9208
906.8629, 806.2993
907.3450, 807.1849
907.8271, 807.4642
908.3092, 806.9521
908.7913, 805.0446
909.2734, 803.4962
909.7556, 803.0101
910.2377, 803.2859
910.7198, 804.7202
911.2019, 806.5135
911.6840, 806.9742
912.1661, 805.7319
912.6483, 804.4836
913.1304, 804.8343
913.6125, 805.8685
914.0946, 806.2200
914.5767, 805.9827
915.0588, 805.2672
915.5410, 804.1711
916.0231, 803.3785
916.5052, 803.3357
916.9873, 803.7388
917.4694, 804.0892
917.9515, 804.3972
918.4337, 804.1973
918.9158, 803.2745
919.3979, 802.8902
919.8800, 803.7252
920.3621, 804.7629
920.8442, 804.9721
921.3264, 804.3996
921.8085, 803.5216
922.2906, 801.5417
922.7727, 800.5705
923.2548, 801.4277
923.7369, 802.4781
924.2191, 803.2199
924.7012, 803.5584
925.1833, 803.2786
925.6654, 802.3351
926.1475, 801.4463
926.6296, 800.5305
927.1118, 800.0741
927.5939, 800.8966
928.0760, 801.8997
928.5581, 801.5449
929.0402, 800.2099
929.5223, 799.6257
930.0045, 800.6253
930.4866, 802.0226
930.9687, 803.1393
931.4508, 803.7236
931.9329, 802.9118
932.4150, 801.2267
932.8972, 800.2813
933.3793, 800.5160
933.8614, 801.4794
934.3435, 803.0159
934.8256, 804.4778
935.3077, 803.8567
935.7899, 801.3498
936.2720, 799.9341
936.7541, 800.0204
937.2362, 800.1462
937.7183, 799.5556
938.2004, 798.7758
938.6826, 798.6713
939.1647, 799.2711
939.6468, 799.2165
940.1289, 798.2803
940.6110, 797.2107
941.0931, 795.7308
941.5753, 794.7126
942.0574, 795.2087
942.5395, 796.5549
943.0216, 796.8913
943.5037, 795.8212
943.9858, 794.9611
944.4680, 794.4909
944.9501, 794.1954
945.4322, 794.0149
945.9143, 793.9567
946.3964, 793.8547
946.8785, 793.8508
947.3607, 794.6556
947.8428, 797.2429
948.3249, 799.0760
948.8070, 798.0346
949.2891, 796.2508
949.7712, 795.6230
950.2534, 795.8660
950.7355, 796.2440
951.2176, 796.4896
951.6997, 796.4293
952.1818, 795.7698
952.6639, 794.9370
953.1461, 794.5229
953.6282, 794.3893
954.1103, 794.1507
954.5924, 793.8264
955.0745, 793.9386
955.5566, 794.7623
956.0388, 795.4949
956.5209, 794.8887
957.0030, 793.2570
957.4851, 792.0723
957.9672, 791.3343
958.4493, 791.3972
958.9315, 792.4785
959.4136, 793.2363
959.8957, 792.6055
960.3778, 791.1132
960.8599, 790.0779
961.3420, 789.5322
961.8242, 789.3240
962.3063, 789.6179
962.7884, 789.8368
963.2705, 789.7683
963.7526, 789.5768
964.2347, 789.3488
964.7169, 789.1211
965.1990, 789.1734
965.6811, 789.9342
966.1632, 790.3154
966.6453, 790.3119
967.1274, 789.9362
967.6096, 788.7492
968.0917, 787.4523
968.5738, 786.9279
969.0559, 787.2172
969.5380, 787.7392
970.0201, 789.1271
970.5023, 789.6979
970.9844, 788.1547
971.4665, 786.2020
971.9486, 785.0858
972.4307, 784.6760
972.9128, 784.5250
973.3950, 784.5043
973.8771, 784.4216
974.3592, 784.1672
974.8413, 783.7963
975.3234, 783.2191
975.8055, 782.6328
976.2877, 782.2600
976.7698, 782.1656
977.2519, 782.5941
977.7340, 783.6931
978.2161, 784.4156
978.6982, 782.9481
979.1804, 780.6849
979.6625, 780.6592
980.1446, 782.2119
980.6267, 782.9244
981.1088, 782.3239
981.5909, 781.3984
982.0731, 780.7936
982.5552, 780.4310
983.0373, 780.0515
983.5194, 779.7427
984.0015, 780.4612
984.4836, 782.2235
984.9658, 782.9583
985.4479, 781.9326
985.9300, 780.4423
986.4121, 779.6216
986.8942, 779.3764
987.3763, 779.4296
987.8585, 779.8285
988.3406, 780.2318
988.8227, 780.6492
989.3048, 781.0115
989.7869, 781.4128
990.2690, 781.4822
990.7512, 780.5814
991.2333, 778.8497
991.7154, 778.1213
992.1975, 778.9809
992.6796, 779.6004
993.1617, 779.7018
993.6439, 779.7617
994.1260, 779.9617
994.6081, 780.2779
995.0902, 780.8359
995.5723, 781.6702
996.0544, 781.8160
996.5366, 780.4124
997.0187, 779.5095
997.5008, 780.3068
997.9829, 780.8116
998.4650, 779.0584
998.9471, 776.4840
999.4293, 775.8613
999.9114, 777.6600
1000.393, 778.8080
1000.876, 778.3118
1001.358, 777.1887
1001.840, 774.8796
1002.322, 772.9597
1002.804, 773.3365
1003.286, 775.1218
1003.768, 775.9531
1004.250, 775.1176
1004.733, 774.6190
1005.215, 776.2939
1005.697, 777.8839
1006.179, 777.1319
1006.661, 775.6433
1007.143, 775.5043
1007.625, 776.6940
1008.107, 778.2744
1008.589, 779.9045
1009.072, 781.1375
1009.554, 781.6857
1010.036, 781.5482
1010.518, 780.2040
1011.000, 778.3539
1011.482, 777.3885
1011.964, 777.4200
1012.446, 777.7374
1012.929, 777.9955
1013.411, 777.9758
1013.893, 776.9818
1014.375, 775.7380
1014.857, 776.0552
1015.339, 777.4533
1015.821, 778.2035
1016.303, 777.9152
1016.785, 776.9504
1017.268, 775.4686
1017.750, 773.9993
1018.232, 773.4081
1018.714, 773.5660
1019.196, 774.1797
1019.678, 775.1216
1020.160, 775.3805
1020.642, 774.6804
1021.125, 773.6655
1021.607, 772.8236
1022.089, 772.0982
1022.571, 771.2271
1023.053, 770.2473
1023.535, 770.1190
1024.017, 770.9078
1024.499, 771.7967
1024.981, 772.5693
1025.464, 773.1024
1025.946, 773.2704
1026.428, 773.1365
1026.910, 772.8162
1027.392, 772.2526
1027.874, 772.0638
1028.356, 772.2976
1028.838, 772.8303
1029.321, 773.7517
1029.803, 774.5656
1030.285, 774.7852
1030.767, 774.4939
1031.249, 773.9753
1031.731, 772.9408
1032.213, 772.9068
1032.695, 774.5349
1033.177, 775.5181
1033.660, 774.8188
1034.142, 773.4014
1034.624, 771.9233
1035.106, 770.6097
1035.588, 771.0980
1036.070, 774.9832
1036.552, 776.7613
1037.034, 775.1750
1037.516, 773.4750
1037.999, 772.8887
1038.481, 772.7148
1038.963, 772.1722
1039.445, 771.3489
1039.927, 770.9229
1040.409, 771.2151
1040.891, 771.3463
1041.373, 771.3685
1041.855, 771.1611
1042.338, 770.2414
1042.820, 769.3953
1043.302, 769.7530
1043.784, 771.0737
1044.266, 771.4689
1044.748, 770.2208
1045.230, 769.1721
1045.712, 768.5447
1046.195, 767.9846
1046.677, 767.0215
1047.159, 766.2879
1047.641, 766.7150
1048.123, 768.1097
1048.605, 769.0293
1049.087, 769.1723
1049.569, 769.1031
1050.052, 768.5364
1050.534, 768.1936
1051.016, 768.3088
1051.498, 768.8798
1051.980, 770.3522
1052.462, 772.3943
1052.944, 773.1799
1053.426, 771.5820
1053.908, 770.3547
1054.391, 770.6381
1054.873, 770.8322
1055.355, 769.5811
1055.837, 768.1846
1056.319, 768.3320
1056.801, 769.8376
1057.283, 771.1022
1057.765, 771.7862
1058.248, 772.1266
1058.730, 772.2101
1059.212, 771.9580
1059.694, 770.6144
1060.176, 769.4130
1060.658, 770.2433
1061.140, 772.6245
1061.622, 773.9276
1062.104, 773.0976
1062.587, 772.1463
1063.069, 771.6121
1063.551, 771.3681
1064.033, 771.4615
1064.515, 771.7205
1064.997, 772.1379
1065.479, 772.5469
1065.961, 772.3995
1066.443, 771.3336
1066.926, 770.4373
1067.408, 770.4567
1067.890, 770.4235
1068.372, 769.1671
1068.854, 767.9651
1069.336, 768.7394
1069.818, 770.9122
1070.300, 772.2007
1070.782, 771.9193
1071.265, 770.8903
1071.747, 768.5073
1072.229, 766.6059
1072.711, 766.8251
1073.193, 767.7043
1073.675, 767.4065
1074.157, 766.3453
1074.639, 766.2975
1075.122, 767.9207
1075.604, 769.2870
1076.086, 769.0847
1076.568, 768.8895
1077.050, 770.2230
1077.532, 771.5549
1078.014, 770.8734
1078.496, 768.8904
1078.979, 767.7525
1079.461, 768.0462
1079.943, 768.4221
1080.425, 768.2213
1080.907, 767.9944
1081.389, 768.3532
1081.871, 768.5637
1082.353, 767.3301
1082.835, 765.5629
1083.318, 765.4277
1083.800, 767.3893
1084.282, 769.2914
1084.764, 770.7396
1085.246, 771.2220
1085.728, 769.4927
1086.210, 767.6039
1086.692, 767.7093
1087.175, 768.8182
1087.657, 768.7371
1088.139, 767.1846
1088.621, 766.2742
1089.103, 767.1196
1089.585, 768.3801
1090.067, 770.2313
1090.549, 771.5234
1091.031, 770.8892
1091.514, 769.3485
1091.996, 768.3284
1092.478, 768.0558
1092.960, 768.3446
1093.442, 769.8845
1093.924, 770.5665
1094.406, 768.6337
1094.888, 766.6472
1095.370, 766.2159
1095.853, 766.7705
1096.335, 767.7426
1096.817, 768.9180
1097.299, 769.8440
1097.781, 770.5909
1098.263, 770.6176
1098.745, 768.9371
1099.227, 767.4702
1099.709, 767.6398
1100.192, 768.2262
1100.674, 767.5555
1101.156, 766.1134
1101.638, 766.0204
1102.120, 768.2126
1102.602, 769.6736
1103.084, 769.2688
1103.566, 768.5003
1104.049, 767.8002
1104.531, 767.1078
1105.013, 765.9246
1105.495, 764.7831
1105.977, 765.1140
1106.459, 767.3739
1106.941, 769.0872
1107.423, 769.4582
1107.906, 769.7766
1108.388, 770.8812
1108.870, 771.5355
1109.352, 770.3392
1109.834, 768.4024
1110.316, 767.7624
1110.798, 768.5992
1111.280, 769.1848
1111.762, 769.4598
1112.245, 769.3831
1112.727, 768.6828
1113.209, 767.9466
1113.691, 767.3384
1114.173, 766.9313
1114.655, 766.8148
1115.137, 766.9817
1115.619, 767.3562
1116.102, 767.9763
1116.584, 768.7300
1117.066, 769.8252
1117.548, 770.7377
1118.030, 771.4395
1118.512, 771.6902
1118.994, 770.8947
1119.476, 769.5098
1119.958, 769.5154
1120.441, 771.7714
1120.923, 772.6024
1121.405, 771.2874
1121.887, 770.1256
1122.369, 769.7042
1122.851, 769.5945
1123.333, 769.5328
1123.815, 769.5218
1124.297, 769.5658
1124.780, 769.6700
1125.262, 769.8305
1125.744, 770.1195
1126.226, 770.1248
1126.708, 769.5956
1127.190, 769.4630
1127.672, 770.4509
1128.154, 771.5225
1128.636, 770.9397
1129.119, 769.0613
1129.601, 769.1345
1130.083, 771.3793
1130.565, 773.1891
1131.047, 774.3254
1131.529, 774.6990
1132.011, 774.2048
1132.493, 773.3643
1132.976, 772.6701
1133.458, 772.1027
1133.940, 771.5680
1134.422, 771.0845
1134.904, 770.8538
1135.386, 770.8961
1135.868, 771.5364
1136.350, 772.8428
1136.833, 773.7000
1137.315, 773.2467
1137.797, 772.4078
1138.279, 772.9384
1138.761, 774.3371
1139.243, 774.8972
1139.725, 774.7239
1140.207, 774.0875
1140.689, 773.1815
1141.172, 772.8541
1141.654, 773.4971
1142.136, 774.2281
1142.618, 773.9576
1143.100, 774.4456
1143.582, 773.6406
1144.064, 774.3641
1144.546, 774.1678
1145.029, 773.4274
1145.511, 773.8098
1145.993, 775.6660
1146.475, 777.5896
1146.957, 778.7443
1147.439, 779.2748
1147.921, 779.3800
1148.403, 778.8943
1148.885, 776.9747
1149.368, 774.6337
1149.850, 773.5453
1150.332, 773.8712
1150.814, 775.1064
1151.296, 777.3293
1151.778, 778.6917
1152.260, 777.3314
1152.742, 775.6070
1153.224, 775.0226
1153.707, 774.9860
1154.189, 774.9502
1154.671, 774.8427
1155.153, 774.6627
1155.635, 774.4093
1156.117, 774.2283
1156.599, 774.5146
1157.081, 774.3857
1157.563, 772.9177
1158.046, 771.6620
1158.528, 771.6295
1159.010, 772.3537
1159.492, 773.5270
1159.974, 774.9492
1160.456, 775.3715
1160.938, 773.6906
1161.420, 772.9512
1161.903, 774.1722
1162.385, 775.0430
1162.867, 774.6248
1163.349, 773.9966
1163.831, 773.9846
1164.313, 774.3817
1164.795, 774.7365
1165.277, 775.0911
1165.760, 774.9960
1166.242, 774.2264
1166.724, 773.7316
1167.206, 773.6836
1167.688, 773.9286
1168.170, 774.5696
1168.652, 774.9120
1169.134, 773.8633
1169.616, 774.1692
1170.099, 773.9226
1170.581, 773.2606
1171.063, 773.6293
1171.545, 772.6263
1172.027, 772.2344
1172.509, 773.0687
1172.991, 773.5031
1173.473, 772.2028
1173.956, 770.3458
1174.438, 770.0685
1174.920, 770.8696
1175.402, 771.2746
1175.884, 771.2924
1176.366, 770.8504
1176.848, 770.0897
1177.330, 769.7249
1177.813, 770.0458
1178.295, 770.4676
1178.777, 770.5300
1179.259, 770.3380
1179.741, 769.6576
1180.223, 769.0706
1180.705, 769.9864
1181.187, 771.4725
1181.669, 771.2476
1182.151, 769.2145
1182.634, 767.4042
1183.116, 766.7546
1183.598, 766.4027
1184.080, 765.5055
1184.562, 765.1326
1185.044, 766.7361
1185.526, 768.6122
1186.008, 768.7325
1186.490, 767.7220
1186.973, 767.5515
1187.455, 768.6222
1187.937, 768.9322
1188.419, 767.1666
1188.901, 765.9849
1189.383, 766.3392
1189.865, 766.8743
1190.347, 766.7849
1190.830, 766.6403
1191.312, 767.3293
1191.794, 768.5154
1192.276, 768.4055
1192.758, 766.2019
1193.240, 765.5517
1193.722, 767.1757
1194.204, 768.1405
1194.687, 767.5502
1195.169, 766.9138
1195.651, 767.1980
1196.133, 767.9733
1196.615, 768.7117
1197.097, 769.2589
1197.579, 768.3619
1198.061, 766.1288
1198.543, 764.7755
1199.026, 764.4724
1199.508, 764.4847
1199.990, 764.5590
1200.472, 764.8784
1200.954, 765.6829
1201.436, 766.3336
1201.918, 765.3438
1202.400, 763.8041
1202.883, 764.5215
1203.365, 766.2789
1203.847, 765.8679
1204.329, 763.4901
1204.811, 761.5594
1205.293, 760.9796
1205.775, 760.9778
1206.257, 761.2092
1206.740, 761.5793
1207.222, 762.1322
1207.704, 762.6881
1208.186, 763.1993
1208.668, 763.5380
1209.150, 763.4855
1209.632, 763.0916
1210.114, 762.6543
1210.596, 762.1764
1211.078, 761.8743
1211.561, 761.5220
1212.043, 761.7122
1212.525, 763.7233
1213.007, 765.1101
1213.489, 763.6169
1213.971, 761.0715
1214.453, 760.4578
1214.935, 761.6224
1215.417, 761.7448
1215.900, 760.3152
1216.382, 759.7687
1216.864, 760.3254
1217.346, 761.5814
1217.828, 763.6923
1218.310, 764.8323
1218.792, 763.3967
1219.274, 764.3137
1219.757, 761.1047
1220.239, 762.8680
1220.721, 762.3880
1221.203, 760.2208
1221.685, 758.9720
1222.167, 758.9481
1222.649, 759.9724
1223.131, 761.8269
1223.614, 763.0860
1224.096, 762.5460
1224.578, 761.3367
1225.060, 760.4214
1225.542, 759.7806
1226.024, 759.2857
1226.506, 759.1170
1226.988, 759.7396
1227.470, 760.9191
1227.953, 762.0919
1228.435, 763.1257
1228.917, 763.1826
1229.399, 760.6641
1229.881, 758.9504
1230.363, 759.8616
1230.845, 761.0607
1231.327, 761.4479
1231.810, 761.1740
1232.292, 760.1232
1232.774, 758.6119
1233.256, 757.8284
1233.738, 757.7401
1234.220, 758.6772
1234.702, 761.2499
1235.184, 762.8229
1235.667, 762.8136
1236.149, 762.0748
1236.631, 760.9280
1237.113, 759.7775
1237.595, 759.0477
1238.077, 758.7966
1238.559, 759.7470
1239.041, 761.3549
1239.523, 760.2267
1240.005, 756.9503
1240.488, 755.1507
1240.970, 755.3922
1241.452, 755.8544
1241.934, 755.6387
1242.416, 755.4977
1242.898, 756.4158
1243.380, 757.4045
1243.862, 757.3967
1244.344, 756.9773
1244.827, 756.6641
1245.309, 756.5072
1245.791, 756.6082
1246.273, 756.8636
1246.755, 756.7654
1247.237, 756.0360
1247.719, 755.4619
1248.201, 754.9946
1248.684, 755.0206
1249.166, 756.3800
1249.648, 757.4090
1250.130, 756.7579
1250.612, 755.6857
1251.094, 755.9814
1251.576, 757.3771
1252.058, 758.2180
1252.541, 758.5681
1253.023, 757.5607
1253.505, 754.9540
1253.987, 753.8909
1254.469, 755.1329
1254.951, 756.0875
1255.433, 755.2167
1255.915, 754.2501
1256.397, 755.6300
1256.880, 757.8601
1257.362, 757.8289
1257.844, 756.5547
1258.326, 755.6476
1258.808, 755.3891
1259.290, 756.1926
1259.772, 757.9026
1260.254, 759.8026
1260.737, 761.7392
1261.219, 762.7084
1261.701, 761.5167
1262.183, 760.1269
1262.665, 759.0677
1263.147, 758.5999
1263.629, 759.4127
1264.111, 760.5903
1264.594, 761.0209
1265.076, 760.6506
1265.558, 759.2938
1266.040, 756.1423
1266.522, 755.0792
1267.004, 756.7889
1267.486, 758.0524
1267.968, 758.0549
1268.450, 758.7708
1268.932, 761.3951
1269.415, 763.9037
1269.897, 763.9817
1270.379, 762.4005
1270.861, 760.5009
1271.343, 758.6657
1271.825, 758.3717
1272.307, 759.1169
1272.789, 759.3734
1273.271, 758.9218
1273.754, 758.0187
1274.236, 756.7908
1274.718, 756.1556
1275.200, 757.2611
1275.682, 758.3363
1276.164, 758.0284
1276.646, 757.6476
1277.128, 758.6543
1277.611, 759.7145
1278.093, 758.7625
1278.575, 756.5604
1279.057, 755.9763
1279.539, 757.3795
1280.021, 758.3386
1280.503, 758.7886
1280.985, 758.3215
1281.468, 756.5590
1281.950, 756.2903
1282.432, 758.8194
1282.914, 761.3693
1283.396, 761.5875
1283.878, 760.6946
1284.360, 760.9404
1284.842, 761.5468
1285.324, 760.4555
##END=



