##NAMES=Stillwellite-(Ce)
##RRUFFID=R060899
##IDEAL CHEMISTRY=CeBSiO_5_
##LOCALITY=Dara-i-Pioz, Alayskiy Range, South Tien- Shan Mountains, Tajikistan
##OWNER=RRUFF
##SOURCE=Michael Scott
##DESCRIPTION=Red or green (depending upon light source) hexagonal prism associated with aegirine and orthoclase
##STATUS=The identification of this mineral has been made only by X-ray diffraction.
##URL=rruff.info/R060899
135.0267, 897.3914
135.5088, 894.8636
135.9909, 886.0128
136.4730, 876.5385
136.9552, 877.3300
137.4373, 893.4460
137.9194, 914.3073
138.4015, 938.0550
138.8836, 966.7308
139.3657, 1002.532
139.8479, 1046.476
140.3300, 1096.837
140.8121, 1150.471
141.2942, 1209.910
141.7763, 1269.499
142.2584, 1327.133
142.7406, 1385.482
143.2227, 1449.224
143.7048, 1521.165
144.1869, 1597.360
144.6690, 1665.423
145.1511, 1723.828
145.6333, 1776.109
146.1154, 1820.485
146.5975, 1859.468
147.0796, 1898.743
147.5617, 1942.029
148.0438, 1985.836
148.5260, 2012.447
149.0081, 2010.013
149.4902, 2007.677
149.9723, 2018.976
150.4544, 2036.688
150.9365, 2044.131
151.4187, 2031.123
151.9008, 2001.066
152.3829, 1973.705
152.8650, 1944.316
153.3471, 1921.472
153.8292, 1911.843
154.3114, 1912.333
154.7935, 1913.175
155.2756, 1908.135
155.7577, 1898.966
156.2398, 1895.011
156.7219, 1901.715
157.2041, 1908.114
157.6862, 1904.296
158.1683, 1893.007
158.6504, 1888.924
159.1325, 1902.520
159.6146, 1931.719
160.0968, 1958.820
160.5789, 1981.092
161.0610, 2003.306
161.5431, 2029.456
162.0252, 2059.113
162.5073, 2087.506
162.9895, 2110.121
163.4716, 2128.953
163.9537, 2152.571
164.4358, 2187.122
164.9179, 2222.406
165.4000, 2250.365
165.8822, 2270.885
166.3643, 2287.898
166.8464, 2301.792
167.3285, 2314.205
167.8106, 2330.458
168.2927, 2356.383
168.7749, 2382.951
169.2570, 2402.146
169.7391, 2413.727
170.2212, 2420.635
170.7033, 2421.617
171.1854, 2419.448
171.6676, 2421.176
172.1497, 2432.078
172.6318, 2445.107
173.1139, 2453.074
173.5960, 2455.833
174.0781, 2455.036
174.5603, 2446.777
175.0424, 2436.085
175.5245, 2434.013
176.0066, 2448.768
176.4887, 2470.235
176.9708, 2487.024
177.4530, 2499.202
177.9351, 2506.540
178.4172, 2502.639
178.8993, 2494.223
179.3814, 2493.893
179.8635, 2509.423
180.3457, 2532.137
180.8278, 2550.608
181.3099, 2563.939
181.7920, 2576.701
182.2741, 2591.898
182.7562, 2608.362
183.2384, 2624.337
183.7205, 2638.786
184.2026, 2652.736
184.6847, 2667.684
185.1668, 2683.544
185.6489, 2700.263
186.1311, 2719.268
186.6132, 2738.896
187.0953, 2756.296
187.5774, 2767.006
188.0595, 2777.368
188.5416, 2798.398
189.0238, 2832.769
189.5059, 2867.737
189.9880, 2897.727
190.4701, 2923.671
190.9522, 2945.153
191.4343, 2956.977
191.9165, 2968.262
192.3986, 2996.069
192.8807, 3045.594
193.3628, 3091.881
193.8449, 3114.211
194.3270, 3126.857
194.8092, 3148.104
195.2913, 3188.295
195.7734, 3235.523
196.2555, 3270.010
196.7376, 3288.243
197.2197, 3309.030
197.7019, 3345.280
198.1840, 3389.081
198.6661, 3431.364
199.1482, 3469.097
199.6303, 3505.029
200.1124, 3541.501
200.5946, 3577.718
201.0767, 3618.558
201.5588, 3672.391
202.0409, 3730.439
202.5230, 3783.176
203.0051, 3825.386
203.4873, 3864.837
203.9694, 3912.859
204.4515, 3971.191
204.9336, 4027.546
205.4157, 4077.289
205.8978, 4121.633
206.3800, 4159.591
206.8621, 4188.451
207.3442, 4216.045
207.8263, 4249.951
208.3084, 4289.856
208.7905, 4338.550
209.2727, 4406.749
209.7548, 4479.978
210.2369, 4540.984
210.7190, 4581.489
211.2011, 4621.271
211.6832, 4685.261
212.1654, 4775.139
212.6475, 4858.246
213.1296, 4916.262
213.6117, 4964.833
214.0938, 5021.792
214.5760, 5092.664
215.0581, 5161.156
215.5402, 5208.073
216.0223, 5233.409
216.5044, 5266.650
216.9865, 5324.998
217.4687, 5390.078
217.9508, 5442.457
218.4329, 5479.006
218.9150, 5510.946
219.3971, 5546.036
219.8792, 5584.283
220.3614, 5623.548
220.8435, 5663.274
221.3256, 5704.052
221.8077, 5749.548
222.2898, 5801.549
222.7719, 5845.238
223.2541, 5864.404
223.7362, 5863.807
224.2183, 5870.518
224.7004, 5894.772
225.1825, 5923.345
225.6646, 5941.688
226.1468, 5949.712
226.6289, 5955.145
227.1110, 5964.458
227.5931, 5974.885
228.0752, 5976.625
228.5573, 5965.753
229.0395, 5948.792
229.5216, 5931.767
230.0037, 5914.713
230.4858, 5897.879
230.9679, 5881.635
231.4500, 5865.719
231.9322, 5848.972
232.4143, 5830.337
232.8964, 5813.235
233.3785, 5802.741
233.8606, 5797.526
234.3427, 5790.456
234.8249, 5779.558
235.3070, 5765.307
235.7891, 5748.567
236.2712, 5729.358
236.7533, 5707.295
237.2354, 5679.218
237.7176, 5646.908
238.1997, 5619.884
238.6818, 5605.361
239.1639, 5593.959
239.6460, 5572.125
240.1281, 5538.377
240.6103, 5509.323
241.0924, 5502.441
241.5745, 5512.153
242.0566, 5508.466
242.5387, 5479.659
243.0208, 5443.680
243.5030, 5415.390
243.9851, 5394.313
244.4672, 5370.462
244.9493, 5336.139
245.4314, 5294.125
245.9135, 5258.393
246.3957, 5228.157
246.8778, 5204.625
247.3599, 5191.595
247.8420, 5186.883
248.3241, 5182.250
248.8062, 5172.660
249.2884, 5160.786
249.7705, 5156.375
250.2526, 5171.096
250.7347, 5177.100
251.2168, 5159.164
251.6989, 5125.641
252.1811, 5091.432
252.6632, 5061.230
253.1453, 5037.852
253.6274, 5030.527
254.1095, 5051.965
254.5916, 5064.656
255.0738, 5057.271
255.5559, 5038.579
256.0380, 5018.435
256.5201, 4999.795
257.0022, 4984.227
257.4843, 4974.914
257.9665, 4978.359
258.4486, 4975.047
258.9307, 4957.296
259.4128, 4936.695
259.8949, 4926.438
260.3770, 4928.148
260.8592, 4929.459
261.3413, 4913.835
261.8234, 4871.379
262.3055, 4845.688
262.7876, 4846.472
263.2697, 4854.175
263.7519, 4858.932
264.2340, 4859.229
264.7161, 4856.780
265.1982, 4853.158
265.6803, 4848.476
266.1624, 4841.212
266.6446, 4835.696
267.1267, 4823.871
267.6088, 4794.677
268.0909, 4756.186
268.5730, 4727.375
269.0551, 4722.853
269.5373, 4739.716
270.0194, 4747.158
270.5015, 4731.786
270.9836, 4720.646
271.4657, 4723.970
271.9478, 4732.936
272.4300, 4733.486
272.9121, 4717.784
273.3942, 4692.799
273.8763, 4680.228
274.3584, 4693.915
274.8405, 4697.632
275.3227, 4675.940
275.8048, 4648.458
276.2869, 4634.228
276.7690, 4639.699
277.2511, 4654.222
277.7332, 4661.078
278.2154, 4658.350
278.6975, 4653.535
279.1796, 4642.263
279.6617, 4632.930
280.1438, 4632.848
280.6259, 4642.210
281.1081, 4652.537
281.5902, 4654.561
282.0723, 4647.724
282.5544, 4642.318
283.0365, 4638.292
283.5186, 4636.915
284.0008, 4640.206
284.4829, 4647.092
284.9650, 4653.375
285.4471, 4656.621
285.9292, 4657.040
286.4113, 4656.127
286.8935, 4655.707
287.3756, 4650.332
287.8577, 4631.087
288.3398, 4605.189
288.8219, 4587.568
289.3040, 4589.271
289.7862, 4599.238
290.2683, 4600.217
290.7504, 4590.969
291.2325, 4580.679
291.7146, 4572.778
292.1967, 4567.545
292.6789, 4565.546
293.1610, 4568.223
293.6431, 4572.243
294.1252, 4577.924
294.6073, 4584.045
295.0894, 4581.541
295.5716, 4563.048
296.0537, 4537.764
296.5358, 4523.890
297.0179, 4525.042
297.5000, 4524.742
297.9821, 4510.010
298.4643, 4490.422
298.9464, 4485.698
299.4285, 4502.538
299.9106, 4527.113
300.3927, 4540.284
300.8748, 4538.491
301.3570, 4542.425
301.8391, 4564.136
302.3212, 4586.194
302.8033, 4591.240
303.2854, 4578.178
303.7675, 4559.792
304.2497, 4547.359
304.7318, 4541.609
305.2139, 4533.255
305.6960, 4520.141
306.1781, 4506.958
306.6602, 4494.668
307.1424, 4484.049
307.6245, 4475.698
308.1066, 4469.628
308.5887, 4466.708
309.0708, 4471.959
309.5529, 4506.896
310.0351, 4524.916
310.5172, 4512.996
310.9993, 4484.206
311.4814, 4451.141
311.9635, 4419.035
312.4456, 4389.764
312.9278, 4366.419
313.4099, 4348.398
313.8920, 4338.653
314.3741, 4345.089
314.8562, 4352.979
315.3383, 4350.884
315.8205, 4338.504
316.3026, 4325.557
316.7847, 4323.506
317.2668, 4333.845
317.7489, 4339.748
318.2310, 4342.120
318.7132, 4338.450
319.1953, 4323.166
319.6774, 4300.861
320.1595, 4282.591
320.6416, 4276.240
321.1237, 4278.252
321.6059, 4279.280
322.0880, 4280.062
322.5701, 4277.651
323.0522, 4263.332
323.5343, 4247.088
324.0164, 4243.461
324.4986, 4261.162
324.9807, 4282.719
325.4628, 4286.886
325.9449, 4274.801
326.4270, 4269.602
326.9091, 4283.354
327.3913, 4303.928
327.8734, 4313.138
328.3555, 4309.436
328.8376, 4303.144
329.3197, 4297.392
329.8018, 4292.462
330.2840, 4290.078
330.7661, 4291.328
331.2482, 4290.711
331.7303, 4281.127
332.2124, 4261.589
332.6945, 4244.236
333.1767, 4228.913
333.6588, 4216.820
334.1409, 4209.342
334.6230, 4206.169
335.1051, 4205.559
335.5872, 4206.601
336.0694, 4209.175
336.5515, 4211.681
337.0336, 4209.599
337.5157, 4212.679
337.9979, 4232.042
338.4800, 4255.717
338.9621, 4263.897
339.4442, 4248.270
339.9263, 4221.342
340.4084, 4210.615
340.8906, 4232.990
341.3727, 4241.052
341.8548, 4222.806
342.3369, 4199.741
342.8190, 4184.520
343.3011, 4179.637
343.7833, 4182.518
344.2654, 4192.188
344.7475, 4209.185
345.2296, 4223.984
345.7117, 4237.831
346.1938, 4247.604
346.6760, 4250.183
347.1581, 4248.104
347.6402, 4246.004
348.1223, 4245.545
348.6044, 4247.267
349.0865, 4253.999
349.5687, 4268.148
350.0508, 4277.792
350.5329, 4269.748
351.0150, 4258.833
351.4971, 4262.698
351.9792, 4287.218
352.4614, 4313.889
352.9435, 4329.989
353.4256, 4336.802
353.9077, 4338.471
354.3898, 4334.094
354.8719, 4328.604
355.3541, 4328.053
355.8362, 4332.020
356.3183, 4338.066
356.8004, 4349.131
357.2825, 4359.935
357.7646, 4362.698
358.2468, 4357.841
358.7289, 4355.436
359.2110, 4363.468
359.6931, 4381.083
360.1752, 4396.247
360.6573, 4415.631
361.1395, 4425.699
361.6216, 4412.573
362.1037, 4389.430
362.5858, 4377.588
363.0679, 4386.024
363.5500, 4407.637
364.0322, 4428.289
364.5143, 4448.194
364.9964, 4466.811
365.4785, 4486.577
365.9606, 4503.464
366.4427, 4509.706
366.9249, 4508.122
367.4070, 4513.180
367.8891, 4542.459
368.3712, 4595.449
368.8533, 4631.104
369.3354, 4638.038
369.8176, 4641.841
370.2997, 4647.874
370.7818, 4658.033
371.2639, 4675.098
371.7460, 4700.702
372.2281, 4732.580
372.7103, 4769.898
373.1924, 4813.345
373.6745, 4853.824
374.1566, 4891.063
374.6387, 4921.262
375.1208, 4937.579
375.6030, 4937.464
376.0851, 4943.560
376.5672, 4974.167
377.0493, 5017.475
377.5314, 5049.618
378.0135, 5066.002
378.4957, 5079.458
378.9778, 5103.384
379.4599, 5137.446
379.9420, 5159.590
380.4241, 5155.849
380.9063, 5152.893
381.3884, 5166.463
381.8705, 5193.043
382.3526, 5221.917
382.8347, 5247.291
383.3168, 5272.457
383.7990, 5306.339
384.2811, 5364.133
384.7632, 5410.780
385.2453, 5445.745
385.7274, 5469.822
386.2095, 5476.539
386.6917, 5468.958
387.1738, 5464.833
387.6559, 5484.269
388.1380, 5529.090
388.6201, 5571.410
389.1022, 5607.623
389.5844, 5645.447
390.0665, 5695.796
390.5486, 5748.272
391.0307, 5782.395
391.5128, 5783.797
391.9949, 5773.259
392.4771, 5787.551
392.9592, 5829.689
393.4413, 5869.754
393.9234, 5901.177
394.4055, 5923.897
394.8876, 5933.951
395.3698, 5929.188
395.8519, 5935.097
396.3340, 5976.279
396.8161, 6033.202
397.2982, 6068.940
397.7803, 6077.593
398.2625, 6081.313
398.7446, 6099.583
399.2267, 6131.328
399.7088, 6151.016
400.1909, 6149.230
400.6730, 6145.720
401.1552, 6152.016
401.6373, 6162.548
402.1194, 6164.038
402.6015, 6150.441
403.0836, 6131.265
403.5657, 6126.726
404.0479, 6151.386
404.5300, 6164.492
405.0121, 6159.556
405.4942, 6150.145
405.9763, 6144.859
406.4584, 6143.584
406.9406, 6141.368
407.4227, 6134.249
407.9048, 6122.733
408.3869, 6108.936
408.8690, 6088.183
409.3511, 6074.184
409.8333, 6077.308
410.3154, 6086.958
410.7975, 6090.980
411.2796, 6085.698
411.7617, 6076.581
412.2438, 6068.878
412.7260, 6061.972
413.2081, 6049.387
413.6902, 6023.284
414.1723, 6003.660
414.6544, 6023.601
415.1365, 6078.100
415.6187, 6114.683
416.1008, 6116.678
416.5829, 6102.048
417.0650, 6078.952
417.5471, 6050.840
418.0292, 6029.145
418.5114, 6021.478
418.9935, 6022.846
419.4756, 6016.172
419.9577, 5996.284
420.4398, 5974.661
420.9219, 5947.426
421.4041, 5921.488
421.8862, 5904.119
422.3683, 5895.640
422.8504, 5890.291
423.3325, 5883.743
423.8146, 5876.268
424.2968, 5858.167
424.7789, 5817.269
425.2610, 5781.503
425.7431, 5764.671
426.2252, 5757.282
426.7073, 5745.272
427.1895, 5723.026
427.6716, 5696.335
428.1537, 5669.678
428.6358, 5643.312
429.1179, 5626.316
429.6000, 5623.335
430.0822, 5627.215
430.5643, 5636.666
431.0464, 5651.382
431.5285, 5646.180
432.0106, 5596.413
432.4927, 5535.881
432.9749, 5497.787
433.4570, 5481.460
433.9391, 5469.500
434.4212, 5451.918
434.9033, 5430.651
435.3854, 5413.042
435.8676, 5400.819
436.3497, 5390.275
436.8318, 5383.980
437.3139, 5377.589
437.7960, 5366.840
438.2781, 5351.298
438.7603, 5333.540
439.2424, 5316.299
439.7245, 5299.624
440.2066, 5281.130
440.6887, 5259.234
441.1708, 5237.549
441.6530, 5216.037
442.1351, 5195.814
442.6172, 5180.047
443.0993, 5171.496
443.5814, 5160.908
444.0635, 5132.752
444.5457, 5090.257
445.0278, 5062.110
445.5099, 5060.433
445.9920, 5063.830
446.4741, 5044.876
446.9562, 5005.774
447.4384, 4976.323
447.9205, 4972.733
448.4026, 4971.010
448.8847, 4948.618
449.3668, 4911.620
449.8489, 4884.097
450.3311, 4879.524
450.8132, 4887.324
451.2953, 4879.624
451.7774, 4838.534
452.2595, 4809.069
452.7416, 4797.269
453.2238, 4791.918
453.7059, 4791.500
454.1880, 4791.615
454.6701, 4780.117
455.1522, 4742.269
455.6343, 4686.097
456.1165, 4651.884
456.5986, 4647.268
457.0807, 4646.118
457.5628, 4639.858
458.0449, 4631.368
458.5270, 4622.615
459.0092, 4613.421
459.4913, 4606.627
459.9734, 4609.223
460.4555, 4614.709
460.9376, 4606.165
461.4197, 4580.127
461.9019, 4552.615
462.3840, 4537.795
462.8661, 4534.932
463.3482, 4527.070
463.8303, 4508.381
464.3124, 4491.870
464.7946, 4483.114
465.2767, 4478.970
465.7588, 4475.733
466.2409, 4472.005
466.7230, 4466.841
467.2051, 4458.532
467.6873, 4446.270
468.1694, 4434.842
468.6515, 4422.282
469.1336, 4412.833
469.6157, 4412.080
470.0978, 4414.831
470.5800, 4410.079
471.0621, 4389.793
471.5442, 4368.078
472.0263, 4370.266
472.5084, 4394.333
472.9905, 4398.343
473.4727, 4361.933
473.9548, 4316.631
474.4369, 4305.419
474.9190, 4326.022
475.4011, 4336.594
475.8832, 4322.561
476.3654, 4301.770
476.8475, 4284.031
477.3296, 4270.832
477.8117, 4264.163
478.2938, 4265.354
478.7759, 4272.100
479.2581, 4278.968
479.7402, 4286.656
480.2223, 4293.340
480.7044, 4300.477
481.1865, 4305.542
481.6686, 4304.405
482.1508, 4299.399
482.6329, 4298.289
483.1150, 4308.200
483.5971, 4323.792
484.0792, 4330.765
484.5613, 4327.565
485.0435, 4324.014
485.5256, 4321.261
486.0077, 4321.625
486.4898, 4330.064
486.9719, 4348.264
487.4540, 4359.315
487.9362, 4346.444
488.4183, 4329.058
488.9004, 4333.654
489.3825, 4358.804
489.8646, 4381.079
490.3467, 4385.683
490.8289, 4375.597
491.3110, 4363.437
491.7931, 4344.400
492.2752, 4329.730
492.7573, 4315.865
493.2394, 4309.158
493.7216, 4318.655
494.2037, 4342.228
494.6858, 4366.515
495.1679, 4381.639
495.6500, 4388.490
496.1321, 4388.872
496.6143, 4378.897
497.0964, 4374.650
497.5785, 4385.575
498.0606, 4404.300
498.5427, 4424.053
499.0248, 4445.869
499.5070, 4460.218
499.9891, 4457.136
500.4712, 4446.316
500.9533, 4441.125
501.4355, 4442.813
501.9176, 4446.485
502.3997, 4448.923
502.8818, 4450.291
503.3639, 4451.495
503.8460, 4451.508
504.3282, 4452.743
504.8103, 4456.482
505.2924, 4460.847
505.7745, 4462.335
506.2566, 4461.764
506.7387, 4465.617
507.2209, 4483.172
507.7030, 4510.098
508.1851, 4521.665
508.6672, 4511.020
509.1493, 4505.492
509.6314, 4520.726
510.1136, 4545.391
510.5957, 4565.420
511.0778, 4579.662
511.5599, 4590.794
512.0420, 4601.909
512.5241, 4609.688
513.0062, 4605.698
513.4883, 4591.029
513.9705, 4581.767
514.4526, 4591.180
514.9347, 4613.963
515.4168, 4622.300
515.8989, 4596.756
516.3810, 4582.568
516.8632, 4586.144
517.3453, 4599.481
517.8274, 4620.884
518.3095, 4646.962
518.7916, 4668.092
519.2737, 4673.486
519.7559, 4668.585
520.2380, 4672.990
520.7201, 4689.143
521.2022, 4702.718
521.6843, 4708.993
522.1664, 4708.437
522.6486, 4699.684
523.1307, 4679.145
523.6128, 4669.097
524.0949, 4688.615
524.5770, 4714.004
525.0591, 4719.868
525.5413, 4707.611
526.0234, 4693.133
526.5055, 4685.540
526.9876, 4684.485
527.4697, 4689.668
527.9518, 4709.824
528.4340, 4719.814
528.9161, 4711.413
529.3982, 4699.406
529.8803, 4689.883
530.3624, 4684.846
530.8445, 4687.530
531.3267, 4703.419
531.8088, 4725.053
532.2909, 4740.418
532.7730, 4749.538
533.2551, 4752.445
533.7372, 4747.598
534.2194, 4738.895
534.7015, 4731.113
535.1836, 4723.916
535.6657, 4719.420
536.1478, 4717.810
536.6299, 4718.870
537.1121, 4727.571
537.5942, 4738.307
538.0763, 4737.388
538.5584, 4718.369
539.0405, 4692.243
539.5226, 4680.765
540.0048, 4689.357
540.4869, 4688.125
540.9690, 4662.346
541.4511, 4641.796
541.9332, 4647.875
542.4153, 4669.303
542.8975, 4680.462
543.3796, 4668.643
543.8617, 4652.477
544.3438, 4651.978
544.8259, 4659.781
545.3080, 4651.398
545.7902, 4620.062
546.2723, 4588.036
546.7544, 4579.361
547.2365, 4595.351
547.7186, 4598.863
548.2007, 4582.714
548.6829, 4564.114
549.1650, 4538.892
549.6471, 4517.483
550.1292, 4516.953
550.6113, 4538.597
551.0934, 4557.980
551.5756, 4546.738
552.0577, 4510.515
552.5398, 4481.154
553.0219, 4457.890
553.5040, 4446.306
553.9861, 4457.215
554.4683, 4477.798
554.9504, 4483.845
555.4325, 4473.026
555.9146, 4454.650
556.3967, 4421.207
556.8788, 4388.626
557.3610, 4375.443
557.8431, 4379.337
558.3252, 4383.083
558.8073, 4375.271
559.2894, 4361.448
559.7715, 4360.862
560.2537, 4385.613
560.7358, 4393.741
561.2179, 4365.096
561.7000, 4331.292
562.1821, 4306.769
562.6642, 4291.553
563.1464, 4282.289
563.6285, 4283.221
564.1106, 4283.264
564.5927, 4265.441
565.0748, 4235.312
565.5569, 4217.648
566.0391, 4221.362
566.5212, 4227.915
567.0033, 4214.368
567.4854, 4177.235
567.9675, 4146.992
568.4496, 4121.382
568.9318, 4104.292
569.4139, 4105.755
569.8960, 4112.345
570.3781, 4105.062
570.8602, 4079.817
571.3423, 4054.136
571.8245, 4049.834
572.3066, 4061.438
572.7887, 4059.217
573.2708, 4038.642
573.7529, 4021.586
574.2350, 4023.641
574.7172, 4034.294
575.1993, 4029.301
575.6814, 4003.073
576.1635, 3977.593
576.6456, 3952.272
577.1277, 3933.871
577.6099, 3934.520
578.0920, 3948.087
578.5741, 3952.794
579.0562, 3934.682
579.5383, 3905.760
580.0204, 3896.547
580.5026, 3913.585
580.9847, 3920.728
581.4668, 3907.764
581.9489, 3890.302
582.4310, 3878.585
582.9132, 3870.887
583.3953, 3862.149
583.8774, 3849.270
584.3596, 3837.137
584.8417, 3831.467
585.3238, 3828.231
585.8059, 3818.115
586.2880, 3799.530
586.7701, 3781.424
587.2523, 3773.592
587.7344, 3775.182
588.2165, 3767.962
588.6986, 3740.578
589.1807, 3721.435
589.6628, 3723.965
590.1450, 3730.441
590.6271, 3725.352
591.1092, 3707.538
591.5913, 3686.912
592.0734, 3664.723
592.5555, 3645.942
593.0377, 3642.362
593.5198, 3651.407
594.0019, 3651.684
594.4840, 3632.818
594.9661, 3608.535
595.4482, 3601.376
595.9304, 3618.830
596.4125, 3625.073
596.8946, 3616.228
597.3767, 3601.878
597.8588, 3579.108
598.3409, 3555.521
598.8231, 3542.979
599.3052, 3545.201
599.7873, 3551.166
600.2694, 3548.629
600.7515, 3540.430
601.2336, 3540.756
601.7158, 3552.804
602.1979, 3554.377
602.6800, 3528.051
603.1621, 3486.021
603.6442, 3460.415
604.1263, 3454.623
604.6085, 3456.078
605.0906, 3472.905
605.5727, 3488.494
606.0548, 3489.728
606.5369, 3480.170
607.0190, 3470.962
607.5012, 3467.858
607.9833, 3467.461
608.4654, 3464.662
608.9475, 3459.454
609.4296, 3452.130
609.9117, 3441.009
610.3939, 3431.794
610.8760, 3429.771
611.3581, 3433.208
611.8402, 3434.772
612.3223, 3435.859
612.8044, 3432.792
613.2866, 3421.506
613.7687, 3407.505
614.2508, 3392.102
614.7329, 3378.613
615.2150, 3377.838
615.6971, 3400.196
616.1793, 3434.474
616.6614, 3448.053
617.1435, 3437.303
617.6256, 3427.082
618.1077, 3421.252
618.5898, 3418.438
619.0720, 3418.179
619.5541, 3420.060
620.0362, 3422.504
620.5183, 3426.135
621.0004, 3429.252
621.4825, 3433.001
621.9647, 3434.805
622.4468, 3426.877
622.9289, 3410.292
623.4110, 3400.416
623.8931, 3412.681
624.3752, 3441.970
624.8574, 3462.132
625.3395, 3472.514
625.8216, 3475.432
626.3037, 3465.992
626.7858, 3454.084
627.2679, 3447.721
627.7501, 3446.861
628.2322, 3450.020
628.7143, 3459.081
629.1964, 3469.863
629.6785, 3485.517
630.1606, 3499.392
630.6428, 3493.955
631.1249, 3467.172
631.6070, 3444.472
632.0891, 3456.282
632.5712, 3498.366
633.0533, 3518.648
633.5355, 3507.506
634.0176, 3497.282
634.4997, 3496.127
634.9818, 3501.133
635.4639, 3513.019
635.9460, 3531.146
636.4282, 3542.013
636.9103, 3532.407
637.3924, 3522.067
637.8745, 3527.784
638.3566, 3543.737
638.8387, 3558.752
639.3209, 3568.967
639.8030, 3573.036
640.2851, 3567.292
640.7672, 3552.252
641.2493, 3547.600
641.7314, 3558.058
642.2136, 3568.826
642.6957, 3575.658
643.1778, 3580.137
643.6599, 3583.653
644.1420, 3586.292
644.6241, 3587.982
645.1063, 3588.490
645.5884, 3588.307
646.0705, 3588.680
646.5526, 3588.574
647.0347, 3583.743
647.5168, 3573.378
647.9990, 3565.624
648.4811, 3571.933
648.9632, 3591.936
649.4453, 3605.503
649.9274, 3613.640
650.4095, 3612.789
650.8917, 3589.190
651.3738, 3564.399
651.8559, 3566.284
652.3380, 3596.701
652.8201, 3619.208
653.3022, 3622.399
653.7844, 3614.629
654.2665, 3592.045
654.7486, 3565.075
655.2307, 3556.014
655.7128, 3570.789
656.1949, 3591.469
656.6771, 3596.993
657.1592, 3588.589
657.6413, 3584.680
658.1234, 3587.045
658.6055, 3588.436
659.0876, 3583.718
659.5698, 3578.968
660.0519, 3584.151
660.5340, 3599.957
661.0161, 3607.813
661.4982, 3602.586
661.9803, 3589.767
662.4625, 3566.815
662.9446, 3540.523
663.4267, 3521.527
663.9088, 3512.486
664.3909, 3508.703
664.8730, 3506.014
665.3552, 3504.402
665.8373, 3505.318
666.3194, 3510.584
666.8015, 3507.679
667.2836, 3487.268
667.7657, 3462.951
668.2479, 3452.837
668.7300, 3457.162
669.2121, 3460.087
669.6942, 3455.969
670.1763, 3455.202
670.6584, 3471.479
671.1406, 3488.910
671.6227, 3481.991
672.1048, 3449.665
672.5869, 3420.121
673.0690, 3420.226
673.5511, 3438.768
674.0333, 3447.974
674.5154, 3447.869
674.9975, 3437.511
675.4796, 3413.856
675.9617, 3386.644
676.4438, 3366.291
676.9260, 3353.023
677.4081, 3339.833
677.8902, 3322.569
678.3723, 3310.681
678.8544, 3314.052
679.3365, 3318.399
679.8187, 3307.997
680.3008, 3283.916
680.7829, 3260.647
681.2650, 3245.375
681.7471, 3238.196
682.2292, 3246.279
682.7114, 3264.503
683.1935, 3268.008
683.6756, 3250.767
684.1577, 3222.000
684.6398, 3187.891
685.1219, 3149.571
685.6041, 3117.579
686.0862, 3088.948
686.5683, 3071.944
687.0504, 3076.409
687.5325, 3083.884
688.0146, 3083.662
688.4968, 3075.915
688.9789, 3063.837
689.4610, 3046.137
689.9431, 3029.160
690.4252, 3018.853
690.9073, 3012.658
691.3895, 3006.913
691.8716, 3000.645
692.3537, 2992.744
692.8358, 2982.874
693.3179, 2969.515
693.8000, 2945.658
694.2822, 2904.467
694.7643, 2877.512
695.2464, 2878.583
695.7285, 2879.870
696.2106, 2860.115
696.6927, 2830.635
697.1749, 2814.779
697.6570, 2821.305
698.1391, 2825.808
698.6212, 2816.820
699.1033, 2803.146
699.5854, 2792.626
700.0676, 2784.885
700.5497, 2777.151
701.0318, 2768.203
701.5139, 2756.734
701.9960, 2740.531
702.4781, 2719.833
702.9603, 2695.491
703.4424, 2665.674
703.9245, 2640.305
704.4066, 2624.532
704.8887, 2615.215
705.3708, 2606.860
705.8530, 2599.551
706.3351, 2593.017
706.8172, 2590.418
707.2993, 2585.093
707.7814, 2572.384
708.2635, 2556.004
708.7457, 2540.703
709.2278, 2527.562
709.7099, 2515.286
710.1920, 2503.558
710.6741, 2491.640
711.1563, 2477.252
711.6384, 2461.083
712.1205, 2447.491
712.6026, 2438.070
713.0847, 2429.683
713.5668, 2418.088
714.0490, 2403.537
714.5311, 2396.336
715.0132, 2403.960
715.4953, 2406.559
715.9774, 2395.276
716.4595, 2382.290
716.9417, 2379.675
717.4238, 2384.289
717.9059, 2379.492
718.3880, 2348.911
718.8701, 2322.154
719.3522, 2324.344
719.8344, 2338.512
720.3165, 2341.910
720.7986, 2331.667
721.2807, 2313.305
721.7628, 2289.143
722.2449, 2264.632
722.7271, 2254.343
723.2092, 2259.269
723.6913, 2258.702
724.1734, 2248.471
724.6555, 2238.132
725.1376, 2234.865
725.6198, 2235.504
726.1019, 2230.512
726.5840, 2216.793
727.0661, 2205.529
727.5482, 2198.291
728.0303, 2193.287
728.5125, 2192.135
728.9946, 2191.695
729.4767, 2186.649
729.9588, 2175.426
730.4409, 2162.745
730.9230, 2151.061
731.4052, 2141.268
731.8873, 2136.123
732.3694, 2134.836
732.8515, 2132.118
733.3336, 2125.821
733.8157, 2120.137
734.2979, 2121.330
734.7800, 2129.469
735.2621, 2129.352
735.7442, 2114.844
736.2263, 2103.934
736.7084, 2102.104
737.1906, 2104.675
737.6727, 2111.077
738.1548, 2119.688
738.6369, 2121.190
739.1190, 2108.459
739.6011, 2094.215
740.0833, 2081.437
740.5654, 2071.911
741.0475, 2070.157
741.5296, 2074.161
742.0117, 2075.390
742.4938, 2068.389
742.9760, 2057.484
743.4581, 2049.038
743.9402, 2042.896
744.4223, 2036.957
744.9044, 2030.475
745.3865, 2029.793
745.8687, 2040.212
746.3508, 2056.598
746.8329, 2067.453
747.3150, 2072.667
747.7971, 2072.283
748.2792, 2058.246
748.7614, 2047.910
749.2435, 2050.940
749.7256, 2058.844
750.2077, 2060.807
750.6898, 2055.138
751.1719, 2048.333
751.6541, 2043.151
752.1362, 2038.293
752.6183, 2032.337
753.1004, 2025.963
753.5825, 2020.820
754.0646, 2017.145
754.5468, 2013.191
755.0289, 2006.894
755.5110, 1999.806
755.9931, 1997.273
756.4752, 1999.522
756.9573, 2002.297
757.4395, 2005.497
757.9216, 2006.846
758.4037, 2003.619
758.8858, 1997.143
759.3679, 1993.711
759.8500, 1994.895
760.3322, 1996.990
760.8143, 2003.181
761.2964, 2007.055
761.7785, 2002.613
762.2606, 1994.156
762.7427, 1990.496
763.2249, 1994.691
763.7070, 1997.315
764.1891, 1990.274
764.6712, 1980.099
765.1533, 1974.078
765.6354, 1971.593
766.1176, 1970.563
766.5997, 1970.044
767.0818, 1967.502
767.5639, 1959.099
768.0460, 1946.393
768.5281, 1937.565
769.0103, 1932.677
769.4924, 1932.006
769.9745, 1937.733
770.4566, 1943.085
770.9387, 1940.908
771.4208, 1932.119
771.9030, 1926.453
772.3851, 1929.187
772.8672, 1927.456
773.3493, 1916.000
773.8314, 1903.860
774.3135, 1896.179
774.7957, 1892.349
775.2778, 1890.228
775.7599, 1889.415
776.2420, 1889.107
776.7241, 1890.550
777.2062, 1891.012
777.6884, 1885.137
778.1705, 1875.354
778.6526, 1870.931
779.1347, 1874.930
779.6168, 1876.934
780.0989, 1860.247
780.5811, 1830.644
781.0632, 1824.670
781.5453, 1845.113
782.0274, 1858.599
782.5095, 1854.802
782.9916, 1843.483
783.4738, 1832.935
783.9559, 1823.236
784.4380, 1815.763
784.9201, 1811.544
785.4022, 1808.068
785.8843, 1805.209
786.3665, 1802.940
786.8486, 1802.383
787.3307, 1802.183
787.8128, 1799.746
788.2949, 1794.727
788.7770, 1786.279
789.2592, 1770.806
789.7413, 1754.296
790.2234, 1741.657
790.7055, 1733.100
791.1876, 1728.587
791.6697, 1727.919
792.1519, 1729.211
792.6340, 1731.424
793.1161, 1733.759
793.5982, 1733.748
794.0803, 1731.450
794.5624, 1727.664
795.0446, 1722.658
795.5267, 1715.416
796.0088, 1703.694
796.4909, 1689.446
796.9730, 1685.435
797.4551, 1699.786
797.9373, 1706.081
798.4194, 1698.788
798.9015, 1686.665
799.3836, 1669.716
799.8657, 1652.759
800.3478, 1645.949
800.8300, 1653.594
801.3121, 1658.293
801.7942, 1654.107
802.2763, 1646.838
802.7584, 1637.133
803.2405, 1628.125
803.7227, 1625.834
804.2048, 1630.400
804.6869, 1632.119
805.1690, 1619.839
805.6511, 1604.699
806.1332, 1604.631
806.6154, 1614.759
807.0975, 1621.533
807.5796, 1622.256
808.0617, 1618.525
808.5438, 1611.065
809.0259, 1601.354
809.5081, 1591.986
809.9902, 1582.311
810.4723, 1580.757
810.9544, 1592.257
811.4365, 1598.373
811.9186, 1586.667
812.4008, 1567.446
812.8829, 1558.490
813.3650, 1562.854
813.8471, 1563.203
814.3292, 1555.047
814.8113, 1548.726
815.2935, 1546.711
815.7756, 1547.851
816.2577, 1554.319
816.7398, 1563.663
817.2219, 1565.156
817.7040, 1548.570
818.1862, 1533.834
818.6683, 1538.171
819.1504, 1547.467
819.6325, 1542.378
820.1146, 1526.768
820.5967, 1518.186
821.0789, 1524.660
821.5610, 1534.626
822.0431, 1534.273
822.5252, 1526.562
823.0073, 1518.286
823.4894, 1510.132
823.9716, 1508.298
824.4537, 1515.112
824.9358, 1525.144
825.4179, 1533.580
825.9000, 1539.886
826.3821, 1538.736
826.8643, 1525.889
827.3464, 1520.833
827.8285, 1531.639
828.3106, 1542.034
828.7927, 1537.834
829.2748, 1525.812
829.7570, 1526.304
830.2391, 1547.669
830.7212, 1559.104
831.2033, 1550.870
831.6854, 1540.770
832.1675, 1535.309
832.6497, 1533.107
833.1318, 1532.900
833.6139, 1534.111
834.0960, 1534.218
834.5781, 1527.168
835.0602, 1523.816
835.5424, 1534.240
836.0245, 1551.936
836.5066, 1573.313
836.9887, 1593.530
837.4708, 1599.001
837.9529, 1581.336
838.4351, 1554.880
838.9172, 1535.122
839.3993, 1522.710
839.8814, 1521.969
840.3635, 1532.094
840.8456, 1543.003
841.3278, 1550.837
841.8099, 1558.505
842.2920, 1570.503
842.7741, 1585.602
843.2562, 1591.287
843.7383, 1584.291
844.2205, 1581.453
844.7026, 1588.575
845.1847, 1595.108
845.6668, 1590.822
846.1489, 1580.543
846.6310, 1581.255
847.1132, 1603.960
847.5953, 1615.118
848.0774, 1601.373
848.5595, 1591.593
849.0416, 1604.508
849.5237, 1623.270
850.0059, 1625.218
850.4880, 1608.987
850.9701, 1595.939
851.4522, 1592.599
851.9343, 1595.281
852.4164, 1603.692
852.8986, 1615.970
853.3807, 1635.198
853.8628, 1656.400
854.3449, 1663.584
854.8270, 1647.653
855.3091, 1630.047
855.7913, 1635.216
856.2734, 1651.783
856.7555, 1659.540
857.2376, 1659.947
857.7197, 1663.071
858.2018, 1672.054
858.6840, 1681.752
859.1661, 1686.954
859.6482, 1688.932
860.1303, 1692.398
860.6124, 1697.314
861.0945, 1698.900
861.5767, 1695.720
862.0588, 1693.276
862.5409, 1694.566
863.0230, 1699.827
863.5051, 1711.245
863.9872, 1732.929
864.4694, 1740.513
864.9515, 1726.732
865.4336, 1712.153
865.9157, 1698.021
866.3978, 1690.673
866.8799, 1701.818
867.3621, 1728.910
867.8442, 1745.925
868.3263, 1745.154
868.8084, 1743.847
869.2905, 1743.047
869.7726, 1743.929
870.2548, 1747.563
870.7369, 1753.303
871.2190, 1759.798
871.7011, 1766.682
872.1832, 1775.335
872.6653, 1789.674
873.1475, 1802.611
873.6296, 1807.276
874.1117, 1808.160
874.5938, 1811.434
875.0759, 1817.850
875.5580, 1825.182
876.0402, 1832.789
876.5223, 1838.800
877.0044, 1839.050
877.4865, 1837.148
877.9686, 1841.110
878.4507, 1849.987
878.9329, 1855.748
879.4150, 1855.536
879.8971, 1858.511
880.3792, 1879.167
880.8613, 1909.014
881.3434, 1912.507
881.8256, 1891.800
882.3077, 1886.654
882.7898, 1906.104
883.2719, 1927.082
883.7540, 1933.417
884.2361, 1931.359
884.7183, 1936.945
885.2004, 1952.934
885.6825, 1959.344
886.1646, 1950.604
886.6467, 1948.171
887.1288, 1963.097
887.6110, 1982.465
888.0931, 1990.484
888.5752, 1988.118
889.0573, 1993.993
889.5394, 2019.660
890.0215, 2035.417
890.5037, 2033.065
890.9858, 2027.391
891.4679, 2019.286
891.9500, 2015.362
892.4321, 2029.571
892.9142, 2066.574
893.3964, 2095.897
893.8785, 2108.603
894.3606, 2115.725
894.8427, 2117.594
895.3248, 2119.272
895.8069, 2126.922
896.2891, 2138.976
896.7712, 2148.041
897.2533, 2150.161
897.7354, 2153.056
898.2175, 2158.745
898.6996, 2169.707
899.1818, 2196.555
899.6639, 2227.898
900.1460, 2238.492
900.6281, 2225.066
901.1102, 2213.101
901.5923, 2221.536
902.0745, 2240.552
902.5566, 2263.304
903.0387, 2285.168
903.5208, 2292.016
904.0029, 2286.548
904.4850, 2289.850
904.9672, 2312.043
905.4493, 2340.198
905.9314, 2358.768
906.4135, 2369.251
906.8956, 2373.696
907.3777, 2373.465
907.8599, 2382.798
908.3420, 2405.057
908.8241, 2428.728
909.3062, 2445.389
909.7883, 2456.418
910.2704, 2464.051
910.7526, 2467.880
911.2347, 2476.442
911.7168, 2490.912
912.1990, 2504.564
912.6811, 2513.383
913.1632, 2525.342
913.6453, 2553.824
914.1274, 2594.790
914.6096, 2602.764
915.0917, 2555.313
915.5738, 2537.200
916.0559, 2568.574
916.5380, 2611.083
917.0201, 2652.129
917.5023, 2686.450
917.9844, 2701.562
918.4665, 2692.337
918.9486, 2694.044
919.4307, 2714.252
919.9128, 2734.946
920.3950, 2757.347
920.8771, 2775.305
921.3592, 2777.565
921.8413, 2772.533
922.3234, 2784.369
922.8055, 2822.923
923.2877, 2856.228
923.7698, 2875.627
924.2519, 2891.394
924.7340, 2901.835
925.2161, 2915.665
925.6982, 2948.709
926.1804, 2996.182
926.6625, 3028.687
927.1446, 3028.845
927.6267, 3026.937
928.1088, 3033.471
928.5909, 3046.854
929.0731, 3069.305
929.5552, 3096.152
930.0373, 3117.866
930.5194, 3133.484
931.0015, 3155.360
931.4836, 3199.823
931.9658, 3242.789
932.4479, 3260.469
932.9300, 3266.635
933.4121, 3276.646
933.8942, 3292.872
934.3763, 3316.399
934.8585, 3347.557
935.3406, 3376.785
935.8227, 3390.872
936.3048, 3401.094
936.7869, 3428.405
937.2690, 3463.745
937.7512, 3482.115
938.2333, 3483.651
938.7154, 3494.851
939.1975, 3532.308
939.6796, 3574.211
940.1617, 3587.137
940.6439, 3582.526
941.1260, 3589.755
941.6081, 3608.327
942.0902, 3630.342
942.5723, 3653.894
943.0544, 3682.691
943.5366, 3720.791
944.0187, 3762.934
944.5008, 3798.302
944.9829, 3827.396
945.4650, 3852.719
945.9471, 3874.304
946.4293, 3886.875
946.9114, 3887.399
947.3935, 3894.209
947.8756, 3929.149
948.3577, 3983.999
948.8398, 4026.126
949.3220, 4055.367
949.8041, 4070.405
950.2862, 4067.229
950.7683, 4081.001
951.2504, 4132.459
951.7325, 4196.417
952.2147, 4237.418
952.6968, 4256.802
953.1789, 4277.366
953.6610, 4298.265
954.1431, 4324.949
954.6252, 4359.206
955.1074, 4397.003
955.5895, 4437.438
956.0716, 4477.698
956.5537, 4511.754
957.0358, 4538.797
957.5179, 4570.552
958.0001, 4610.600
958.4822, 4645.379
958.9643, 4667.208
959.4464, 4691.309
959.9285, 4730.076
960.4106, 4778.661
960.8928, 4823.598
961.3749, 4862.977
961.8570, 4905.708
962.3391, 4957.762
962.8212, 5002.617
963.3033, 5031.400
963.7855, 5055.585
964.2676, 5079.299
964.7497, 5106.288
965.2318, 5154.622
965.7139, 5241.285
966.1960, 5314.636
966.6782, 5369.282
967.1603, 5417.612
967.6424, 5461.119
968.1245, 5501.495
968.6066, 5536.592
969.0887, 5568.724
969.5709, 5613.396
970.0530, 5681.953
970.5351, 5745.761
971.0172, 5793.283
971.4993, 5846.949
971.9814, 5924.886
972.4636, 6008.763
972.9457, 6076.400
973.4278, 6127.301
973.9099, 6176.451
974.3920, 6219.779
974.8741, 6270.100
975.3563, 6334.574
975.8384, 6401.298
976.3205, 6465.496
976.8026, 6526.705
977.2847, 6579.690
977.7668, 6624.907
978.2490, 6691.133
978.7311, 6810.409
979.2132, 6915.909
979.6953, 6979.085
980.1774, 7032.866
980.6595, 7091.541
981.1417, 7159.854
981.6238, 7248.450
982.1059, 7359.021
982.5880, 7453.690
983.0701, 7504.486
983.5522, 7561.284
984.0344, 7643.805
984.5165, 7738.637
984.9986, 7842.445
985.4807, 7947.738
985.9628, 8040.150
986.4449, 8117.045
986.9271, 8189.676
987.4092, 8250.475
987.8913, 8322.858
988.3734, 8430.045
988.8555, 8541.940
989.3376, 8623.134
989.8198, 8689.864
990.3019, 8786.864
990.7840, 8926.828
991.2661, 9061.361
991.7482, 9167.015
992.2303, 9267.760
992.7125, 9371.801
993.1946, 9480.293
993.6767, 9588.747
994.1588, 9703.503
994.6409, 9844.688
995.1230, 10023.22
995.6052, 10182.72
996.0873, 10279.01
996.5694, 10371.76
997.0515, 10490.45
997.5336, 10626.32
998.0157, 10779.19
998.4979, 10938.77
998.9800, 11079.71
999.4621, 11190.85
999.9442, 11311.05
1000.426, 11473.14
1000.908, 11630.83
1001.391, 11739.12
1001.873, 11841.19
1002.355, 11992.31
1002.837, 12179.83
1003.319, 12349.62
1003.801, 12479.77
1004.283, 12626.16
1004.765, 12837.38
1005.247, 13046.90
1005.730, 13214.31
1006.212, 13359.47
1006.694, 13492.95
1007.176, 13627.71
1007.658, 13795.15
1008.140, 14011.07
1008.622, 14221.11
1009.104, 14388.22
1009.587, 14556.87
1010.069, 14751.98
1010.551, 14964.00
1011.033, 15184.63
1011.515, 15411.11
1011.997, 15644.39
1012.479, 15885.97
1012.961, 16118.86
1013.443, 16313.24
1013.926, 16523.03
1014.408, 16804.91
1014.890, 17098.22
1015.372, 17321.32
1015.854, 17497.94
1016.336, 17726.36
1016.818, 18045.64
1017.300, 18348.36
1017.783, 18569.34
1018.265, 18794.68
1018.747, 19072.11
1019.229, 19374.70
1019.711, 19670.24
1020.193, 19965.25
1020.675, 20287.64
1021.157, 20651.57
1021.639, 21001.87
1022.122, 21305.97
1022.604, 21606.46
1023.086, 21916.07
1023.568, 22236.74
1024.050, 22566.34
1024.532, 22906.49
1025.014, 23270.49
1025.496, 23667.02
1025.979, 24044.15
1026.461, 24369.72
1026.943, 24693.57
1027.425, 25020.68
1027.907, 25363.86
1028.389, 25743.77
1028.871, 26148.19
1029.353, 26551.57
1029.835, 26951.81
1030.318, 27341.61
1030.800, 27727.36
1031.282, 28094.29
1031.764, 28412.23
1032.246, 28733.92
1032.728, 29122.31
1033.210, 29538.63
1033.692, 29887.23
1034.174, 30152.14
1034.657, 30408.29
1035.139, 30646.36
1035.621, 30898.64
1036.103, 31182.18
1036.585, 31470.29
1037.067, 31756.90
1037.549, 32030.30
1038.031, 32272.18
1038.514, 32479.58
1038.996, 32665.39
1039.478, 32821.67
1039.960, 32968.27
1040.442, 33093.93
1040.924, 33228.40
1041.406, 33418.44
1041.888, 33606.88
1042.370, 33690.67
1042.853, 33662.66
1043.335, 33669.41
1043.817, 33737.07
1044.299, 33786.25
1044.781, 33823.70
1045.263, 33810.85
1045.745, 33691.95
1046.227, 33557.24
1046.709, 33545.84
1047.192, 33647.67
1047.674, 33661.97
1048.156, 33551.32
1048.638, 33479.50
1049.120, 33480.81
1049.602, 33465.12
1050.084, 33388.41
1050.566, 33288.00
1051.049, 33206.46
1051.531, 33140.28
1052.013, 33070.96
1052.495, 32999.50
1052.977, 32907.78
1053.459, 32785.52
1053.941, 32700.51
1054.423, 32688.01
1054.906, 32669.25
1055.388, 32561.70
1055.870, 32396.05
1056.352, 32262.95
1056.834, 32162.52
1057.316, 32097.39
1057.798, 32068.60
1058.280, 31998.40
1058.762, 31862.35
1059.245, 31716.56
1059.727, 31604.23
1060.209, 31513.50
1060.691, 31429.32
1061.173, 31345.89
1061.655, 31210.46
1062.137, 31036.90
1062.619, 30952.49
1063.101, 30975.29
1063.584, 30958.58
1064.066, 30805.91
1064.548, 30614.22
1065.030, 30525.82
1065.512, 30497.95
1065.994, 30431.45
1066.476, 30335.48
1066.958, 30238.99
1067.441, 30146.74
1067.923, 30050.00
1068.405, 29943.66
1068.887, 29845.61
1069.369, 29788.22
1069.851, 29736.87
1070.333, 29635.15
1070.815, 29510.65
1071.297, 29408.19
1071.780, 29329.05
1072.262, 29265.56
1072.744, 29212.69
1073.226, 29141.63
1073.708, 29016.03
1074.190, 28886.78
1074.672, 28795.74
1075.154, 28721.80
1075.636, 28651.03
1076.119, 28575.10
1076.601, 28480.57
1077.083, 28366.65
1077.565, 28247.29
1078.047, 28113.23
1078.529, 28001.70
1079.011, 27948.05
1079.494, 27903.40
1079.976, 27857.20
1080.458, 27785.15
1080.940, 27633.80
1081.422, 27424.00
1081.904, 27275.66
1082.386, 27244.65
1082.868, 27198.56
1083.350, 27126.06
1083.833, 27018.36
1084.315, 26826.26
1084.797, 26638.18
1085.279, 26548.92
1085.761, 26523.61
1086.243, 26443.63
1086.725, 26285.44
1087.207, 26168.98
1087.689, 26134.64
1088.172, 26063.14
1088.654, 25901.89
1089.136, 25749.92
1089.618, 25672.05
1090.100, 25634.79
1090.582, 25586.03
1091.064, 25525.28
1091.546, 25433.96
1092.029, 25297.51
1092.511, 25206.44
1092.993, 25181.38
1093.475, 25151.79
1093.957, 25087.57
1094.439, 24999.68
1094.921, 24897.52
1095.403, 24786.18
1095.885, 24683.43
1096.368, 24588.88
1096.850, 24505.86
1097.332, 24432.67
1097.814, 24342.69
1098.296, 24228.63
1098.778, 24121.51
1099.260, 24047.12
1099.742, 23981.17
1100.224, 23872.69
1100.707, 23748.40
1101.189, 23687.21
1101.671, 23664.46
1102.153, 23606.98
1102.635, 23505.93
1103.117, 23387.14
1103.599, 23261.09
1104.081, 23153.59
1104.564, 23101.93
1105.046, 23067.17
1105.528, 23007.42
1106.010, 22940.23
1106.492, 22885.14
1106.974, 22844.88
1107.456, 22828.94
1107.938, 22835.57
1108.421, 22810.69
1108.903, 22698.90
1109.385, 22592.31
1109.867, 22530.53
1110.349, 22491.17
1110.831, 22464.48
1111.313, 22445.63
1111.795, 22436.46
1112.277, 22432.16
1112.760, 22407.00
1113.242, 22341.20
1113.724, 22289.45
1114.206, 22281.56
1114.688, 22254.80
1115.170, 22160.98
1115.652, 22078.36
1116.134, 22089.43
1116.616, 22139.86
1117.099, 22092.32
1117.581, 21930.07
1118.063, 21854.35
1118.545, 21896.38
1119.027, 21907.41
1119.509, 21855.97
1119.991, 21810.68
1120.473, 21809.55
1120.956, 21812.83
1121.438, 21762.32
1121.920, 21682.74
1122.402, 21685.01
1122.884, 21757.65
1123.366, 21789.69
1123.848, 21774.43
1124.330, 21718.56
1124.813, 21630.40
1125.295, 21592.60
1125.777, 21675.15
1126.259, 21787.45
1126.741, 21804.29
1127.223, 21762.37
1127.705, 21693.70
1128.187, 21631.74
1128.669, 21659.99
1129.151, 21762.04
1129.634, 21843.63
1130.116, 21868.07
1130.598, 21865.93
1131.080, 21839.69
1131.562, 21816.00
1132.044, 21815.31
1132.526, 21823.59
1133.008, 21822.48
1133.491, 21823.74
1133.973, 21858.45
1134.455, 21924.16
1134.937, 21959.73
1135.419, 21918.27
1135.901, 21908.29
1136.383, 21969.85
1136.865, 22035.55
1137.348, 22092.36
1137.830, 22129.96
1138.312, 22130.05
1138.794, 22108.43
1139.276, 22103.12
1139.758, 22110.93
1140.240, 22166.49
1140.722, 22286.30
1141.204, 22386.13
1141.687, 22452.29
1142.169, 22494.03
1142.651, 22512.36
1143.133, 22528.12
1143.615, 22567.25
1144.097, 22623.47
1144.579, 22681.00
1145.061, 22738.25
1145.543, 22777.24
1146.026, 22805.52
1146.508, 22874.60
1146.990, 22991.31
1147.472, 23099.54
1147.954, 23164.80
1148.436, 23209.28
1148.918, 23244.15
1149.400, 23283.87
1149.883, 23348.66
1150.365, 23428.64
1150.847, 23507.16
1151.329, 23587.77
1151.811, 23689.69
1152.293, 23816.42
1152.775, 23928.28
1153.257, 23996.54
1153.740, 24062.86
1154.222, 24135.05
1154.704, 24217.71
1155.186, 24315.66
1155.668, 24424.50
1156.150, 24543.01
1156.632, 24667.69
1157.114, 24783.95
1157.596, 24888.89
1158.078, 24994.21
1158.561, 25093.71
1159.043, 25211.83
1159.525, 25363.34
1160.007, 25501.07
1160.489, 25593.96
1160.971, 25670.87
1161.453, 25773.31
1161.935, 25894.15
1162.418, 26002.94
1162.900, 26102.65
1163.382, 26221.17
1163.864, 26359.08
1164.346, 26503.16
1164.828, 26651.38
1165.310, 26811.54
1165.792, 26989.75
1166.275, 27177.35
1166.757, 27378.41
1167.239, 27572.10
1167.721, 27721.27
1168.203, 27853.62
1168.685, 28009.89
1169.167, 28186.32
1169.649, 28358.68
1170.131, 28520.80
1170.614, 28688.99
1171.096, 28879.93
1171.578, 29061.92
1172.060, 29196.94
1172.542, 29355.59
1173.024, 29601.26
1173.506, 29867.32
1173.988, 30075.28
1174.470, 30250.61
1174.953, 30480.91
1175.435, 30782.76
1175.917, 31025.03
1176.399, 31183.06
1176.881, 31401.53
1177.363, 31718.87
1177.845, 31996.74
1178.327, 32160.41
1178.810, 32317.27
1179.292, 32591.78
1179.774, 32933.02
1180.256, 33215.29
1180.738, 33461.22
1181.220, 33750.37
1181.702, 34067.68
1182.184, 34336.74
1182.667, 34563.34
1183.149, 34858.26
1183.631, 35277.23
1184.113, 35688.66
1184.595, 35971.91
1185.077, 36243.61
1185.559, 36574.37
1186.041, 36944.26
1186.523, 37345.20
1187.005, 37764.68
1187.488, 38190.11
1187.970, 38619.83
1188.452, 39056.98
1188.934, 39538.47
1189.416, 39944.56
1189.898, 40200.83
1190.380, 40522.77
1190.862, 40985.64
1191.345, 41468.57
1191.827, 41890.53
1192.309, 42308.66
1192.791, 42822.36
1193.273, 43402.72
1193.755, 43858.31
1194.237, 44212.74
1194.719, 44693.09
1195.202, 45298.96
1195.684, 45913.26
1196.166, 46499.33
1196.648, 47057.02
1197.130, 47579.56
1197.612, 48110.18
1198.094, 48705.83
1198.576, 49316.74
1199.058, 49872.69
1199.541, 50428.88
1200.023, 51073.80
1200.505, 51760.52
1200.987, 52373.26
1201.469, 52903.21
1201.951, 53467.57
1202.433, 54126.97
1202.915, 54760.62
1203.397, 55333.13
1203.880, 55907.90
1204.362, 56508.73
1204.844, 57105.52
1205.326, 57673.16
1205.808, 58233.86
1206.290, 58832.89
1206.772, 59461.39
1207.254, 60063.13
1207.737, 60642.21
1208.219, 61267.50
1208.701, 61939.50
1209.183, 62614.98
1209.665, 63278.59
1210.147, 63898.60
1210.629, 64455.79
1211.111, 65005.17
1211.594, 65617.88
1212.076, 66241.09
1212.558, 66792.53
1213.040, 67336.35
1213.522, 67983.93
1214.004, 68666.34
1214.486, 69214.41
1214.968, 69623.09
1215.450, 70128.77
1215.932, 70881.21
1216.415, 71516.68
1216.897, 71948.66
1217.379, 72342.23
1217.861, 72714.33
1218.343, 73104.16
1218.825, 73553.36
1219.307, 74003.02
1219.789, 74358.70
1220.272, 74650.11
1220.754, 75041.65
1221.236, 75516.32
1221.718, 75939.84
1222.200, 76316.68
1222.682, 76715.64
1223.164, 77146.06
1223.646, 77558.12
1224.129, 77928.95
1224.611, 78244.55
1225.093, 78448.32
1225.575, 78646.14
1226.057, 78921.17
1226.539, 79233.22
1227.021, 79560.03
1227.503, 79885.28
1227.985, 80192.34
1228.468, 80478.73
1228.950, 80741.20
1229.432, 80939.43
1229.914, 81252.16
1230.396, 81748.13
1230.878, 82168.04
##END=



