##NAMES=Stolzite
##RRUFFID=R050568
##IDEAL CHEMISTRY=Pb^2+^W^6+^O_4_
##LOCALITY=Broken Hill, New South Wales, Australia
##OWNER=RRUFF
##SOURCE=University of Arizona Mineral Museum
##DESCRIPTION=Yellowish brown tetragonal dipyramidal crystals
##STATUS=The identification of this mineral is confirmed by single-crystal X-ray diffraction and chemical analysis.
##URL=rruff.info/R050568
##MEASURED CHEMISTRY=Pb_1.00_W_1.00_O_4_
92.06543, 661.5652
92.54755, 664.3456
93.02966, 668.2094
93.51178, 666.0670
93.99390, 659.6390
94.47601, 650.6710
94.95813, 640.2839
95.44025, 629.0165
95.92236, 617.1612
96.40448, 604.4384
96.88660, 592.9300
97.36871, 583.6921
97.85082, 575.0994
98.33294, 566.0028
98.81506, 555.9128
99.29717, 544.6752
99.77929, 534.5652
100.2614, 525.5983
100.7435, 517.0712
101.2256, 507.9229
101.7078, 498.9082
102.1899, 492.2317
102.6720, 489.2533
103.1541, 487.4056
103.6362, 484.1451
104.1183, 479.4849
104.6005, 474.4741
105.0826, 469.8884
105.5647, 465.6971
106.0468, 461.8134
106.5289, 458.5525
107.0110, 455.2165
107.4931, 451.2231
107.9753, 446.3971
108.4574, 441.2968
108.9395, 437.0074
109.4216, 433.8114
109.9037, 431.0656
110.3858, 428.7169
110.8680, 426.6840
111.3501, 424.9708
111.8322, 423.5881
112.3143, 422.4565
112.7964, 421.0409
113.2785, 419.3613
113.7607, 417.4087
114.2428, 415.0251
114.7249, 412.3343
115.2070, 409.5843
115.6891, 406.9258
116.1712, 404.3775
116.6534, 402.1732
117.1355, 400.6755
117.6176, 399.2417
118.0997, 397.2261
118.5818, 394.5331
119.0639, 391.9371
119.5461, 390.4286
120.0282, 389.6641
120.5103, 388.6440
120.9924, 386.8634
121.4745, 384.6307
121.9566, 382.6749
122.4388, 381.2235
122.9209, 379.8130
123.4030, 378.0063
123.8851, 375.9276
124.3672, 373.9923
124.8493, 372.4985
125.3315, 371.4461
125.8136, 370.7440
126.2957, 371.0974
126.7778, 371.2826
127.2599, 370.6485
127.7420, 369.1950
128.2242, 367.4547
128.7063, 366.1664
129.1884, 365.6257
129.6705, 364.9362
130.1526, 364.0953
130.6347, 363.1264
131.1169, 361.9687
131.5990, 360.6211
132.0811, 359.2404
132.5632, 358.1775
133.0453, 357.5084
133.5274, 357.0954
134.0096, 357.0981
134.4917, 357.3279
134.9738, 357.5377
135.4559, 357.6246
135.9380, 357.6005
136.4201, 357.4688
136.9023, 356.8050
137.3844, 356.5846
137.8665, 357.3909
138.3486, 359.0680
138.8307, 360.9322
139.3128, 362.6488
139.7950, 364.2870
140.2771, 365.9780
140.7592, 367.7072
141.2413, 369.5213
141.7234, 371.4136
142.2055, 373.3355
142.6877, 375.5527
143.1698, 378.1262
143.6519, 381.0791
144.1340, 384.5711
144.6161, 388.8141
145.0982, 393.5509
145.5803, 398.0733
146.0625, 401.9881
146.5446, 406.3460
147.0267, 411.3419
147.5088, 416.9684
147.9909, 423.1524
148.4730, 429.7100
148.9552, 436.7174
149.4373, 445.3338
149.9194, 457.3904
150.4015, 469.6172
150.8836, 480.7866
151.3657, 491.3604
151.8479, 502.7501
152.3300, 516.1813
152.8121, 532.1378
153.2942, 547.9301
153.7763, 562.6691
154.2584, 578.0540
154.7406, 595.1728
155.2227, 613.9459
155.7048, 633.6658
156.1869, 653.7041
156.6690, 674.2493
157.1511, 693.9813
157.6333, 712.6552
158.1154, 730.6848
158.5975, 748.1179
159.0796, 764.9510
159.5617, 781.7043
160.0438, 799.2052
160.5260, 817.4952
161.0081, 835.4414
161.4902, 852.2285
161.9723, 868.5369
162.4544, 885.7106
162.9365, 904.1286
163.4187, 923.1305
163.9008, 941.6213
164.3829, 959.5391
164.8650, 978.1411
165.3471, 998.4479
165.8292, 1020.212
166.3113, 1041.414
166.7935, 1060.730
167.2756, 1080.327
167.7577, 1102.385
168.2398, 1126.916
168.7219, 1151.239
169.2040, 1172.424
169.6862, 1189.957
170.1683, 1207.576
170.6504, 1227.446
171.1325, 1246.375
171.6146, 1263.484
172.0967, 1278.279
172.5789, 1289.572
173.0610, 1295.556
173.5431, 1295.436
174.0252, 1291.092
174.5073, 1283.986
174.9894, 1272.943
175.4716, 1257.485
175.9537, 1237.410
176.4358, 1212.079
176.9179, 1180.097
177.4000, 1137.955
177.8821, 1092.846
178.3643, 1043.950
178.8464, 992.9361
179.3285, 941.0923
179.8106, 888.7711
180.2927, 836.8919
180.7748, 788.4792
181.2570, 743.6184
181.7391, 702.0087
182.2212, 663.8818
182.7033, 629.0211
183.1854, 597.5346
183.6675, 569.5219
184.1497, 544.7281
184.6318, 522.6847
185.1139, 503.3631
185.5960, 485.8746
186.0781, 470.1126
186.5602, 456.0287
187.0423, 443.6454
187.5245, 433.4621
188.0066, 424.7612
188.4887, 415.4851
188.9708, 405.1808
189.4529, 395.2133
189.9350, 386.0832
190.4172, 377.8788
190.8993, 371.2866
191.3814, 367.6353
191.8635, 365.3292
192.3456, 361.9586
192.8277, 357.0016
193.3099, 351.5663
193.7920, 346.5843
194.2741, 342.0443
194.7562, 337.9920
195.2383, 334.8626
195.7204, 332.0742
196.2026, 329.1014
196.6847, 325.7003
197.1668, 322.3614
197.6489, 319.9322
198.1310, 318.7706
198.6131, 317.5172
199.0953, 315.4742
199.5774, 313.3069
200.0595, 311.6581
200.5416, 310.7857
201.0237, 310.3952
201.5058, 309.8643
201.9880, 309.1666
202.4701, 308.3507
202.9522, 307.0305
203.4343, 305.7785
203.9164, 305.2766
204.3985, 305.8480
204.8807, 307.0961
205.3628, 307.8279
205.8449, 307.6230
206.3270, 307.3887
206.8091, 307.2108
207.2912, 307.0645
207.7733, 306.8773
208.2555, 306.6093
208.7376, 306.3354
209.2197, 306.3379
209.7018, 306.9301
210.1839, 307.4641
210.6660, 307.8332
211.1482, 308.1147
211.6303, 308.3481
212.1124, 308.5285
212.5945, 308.7740
213.0766, 309.6241
213.5587, 311.8947
214.0409, 313.7613
214.5230, 314.7611
215.0051, 315.1224
215.4872, 315.2061
215.9693, 315.1393
216.4514, 315.0028
216.9336, 315.1219
217.4157, 315.6024
217.8978, 316.1295
218.3799, 316.6048
218.8620, 317.0489
219.3441, 317.5228
219.8263, 318.0579
220.3084, 318.6362
220.7905, 319.1828
221.2726, 319.5658
221.7547, 320.1341
222.2368, 321.3621
222.7190, 323.0235
223.2011, 324.1115
223.6832, 323.8971
224.1653, 323.1062
224.6474, 323.1548
225.1295, 324.2546
225.6117, 325.6555
226.0938, 327.0561
226.5759, 328.4211
227.0580, 329.4205
227.5401, 329.8878
228.0222, 329.9071
228.5043, 329.5220
228.9865, 328.5914
229.4686, 327.8352
229.9507, 328.0635
230.4328, 329.2660
230.9149, 330.1864
231.3970, 330.1645
231.8792, 329.8978
232.3613, 330.0860
232.8434, 330.8470
233.3255, 331.5246
233.8076, 331.2625
234.2897, 329.9394
234.7719, 329.1144
235.2540, 329.7039
235.7361, 330.5454
236.2182, 330.8403
236.7003, 330.4948
237.1824, 330.1118
237.6646, 330.4634
238.1467, 331.7423
238.6288, 332.6743
239.1109, 332.7671
239.5930, 332.6779
240.0751, 332.8127
240.5573, 333.1849
241.0394, 333.4388
241.5215, 333.0571
242.0036, 331.8063
242.4857, 330.8590
242.9678, 330.3239
243.4500, 330.0581
243.9321, 330.2265
244.4142, 330.7203
244.8963, 331.0754
245.3784, 330.6126
245.8605, 328.9113
246.3427, 327.9608
246.8248, 328.4469
247.3069, 329.0594
247.7890, 329.2816
248.2711, 329.0267
248.7532, 328.3898
249.2354, 327.3492
249.7175, 325.6356
250.1996, 324.7409
250.6817, 325.1852
251.1638, 325.8744
251.6459, 326.5058
252.1281, 326.9518
252.6102, 327.0723
253.0923, 326.6911
253.5744, 325.7051
254.0565, 324.8457
254.5386, 323.7608
255.0208, 323.0789
255.5029, 323.4110
255.9850, 324.4971
256.4671, 325.4237
256.9492, 325.3226
257.4313, 324.0343
257.9135, 323.6115
258.3956, 324.6428
258.8777, 325.7592
259.3598, 326.4729
259.8419, 326.7806
260.3240, 326.8106
260.8062, 326.5939
261.2883, 326.1375
261.7704, 326.2310
262.2525, 327.2441
262.7346, 328.3001
263.2167, 329.0716
263.6989, 329.6017
264.1810, 330.0584
264.6631, 330.5557
265.1452, 331.0761
265.6273, 331.4549
266.1094, 331.4117
266.5916, 331.5526
267.0737, 332.0721
267.5558, 332.9383
268.0379, 334.1502
268.5200, 335.8093
269.0021, 337.7057
269.4843, 338.9419
269.9664, 338.8751
270.4485, 339.0716
270.9306, 340.3313
271.4127, 342.2024
271.8948, 343.7233
272.3770, 344.4521
272.8591, 344.6132
273.3412, 344.6800
273.8233, 344.2349
274.3054, 344.4852
274.7875, 346.1711
275.2697, 348.7603
275.7518, 351.2504
276.2339, 353.2744
276.7160, 355.1102
277.1981, 357.3853
277.6802, 360.2918
278.1623, 362.7563
278.6444, 364.0677
279.1266, 364.8422
279.6087, 366.1298
280.0908, 368.2388
280.5729, 370.7555
281.0550, 373.1734
281.5371, 375.4955
282.0193, 377.8983
282.5014, 380.1866
282.9835, 382.6636
283.4656, 385.8488
283.9477, 389.8827
284.4298, 394.2970
284.9120, 398.6502
285.3941, 402.9559
285.8762, 407.1924
286.3583, 411.0314
286.8404, 414.9461
287.3225, 419.5118
287.8047, 424.8061
288.2868, 430.5808
288.7689, 436.8361
289.2510, 443.4517
289.7331, 450.1641
290.2152, 456.6954
290.6974, 463.4078
291.1795, 470.3452
291.6616, 477.4833
292.1437, 485.7586
292.6258, 496.3558
293.1079, 508.5425
293.5901, 520.4538
294.0722, 531.0931
294.5543, 542.3299
295.0364, 555.7728
295.5185, 571.4113
296.0006, 588.0204
296.4828, 604.7479
296.9649, 622.4901
297.4470, 642.2897
297.9291, 664.2194
298.4112, 688.1194
298.8933, 713.9327
299.3755, 741.5675
299.8576, 771.1866
300.3397, 803.0302
300.8218, 836.8713
301.3039, 871.9871
301.7860, 908.2014
302.2682, 945.9183
302.7503, 985.7413
303.2324, 1027.463
303.7145, 1071.000
304.1966, 1117.101
304.6787, 1164.182
305.1609, 1210.266
305.6430, 1255.680
306.1251, 1302.286
306.6072, 1351.303
307.0893, 1402.061
307.5714, 1453.128
308.0536, 1504.194
308.5357, 1555.816
309.0178, 1608.804
309.4999, 1662.612
309.9820, 1715.867
310.4641, 1767.058
310.9463, 1817.711
311.4284, 1870.114
311.9105, 1924.561
312.3926, 1978.181
312.8747, 2027.087
313.3568, 2073.990
313.8390, 2123.684
314.3211, 2179.111
314.8032, 2235.555
315.2853, 2289.005
315.7674, 2339.333
316.2495, 2387.317
316.7317, 2434.056
317.2138, 2478.131
317.6959, 2518.489
318.1780, 2556.371
318.6601, 2587.009
319.1422, 2607.144
319.6243, 2617.028
320.1064, 2617.869
320.5886, 2610.040
321.0707, 2592.161
321.5528, 2564.094
322.0349, 2525.735
322.5170, 2480.551
322.9991, 2430.415
323.4813, 2374.966
323.9634, 2311.481
324.4455, 2238.111
324.9276, 2160.250
325.4097, 2084.526
325.8918, 2010.025
326.3740, 1932.830
326.8561, 1850.164
327.3382, 1764.270
327.8203, 1677.271
328.3024, 1588.707
328.7845, 1501.273
329.2667, 1414.804
329.7488, 1331.114
330.2309, 1254.988
330.7130, 1188.361
331.1951, 1129.304
331.6772, 1076.391
332.1594, 1029.601
332.6415, 988.1491
333.1236, 951.4882
333.6057, 920.4961
334.0878, 895.1593
334.5699, 876.3514
335.0521, 861.8820
335.5342, 850.6878
336.0163, 842.7755
336.4984, 838.1561
336.9805, 837.6408
337.4626, 839.4660
337.9448, 840.9315
338.4269, 841.9852
338.9090, 843.1895
339.3911, 844.7180
339.8732, 846.5641
340.3553, 848.6777
340.8375, 851.0262
341.3196, 853.7230
341.8017, 856.9612
342.2838, 860.6934
342.7659, 864.7434
343.2480, 867.9603
343.7302, 872.1118
344.2123, 879.6016
344.6944, 890.5341
345.1765, 902.2208
345.6586, 912.6786
346.1407, 922.1811
346.6229, 932.6727
347.1050, 945.1049
347.5871, 957.5870
348.0692, 968.9844
348.5513, 979.4016
349.0334, 989.5756
349.5156, 999.7264
349.9977, 1009.852
350.4798, 1019.968
350.9619, 1030.704
351.4440, 1040.242
351.9261, 1048.688
352.4083, 1055.342
352.8904, 1059.179
353.3725, 1059.893
353.8546, 1057.606
354.3367, 1052.705
354.8188, 1045.888
355.3010, 1033.070
355.7831, 1012.182
356.2652, 986.2206
356.7473, 956.8148
357.2294, 924.4491
357.7115, 890.3855
358.1937, 854.9221
358.6758, 818.0163
359.1579, 784.7363
359.6400, 755.0240
360.1221, 728.4843
360.6042, 705.0899
361.0863, 684.7441
361.5685, 667.7430
362.0506, 654.3327
362.5327, 644.0254
363.0148, 634.9575
363.4969, 627.6258
363.9790, 620.8342
364.4612, 614.3177
364.9433, 608.2778
365.4254, 602.9935
365.9075, 598.5553
366.3896, 595.0206
366.8717, 592.5303
367.3539, 591.5482
367.8360, 590.6917
368.3181, 589.7773
368.8002, 589.1180
369.2823, 589.2514
369.7644, 589.9885
370.2466, 590.4153
370.7287, 589.6395
371.2108, 587.5751
371.6929, 585.7393
372.1750, 584.4870
372.6571, 583.0565
373.1393, 580.9742
373.6214, 578.5839
374.1035, 576.4516
374.5856, 574.9000
375.0677, 573.8066
375.5498, 572.7929
376.0320, 572.1334
376.5141, 571.1131
376.9962, 570.1523
377.4783, 568.5684
377.9604, 565.3127
378.4425, 560.3094
378.9247, 555.0456
379.4068, 551.6420
379.8889, 550.6966
380.3710, 549.5408
380.8531, 548.3201
381.3352, 546.7565
381.8174, 544.5267
382.2995, 541.8065
382.7816, 539.0858
383.2637, 536.7595
383.7458, 534.7592
384.2279, 532.6625
384.7101, 530.5369
385.1922, 528.1851
385.6743, 525.5516
386.1564, 522.6993
386.6385, 519.5524
387.1206, 516.0358
387.6028, 512.5842
388.0849, 510.1808
388.5670, 509.2654
389.0491, 507.2962
389.5312, 501.8915
390.0133, 496.5087
390.4955, 493.7098
390.9776, 493.5627
391.4597, 493.8725
391.9418, 493.0354
392.4239, 491.2018
392.9060, 489.2343
393.3882, 487.0829
393.8703, 484.9940
394.3524, 483.1406
394.8345, 481.4590
395.3166, 479.8335
395.7987, 478.3679
396.2809, 476.8275
396.7630, 474.7956
397.2451, 472.2162
397.7272, 469.7643
398.2093, 467.6940
398.6914, 465.9619
399.1736, 464.4289
399.6557, 463.0512
400.1378, 461.9582
400.6199, 461.4604
401.1020, 461.3094
401.5841, 460.8353
402.0662, 459.8725
402.5483, 458.5904
403.0305, 456.9689
403.5126, 455.0334
403.9947, 453.6110
404.4768, 452.9071
404.9589, 452.7372
405.4410, 453.2119
405.9232, 454.2267
406.4053, 455.0022
406.8874, 455.0008
407.3695, 454.3409
407.8516, 453.6918
408.3337, 453.0822
408.8159, 452.4516
409.2980, 451.8171
409.7801, 451.1400
410.2622, 450.2745
410.7443, 449.1539
411.2264, 448.0663
411.7086, 447.4531
412.1907, 447.3995
412.6728, 447.7238
413.1549, 449.0629
413.6370, 450.2649
414.1191, 450.4717
414.6013, 449.7513
415.0834, 448.6837
415.5655, 447.6641
416.0476, 446.7144
416.5297, 446.3016
417.0118, 447.0854
417.4940, 447.6646
417.9761, 447.7354
418.4582, 447.4985
418.9403, 447.1439
419.4224, 446.7546
419.9045, 446.4491
420.3867, 446.4815
420.8688, 447.0567
421.3509, 447.4252
421.8330, 447.3929
422.3151, 447.2997
422.7972, 447.3619
423.2794, 447.5426
423.7615, 447.6172
424.2436, 447.2762
424.7257, 446.6586
425.2078, 446.7829
425.6899, 448.1913
426.1721, 449.3931
426.6542, 449.8329
427.1363, 449.8091
427.6184, 449.5379
428.1005, 448.9985
428.5826, 448.6761
429.0648, 449.3432
429.5469, 451.0191
430.0290, 452.4830
430.5111, 453.6731
430.9932, 454.2904
431.4753, 453.6868
431.9575, 452.0850
432.4396, 451.2999
432.9217, 452.9349
433.4038, 455.6836
433.8859, 457.4171
434.3680, 458.0035
434.8502, 457.7725
435.3323, 456.3324
435.8144, 454.3471
436.2965, 453.6485
436.7786, 455.0217
437.2607, 456.5855
437.7429, 457.3120
438.2250, 457.4792
438.7071, 457.7754
439.1892, 458.4467
439.6713, 459.1035
440.1534, 459.1254
440.6356, 458.3026
441.1177, 457.8022
441.5998, 457.5241
442.0819, 457.7141
442.5640, 458.9751
443.0461, 460.9933
443.5282, 462.5692
444.0103, 462.8375
444.4925, 462.0537
444.9746, 461.6347
445.4567, 462.2805
445.9388, 462.4243
446.4209, 460.9587
446.9030, 459.4013
447.3852, 459.6679
447.8673, 462.0733
448.3494, 464.8690
448.8315, 465.7068
449.3136, 464.0750
449.7957, 463.0455
450.2779, 462.8003
450.7600, 462.9915
451.2421, 463.6562
451.7242, 464.6619
452.2063, 465.8992
452.6884, 467.4024
453.1706, 468.8299
453.6527, 469.2711
454.1348, 468.4539
454.6169, 467.5085
455.0990, 466.3948
455.5811, 465.4693
456.0633, 464.9738
456.5454, 464.9398
457.0275, 465.2850
457.5096, 466.1084
457.9917, 467.2813
458.4738, 468.3785
458.9560, 469.4061
459.4381, 470.2794
459.9202, 471.0139
460.4023, 471.5375
460.8844, 471.6362
461.3665, 470.9968
461.8487, 470.3145
462.3308, 470.0060
462.8129, 470.0652
463.2950, 470.5637
463.7771, 471.6362
464.2592, 472.8587
464.7414, 473.6540
465.2235, 474.0081
465.7056, 474.0962
466.1877, 473.8461
466.6698, 473.4059
467.1519, 472.6847
467.6341, 471.8216
468.1162, 471.3632
468.5983, 471.7127
469.0804, 472.6694
469.5625, 473.2884
470.0446, 473.0236
470.5268, 473.1237
471.0089, 473.8562
471.4910, 474.8968
471.9731, 476.1162
472.4552, 477.3940
472.9373, 478.3457
473.4195, 478.3338
473.9016, 477.1842
474.3837, 477.4447
474.8658, 481.6671
475.3479, 484.4429
475.8300, 482.9592
476.3122, 479.5038
476.7943, 477.3371
477.2764, 477.8439
477.7585, 479.8667
478.2406, 481.8205
478.7227, 483.7030
479.2049, 485.5579
479.6870, 488.4359
480.1691, 490.1090
480.6512, 488.3487
481.1333, 483.8228
481.6154, 479.7109
482.0976, 477.4210
482.5797, 476.5025
483.0618, 476.6122
483.5439, 477.7812
484.0260, 478.6469
484.5081, 478.3965
484.9902, 477.5294
485.4724, 477.1069
485.9545, 477.1669
486.4366, 477.5013
486.9187, 478.2047
487.4008, 479.0695
487.8829, 479.7134
488.3651, 480.1073
488.8472, 480.7282
489.3293, 482.0471
489.8114, 484.0627
490.2935, 485.7859
490.7756, 487.5690
491.2578, 488.7094
491.7399, 488.4454
492.2220, 487.6278
492.7041, 487.4403
493.1862, 488.2602
493.6683, 489.4601
494.1505, 490.0128
494.6326, 489.5160
495.1147, 489.9670
495.5968, 492.6535
496.0789, 495.0387
496.5610, 495.7185
497.0432, 495.4693
497.5253, 495.9104
498.0074, 497.9582
498.4895, 500.8214
498.9716, 503.1102
499.4537, 504.7950
499.9359, 506.0861
500.4180, 506.8120
500.9001, 507.3528
501.3822, 507.6444
501.8643, 507.8281
502.3464, 509.0425
502.8286, 512.9272
503.3107, 517.6750
503.7928, 520.2894
504.2749, 520.6731
504.7570, 521.1619
505.2391, 523.0578
505.7213, 525.8365
506.2034, 528.0104
506.6855, 529.1954
507.1676, 530.7402
507.6497, 533.2703
508.1318, 536.2010
508.6140, 539.0159
509.0961, 541.5775
509.5782, 543.6733
510.0603, 544.9977
510.5424, 545.6174
511.0245, 546.9670
511.5067, 549.8290
511.9888, 552.4734
512.4709, 554.7111
512.9530, 556.5499
513.4351, 557.6783
513.9172, 558.1625
514.3994, 558.9876
514.8815, 561.5819
515.3636, 566.1385
515.8457, 570.0715
516.3278, 573.6292
516.8099, 576.1666
517.2921, 577.0397
517.7742, 576.9471
518.2563, 576.9157
518.7384, 577.2662
519.2205, 577.8203
519.7026, 578.3484
520.1848, 578.8807
520.6669, 579.6544
521.1490, 580.7031
521.6311, 582.0330
522.1132, 584.1381
522.5953, 586.7537
523.0775, 588.0938
523.5596, 586.7564
524.0417, 585.0234
524.5238, 584.5184
525.0059, 584.9323
525.4880, 585.2929
525.9702, 585.2020
526.4523, 584.9224
526.9344, 584.9809
527.4165, 585.9229
527.8986, 585.6778
528.3807, 583.0003
528.8629, 580.3973
529.3450, 579.6458
529.8271, 580.0851
530.3092, 579.9161
530.7913, 578.0809
531.2734, 575.2932
531.7556, 573.3420
532.2377, 572.6295
532.7198, 571.6298
533.2019, 570.1996
533.6840, 568.3552
534.1661, 565.3508
534.6483, 561.7119
535.1304, 559.5038
535.6125, 561.2553
536.0946, 564.2990
536.5767, 563.3434
537.0588, 558.1971
537.5410, 552.9607
538.0231, 548.9092
538.5052, 545.9448
538.9873, 544.1634
539.4694, 543.7485
539.9515, 542.8871
540.4337, 540.8442
540.9158, 538.2711
541.3979, 535.6131
541.8800, 532.9942
542.3621, 530.7391
542.8442, 529.1485
543.3264, 527.9002
543.8085, 525.8793
544.2906, 522.1739
544.7726, 518.9646
545.2548, 516.9501
545.7369, 514.9249
546.2190, 511.7108
546.7011, 507.5553
547.1832, 503.7389
547.6653, 501.3595
548.1475, 500.0047
548.6296, 497.9601
549.1117, 494.7544
549.5938, 492.1099
550.0759, 491.5136
550.5580, 491.0156
551.0402, 488.9222
551.5223, 485.1802
552.0044, 481.4028
552.4865, 478.5801
552.9686, 476.2940
553.4507, 473.6930
553.9329, 470.7396
554.4150, 468.2228
554.8971, 466.8081
555.3792, 465.9001
555.8613, 463.8626
556.3434, 460.0925
556.8256, 456.9256
557.3077, 455.4477
557.7898, 454.3022
558.2719, 452.1041
558.7540, 448.9510
559.2361, 445.9930
559.7183, 444.0460
560.2004, 442.8624
560.6825, 441.3646
561.1646, 439.6561
561.6467, 437.4305
562.1288, 433.7841
562.6110, 430.3598
563.0931, 428.7312
563.5752, 428.6154
564.0573, 428.1125
564.5394, 425.5523
565.0215, 421.8535
565.5037, 419.5536
565.9858, 418.8940
566.4679, 417.9760
566.9500, 415.8477
567.4321, 413.3326
567.9142, 411.5570
568.3964, 410.5682
568.8785, 409.6014
569.3606, 408.6773
569.8427, 407.4653
570.3248, 405.3042
570.8069, 402.4234
571.2891, 399.9200
571.7712, 398.4329
572.2533, 397.6409
572.7354, 396.8195
573.2175, 396.5817
573.6996, 395.1328
574.1818, 391.2661
574.6639, 387.3255
575.1460, 384.7186
575.6281, 383.2600
576.1102, 382.0431
576.5923, 380.4643
577.0745, 379.0480
577.5566, 379.6457
578.0387, 383.1357
578.5208, 383.6950
579.0029, 377.9391
579.4850, 371.2473
579.9672, 367.8072
580.4493, 367.0267
580.9314, 366.2083
581.4135, 364.1526
581.8956, 361.8217
582.3777, 360.4517
582.8599, 359.6738
583.3420, 357.7408
583.8241, 353.8165
584.3062, 349.6978
584.7883, 347.9355
585.2704, 349.1788
585.7526, 349.6677
586.2347, 349.1770
586.7168, 348.2346
587.1989, 346.9245
587.6810, 345.3580
588.1631, 343.6195
588.6453, 341.7547
589.1274, 339.8797
589.6095, 338.2107
590.0916, 336.7813
590.5737, 335.1551
591.0558, 332.8586
591.5380, 331.0595
592.0201, 330.9419
592.5022, 331.4209
592.9843, 330.7269
593.4664, 328.1738
593.9485, 325.4206
594.4307, 323.7480
594.9128, 322.8372
595.3949, 322.0142
595.8770, 321.1877
596.3591, 320.2332
596.8412, 318.9819
597.3234, 317.5092
597.8055, 316.3897
598.2876, 315.7910
598.7697, 315.2654
599.2518, 315.2236
599.7339, 314.9083
600.2161, 313.1182
600.6982, 310.0987
601.1803, 307.6380
601.6624, 307.3360
602.1445, 308.5987
602.6266, 308.5834
603.1088, 306.6673
603.5909, 305.0938
604.0730, 305.1241
604.5551, 305.1943
605.0372, 303.8697
605.5193, 301.2743
606.0015, 299.1026
606.4836, 298.4492
606.9657, 298.4551
607.4478, 298.2940
607.9299, 297.9000
608.4120, 296.7866
608.8942, 294.5614
609.3763, 292.2218
609.8584, 291.4293
610.3405, 292.8944
610.8226, 293.3014
611.3047, 292.1431
611.7869, 290.5148
612.2690, 288.3983
612.7511, 286.3105
613.2332, 285.2534
613.7153, 285.5612
614.1974, 286.0131
614.6796, 284.5779
615.1617, 281.0941
615.6438, 278.9899
616.1259, 278.9215
616.6080, 279.2494
617.0901, 279.4763
617.5723, 279.4486
618.0544, 278.8311
618.5365, 277.4171
619.0186, 275.9784
619.5007, 274.9167
619.9828, 274.1277
620.4650, 273.4475
620.9471, 272.8570
621.4292, 272.4359
621.9113, 272.2821
622.3934, 272.2847
622.8755, 272.0255
623.3577, 271.5101
623.8398, 270.6933
624.3219, 269.3016
624.8040, 267.8567
625.2861, 266.5217
625.7682, 265.4442
626.2504, 264.9419
626.7325, 265.3346
627.2145, 266.0518
627.6967, 265.9430
628.1788, 264.9652
628.6609, 264.1969
629.1430, 263.8975
629.6251, 263.7807
630.1072, 263.6828
630.5894, 263.5715
631.0715, 263.2989
631.5536, 262.2665
632.0357, 261.6946
632.5178, 262.4020
632.9999, 263.9000
633.4821, 265.5649
633.9642, 267.1974
634.4463, 268.6301
634.9284, 269.6754
635.4105, 270.3633
635.8926, 271.0709
636.3748, 271.7611
636.8569, 272.5306
637.3390, 273.5830
637.8211, 274.5768
638.3032, 275.3467
638.7853, 275.8200
639.2675, 275.8262
639.7496, 275.2927
640.2317, 274.2095
640.7138, 272.3666
641.1959, 269.8247
641.6780, 267.2177
642.1602, 264.6299
642.6423, 262.4149
643.1244, 261.1932
643.6065, 261.2332
644.0886, 260.5503
644.5707, 258.0951
645.0529, 256.0851
645.5350, 255.6649
646.0171, 256.1547
646.4992, 256.7343
646.9813, 257.0974
647.4634, 257.0600
647.9456, 256.1322
648.4277, 254.4708
648.9098, 254.1145
649.3919, 255.6017
649.8740, 257.0037
650.3561, 257.5727
650.8383, 257.6728
651.3204, 257.6139
651.8025, 257.3996
652.2846, 257.2836
652.7667, 257.3525
653.2488, 257.5710
653.7310, 258.1837
654.2131, 258.9460
654.6952, 258.9280
655.1773, 257.7032
655.6594, 256.1557
656.1415, 255.7002
656.6237, 256.5752
657.1058, 257.4435
657.5879, 258.6726
658.0700, 259.4734
658.5521, 259.4481
659.0342, 258.9566
659.5164, 258.3169
659.9985, 257.6160
660.4806, 257.2048
660.9627, 257.6261
661.4448, 258.4872
661.9269, 258.7547
662.4091, 258.3744
662.8912, 258.2278
663.3733, 258.8029
663.8554, 259.7652
664.3375, 260.4478
664.8196, 260.7027
665.3018, 261.1046
665.7839, 261.9876
666.2660, 262.7021
666.7481, 262.6068
667.2302, 262.1822
667.7123, 262.4552
668.1945, 263.7767
668.6766, 265.1007
669.1587, 264.9613
669.6408, 263.4651
670.1229, 262.1977
670.6050, 261.1498
671.0872, 260.5045
671.5693, 260.5739
672.0514, 261.0054
672.5335, 261.3098
673.0156, 261.5944
673.4977, 261.1948
673.9799, 258.9659
674.4620, 256.7470
674.9441, 256.3759
675.4262, 257.3507
675.9083, 258.0494
676.3904, 257.7525
676.8726, 256.9656
677.3547, 256.4877
677.8368, 256.3671
678.3189, 256.2463
678.8010, 256.1739
679.2831, 256.0293
679.7653, 255.7873
680.2474, 255.4469
680.7295, 254.9982
681.2116, 254.4380
681.6937, 253.8077
682.1758, 252.9257
682.6580, 252.1099
683.1401, 251.8748
683.6222, 252.1366
684.1043, 252.3876
684.5864, 252.4076
685.0685, 252.2004
685.5507, 251.6915
686.0328, 250.6218
686.5149, 250.2867
686.9970, 251.6155
687.4791, 252.6381
687.9612, 252.7286
688.4434, 252.2137
688.9255, 251.3727
689.4076, 250.2917
689.8897, 249.3985
690.3718, 249.1371
690.8539, 249.2537
691.3361, 249.1917
691.8182, 248.9581
692.3003, 249.0522
692.7824, 249.7719
693.2645, 250.7121
693.7466, 251.2503
694.2288, 251.3366
694.7109, 251.1931
695.1930, 250.5059
695.6751, 249.9716
696.1572, 249.8011
696.6393, 249.9380
697.1215, 250.3052
697.6036, 250.8791
698.0857, 251.6593
698.5678, 252.8335
699.0499, 254.1845
699.5320, 255.0573
700.0142, 255.4305
700.4963, 255.6432
700.9784, 255.7388
701.4605, 255.8657
701.9426, 256.2465
702.4247, 256.9203
702.9069, 257.5591
703.3890, 258.6661
703.8711, 259.1568
704.3532, 257.9910
704.8353, 256.2971
705.3174, 255.4145
705.7996, 255.6079
706.2817, 256.3412
706.7638, 257.2495
707.2459, 258.2784
707.7280, 259.2839
708.2101, 260.2728
708.6923, 261.1770
709.1743, 262.0514
709.6564, 262.7304
710.1385, 263.0647
710.6207, 263.0529
711.1028, 262.6346
711.5849, 260.9499
712.0670, 259.8696
712.5491, 260.6427
713.0313, 262.0823
713.5134, 262.8482
713.9955, 262.7819
714.4776, 262.4171
714.9597, 262.0422
715.4418, 261.8665
715.9240, 262.7534
716.4061, 264.9276
716.8882, 266.0525
717.3703, 265.1237
717.8524, 263.9396
718.3345, 264.1693
718.8167, 265.3819
719.2988, 266.0968
719.7809, 266.1380
720.2630, 265.7611
720.7451, 264.4351
721.2272, 263.1579
721.7094, 263.1486
722.1915, 264.2233
722.6736, 265.3189
723.1557, 265.8313
723.6378, 265.8212
724.1199, 265.2684
724.6021, 264.1037
725.0842, 263.1702
725.5663, 262.3937
726.0484, 262.1687
726.5305, 263.1293
727.0126, 264.7022
727.4948, 265.6634
727.9769, 265.7135
728.4590, 265.9138
728.9411, 266.7155
729.4232, 267.6755
729.9053, 268.4281
730.3875, 269.0176
730.8696, 269.6115
731.3517, 270.2835
731.8338, 271.0479
732.3159, 271.8766
732.7980, 272.7705
733.2802, 274.0898
733.7623, 276.0085
734.2444, 277.8453
734.7265, 279.0653
735.2086, 280.2401
735.6907, 282.2479
736.1729, 285.1443
736.6550, 287.9348
737.1371, 289.9538
737.6192, 292.3036
738.1013, 295.9938
738.5834, 300.3442
739.0656, 304.0544
739.5477, 306.9503
740.0298, 310.1201
740.5119, 314.6398
740.9940, 320.2719
741.4761, 326.0054
741.9583, 331.6933
742.4404, 338.1709
742.9225, 345.5197
743.4046, 353.8716
743.8867, 363.5505
744.3688, 374.4219
744.8510, 385.8080
745.3331, 396.4201
745.8152, 409.0939
746.2973, 424.8972
746.7794, 443.1142
747.2615, 463.3156
747.7437, 485.1997
748.2258, 508.6836
748.7079, 533.7253
749.1900, 559.6370
749.6721, 585.0050
750.1542, 609.8975
750.6364, 635.8865
751.1185, 664.1031
751.6006, 690.2817
752.0827, 711.5154
752.5648, 729.0695
753.0469, 746.6058
753.5291, 764.1091
754.0112, 781.5681
754.4933, 797.9964
754.9754, 815.4271
755.4575, 835.4733
755.9396, 857.3082
756.4218, 879.5174
756.9039, 901.7106
757.3860, 924.3524
757.8681, 948.3911
758.3502, 973.2670
758.8323, 996.7089
759.3145, 1018.742
759.7966, 1039.561
760.2787, 1059.440
760.7608, 1077.836
761.2429, 1094.586
761.7250, 1109.989
762.2072, 1119.920
762.6893, 1126.273
763.1714, 1125.185
763.6535, 1116.588
764.1356, 1099.599
764.6177, 1072.789
765.0999, 1036.615
765.5820, 992.8655
766.0641, 941.4164
766.5462, 884.9589
767.0283, 824.8068
767.5104, 762.2193
767.9926, 703.0598
768.4747, 648.1213
768.9568, 597.2769
769.4389, 550.5846
769.9210, 508.1198
770.4031, 471.5390
770.8853, 442.3629
771.3674, 415.9572
771.8495, 392.5403
772.3316, 371.5117
772.8137, 353.0447
773.2958, 336.8708
773.7780, 322.8269
774.2601, 310.9442
774.7422, 300.2138
775.2243, 289.8821
775.7064, 280.5019
776.1885, 273.1724
776.6707, 267.4725
777.1528, 261.8733
777.6349, 255.8132
778.1170, 249.8115
778.5991, 244.5035
779.0812, 239.8576
779.5634, 235.4450
780.0455, 231.1853
780.5276, 227.3467
781.0097, 224.6243
781.4918, 221.7834
781.9739, 217.5240
782.4561, 212.2535
782.9382, 207.8443
783.4203, 204.8987
783.9024, 202.6203
784.3845, 200.9009
784.8666, 199.4584
785.3488, 198.0606
785.8309, 196.6329
786.3130, 195.0081
786.7951, 193.0694
787.2772, 191.2203
787.7593, 190.3472
788.2415, 190.4203
788.7236, 189.9156
789.2057, 188.6077
789.6878, 187.2779
790.1699, 186.1834
790.6520, 185.3983
791.1342, 185.1713
791.6162, 185.6345
792.0983, 185.8082
792.5804, 185.5595
793.0626, 185.1049
793.5447, 184.4045
794.0268, 183.6167
794.5089, 182.7800
794.9910, 181.9907
795.4731, 181.6080
795.9553, 182.0912
796.4374, 182.7940
796.9195, 182.5662
797.4016, 181.6507
797.8837, 181.1517
798.3658, 181.2764
798.8480, 181.6390
799.3301, 181.9488
799.8122, 182.2972
800.2943, 183.0336
800.7764, 184.6655
801.2585, 185.6017
801.7407, 184.8525
802.2228, 184.4604
802.7049, 185.2984
803.1870, 186.9181
803.6691, 188.8896
804.1512, 191.1738
804.6334, 192.8544
805.1155, 192.9518
805.5976, 192.6823
806.0797, 193.2289
806.5618, 194.2888
807.0439, 195.1770
807.5261, 195.6922
808.0082, 195.9141
808.4903, 195.7559
808.9724, 195.5464
809.4545, 196.8815
809.9366, 200.1579
810.4188, 202.2182
810.9009, 202.0463
811.3830, 201.4498
811.8651, 201.8465
812.3472, 202.8701
812.8293, 203.1124
813.3115, 201.6911
813.7936, 201.3679
814.2757, 203.7203
814.7578, 206.0998
815.2399, 206.6049
815.7220, 206.0798
816.2042, 206.2117
816.6863, 207.4370
817.1684, 208.5972
817.6505, 208.4072
818.1326, 207.6228
818.6147, 207.7205
819.0969, 208.5547
819.5790, 209.3147
820.0611, 209.7760
820.5432, 210.0002
821.0253, 210.0250
821.5074, 209.8738
821.9896, 209.7191
822.4717, 209.6485
822.9538, 209.3721
823.4359, 208.9094
823.9180, 208.1700
824.4001, 206.7755
824.8823, 205.1671
825.3644, 204.2613
825.8465, 204.3750
826.3286, 204.4691
826.8107, 203.9637
827.2928, 203.4522
827.7750, 203.4722
828.2571, 203.8469
828.7392, 204.2300
829.2213, 204.5013
829.7034, 204.6491
830.1855, 204.6910
830.6677, 204.5808
831.1498, 203.9886
831.6319, 202.9453
832.1140, 202.5882
832.5961, 203.3078
833.0782, 204.1622
833.5604, 204.3791
834.0425, 204.1110
834.5246, 204.0254
835.0067, 204.3617
835.4888, 204.4675
835.9709, 204.2750
836.4531, 203.9413
836.9352, 203.5359
837.4173, 203.0304
837.8994, 202.2951
838.3815, 201.3021
838.8636, 200.5054
839.3458, 200.2050
839.8279, 200.1343
840.3100, 200.2747
840.7921, 200.3954
841.2742, 199.9964
841.7563, 199.0270
842.2385, 197.9124
842.7206, 196.9923
843.2027, 196.1941
843.6848, 195.3175
844.1669, 194.3638
844.6490, 193.5619
845.1312, 193.0184
845.6133, 192.3576
846.0954, 191.3598
846.5775, 190.1005
847.0596, 188.7208
847.5417, 187.1511
848.0239, 185.6883
848.5060, 183.9501
848.9881, 182.7696
849.4702, 183.1544
849.9523, 183.7402
850.4344, 182.8321
850.9166, 180.5237
851.3987, 178.5779
851.8808, 177.8812
852.3629, 177.7306
852.8450, 177.7300
853.3271, 177.7921
853.8093, 177.8200
854.2914, 177.7755
854.7735, 177.4725
855.2556, 176.7819
855.7377, 176.2165
856.2198, 176.8977
856.7020, 178.7445
857.1841, 179.5378
857.6662, 179.0390
858.1483, 178.5729
858.6304, 178.5412
859.1125, 178.9056
859.5947, 179.7559
860.0768, 181.0947
860.5589, 181.9821
861.0410, 182.0579
861.5231, 182.2027
862.0052, 182.1798
862.4874, 182.5655
862.9695, 184.2134
863.4516, 186.4843
863.9337, 187.7753
864.4158, 187.4214
864.8979, 187.4300
865.3801, 189.7405
865.8622, 192.4770
866.3443, 193.3547
866.8264, 192.9997
867.3085, 193.0861
867.7906, 194.1035
868.2728, 195.5444
868.7549, 196.9912
869.2370, 198.4277
869.7191, 199.9101
870.2012, 201.4317
870.6833, 202.4585
871.1655, 202.8526
871.6476, 202.8953
872.1297, 202.4526
872.6118, 202.1476
873.0939, 203.6662
873.5760, 207.8493
874.0581, 211.3583
874.5402, 212.9581
875.0223, 215.3461
875.5045, 220.0816
875.9866, 225.3804
876.4687, 229.2245
876.9508, 231.7048
877.4329, 234.9497
877.9150, 239.7791
878.3972, 245.3460
878.8793, 251.0560
879.3614, 257.3747
879.8435, 264.7129
880.3256, 273.1503
880.8077, 282.6879
881.2899, 293.3372
881.7720, 305.3135
882.2541, 318.9472
882.7362, 334.1377
883.2183, 349.8370
883.7004, 366.3057
884.1826, 386.1178
884.6647, 409.9357
885.1468, 438.1224
885.6289, 470.5190
886.1110, 507.7437
886.5931, 552.4548
887.0753, 603.5126
887.5574, 665.4023
888.0395, 735.9278
888.5216, 821.3156
889.0037, 926.5167
889.4858, 1049.375
889.9680, 1188.802
890.4501, 1347.149
890.9322, 1506.621
891.4143, 1673.310
891.8964, 1831.268
892.3785, 1973.467
892.8607, 2103.514
893.3428, 2219.821
893.8249, 2327.163
894.3070, 2436.077
894.7891, 2549.115
895.2712, 2672.851
895.7534, 2811.813
896.2355, 2965.397
896.7176, 3133.142
897.1997, 3313.199
897.6818, 3502.674
898.1639, 3699.531
898.6461, 3904.973
899.1282, 4121.355
899.6103, 4346.318
900.0924, 4577.787
900.5745, 4816.320
901.0566, 5041.765
901.5388, 5255.218
902.0209, 5442.026
902.5030, 5604.336
902.9851, 5720.837
903.4672, 5733.582
903.9493, 5646.970
904.4315, 5442.336
904.9136, 5074.069
905.3957, 4643.028
905.8778, 4136.466
906.3599, 3615.560
906.8420, 3130.133
907.3242, 2687.561
907.8063, 2299.103
908.2884, 1974.145
908.7705, 1697.438
909.2526, 1475.000
909.7347, 1292.372
910.2169, 1143.353
910.6990, 1021.598
911.1811, 917.4392
911.6632, 827.8460
912.1453, 751.1080
912.6274, 687.9338
913.1096, 634.8206
913.5917, 588.0608
914.0738, 547.1012
914.5559, 510.2896
915.0380, 477.1987
915.5201, 447.7262
916.0023, 421.6932
916.4844, 398.8781
916.9665, 378.8681
917.4486, 361.6129
917.9307, 345.0204
918.4128, 328.7882
918.8950, 313.6110
919.3771, 299.5194
919.8592, 286.9849
920.3413, 276.8732
920.8234, 269.0519
921.3055, 260.6799
921.7877, 250.8793
922.2698, 242.0859
922.7519, 235.2323
923.2340, 228.7614
923.7161, 221.3970
924.1982, 214.0715
924.6804, 208.7078
925.1625, 205.8427
925.6446, 202.6420
926.1267, 197.9576
926.6088, 193.3190
927.0909, 189.4527
927.5731, 186.0823
928.0552, 183.1144
928.5373, 180.3344
929.0194, 177.0516
929.5015, 172.6653
929.9836, 168.8042
930.4658, 167.5105
930.9479, 167.1529
931.4300, 165.2051
931.9121, 162.0668
932.3942, 159.3723
932.8763, 157.6376
933.3585, 156.3990
933.8406, 155.3582
934.3227, 154.3323
934.8048, 152.7869
935.2869, 150.7891
935.7690, 148.7435
936.2512, 146.6833
936.7333, 145.5246
937.2154, 145.9673
937.6975, 146.8460
938.1796, 146.1138
938.6617, 143.6721
939.1439, 141.8491
939.6260, 140.8829
940.1081, 139.8735
940.5902, 138.6258
941.0723, 137.2528
941.5544, 135.7937
942.0366, 134.2833
942.5187, 132.8062
943.0008, 131.2054
943.4829, 130.0020
943.9650, 129.3086
944.4471, 128.9046
944.9293, 129.2820
945.4114, 129.5134
945.8935, 128.2728
946.3756, 125.8041
946.8577, 124.0390
947.3398, 123.8479
947.8220, 123.9576
948.3041, 124.1818
948.7862, 124.0826
949.2683, 122.7989
949.7504, 121.0279
950.2325, 120.2560
950.7147, 120.8042
951.1968, 121.4387
951.6789, 121.2521
952.1610, 121.1488
952.6431, 120.2400
953.1252, 119.8072
953.6074, 118.7128
954.0895, 117.1367
954.5716, 116.4569
955.0537, 117.3821
955.5358, 118.6436
956.0179, 118.3321
956.5000, 116.8679
956.9821, 116.2634
957.4642, 116.4747
957.9464, 116.4948
958.4285, 116.0748
958.9106, 115.5234
959.3927, 115.0276
959.8748, 114.6790
960.3569, 114.7980
960.8391, 115.5197
961.3212, 115.9707
961.8033, 116.1155
962.2854, 116.0396
962.7675, 115.4663
963.2496, 115.1751
963.7318, 116.4144
964.2139, 118.7841
964.6960, 119.2149
965.1781, 115.8949
965.6602, 113.6038
966.1423, 112.7272
966.6245, 112.4709
967.1066, 113.0654
967.5887, 113.7730
968.0708, 113.5354
968.5529, 112.3527
969.0350, 111.5297
969.5172, 111.4720
969.9993, 111.6282
970.4814, 111.8929
970.9635, 112.2421
971.4456, 113.0151
971.9277, 113.7371
972.4099, 113.2752
972.8920, 111.3965
973.3741, 110.0207
973.8562, 110.6557
974.3383, 111.7531
974.8204, 112.2860
975.3026, 112.3963
975.7847, 112.1002
976.2668, 111.5936
976.7489, 111.3838
977.2310, 111.7011
977.7131, 112.1652
978.1953, 112.4292
978.6774, 112.5650
979.1595, 112.6462
979.6416, 112.7127
980.1237, 112.9776
980.6058, 113.4179
981.0880, 113.5438
981.5701, 113.0169
982.0522, 112.2043
982.5343, 111.6379
983.0164, 111.3305
983.4985, 111.3044
983.9807, 111.5692
984.4628, 112.6216
984.9449, 114.7072
985.4270, 116.1586
985.9091, 115.3706
986.3912, 113.2112
986.8734, 112.4729
987.3555, 113.4463
987.8376, 113.1485
988.3197, 110.9679
988.8018, 109.6234
989.2839, 110.3867
989.7661, 111.8422
990.2482, 112.5313
990.7303, 112.5239
991.2124, 112.3367
991.6945, 111.9403
992.1766, 111.4040
992.6588, 110.3832
993.1409, 109.7563
993.6230, 110.0663
994.1051, 110.8508
994.5872, 111.6698
995.0693, 112.5155
995.5515, 112.8754
996.0336, 112.6943
996.5157, 112.0982
996.9978, 110.4403
997.4799, 109.0813
997.9620, 109.0508
998.4442, 109.6282
998.9263, 109.5984
999.4084, 108.8449
999.8905, 108.6819
1000.373, 110.0133
1000.855, 111.2115
1001.337, 111.6774
1001.819, 111.8065
1002.301, 111.9593
1002.783, 112.0057
1003.265, 111.4443
1003.747, 110.1763
1004.230, 109.4316
1004.712, 110.1651
1005.194, 111.2167
1005.676, 112.0610
1006.158, 112.6419
1006.640, 112.7440
1007.122, 112.5706
1007.604, 112.7319
1008.086, 113.4370
1008.569, 113.9046
1009.051, 112.7327
1009.533, 111.7423
1010.015, 113.8979
1010.497, 117.2030
1010.979, 117.9192
1011.461, 116.1424
1011.943, 114.2946
1012.426, 113.5010
1012.908, 113.4394
1013.390, 114.1427
1013.872, 115.1332
1014.354, 115.5968
1014.836, 115.5873
1015.318, 115.0866
1015.800, 114.2220
1016.282, 113.6905
1016.765, 113.8955
1017.247, 114.4563
1017.729, 114.9433
1018.211, 115.3279
1018.693, 115.5761
1019.175, 115.6443
1019.657, 115.0445
1020.139, 113.7220
1020.622, 112.7665
1021.104, 112.9008
1021.586, 113.7717
1022.068, 115.0259
1022.550, 116.5494
1023.032, 116.9727
1023.514, 116.2771
1023.996, 115.7038
1024.478, 115.5591
1024.961, 115.4371
1025.443, 114.9509
1025.925, 114.5765
1026.407, 115.6729
1026.889, 118.3768
1027.371, 119.3385
1027.853, 118.1653
1028.335, 117.5907
1028.818, 118.4392
1029.300, 119.6603
1029.782, 120.5677
1030.264, 121.0653
1030.746, 120.7267
1031.228, 119.2334
1031.710, 118.9521
1032.192, 120.3839
1032.674, 121.5212
1033.156, 121.6874
1033.639, 121.7202
1034.121, 122.3805
1034.603, 123.3542
1035.085, 123.6549
1035.567, 122.9233
1036.049, 122.9316
1036.531, 124.2506
1037.013, 125.2047
1037.496, 125.2497
1037.978, 124.8984
1038.460, 124.1592
1038.942, 123.4381
1039.424, 124.1556
1039.906, 127.1296
1040.388, 129.0416
1040.870, 129.4460
1041.353, 129.4197
1041.835, 128.9123
1042.317, 128.3482
1042.799, 128.1137
1043.281, 128.0791
1043.763, 127.8796
1044.245, 127.5152
1044.727, 126.9674
1045.209, 125.9501
1045.692, 125.1300
1046.174, 124.7000
1046.656, 124.5228
1047.138, 124.5959
1047.620, 124.8231
1048.102, 124.9381
1048.584, 124.8421
1049.066, 124.9332
1049.548, 125.8076
1050.031, 126.1633
1050.513, 124.9146
1050.995, 123.5829
1051.477, 123.6159
1051.959, 124.5174
1052.441, 124.8172
1052.923, 124.1293
1053.405, 123.7854
1053.888, 124.6028
1054.370, 125.1134
1054.852, 123.9341
1055.334, 122.9664
1055.816, 124.5612
1056.298, 127.4692
1056.780, 128.4377
1057.262, 126.6119
1057.745, 125.1532
1058.227, 125.3578
1058.709, 125.5721
1059.191, 124.8079
1059.673, 124.0478
1060.155, 124.1887
1060.637, 124.9957
1061.119, 126.0253
1061.601, 127.2513
1062.083, 127.6838
1062.566, 126.1195
1063.048, 124.8107
1063.530, 125.0257
1064.012, 125.6631
1064.494, 125.6381
1064.976, 125.3261
1065.458, 125.6422
1065.940, 126.7693
1066.423, 128.0938
1066.905, 129.7071
1067.387, 131.0393
1067.869, 132.2062
1068.351, 132.6373
1068.833, 130.9753
1069.315, 128.5646
1069.797, 128.1040
1070.280, 129.9637
1070.762, 131.3061
1071.244, 130.3901
1071.726, 129.4578
1072.208, 129.6148
1072.690, 130.0953
1073.172, 130.4495
1073.654, 130.6007
1074.136, 130.4154
1074.619, 129.9378
1075.101, 129.6522
1075.583, 129.7714
1076.065, 130.0890
1076.547, 130.7909
1077.029, 131.3682
1077.511, 131.1458
1077.993, 130.6869
1078.475, 131.0240
1078.958, 132.1143
1079.440, 132.7725
1079.922, 132.3202
1080.404, 131.9202
1080.886, 132.2902
1081.368, 132.7380
1081.850, 132.5225
1082.332, 132.2316
1082.814, 132.7393
1083.297, 133.9971
1083.779, 135.3006
1084.261, 136.4719
1084.743, 137.4986
1085.225, 138.6155
1085.707, 139.3107
1086.189, 138.7164
1086.671, 137.9039
1087.154, 138.2808
1087.636, 139.5862
1088.118, 140.5683
1088.600, 140.8853
1089.082, 140.8154
1089.564, 140.0535
1090.046, 139.4432
1090.528, 139.5474
1091.010, 139.9600
1091.493, 140.3084
1091.975, 140.6009
1092.457, 140.9144
1092.939, 141.2485
1093.421, 141.8658
1093.903, 143.4142
1094.385, 144.5519
1094.867, 144.2761
1095.349, 143.6913
1095.832, 143.5587
1096.314, 143.8851
1096.796, 144.6039
1097.278, 145.6930
1097.760, 146.7949
1098.242, 148.1240
1098.724, 148.9958
1099.206, 148.6311
1099.689, 148.3217
1100.171, 149.1355
1100.653, 150.4674
1101.135, 151.2818
1101.617, 151.5652
1102.099, 152.3177
1102.581, 154.0928
1103.063, 155.7988
1103.546, 157.3323
1104.028, 158.5668
1104.510, 159.1238
1104.992, 159.5631
1105.474, 160.7354
1105.956, 162.4116
1106.438, 163.2358
1106.920, 162.2115
1107.402, 162.3525
1107.885, 165.3952
1108.367, 168.0381
1108.849, 168.4992
1109.331, 168.5891
1109.813, 170.0779
1110.295, 172.4580
1110.777, 174.0711
1111.259, 174.4797
1111.741, 175.5296
1112.224, 178.7222
1112.706, 180.6307
1113.188, 179.9131
1113.670, 178.3702
1114.152, 176.6808
1114.634, 175.1314
1115.116, 174.2444
1115.598, 174.0701
1116.081, 173.9940
1116.563, 174.2185
1117.045, 174.2008
1117.527, 174.0379
1118.009, 173.3825
1118.491, 171.5303
1118.973, 169.6212
1119.455, 169.1850
1119.938, 170.0546
1120.420, 170.6664
1120.902, 170.9759
1121.384, 171.1269
1121.866, 171.1492
1122.348, 170.9232
1122.830, 170.2487
1123.312, 169.6013
1123.794, 169.4876
1124.276, 169.6902
1124.759, 169.4413
1125.241, 168.5296
1125.723, 168.5119
1126.205, 169.7661
1126.687, 170.3199
1127.169, 169.3993
1127.651, 168.8688
1128.133, 170.0993
1128.616, 172.1878
1129.098, 173.6161
1129.580, 174.3741
1130.062, 174.0680
1130.544, 172.5262
1131.026, 172.1697
1131.508, 173.4554
1131.990, 174.6940
1132.473, 175.0918
1132.955, 175.1008
1133.437, 175.1522
1133.919, 175.3875
1134.401, 176.6099
1134.883, 176.8130
1135.365, 177.2135
1135.847, 178.2888
1136.329, 178.0542
1136.812, 179.2000
1137.294, 180.4325
1137.776, 180.6803
1138.258, 180.7009
1138.740, 182.2198
1139.222, 182.3721
1139.704, 183.1651
1140.186, 184.1481
1140.668, 184.5731
1141.151, 186.4711
1141.633, 187.3161
1142.115, 185.8067
1142.597, 184.2757
1143.079, 185.6966
1143.561, 188.4040
1144.043, 189.7624
1144.525, 190.2548
1145.008, 190.6552
1145.490, 191.1553
1145.972, 191.9343
1146.454, 193.0422
1146.936, 194.4103
1147.418, 196.2198
1147.900, 197.7620
1148.382, 198.2696
1148.865, 198.2166
1149.347, 197.6721
1149.829, 197.2171
1150.311, 198.1096
1150.793, 200.0892
1151.275, 201.3272
1151.757, 200.9607
1152.239, 200.5361
1152.721, 200.6380
1153.203, 201.3137
1153.686, 203.1183
1154.168, 205.0797
1154.650, 206.1409
1155.132, 206.5723
1155.614, 207.1222
1156.096, 207.9325
1156.578, 208.8336
1157.060, 209.8954
1157.543, 210.8668
1158.025, 211.4450
1158.507, 212.1807
1158.989, 213.4573
1159.471, 215.0376
1159.953, 216.7938
1160.435, 218.6265
1160.917, 219.8599
1161.400, 220.0109
1161.882, 220.5301
1162.364, 221.5867
1162.846, 222.7930
1163.328, 224.3175
1163.810, 225.5887
1164.292, 226.0234
1164.774, 226.0441
1165.256, 226.4539
1165.739, 227.2292
1166.221, 228.9916
1166.703, 232.2776
1167.185, 234.4048
1167.667, 234.7473
1168.149, 235.0055
1168.631, 235.9436
1169.113, 237.1576
1169.595, 238.1842
1170.078, 239.1520
1170.560, 240.6282
1171.042, 242.5838
1171.524, 243.9846
1172.006, 244.8053
1172.488, 245.7160
1172.970, 246.8902
1173.452, 248.2231
1173.934, 249.6561
1174.417, 251.1231
1174.899, 252.4911
1175.381, 253.8490
1175.863, 255.5175
1176.345, 257.3690
1176.827, 258.8380
1177.309, 260.0851
1177.791, 262.1280
1178.274, 265.2172
1178.756, 268.1511
1179.238, 269.9849
1179.720, 271.3911
1180.202, 272.7345
1180.684, 274.3744
1181.166, 277.0744
1181.648, 280.2455
1182.130, 282.7555
1182.613, 284.6298
1183.095, 286.7632
1183.577, 289.5294
1184.059, 291.9836
1184.541, 293.5174
1185.023, 294.7412
1185.505, 296.0146
1185.987, 297.0871
1186.469, 297.2580
1186.952, 297.3184
1187.434, 298.8712
1187.916, 301.9266
1188.398, 304.2251
1188.880, 304.8367
1189.362, 305.6735
1189.844, 307.3843
1190.326, 308.7219
1190.809, 308.9610
1191.291, 309.0103
1191.773, 309.3184
1192.255, 310.1264
1192.737, 312.2036
1193.219, 315.7452
1193.701, 318.3652
1194.183, 320.1129
1194.666, 320.3727
1195.148, 318.4121
1195.630, 317.8195
1196.112, 320.4014
1196.594, 324.3318
1197.076, 327.7709
1197.558, 330.6820
1198.040, 332.7852
1198.522, 334.1888
1199.005, 336.0330
1199.487, 338.2564
1199.969, 339.9503
1200.451, 341.0007
1200.933, 342.2063
1201.415, 343.9955
1201.897, 346.4911
1202.379, 350.3683
1202.861, 354.5048
1203.344, 356.6561
1203.826, 358.0725
1204.308, 361.1367
1204.790, 365.3401
1205.272, 368.9551
1205.754, 371.6416
1206.236, 374.0631
1206.718, 376.3128
1207.201, 379.1490
1207.683, 383.6333
1208.165, 388.1457
1208.647, 391.5639
1209.129, 394.5120
1209.611, 397.4481
1210.093, 400.5253
1210.575, 403.9744
1211.057, 407.8285
1211.540, 411.7654
1212.022, 415.7304
1212.504, 419.8574
1212.986, 424.1666
1213.468, 428.6659
1213.950, 433.7481
1214.432, 438.4701
1214.914, 441.3395
1215.396, 443.6473
1215.879, 449.3565
1216.361, 458.9572
1216.843, 465.1608
1217.325, 467.3759
1217.807, 470.2211
1218.289, 474.4406
1218.771, 478.5741
1219.253, 481.9045
1219.736, 485.6461
1220.218, 491.2650
1220.700, 494.5253
1221.182, 501.1376
1221.664, 503.2174
1222.146, 507.3940
1222.628, 513.0995
1223.110, 517.6833
1223.593, 521.0341
1224.075, 525.2764
1224.557, 531.3304
1225.039, 537.1447
1225.521, 540.8227
1226.003, 543.8635
1226.485, 547.6555
1226.967, 551.3947
1227.449, 554.0493
1227.932, 556.1641
1228.414, 558.6355
1228.896, 561.5292
1229.378, 564.5914
1229.860, 567.8658
1230.342, 570.8074
1230.824, 572.2318
1231.306, 574.7921
1231.788, 581.2029
1232.271, 586.6918
1232.753, 587.3494
1233.235, 586.6530
1233.717, 589.4473
1234.199, 591.4972
1234.681, 594.3837
1235.163, 599.3195
1235.645, 602.7377
1236.128, 609.5467
1236.610, 615.6520
1237.092, 620.1086
1237.574, 623.5402
1238.056, 626.2362
1238.538, 628.8137
1239.020, 632.0011
1239.502, 635.8142
1239.984, 640.6336
1240.467, 644.9421
1240.949, 650.9456
1241.431, 655.4738
1241.913, 661.0889
1242.395, 667.7541
1242.877, 673.4344
1243.359, 677.0137
1243.841, 680.7233
1244.323, 686.4963
1244.806, 692.7540
1245.288, 698.7814
1245.770, 704.3455
1246.252, 708.4871
1246.734, 712.4370
1247.216, 718.6296
1247.698, 726.7943
1248.180, 733.3259
1248.662, 736.9378
1249.145, 740.9119
1249.627, 745.6338
1250.109, 750.4033
1250.591, 754.8904
1251.073, 759.7230
1251.555, 765.2614
1252.037, 771.3926
1252.519, 778.0589
1253.002, 785.1177
1253.484, 792.0981
1253.966, 798.9908
1254.448, 804.6078
1254.930, 808.9788
1255.412, 813.1667
1255.894, 817.4403
1256.376, 822.0584
1256.859, 827.1212
1257.341, 832.7584
1257.823, 839.4511
1258.305, 846.2358
1258.787, 851.5247
1259.269, 856.2507
1259.751, 861.6650
1260.233, 867.5089
1260.715, 873.6420
1261.198, 879.6113
1261.680, 883.8118
1262.162, 885.3358
1262.644, 888.2897
1263.126, 894.6625
1263.608, 901.6339
1264.090, 908.6927
1264.572, 915.7969
1265.054, 923.5496
1265.537, 930.6346
1266.019, 935.0499
1266.501, 937.8690
1266.983, 942.7028
1267.465, 949.6486
1267.947, 957.7578
1268.429, 967.2969
1268.911, 974.6476
1269.394, 979.2356
1269.876, 983.8210
1270.358, 989.5935
1270.840, 996.3177
1271.322, 1003.799
1271.804, 1012.099
1272.286, 1021.682
1272.768, 1031.957
1273.250, 1042.351
1273.733, 1052.382
1274.215, 1060.589
1274.697, 1067.893
1275.179, 1077.242
1275.661, 1089.190
1276.143, 1100.543
1276.625, 1109.300
1277.107, 1118.955
1277.589, 1131.548
1278.072, 1144.192
1278.554, 1154.236
1279.036, 1165.333
1279.518, 1181.936
1280.000, 1199.846
1280.482, 1211.116
1280.964, 1216.693
1281.446, 1228.548
1281.929, 1247.558
1282.411, 1264.523
1282.893, 1278.955
1283.375, 1292.933
1283.857, 1307.099
1284.339, 1322.486
1284.821, 1339.758
1285.303, 1358.060
1285.786, 1376.735
1286.268, 1395.587
##END=



