##NAMES=Stolzite
##RRUFFID=R050568
##IDEAL CHEMISTRY=Pb^2+^W^6+^O_4_
##LOCALITY=Broken Hill, New South Wales, Australia
##OWNER=RRUFF
##SOURCE=University of Arizona Mineral Museum
##DESCRIPTION=Yellowish brown tetragonal dipyramidal crystals
##STATUS=The identification of this mineral is confirmed by single-crystal X-ray diffraction and chemical analysis.
##URL=rruff.info/R050568
##MEASURED CHEMISTRY=Pb_1.00_W_1.00_O_4_
91.11523, 106.5478
91.59735, 104.7152
92.07947, 105.7557
92.56158, 109.0319
93.04370, 112.5548
93.52582, 115.6728
94.00793, 118.2024
94.49006, 119.4930
94.97218, 119.2415
95.45429, 118.2802
95.93641, 117.5164
96.41853, 116.9661
96.90064, 117.2894
97.38276, 120.4649
97.86488, 125.9638
98.34699, 127.3775
98.82911, 122.2067
99.31123, 113.0416
99.79334, 108.9636
100.2755, 110.9826
100.7576, 114.7137
101.2397, 116.4545
101.7218, 115.9622
102.2039, 114.5676
102.6861, 111.8918
103.1682, 107.9522
103.6503, 106.8558
104.1324, 109.6356
104.6145, 114.1008
105.0966, 117.8252
105.5788, 120.9299
106.0609, 122.9688
106.5430, 123.1601
107.0251, 120.0314
107.5072, 120.4704
107.9893, 127.0679
108.4715, 136.6044
108.9536, 143.3058
109.4357, 144.6212
109.9178, 145.4220
110.3999, 147.4001
110.8820, 152.2845
111.3642, 155.4758
111.8463, 153.1373
112.3284, 148.5344
112.8105, 150.6131
113.2926, 166.9274
113.7747, 185.9246
114.2569, 201.6919
114.7390, 212.5263
115.2211, 221.1318
115.7032, 223.4708
116.1853, 221.9940
116.6674, 229.1008
117.1496, 255.4545
117.6317, 289.3162
118.1138, 320.7076
118.5959, 343.1136
119.0780, 365.7032
119.5602, 392.2293
120.0423, 422.8973
120.5244, 456.3908
121.0065, 494.0583
121.4886, 533.7167
121.9707, 572.6514
122.4529, 608.3710
122.9350, 643.2975
123.4171, 680.3551
123.8992, 719.9966
124.3813, 757.4650
124.8634, 788.0651
125.3456, 813.4665
125.8277, 837.5614
126.3098, 859.2646
126.7919, 881.4948
127.2740, 908.9260
127.7561, 942.5016
128.2383, 978.9694
128.7204, 1013.510
129.2025, 1046.995
129.6846, 1083.998
130.1667, 1129.497
130.6488, 1180.530
131.1310, 1230.610
131.6131, 1278.514
132.0952, 1325.913
132.5773, 1376.297
133.0594, 1429.943
133.5415, 1483.376
134.0237, 1533.793
134.5058, 1581.736
134.9879, 1632.361
135.4700, 1688.579
135.9521, 1747.099
136.4343, 1798.789
136.9164, 1842.867
137.3985, 1883.937
137.8806, 1927.210
138.3627, 1973.990
138.8448, 2015.321
139.3270, 2047.464
139.8091, 2072.306
140.2912, 2107.406
140.7733, 2157.094
141.2554, 2209.974
141.7375, 2252.602
142.2197, 2280.490
142.7018, 2311.236
143.1839, 2348.740
143.6660, 2393.045
144.1481, 2440.749
144.6302, 2492.057
145.1124, 2546.258
145.5945, 2600.982
146.0766, 2653.348
146.5587, 2711.621
147.0408, 2778.113
147.5230, 2853.256
148.0051, 2933.250
148.4872, 3005.610
148.9693, 3063.974
149.4514, 3123.258
149.9335, 3180.849
150.4157, 3242.521
150.8978, 3307.893
151.3799, 3374.740
151.8620, 3452.008
152.3441, 3541.762
152.8262, 3641.807
153.3084, 3746.322
153.7905, 3856.439
154.2726, 3969.303
154.7547, 4084.966
155.2368, 4197.427
155.7189, 4319.124
156.2011, 4451.072
156.6832, 4593.513
157.1653, 4744.005
157.6474, 4909.313
158.1295, 5077.337
158.6116, 5241.585
159.0938, 5394.797
159.5759, 5552.764
160.0580, 5722.655
160.5401, 5901.169
161.0222, 6077.112
161.5044, 6241.702
161.9865, 6405.374
162.4686, 6575.329
162.9507, 6758.426
163.4328, 6942.311
163.9149, 7117.294
164.3971, 7288.423
164.8792, 7472.836
165.3613, 7683.621
165.8434, 7909.277
166.3255, 8140.127
166.8076, 8357.002
167.2898, 8589.171
167.7719, 8856.748
168.2540, 9157.756
168.7361, 9475.642
169.2182, 9803.545
169.7003, 10142.04
170.1825, 10491.80
170.6646, 10857.67
171.1467, 11231.31
171.6288, 11622.75
172.1109, 12027.41
172.5931, 12412.92
173.0752, 12775.71
173.5573, 13100.84
174.0394, 13364.92
174.5215, 13563.83
175.0036, 13692.93
175.4858, 13752.14
175.9679, 13743.09
176.4500, 13641.14
176.9321, 13424.30
177.4142, 13097.99
177.8963, 12679.92
178.3785, 12139.82
178.8606, 11517.72
179.3427, 10882.99
179.8248, 10230.08
180.3069, 9573.339
180.7890, 8916.880
181.2712, 8268.918
181.7533, 7663.469
182.2354, 7124.550
182.7175, 6639.593
183.1996, 6197.625
183.6818, 5792.844
184.1639, 5429.947
184.6460, 5104.448
185.1281, 4817.596
185.6102, 4559.723
186.0923, 4333.314
186.5745, 4133.552
187.0566, 3954.625
187.5387, 3794.870
188.0208, 3653.058
188.5029, 3524.128
188.9850, 3408.288
189.4672, 3301.496
189.9493, 3201.250
190.4314, 3108.252
190.9135, 3020.770
191.3956, 2938.523
191.8777, 2863.529
192.3599, 2798.042
192.8420, 2742.366
193.3241, 2689.663
193.8062, 2636.464
194.2883, 2582.548
194.7704, 2530.962
195.2526, 2481.481
195.7347, 2434.869
196.2168, 2392.265
196.6989, 2353.572
197.1810, 2319.327
197.6632, 2291.421
198.1453, 2269.571
198.6274, 2246.035
199.1095, 2219.331
199.5916, 2192.151
200.0737, 2170.922
200.5559, 2156.166
201.0380, 2143.349
201.5201, 2130.398
202.0022, 2117.214
202.4843, 2104.245
202.9664, 2091.630
203.4486, 2079.210
203.9307, 2066.354
204.4128, 2052.987
204.8949, 2040.095
205.3770, 2027.955
205.8591, 2016.389
206.3413, 2006.855
206.8234, 1999.695
207.3055, 1994.341
207.7876, 1989.457
208.2697, 1985.083
208.7519, 1981.015
209.2340, 1977.177
209.7161, 1973.618
210.1982, 1969.362
210.6803, 1962.744
211.1624, 1956.289
211.6446, 1958.748
212.1267, 1974.414
212.6088, 1988.470
213.0909, 1992.248
213.5730, 1982.664
214.0551, 1975.026
214.5373, 1970.912
215.0194, 1968.934
215.5015, 1964.478
215.9836, 1955.828
216.4657, 1948.223
216.9478, 1944.445
217.4300, 1945.571
217.9121, 1946.961
218.3942, 1948.084
218.8763, 1949.398
219.3584, 1952.699
219.8405, 1959.342
220.3227, 1965.302
220.8048, 1968.192
221.2869, 1966.541
221.7690, 1966.252
222.2511, 1968.822
222.7333, 1972.489
223.2154, 1971.481
223.6975, 1962.859
224.1796, 1954.583
224.6617, 1950.021
225.1438, 1948.518
225.6260, 1953.586
226.1081, 1970.815
226.5902, 1993.285
227.0723, 1998.926
227.5544, 1976.743
228.0365, 1955.297
228.5187, 1948.849
229.0008, 1965.106
229.4829, 1977.651
229.9650, 1986.478
230.4471, 1991.305
230.9292, 1990.450
231.4114, 1978.196
231.8935, 1968.864
232.3756, 1969.985
232.8577, 1988.944
233.3398, 2000.503
233.8220, 2002.095
234.3041, 1997.106
234.7862, 1993.581
235.2683, 1991.558
235.7504, 1990.980
236.2325, 1992.197
236.7147, 1996.531
237.1968, 1999.265
237.6789, 1999.650
238.1610, 1998.844
238.6431, 1999.323
239.1252, 2001.466
239.6074, 2004.461
240.0895, 2008.145
240.5716, 2012.781
241.0537, 2017.472
241.5358, 2023.086
242.0179, 2028.331
242.5001, 2029.954
242.9822, 2023.888
243.4643, 2020.764
243.9464, 2025.575
244.4285, 2042.556
244.9106, 2053.043
245.3928, 2054.478
245.8749, 2050.934
246.3570, 2049.542
246.8391, 2051.568
247.3212, 2053.421
247.8034, 2053.030
248.2855, 2048.490
248.7676, 2050.462
249.2497, 2063.044
249.7318, 2079.192
250.2139, 2087.591
250.6961, 2083.398
251.1782, 2080.494
251.6603, 2083.855
252.1424, 2095.309
252.6245, 2102.021
253.1066, 2101.435
253.5888, 2098.518
254.0709, 2100.192
254.5530, 2109.313
255.0351, 2117.137
255.5172, 2120.522
255.9993, 2118.768
256.4815, 2120.467
256.9636, 2127.317
257.4457, 2135.744
257.9278, 2141.771
258.4099, 2144.817
258.8921, 2146.627
259.3742, 2146.616
259.8563, 2144.691
260.3384, 2147.343
260.8205, 2156.558
261.3026, 2167.673
261.7848, 2176.345
262.2669, 2182.177
262.7490, 2186.183
263.2311, 2186.967
263.7132, 2185.071
264.1953, 2190.026
264.6775, 2204.359
265.1596, 2221.408
265.6417, 2235.778
266.1238, 2247.343
266.6059, 2256.503
267.0880, 2263.004
267.5702, 2267.072
268.0523, 2268.975
268.5344, 2266.825
269.0165, 2266.488
269.4986, 2273.373
269.9807, 2289.507
270.4629, 2304.261
270.9450, 2316.336
271.4271, 2326.066
271.9092, 2334.281
272.3913, 2340.930
272.8734, 2346.180
273.3556, 2349.086
273.8377, 2348.791
274.3198, 2352.173
274.8019, 2360.645
275.2840, 2372.659
275.7661, 2383.999
276.2483, 2394.296
276.7304, 2405.313
277.2125, 2418.185
277.6946, 2433.135
278.1768, 2447.659
278.6589, 2461.760
279.1410, 2475.210
279.6231, 2486.860
280.1052, 2496.415
280.5873, 2507.087
281.0695, 2519.815
281.5516, 2534.662
282.0337, 2554.171
282.5158, 2579.794
282.9979, 2607.122
283.4800, 2627.388
283.9622, 2640.093
284.4443, 2656.030
284.9264, 2682.769
285.4085, 2718.336
285.8906, 2746.009
286.3727, 2764.059
286.8549, 2780.272
287.3370, 2805.643
287.8191, 2839.710
288.3012, 2873.179
288.7833, 2899.777
289.2654, 2922.871
289.7476, 2957.259
290.2297, 3004.044
290.7118, 3053.610
291.1939, 3094.427
291.6760, 3128.010
292.1581, 3165.573
292.6403, 3210.354
293.1224, 3261.315
293.6045, 3317.856
294.0866, 3379.524
294.5687, 3445.248
295.0508, 3512.955
295.5330, 3583.914
296.0151, 3660.559
296.4972, 3743.257
296.9793, 3833.824
297.4614, 3932.293
297.9435, 4039.353
298.4257, 4155.246
298.9078, 4279.123
299.3899, 4411.728
299.8720, 4550.004
300.3541, 4692.378
300.8362, 4846.255
301.3184, 5021.748
301.8005, 5218.466
302.2826, 5427.083
302.7647, 5644.636
303.2469, 5871.157
303.7290, 6110.661
304.2111, 6360.900
304.6932, 6627.428
305.1753, 6909.712
305.6574, 7209.100
306.1396, 7518.070
306.6217, 7834.370
307.1038, 8161.441
307.5859, 8502.205
308.0680, 8859.766
308.5501, 9232.909
309.0323, 9623.326
309.5144, 10029.14
309.9965, 10445.62
310.4786, 10873.03
310.9607, 11313.87
311.4428, 11769.46
311.9250, 12238.06
312.4071, 12730.60
312.8892, 13242.34
313.3713, 13773.89
313.8534, 14330.59
314.3355, 14904.79
314.8177, 15507.40
315.2998, 16153.10
315.7819, 16833.44
316.2640, 17523.82
316.7461, 18213.85
317.2282, 18901.09
317.7104, 19594.25
318.1925, 20322.88
318.6746, 21015.01
319.1567, 21661.86
319.6388, 22258.63
320.1209, 22774.55
320.6031, 23212.96
321.0852, 23558.68
321.5673, 23810.95
322.0494, 23977.64
322.5315, 24032.21
323.0136, 23957.39
323.4958, 23769.62
323.9779, 23495.45
324.4600, 23121.82
324.9421, 22677.31
325.4242, 22183.81
325.9064, 21653.51
326.3885, 21016.01
326.8706, 20247.28
327.3527, 19377.85
327.8348, 18430.57
328.3170, 17332.59
328.7991, 16229.78
329.2812, 15138.19
329.7633, 14051.41
330.2454, 13020.72
330.7275, 12042.38
331.2097, 11133.40
331.6918, 10308.62
332.1739, 9571.291
332.6560, 8908.451
333.1381, 8336.295
333.6202, 7844.233
334.1024, 7407.634
334.5845, 7034.758
335.0666, 6712.079
335.5487, 6435.063
336.0308, 6212.241
336.5129, 6018.701
336.9951, 5854.161
337.4772, 5719.288
337.9593, 5610.635
338.4414, 5531.625
338.9235, 5468.883
339.4056, 5417.163
339.8878, 5376.985
340.3699, 5348.159
340.8520, 5331.750
341.3341, 5324.722
341.8162, 5322.768
342.2983, 5325.731
342.7805, 5335.124
343.2626, 5351.247
343.7447, 5374.088
344.2268, 5402.075
344.7089, 5434.796
345.1910, 5476.117
345.6732, 5526.664
346.1553, 5587.655
346.6374, 5664.968
347.1195, 5761.997
347.6016, 5874.583
348.0837, 5992.856
348.5659, 6118.331
349.0480, 6259.526
349.5301, 6419.103
350.0122, 6598.862
350.4944, 6801.620
350.9765, 7031.068
351.4586, 7270.624
351.9407, 7503.077
352.4228, 7727.341
352.9049, 7939.489
353.3871, 8156.237
353.8692, 8351.808
354.3513, 8504.635
354.8334, 8615.224
355.3155, 8648.209
355.7976, 8578.071
356.2798, 8410.850
356.7619, 8155.426
357.2440, 7782.004
357.7261, 7350.688
358.2082, 6882.187
358.6903, 6383.446
359.1725, 5902.735
359.6546, 5452.731
360.1367, 5038.478
360.6188, 4668.724
361.1009, 4352.366
361.5830, 4076.562
362.0652, 3843.038
362.5473, 3646.987
363.0294, 3476.505
363.5115, 3336.247
363.9936, 3213.358
364.4757, 3103.702
364.9579, 3006.595
365.4400, 2919.744
365.9221, 2845.018
366.4042, 2778.874
366.8863, 2716.813
367.3684, 2656.652
367.8506, 2602.143
368.3327, 2554.181
368.8148, 2513.245
369.2969, 2477.353
369.7790, 2446.001
370.2611, 2419.664
370.7433, 2399.260
371.2254, 2393.446
371.7075, 2379.976
372.1896, 2353.553
372.6717, 2317.688
373.1538, 2287.519
373.6360, 2264.434
374.1181, 2244.755
374.6002, 2226.965
375.0823, 2210.574
375.5645, 2197.883
376.0466, 2190.772
376.5287, 2185.438
377.0108, 2174.933
377.4929, 2158.266
377.9750, 2142.154
378.4572, 2129.007
378.9393, 2118.581
379.4214, 2109.393
379.9035, 2101.851
380.3856, 2094.214
380.8677, 2084.039
381.3499, 2071.640
381.8320, 2061.481
382.3141, 2055.235
382.7962, 2050.816
383.2783, 2043.550
383.7604, 2033.573
384.2426, 2023.119
384.7247, 2012.084
385.2068, 2001.776
385.6889, 1995.405
386.1710, 1994.044
386.6531, 1993.751
387.1353, 1990.981
387.6174, 1985.977
388.0995, 1979.397
388.5816, 1970.835
389.0637, 1961.241
389.5458, 1950.789
390.0280, 1939.496
390.5101, 1929.559
390.9922, 1923.022
391.4743, 1918.420
391.9564, 1914.128
392.4385, 1910.476
392.9207, 1906.080
393.4028, 1898.995
393.8849, 1890.404
394.3670, 1883.856
394.8491, 1883.239
395.3312, 1883.226
395.8134, 1880.731
396.2955, 1874.589
396.7776, 1868.058
397.2597, 1861.279
397.7418, 1854.732
398.2239, 1849.004
398.7061, 1843.783
399.1882, 1839.859
399.6703, 1837.994
400.1524, 1838.311
400.6346, 1837.775
401.1167, 1836.637
401.5988, 1834.458
402.0809, 1830.601
402.5630, 1822.728
403.0451, 1817.947
403.5273, 1818.324
404.0094, 1821.621
404.4915, 1821.077
404.9736, 1814.969
405.4557, 1809.100
405.9378, 1805.895
406.4200, 1805.496
406.9021, 1806.416
407.3842, 1809.278
407.8663, 1812.012
408.3484, 1811.450
408.8305, 1807.533
409.3127, 1804.324
409.7948, 1803.305
410.2769, 1803.617
410.7590, 1802.719
411.2411, 1800.628
411.7232, 1798.706
412.2054, 1798.152
412.6875, 1798.575
413.1696, 1798.706
413.6517, 1798.128
414.1338, 1797.968
414.6159, 1800.457
415.0981, 1804.530
415.5802, 1807.298
416.0623, 1805.944
416.5444, 1803.271
417.0265, 1801.627
417.5086, 1801.067
417.9908, 1802.155
418.4729, 1807.602
418.9550, 1813.911
419.4371, 1817.210
419.9192, 1814.522
420.4013, 1810.969
420.8835, 1807.417
421.3656, 1804.520
421.8477, 1804.182
422.3298, 1811.031
422.8119, 1817.332
423.2940, 1819.130
423.7762, 1814.329
424.2583, 1810.346
424.7404, 1806.123
425.2225, 1803.959
425.7047, 1806.532
426.1868, 1820.305
426.6689, 1830.198
427.1510, 1832.582
427.6331, 1828.205
428.1152, 1825.865
428.5974, 1826.326
429.0795, 1827.646
429.5616, 1829.118
430.0437, 1831.335
430.5258, 1830.684
431.0079, 1825.743
431.4901, 1819.433
431.9722, 1817.178
432.4543, 1819.268
432.9364, 1822.450
433.4185, 1826.620
433.9006, 1830.907
434.3828, 1829.831
434.8649, 1822.912
435.3470, 1816.556
435.8291, 1819.595
436.3112, 1828.371
436.7933, 1829.988
437.2755, 1819.489
437.7576, 1806.253
438.2397, 1802.972
438.7218, 1807.305
439.2039, 1811.382
439.6860, 1809.507
440.1682, 1806.010
440.6503, 1805.589
441.1324, 1808.609
441.6145, 1812.044
442.0966, 1816.142
442.5787, 1818.825
443.0609, 1817.819
443.5430, 1807.933
444.0251, 1798.940
444.5072, 1794.710
444.9893, 1794.228
445.4714, 1793.776
445.9536, 1792.592
446.4357, 1791.205
446.9178, 1790.147
447.3999, 1790.407
447.8820, 1788.347
448.3641, 1780.901
448.8463, 1772.889
449.3284, 1769.733
449.8105, 1775.037
450.2926, 1778.696
450.7747, 1778.348
451.2569, 1774.822
451.7390, 1773.293
452.2211, 1774.203
452.7032, 1775.879
453.1853, 1778.029
453.6674, 1780.819
454.1496, 1780.059
454.6317, 1774.516
455.1138, 1768.026
455.5959, 1766.930
456.0780, 1770.704
456.5602, 1773.678
457.0423, 1773.191
457.5244, 1771.098
458.0065, 1771.898
458.4886, 1775.264
458.9707, 1777.379
459.4529, 1773.109
459.9350, 1766.529
460.4171, 1764.502
460.8992, 1769.199
461.3813, 1774.420
461.8634, 1775.911
462.3456, 1774.621
462.8277, 1772.108
463.3098, 1767.520
463.7919, 1763.126
464.2740, 1759.761
464.7561, 1757.477
465.2383, 1756.610
465.7204, 1758.485
466.2025, 1760.922
466.6846, 1762.590
467.1667, 1763.333
467.6488, 1763.231
468.1310, 1761.512
468.6131, 1759.150
469.0952, 1757.700
469.5773, 1757.736
470.0594, 1757.782
470.5415, 1757.598
471.0237, 1757.180
471.5058, 1756.074
471.9879, 1753.916
472.4700, 1751.912
472.9521, 1751.158
473.4342, 1751.731
473.9164, 1752.311
474.3985, 1753.201
474.8806, 1753.203
475.3627, 1749.442
475.8448, 1742.313
476.3270, 1735.802
476.8091, 1730.846
477.2912, 1728.002
477.7733, 1729.819
478.2554, 1735.972
478.7375, 1741.499
479.2197, 1742.427
479.7018, 1740.507
480.1839, 1737.716
480.6660, 1733.767
481.1481, 1730.972
481.6302, 1732.329
482.1124, 1735.658
482.5945, 1737.276
483.0766, 1733.811
483.5587, 1730.194
484.0408, 1729.361
484.5229, 1731.235
485.0051, 1730.925
485.4872, 1725.390
485.9693, 1718.921
486.4514, 1713.981
486.9335, 1710.154
487.4156, 1708.714
487.8978, 1711.493
488.3799, 1715.703
488.8620, 1716.511
489.3441, 1711.786
489.8262, 1709.075
490.3083, 1710.760
490.7905, 1716.254
491.2726, 1722.039
491.7547, 1728.874
492.2368, 1732.534
492.7189, 1727.358
493.2010, 1714.977
493.6832, 1707.311
494.1653, 1705.750
494.6474, 1707.507
495.1295, 1710.162
495.6116, 1713.351
496.0938, 1715.993
496.5759, 1717.216
497.0580, 1718.034
497.5401, 1719.899
498.0222, 1722.505
498.5044, 1724.210
498.9865, 1723.362
499.4686, 1721.715
499.9507, 1720.404
500.4328, 1719.335
500.9149, 1719.675
501.3971, 1724.204
501.8792, 1729.459
502.3613, 1731.453
502.8434, 1724.540
503.3255, 1720.023
503.8076, 1721.238
504.2898, 1726.720
504.7719, 1729.597
505.2540, 1727.971
505.7361, 1726.494
506.2182, 1727.570
506.7003, 1731.958
507.1825, 1733.417
507.6646, 1730.921
508.1467, 1727.702
508.6288, 1727.386
509.1109, 1729.979
509.5930, 1733.502
510.0752, 1738.381
510.5573, 1742.830
511.0394, 1742.408
511.5215, 1737.876
512.0037, 1733.956
512.4858, 1732.910
512.9679, 1734.212
513.4500, 1737.931
513.9321, 1744.004
514.4142, 1749.651
514.8964, 1753.549
515.3785, 1755.716
515.8606, 1755.806
516.3427, 1751.809
516.8248, 1749.148
517.3069, 1750.123
517.7891, 1753.827
518.2712, 1758.601
518.7533, 1767.916
519.2354, 1774.348
519.7175, 1774.333
520.1996, 1768.065
520.6818, 1763.906
521.1639, 1761.627
521.6460, 1761.752
522.1281, 1764.920
522.6102, 1771.928
523.0923, 1779.258
523.5745, 1787.531
524.0566, 1795.001
524.5387, 1798.786
525.0208, 1798.912
525.5029, 1798.341
525.9850, 1797.560
526.4672, 1796.938
526.9493, 1798.028
527.4314, 1800.514
527.9135, 1801.611
528.3956, 1797.503
528.8777, 1791.864
529.3599, 1790.021
529.8420, 1792.569
530.3241, 1796.235
530.8062, 1800.982
531.2883, 1804.837
531.7704, 1805.379
532.2526, 1798.671
532.7347, 1792.976
533.2168, 1792.058
533.6989, 1793.952
534.1810, 1794.022
534.6631, 1788.672
535.1453, 1784.484
535.6274, 1784.047
536.1095, 1787.528
536.5916, 1788.233
537.0737, 1785.041
537.5558, 1780.816
538.0380, 1777.013
538.5201, 1773.323
539.0022, 1772.441
539.4843, 1775.366
539.9664, 1779.131
540.4485, 1778.496
540.9307, 1774.078
541.4128, 1771.064
541.8949, 1771.130
542.3770, 1773.568
542.8591, 1778.872
543.3412, 1786.169
543.8234, 1791.350
544.3055, 1789.713
544.7876, 1786.006
545.2697, 1784.797
545.7518, 1786.638
546.2339, 1789.220
546.7161, 1793.642
547.1982, 1797.122
547.6803, 1797.199
548.1624, 1787.122
548.6445, 1781.564
549.1266, 1786.966
549.6088, 1797.589
550.0909, 1801.642
550.5730, 1794.746
551.0551, 1788.481
551.5372, 1786.417
552.0193, 1787.957
552.5015, 1786.198
552.9836, 1779.768
553.4657, 1774.903
553.9478, 1777.595
554.4299, 1786.796
554.9120, 1791.342
555.3942, 1790.136
555.8763, 1786.514
556.3584, 1782.186
556.8405, 1778.338
557.3226, 1778.473
557.8047, 1785.911
558.2869, 1794.278
558.7690, 1797.848
559.2511, 1797.696
559.7332, 1796.485
560.2154, 1792.022
560.6975, 1789.763
561.1796, 1794.621
561.6617, 1806.986
562.1439, 1815.028
562.6260, 1811.034
563.1081, 1806.121
563.5902, 1807.098
564.0723, 1818.843
564.5544, 1825.932
565.0366, 1826.492
565.5187, 1824.297
566.0008, 1824.528
566.4829, 1827.671
566.9650, 1830.393
567.4471, 1831.758
567.9293, 1832.427
568.4114, 1833.471
568.8935, 1834.968
569.3756, 1838.319
569.8577, 1846.935
570.3398, 1857.031
570.8220, 1861.234
571.3041, 1859.640
571.7862, 1856.312
572.2683, 1852.090
572.7504, 1848.618
573.2325, 1848.130
573.7147, 1852.950
574.1968, 1855.753
574.6789, 1851.642
575.1610, 1844.751
575.6431, 1840.365
576.1252, 1842.018
576.6074, 1843.082
577.0895, 1842.547
577.5716, 1840.782
578.0537, 1838.840
578.5358, 1835.842
579.0179, 1834.840
579.5001, 1838.281
579.9822, 1845.674
580.4643, 1847.566
580.9464, 1843.148
581.4285, 1838.747
581.9106, 1841.694
582.3928, 1849.223
582.8749, 1851.334
583.3570, 1845.799
583.8391, 1839.305
584.3212, 1839.281
584.8033, 1842.639
585.2855, 1844.024
585.7676, 1837.599
586.2497, 1832.929
586.7318, 1836.448
587.2139, 1845.608
587.6960, 1853.122
588.1782, 1857.647
588.6603, 1859.762
589.1424, 1858.873
589.6245, 1854.835
590.1066, 1851.661
590.5887, 1849.128
591.0709, 1847.771
591.5530, 1848.261
592.0351, 1850.937
592.5172, 1852.929
592.9993, 1854.187
593.4814, 1854.665
593.9636, 1854.209
594.4457, 1852.908
594.9278, 1850.700
595.4099, 1846.359
595.8920, 1843.424
596.3741, 1848.789
596.8563, 1859.444
597.3384, 1867.463
597.8205, 1867.597
598.3026, 1864.962
598.7847, 1861.668
599.2668, 1858.036
599.7490, 1855.994
600.2311, 1857.905
600.7132, 1860.073
601.1953, 1860.600
601.6774, 1859.142
602.1595, 1856.568
602.6417, 1850.920
603.1238, 1846.245
603.6059, 1847.150
604.0880, 1854.975
604.5701, 1860.353
605.0522, 1861.829
605.5344, 1861.162
606.0165, 1860.521
606.4986, 1860.098
606.9807, 1861.376
607.4628, 1866.430
607.9449, 1872.044
608.4271, 1873.127
608.9092, 1870.651
609.3913, 1868.296
609.8735, 1868.939
610.3556, 1869.819
610.8377, 1868.065
611.3198, 1863.363
611.8019, 1861.693
612.2841, 1868.321
612.7662, 1875.821
613.2483, 1879.297
613.7304, 1876.371
614.2125, 1874.441
614.6946, 1873.266
615.1768, 1873.263
615.6589, 1875.101
616.1410, 1878.968
616.6231, 1883.726
617.1052, 1890.074
617.5873, 1895.784
618.0695, 1894.689
618.5516, 1888.079
619.0337, 1883.134
619.5158, 1884.882
619.9979, 1888.977
620.4800, 1890.047
620.9622, 1888.601
621.4443, 1887.193
621.9264, 1885.703
622.4085, 1885.822
622.8906, 1889.517
623.3727, 1897.688
623.8549, 1903.857
624.3370, 1905.565
624.8191, 1905.710
625.3012, 1906.225
625.7833, 1907.901
626.2654, 1907.762
626.7476, 1904.884
627.2297, 1901.346
627.7118, 1899.949
628.1939, 1900.722
628.6760, 1902.774
629.1581, 1906.609
629.6403, 1910.513
630.1224, 1910.722
630.6045, 1908.287
631.0866, 1907.078
631.5687, 1909.595
632.0508, 1913.836
632.5330, 1918.527
633.0151, 1923.503
633.4972, 1928.039
633.9793, 1932.312
634.4614, 1935.676
634.9435, 1937.071
635.4257, 1935.498
635.9078, 1936.934
636.3899, 1943.067
636.8720, 1950.620
637.3541, 1957.663
637.8362, 1964.751
638.3184, 1968.865
638.8005, 1969.387
639.2826, 1967.971
639.7647, 1966.242
640.2468, 1964.282
640.7289, 1962.567
641.2111, 1960.812
641.6932, 1960.172
642.1753, 1962.091
642.6574, 1966.252
643.1395, 1971.813
643.6216, 1980.653
644.1038, 1988.771
644.5859, 1993.294
645.0680, 1994.922
645.5501, 1997.178
646.0322, 2002.605
646.5143, 2007.006
646.9965, 2008.551
647.4786, 2007.059
647.9607, 2006.658
648.4428, 2008.615
648.9249, 2009.081
649.4070, 2003.781
649.8892, 1992.975
650.3713, 1987.938
650.8534, 1989.642
651.3355, 1993.741
651.8176, 1995.415
652.2997, 1996.017
652.7819, 1998.914
653.2640, 2005.836
653.7461, 2012.423
654.2282, 2015.603
654.7103, 2016.219
655.1924, 2015.532
655.6746, 2012.277
656.1567, 2009.599
656.6388, 2006.951
657.1209, 2005.538
657.6030, 2008.869
658.0851, 2019.613
658.5673, 2030.615
659.0494, 2041.045
659.5316, 2050.152
660.0137, 2052.202
660.4958, 2046.646
660.9779, 2039.995
661.4600, 2034.441
661.9421, 2030.977
662.4243, 2032.769
662.9064, 2039.801
663.3885, 2048.772
663.8706, 2060.669
664.3527, 2071.217
664.8348, 2074.782
665.3170, 2068.328
665.7991, 2064.264
666.2812, 2068.345
666.7633, 2075.838
667.2454, 2082.446
667.7275, 2088.741
668.2097, 2092.555
668.6918, 2092.799
669.1739, 2091.566
669.6560, 2092.214
670.1381, 2094.939
670.6202, 2097.709
671.1024, 2100.542
671.5845, 2102.362
672.0666, 2100.561
672.5487, 2095.795
673.0308, 2090.595
673.5129, 2083.815
673.9951, 2079.052
674.4772, 2080.444
674.9593, 2086.933
675.4414, 2093.802
675.9235, 2099.008
676.4056, 2104.379
676.8878, 2111.348
677.3699, 2120.217
677.8520, 2126.379
678.3341, 2129.563
678.8162, 2130.357
679.2983, 2127.790
679.7805, 2121.331
680.2626, 2120.020
680.7447, 2124.468
681.2268, 2130.759
681.7089, 2135.137
682.1910, 2138.349
682.6732, 2142.592
683.1553, 2148.562
683.6374, 2153.607
684.1195, 2154.231
684.6016, 2153.255
685.0837, 2154.225
685.5659, 2158.988
686.0480, 2164.591
686.5301, 2171.291
687.0122, 2178.200
687.4943, 2183.984
687.9764, 2189.034
688.4586, 2192.127
688.9407, 2192.743
689.4228, 2191.519
689.9049, 2189.653
690.3870, 2187.084
690.8691, 2185.538
691.3513, 2185.701
691.8334, 2187.307
692.3155, 2191.217
692.7976, 2196.644
693.2797, 2200.017
693.7618, 2197.321
694.2440, 2193.420
694.7261, 2191.310
695.2082, 2191.218
695.6903, 2192.439
696.1724, 2196.143
696.6545, 2200.008
697.1367, 2202.750
697.6188, 2204.001
698.1009, 2207.243
698.5830, 2213.465
699.0651, 2219.460
699.5472, 2221.809
700.0294, 2221.136
700.5115, 2223.073
700.9936, 2228.179
701.4757, 2234.396
701.9578, 2241.005
702.4399, 2246.867
702.9221, 2249.876
703.4042, 2248.266
703.8863, 2247.196
704.3684, 2249.147
704.8505, 2253.090
705.3326, 2257.829
705.8148, 2265.719
706.2969, 2270.938
706.7790, 2272.326
707.2611, 2271.396
707.7432, 2270.137
708.2253, 2268.130
708.7075, 2269.076
709.1896, 2274.981
709.6718, 2283.013
710.1539, 2287.766
710.6360, 2289.543
711.1181, 2289.545
711.6002, 2285.337
712.0823, 2282.037
712.5645, 2285.468
713.0466, 2293.859
713.5287, 2300.542
714.0108, 2299.758
714.4929, 2300.150
714.9750, 2306.762
715.4572, 2318.870
715.9393, 2326.616
716.4214, 2328.269
716.9035, 2329.199
717.3856, 2331.692
717.8677, 2335.722
718.3499, 2340.985
718.8320, 2347.566
719.3141, 2354.261
719.7962, 2359.665
720.2783, 2364.849
720.7604, 2372.021
721.2426, 2381.432
721.7247, 2390.376
722.2068, 2396.992
722.6889, 2402.752
723.1710, 2408.905
723.6531, 2415.925
724.1353, 2422.221
724.6174, 2425.566
725.0995, 2430.271
725.5816, 2441.397
726.0637, 2460.448
726.5458, 2473.777
727.0280, 2479.089
727.5101, 2483.278
727.9922, 2496.322
728.4743, 2515.247
728.9564, 2531.687
729.4385, 2542.749
729.9207, 2552.575
730.4028, 2562.623
730.8849, 2574.069
731.3670, 2588.416
731.8491, 2610.338
732.3312, 2630.073
732.8134, 2643.558
733.2955, 2654.594
733.7776, 2669.029
734.2597, 2687.525
734.7418, 2707.230
735.2239, 2726.729
735.7061, 2747.911
736.1882, 2776.233
736.6703, 2811.027
737.1524, 2845.790
737.6345, 2876.709
738.1166, 2907.956
738.5988, 2943.318
739.0809, 2982.760
739.5630, 3026.161
740.0451, 3073.817
740.5272, 3124.297
741.0093, 3179.576
741.4915, 3236.977
741.9736, 3299.201
742.4557, 3365.066
742.9378, 3437.911
743.4199, 3518.781
743.9020, 3607.962
744.3842, 3703.287
744.8663, 3805.510
745.3484, 3918.131
745.8305, 4045.717
746.3126, 4185.599
746.7947, 4330.682
747.2769, 4482.107
747.7590, 4645.813
748.2411, 4826.826
748.7232, 5019.543
749.2053, 5227.134
749.6874, 5452.627
750.1696, 5672.861
750.6517, 5882.656
751.1338, 6096.320
751.6159, 6325.342
752.0980, 6573.294
752.5801, 6785.459
753.0623, 6957.466
753.5444, 7128.228
754.0265, 7329.926
754.5086, 7556.087
754.9907, 7788.823
755.4728, 8027.750
755.9550, 8286.389
756.4371, 8569.143
756.9192, 8877.148
757.4013, 9215.193
757.8835, 9584.345
758.3656, 9977.657
758.8477, 10404.11
759.3298, 10845.84
759.8120, 11303.59
760.2941, 11776.42
760.7762, 12223.04
761.2583, 12646.03
761.7404, 13040.39
762.2225, 13423.74
762.7047, 13774.76
763.1868, 14047.98
763.6689, 14247.76
764.1510, 14312.62
764.6331, 14203.10
765.1152, 13935.72
765.5974, 13527.54
766.0795, 12935.12
766.5616, 12258.06
767.0437, 11458.89
767.5258, 10616.88
768.0079, 9822.018
768.4901, 9070.689
768.9722, 8382.107
769.4543, 7761.812
769.9364, 7210.354
770.4185, 6735.259
770.9006, 6329.553
771.3828, 5976.034
771.8649, 5679.271
772.3470, 5421.429
772.8291, 5199.683
773.3112, 5007.716
773.7933, 4836.759
774.2755, 4702.086
774.7576, 4566.631
775.2397, 4424.645
775.7218, 4282.597
776.2039, 4147.126
776.6860, 4017.857
777.1682, 3898.456
777.6503, 3789.131
778.1324, 3691.094
778.6145, 3607.306
779.0966, 3536.427
779.5787, 3474.347
780.0609, 3421.070
780.5430, 3373.077
781.0251, 3329.641
781.5072, 3289.597
781.9893, 3251.477
782.4714, 3210.901
782.9536, 3177.620
783.4357, 3155.615
783.9178, 3140.084
784.3999, 3120.068
784.8820, 3094.931
785.3641, 3073.612
785.8463, 3058.260
786.3284, 3048.064
786.8105, 3044.379
787.2926, 3044.974
787.7747, 3044.460
788.2568, 3038.147
788.7390, 3032.542
789.2211, 3029.792
789.7032, 3030.055
790.1853, 3034.018
790.6674, 3045.277
791.1495, 3054.102
791.6317, 3057.688
792.1138, 3058.692
792.5959, 3062.746
793.0780, 3069.918
793.5601, 3081.798
794.0422, 3101.098
794.5244, 3122.672
795.0065, 3138.218
795.4886, 3150.675
795.9707, 3166.614
796.4528, 3192.548
796.9349, 3218.854
797.4171, 3239.326
797.8992, 3257.611
798.3813, 3282.826
798.8634, 3317.445
799.3455, 3353.450
799.8276, 3387.542
800.3098, 3423.052
800.7919, 3470.473
801.2740, 3528.785
801.7561, 3584.831
802.2382, 3630.753
802.7203, 3674.689
803.2025, 3724.124
803.6846, 3778.630
804.1667, 3837.614
804.6488, 3901.667
805.1309, 3969.285
805.6130, 4040.336
806.0952, 4114.142
806.5773, 4192.694
807.0594, 4276.716
807.5416, 4361.607
808.0237, 4445.512
808.5058, 4530.583
808.9879, 4624.011
809.4700, 4723.814
809.9521, 4818.983
810.4343, 4902.795
810.9164, 4984.478
811.3985, 5072.384
811.8806, 5163.231
812.3627, 5250.138
812.8448, 5338.133
813.3270, 5413.640
813.8091, 5473.911
814.2912, 5519.995
814.7733, 5553.341
815.2554, 5574.239
815.7375, 5579.721
816.2197, 5570.028
816.7018, 5542.398
817.1839, 5488.930
817.6660, 5414.769
818.1481, 5332.332
818.6302, 5240.492
819.1124, 5149.008
819.5945, 5062.397
820.0766, 4978.620
820.5587, 4893.133
821.0408, 4805.157
821.5229, 4717.682
822.0051, 4629.062
822.4872, 4542.610
822.9693, 4462.133
823.4514, 4387.339
823.9335, 4319.677
824.4156, 4260.432
824.8978, 4204.145
825.3799, 4141.831
825.8620, 4077.346
826.3441, 4017.868
826.8262, 3965.097
827.3083, 3917.321
827.7905, 3874.753
828.2726, 3836.408
828.7547, 3800.610
829.2368, 3767.950
829.7189, 3737.759
830.2010, 3709.984
830.6832, 3685.345
831.1653, 3665.623
831.6474, 3649.740
832.1295, 3633.925
832.6116, 3617.088
833.0938, 3601.689
833.5759, 3590.818
834.0580, 3581.516
834.5401, 3570.434
835.0222, 3554.510
835.5043, 3540.533
835.9865, 3528.825
836.4686, 3518.732
836.9507, 3510.831
837.4328, 3504.887
837.9149, 3493.260
838.3970, 3473.920
838.8792, 3455.884
839.3613, 3450.208
839.8434, 3450.679
840.3255, 3448.599
840.8076, 3441.332
841.2897, 3435.498
841.7719, 3435.404
842.2540, 3435.934
842.7361, 3433.016
843.2182, 3425.316
843.7003, 3420.069
844.1824, 3418.398
844.6646, 3415.157
845.1467, 3402.088
845.6288, 3384.324
846.1109, 3376.951
846.5930, 3381.289
847.0751, 3385.247
847.5573, 3380.233
848.0394, 3372.147
848.5215, 3365.904
849.0036, 3362.909
849.4857, 3355.081
849.9678, 3338.811
850.4500, 3323.411
850.9321, 3313.738
851.4142, 3309.509
851.8963, 3308.202
852.3784, 3309.775
852.8605, 3312.377
853.3427, 3314.485
853.8248, 3317.100
854.3069, 3322.314
854.7890, 3329.700
855.2711, 3334.784
855.7532, 3329.794
856.2354, 3329.102
856.7175, 3340.386
857.1996, 3361.000
857.6818, 3371.385
858.1639, 3370.081
858.6460, 3369.196
859.1281, 3375.464
859.6102, 3384.895
860.0923, 3387.908
860.5745, 3387.214
861.0566, 3392.003
861.5387, 3409.165
862.0208, 3430.234
862.5029, 3454.337
862.9850, 3479.637
863.4672, 3500.541
863.9493, 3515.321
864.4314, 3530.550
864.9135, 3547.320
865.3956, 3566.257
865.8777, 3590.631
866.3599, 3619.086
866.8420, 3643.805
867.3241, 3659.807
867.8062, 3676.336
868.2883, 3704.725
868.7704, 3736.779
869.2526, 3759.911
869.7347, 3762.817
870.2168, 3768.931
870.6989, 3781.732
871.1810, 3794.841
871.6631, 3798.000
872.1453, 3791.959
872.6274, 3790.488
873.1095, 3795.368
873.5916, 3806.557
874.0737, 3826.588
874.5558, 3851.667
875.0380, 3877.142
875.5201, 3901.184
876.0022, 3928.528
876.4843, 3958.469
876.9664, 3993.697
877.4485, 4036.483
877.9307, 4087.619
878.4128, 4141.669
878.8949, 4198.497
879.3770, 4261.232
879.8591, 4329.727
880.3412, 4407.046
880.8234, 4497.948
881.3055, 4603.138
881.7876, 4720.113
882.2697, 4851.113
882.7518, 4991.673
883.2339, 5135.874
883.7161, 5284.256
884.1982, 5456.818
884.6803, 5651.211
885.1624, 5878.685
885.6445, 6140.473
886.1266, 6441.163
886.6088, 6785.675
887.0909, 7182.951
887.5730, 7659.409
888.0551, 8202.396
888.5372, 8859.415
889.0193, 9638.871
889.5015, 10558.65
889.9836, 11651.54
890.4657, 12930.36
890.9478, 14364.80
891.4299, 15983.66
891.9120, 17707.73
892.3942, 19441.78
892.8763, 21194.51
893.3584, 22911.44
893.8405, 24576.56
894.3226, 26274.17
894.8047, 27969.29
895.2869, 29755.41
895.7690, 31747.49
896.2511, 33837.40
896.7332, 36325.84
897.2153, 39131.07
897.6974, 42391.27
898.1796, 46210.77
898.6617, 50597.88
899.1438, 55408.07
899.6259, 60679.27
900.1080, 66216.23
900.5901, 72032.10
901.0723, 77916.33
901.5544, 83883.29
902.0365, 89976.40
902.5186, 95416.55
903.0007, 100960.6
903.4828, 104705.9
903.9650, 105948.9
904.4471, 104623.4
904.9292, 99961.30
905.4113, 92003.09
905.8935, 82697.32
906.3756, 72146.42
906.8577, 61660.17
907.3398, 52435.93
907.8220, 44451.39
908.3041, 37714.19
908.7862, 32450.18
909.2683, 28044.84
909.7504, 24466.74
910.2325, 21591.26
910.7147, 19177.05
911.1968, 17202.74
911.6789, 15526.28
912.1610, 14152.56
912.6431, 12988.06
913.1252, 11974.95
913.6074, 11092.87
914.0895, 10312.42
914.5716, 9648.682
915.0537, 9053.630
915.5358, 8515.481
916.0179, 8036.044
916.5001, 7615.411
916.9822, 7255.320
917.4643, 6921.166
917.9464, 6610.897
918.4285, 6326.281
918.9106, 6076.288
919.3928, 5852.844
919.8749, 5646.879
920.3570, 5457.710
920.8391, 5276.700
921.3212, 5094.962
921.8033, 4928.455
922.2855, 4785.003
922.7676, 4662.893
923.2497, 4551.567
923.7318, 4451.589
924.2139, 4355.644
924.6960, 4258.473
925.1782, 4164.289
925.6603, 4080.165
926.1424, 4004.197
926.6245, 3932.076
927.1066, 3860.709
927.5887, 3796.287
928.0709, 3738.907
928.5530, 3688.358
929.0351, 3648.541
929.5172, 3620.063
929.9993, 3579.730
930.4814, 3520.478
930.9636, 3459.449
931.4457, 3416.954
931.9278, 3384.716
932.4099, 3351.046
932.8920, 3311.451
933.3741, 3278.118
933.8563, 3259.192
934.3384, 3242.621
934.8205, 3221.407
935.3026, 3195.075
935.7847, 3169.812
936.2668, 3145.486
936.7490, 3120.420
937.2311, 3090.097
937.7132, 3060.256
938.1953, 3039.482
938.6774, 3026.492
939.1595, 3013.815
939.6417, 2999.347
940.1238, 2984.709
940.6059, 2970.383
941.0880, 2956.344
941.5701, 2942.524
942.0522, 2928.895
942.5344, 2914.220
943.0165, 2897.357
943.4986, 2880.375
943.9807, 2864.528
944.4628, 2850.341
944.9449, 2838.793
945.4271, 2833.398
945.9092, 2824.849
946.3913, 2811.218
946.8734, 2795.885
947.3555, 2780.656
947.8376, 2765.875
948.3198, 2758.063
948.8019, 2757.850
949.2840, 2757.314
949.7661, 2747.461
950.2482, 2736.128
950.7303, 2732.247
951.2125, 2736.201
951.6946, 2733.864
952.1767, 2718.946
952.6588, 2705.707
953.1409, 2699.862
953.6230, 2698.720
954.1052, 2692.125
954.5873, 2681.184
955.0695, 2673.045
955.5516, 2672.927
956.0337, 2673.436
956.5158, 2667.125
956.9979, 2658.263
957.4800, 2654.046
957.9622, 2659.804
958.4443, 2661.032
958.9264, 2655.308
959.4085, 2648.364
959.8906, 2649.064
960.3727, 2654.050
960.8549, 2648.738
961.3370, 2631.405
961.8191, 2616.722
962.3012, 2616.251
962.7833, 2620.145
963.2654, 2622.252
963.7476, 2622.191
964.2297, 2621.152
964.7118, 2619.297
965.1939, 2615.961
965.6760, 2609.987
966.1581, 2603.200
966.6403, 2599.629
967.1224, 2598.580
967.6045, 2597.844
968.0866, 2597.170
968.5687, 2595.863
969.0508, 2593.435
969.5330, 2590.336
970.0151, 2586.458
970.4972, 2580.736
970.9793, 2580.422
971.4614, 2587.058
971.9435, 2594.890
972.4257, 2597.301
972.9078, 2597.045
973.3899, 2598.933
973.8720, 2603.651
974.3541, 2605.896
974.8362, 2600.631
975.3184, 2595.697
975.8005, 2594.487
976.2826, 2596.562
976.7647, 2599.710
977.2468, 2603.898
977.7289, 2607.084
978.2111, 2607.427
978.6932, 2607.443
979.1753, 2611.754
979.6574, 2617.425
980.1395, 2618.858
980.6216, 2609.871
981.1038, 2603.508
981.5859, 2601.809
982.0680, 2601.439
982.5501, 2597.704
983.0322, 2591.457
983.5143, 2588.583
983.9965, 2589.626
984.4786, 2593.273
984.9607, 2601.666
985.4428, 2609.769
985.9249, 2613.437
986.4070, 2612.146
986.8892, 2610.573
987.3713, 2609.080
987.8534, 2606.084
988.3355, 2600.069
988.8176, 2593.070
989.2997, 2589.507
989.7819, 2588.863
990.2640, 2589.615
990.7461, 2590.677
991.2282, 2593.754
991.7103, 2603.995
992.1924, 2614.001
992.6746, 2614.887
993.1567, 2604.880
993.6388, 2595.184
994.1209, 2586.332
994.6030, 2577.315
995.0851, 2565.107
995.5673, 2553.372
996.0494, 2547.686
996.5315, 2548.040
997.0136, 2549.440
997.4957, 2550.313
997.9778, 2552.189
998.4600, 2555.931
998.9421, 2560.691
999.4242, 2564.653
999.9063, 2567.532
1000.388, 2566.651
1000.871, 2559.874
1001.353, 2551.981
1001.835, 2545.364
1002.317, 2540.908
1002.799, 2540.000
1003.281, 2545.081
1003.763, 2548.572
1004.245, 2550.901
1004.728, 2550.753
1005.210, 2543.934
1005.692, 2534.294
1006.174, 2535.759
1006.656, 2546.899
1007.138, 2555.964
1007.620, 2558.166
1008.102, 2555.532
1008.584, 2544.989
1009.067, 2531.058
1009.549, 2525.058
1010.031, 2528.211
1010.513, 2527.954
1010.995, 2520.714
1011.477, 2512.930
1011.959, 2513.599
1012.441, 2518.179
1012.924, 2520.721
1013.406, 2520.152
1013.888, 2516.961
1014.370, 2507.062
1014.852, 2500.664
1015.334, 2505.073
1015.816, 2517.695
1016.298, 2522.526
1016.780, 2520.285
1017.263, 2516.546
1017.745, 2512.454
1018.227, 2509.783
1018.709, 2511.495
1019.191, 2515.006
1019.673, 2515.081
1020.155, 2510.094
1020.637, 2505.930
1021.120, 2503.055
1021.602, 2501.045
1022.084, 2500.204
1022.566, 2499.628
1023.048, 2496.995
1023.530, 2492.132
1024.012, 2488.870
1024.494, 2490.715
1024.976, 2492.399
1025.458, 2491.339
1025.941, 2488.557
1026.423, 2488.528
1026.905, 2491.103
1027.387, 2493.727
1027.869, 2495.580
1028.351, 2496.898
1028.833, 2497.012
1029.316, 2497.075
1029.798, 2498.764
1030.280, 2503.826
1030.762, 2506.900
1031.244, 2507.772
1031.726, 2507.056
1032.208, 2503.834
1032.690, 2499.668
1033.172, 2499.800
1033.655, 2503.420
1034.137, 2505.856
1034.619, 2501.480
1035.101, 2499.405
1035.583, 2506.226
1036.065, 2516.041
1036.547, 2517.104
1037.029, 2509.076
1037.511, 2502.439
1037.994, 2498.705
1038.476, 2498.229
1038.958, 2504.544
1039.440, 2512.373
1039.922, 2515.681
1040.404, 2513.159
1040.886, 2512.083
1041.368, 2513.739
1041.851, 2514.718
1042.333, 2512.436
1042.815, 2509.467
1043.297, 2516.038
1043.779, 2527.850
1044.261, 2531.197
1044.743, 2512.891
1045.225, 2497.824
1045.708, 2499.715
1046.190, 2506.575
1046.672, 2506.285
1047.154, 2497.602
1047.636, 2495.784
1048.118, 2501.427
1048.600, 2507.275
1049.082, 2507.396
1049.564, 2505.251
1050.047, 2503.617
1050.529, 2502.596
1051.011, 2502.012
1051.493, 2500.282
1051.975, 2502.901
1052.457, 2512.940
1052.939, 2523.526
1053.421, 2522.686
1053.903, 2514.335
1054.386, 2507.030
1054.868, 2502.231
1055.350, 2499.447
1055.832, 2499.444
1056.314, 2500.622
1056.796, 2502.500
1057.278, 2504.866
1057.760, 2505.476
1058.243, 2504.433
1058.725, 2504.068
1059.207, 2506.623
1059.689, 2508.307
1060.171, 2504.120
1060.653, 2497.547
1061.135, 2493.671
1061.617, 2493.924
1062.099, 2495.319
1062.582, 2498.587
1063.064, 2500.614
1063.546, 2497.490
1064.028, 2491.899
1064.510, 2489.230
1064.992, 2489.231
1065.474, 2489.628
1065.956, 2489.142
1066.438, 2489.546
1066.921, 2491.916
1067.403, 2494.770
1067.885, 2494.785
1068.367, 2492.522
1068.849, 2493.680
1069.331, 2499.461
1069.813, 2504.805
1070.295, 2505.191
1070.778, 2504.335
1071.260, 2506.018
1071.742, 2503.882
1072.224, 2508.459
1072.706, 2500.414
1073.188, 2493.979
1073.670, 2492.019
1074.152, 2493.088
1074.635, 2496.571
1075.117, 2501.171
1075.599, 2504.851
1076.081, 2506.514
1076.563, 2508.454
1077.045, 2511.060
1077.527, 2513.502
1078.009, 2514.720
1078.491, 2517.558
1078.974, 2518.017
1079.456, 2522.453
1079.938, 2526.337
1080.420, 2529.191
1080.902, 2530.633
1081.384, 2529.229
1081.866, 2527.060
1082.348, 2526.897
1082.831, 2528.867
1083.313, 2530.040
1083.795, 2530.189
1084.277, 2529.373
1084.759, 2525.712
1085.241, 2522.674
1085.723, 2524.841
1086.205, 2531.259
1086.688, 2531.883
1087.170, 2523.399
1087.652, 2520.221
1088.134, 2527.347
1088.616, 2537.148
1089.098, 2537.913
1089.580, 2533.918
1090.062, 2531.890
1090.544, 2533.093
1091.026, 2536.453
1091.509, 2543.506
1091.991, 2550.082
1092.473, 2555.247
1092.955, 2558.103
1093.437, 2552.135
1093.919, 2540.189
1094.401, 2534.558
1094.883, 2543.918
1095.366, 2553.969
1095.848, 2559.088
1096.330, 2561.214
1096.812, 2561.004
1097.294, 2557.587
1097.776, 2562.891
1098.258, 2577.015
1098.740, 2588.161
1099.223, 2585.270
1099.705, 2579.000
1100.187, 2578.316
1100.669, 2581.155
1101.151, 2581.109
1101.633, 2574.856
1102.115, 2575.405
1102.597, 2584.985
1103.079, 2597.189
1103.562, 2608.590
1104.044, 2616.347
1104.526, 2612.679
1105.008, 2598.427
1105.490, 2591.407
1105.972, 2600.785
1106.454, 2610.233
1106.936, 2616.125
1107.418, 2619.939
1107.901, 2625.058
1108.383, 2630.312
1108.865, 2631.105
1109.347, 2625.352
1109.829, 2622.533
1110.311, 2628.624
1110.793, 2637.278
1111.275, 2646.619
1111.758, 2655.628
1112.240, 2656.947
1112.722, 2651.533
1113.204, 2649.117
1113.686, 2656.584
1114.168, 2661.681
1114.650, 2652.211
1115.132, 2638.123
1115.615, 2630.028
1116.097, 2628.874
1116.579, 2629.416
1117.061, 2631.699
1117.543, 2634.981
1118.025, 2640.272
1118.507, 2645.045
1118.989, 2647.532
1119.471, 2647.331
1119.953, 2643.079
1120.436, 2632.468
1120.918, 2622.306
1121.400, 2611.758
1121.882, 2605.605
1122.364, 2613.322
1122.846, 2626.071
1123.328, 2628.141
1123.810, 2620.352
1124.293, 2612.456
1124.775, 2606.105
1125.257, 2601.693
1125.739, 2599.240
1126.221, 2598.918
1126.703, 2603.438
1127.185, 2610.148
1127.667, 2609.245
1128.150, 2599.281
1128.632, 2592.627
1129.114, 2598.030
1129.596, 2605.088
1130.078, 2610.032
1130.560, 2613.068
1131.042, 2614.550
1131.524, 2614.587
1132.006, 2613.662
1132.489, 2611.564
1132.971, 2609.975
1133.453, 2609.518
1133.935, 2610.542
1134.417, 2614.291
1134.899, 2620.418
1135.381, 2621.094
1135.863, 2616.322
1136.346, 2612.974
1136.828, 2614.719
1137.310, 2617.626
1137.792, 2617.184
1138.274, 2616.228
1138.756, 2619.198
1139.238, 2627.857
1139.720, 2632.476
1140.203, 2632.564
1140.685, 2632.170
1141.167, 2636.067
1141.649, 2639.197
1142.131, 2631.292
1142.613, 2618.495
1143.095, 2613.988
1143.577, 2627.552
1144.059, 2634.791
1144.542, 2633.552
1145.024, 2629.997
1145.506, 2628.821
1145.988, 2629.505
1146.470, 2632.153
1146.952, 2636.017
1147.434, 2638.148
1147.916, 2635.561
1148.398, 2634.112
1148.881, 2634.923
1149.363, 2636.371
1149.845, 2635.732
1150.327, 2634.234
1150.809, 2635.334
1151.291, 2639.186
1151.773, 2642.954
1152.255, 2646.452
1152.738, 2648.101
1153.220, 2645.827
1153.702, 2643.285
1154.184, 2650.370
1154.666, 2663.717
1155.148, 2668.235
1155.630, 2660.636
1156.112, 2654.664
1156.594, 2659.946
1157.077, 2666.469
1157.559, 2669.692
1158.041, 2669.933
1158.523, 2667.423
1159.005, 2662.626
1159.487, 2659.269
1159.969, 2658.491
1160.451, 2658.829
1160.933, 2658.278
1161.416, 2659.568
1161.898, 2666.135
1162.380, 2677.002
1162.862, 2680.645
1163.344, 2677.404
1163.826, 2675.397
1164.308, 2678.610
1164.790, 2682.521
1165.273, 2683.397
1165.755, 2683.211
1166.237, 2684.539
1166.719, 2687.885
1167.201, 2686.583
1167.683, 2680.153
1168.165, 2676.944
1168.647, 2684.167
1169.130, 2693.013
1169.612, 2694.553
1170.094, 2692.559
1170.576, 2693.035
1171.058, 2697.670
1171.540, 2699.937
1172.022, 2699.690
1172.504, 2698.190
1172.986, 2695.158
1173.469, 2692.325
1173.951, 2692.052
1174.433, 2693.452
1174.915, 2694.227
1175.397, 2693.070
1175.879, 2695.288
1176.361, 2702.344
1176.843, 2707.034
1177.326, 2699.212
1177.808, 2688.083
1178.290, 2685.784
1178.772, 2690.709
1179.254, 2694.788
1179.736, 2695.866
1180.218, 2698.921
1180.700, 2705.200
1181.182, 2711.099
1181.665, 2712.888
1182.147, 2711.769
1182.629, 2707.894
1183.111, 2702.178
1183.593, 2700.209
1184.075, 2704.149
1184.557, 2709.673
1185.039, 2717.021
1185.521, 2723.244
1186.004, 2723.693
1186.486, 2720.497
1186.968, 2717.093
1187.450, 2713.787
1187.932, 2708.354
1188.414, 2697.477
1188.896, 2690.208
1189.378, 2689.457
1189.861, 2691.677
1190.343, 2690.927
1190.825, 2689.083
1191.307, 2690.548
1191.789, 2696.371
1192.271, 2698.432
1192.753, 2693.258
1193.235, 2687.581
1193.718, 2683.512
1194.200, 2680.154
1194.682, 2674.116
1195.164, 2668.000
1195.646, 2667.860
1196.128, 2675.998
1196.610, 2683.388
1197.092, 2688.976
1197.574, 2691.884
1198.057, 2690.809
1198.539, 2687.942
1199.021, 2688.737
1199.503, 2691.521
1199.985, 2692.124
1200.467, 2688.281
1200.949, 2687.034
1201.431, 2692.679
1201.913, 2695.638
1202.396, 2689.084
1202.878, 2678.551
1203.360, 2679.838
1203.842, 2688.668
1204.324, 2693.572
1204.806, 2688.374
1205.288, 2686.997
1205.770, 2693.554
1206.253, 2701.225
1206.735, 2706.768
1207.217, 2710.209
1207.699, 2710.479
1208.181, 2708.887
1208.663, 2709.260
1209.145, 2716.425
1209.627, 2717.906
1210.109, 2708.291
1210.592, 2699.686
1211.074, 2701.409
1211.556, 2710.059
1212.038, 2716.722
1212.520, 2721.312
1213.002, 2723.175
1213.484, 2717.423
1213.966, 2717.184
1214.448, 2727.090
1214.931, 2736.474
1215.413, 2734.544
1215.895, 2726.320
1216.377, 2727.484
1216.859, 2734.957
1217.341, 2738.868
1217.823, 2732.185
1218.305, 2726.149
1218.788, 2720.414
1219.270, 2718.392
1219.752, 2725.654
1220.234, 2737.875
1220.716, 2744.439
1221.198, 2746.143
1221.680, 2746.382
1222.162, 2745.536
1222.645, 2744.335
1223.127, 2742.557
1223.609, 2741.064
1224.091, 2740.492
1224.573, 2740.896
1225.055, 2743.347
1225.537, 2747.049
1226.019, 2748.920
1226.501, 2745.777
1226.984, 2743.980
1227.466, 2744.080
1227.948, 2745.453
1228.430, 2748.333
1228.912, 2751.594
1229.394, 2752.288
1229.876, 2755.850
1230.358, 2752.653
1230.841, 2760.281
1231.323, 2764.787
1231.805, 2764.738
1232.287, 2763.105
1232.769, 2762.537
1233.251, 2762.647
1233.733, 2763.376
1234.215, 2764.376
1234.698, 2763.985
1235.180, 2761.355
1235.662, 2758.671
1236.144, 2755.805
1236.626, 2754.420
1237.108, 2758.396
1237.590, 2763.438
1238.072, 2763.435
1238.554, 2759.226
1239.036, 2756.792
1239.519, 2757.315
1240.001, 2756.566
1240.483, 2753.263
1240.965, 2752.308
1241.447, 2762.440
1241.929, 2774.593
1242.411, 2778.126
1242.893, 2774.318
1243.376, 2772.696
1243.858, 2774.399
1244.340, 2774.449
1244.822, 2771.986
1245.304, 2769.234
1245.786, 2767.479
1246.268, 2767.066
1246.750, 2768.725
1247.233, 2772.126
1247.715, 2775.626
1248.197, 2779.322
1248.679, 2782.828
1249.161, 2786.285
1249.643, 2787.299
1250.125, 2777.814
1250.607, 2770.554
1251.089, 2779.549
1251.572, 2797.827
1252.054, 2804.934
1252.536, 2800.892
1253.018, 2799.067
1253.500, 2801.404
1253.982, 2803.620
1254.464, 2803.389
1254.946, 2801.045
1255.428, 2795.990
1255.911, 2789.449
1256.393, 2782.173
1256.875, 2774.871
1257.357, 2775.761
1257.839, 2786.081
1258.321, 2794.410
1258.803, 2791.500
1259.285, 2787.474
1259.768, 2785.741
1260.250, 2786.489
1260.732, 2792.099
1261.214, 2800.637
1261.696, 2803.837
1262.178, 2800.696
1262.660, 2795.416
1263.142, 2785.647
1263.625, 2779.860
1264.107, 2780.922
1264.589, 2786.156
1265.071, 2793.480
1265.553, 2800.954
1266.035, 2803.120
1266.517, 2799.599
1266.999, 2795.434
1267.481, 2790.123
1267.964, 2787.871
1268.446, 2790.171
1268.928, 2794.428
1269.410, 2797.377
1269.892, 2799.576
1270.374, 2801.650
1270.856, 2803.748
1271.338, 2807.239
1271.820, 2814.282
1272.303, 2816.691
1272.785, 2812.020
1273.267, 2806.123
1273.749, 2806.985
1274.231, 2809.777
1274.713, 2808.560
1275.195, 2803.634
1275.677, 2800.343
1276.160, 2798.773
1276.642, 2798.895
1277.124, 2800.753
1277.606, 2803.813
1278.088, 2809.844
1278.570, 2814.821
1279.052, 2814.057
1279.534, 2809.605
1280.016, 2808.145
1280.499, 2809.776
1280.981, 2811.889
1281.463, 2814.253
1281.945, 2814.883
1282.427, 2808.964
1282.909, 2804.629
1283.391, 2808.264
1283.873, 2815.301
1284.356, 2816.933
1284.838, 2814.232
1285.320, 2813.750
1285.802, 2816.162
1286.284, 2820.237
1286.766, 2828.700
1287.248, 2833.839
1287.730, 2831.603
1288.213, 2827.787
1288.695, 2833.548
1289.177, 2843.808
1289.659, 2842.937
1290.141, 2831.263
1290.623, 2823.274
1291.105, 2826.300
1291.587, 2829.827
1292.069, 2832.856
1292.552, 2834.877
1293.034, 2834.620
1293.516, 2833.364
1293.998, 2833.089
1294.480, 2833.665
1294.962, 2833.719
1295.444, 2832.997
1295.926, 2832.374
1296.408, 2832.043
1296.891, 2831.277
1297.373, 2830.619
1297.855, 2823.922
1298.337, 2829.664
1298.819, 2827.753
1299.301, 2828.395
1299.783, 2832.879
1300.265, 2830.436
1300.748, 2835.456
1301.230, 2840.824
1301.712, 2844.015
1302.194, 2843.699
1302.676, 2839.583
##END=



