##NAMES=Stolzite
##RRUFFID=R070552
##IDEAL CHEMISTRY=Pb^2+^W^6+^O_4_
##LOCALITY=Kangaloolah, Tuena, Georgiana County, New South Wales, Australia
##OWNER=RRUFF
##SOURCE=James Shigley
##DESCRIPTION=Colorless to light tan dipyramidal crystals
##STATUS=The identification of this mineral has been confirmed by single-crystal X-ray diffraction.
##URL=rruff.info/R070552
90.06244, 0.0000000E+00
90.54456, 0.0000000E+00
91.02667, 0.0000000E+00
91.50879, 16.44521
91.99091, 16.28754
92.47302, 19.11183
92.95514, 23.78244
93.43725, 26.61749
93.91936, 26.71772
94.40148, 26.06804
94.88360, 25.18447
95.36572, 24.28764
95.84783, 23.78238
96.32995, 24.10103
96.81207, 25.24025
97.29418, 26.13608
97.77630, 26.58652
98.25842, 26.94021
98.74053, 27.42286
99.22265, 27.95005
99.70477, 28.23242
100.1869, 27.87688
100.6690, 26.62068
101.1511, 25.77393
101.6332, 25.30986
102.1153, 25.21009
102.5975, 25.32561
103.0796, 25.71188
103.5617, 26.70037
104.0438, 28.99184
104.5259, 34.54633
105.0080, 37.38926
105.4902, 35.75315
105.9723, 32.82213
106.4544, 30.63977
106.9365, 29.91432
107.4186, 30.65170
107.9007, 32.90201
108.3829, 37.93736
108.8650, 42.99981
109.3471, 49.26179
109.8292, 55.16183
110.3113, 58.39088
110.7934, 57.83767
111.2756, 54.97639
111.7577, 53.97816
112.2398, 56.49138
112.7219, 58.40610
113.2040, 57.65443
113.6861, 55.68017
114.1683, 55.52106
114.6504, 58.90312
115.1325, 64.93235
115.6146, 70.04849
116.0967, 72.06744
116.5788, 75.71690
117.0610, 84.91962
117.5431, 98.31160
118.0252, 110.1434
118.5073, 116.9222
118.9894, 119.3461
119.4715, 121.5463
119.9537, 120.5478
120.4358, 121.7967
120.9179, 131.3223
121.4000, 149.1855
121.8821, 166.4775
122.3642, 175.7654
122.8464, 180.8148
123.3285, 189.8638
123.8106, 206.8943
124.2927, 227.0958
124.7748, 244.3084
125.2569, 257.7097
125.7391, 271.3146
126.2212, 286.4169
126.7033, 303.5579
127.1854, 324.3409
127.6675, 352.5781
128.1496, 384.0860
128.6317, 409.3287
129.1139, 424.6214
129.5960, 441.4120
130.0781, 466.4286
130.5602, 497.3561
131.0423, 530.0105
131.5244, 563.1615
132.0066, 596.5207
132.4887, 629.1449
132.9708, 661.0548
133.4529, 692.0450
133.9350, 720.4955
134.4171, 747.9379
134.8993, 777.6551
135.3814, 813.8103
135.8635, 855.6932
136.3456, 892.5999
136.8277, 918.0280
137.3098, 944.9651
137.7920, 978.1337
138.2741, 1017.222
138.7562, 1059.983
139.2383, 1106.956
139.7204, 1158.848
140.2025, 1203.652
140.6847, 1225.593
141.1668, 1252.988
141.6489, 1296.903
142.1310, 1356.701
142.6131, 1425.298
143.0952, 1497.827
143.5774, 1576.486
144.0595, 1649.463
144.5416, 1716.078
145.0237, 1777.923
145.5058, 1830.320
145.9879, 1876.071
146.4701, 1926.770
146.9522, 1998.205
147.4343, 2102.571
147.9164, 2190.264
148.3985, 2253.903
148.8806, 2310.376
149.3627, 2368.983
149.8449, 2431.099
150.3270, 2491.986
150.8091, 2545.424
151.2912, 2589.333
151.7733, 2629.645
152.2554, 2668.873
152.7376, 2703.646
153.2197, 2729.855
153.7018, 2747.565
154.1839, 2762.290
154.6660, 2782.256
155.1481, 2812.326
155.6303, 2837.691
156.1124, 2860.362
156.5945, 2877.703
157.0766, 2882.441
157.5587, 2874.356
158.0408, 2866.757
158.5230, 2880.844
159.0051, 2935.736
159.4872, 2980.114
159.9693, 3003.421
160.4514, 3008.504
160.9335, 3010.782
161.4157, 3021.732
161.8978, 3037.435
162.3799, 3051.617
162.8620, 3060.731
163.3441, 3075.879
163.8262, 3104.730
164.3084, 3136.522
164.7905, 3161.974
165.2726, 3178.582
165.7547, 3186.023
166.2368, 3181.581
166.7189, 3155.907
167.2011, 3140.834
167.6832, 3146.871
168.1653, 3161.989
168.6474, 3174.194
169.1295, 3180.435
169.6116, 3179.314
170.0938, 3165.491
170.5759, 3130.856
171.0580, 3106.233
171.5401, 3100.675
172.0222, 3105.976
172.5043, 3110.750
172.9865, 3111.172
173.4686, 3112.247
173.9507, 3125.191
174.4328, 3156.437
174.9149, 3177.604
175.3970, 3173.890
175.8792, 3158.843
176.3613, 3155.222
176.8434, 3171.627
177.3255, 3193.417
177.8076, 3194.260
178.2897, 3171.364
178.7719, 3146.483
179.2540, 3123.679
179.7361, 3102.385
180.2182, 3082.073
180.7003, 3062.723
181.1824, 3043.883
181.6646, 3024.170
182.1467, 3002.385
182.6288, 2984.932
183.1109, 2976.143
183.5930, 2972.387
184.0751, 2967.690
184.5573, 2960.606
185.0394, 2951.856
185.5215, 2939.787
186.0036, 2922.359
186.4857, 2913.979
186.9678, 2923.894
187.4500, 2944.812
187.9321, 2964.891
188.4142, 2982.457
188.8963, 2995.348
189.3784, 2995.075
189.8605, 2979.951
190.3427, 2976.785
190.8248, 3007.260
191.3069, 3052.751
191.7890, 3079.360
192.2711, 3077.744
192.7532, 3061.010
193.2354, 3041.090
193.7175, 3017.783
194.1996, 2999.837
194.6817, 2992.730
195.1638, 2992.325
195.6459, 2991.730
196.1281, 2989.855
196.6102, 2987.044
197.0923, 2981.515
197.5744, 2973.417
198.0565, 2971.137
198.5386, 2982.773
199.0207, 3000.497
199.5029, 3009.667
199.9850, 3006.003
200.4671, 3000.560
200.9492, 3008.094
201.4313, 3026.357
201.9134, 3040.946
202.3956, 3042.151
202.8777, 3038.953
203.3598, 3047.212
203.8419, 3071.271
204.3240, 3097.154
204.8061, 3108.651
205.2883, 3108.705
205.7704, 3112.011
206.2525, 3122.949
206.7346, 3138.876
207.2167, 3159.609
207.6988, 3186.889
208.1810, 3207.570
208.6631, 3200.158
209.1452, 3172.231
209.6273, 3160.151
210.1094, 3187.648
210.5915, 3227.122
211.0737, 3242.112
211.5558, 3227.776
212.0379, 3211.083
212.5200, 3215.672
213.0021, 3236.279
213.4842, 3251.489
213.9664, 3253.046
214.4485, 3250.650
214.9306, 3255.039
215.4127, 3266.877
215.8948, 3279.096
216.3769, 3289.694
216.8591, 3296.567
217.3412, 3293.559
217.8233, 3267.897
218.3054, 3240.579
218.7875, 3232.585
219.2696, 3243.417
219.7518, 3253.929
220.2339, 3253.161
220.7160, 3242.494
221.1981, 3229.507
221.6802, 3206.231
222.1623, 3187.918
222.6445, 3191.578
223.1266, 3213.877
223.6087, 3229.339
224.0908, 3221.822
224.5729, 3198.710
225.0550, 3184.104
225.5371, 3180.594
226.0193, 3181.789
226.5014, 3186.852
226.9835, 3194.462
227.4656, 3198.758
227.9477, 3196.128
228.4298, 3189.419
228.9120, 3186.116
229.3941, 3188.849
229.8762, 3189.746
230.3583, 3183.870
230.8404, 3173.357
231.3225, 3162.625
231.8047, 3151.780
232.2868, 3144.159
232.7689, 3148.180
233.2510, 3166.824
233.7331, 3185.329
234.2152, 3203.050
234.6974, 3216.974
235.1795, 3218.682
235.6616, 3203.521
236.1437, 3183.304
236.6258, 3177.697
237.1079, 3187.917
237.5901, 3203.106
238.0722, 3225.509
238.5543, 3250.179
239.0364, 3269.688
239.5185, 3282.183
240.0006, 3293.744
240.4828, 3313.515
240.9649, 3344.688
241.4470, 3368.148
241.9291, 3376.292
242.4112, 3379.777
242.8933, 3388.163
243.3755, 3402.903
243.8576, 3419.841
244.3397, 3434.200
244.8218, 3444.838
245.3039, 3463.560
245.7860, 3495.385
246.2682, 3531.192
246.7503, 3565.005
247.2324, 3596.680
247.7145, 3628.835
248.1966, 3663.445
248.6787, 3700.851
249.1608, 3737.373
249.6430, 3771.456
250.1251, 3806.423
250.6072, 3844.841
251.0893, 3885.585
251.5714, 3924.529
252.0535, 3957.915
252.5357, 3987.439
253.0178, 4027.237
253.4999, 4085.351
253.9820, 4143.127
254.4641, 4196.580
254.9462, 4246.273
255.4284, 4292.709
255.9105, 4335.840
256.3926, 4377.316
256.8747, 4423.069
257.3568, 4471.978
257.8390, 4526.927
258.3211, 4594.189
258.8032, 4665.246
259.2853, 4729.444
259.7674, 4783.151
260.2495, 4832.958
260.7316, 4891.342
261.2137, 4965.226
261.6959, 5037.699
262.1780, 5117.078
262.6601, 5189.796
263.1422, 5240.449
263.6243, 5268.313
264.1064, 5289.606
264.5886, 5325.971
265.0707, 5384.005
265.5528, 5437.372
266.0349, 5476.001
266.5170, 5519.130
266.9991, 5584.738
267.4813, 5667.340
267.9634, 5743.162
268.4455, 5786.874
268.9276, 5795.348
269.4097, 5818.882
269.8918, 5882.945
270.3740, 5938.726
270.8561, 5965.448
271.3382, 5972.878
271.8203, 5983.302
272.3024, 6012.885
272.7845, 6057.094
273.2667, 6091.173
273.7488, 6113.476
274.2309, 6126.225
274.7130, 6123.851
275.1951, 6115.421
275.6772, 6112.284
276.1594, 6119.835
276.6415, 6134.418
277.1236, 6150.635
277.6057, 6172.625
278.0878, 6184.750
278.5699, 6177.107
279.0521, 6161.396
279.5342, 6144.938
280.0163, 6129.248
280.4984, 6117.718
280.9805, 6117.872
281.4626, 6131.192
281.9448, 6136.337
282.4269, 6124.084
282.9090, 6105.696
283.3911, 6086.949
283.8732, 6068.552
284.3553, 6055.809
284.8375, 6058.325
285.3196, 6071.488
285.8017, 6073.118
286.2838, 6059.340
286.7659, 6034.808
287.2480, 5993.577
287.7302, 5941.881
288.2123, 5907.545
288.6944, 5917.534
289.1765, 5946.499
289.6586, 5947.844
290.1407, 5914.604
290.6229, 5881.597
291.1050, 5879.781
291.5871, 5897.377
292.0692, 5900.150
292.5513, 5863.709
293.0334, 5825.888
293.5156, 5825.444
293.9977, 5856.637
294.4798, 5876.038
294.9619, 5856.930
295.4440, 5813.219
295.9261, 5786.635
296.4083, 5784.865
296.8904, 5786.164
297.3725, 5786.393
297.8546, 5783.248
298.3367, 5769.100
298.8188, 5739.536
299.3010, 5706.210
299.7831, 5692.527
300.2652, 5710.226
300.7473, 5716.885
301.2294, 5697.463
301.7115, 5671.182
302.1937, 5659.327
302.6758, 5664.662
303.1579, 5670.707
303.6400, 5658.023
304.1221, 5620.578
304.6042, 5596.815
305.0864, 5591.188
305.5685, 5593.211
306.0506, 5599.354
306.5327, 5608.699
307.0148, 5620.085
307.4969, 5632.162
307.9791, 5645.639
308.4612, 5669.387
308.9433, 5714.038
309.4254, 5757.653
309.9075, 5797.566
310.3896, 5834.100
310.8717, 5866.227
311.3539, 5893.112
311.8360, 5920.454
312.3181, 5962.978
312.8002, 6032.388
313.2823, 6093.643
313.7644, 6140.518
314.2466, 6181.022
314.7287, 6219.100
315.2108, 6256.314
315.6929, 6294.510
316.1750, 6332.880
316.6571, 6370.026
317.1393, 6422.572
317.6214, 6504.176
318.1035, 6589.349
318.5856, 6663.966
319.0677, 6730.321
319.5498, 6798.859
320.0320, 6875.109
320.5141, 6958.196
320.9962, 7045.758
321.4783, 7139.340
321.9604, 7233.693
322.4425, 7330.274
322.9247, 7425.130
323.4068, 7512.291
323.8889, 7587.737
324.3710, 7658.505
324.8531, 7742.793
325.3352, 7838.459
325.8174, 7902.019
326.2995, 7922.040
326.7816, 7893.174
327.2637, 7816.535
327.7458, 7691.032
328.2279, 7528.168
328.7101, 7321.204
329.1922, 7082.273
329.6743, 6826.370
330.1564, 6554.272
330.6385, 6281.182
331.1206, 6024.374
331.6028, 5781.841
332.0849, 5560.797
332.5670, 5350.826
333.0491, 5169.882
333.5312, 5043.368
334.0133, 4964.128
334.4955, 4889.212
334.9776, 4785.166
335.4597, 4656.436
335.9418, 4560.470
336.4239, 4511.671
336.9060, 4473.137
337.3882, 4445.964
337.8703, 4420.711
338.3524, 4380.636
338.8345, 4318.683
339.3166, 4249.396
339.7987, 4206.951
340.2809, 4215.458
340.7630, 4207.621
341.2451, 4167.548
341.7272, 4123.075
342.2093, 4093.559
342.6914, 4080.813
343.1736, 4074.594
343.6557, 4062.248
344.1378, 4042.468
344.6199, 4041.533
345.1020, 4082.669
345.5841, 4116.796
346.0663, 4121.887
346.5484, 4107.544
347.0305, 4092.110
347.5126, 4084.136
347.9947, 4081.753
348.4768, 4080.872
348.9590, 4080.950
349.4411, 4084.985
349.9232, 4099.024
350.4053, 4115.267
350.8874, 4126.601
351.3695, 4132.223
351.8517, 4132.283
352.3338, 4118.525
352.8159, 4097.310
353.2980, 4098.583
353.7801, 4137.013
354.2622, 4181.881
354.7444, 4193.734
355.2265, 4176.476
355.7086, 4163.961
356.1907, 4173.952
356.6728, 4185.860
357.1549, 4177.643
357.6371, 4149.235
358.1192, 4114.654
358.6013, 4081.937
359.0834, 4051.476
359.5655, 4025.595
360.0476, 4005.362
360.5297, 3987.667
361.0118, 3975.726
361.4940, 3964.721
361.9761, 3944.810
362.4582, 3912.406
362.9403, 3877.740
363.4224, 3859.613
363.9045, 3870.322
364.3867, 3873.216
364.8688, 3864.644
365.3509, 3852.353
365.8330, 3839.259
366.3151, 3826.613
366.7972, 3815.514
367.2794, 3806.804
367.7615, 3800.480
368.2436, 3797.721
368.7257, 3805.605
369.2078, 3806.830
369.6899, 3790.694
370.1721, 3767.591
370.6542, 3751.480
371.1363, 3748.492
371.6184, 3750.914
372.1005, 3745.716
372.5826, 3731.593
373.0648, 3727.519
373.5469, 3751.482
374.0290, 3774.592
374.5111, 3766.354
374.9932, 3726.734
375.4753, 3691.116
375.9575, 3679.027
376.4396, 3682.033
376.9217, 3686.389
377.4038, 3691.285
377.8859, 3693.066
378.3680, 3688.754
378.8502, 3678.423
379.3323, 3665.909
379.8144, 3645.345
380.2965, 3628.492
380.7786, 3625.641
381.2607, 3630.924
381.7429, 3629.726
382.2250, 3615.271
382.7071, 3595.962
383.1892, 3588.978
383.6713, 3610.356
384.1534, 3615.288
384.6356, 3586.082
385.1177, 3553.661
385.5998, 3541.824
386.0819, 3550.586
386.5640, 3565.030
387.0461, 3573.412
387.5283, 3575.639
388.0104, 3568.874
388.4925, 3542.554
388.9746, 3520.107
389.4567, 3509.486
389.9388, 3504.720
390.4210, 3497.816
390.9031, 3485.526
391.3852, 3471.806
391.8673, 3460.479
392.3494, 3450.941
392.8315, 3450.926
393.3137, 3472.282
393.7958, 3493.352
394.2779, 3495.453
394.7600, 3480.384
395.2421, 3464.890
395.7242, 3460.233
396.2064, 3459.183
396.6885, 3448.333
397.1706, 3426.574
397.6527, 3404.114
398.1348, 3384.901
398.6169, 3370.869
399.0991, 3366.859
399.5812, 3378.029
400.0633, 3391.982
400.5454, 3410.052
401.0275, 3426.262
401.5096, 3429.084
401.9918, 3414.962
402.4739, 3393.271
402.9560, 3376.442
403.4381, 3366.150
403.9202, 3355.756
404.4023, 3346.254
404.8845, 3335.631
405.3666, 3321.019
405.8487, 3304.298
406.3308, 3290.119
406.8129, 3281.582
407.2950, 3277.263
407.7772, 3271.579
408.2592, 3260.992
408.7414, 3256.464
409.2235, 3269.934
409.7056, 3283.533
410.1877, 3280.650
410.6698, 3259.028
411.1519, 3234.699
411.6341, 3220.179
412.1162, 3214.538
412.5983, 3214.895
413.0804, 3225.487
413.5625, 3231.825
414.0446, 3217.468
414.5268, 3190.652
415.0089, 3170.334
415.4910, 3161.773
415.9731, 3158.922
416.4552, 3159.723
416.9373, 3162.856
417.4195, 3164.015
417.9016, 3161.600
418.3837, 3156.478
418.8658, 3150.399
419.3479, 3144.892
419.8300, 3134.106
420.3122, 3109.880
420.7943, 3086.521
421.2764, 3075.199
421.7585, 3075.008
422.2406, 3078.861
422.7227, 3082.349
423.2049, 3084.768
423.6870, 3080.978
424.1691, 3065.264
424.6512, 3051.636
425.1333, 3043.042
425.6154, 3036.996
426.0976, 3029.372
426.5797, 3019.633
427.0618, 3014.820
427.5439, 3028.965
428.0260, 3059.671
428.5081, 3069.613
428.9903, 3045.811
429.4724, 3018.590
429.9545, 3009.372
430.4366, 3012.002
430.9187, 3013.304
431.4008, 3010.552
431.8830, 3004.500
432.3651, 2992.938
432.8472, 2977.819
433.3293, 2967.369
433.8114, 2964.642
434.2935, 2967.483
434.7757, 2972.514
435.2578, 2979.372
435.7399, 2989.779
436.2220, 3010.627
436.7041, 3029.719
437.1862, 3039.243
437.6684, 3038.998
438.1505, 3030.204
438.6326, 3012.093
439.1147, 2988.870
439.5968, 2980.892
440.0789, 3002.344
440.5611, 3016.607
441.0432, 3014.561
441.5253, 3006.815
442.0074, 3003.308
442.4895, 3005.149
442.9716, 3003.986
443.4538, 2987.404
443.9359, 2959.251
444.4180, 2944.739
444.9001, 2949.025
445.3822, 2957.060
445.8643, 2962.048
446.3465, 2964.039
446.8286, 2962.604
447.3107, 2957.060
447.7928, 2948.972
448.2749, 2938.789
448.7570, 2926.864
449.2392, 2913.958
449.7213, 2900.093
450.2034, 2885.884
450.6855, 2871.391
451.1676, 2855.763
451.6497, 2845.305
452.1319, 2849.832
452.6140, 2849.412
453.0961, 2827.692
453.5782, 2794.726
454.0603, 2771.872
454.5424, 2770.168
455.0246, 2779.756
455.5067, 2778.498
455.9888, 2761.816
456.4709, 2747.393
456.9530, 2741.252
457.4351, 2734.405
457.9172, 2722.180
458.3994, 2704.777
458.8815, 2684.458
459.3636, 2656.436
459.8457, 2629.153
460.3278, 2624.036
460.8099, 2643.019
461.2921, 2650.458
461.7742, 2624.056
462.2563, 2582.062
462.7384, 2560.826
463.2205, 2567.948
463.7026, 2569.664
464.1848, 2549.723
464.6669, 2523.887
465.1490, 2510.592
465.6311, 2510.316
466.1132, 2509.296
466.5953, 2496.829
467.0775, 2473.982
467.5596, 2449.438
468.0417, 2416.019
468.5238, 2390.159
469.0059, 2377.709
469.4880, 2371.273
469.9702, 2364.634
470.4523, 2356.160
470.9344, 2346.724
471.4165, 2336.972
471.8986, 2326.938
472.3807, 2316.489
472.8629, 2305.153
473.3450, 2294.464
473.8271, 2287.469
474.3092, 2281.245
474.7913, 2270.855
475.2734, 2254.051
475.7556, 2235.799
476.2377, 2217.958
476.7198, 2201.183
477.2019, 2186.958
477.6840, 2175.628
478.1661, 2166.478
478.6483, 2158.873
479.1304, 2152.907
479.6125, 2147.744
480.0946, 2148.586
480.5767, 2144.358
481.0588, 2129.462
481.5410, 2107.864
482.0231, 2082.962
482.5052, 2056.334
482.9873, 2033.316
483.4694, 2024.879
483.9515, 2034.616
484.4337, 2030.841
484.9158, 1999.585
485.3979, 1970.457
485.8800, 1960.880
486.3621, 1964.168
486.8442, 1966.430
487.3264, 1964.761
487.8085, 1957.959
488.2906, 1939.307
488.7727, 1913.200
489.2548, 1900.007
489.7369, 1908.069
490.2191, 1920.558
490.7012, 1916.499
491.1833, 1891.758
491.6654, 1871.559
492.1475, 1857.892
492.6296, 1846.599
493.1118, 1834.386
493.5939, 1823.292
494.0760, 1818.620
494.5581, 1822.773
495.0402, 1830.184
495.5223, 1831.365
496.0045, 1825.704
496.4866, 1816.247
496.9687, 1799.415
497.4508, 1782.556
497.9329, 1770.520
498.4150, 1761.275
498.8972, 1748.958
499.3793, 1727.042
499.8614, 1706.740
500.3435, 1705.391
500.8256, 1719.232
501.3077, 1725.590
501.7899, 1717.013
502.2720, 1700.348
502.7541, 1682.200
503.2362, 1661.265
503.7183, 1648.334
504.2004, 1649.659
504.6826, 1653.199
505.1647, 1655.714
505.6468, 1655.098
506.1289, 1647.077
506.6110, 1629.721
507.0931, 1608.515
507.5752, 1592.907
508.0573, 1583.531
508.5395, 1577.629
509.0216, 1579.198
509.5037, 1579.970
509.9858, 1574.435
510.4679, 1565.132
510.9500, 1558.949
511.4322, 1562.459
511.9143, 1564.014
512.3964, 1546.657
512.8785, 1514.946
513.3607, 1491.263
513.8428, 1482.886
514.3249, 1480.107
514.8070, 1471.634
515.2891, 1456.163
515.7712, 1444.419
516.2534, 1438.238
516.7355, 1433.686
517.2176, 1429.736
517.6997, 1426.036
518.1818, 1422.417
518.6639, 1418.794
519.1461, 1414.626
519.6282, 1408.004
520.1103, 1397.921
520.5924, 1393.200
521.0745, 1398.618
521.5566, 1403.352
522.0388, 1402.923
522.5209, 1398.083
523.0030, 1389.864
523.4851, 1377.387
523.9672, 1364.089
524.4493, 1351.064
524.9315, 1339.318
525.4136, 1332.125
525.8957, 1330.391
526.3778, 1330.374
526.8599, 1329.085
527.3420, 1326.551
527.8242, 1320.445
528.3063, 1305.607
528.7884, 1293.919
529.2705, 1293.784
529.7526, 1295.592
530.2347, 1285.111
530.7169, 1260.496
531.1990, 1236.978
531.6810, 1232.740
532.1631, 1245.891
532.6453, 1255.180
533.1274, 1260.971
533.6095, 1261.882
534.0916, 1255.008
534.5737, 1243.554
535.0558, 1231.139
535.5380, 1216.863
536.0201, 1205.804
536.5022, 1203.212
536.9843, 1203.660
537.4664, 1199.846
537.9485, 1191.329
538.4307, 1182.015
538.9128, 1174.668
539.3949, 1168.824
539.8770, 1162.297
540.3591, 1151.708
540.8412, 1145.871
541.3234, 1150.950
541.8055, 1156.235
542.2876, 1152.369
542.7697, 1140.706
543.2518, 1130.530
543.7339, 1128.700
544.2161, 1131.660
544.6982, 1132.389
545.1803, 1130.849
545.6624, 1130.051
546.1445, 1131.774
546.6266, 1133.635
547.1088, 1131.531
547.5909, 1124.848
548.0730, 1120.082
548.5551, 1118.520
549.0372, 1118.537
549.5193, 1119.893
550.0015, 1121.934
550.4836, 1124.109
550.9657, 1126.182
551.4478, 1126.534
551.9299, 1121.082
552.4120, 1107.764
552.8942, 1100.285
553.3763, 1101.869
553.8584, 1105.935
554.3405, 1112.165
554.8226, 1117.790
555.3047, 1116.933
555.7869, 1105.208
556.2690, 1093.676
556.7511, 1091.205
557.2332, 1094.582
557.7153, 1097.552
558.1974, 1099.004
558.6796, 1099.809
559.1617, 1100.774
559.6438, 1101.793
560.1259, 1101.647
560.6080, 1099.343
561.0901, 1097.107
561.5723, 1095.709
562.0544, 1094.097
562.5365, 1090.349
563.0186, 1084.975
563.5007, 1081.411
563.9828, 1082.772
564.4650, 1087.571
564.9471, 1093.182
565.4292, 1099.890
565.9113, 1102.951
566.3934, 1099.459
566.8755, 1092.807
567.3577, 1087.787
567.8398, 1084.436
568.3219, 1081.589
568.8040, 1075.773
569.2861, 1073.541
569.7682, 1082.689
570.2504, 1097.977
570.7325, 1108.993
571.2146, 1111.322
571.6967, 1108.229
572.1788, 1103.476
572.6609, 1096.319
573.1431, 1093.624
573.6252, 1098.417
574.1073, 1103.440
574.5894, 1106.768
575.0715, 1107.488
575.5536, 1102.825
576.0358, 1089.507
576.5179, 1078.654
577.0000, 1077.774
577.4821, 1083.065
577.9642, 1090.715
578.4464, 1099.432
578.9285, 1104.582
579.4106, 1102.160
579.8927, 1094.261
580.3748, 1090.130
580.8569, 1090.019
581.3391, 1093.526
581.8212, 1105.211
582.3033, 1116.164
582.7854, 1118.729
583.2675, 1114.980
583.7496, 1114.129
584.2318, 1125.442
584.7139, 1136.453
585.1960, 1125.158
585.6781, 1096.438
586.1602, 1078.275
586.6423, 1079.425
587.1245, 1088.656
587.6066, 1095.104
588.0887, 1098.786
588.5708, 1098.776
589.0529, 1093.248
589.5350, 1086.672
590.0172, 1079.617
590.4993, 1072.556
590.9814, 1064.747
591.4635, 1056.650
591.9456, 1051.878
592.4277, 1057.758
592.9099, 1069.413
593.3920, 1064.410
593.8741, 1039.093
594.3562, 1022.162
594.8383, 1029.823
595.3204, 1047.391
595.8026, 1050.277
596.2847, 1036.773
596.7668, 1024.887
597.2489, 1019.249
597.7310, 1014.097
598.2131, 1002.589
598.6953, 989.3193
599.1774, 985.5174
599.6595, 995.4225
600.1416, 1008.761
600.6237, 1010.877
601.1058, 1001.418
601.5880, 988.2661
602.0701, 967.2119
602.5522, 951.0780
603.0343, 951.1712
603.5164, 958.6724
603.9985, 960.4053
604.4807, 954.2216
604.9628, 945.8294
605.4449, 934.8658
605.9270, 924.5345
606.4091, 919.3500
606.8912, 918.2562
607.3734, 915.5313
607.8555, 907.7189
608.3376, 897.6987
608.8197, 892.5194
609.3018, 894.3318
609.7839, 893.0463
610.2661, 884.7597
610.7482, 877.1188
611.2303, 875.1527
611.7124, 876.4633
612.1945, 876.0284
612.6766, 872.2747
613.1588, 867.3564
613.6409, 861.6479
614.1230, 856.0493
614.6051, 852.2871
615.0872, 850.4443
615.5693, 849.0643
616.0515, 847.0269
616.5336, 844.7285
617.0157, 843.6705
617.4978, 844.1021
617.9799, 845.2778
618.4620, 849.9617
618.9442, 852.7808
619.4263, 849.0466
619.9084, 840.8331
620.3905, 834.3307
620.8726, 831.7075
621.3547, 831.9171
621.8369, 836.6205
622.3190, 843.1155
622.8011, 843.7934
623.2832, 837.3415
623.7653, 830.6329
624.2474, 829.5756
624.7296, 833.4175
625.2117, 836.5746
625.6938, 841.8719
626.1759, 841.6951
626.6580, 829.8547
627.1401, 817.2745
627.6223, 810.9615
628.1044, 810.9216
628.5865, 814.5862
629.0686, 823.2685
629.5507, 831.9068
630.0328, 833.4363
630.5149, 830.1152
630.9970, 830.5250
631.4791, 836.9034
631.9612, 841.2901
632.4434, 834.6578
632.9255, 818.1425
633.4076, 811.3949
633.8897, 823.6971
634.3718, 833.0538
634.8539, 835.9572
635.3361, 835.7218
635.8182, 833.6689
636.3003, 830.7220
636.7824, 829.2480
637.2645, 831.1931
637.7466, 834.5487
638.2288, 836.5485
638.7109, 837.7398
639.1930, 841.2091
639.6751, 848.0847
640.1572, 853.3541
640.6393, 851.4146
641.1215, 842.5322
641.6036, 836.5300
642.0857, 837.0032
642.5678, 835.5320
643.0499, 826.7310
643.5320, 818.8500
644.0142, 820.4608
644.4963, 830.3282
644.9784, 838.7869
645.4605, 840.7094
645.9426, 838.4085
646.4247, 832.4787
646.9069, 824.4649
647.3890, 820.9841
647.8711, 823.9718
648.3532, 828.3483
648.8353, 829.5562
649.3174, 827.5749
649.7996, 821.0375
650.2817, 802.7538
650.7638, 790.2555
651.2459, 788.2751
651.7280, 790.8523
652.2101, 796.3398
652.6923, 802.7073
653.1744, 803.4383
653.6565, 791.7661
654.1386, 776.8791
654.6207, 769.6882
655.1028, 767.6422
655.5850, 762.3218
656.0671, 751.6990
656.5492, 740.8757
657.0313, 734.8549
657.5134, 733.0623
657.9955, 728.9040
658.4777, 719.5734
658.9598, 712.5954
659.4419, 710.8283
659.9240, 710.0005
660.4061, 707.3497
660.8882, 702.9084
661.3704, 697.8135
661.8525, 692.5555
662.3346, 686.7646
662.8167, 679.9993
663.2988, 672.5109
663.7809, 663.9399
664.2631, 654.5235
664.7452, 647.6729
665.2273, 647.1927
665.7094, 650.8000
666.1915, 645.6680
666.6736, 624.7673
667.1558, 611.4534
667.6379, 617.5223
668.1200, 624.3762
668.6021, 618.6412
669.0842, 604.4628
669.5663, 595.7010
670.0485, 600.3233
670.5306, 604.6848
671.0127, 598.8871
671.4948, 588.2705
671.9769, 579.9372
672.4590, 574.9793
672.9412, 571.8853
673.4233, 569.8392
673.9054, 568.2946
674.3875, 565.7687
674.8696, 562.1989
675.3517, 557.8369
675.8339, 552.0191
676.3160, 546.3825
676.7981, 542.4273
677.2802, 539.3605
677.7623, 535.2493
678.2444, 528.1647
678.7266, 523.6982
679.2087, 525.4116
679.6908, 529.5581
680.1729, 534.5670
680.6550, 538.7383
681.1371, 537.4675
681.6193, 527.9608
682.1014, 516.4650
682.5835, 515.1774
683.0656, 523.9664
683.5477, 524.7544
684.0298, 514.2349
684.5120, 502.0614
684.9941, 491.8757
685.4762, 484.4771
685.9583, 482.2582
686.4404, 487.2713
686.9225, 490.8154
687.4047, 491.8375
687.8868, 491.1313
688.3689, 488.0906
688.8510, 483.9880
689.3331, 481.1698
689.8152, 480.3640
690.2974, 479.3758
690.7795, 475.4131
691.2616, 469.5192
691.7437, 465.1278
692.2258, 462.3385
692.7079, 458.6119
693.1901, 452.2491
693.6722, 446.0430
694.1543, 444.4971
694.6364, 448.8584
695.1185, 451.4312
695.6006, 452.0798
696.0828, 451.1960
696.5649, 447.1798
697.0470, 442.7001
697.5291, 441.1989
698.0112, 442.7563
698.4933, 443.4051
698.9755, 439.1962
699.4576, 434.0340
699.9397, 433.5107
700.4218, 435.9846
700.9039, 435.8555
701.3860, 431.6783
701.8682, 427.6497
702.3503, 428.3856
702.8324, 432.9378
703.3145, 432.3571
703.7966, 423.4293
704.2787, 416.8692
704.7609, 417.2431
705.2430, 418.2026
705.7251, 414.0003
706.2072, 406.3922
706.6893, 402.3487
707.1714, 406.0506
707.6536, 409.7461
708.1357, 408.8607
708.6178, 406.4151
709.0999, 406.5675
709.5820, 408.9175
710.0641, 409.8344
710.5463, 407.0497
711.0284, 401.9454
711.5105, 396.4635
711.9926, 390.6375
712.4747, 386.7301
712.9568, 385.4328
713.4390, 384.5871
713.9211, 383.3429
714.4032, 381.4299
714.8853, 377.8820
715.3674, 371.2536
715.8495, 366.5685
716.3317, 365.3053
716.8138, 364.7779
717.2959, 363.3393
717.7780, 361.7936
718.2601, 362.3202
718.7422, 365.4284
719.2244, 366.9889
719.7065, 361.8508
720.1886, 353.7510
720.6707, 349.1412
721.1528, 347.8977
721.6349, 348.3014
722.1171, 349.8004
722.5992, 352.2065
723.0813, 355.8552
723.5634, 360.7790
724.0455, 360.6834
724.5276, 351.8208
725.0098, 344.6328
725.4919, 341.9507
725.9740, 341.5004
726.4561, 342.8126
726.9382, 345.2437
727.4203, 345.6634
727.9025, 340.1499
728.3846, 336.0373
728.8667, 338.4507
729.3488, 343.6659
729.8309, 347.6956
730.3130, 349.7639
730.7951, 349.7401
731.2772, 347.1335
731.7593, 344.1408
732.2415, 346.0509
732.7236, 352.4637
733.2057, 353.9116
733.6878, 347.7376
734.1699, 344.2370
734.6520, 350.7980
735.1342, 363.2856
735.6163, 370.7795
736.0984, 367.9600
736.5805, 372.4095
737.0626, 391.5528
737.5447, 409.5876
738.0269, 415.7911
738.5090, 418.7032
738.9911, 431.9908
739.4732, 458.3207
739.9553, 483.7125
740.4374, 495.8949
740.9196, 504.9490
741.4017, 524.1625
741.8838, 550.3784
742.3659, 574.5855
742.8480, 594.0069
743.3301, 609.8278
743.8123, 622.3691
744.2944, 632.7596
744.7765, 647.7898
745.2586, 667.6821
745.7407, 691.2798
746.2228, 720.2589
746.7050, 750.1017
747.1871, 775.3608
747.6692, 798.1315
748.1513, 828.6229
748.6334, 873.6143
749.1155, 916.2580
749.5977, 959.5010
750.0798, 993.8422
750.5619, 1010.890
751.0440, 1013.460
751.5261, 1009.597
752.0082, 1002.701
752.4904, 986.7582
752.9725, 954.2614
753.4546, 908.9928
753.9367, 855.6747
754.4188, 796.3360
754.9009, 738.1091
755.3831, 683.6671
755.8652, 636.7357
756.3473, 603.8043
756.8294, 585.2372
757.3115, 565.9354
757.7936, 543.0349
758.2758, 525.8722
758.7579, 520.7903
759.2400, 519.3403
759.7221, 511.1451
760.2042, 498.1086
760.6863, 494.7607
761.1685, 514.5248
761.6506, 530.2185
762.1327, 527.8536
762.6148, 519.9918
763.0969, 518.6306
763.5790, 523.4447
764.0612, 528.9977
764.5433, 533.2156
765.0254, 533.5397
765.5075, 526.3716
765.9896, 512.8657
766.4717, 495.9100
766.9539, 475.7228
767.4360, 451.9876
767.9181, 423.5821
768.4002, 395.7298
768.8823, 378.2643
769.3644, 372.9348
769.8466, 362.4968
770.3287, 343.6491
770.8108, 325.6605
771.2929, 311.3173
771.7750, 299.2464
772.2571, 287.8175
772.7393, 277.2097
773.2214, 269.8097
773.7035, 268.5058
774.1856, 267.5518
774.6677, 265.4014
775.1498, 261.9524
775.6320, 255.9816
776.1141, 248.5529
776.5962, 243.1539
777.0783, 242.0318
777.5604, 242.0100
778.0425, 238.5347
778.5247, 233.1707
779.0068, 230.4280
779.4889, 230.5433
779.9710, 231.5368
780.4531, 232.7005
780.9352, 232.5684
781.4174, 227.8711
781.8995, 217.7212
782.3816, 213.2772
782.8637, 217.7839
783.3458, 221.0719
783.8279, 219.1264
784.3101, 215.3215
784.7922, 213.4477
785.2743, 213.2796
785.7564, 211.9482
786.2385, 206.7367
786.7206, 203.4247
787.2028, 205.9336
787.6849, 209.3623
788.1670, 208.9375
788.6491, 205.4497
789.1312, 202.5478
789.6133, 201.9089
790.0955, 202.0819
790.5776, 202.1298
791.0597, 201.8347
791.5418, 200.2104
792.0239, 197.6610
792.5060, 196.6187
792.9882, 198.1597
793.4703, 200.3792
793.9524, 200.3491
794.4345, 198.3455
794.9166, 199.6988
795.3987, 205.6178
795.8809, 209.6819
796.3630, 209.6989
796.8451, 208.0061
797.3272, 206.8314
797.8093, 206.0418
798.2914, 204.0330
798.7736, 200.0302
799.2557, 196.0038
799.7378, 189.7872
800.2199, 185.8279
800.7020, 189.0011
801.1841, 196.0387
801.6663, 200.1988
802.1484, 199.3397
802.6305, 197.6231
803.1126, 197.0868
803.5947, 197.2518
804.0768, 197.7819
804.5590, 198.5756
805.0411, 199.8141
805.5232, 201.3949
806.0053, 202.1104
806.4874, 200.5068
806.9695, 197.5298
807.4517, 195.3043
807.9338, 193.9017
808.4159, 195.2115
808.8980, 200.0637
809.3801, 204.0937
809.8622, 203.6684
810.3444, 200.4961
810.8265, 200.0182
811.3086, 203.4731
811.7907, 206.5246
812.2728, 209.8588
812.7549, 211.8112
813.2371, 210.3517
813.7192, 207.8839
814.2013, 207.5750
814.6834, 209.7280
815.1655, 211.6015
815.6476, 213.0738
816.1298, 213.6203
816.6119, 212.6572
817.0940, 210.8674
817.5761, 208.8546
818.0582, 206.7529
818.5403, 204.2831
819.0225, 200.6773
819.5046, 198.4435
819.9867, 201.7406
820.4688, 207.5719
820.9509, 210.4078
821.4330, 210.1031
821.9152, 208.3251
822.3973, 205.8018
822.8794, 204.4476
823.3615, 207.9577
823.8436, 215.4908
824.3257, 218.3790
824.8079, 216.1112
825.2900, 213.2997
825.7721, 211.0475
826.2542, 209.0923
826.7363, 206.9337
827.2184, 204.8249
827.7006, 204.7014
828.1826, 207.3077
828.6647, 210.6307
829.1469, 216.8819
829.6290, 221.3848
830.1111, 220.6244
830.5932, 217.1239
831.0753, 215.2388
831.5574, 215.8208
832.0396, 215.9482
832.5217, 215.1812
833.0038, 213.2263
833.4859, 207.9072
833.9680, 202.4122
834.4501, 201.1901
834.9323, 204.4158
835.4144, 208.9417
835.8965, 213.8886
836.3786, 217.2878
836.8607, 215.3369
837.3428, 210.7024
837.8250, 208.8580
838.3071, 210.1291
838.7892, 212.6201
839.2713, 215.4383
839.7534, 217.9918
840.2355, 219.3157
840.7177, 219.5235
841.1998, 219.9245
841.6819, 220.6222
842.1640, 220.4668
842.6461, 219.1270
843.1282, 216.6586
843.6104, 212.5653
844.0925, 207.3927
844.5746, 205.1914
845.0567, 207.4833
845.5388, 209.6413
846.0209, 212.8777
846.5031, 214.0946
846.9852, 209.1217
847.4673, 202.2607
847.9494, 201.2711
848.4315, 208.0316
848.9136, 212.2052
849.3958, 209.1628
849.8779, 206.2263
850.3600, 207.5312
850.8421, 210.1037
851.3242, 210.3020
851.8063, 208.2489
852.2885, 206.7483
852.7706, 207.2934
853.2527, 208.3253
853.7348, 208.4353
854.2169, 208.3579
854.6990, 209.7540
855.1812, 211.9038
855.6633, 212.2490
856.1454, 209.8300
856.6275, 206.1013
857.1096, 201.6904
857.5917, 197.5969
858.0739, 197.1493
858.5560, 199.9644
859.0381, 203.1652
859.5202, 206.1019
860.0023, 208.4129
860.4844, 209.8924
860.9666, 210.3830
861.4487, 208.8396
861.9308, 204.4495
862.4129, 203.4166
862.8950, 207.2390
863.3771, 210.9828
863.8593, 212.1079
864.3414, 212.5792
864.8235, 215.3999
865.3056, 220.8376
865.7877, 224.9455
866.2698, 227.6890
866.7520, 229.1071
867.2341, 227.9625
867.7162, 226.6467
868.1983, 226.3794
868.6804, 227.2463
869.1625, 229.5548
869.6447, 234.1205
870.1268, 237.4980
870.6089, 236.9175
871.0910, 236.6352
871.5731, 240.7981
872.0552, 246.1378
872.5374, 247.1505
873.0195, 243.7392
873.5016, 241.6658
873.9837, 244.4365
874.4658, 249.3391
874.9479, 255.0078
875.4301, 260.5525
875.9122, 264.2100
876.3943, 266.3816
876.8764, 269.3110
877.3585, 273.9633
877.8406, 278.4399
878.3228, 279.4852
878.8049, 278.8878
879.2870, 281.3927
879.7691, 286.9115
880.2512, 295.8839
880.7333, 308.3833
881.2155, 318.7170
881.6976, 321.8465
882.1797, 321.4185
882.6618, 327.4615
883.1439, 340.4180
883.6260, 354.2570
884.1082, 369.0134
884.5903, 382.9935
885.0724, 394.7218
885.5545, 406.7285
886.0366, 421.6973
886.5187, 439.6476
887.0009, 464.6795
887.4830, 502.1391
887.9651, 535.6566
888.4472, 551.3979
888.9293, 575.8210
889.4114, 629.6642
889.8936, 703.1586
890.3757, 774.8558
890.8578, 837.7814
891.3399, 922.1211
891.8220, 1037.115
892.3041, 1167.447
892.7863, 1313.444
893.2684, 1467.055
893.7505, 1623.307
894.2326, 1780.420
894.7147, 1932.691
895.1968, 2076.236
895.6790, 2220.517
896.1611, 2369.720
896.6432, 2522.854
897.1253, 2675.004
897.6074, 2831.254
898.0895, 2995.641
898.5717, 3171.833
899.0538, 3374.480
899.5359, 3613.952
900.0180, 3884.739
900.5001, 4190.007
900.9822, 4518.715
901.4644, 4854.198
901.9465, 5190.703
902.4286, 5539.966
902.9107, 5910.687
903.3928, 6227.252
903.8749, 6420.730
904.3571, 6484.889
904.8392, 6399.303
905.3213, 6170.195
905.8034, 5814.849
906.2855, 5338.704
906.7676, 4806.449
907.2498, 4260.534
907.7319, 3719.857
908.2140, 3218.059
908.6961, 2755.180
909.1782, 2364.882
909.6603, 2051.967
910.1425, 1780.820
910.6246, 1538.529
911.1067, 1333.518
911.5888, 1181.453
912.0709, 1078.232
912.5530, 983.4723
913.0352, 896.6724
913.5173, 822.1066
913.9994, 762.4758
914.4815, 711.8196
914.9636, 667.8007
915.4457, 630.1140
915.9279, 598.9617
916.4100, 575.6344
916.8921, 552.0727
917.3742, 525.8282
917.8563, 503.2549
918.3384, 485.6718
918.8206, 472.0877
919.3027, 464.5250
919.7848, 460.2693
920.2669, 450.9789
920.7490, 433.7502
921.2311, 417.7215
921.7133, 402.7709
922.1954, 390.5897
922.6775, 382.9423
923.1596, 377.7438
923.6417, 374.3418
924.1238, 371.7314
924.6060, 365.1500
925.0881, 347.5334
925.5702, 335.9360
926.0523, 343.6684
926.5344, 353.2343
927.0165, 351.2966
927.4986, 342.0091
927.9807, 332.7840
928.4628, 325.4755
928.9449, 320.2452
929.4271, 316.8153
929.9092, 315.9099
930.3913, 321.6357
930.8734, 327.7039
931.3555, 324.1433
931.8376, 314.2769
932.3198, 309.9778
932.8019, 315.5662
933.2840, 320.9312
933.7661, 316.4813
934.2482, 308.1455
934.7303, 301.1862
935.2125, 296.6066
935.6946, 297.3828
936.1767, 302.7087
936.6588, 307.1147
937.1409, 307.5098
937.6230, 307.2124
938.1052, 311.8394
938.5873, 318.1727
939.0694, 317.5561
939.5515, 311.9950
940.0336, 310.2749
940.5157, 314.3102
940.9979, 319.3925
941.4800, 322.1230
941.9621, 323.1309
942.4442, 323.5072
942.9263, 323.2074
943.4084, 321.6270
943.8906, 318.8955
944.3727, 316.6681
944.8548, 315.4941
945.3369, 315.9445
945.8190, 318.9659
946.3011, 323.4195
946.7833, 325.2186
947.2654, 324.4250
947.7475, 324.2808
948.2296, 325.0691
948.7117, 327.3005
949.1938, 331.5334
949.6760, 335.7874
950.1581, 337.5558
950.6402, 336.9148
951.1223, 333.8421
951.6044, 327.6017
952.0865, 324.0698
952.5687, 324.4830
953.0508, 326.3342
953.5329, 328.4680
954.0150, 330.7437
954.4971, 332.9417
954.9792, 335.0695
955.4614, 337.2708
955.9435, 340.4955
956.4256, 340.2905
956.9077, 332.9385
957.3898, 328.2114
957.8719, 335.1220
958.3541, 347.3200
958.8362, 349.3528
959.3183, 337.9674
959.8004, 332.3946
960.2825, 335.0227
960.7646, 338.9630
961.2468, 344.0170
961.7289, 348.0562
962.2110, 348.5370
962.6931, 346.8175
963.1752, 347.6352
963.6573, 353.0427
964.1395, 355.6513
964.6216, 354.5216
965.1037, 351.8527
965.5858, 345.3396
966.0679, 339.9837
966.5500, 341.5939
967.0322, 348.5000
967.5143, 352.9770
967.9964, 354.3015
968.4785, 354.2845
968.9606, 350.8561
969.4427, 348.7041
969.9249, 350.7869
970.4070, 354.0699
970.8891, 355.1151
971.3712, 354.2608
971.8533, 354.7153
972.3354, 357.3839
972.8176, 360.4083
973.2997, 364.2121
973.7818, 367.5616
974.2639, 370.4912
974.7460, 372.2352
975.2281, 371.0821
975.7103, 367.3875
976.1924, 365.3845
976.6745, 367.7424
977.1566, 369.1287
977.6387, 368.2594
978.1208, 366.2635
978.6030, 360.9914
979.0851, 356.5381
979.5672, 359.9824
980.0493, 371.3681
980.5314, 380.2143
981.0135, 383.3618
981.4957, 384.1339
981.9778, 382.9631
982.4599, 380.3307
982.9420, 374.2416
983.4241, 368.0037
983.9063, 366.7787
984.3884, 371.2451
984.8705, 377.6942
985.3526, 389.0053
985.8347, 396.6473
986.3168, 393.6948
986.7990, 389.2362
987.2811, 391.3131
987.7632, 396.6962
988.2453, 397.9674
988.7274, 393.9156
989.2095, 392.5967
989.6917, 399.3983
990.1738, 406.5414
990.6559, 412.3619
991.1380, 415.3886
991.6201, 412.4911
992.1022, 406.5322
992.5844, 402.6550
993.0665, 401.9691
993.5486, 403.2466
994.0307, 409.2188
994.5128, 412.9428
994.9949, 408.5911
995.4771, 402.4630
995.9592, 399.9102
996.4413, 400.2963
996.9234, 400.4302
997.4055, 399.5439
997.8876, 402.7327
998.3698, 416.7845
998.8519, 429.8493
999.3340, 436.2411
999.8161, 438.3268
1000.298, 437.1764
1000.780, 434.0099
1001.262, 429.9117
1001.745, 425.0732
1002.227, 423.1888
1002.709, 428.7996
1003.191, 434.2786
1003.673, 435.8319
1004.155, 434.9512
1004.637, 431.2388
1005.119, 426.8094
1005.602, 425.8731
1006.084, 429.4775
1006.566, 434.1895
1007.048, 440.0709
1007.530, 444.7141
1008.012, 445.3282
1008.494, 445.3908
1008.976, 449.1708
1009.458, 454.7861
1009.941, 457.1303
1010.423, 454.9126
1010.905, 453.7693
1011.387, 457.8067
1011.869, 461.3405
1012.351, 461.0317
1012.833, 459.3564
1013.315, 457.9865
1013.797, 457.2629
1014.280, 457.4048
1014.762, 458.4669
1015.244, 460.0485
1015.726, 461.6927
1016.208, 464.2129
1016.690, 471.8392
1017.172, 476.9853
1017.654, 469.1339
1018.137, 455.2763
1018.619, 449.5866
1019.101, 454.8239
1019.583, 461.9534
1020.065, 470.9077
1020.547, 477.1650
1021.029, 475.4154
1021.511, 473.6855
1021.993, 479.0454
1022.476, 488.6714
1022.958, 497.7113
1023.440, 505.4210
1023.922, 509.7656
1024.404, 506.9858
1024.886, 505.2447
1025.368, 507.5580
1025.850, 511.3311
1026.333, 516.5104
1026.815, 521.0988
1027.297, 520.8615
1027.779, 515.4861
1028.261, 513.9905
1028.743, 523.8704
1029.225, 529.6976
1029.707, 522.5433
1030.189, 516.1036
1030.672, 521.2010
1031.154, 530.6268
1031.636, 532.9581
1032.118, 527.7030
1032.600, 524.7562
1033.082, 527.0136
1033.564, 529.2117
1034.046, 529.4998
1034.528, 530.8714
1035.011, 535.0930
1035.493, 541.0353
1035.975, 548.8434
1036.457, 558.0209
1036.939, 561.6455
1037.421, 552.8902
1037.903, 549.0319
1038.385, 554.2772
1038.868, 560.1567
1039.350, 564.1735
1039.832, 566.8655
1040.314, 568.4719
1040.796, 569.1559
1041.278, 570.0290
1041.760, 570.7709
1042.242, 572.3235
1042.724, 574.4116
1043.207, 577.8755
1043.689, 584.0197
1044.171, 590.3621
1044.653, 594.7022
1045.135, 597.2782
1045.617, 599.0448
1046.099, 600.1448
1046.581, 599.8063
1047.063, 597.1694
1047.546, 595.0831
1048.028, 593.5506
1048.510, 594.8315
1048.992, 602.0063
1049.474, 611.9378
1049.956, 615.7008
1050.438, 612.2460
1050.920, 611.2744
1051.403, 613.2960
1051.885, 615.0197
1052.367, 615.0829
1052.849, 617.6588
1053.331, 626.4210
1053.813, 637.2587
1054.295, 642.0321
1054.777, 641.0007
1055.260, 640.5460
1055.742, 640.7097
1056.224, 639.8922
1056.706, 637.5956
1057.188, 638.1501
1057.670, 644.2919
1058.152, 652.0172
1058.634, 654.7927
1059.116, 654.7993
1059.599, 663.7191
1060.081, 679.8679
1060.563, 688.7783
1061.045, 689.1161
1061.527, 687.7049
1062.009, 687.5087
1062.491, 689.0709
1062.973, 692.9864
1063.455, 699.0027
1063.938, 709.5549
1064.420, 721.1374
1064.902, 720.2218
1065.384, 709.1412
1065.866, 702.0915
1066.348, 703.7167
1066.830, 711.4476
1067.312, 725.5336
1067.795, 738.3197
1068.277, 734.4395
1068.759, 725.0802
1069.241, 732.3955
1069.723, 749.6678
1070.205, 758.0385
1070.687, 754.6018
1071.169, 748.6838
1071.651, 744.2484
1072.134, 744.0178
1072.616, 752.5718
1073.098, 764.3520
1073.580, 775.7626
1074.062, 785.1849
1074.544, 789.2956
1075.026, 789.4862
1075.508, 791.1118
1075.990, 796.1690
1076.473, 801.8128
1076.955, 805.6408
1077.437, 810.6807
1077.919, 820.8147
1078.401, 831.2374
1078.883, 837.6844
1079.365, 840.5126
1079.847, 839.9278
1080.329, 835.6168
1080.812, 836.9512
1081.294, 851.3732
1081.776, 864.7102
1082.258, 874.3622
1082.740, 880.4589
1083.222, 879.1224
1083.704, 876.5225
1084.186, 882.8649
1084.669, 898.1659
1085.151, 909.3945
1085.633, 913.2734
1086.115, 917.7661
1086.597, 922.1279
1087.079, 928.6926
1087.561, 940.5035
1088.043, 952.0004
1088.526, 956.6164
1089.008, 956.7976
1089.490, 962.5079
1089.972, 975.3633
1090.454, 986.8685
1090.936, 996.0660
1091.418, 1008.125
1091.900, 1025.798
1092.382, 1041.146
1092.865, 1048.688
1093.347, 1049.848
1093.829, 1044.893
1094.311, 1035.185
1094.793, 1042.087
1095.275, 1065.181
1095.757, 1084.233
1096.239, 1096.089
1096.721, 1103.729
1097.204, 1108.489
1097.686, 1112.254
1098.168, 1116.194
1098.650, 1122.048
1099.132, 1137.145
1099.614, 1156.968
1100.096, 1164.554
1100.578, 1162.755
1101.061, 1170.167
1101.543, 1191.000
1102.025, 1210.709
1102.507, 1218.589
1102.989, 1222.638
1103.471, 1230.933
1103.953, 1241.391
1104.435, 1250.378
1104.917, 1259.991
1105.400, 1277.464
1105.882, 1300.019
1106.364, 1312.381
1106.846, 1306.586
1107.328, 1305.975
1107.810, 1330.407
1108.292, 1355.976
1108.774, 1367.220
1109.256, 1373.164
1109.739, 1380.633
1110.221, 1390.656
1110.703, 1404.374
1111.185, 1422.043
1111.667, 1437.641
1112.149, 1445.882
1112.631, 1457.963
1113.113, 1480.527
1113.596, 1501.914
1114.078, 1514.710
1114.560, 1524.752
1115.042, 1538.474
1115.524, 1555.210
1116.006, 1570.964
1116.488, 1585.168
1116.970, 1600.354
1117.453, 1618.349
1117.935, 1631.012
1118.417, 1632.379
1118.899, 1640.483
1119.381, 1671.054
1119.863, 1710.312
1120.345, 1730.780
1120.827, 1734.181
1121.309, 1740.077
1121.792, 1748.376
1122.274, 1757.482
1122.756, 1767.219
1123.238, 1778.396
1123.720, 1791.407
1124.202, 1808.290
1124.684, 1832.706
1125.166, 1858.899
1125.648, 1876.537
1126.131, 1887.469
1126.613, 1890.806
1127.095, 1891.921
1127.577, 1906.657
1128.059, 1935.776
1128.541, 1963.850
1129.023, 1982.766
1129.505, 1997.886
1129.988, 2013.899
1130.470, 2027.556
1130.952, 2030.888
1131.434, 2034.318
1131.916, 2053.569
1132.398, 2082.743
1132.880, 2104.113
1133.362, 2113.923
1133.844, 2124.761
1134.327, 2139.547
1134.809, 2156.824
1135.291, 2172.445
1135.773, 2194.702
1136.255, 2238.852
1136.737, 2284.217
1137.219, 2303.165
1137.701, 2301.209
1138.183, 2308.190
1138.666, 2326.019
1139.148, 2348.232
1139.630, 2378.718
1140.112, 2399.961
1140.594, 2404.567
1141.076, 2410.809
1141.558, 2431.661
1142.040, 2458.297
1142.523, 2474.971
1143.005, 2484.319
1143.487, 2502.537
1143.969, 2528.085
1144.451, 2546.075
1144.933, 2556.111
1145.415, 2568.163
1145.897, 2586.103
1146.380, 2612.680
1146.862, 2652.703
1147.344, 2693.732
1147.826, 2715.216
1148.308, 2730.046
1148.790, 2762.988
1149.272, 2801.096
1149.754, 2814.377
1150.236, 2807.233
1150.719, 2809.621
1151.201, 2832.162
1151.683, 2860.504
1152.165, 2891.353
1152.647, 2921.441
1153.129, 2946.271
1153.611, 2973.028
1154.093, 3013.049
1154.575, 3055.234
1155.058, 3077.741
1155.540, 3081.908
1156.022, 3102.598
1156.504, 3160.008
1156.986, 3191.357
1157.468, 3174.162
1157.950, 3180.576
1158.432, 3240.122
1158.915, 3304.533
1159.397, 3338.828
1159.879, 3356.304
1160.361, 3380.996
1160.843, 3412.131
1161.325, 3442.589
1161.807, 3472.562
1162.289, 3504.783
1162.771, 3539.499
1163.254, 3573.820
1163.736, 3607.002
1164.218, 3643.635
1164.700, 3688.592
1165.182, 3734.194
1165.664, 3766.926
1166.146, 3796.540
1166.628, 3840.878
1167.110, 3891.432
1167.593, 3929.744
1168.075, 3958.639
1168.557, 3995.538
1169.039, 4046.247
1169.521, 4095.699
1170.003, 4134.354
1170.485, 4174.453
1170.967, 4220.320
1171.450, 4269.444
1171.932, 4324.529
1172.414, 4378.646
1172.896, 4419.349
1173.378, 4450.412
1173.860, 4494.234
1174.342, 4559.109
1174.824, 4605.881
1175.306, 4625.775
1175.789, 4655.976
1176.271, 4704.390
1176.753, 4765.804
1177.235, 4840.545
1177.717, 4910.162
1178.199, 4944.122
1178.681, 4960.149
1179.163, 5018.343
1179.646, 5109.342
1180.128, 5203.720
1180.610, 5292.884
1181.092, 5345.856
1181.574, 5363.062
1182.056, 5391.664
1182.538, 5457.061
1183.020, 5544.414
1183.502, 5662.571
1183.984, 5772.705
1184.467, 5833.670
1184.949, 5875.403
1185.431, 5920.126
1185.913, 5975.838
1186.395, 6056.800
1186.877, 6161.955
1187.359, 6253.670
1187.841, 6303.751
1188.324, 6379.290
1188.806, 6508.035
1189.288, 6626.818
1189.770, 6711.440
1190.252, 6794.482
1190.734, 6900.623
1191.216, 7015.147
1191.698, 7107.004
1192.181, 7180.793
1192.663, 7282.434
1193.145, 7409.973
1193.627, 7526.675
1194.109, 7629.712
1194.591, 7727.466
1195.073, 7824.314
1195.555, 7938.298
1196.037, 8084.724
1196.520, 8237.901
1197.002, 8360.368
1197.484, 8480.414
1197.966, 8643.416
1198.448, 8819.272
1198.930, 8958.483
1199.412, 9078.136
1199.894, 9227.361
1200.376, 9414.600
1200.859, 9600.083
1201.341, 9771.846
1201.823, 9941.636
1202.305, 10107.43
1202.787, 10276.17
1203.269, 10444.06
1203.751, 10622.20
1204.233, 10819.16
1204.716, 11029.75
1205.198, 11248.18
1205.680, 11473.01
1206.162, 11678.35
1206.644, 11864.28
1207.126, 12068.15
1207.608, 12293.61
1208.090, 12519.08
1208.573, 12739.50
1209.055, 12973.22
1209.537, 13232.49
1210.019, 13501.80
1210.501, 13757.93
1210.983, 14012.91
1211.465, 14286.76
1211.947, 14567.30
1212.429, 14833.39
1212.911, 15091.71
1213.394, 15360.57
1213.876, 15642.11
1214.358, 15932.05
1214.840, 16235.52
1215.322, 16532.62
1215.804, 16823.71
1216.286, 17102.54
1216.768, 17352.19
1217.251, 17615.77
1217.733, 17922.73
1218.215, 18256.22
1218.697, 18597.09
1219.179, 18937.29
1219.661, 19208.33
1220.143, 19418.00
1220.625, 19687.65
1221.108, 20017.63
1221.590, 20349.84
1222.072, 20666.29
1222.554, 20956.17
1223.036, 21213.75
1223.518, 21466.92
1224.000, 21730.93
1224.482, 22016.24
1224.964, 22346.87
1225.447, 22690.62
1225.929, 23032.14
1226.411, 23350.25
1226.893, 23606.85
1227.375, 23812.54
1227.857, 24037.68
1228.339, 24301.07
1228.821, 24554.16
1229.303, 24785.30
1229.786, 25032.66
1230.268, 25314.63
1230.750, 25577.71
1231.232, 25787.87
1231.714, 26001.69
1232.196, 26284.12
1232.678, 26599.05
1233.160, 26855.48
1233.643, 27067.28
1234.125, 27276.11
1234.607, 27486.30
1235.089, 27704.95
1235.571, 27935.19
1236.053, 28189.67
1236.535, 28469.06
1237.017, 28728.72
1237.500, 28922.16
1237.982, 29127.20
1238.464, 29390.13
1238.946, 29665.83
1239.428, 29932.36
1239.910, 30196.22
1240.392, 30468.35
1240.874, 30741.13
1241.356, 30989.37
1241.839, 31216.53
1242.321, 31513.20
1242.803, 31893.20
1243.285, 32239.27
1243.767, 32543.34
1244.249, 32806.09
1244.731, 33029.22
1245.213, 33305.86
1245.695, 33695.52
1246.178, 34095.10
1246.660, 34364.24
1247.142, 34604.57
1247.624, 34928.98
1248.106, 35314.43
1248.588, 35768.54
1249.070, 36241.73
1249.552, 36658.00
1250.035, 37020.46
1250.517, 37381.14
1250.999, 37747.06
1251.481, 38118.63
1251.963, 38481.73
1252.445, 38877.46
1252.927, 39322.54
1253.409, 39776.57
1253.891, 40227.07
1254.374, 40668.65
1254.856, 41095.23
1255.338, 41521.62
1255.820, 41982.71
1256.302, 42460.44
1256.784, 42876.79
1257.266, 43260.87
1257.748, 43677.23
1258.230, 44126.36
1258.713, 44587.22
1259.195, 45049.01
1259.677, 45489.21
1260.159, 45887.30
1260.641, 46302.37
1261.123, 46793.58
1261.605, 47257.40
1262.087, 47646.72
1262.570, 48007.46
1263.052, 48356.66
1263.534, 48710.83
1264.016, 49097.87
1264.498, 49500.34
1264.980, 49845.36
1265.462, 50134.90
1265.944, 50388.31
1266.427, 50611.12
1266.909, 50850.59
1267.391, 51100.95
1267.873, 51290.81
1268.355, 51398.17
##END=



