##NAMES=Strengite
##RRUFFID=R040177
##IDEAL CHEMISTRY=Fe^3+^PO_4_&#183;2H_2_O
##LOCALITY=Plegstein, Oberpfalz, Bavaria, Germany
##OWNER=RRUFF
##SOURCE=University of Arizona Mineral Museum
##DESCRIPTION=Light purple crystals
##STATUS=The identification of this mineral is confirmed by single-crystal X-ray diffraction and chemical analysis.
##URL=rruff.info/R040177
##MEASURED CHEMISTRY=Fe^3+^PO_4_Â·2H_2_O
132.7877, 831.5581
133.2699, 866.9584
133.7520, 908.1648
134.2341, 954.0569
134.7162, 1005.614
135.1983, 1063.060
135.6804, 1117.922
136.1626, 1167.152
136.6447, 1217.069
137.1268, 1282.492
137.6089, 1367.511
138.0910, 1451.930
138.5731, 1522.383
139.0553, 1576.386
139.5374, 1632.199
140.0195, 1691.058
140.5016, 1752.347
140.9837, 1811.520
141.4658, 1869.417
141.9480, 1924.789
142.4301, 1975.518
142.9122, 2017.788
143.3943, 2063.708
143.8764, 2118.473
144.3585, 2181.238
144.8407, 2232.360
145.3228, 2263.480
145.8049, 2288.958
146.2870, 2321.816
146.7691, 2365.393
147.2512, 2411.245
147.7334, 2454.337
148.2155, 2490.483
148.6976, 2544.871
149.1797, 2624.045
149.6618, 2719.877
150.1439, 2820.712
150.6261, 2932.103
151.1082, 3042.352
151.5903, 3149.787
152.0724, 3260.530
152.5545, 3353.908
153.0366, 3437.501
153.5188, 3501.831
154.0009, 3528.167
154.4830, 3487.070
154.9651, 3427.568
155.4472, 3370.530
155.9293, 3320.503
156.4115, 3270.667
156.8936, 3209.501
157.3757, 3144.730
157.8578, 3101.880
158.3399, 3096.161
158.8221, 3110.297
159.3042, 3132.865
159.7863, 3155.782
160.2684, 3192.023
160.7505, 3240.987
161.2326, 3304.497
161.7148, 3393.662
162.1969, 3524.942
162.6790, 3680.291
163.1611, 3840.461
163.6432, 3988.991
164.1253, 4150.254
164.6075, 4338.894
165.0896, 4555.497
165.5717, 4785.520
166.0538, 5038.378
166.5359, 5296.687
167.0180, 5536.211
167.5002, 5761.465
167.9823, 5957.399
168.4644, 6115.281
168.9465, 6235.389
169.4286, 6311.021
169.9107, 6325.030
170.3929, 6290.176
170.8750, 6233.576
171.3571, 6155.762
171.8392, 6069.488
172.3213, 5984.902
172.8034, 5900.643
173.2856, 5829.646
173.7677, 5779.096
174.2498, 5750.579
174.7319, 5749.998
175.2140, 5772.239
175.6961, 5826.142
176.1783, 5929.712
176.6604, 6094.336
177.1425, 6292.648
177.6246, 6481.202
178.1067, 6665.228
178.5888, 6892.160
179.0710, 7206.213
179.5531, 7584.740
180.0352, 7977.344
180.5173, 8376.495
180.9994, 8775.521
181.4815, 9163.138
181.9637, 9542.034
182.4458, 9889.375
182.9279, 10189.46
183.4100, 10444.81
183.8921, 10666.13
184.3742, 10826.55
184.8564, 10968.55
185.3385, 11176.84
185.8206, 11453.01
186.3027, 11798.08
186.7848, 12225.09
187.2669, 12729.62
187.7491, 13290.59
188.2312, 13923.15
188.7133, 14604.64
189.1954, 15282.88
189.6775, 15963.30
190.1596, 16596.24
190.6418, 17168.54
191.1239, 17674.16
191.6060, 18004.38
192.0881, 18131.56
192.5702, 18052.56
193.0524, 17725.62
193.5345, 17136.64
194.0166, 16341.41
194.4987, 15378.61
194.9808, 14236.68
195.4629, 13097.39
195.9451, 12038.68
196.4272, 11047.14
196.9093, 10157.81
197.3914, 9369.457
197.8735, 8686.821
198.3556, 8135.131
198.8378, 7727.076
199.3199, 7378.900
199.8020, 7059.839
200.2841, 6774.254
200.7662, 6491.664
201.2483, 6204.114
201.7305, 5924.410
202.2126, 5685.515
202.6947, 5491.497
203.1768, 5323.128
203.6589, 5167.434
204.1410, 5023.965
204.6232, 4906.975
205.1053, 4820.600
205.5874, 4760.326
206.0695, 4710.497
206.5516, 4668.906
207.0337, 4643.572
207.5159, 4642.825
207.9980, 4670.731
208.4801, 4702.144
208.9622, 4728.120
209.4443, 4755.373
209.9264, 4818.483
210.4086, 4923.509
210.8907, 5052.828
211.3728, 5192.378
211.8549, 5343.049
212.3370, 5507.386
212.8191, 5698.403
213.3013, 5907.526
213.7834, 6082.409
214.2655, 6235.426
214.7476, 6334.410
215.2297, 6349.392
215.7118, 6271.214
216.1940, 6131.524
216.6761, 5923.561
217.1582, 5649.749
217.6403, 5376.246
218.1224, 5095.171
218.6045, 4829.098
219.0867, 4598.549
219.5688, 4405.417
220.0509, 4247.990
220.5330, 4131.838
221.0151, 4055.815
221.4972, 4001.021
221.9794, 3965.864
222.4615, 3953.081
222.9436, 3968.901
223.4257, 4028.157
223.9078, 4086.268
224.3899, 4133.166
224.8721, 4168.989
225.3542, 4201.261
225.8363, 4235.898
226.3184, 4261.699
226.8005, 4263.071
227.2827, 4225.971
227.7648, 4191.634
228.2469, 4175.440
228.7290, 4183.315
229.2111, 4163.220
229.6932, 4106.230
230.1754, 4028.793
230.6575, 3950.574
231.1396, 3872.324
231.6217, 3792.616
232.1038, 3708.317
232.5859, 3615.690
233.0681, 3538.189
233.5502, 3474.993
234.0323, 3427.654
234.5144, 3398.622
234.9965, 3392.234
235.4786, 3397.374
235.9608, 3410.970
236.4429, 3432.340
236.9250, 3463.815
237.4071, 3504.020
237.8892, 3555.062
238.3713, 3621.366
238.8535, 3709.063
239.3356, 3801.875
239.8177, 3895.698
240.2998, 3991.909
240.7819, 4084.728
241.2640, 4176.134
241.7462, 4264.488
242.2283, 4348.101
242.7104, 4428.798
243.1925, 4501.686
243.6746, 4564.033
244.1567, 4612.942
244.6389, 4663.495
245.1210, 4724.460
245.6031, 4781.842
246.0852, 4809.937
246.5673, 4802.221
247.0494, 4776.239
247.5316, 4737.075
248.0137, 4683.604
248.4958, 4619.160
248.9779, 4537.858
249.4600, 4449.194
249.9421, 4373.604
250.4243, 4317.604
250.9064, 4261.994
251.3885, 4197.699
251.8706, 4117.604
252.3527, 4052.597
252.8348, 4007.876
253.3170, 3975.086
253.7991, 3937.214
254.2812, 3887.047
254.7633, 3846.356
255.2454, 3824.319
255.7275, 3825.073
256.2097, 3829.525
256.6918, 3835.651
257.1739, 3846.790
257.6560, 3869.683
258.1381, 3906.537
258.6202, 3950.812
259.1024, 4000.536
259.5845, 4054.813
260.0666, 4116.382
260.5487, 4186.629
261.0308, 4263.020
261.5129, 4343.308
261.9951, 4424.634
262.4772, 4515.285
262.9593, 4623.132
263.4414, 4758.148
263.9235, 4866.646
264.4056, 4946.259
264.8878, 5002.651
265.3699, 5047.662
265.8520, 5082.612
266.3341, 5103.538
266.8162, 5109.484
267.2983, 5100.597
267.7805, 5071.714
268.2626, 5012.735
268.7447, 4945.257
269.2268, 4908.535
269.7089, 4909.333
270.1910, 4916.652
270.6732, 4918.251
271.1553, 4912.894
271.6374, 4914.122
272.1195, 4922.646
272.6016, 4936.740
273.0837, 4959.449
273.5659, 4996.449
274.0480, 5013.642
274.5301, 4986.677
275.0122, 4913.111
275.4943, 4874.685
275.9764, 4881.287
276.4586, 4904.433
276.9407, 4897.212
277.4228, 4855.242
277.9049, 4821.700
278.3870, 4815.498
278.8691, 4835.536
279.3513, 4856.466
279.8334, 4877.558
280.3155, 4901.423
280.7976, 4929.786
281.2798, 4962.135
281.7619, 5004.777
282.2440, 5057.055
282.7261, 5120.416
283.2082, 5209.228
283.6903, 5326.803
284.1725, 5457.637
284.6546, 5582.647
285.1367, 5701.258
285.6188, 5826.689
286.1009, 5964.196
286.5830, 6112.233
287.0652, 6265.641
287.5473, 6423.395
288.0294, 6584.243
288.5115, 6749.801
288.9936, 6919.398
289.4757, 7081.185
289.9579, 7238.015
290.4400, 7383.403
290.9221, 7500.085
291.4042, 7586.820
291.8863, 7660.331
292.3684, 7732.757
292.8506, 7804.763
293.3327, 7881.618
293.8148, 7977.125
294.2969, 8072.061
294.7790, 8126.712
295.2611, 8141.137
295.7433, 8140.635
296.2254, 8150.818
296.7075, 8164.134
297.1896, 8159.339
297.6717, 8127.940
298.1538, 8077.418
298.6360, 8018.609
299.1181, 7950.895
299.6002, 7873.426
300.0823, 7785.617
300.5644, 7686.797
301.0465, 7574.436
301.5287, 7444.966
302.0108, 7305.503
302.4929, 7161.583
302.9750, 7013.518
303.4571, 6871.313
303.9392, 6736.433
304.4214, 6611.897
304.9035, 6498.854
305.3856, 6400.536
305.8677, 6313.338
306.3498, 6241.220
306.8319, 6180.941
307.3141, 6119.417
307.7962, 6040.562
308.2783, 5961.603
308.7604, 5898.595
309.2425, 5857.926
309.7246, 5829.723
310.2068, 5812.654
310.6889, 5803.708
311.1710, 5794.823
311.6531, 5775.611
312.1352, 5758.909
312.6173, 5756.480
313.0995, 5775.354
313.5816, 5793.427
314.0637, 5795.005
314.5458, 5788.969
315.0279, 5792.032
315.5100, 5818.965
315.9922, 5850.376
316.4743, 5875.102
316.9564, 5889.578
317.4385, 5906.820
317.9206, 5921.869
318.4027, 5944.344
318.8849, 5987.685
319.3670, 6072.344
319.8491, 6163.670
320.3312, 6247.175
320.8133, 6319.356
321.2954, 6400.558
321.7776, 6492.160
322.2597, 6596.177
322.7418, 6714.754
323.2239, 6868.205
323.7060, 7016.280
324.1881, 7140.405
324.6703, 7236.057
325.1524, 7361.021
325.6345, 7548.934
326.1166, 7750.544
326.5987, 7927.870
327.0808, 8060.705
327.5630, 8192.745
328.0451, 8334.798
328.5272, 8485.433
329.0093, 8613.905
329.4914, 8708.013
329.9735, 8788.205
330.4557, 8867.741
330.9378, 8956.488
331.4199, 9027.049
331.9020, 9073.031
332.3841, 9098.789
332.8662, 9124.001
333.3484, 9143.142
333.8305, 9169.746
334.3126, 9214.156
334.7947, 9284.181
335.2768, 9347.146
335.7589, 9402.977
336.2411, 9449.884
336.7232, 9483.343
337.2053, 9500.261
337.6874, 9512.020
338.1695, 9526.439
338.6516, 9545.421
339.1338, 9548.861
339.6159, 9534.806
340.0980, 9507.604
340.5801, 9471.168
341.0622, 9423.570
341.5443, 9380.606
342.0265, 9352.455
342.5086, 9336.717
342.9907, 9307.637
343.4728, 9264.280
343.9549, 9212.182
344.4370, 9159.767
344.9192, 9106.509
345.4013, 9044.241
345.8834, 8972.963
346.3655, 8890.623
346.8476, 8792.211
347.3297, 8677.918
347.8119, 8555.077
348.2940, 8421.971
348.7761, 8285.149
349.2582, 8169.428
349.7403, 8092.838
350.2225, 8026.087
350.7046, 7924.850
351.1867, 7791.608
351.6688, 7652.477
352.1509, 7525.572
352.6331, 7404.670
353.1152, 7278.168
353.5973, 7136.289
354.0794, 7001.830
354.5615, 6902.575
355.0436, 6829.087
355.5258, 6752.646
356.0079, 6650.532
356.4900, 6542.406
356.9721, 6446.006
357.4542, 6366.424
357.9363, 6290.541
358.4185, 6206.154
358.9006, 6120.999
359.3827, 6048.450
359.8648, 6001.284
360.3469, 5962.077
360.8290, 5922.911
361.3112, 5882.955
361.7933, 5842.804
362.2754, 5799.643
362.7575, 5757.168
363.2396, 5719.241
363.7217, 5694.045
364.2039, 5666.690
364.6860, 5631.958
365.1681, 5589.525
365.6502, 5549.292
366.1323, 5508.394
366.6144, 5472.111
367.0966, 5444.025
367.5787, 5426.572
368.0608, 5414.906
368.5429, 5411.822
369.0250, 5415.279
369.5071, 5414.795
369.9893, 5407.828
370.4714, 5399.904
370.9535, 5393.540
371.4356, 5388.986
371.9177, 5385.180
372.3998, 5380.171
372.8820, 5376.908
373.3641, 5381.568
373.8462, 5394.035
374.3283, 5414.856
374.8104, 5449.025
375.2925, 5499.531
375.7747, 5527.782
376.2568, 5526.566
376.7389, 5517.865
377.2210, 5538.605
377.7031, 5592.155
378.1852, 5625.381
378.6674, 5613.222
379.1495, 5568.283
379.6316, 5546.914
380.1137, 5551.561
380.5958, 5559.250
381.0779, 5545.123
381.5601, 5514.009
382.0422, 5491.707
382.5243, 5486.801
383.0064, 5489.192
383.4885, 5480.705
383.9706, 5462.796
384.4528, 5446.811
384.9349, 5438.304
385.4170, 5437.207
385.8991, 5444.046
386.3812, 5460.267
386.8633, 5480.187
387.3455, 5503.833
387.8276, 5527.355
388.3097, 5542.250
388.7918, 5530.559
389.2739, 5517.056
389.7560, 5526.720
390.2382, 5563.904
390.7203, 5594.500
391.2024, 5596.005
391.6845, 5582.196
392.1666, 5568.899
392.6487, 5555.760
393.1309, 5549.351
393.6130, 5558.823
394.0951, 5581.964
394.5772, 5593.598
395.0593, 5579.235
395.5414, 5556.480
396.0236, 5536.420
396.5057, 5517.609
396.9878, 5505.013
397.4699, 5500.070
397.9520, 5501.924
398.4341, 5508.053
398.9163, 5525.940
399.3984, 5540.423
399.8805, 5547.802
400.3626, 5551.976
400.8447, 5534.695
401.3268, 5477.037
401.8090, 5411.948
402.2911, 5389.409
402.7732, 5427.649
403.2553, 5460.975
403.7374, 5468.811
404.2195, 5453.169
404.7017, 5451.294
405.1838, 5465.521
405.6659, 5487.412
406.1480, 5510.923
406.6301, 5536.203
407.1122, 5557.395
407.5944, 5567.020
408.0765, 5578.769
408.5586, 5632.767
409.0407, 5728.398
409.5228, 5824.408
410.0049, 5888.822
410.4871, 5931.604
410.9692, 5979.104
411.4513, 6032.509
411.9334, 6097.362
412.4155, 6186.947
412.8976, 6295.592
413.3798, 6403.035
413.8619, 6500.811
414.3440, 6594.265
414.8261, 6691.433
415.3082, 6792.828
415.7903, 6890.460
416.2725, 6981.268
416.7546, 7065.444
417.2367, 7145.224
417.7188, 7222.424
418.2009, 7291.843
418.6830, 7347.838
419.1652, 7393.029
419.6473, 7434.819
420.1294, 7484.298
420.6115, 7525.157
421.0937, 7548.329
421.5758, 7546.498
422.0579, 7538.983
422.5400, 7526.466
423.0221, 7510.146
423.5042, 7491.592
423.9864, 7466.025
424.4685, 7443.862
424.9506, 7427.056
425.4327, 7415.951
425.9148, 7408.369
426.3969, 7402.148
426.8791, 7401.891
427.3612, 7412.982
427.8433, 7439.266
428.3254, 7463.065
428.8075, 7475.688
429.2896, 7486.646
429.7718, 7532.065
430.2539, 7617.231
430.7360, 7708.529
431.2181, 7781.889
431.7002, 7839.434
432.1823, 7913.172
432.6645, 8006.213
433.1466, 8110.783
433.6287, 8218.077
434.1108, 8327.346
434.5929, 8435.592
435.0750, 8536.776
435.5572, 8637.220
436.0393, 8751.374
436.5214, 8878.524
437.0035, 9003.981
437.4856, 9111.338
437.9677, 9210.153
438.4499, 9313.086
438.9320, 9424.395
439.4141, 9538.779
439.8962, 9665.816
440.3783, 9793.725
440.8604, 9895.879
441.3426, 9960.304
441.8247, 9994.299
442.3068, 9997.281
442.7889, 9964.598
443.2710, 9923.313
443.7531, 9888.188
444.2353, 9845.247
444.7174, 9778.391
445.1995, 9673.232
445.6816, 9558.156
446.1637, 9442.028
446.6458, 9323.913
447.1280, 9178.185
447.6101, 8988.585
448.0922, 8788.503
448.5743, 8598.030
449.0564, 8419.541
449.5385, 8239.965
450.0207, 8061.372
450.5028, 7880.031
450.9849, 7685.987
451.4670, 7476.959
451.9491, 7275.741
452.4312, 7091.375
452.9134, 6923.148
453.3955, 6758.325
453.8776, 6596.888
454.3597, 6442.838
454.8418, 6300.913
455.3239, 6170.438
455.8061, 6054.979
456.2882, 5955.413
456.7703, 5868.664
457.2524, 5792.559
457.7345, 5726.090
458.2166, 5663.388
458.6988, 5596.437
459.1809, 5534.369
459.6630, 5489.345
460.1451, 5463.320
460.6272, 5445.447
461.1093, 5430.531
461.5915, 5419.285
462.0736, 5412.960
462.5557, 5402.750
463.0378, 5406.497
463.5199, 5432.914
464.0020, 5480.324
464.4842, 5537.085
464.9663, 5613.936
465.4484, 5689.396
465.9305, 5750.520
466.4126, 5773.277
466.8947, 5825.011
467.3769, 5918.778
467.8590, 6035.393
468.3411, 6143.364
468.8232, 6229.759
469.3053, 6333.262
469.7874, 6469.952
470.2696, 6637.557
470.7517, 6791.050
471.2338, 6924.073
471.7159, 7061.180
472.1980, 7222.948
472.6801, 7409.706
473.1623, 7604.232
473.6444, 7809.583
474.1265, 8013.729
474.6086, 8189.421
475.0907, 8341.328
475.5728, 8499.631
476.0550, 8686.383
476.5371, 8888.359
477.0192, 9077.206
477.5013, 9252.497
477.9834, 9437.869
478.4655, 9671.782
478.9477, 9921.329
479.4298, 10140.66
479.9119, 10314.89
480.3940, 10461.22
480.8761, 10582.67
481.3582, 10681.79
481.8404, 10764.06
482.3225, 10820.33
482.8046, 10869.06
483.2867, 10925.57
483.7688, 11005.30
484.2509, 11043.32
484.7331, 11015.21
485.2152, 10952.33
485.6973, 10882.44
486.1794, 10811.17
486.6615, 10722.95
487.1436, 10614.91
487.6258, 10487.87
488.1079, 10344.64
488.5900, 10185.13
489.0721, 10011.59
489.5542, 9826.423
490.0363, 9628.946
490.5185, 9415.123
491.0006, 9186.442
491.4827, 8942.003
491.9648, 8675.204
492.4470, 8390.565
492.9291, 8117.891
493.4112, 7881.269
493.8933, 7656.057
494.3754, 7407.798
494.8575, 7138.250
495.3397, 6873.509
495.8218, 6625.264
496.3039, 6388.956
496.7860, 6164.186
497.2681, 5949.631
497.7502, 5737.408
498.2324, 5513.060
498.7145, 5290.006
499.1966, 5082.146
499.6787, 4902.576
500.1608, 4732.198
500.6429, 4562.819
501.1251, 4395.245
501.6072, 4245.035
502.0893, 4119.264
502.5714, 4003.689
503.0535, 3892.433
503.5356, 3788.885
504.0178, 3681.381
504.4999, 3565.748
504.9820, 3450.896
505.4641, 3348.872
505.9462, 3261.427
506.4283, 3179.316
506.9105, 3100.809
507.3926, 3026.083
507.8747, 2956.485
508.3568, 2891.888
508.8389, 2830.332
509.3210, 2768.431
509.8032, 2707.462
510.2853, 2649.242
510.7674, 2593.143
511.2495, 2543.473
511.7316, 2510.658
512.2137, 2487.102
512.6959, 2457.918
513.1780, 2410.765
513.6601, 2360.665
514.1422, 2314.165
514.6243, 2272.061
515.1064, 2238.698
515.5886, 2220.538
516.0707, 2208.240
516.5528, 2197.191
517.0349, 2190.059
517.5170, 2177.123
517.9991, 2152.786
518.4813, 2124.054
518.9634, 2099.758
519.4455, 2081.716
519.9276, 2065.018
520.4097, 2048.630
520.8918, 2032.920
521.3740, 2018.525
521.8561, 2005.624
522.3382, 1993.446
522.8203, 1979.785
523.3024, 1965.207
523.7845, 1959.056
524.2667, 1963.381
524.7488, 1970.233
525.2309, 1970.976
525.7130, 1966.263
526.1951, 1957.995
526.6772, 1942.451
527.1594, 1927.773
527.6415, 1926.481
528.1236, 1935.664
528.6057, 1942.508
529.0878, 1936.945
529.5699, 1928.009
530.0521, 1922.653
530.5342, 1922.502
531.0163, 1922.379
531.4984, 1920.901
531.9805, 1918.486
532.4626, 1915.583
532.9448, 1912.115
533.4269, 1908.304
533.9090, 1904.162
534.3911, 1899.694
534.8732, 1894.836
535.3553, 1888.478
535.8375, 1883.785
536.3196, 1883.544
536.8017, 1888.233
537.2838, 1885.657
537.7659, 1873.629
538.2480, 1861.471
538.7302, 1859.630
539.2123, 1867.003
539.6944, 1877.067
540.1765, 1890.715
540.6586, 1902.203
541.1407, 1900.878
541.6229, 1889.924
542.1050, 1880.803
542.5871, 1878.902
543.0692, 1882.075
543.5513, 1890.505
544.0334, 1904.026
544.5156, 1915.422
544.9977, 1917.987
545.4798, 1918.948
545.9619, 1924.304
546.4440, 1941.790
546.9261, 1953.867
547.4083, 1951.052
547.8904, 1942.783
548.3725, 1945.941
548.8546, 1963.989
549.3367, 1987.939
549.8188, 2016.973
550.3010, 2050.629
550.7831, 2084.738
551.2652, 2120.793
551.7473, 2152.419
552.2294, 2170.175
552.7115, 2176.376
553.1937, 2194.379
553.6758, 2227.107
554.1579, 2267.180
554.6400, 2308.776
555.1221, 2350.809
555.6042, 2389.292
556.0864, 2421.524
556.5685, 2451.538
557.0506, 2479.152
557.5327, 2506.573
558.0148, 2541.714
558.4969, 2596.864
558.9791, 2654.764
559.4612, 2704.732
559.9433, 2744.575
560.4254, 2781.240
560.9075, 2812.310
561.3896, 2842.671
561.8718, 2877.340
562.3539, 2922.009
562.8360, 2961.441
563.3181, 2994.054
563.8002, 3020.607
564.2823, 3043.596
564.7645, 3063.242
565.2466, 3077.188
565.7287, 3081.510
566.2108, 3079.048
566.6929, 3086.828
567.1750, 3105.428
567.6572, 3119.658
568.1393, 3113.904
568.6214, 3094.917
569.1035, 3075.269
569.5856, 3056.035
570.0677, 3039.279
570.5499, 3028.585
571.0320, 3020.909
571.5141, 3011.359
571.9962, 2999.113
572.4783, 2983.699
572.9604, 2956.264
573.4426, 2922.346
573.9247, 2909.535
574.4068, 2950.048
574.8889, 2987.153
575.3710, 2995.377
575.8531, 2965.595
576.3353, 2955.469
576.8174, 2972.020
577.2995, 2997.963
577.7816, 3017.854
578.2637, 3031.123
578.7458, 3043.078
579.2280, 3054.161
579.7101, 3064.843
580.1922, 3073.726
580.6743, 3081.965
581.1564, 3096.079
581.6385, 3128.503
582.1207, 3163.513
582.6028, 3174.544
583.0849, 3164.960
583.5670, 3161.815
584.0491, 3190.237
584.5313, 3225.600
585.0134, 3247.239
585.4955, 3246.476
585.9776, 3250.125
586.4597, 3272.506
586.9418, 3299.557
587.4240, 3315.158
587.9061, 3316.356
588.3882, 3310.001
588.8703, 3293.122
589.3524, 3270.156
589.8345, 3256.714
590.3167, 3257.427
590.7988, 3249.374
591.2809, 3218.356
591.7630, 3169.861
592.2451, 3133.887
592.7272, 3110.792
593.2094, 3091.541
593.6915, 3073.629
594.1736, 3053.201
594.6557, 3019.782
595.1378, 2968.868
595.6199, 2919.865
596.1021, 2891.947
596.5842, 2874.108
597.0663, 2850.550
597.5485, 2811.037
598.0306, 2770.557
598.5127, 2733.302
598.9948, 2698.922
599.4769, 2665.292
599.9590, 2636.036
600.4412, 2602.342
600.9233, 2559.444
601.4054, 2506.012
601.8875, 2461.256
602.3696, 2426.402
602.8517, 2398.022
603.3339, 2377.189
603.8160, 2362.809
604.2981, 2341.521
604.7802, 2310.804
605.2623, 2277.250
605.7444, 2248.452
606.2266, 2223.686
606.7087, 2202.536
607.1908, 2187.842
607.6729, 2172.955
608.1550, 2151.841
608.6371, 2125.986
609.1193, 2099.488
609.6014, 2074.869
610.0835, 2049.374
610.5656, 2018.998
611.0477, 1981.179
611.5298, 1957.932
612.0120, 1959.875
612.4941, 1966.639
612.9762, 1965.204
613.4583, 1954.065
613.9404, 1940.345
614.4225, 1924.572
614.9047, 1905.865
615.3868, 1878.755
615.8689, 1844.301
616.3510, 1820.278
616.8331, 1815.305
617.3152, 1818.878
617.7974, 1816.290
618.2795, 1808.462
618.7616, 1798.913
619.2437, 1789.879
619.7258, 1779.695
620.2079, 1764.143
620.6901, 1743.304
621.1722, 1730.019
621.6543, 1739.810
622.1364, 1750.843
622.6185, 1747.534
623.1006, 1717.752
623.5828, 1699.318
624.0649, 1698.050
624.5470, 1702.792
625.0291, 1699.648
625.5112, 1686.768
625.9933, 1676.530
626.4755, 1672.974
626.9576, 1670.946
627.4397, 1656.766
627.9218, 1632.365
628.4039, 1612.483
628.8860, 1606.351
629.3682, 1607.870
629.8503, 1612.340
630.3324, 1618.671
630.8145, 1618.998
631.2966, 1603.775
631.7787, 1584.370
632.2609, 1567.893
632.7430, 1554.687
633.2251, 1546.737
633.7072, 1552.827
634.1893, 1559.258
634.6714, 1553.633
635.1536, 1526.498
635.6357, 1508.872
636.1178, 1506.530
636.5999, 1511.141
637.0820, 1507.143
637.5641, 1494.197
638.0463, 1480.768
638.5284, 1467.817
639.0105, 1457.509
639.4926, 1456.369
639.9747, 1462.818
640.4568, 1467.732
640.9390, 1467.946
641.4211, 1462.553
641.9032, 1447.809
642.3853, 1423.568
642.8674, 1403.043
643.3495, 1395.061
643.8317, 1390.317
644.3138, 1381.695
644.7959, 1362.027
645.2780, 1351.721
645.7601, 1357.096
646.2422, 1366.302
646.7244, 1364.318
647.2065, 1348.508
647.6886, 1335.126
648.1707, 1327.057
648.6528, 1322.901
649.1349, 1321.151
649.6171, 1321.352
650.0992, 1320.245
650.5813, 1315.971
651.0634, 1309.770
651.5455, 1301.100
652.0276, 1290.946
652.5098, 1285.018
652.9919, 1293.166
653.4740, 1301.196
653.9561, 1298.386
654.4382, 1281.059
654.9203, 1269.274
655.4025, 1270.077
655.8846, 1273.400
656.3667, 1272.372
656.8488, 1264.761
657.3309, 1259.537
657.8130, 1257.297
658.2952, 1256.910
658.7773, 1257.318
659.2594, 1258.416
659.7415, 1259.058
660.2236, 1259.264
660.7057, 1258.331
661.1879, 1253.192
661.6700, 1245.863
662.1521, 1242.057
662.6342, 1249.387
663.1163, 1256.938
663.5984, 1257.045
664.0806, 1250.497
664.5627, 1245.070
665.0448, 1238.660
665.5269, 1237.787
666.0090, 1248.345
666.4911, 1273.725
666.9733, 1282.547
667.4554, 1267.403
667.9375, 1250.385
668.4196, 1252.557
668.9017, 1273.095
669.3839, 1284.893
669.8660, 1284.676
670.3481, 1279.546
670.8302, 1276.418
671.3123, 1274.685
671.7944, 1272.812
672.2766, 1268.984
672.7587, 1267.120
673.2408, 1272.447
673.7229, 1281.252
674.2050, 1286.373
674.6871, 1282.058
675.1693, 1277.890
675.6514, 1277.270
676.1335, 1279.194
676.6156, 1277.731
677.0977, 1270.254
677.5798, 1265.469
678.0620, 1268.802
678.5441, 1279.046
679.0262, 1283.597
679.5083, 1282.213
679.9904, 1279.702
680.4725, 1279.525
680.9547, 1280.961
681.4368, 1282.455
681.9189, 1283.646
682.4010, 1286.539
682.8831, 1295.138
683.3652, 1304.812
683.8474, 1310.775
684.3295, 1310.601
684.8116, 1308.826
685.2937, 1304.382
685.7758, 1299.452
686.2579, 1296.862
686.7401, 1296.832
687.2222, 1298.682
687.7043, 1302.794
688.1864, 1308.242
688.6685, 1313.304
689.1506, 1317.915
689.6328, 1321.057
690.1149, 1322.176
690.5970, 1321.653
691.0791, 1318.465
691.5612, 1313.517
692.0433, 1311.434
692.5255, 1317.219
693.0076, 1324.590
693.4897, 1329.842
693.9718, 1332.575
694.4539, 1334.332
694.9360, 1334.185
695.4182, 1334.180
695.9003, 1335.498
696.3824, 1338.481
696.8645, 1341.283
697.3466, 1343.873
697.8287, 1346.365
698.3109, 1349.041
698.7930, 1351.780
699.2751, 1354.084
699.7572, 1356.015
700.2393, 1356.869
700.7214, 1346.021
701.2036, 1335.638
701.6857, 1346.673
702.1678, 1421.129
702.6499, 1477.920
703.1320, 1473.246
703.6141, 1428.902
704.0963, 1399.711
704.5784, 1395.394
705.0605, 1396.240
705.5426, 1399.623
706.0247, 1404.881
706.5068, 1409.003
706.9890, 1411.931
707.4711, 1414.413
707.9532, 1416.888
708.4353, 1419.176
708.9174, 1419.876
709.3995, 1419.303
709.8817, 1420.590
710.3638, 1427.657
710.8459, 1436.383
711.3280, 1443.033
711.8101, 1447.066
712.2922, 1450.833
712.7744, 1456.135
713.2565, 1460.549
713.7386, 1462.137
714.2207, 1458.309
714.7028, 1458.467
715.1849, 1463.251
715.6671, 1470.923
716.1492, 1480.469
716.6313, 1491.624
717.1134, 1502.588
717.5955, 1513.397
718.0776, 1522.489
718.5598, 1526.470
719.0419, 1527.398
719.5240, 1529.257
720.0061, 1534.108
720.4882, 1539.450
720.9703, 1544.040
721.4525, 1548.325
721.9346, 1553.333
722.4167, 1558.793
722.8988, 1565.632
723.3809, 1574.228
723.8630, 1584.320
724.3452, 1595.460
724.8273, 1607.991
725.3094, 1618.705
725.7915, 1623.222
726.2736, 1625.763
726.7557, 1641.810
727.2379, 1668.966
727.7200, 1688.372
728.2021, 1676.649
728.6842, 1659.915
729.1663, 1661.737
729.6484, 1684.640
730.1306, 1704.937
730.6127, 1714.526
731.0948, 1720.693
731.5769, 1727.578
732.0590, 1735.739
732.5411, 1742.442
733.0233, 1747.382
733.5054, 1751.547
733.9875, 1754.844
734.4696, 1757.769
734.9517, 1764.861
735.4338, 1777.432
735.9160, 1789.485
736.3981, 1791.366
736.8802, 1789.918
737.3623, 1795.854
737.8444, 1816.255
738.3266, 1836.194
738.8087, 1850.499
739.2908, 1860.941
739.7729, 1869.754
740.2551, 1875.716
740.7372, 1883.299
741.2193, 1895.623
741.7014, 1907.649
742.1835, 1903.874
742.6656, 1884.048
743.1478, 1877.060
743.6299, 1897.808
744.1120, 1929.252
744.5941, 1943.913
745.0762, 1946.375
745.5583, 1951.364
746.0405, 1972.118
746.5226, 1991.728
747.0047, 2001.112
747.4868, 2001.052
747.9689, 1996.472
748.4510, 1978.655
748.9332, 1968.741
749.4153, 1976.474
749.8974, 1999.754
750.3795, 2013.765
750.8616, 2017.741
751.3438, 2018.205
751.8259, 2017.528
752.3080, 2016.683
752.7901, 2018.189
753.2722, 2022.026
753.7543, 2026.692
754.2365, 2035.372
754.7186, 2041.582
755.2007, 2037.477
755.6828, 2019.219
756.1649, 2008.891
756.6470, 2019.710
757.1292, 2030.943
757.6113, 2028.671
758.0934, 2007.916
758.5755, 1996.928
759.0576, 1997.449
759.5397, 2001.636
760.0219, 2002.125
760.5040, 1999.570
760.9861, 1995.542
761.4682, 1989.968
761.9503, 1984.929
762.4324, 1982.692
762.9146, 1981.630
763.3967, 1979.731
763.8788, 1975.219
764.3609, 1971.984
764.8430, 1972.212
765.3251, 1973.170
765.8073, 1973.088
766.2894, 1974.271
766.7715, 1963.624
767.2536, 1935.257
767.7357, 1902.123
768.2178, 1886.235
768.7000, 1884.717
769.1821, 1886.654
769.6642, 1892.495
770.1463, 1893.962
770.6284, 1877.486
771.1105, 1852.336
771.5927, 1836.427
772.0748, 1847.443
772.5569, 1854.113
773.0390, 1846.592
773.5211, 1830.216
774.0032, 1818.155
774.4854, 1811.204
774.9675, 1805.821
775.4496, 1801.838
775.9317, 1797.968
776.4138, 1789.144
776.8959, 1776.728
777.3781, 1767.700
777.8602, 1768.256
778.3423, 1771.743
778.8244, 1774.305
779.3065, 1775.366
779.7886, 1772.914
780.2708, 1761.285
780.7529, 1751.468
781.2350, 1749.053
781.7171, 1752.558
782.1992, 1746.913
782.6813, 1729.987
783.1635, 1712.530
783.6456, 1698.584
784.1277, 1688.591
784.6098, 1685.612
785.0919, 1688.921
785.5740, 1691.171
786.0562, 1685.763
786.5383, 1678.621
787.0204, 1676.097
787.5025, 1678.455
787.9846, 1676.352
788.4667, 1662.097
788.9489, 1648.179
789.4310, 1640.069
789.9131, 1638.213
790.3952, 1634.377
790.8773, 1627.798
791.3594, 1622.948
791.8416, 1625.943
792.3237, 1632.928
792.8058, 1632.933
793.2879, 1625.511
793.7700, 1616.812
794.2521, 1610.568
794.7343, 1605.209
795.2164, 1598.456
795.6985, 1588.268
796.1806, 1585.150
796.6627, 1594.735
797.1448, 1606.251
797.6270, 1613.566
798.1091, 1616.728
798.5912, 1615.020
799.0733, 1608.190
799.5554, 1597.662
800.0375, 1581.076
800.5197, 1562.875
801.0018, 1552.203
801.4839, 1550.955
801.9660, 1552.254
802.4481, 1555.298
802.9302, 1556.985
803.4124, 1554.042
803.8945, 1541.353
804.3766, 1535.030
804.8587, 1538.415
805.3408, 1543.767
805.8229, 1543.826
806.3051, 1538.627
806.7872, 1533.988
807.2693, 1530.618
807.7514, 1526.374
808.2335, 1518.584
808.7156, 1508.576
809.1978, 1497.706
809.6799, 1485.090
810.1620, 1475.591
810.6441, 1471.538
811.1262, 1471.456
811.6083, 1474.297
812.0905, 1482.859
812.5726, 1487.770
813.0547, 1488.835
813.5368, 1486.194
814.0189, 1478.326
814.5010, 1466.284
814.9832, 1455.920
815.4653, 1448.035
815.9474, 1442.919
816.4295, 1442.139
816.9116, 1443.673
817.3937, 1444.973
817.8759, 1444.827
818.3580, 1445.622
818.8401, 1452.471
819.3222, 1457.362
819.8043, 1450.490
820.2864, 1427.285
820.7686, 1414.203
821.2507, 1415.233
821.7328, 1422.085
822.2149, 1425.506
822.6970, 1426.202
823.1791, 1425.763
823.6613, 1424.219
824.1434, 1422.678
824.6255, 1421.583
825.1076, 1421.035
825.5897, 1421.166
826.0718, 1422.972
826.5540, 1424.175
827.0361, 1425.313
827.5182, 1425.250
828.0003, 1423.174
828.4824, 1419.082
828.9645, 1408.872
829.4467, 1389.883
829.9288, 1373.523
830.4109, 1375.547
830.8930, 1387.905
831.3751, 1398.242
831.8572, 1402.290
832.3394, 1406.398
832.8215, 1415.994
833.3036, 1424.933
833.7857, 1425.630
834.2678, 1412.422
834.7499, 1409.074
835.2321, 1420.680
835.7142, 1433.875
836.1963, 1429.180
836.6784, 1411.479
837.1605, 1397.672
837.6426, 1390.241
838.1248, 1390.878
838.6069, 1410.615
839.0890, 1434.550
839.5711, 1445.189
840.0532, 1426.996
840.5353, 1417.724
841.0175, 1424.731
841.4996, 1436.059
841.9817, 1438.694
842.4638, 1432.177
842.9459, 1429.342
843.4280, 1431.769
843.9102, 1436.004
844.3923, 1436.840
844.8744, 1437.420
845.3565, 1444.520
845.8386, 1462.867
846.3207, 1475.024
846.8029, 1467.484
847.2850, 1454.754
847.7671, 1449.566
848.2492, 1454.518
848.7313, 1461.213
849.2134, 1470.950
849.6956, 1478.982
850.1777, 1478.196
850.6598, 1471.636
851.1419, 1470.715
851.6240, 1477.269
852.1061, 1484.475
852.5883, 1488.022
853.0704, 1489.306
853.5525, 1489.226
854.0346, 1486.863
854.5167, 1486.376
854.9988, 1486.859
855.4810, 1490.600
855.9631, 1500.633
856.4452, 1517.143
856.9273, 1530.852
857.4094, 1541.565
857.8915, 1548.714
858.3737, 1546.595
858.8558, 1543.107
859.3379, 1551.234
859.8200, 1573.563
860.3021, 1589.354
860.7842, 1584.297
861.2664, 1575.731
861.7485, 1574.067
862.2306, 1580.430
862.7127, 1580.803
863.1948, 1573.348
863.6769, 1568.017
864.1591, 1573.708
864.6412, 1586.350
865.1233, 1597.667
865.6054, 1607.280
866.0875, 1613.326
866.5696, 1611.848
867.0518, 1608.941
867.5339, 1607.716
868.0160, 1608.508
868.4981, 1613.136
868.9802, 1625.147
869.4623, 1633.609
869.9445, 1633.413
870.4266, 1625.407
870.9087, 1608.738
871.3908, 1584.783
871.8729, 1570.013
872.3550, 1580.063
872.8372, 1598.703
873.3193, 1616.463
873.8014, 1631.951
874.2835, 1639.330
874.7656, 1633.003
875.2477, 1622.815
875.7299, 1608.345
876.2120, 1592.434
876.6941, 1587.185
877.1762, 1592.573
877.6583, 1598.758
878.1404, 1603.401
878.6226, 1604.518
879.1047, 1595.896
879.5869, 1581.596
880.0690, 1571.857
880.5511, 1574.540
881.0332, 1577.787
881.5153, 1578.736
881.9974, 1577.828
882.4796, 1576.094
882.9617, 1573.805
883.4438, 1568.337
883.9259, 1557.294
884.4080, 1546.544
884.8901, 1547.913
885.3723, 1556.761
885.8544, 1561.997
886.3365, 1556.662
886.8186, 1552.082
887.3007, 1555.221
887.7828, 1561.232
888.2650, 1562.791
888.7471, 1556.228
889.2292, 1555.052
889.7113, 1561.237
890.1934, 1571.111
890.6755, 1582.513
891.1577, 1593.747
891.6398, 1599.066
892.1219, 1596.452
892.6040, 1592.533
893.0861, 1590.072
893.5682, 1589.571
894.0504, 1592.183
894.5325, 1601.301
895.0146, 1604.281
895.4967, 1597.557
895.9788, 1591.275
896.4609, 1595.411
896.9431, 1608.091
897.4252, 1617.277
897.9073, 1622.304
898.3894, 1627.634
898.8715, 1637.740
899.3536, 1648.987
899.8358, 1660.125
900.3179, 1671.429
900.8000, 1673.918
901.2821, 1659.896
901.7642, 1647.379
902.2463, 1644.064
902.7285, 1649.313
903.2106, 1658.331
903.6927, 1671.104
904.1748, 1687.559
904.6569, 1713.587
905.1390, 1739.049
905.6212, 1753.617
906.1033, 1758.411
906.5854, 1760.066
907.0675, 1753.186
907.5496, 1752.401
908.0317, 1764.500
908.5139, 1783.648
908.9960, 1788.617
909.4781, 1779.301
909.9602, 1781.179
910.4423, 1809.884
910.9244, 1843.002
911.4066, 1852.866
911.8887, 1847.486
912.3708, 1841.678
912.8529, 1834.280
913.3350, 1835.118
913.8171, 1850.467
914.2993, 1871.255
914.7814, 1885.868
915.2635, 1894.016
915.7456, 1898.527
916.2277, 1898.495
916.7098, 1900.627
917.1920, 1914.637
917.6741, 1935.027
918.1562, 1953.886
918.6383, 1969.134
919.1204, 1983.834
919.6025, 1999.369
920.0847, 2014.212
920.5668, 2027.104
921.0489, 2037.731
921.5310, 2048.692
922.0131, 2059.819
922.4952, 2072.253
922.9774, 2086.178
923.4595, 2102.320
923.9416, 2124.132
924.4237, 2150.990
924.9058, 2173.081
925.3879, 2181.089
925.8701, 2189.206
926.3522, 2203.854
926.8343, 2224.228
927.3164, 2242.517
927.7985, 2258.259
928.2806, 2276.883
928.7628, 2300.467
929.2449, 2328.470
929.7270, 2365.135
930.2091, 2405.792
930.6912, 2438.852
931.1733, 2446.240
931.6555, 2460.584
932.1376, 2500.611
932.6197, 2549.574
933.1018, 2576.658
933.5839, 2577.917
934.0660, 2589.049
934.5482, 2617.869
935.0303, 2654.625
935.5124, 2687.998
935.9945, 2720.655
936.4766, 2756.844
936.9587, 2798.522
937.4409, 2842.628
937.9230, 2890.102
938.4051, 2938.805
938.8872, 2987.152
939.3693, 3035.590
939.8514, 3081.892
940.3336, 3124.617
940.8157, 3172.865
941.2978, 3240.834
941.7799, 3316.232
942.2620, 3383.236
942.7441, 3440.468
943.2263, 3489.882
943.7084, 3514.501
944.1905, 3549.489
944.6726, 3614.995
945.1547, 3703.574
945.6368, 3762.107
946.1190, 3788.522
946.6011, 3828.847
947.0832, 3911.797
947.5653, 4010.936
948.0474, 4092.817
948.5295, 4163.843
949.0117, 4238.909
949.4938, 4321.494
949.9759, 4411.302
950.4580, 4511.678
950.9401, 4616.616
951.4222, 4716.160
951.9044, 4810.669
952.3865, 4899.915
952.8686, 4980.824
953.3507, 5071.156
953.8328, 5190.454
954.3149, 5330.157
954.7971, 5483.675
955.2792, 5652.368
955.7613, 5813.135
956.2434, 5951.663
956.7255, 6094.329
957.2076, 6253.038
957.6898, 6428.901
958.1719, 6637.716
958.6540, 6880.785
959.1361, 7132.629
959.6182, 7370.814
960.1003, 7616.556
960.5825, 7888.881
961.0646, 8188.292
961.5467, 8514.456
962.0288, 8862.824
962.5109, 9240.327
962.9930, 9633.304
963.4752, 10059.94
963.9573, 10564.16
964.4394, 11137.31
964.9215, 11750.51
965.4036, 12387.56
965.8857, 13079.71
966.3679, 13852.57
966.8500, 14694.02
967.3321, 15599.11
967.8142, 16525.26
968.2963, 17580.76
968.7784, 18768.17
969.2606, 20064.27
969.7427, 21414.61
970.2248, 22840.95
970.7069, 24430.36
971.1890, 26181.93
971.6711, 28048.14
972.1533, 29951.02
972.6354, 31975.64
973.1175, 34163.36
973.5996, 36518.14
974.0817, 39027.51
974.5638, 41723.60
975.0460, 44449.67
975.5281, 47161.69
976.0102, 49880.34
976.4923, 52732.38
976.9744, 55651.71
977.4565, 58444.27
977.9387, 61080.43
978.4208, 63510.90
978.9029, 65781.12
979.3850, 67787.31
979.8671, 69426.66
980.3492, 70707.34
980.8314, 71533.13
981.3135, 71910.27
981.7956, 71754.12
982.2777, 70876.83
982.7598, 69455.41
983.2419, 67723.33
983.7241, 65711.78
984.2062, 63420.51
984.6883, 60684.93
985.1704, 57818.55
985.6525, 54902.66
986.1346, 51947.75
986.6168, 49033.95
987.0989, 46164.62
987.5810, 43444.66
988.0631, 40891.18
988.5452, 38542.02
989.0273, 36471.98
989.5095, 34649.83
989.9916, 33025.48
990.4737, 31604.27
990.9558, 30355.00
991.4379, 29294.28
991.9200, 28395.74
992.4022, 27648.66
992.8843, 27042.24
993.3664, 26501.88
993.8485, 26019.84
994.3306, 25600.31
994.8127, 25294.57
995.2949, 25020.08
995.7770, 24707.96
996.2591, 24351.19
996.7412, 23990.41
997.2233, 23632.99
997.7054, 23256.33
998.1876, 22832.68
998.6697, 22387.65
999.1518, 21962.28
999.6339, 21557.43
1000.116, 21171.02
1000.598, 20791.37
1001.080, 20438.80
1001.562, 20131.71
1002.044, 19847.69
1002.527, 19537.54
1003.009, 19201.14
1003.491, 18872.54
1003.973, 18561.98
1004.455, 18268.91
1004.937, 18004.18
1005.419, 17756.72
1005.901, 17512.04
1006.384, 17259.56
1006.866, 17048.93
1007.348, 16890.54
1007.830, 16765.09
1008.312, 16662.46
1008.794, 16583.79
1009.276, 16529.22
1009.758, 16501.07
1010.240, 16515.20
1010.723, 16609.48
1011.205, 16720.75
1011.687, 16799.24
1012.169, 16865.65
1012.651, 16972.25
1013.133, 17117.88
1013.615, 17312.36
1014.097, 17559.07
1014.580, 17851.36
1015.062, 18177.59
1015.544, 18538.43
1016.026, 18934.43
1016.508, 19359.83
1016.990, 19844.06
1017.472, 20435.26
1017.954, 21057.20
1018.436, 21664.14
1018.919, 22253.83
1019.401, 22905.77
1019.883, 23620.27
1020.365, 24286.39
1020.847, 24895.74
1021.329, 25380.05
1021.811, 25680.88
1022.293, 25801.07
1022.776, 25752.14
1023.258, 25539.33
1023.740, 25149.49
1024.222, 24578.17
1024.704, 23829.69
1025.186, 22882.28
1025.668, 21764.18
1026.150, 20582.17
1026.632, 19339.19
1027.115, 18121.06
1027.597, 16966.52
1028.079, 15867.71
1028.561, 14799.51
1029.043, 13761.83
1029.525, 12805.96
1030.007, 11948.47
1030.489, 11164.95
1030.972, 10456.32
1031.454, 9807.424
1031.936, 9182.026
1032.418, 8589.444
1032.900, 8058.940
1033.382, 7610.891
1033.864, 7204.420
1034.346, 6835.585
1034.828, 6501.456
1035.311, 6213.227
1035.793, 5962.894
1036.275, 5710.668
1036.757, 5451.094
1037.239, 5212.084
1037.721, 5021.299
1038.203, 4850.324
1038.685, 4681.670
1039.167, 4516.415
1039.650, 4367.342
1040.132, 4236.406
1040.614, 4118.863
1041.096, 4019.041
1041.578, 3926.386
1042.060, 3826.303
1042.542, 3723.298
1043.024, 3624.616
1043.507, 3536.074
1043.989, 3446.247
1044.471, 3343.800
1044.953, 3248.444
1045.435, 3177.552
1045.917, 3129.314
1046.399, 3076.511
1046.881, 3019.011
1047.364, 2960.456
1047.846, 2898.407
1048.328, 2840.671
1048.810, 2797.929
1049.292, 2764.923
1049.774, 2717.766
1050.256, 2651.168
1050.738, 2587.971
1051.220, 2531.842
1051.703, 2483.355
1052.185, 2450.351
1052.667, 2424.675
1053.149, 2389.536
1053.631, 2336.191
1054.113, 2300.158
1054.595, 2310.159
1055.077, 2317.411
1055.559, 2294.370
1056.042, 2246.554
1056.524, 2208.178
1057.006, 2179.123
1057.488, 2158.417
1057.970, 2154.705
1058.452, 2149.703
1058.934, 2128.233
1059.416, 2098.501
1059.899, 2077.233
1060.381, 2068.571
1060.863, 2053.676
1061.345, 2029.742
1061.827, 2004.729
1062.309, 1984.612
1062.791, 1969.447
1063.273, 1962.280
1063.755, 1962.859
1064.238, 1958.029
1064.720, 1939.754
1065.202, 1920.607
1065.684, 1902.182
1066.166, 1886.964
1066.648, 1885.436
1067.130, 1894.563
1067.612, 1900.280
1068.094, 1898.066
1068.577, 1891.507
1069.059, 1879.647
1069.541, 1866.521
1070.023, 1856.663
1070.505, 1851.582
1070.987, 1838.589
1071.469, 1816.229
1071.951, 1798.542
1072.434, 1801.353
1072.916, 1809.528
1073.398, 1804.067
1073.880, 1788.296
1074.362, 1774.881
1074.844, 1765.678
1075.326, 1760.587
1075.808, 1761.351
1076.291, 1763.039
1076.773, 1757.401
1077.255, 1747.141
1077.737, 1739.217
1078.219, 1734.558
1078.701, 1734.897
1079.183, 1746.980
1079.665, 1758.504
1080.147, 1763.794
1080.630, 1763.350
1081.112, 1758.863
1081.594, 1750.537
1082.076, 1744.647
1082.558, 1743.869
1083.040, 1745.810
1083.522, 1748.915
1084.004, 1753.182
1084.486, 1759.329
1084.969, 1771.389
1085.451, 1772.772
1085.933, 1760.534
1086.415, 1748.672
1086.897, 1748.683
1087.379, 1755.830
1087.861, 1762.939
1088.343, 1769.842
1088.826, 1776.736
1089.308, 1781.263
1089.790, 1789.552
1090.272, 1805.221
1090.754, 1821.905
1091.236, 1826.954
1091.718, 1823.699
1092.200, 1828.172
1092.682, 1843.081
1093.165, 1860.018
1093.647, 1874.948
1094.129, 1889.052
1094.611, 1902.603
1095.093, 1915.968
1095.575, 1931.450
1096.057, 1949.006
1096.539, 1970.030
1097.022, 1995.045
1097.504, 2022.748
1097.986, 2052.664
1098.468, 2084.004
1098.950, 2115.418
1099.432, 2147.458
1099.914, 2177.738
1100.396, 2204.544
1100.879, 2233.386
1101.361, 2270.373
1101.843, 2310.906
1102.325, 2345.414
1102.807, 2375.965
1103.289, 2409.764
1103.771, 2456.052
1104.253, 2497.482
1104.735, 2531.660
1105.218, 2560.307
1105.700, 2581.288
1106.182, 2597.947
1106.664, 2630.093
1107.146, 2680.623
1107.628, 2720.824
1108.110, 2728.116
1108.592, 2725.208
1109.074, 2716.958
1109.557, 2709.466
1110.039, 2733.994
1110.521, 2791.318
1111.003, 2833.477
1111.485, 2843.245
1111.967, 2842.313
1112.449, 2849.128
1112.931, 2857.306
1113.414, 2857.893
1113.896, 2846.373
1114.378, 2848.204
1114.860, 2865.330
1115.342, 2887.679
1115.824, 2915.482
1116.306, 2940.084
1116.788, 2947.282
1117.271, 2940.517
1117.753, 2927.443
1118.235, 2914.681
1118.717, 2887.216
1119.199, 2840.262
1119.681, 2786.248
1120.163, 2742.099
1120.645, 2700.101
1121.127, 2633.261
1121.609, 2542.569
1122.092, 2453.208
1122.574, 2379.221
1123.056, 2308.168
1123.538, 2236.104
1124.020, 2163.953
1124.502, 2093.651
1124.984, 2025.023
1125.466, 1954.069
1125.949, 1880.056
1126.431, 1814.708
1126.913, 1773.126
1127.395, 1737.939
1127.877, 1694.368
1128.359, 1644.356
1128.841, 1608.332
1129.323, 1586.865
1129.806, 1567.421
1130.288, 1545.450
1130.770, 1523.715
1131.252, 1506.632
1131.734, 1490.722
1132.216, 1471.368
1132.698, 1446.723
1133.180, 1422.028
1133.662, 1396.061
1134.145, 1375.924
1134.627, 1372.020
1135.109, 1372.592
1135.591, 1355.727
1136.073, 1328.420
1136.555, 1308.838
1137.037, 1309.508
1137.519, 1307.063
1138.001, 1299.483
1138.484, 1289.932
1138.966, 1282.192
1139.448, 1274.955
1139.930, 1261.528
1140.412, 1243.299
1140.894, 1236.135
1141.376, 1264.179
1141.858, 1280.644
1142.341, 1269.242
1142.823, 1244.669
1143.305, 1234.346
1143.787, 1234.848
1144.269, 1229.699
1144.751, 1215.536
1145.233, 1202.672
1145.715, 1196.223
1146.198, 1193.687
1146.680, 1194.870
1147.162, 1198.320
1147.644, 1195.127
1148.126, 1186.178
1148.608, 1184.590
1149.090, 1198.073
1149.572, 1210.382
1150.054, 1208.488
1150.536, 1200.035
1151.019, 1191.246
1151.501, 1182.036
1151.983, 1180.042
1152.465, 1185.790
1152.947, 1185.509
1153.429, 1165.280
1153.911, 1143.015
1154.393, 1136.680
1154.876, 1140.048
1155.358, 1142.866
1155.840, 1145.175
1156.322, 1143.751
1156.804, 1138.183
1157.286, 1130.809
1157.768, 1118.246
1158.250, 1108.647
1158.733, 1116.959
1159.215, 1137.885
1159.697, 1150.696
1160.179, 1150.676
1160.661, 1145.217
1161.143, 1132.878
1161.625, 1121.740
1162.107, 1124.223
1162.589, 1132.724
1163.072, 1134.795
1163.554, 1129.634
1164.036, 1121.788
1164.518, 1107.467
1165.000, 1099.125
1165.482, 1100.736
1165.964, 1108.222
1166.446, 1114.939
1166.928, 1121.551
1167.411, 1131.873
1167.893, 1148.479
1168.375, 1154.430
1168.857, 1132.620
1169.339, 1113.692
1169.821, 1110.214
1170.303, 1117.141
1170.785, 1122.320
1171.268, 1125.294
1171.750, 1124.193
1172.232, 1116.445
1172.714, 1109.751
1173.196, 1106.055
1173.678, 1105.847
1174.160, 1111.610
1174.642, 1121.549
1175.125, 1120.904
1175.607, 1111.929
1176.089, 1107.244
1176.571, 1122.349
1177.053, 1130.322
1177.535, 1106.141
1178.017, 1079.373
1178.499, 1081.612
1178.981, 1112.344
1179.464, 1123.108
1179.946, 1114.291
1180.428, 1101.804
1180.910, 1091.181
1181.392, 1084.494
1181.874, 1084.114
1182.356, 1087.754
1182.838, 1093.365
1183.320, 1101.242
1183.803, 1101.176
1184.285, 1092.069
1184.767, 1085.925
1185.249, 1097.201
1185.731, 1109.328
1186.213, 1111.302
1186.695, 1104.748
1187.177, 1093.183
1187.660, 1075.862
1188.142, 1066.081
1188.624, 1066.849
1189.106, 1069.022
1189.588, 1062.719
1190.070, 1056.005
1190.552, 1056.134
1191.034, 1062.440
1191.516, 1069.503
1191.999, 1078.235
1192.481, 1076.972
1192.963, 1059.748
1193.445, 1043.312
1193.927, 1048.004
1194.409, 1059.497
1194.891, 1062.987
1195.373, 1057.261
1195.855, 1052.977
1196.338, 1049.966
1196.820, 1050.296
1197.302, 1057.269
1197.784, 1062.700
1198.266, 1053.343
1198.748, 1039.354
1199.230, 1034.327
1199.712, 1041.271
1200.195, 1046.691
1200.677, 1050.833
1201.159, 1051.502
1201.641, 1045.354
1202.123, 1037.849
1202.605, 1034.304
1203.087, 1034.072
1203.569, 1036.958
1204.052, 1047.525
1204.534, 1044.538
1205.016, 1025.107
1205.498, 1009.315
1205.980, 1015.918
1206.462, 1029.545
1206.944, 1033.394
1207.426, 1030.308
1207.908, 1026.429
1208.391, 1021.064
1208.873, 1019.563
1209.355, 1022.838
1209.837, 1026.196
1210.319, 1025.024
1210.801, 1022.236
1211.283, 1021.511
1211.765, 1022.066
1212.247, 1020.382
1212.730, 1014.234
1213.212, 1012.991
1213.694, 1018.703
1214.176, 1024.189
1214.658, 1021.466
1215.140, 1015.477
1215.622, 1009.761
1216.104, 1005.596
1216.587, 1009.256
1217.069, 1025.221
1217.551, 1032.885
1218.033, 1027.367
1218.515, 1019.550
1218.997, 1023.788
1219.479, 1030.902
1219.961, 1028.743
1220.443, 1017.415
1220.926, 1012.506
1221.408, 1015.892
1221.890, 1020.893
1222.372, 1026.590
1222.854, 1031.185
1223.336, 1034.092
1223.818, 1033.689
1224.300, 1024.860
1224.782, 1006.890
1225.265, 1003.460
1225.747, 1018.361
1226.229, 1029.275
1226.711, 1028.150
1227.193, 1023.671
1227.675, 1028.353
1228.157, 1034.522
1228.639, 1031.559
1229.122, 1017.165
1229.604, 1008.262
1230.086, 1005.067
1230.568, 1005.894
1231.050, 1011.301
1231.532, 1017.906
1232.014, 1022.974
1232.496, 1026.295
1232.979, 1027.126
1233.461, 1025.063
1233.943, 1025.045
1234.425, 1027.296
1234.907, 1029.200
1235.389, 1028.444
1235.871, 1028.592
1236.353, 1037.947
1236.835, 1047.792
1237.318, 1044.727
1237.800, 1026.185
1238.282, 1013.872
1238.764, 1007.941
1239.246, 1007.092
1239.728, 1013.960
1240.210, 1021.495
1240.692, 1024.516
1241.175, 1024.029
1241.657, 1020.620
1242.139, 1012.985
1242.621, 1013.178
1243.103, 1021.284
1243.585, 1027.588
1244.067, 1024.827
1244.549, 1019.740
1245.031, 1013.851
1245.514, 1010.271
1245.996, 1014.099
1246.478, 1026.531
1246.960, 1030.933
1247.442, 1027.414
1247.924, 1023.726
1248.406, 1027.696
1248.888, 1029.764
1249.370, 1020.090
1249.853, 1008.110
1250.335, 1007.926
1250.817, 1018.951
1251.299, 1021.464
1251.781, 1015.213
1252.263, 1009.631
1252.745, 1009.561
1253.227, 1012.739
1253.710, 1021.447
1254.192, 1030.191
1254.674, 1030.887
1255.156, 1024.854
1255.638, 1021.710
1256.120, 1021.810
1256.602, 1021.962
1257.084, 1021.069
1257.567, 1018.774
1258.049, 1012.944
1258.531, 1008.238
1259.013, 1013.403
1259.495, 1025.184
1259.977, 1032.244
1260.459, 1033.762
1260.941, 1031.616
1261.423, 1022.757
1261.906, 1015.845
1262.388, 1014.152
1262.870, 1012.965
1263.352, 1001.300
1263.834, 986.1914
1264.316, 987.7161
1264.798, 1005.818
1265.280, 1016.611
1265.762, 1006.114
1266.245, 998.9810
1266.727, 1000.388
1267.209, 1004.706
1267.691, 1002.818
1268.173, 999.2683
1268.655, 1004.771
1269.137, 1019.099
1269.619, 1020.426
1270.102, 998.2966
1270.584, 988.0724
1271.066, 1000.293
1271.548, 1015.828
1272.030, 1008.930
1272.512, 992.6221
1272.994, 979.8748
1273.476, 972.6385
1273.958, 973.7065
1274.441, 985.8666
1274.923, 991.5676
1275.405, 985.8228
1275.887, 977.7714
1276.369, 976.0151
1276.851, 977.2599
1277.333, 979.3088
1277.815, 981.6586
1278.297, 982.4396
1278.780, 981.5572
1279.262, 981.1313
1279.744, 981.7779
1280.226, 982.1208
1280.708, 980.2896
1281.190, 978.4561
1281.672, 978.7412
1282.154, 980.2162
1282.637, 979.0180
1283.119, 975.5145
1283.601, 973.6234
1284.083, 974.4938
1284.565, 974.4507
1285.047, 968.9719
1285.529, 964.5915
1286.011, 964.1392
1286.494, 967.1650
1286.976, 976.1835
1287.458, 987.5515
1287.940, 986.2640
1288.422, 967.1138
1288.904, 953.7498
1289.386, 963.5995
1289.868, 968.2692
1290.350, 955.5109
1290.833, 936.7407
1291.315, 935.7501
1291.797, 945.6179
1292.279, 953.7312
1292.761, 958.0731
1293.243, 957.3840
1293.725, 948.8416
1294.207, 943.7559
1294.689, 946.8161
1295.172, 952.6210
1295.654, 955.9567
1296.136, 955.7022
1296.618, 947.7093
1297.100, 930.3395
1297.582, 926.1014
1298.064, 937.4003
1298.546, 946.4152
1299.029, 947.8660
1299.511, 944.2524
1299.993, 931.6890
1300.475, 920.1765
1300.957, 924.0229
1301.439, 939.6295
1301.921, 940.4969
1302.403, 927.1812
1302.885, 916.4322
1303.368, 913.0131
1303.850, 912.1810
1304.332, 911.0356
1304.814, 911.3042
##END=



