##NAMES=Strengite
##RRUFFID=R070590
##IDEAL CHEMISTRY=Fe^3+^PO_4_&#183;2H_2_O
##LOCALITY=Foddersack Mountain, near Norman, Montgomery County, Arkansas, USA
##OWNER=RRUFF
##SOURCE=James Shigley
##DESCRIPTION=Radiating aggregates of bladed pale purple crystals
##STATUS=The identification of this mineral has been confirmed by single-crystal X-ray diffraction.
##URL=rruff.info/R070590
137.3161, 3157.645
137.7982, 3272.505
138.2803, 3385.873
138.7624, 3484.485
139.2445, 3563.858
139.7266, 3651.674
140.2088, 3750.383
140.6909, 3859.027
141.1730, 3972.368
141.6551, 4092.709
142.1372, 4205.128
142.6193, 4289.797
143.1015, 4387.937
143.5836, 4459.168
144.0657, 4493.537
144.5478, 4491.818
145.0299, 4493.445
145.5120, 4506.489
145.9942, 4517.383
146.4763, 4511.889
146.9584, 4469.040
147.4405, 4435.873
147.9226, 4421.724
148.4047, 4428.553
148.8869, 4446.921
149.3690, 4483.871
149.8511, 4530.984
150.3332, 4574.493
150.8153, 4606.764
151.2974, 4641.456
151.7796, 4684.560
152.2617, 4758.625
152.7438, 4809.616
153.2259, 4832.479
153.7080, 4829.214
154.1901, 4808.228
154.6722, 4769.035
155.1544, 4713.716
155.6365, 4644.454
156.1186, 4531.079
156.6007, 4433.635
157.0828, 4365.911
157.5649, 4327.973
158.0471, 4308.266
158.5292, 4316.824
159.0113, 4337.548
159.4934, 4353.548
159.9755, 4338.512
160.4576, 4334.468
160.9398, 4358.078
161.4219, 4410.862
161.9040, 4489.930
162.3861, 4601.469
162.8682, 4737.839
163.3503, 4886.137
163.8325, 5032.370
164.3146, 5191.781
164.7967, 5376.187
165.2788, 5594.868
165.7609, 5824.758
166.2430, 6053.895
166.7252, 6283.294
167.2073, 6517.726
167.6894, 6783.325
168.1715, 7044.620
168.6536, 7262.798
169.1357, 7419.647
169.6179, 7536.805
170.1000, 7620.520
170.5821, 7673.188
171.0642, 7716.764
171.5463, 7762.239
172.0284, 7809.811
172.5106, 7859.877
172.9927, 7899.193
173.4748, 7947.684
173.9569, 8028.799
174.4390, 8143.334
174.9211, 8281.961
175.4033, 8436.161
175.8854, 8607.287
176.3675, 8799.965
176.8496, 9012.183
177.3317, 9250.515
177.8138, 9522.234
178.2959, 9829.480
178.7781, 10171.54
179.2602, 10551.41
179.7423, 10970.34
180.2244, 11398.71
180.7065, 11830.20
181.1886, 12265.48
181.6708, 12705.65
182.1529, 13176.90
182.6350, 13627.81
183.1171, 13969.66
183.5992, 14200.36
184.0813, 14385.09
184.5635, 14553.20
185.0456, 14712.52
185.5277, 14884.96
186.0098, 15059.11
186.4919, 15257.14
186.9740, 15544.18
187.4562, 15925.91
187.9383, 16374.63
188.4204, 16879.02
188.9025, 17435.84
189.3846, 18000.77
189.8667, 18605.53
190.3489, 19224.94
190.8310, 19727.82
191.3131, 20129.73
191.7952, 20389.55
192.2773, 20450.75
192.7594, 20312.81
193.2416, 20001.04
193.7237, 19499.15
194.2058, 18814.99
194.6879, 18038.00
195.1700, 17148.37
195.6521, 16205.92
196.1343, 15324.68
196.6164, 14516.08
197.0985, 13760.40
197.5806, 13058.74
198.0627, 12411.56
198.5448, 11804.67
199.0269, 11231.68
199.5091, 10699.95
199.9912, 10242.18
200.4733, 9875.170
200.9554, 9542.856
201.4375, 9205.039
201.9196, 8857.676
202.4018, 8533.991
202.8839, 8239.704
203.3660, 7974.595
203.8481, 7735.753
204.3302, 7521.781
204.8123, 7336.296
205.2945, 7181.261
205.7766, 7058.129
206.2587, 6959.139
206.7408, 6884.742
207.2229, 6834.685
207.7050, 6800.491
208.1872, 6782.328
208.6693, 6779.608
209.1514, 6787.557
209.6335, 6798.985
210.1156, 6841.806
210.5977, 6927.544
211.0799, 7060.833
211.5620, 7214.126
212.0441, 7393.915
212.5262, 7590.387
213.0083, 7782.600
213.4904, 7982.830
213.9726, 8156.790
214.4547, 8295.856
214.9368, 8410.168
215.4189, 8450.843
215.9010, 8405.556
216.3831, 8288.232
216.8653, 8140.069
217.3474, 7956.453
217.8295, 7748.032
218.3116, 7512.913
218.7937, 7231.862
219.2758, 6971.206
219.7580, 6729.329
220.2401, 6509.917
220.7222, 6329.165
221.2043, 6191.741
221.6864, 6084.216
222.1685, 5995.664
222.6507, 5925.339
223.1328, 5879.172
223.6149, 5868.974
224.0970, 5892.064
224.5791, 5889.249
225.0612, 5854.753
225.5434, 5801.081
226.0255, 5737.188
226.5076, 5658.336
226.9897, 5579.588
227.4718, 5504.706
227.9539, 5435.186
228.4361, 5354.458
228.9182, 5256.354
229.4003, 5154.170
229.8824, 5063.249
230.3645, 4990.711
230.8466, 4918.159
231.3288, 4838.472
231.8109, 4748.692
232.2930, 4669.599
232.7751, 4603.326
233.2572, 4546.508
233.7393, 4493.365
234.2215, 4439.337
234.7036, 4396.789
235.1857, 4369.717
235.6678, 4360.575
236.1499, 4360.472
236.6320, 4371.562
237.1142, 4390.735
237.5963, 4411.983
238.0784, 4431.424
238.5605, 4458.373
239.0426, 4495.974
239.5247, 4543.570
240.0069, 4603.524
240.4890, 4679.366
240.9711, 4766.426
241.4532, 4855.808
241.9353, 4953.750
242.4174, 5044.892
242.8996, 5121.223
243.3817, 5176.861
243.8638, 5229.634
244.3459, 5278.596
244.8280, 5325.238
245.3101, 5375.121
245.7922, 5434.158
246.2744, 5489.178
246.7565, 5533.193
247.2386, 5566.278
247.7207, 5588.521
248.2028, 5599.524
248.6849, 5599.661
249.1671, 5590.080
249.6492, 5565.524
250.1313, 5538.275
250.6134, 5516.954
251.0955, 5504.824
251.5776, 5491.264
252.0598, 5472.415
252.5419, 5449.551
253.0240, 5438.250
253.5061, 5440.849
253.9882, 5452.146
254.4703, 5469.280
254.9525, 5495.849
255.4346, 5520.047
255.9167, 5538.323
256.3988, 5551.089
256.8809, 5569.819
257.3630, 5590.787
257.8452, 5622.205
258.3273, 5672.074
258.8094, 5744.664
259.2915, 5826.348
259.7736, 5915.479
260.2557, 6012.902
260.7379, 6109.611
261.2200, 6204.867
261.7021, 6299.988
262.1842, 6398.740
262.6663, 6503.253
263.1484, 6604.269
263.6306, 6702.628
264.1127, 6800.143
264.5948, 6872.337
265.0769, 6920.333
265.5590, 6942.767
266.0411, 6937.022
266.5233, 6898.907
267.0054, 6845.179
267.4875, 6778.081
267.9696, 6697.755
268.4517, 6608.508
268.9338, 6503.748
269.4160, 6400.042
269.8981, 6317.590
270.3802, 6260.401
270.8623, 6211.727
271.3444, 6166.301
271.8265, 6124.245
272.3087, 6086.019
272.7908, 6051.213
273.2729, 6020.805
273.7550, 5997.033
274.2371, 5979.764
274.7192, 5969.274
275.2014, 5966.739
275.6835, 5972.481
276.1656, 5979.675
276.6477, 5986.853
277.1298, 5998.296
277.6119, 6022.656
278.0940, 6061.694
278.5761, 6101.449
279.0583, 6129.028
279.5404, 6143.654
280.0225, 6193.656
280.5046, 6288.082
280.9867, 6400.680
281.4688, 6484.019
281.9510, 6535.946
282.4331, 6592.779
282.9152, 6664.845
283.3973, 6752.946
283.8794, 6876.405
284.3615, 7042.908
284.8437, 7228.474
285.3258, 7394.402
285.8079, 7539.107
286.2900, 7685.471
286.7721, 7845.578
287.2542, 8017.411
287.7364, 8182.852
288.2185, 8339.565
288.7006, 8494.164
289.1827, 8660.604
289.6648, 8837.383
290.1469, 9008.448
290.6291, 9170.408
291.1112, 9321.688
291.5933, 9454.806
292.0754, 9568.232
292.5575, 9667.474
293.0396, 9761.961
293.5218, 9851.846
294.0039, 9931.519
294.4860, 10002.02
294.9681, 10061.42
295.4502, 10104.48
295.9323, 10129.85
296.4145, 10140.50
296.8966, 10143.41
297.3787, 10136.12
297.8608, 10107.13
298.3429, 10038.99
298.8250, 9946.647
299.3072, 9862.726
299.7893, 9794.129
300.2714, 9716.984
300.7535, 9602.294
301.2356, 9456.458
301.7177, 9301.396
302.1999, 9139.779
302.6820, 8978.435
303.1641, 8823.906
303.6462, 8679.135
304.1283, 8538.420
304.6104, 8394.859
305.0926, 8252.279
305.5747, 8120.625
306.0568, 8019.793
306.5389, 7925.386
307.0210, 7807.814
307.5031, 7656.767
307.9853, 7512.633
308.4674, 7407.331
308.9495, 7332.826
309.4316, 7271.839
309.9137, 7218.334
310.3958, 7173.612
310.8780, 7139.555
311.3601, 7118.343
311.8422, 7100.918
312.3243, 7084.360
312.8064, 7067.647
313.2885, 7049.216
313.7707, 7022.461
314.2528, 6998.048
314.7349, 6984.285
315.2170, 6984.765
315.6991, 6984.099
316.1812, 6967.356
316.6634, 6946.508
317.1455, 6940.400
317.6276, 6968.903
318.1097, 7002.711
318.5918, 7026.041
319.0739, 7031.603
319.5561, 7049.295
320.0382, 7095.490
320.5203, 7156.851
321.0024, 7214.934
321.4845, 7242.729
321.9666, 7286.112
322.4487, 7365.328
322.9308, 7490.913
323.4130, 7613.943
323.8951, 7725.274
324.3772, 7831.292
324.8593, 7940.396
325.3414, 8045.291
325.8235, 8159.895
326.3057, 8292.697
326.7878, 8451.579
327.2699, 8596.792
327.7520, 8720.108
328.2341, 8833.366
328.7162, 8948.375
329.1984, 9076.605
329.6805, 9193.245
330.1626, 9290.923
330.6447, 9366.760
331.1268, 9446.382
331.6089, 9529.383
332.0911, 9616.624
332.5732, 9711.901
333.0553, 9827.619
333.5374, 9925.868
334.0195, 9994.565
334.5016, 10032.74
334.9838, 10083.14
335.4659, 10152.94
335.9480, 10225.79
336.4301, 10289.11
336.9122, 10345.53
337.3943, 10384.75
337.8765, 10401.20
338.3586, 10397.71
338.8407, 10397.28
339.3228, 10401.64
339.8049, 10404.78
340.2870, 10403.00
340.7692, 10396.73
341.2513, 10378.75
341.7334, 10344.11
342.2155, 10297.73
342.6976, 10259.54
343.1797, 10230.22
343.6619, 10203.42
344.1440, 10183.54
344.6261, 10167.15
345.1082, 10120.99
345.5903, 10029.58
346.0724, 9913.143
346.5546, 9814.402
347.0367, 9732.052
347.5188, 9645.793
348.0009, 9536.560
348.4830, 9410.432
348.9651, 9288.712
349.4473, 9179.073
349.9294, 9071.178
350.4115, 8951.240
350.8936, 8821.354
351.3757, 8693.421
351.8578, 8577.986
352.3400, 8467.567
352.8221, 8345.720
353.3042, 8204.092
353.7863, 8068.677
354.2684, 7968.214
354.7505, 7893.900
355.2327, 7823.926
355.7148, 7751.268
356.1969, 7674.591
356.6790, 7591.325
357.1611, 7498.801
357.6432, 7407.030
358.1254, 7314.129
358.6075, 7225.942
359.0896, 7153.217
359.5717, 7119.660
360.0538, 7088.519
360.5359, 7035.053
361.0181, 6949.686
361.5002, 6873.546
361.9823, 6828.271
362.4644, 6797.634
362.9465, 6760.151
363.4286, 6685.032
363.9108, 6625.493
364.3929, 6608.960
364.8750, 6645.514
365.3571, 6663.338
365.8392, 6640.226
366.3214, 6598.023
366.8035, 6558.670
367.2856, 6509.187
367.7677, 6477.748
368.2498, 6476.476
368.7319, 6507.246
369.2140, 6522.864
369.6961, 6510.874
370.1783, 6493.469
370.6604, 6487.641
371.1425, 6496.497
371.6246, 6511.383
372.1067, 6533.271
372.5888, 6561.203
373.0710, 6586.739
373.5531, 6610.050
374.0352, 6630.979
374.5173, 6648.722
374.9994, 6662.777
375.4815, 6677.055
375.9637, 6691.238
376.4458, 6706.587
376.9279, 6729.395
377.4100, 6763.226
377.8921, 6789.255
378.3742, 6795.626
378.8564, 6782.722
379.3385, 6763.523
379.8206, 6738.021
380.3027, 6708.028
380.7848, 6672.833
381.2669, 6632.809
381.7491, 6598.146
382.2312, 6576.318
382.7133, 6563.478
383.1954, 6546.208
383.6775, 6522.312
384.1596, 6502.103
384.6418, 6505.553
385.1239, 6524.185
385.6060, 6532.388
386.0881, 6505.333
386.5702, 6467.896
387.0523, 6448.873
387.5345, 6449.497
388.0166, 6462.476
388.4987, 6497.570
388.9808, 6538.649
389.4629, 6561.439
389.9450, 6532.763
390.4272, 6502.823
390.9093, 6510.293
391.3914, 6551.516
391.8735, 6583.771
392.3556, 6580.357
392.8377, 6562.654
393.3199, 6548.546
393.8020, 6542.150
394.2841, 6540.163
394.7662, 6542.884
395.2483, 6549.735
395.7304, 6558.066
396.2126, 6578.591
396.6947, 6592.445
397.1768, 6589.058
397.6589, 6546.537
398.1410, 6518.524
398.6231, 6512.045
399.1053, 6521.020
399.5874, 6532.996
400.0695, 6561.276
400.5516, 6576.350
401.0337, 6563.224
401.5158, 6508.937
401.9980, 6476.050
402.4801, 6472.877
402.9622, 6483.352
403.4443, 6484.090
403.9264, 6471.488
404.4085, 6460.203
404.8907, 6457.760
405.3728, 6463.179
405.8549, 6446.686
406.3370, 6399.583
406.8191, 6358.107
407.3012, 6368.932
407.7834, 6431.460
408.2655, 6482.625
408.7476, 6503.446
409.2297, 6505.885
409.7118, 6520.607
410.1939, 6547.493
410.6761, 6577.006
411.1582, 6596.867
411.6403, 6613.512
412.1224, 6644.393
412.6045, 6695.150
413.0866, 6756.958
413.5687, 6824.340
414.0508, 6896.370
414.5330, 6968.122
415.0151, 7033.542
415.4972, 7099.326
415.9793, 7174.897
416.4614, 7262.603
416.9435, 7351.474
417.4257, 7435.406
417.9078, 7514.539
418.3899, 7590.378
418.8720, 7654.567
419.3541, 7722.093
419.8362, 7800.781
420.3184, 7891.514
420.8005, 7984.729
421.2826, 8090.984
421.7647, 8191.271
422.2468, 8266.360
422.7289, 8283.497
423.2111, 8309.460
423.6932, 8360.642
424.1753, 8435.155
424.6574, 8501.624
425.1395, 8563.602
425.6216, 8614.396
426.1038, 8644.828
426.5859, 8623.655
427.0680, 8650.122
427.5501, 8741.008
428.0322, 8877.268
428.5143, 9013.548
428.9965, 9155.790
429.4786, 9285.317
429.9607, 9388.829
430.4428, 9463.720
430.9249, 9549.543
431.4070, 9643.166
431.8892, 9754.208
432.3713, 9907.829
432.8534, 10102.09
433.3355, 10278.23
433.8176, 10401.59
434.2997, 10496.49
434.7819, 10627.91
435.2640, 10796.44
435.7461, 10976.81
436.2282, 11152.06
436.7103, 11323.65
437.1924, 11491.41
437.6746, 11656.50
438.1567, 11819.01
438.6388, 11984.27
439.1209, 12148.90
439.6030, 12299.00
440.0851, 12420.97
440.5673, 12528.71
441.0494, 12634.04
441.5315, 12744.65
442.0136, 12839.26
442.4957, 12915.27
442.9778, 12968.21
443.4600, 12990.68
443.9421, 12974.93
444.4242, 12932.69
444.9063, 12867.29
445.3884, 12779.48
445.8705, 12667.19
446.3527, 12539.28
446.8348, 12382.71
447.3169, 12185.16
447.7990, 11929.83
448.2811, 11658.40
448.7632, 11365.80
449.2454, 11058.08
449.7275, 10772.74
450.2096, 10522.16
450.6917, 10264.86
451.1738, 9972.144
451.6559, 9636.593
452.1381, 9309.452
452.6202, 8991.534
453.1023, 8691.654
453.5844, 8432.338
454.0665, 8212.190
454.5486, 8004.148
455.0308, 7804.462
455.5129, 7607.131
455.9950, 7392.610
456.4771, 7154.482
456.9592, 6928.922
457.4413, 6746.491
457.9234, 6599.763
458.4055, 6468.106
458.8877, 6353.711
459.3698, 6245.243
459.8519, 6122.441
460.3340, 5990.748
460.8161, 5880.417
461.2982, 5822.075
461.7804, 5785.132
462.2625, 5743.142
462.7446, 5684.508
463.2267, 5632.964
463.7088, 5600.264
464.1909, 5580.502
464.6731, 5561.988
465.1552, 5541.147
465.6373, 5521.710
466.1194, 5499.129
466.6015, 5464.524
467.0836, 5465.473
467.5658, 5526.723
468.0479, 5606.257
468.5300, 5662.767
469.0121, 5685.978
469.4942, 5706.912
469.9763, 5726.674
470.4585, 5747.868
470.9406, 5785.524
471.4227, 5841.054
471.9048, 5908.417
472.3869, 5990.776
472.8690, 6086.118
473.3512, 6164.360
473.8333, 6217.774
474.3154, 6264.366
474.7975, 6334.801
475.2796, 6425.576
475.7617, 6514.563
476.2439, 6583.871
476.7260, 6647.009
477.2081, 6728.423
477.6902, 6828.776
478.1723, 6935.785
478.6544, 7042.576
479.1366, 7148.203
479.6187, 7250.761
480.1008, 7348.575
480.5829, 7444.115
481.0650, 7543.833
481.5471, 7644.091
482.0293, 7732.305
482.5114, 7800.510
482.9935, 7857.068
483.4756, 7906.674
483.9577, 7953.389
484.4398, 7985.438
484.9220, 7998.585
485.4041, 7997.804
485.8862, 7988.589
486.3683, 7970.056
486.8504, 7945.199
487.3326, 7917.427
487.8147, 7886.122
488.2968, 7832.625
488.7789, 7751.559
489.2610, 7661.059
489.7431, 7576.989
490.2253, 7499.241
490.7074, 7418.791
491.1895, 7338.487
491.6716, 7247.110
492.1537, 7117.540
492.6358, 6952.497
493.1180, 6783.912
493.6001, 6625.874
494.0822, 6475.664
494.5643, 6326.187
495.0464, 6178.667
495.5285, 6027.120
496.0107, 5861.735
496.4928, 5691.893
496.9749, 5532.377
497.4570, 5397.154
497.9391, 5263.156
498.4212, 5108.250
498.9034, 4939.881
499.3855, 4789.168
499.8676, 4679.213
500.3497, 4579.425
500.8318, 4472.833
501.3139, 4355.975
501.7961, 4233.475
502.2781, 4088.513
502.7603, 3943.827
503.2424, 3834.548
503.7245, 3784.655
504.2066, 3730.200
504.6887, 3654.423
505.1708, 3559.039
505.6530, 3467.659
506.1351, 3379.010
506.6172, 3297.817
507.0993, 3228.356
507.5814, 3170.901
508.0635, 3115.964
508.5457, 3063.340
509.0278, 3012.045
509.5099, 2960.543
509.9920, 2909.333
510.4741, 2859.542
510.9562, 2814.448
511.4384, 2770.399
511.9205, 2719.376
512.4026, 2660.937
512.8847, 2609.630
513.3668, 2580.065
513.8489, 2561.744
514.3311, 2542.864
514.8132, 2521.207
515.2953, 2496.961
515.7774, 2466.601
516.2595, 2433.168
516.7416, 2405.843
517.2238, 2392.351
517.7059, 2380.067
518.1880, 2363.644
518.6701, 2341.122
519.1522, 2321.070
519.6343, 2303.971
520.1165, 2288.924
520.5986, 2275.294
521.0807, 2263.713
521.5628, 2251.087
522.0449, 2235.586
522.5270, 2219.016
523.0092, 2210.097
523.4913, 2209.762
523.9734, 2208.100
524.4555, 2196.013
524.9376, 2176.919
525.4197, 2165.160
525.9019, 2162.744
526.3840, 2162.480
526.8661, 2154.781
527.3482, 2143.162
527.8303, 2135.913
528.3124, 2143.201
528.7946, 2150.356
529.2767, 2143.487
529.7588, 2125.065
530.2409, 2110.008
530.7230, 2103.895
531.2051, 2104.007
531.6873, 2108.890
532.1694, 2119.558
532.6515, 2132.251
533.1336, 2153.708
533.6157, 2174.578
534.0978, 2180.918
534.5800, 2164.431
535.0621, 2145.645
535.5442, 2125.495
536.0263, 2105.188
536.5084, 2100.218
536.9905, 2114.870
537.4727, 2132.888
537.9548, 2144.058
538.4369, 2148.532
538.9190, 2145.449
539.4011, 2131.717
539.8832, 2118.921
540.3654, 2130.773
540.8475, 2160.061
541.3296, 2178.543
541.8117, 2162.948
542.2938, 2136.298
542.7759, 2123.611
543.2581, 2124.535
543.7402, 2133.414
544.2223, 2153.926
544.7044, 2177.010
545.1865, 2194.823
545.6686, 2203.536
546.1508, 2211.295
546.6329, 2218.931
547.1150, 2227.294
547.5971, 2237.786
548.0792, 2248.092
548.5613, 2263.545
549.0435, 2286.981
549.5256, 2318.176
550.0077, 2346.411
550.4898, 2371.201
550.9719, 2394.052
551.4540, 2415.225
551.9362, 2434.681
552.4183, 2454.641
552.9004, 2474.678
553.3825, 2496.774
553.8646, 2524.262
554.3467, 2556.775
554.8289, 2592.219
555.3110, 2633.058
555.7931, 2674.412
556.2752, 2707.230
556.7573, 2732.480
557.2394, 2757.713
557.7216, 2787.313
558.2037, 2819.430
558.6858, 2851.861
559.1679, 2880.651
559.6500, 2916.136
560.1321, 2963.014
560.6143, 3018.469
561.0964, 3077.274
561.5785, 3155.094
562.0606, 3218.178
562.5427, 3254.448
563.0248, 3265.649
563.5070, 3288.659
563.9891, 3330.135
564.4712, 3371.194
564.9533, 3401.290
565.4354, 3420.298
565.9175, 3430.139
566.3997, 3430.392
566.8818, 3423.180
567.3639, 3406.756
567.8460, 3383.856
568.3281, 3368.120
568.8102, 3371.032
569.2924, 3379.116
569.7744, 3374.614
570.2565, 3358.692
570.7386, 3338.629
571.2208, 3319.423
571.7029, 3297.467
572.1850, 3268.223
572.6671, 3227.345
573.1492, 3191.845
573.6313, 3169.693
574.1135, 3154.830
574.5956, 3140.587
575.0777, 3128.008
575.5598, 3113.392
576.0419, 3093.433
576.5240, 3070.787
577.0062, 3059.391
577.4883, 3064.567
577.9704, 3067.923
578.4525, 3057.168
578.9346, 3032.642
579.4167, 3016.518
579.8989, 3009.455
580.3810, 3008.271
580.8631, 3012.350
581.3452, 3019.863
581.8273, 3024.499
582.3094, 3021.544
582.7916, 3019.495
583.2737, 3029.415
583.7558, 3047.684
584.2379, 3063.771
584.7200, 3073.563
585.2021, 3078.934
585.6843, 3080.460
586.1664, 3077.981
586.6485, 3073.469
587.1306, 3066.953
587.6127, 3058.660
588.0948, 3048.730
588.5770, 3036.143
589.0591, 3023.627
589.5412, 3010.818
590.0233, 2998.418
590.5054, 2988.782
590.9875, 2982.526
591.4697, 2975.059
591.9518, 2965.895
592.4339, 2954.085
592.9160, 2934.873
593.3981, 2908.188
593.8802, 2879.708
594.3624, 2855.090
594.8445, 2831.029
595.3266, 2800.514
595.8087, 2760.408
596.2908, 2721.668
596.7729, 2691.746
597.2551, 2667.937
597.7372, 2645.734
598.2193, 2627.514
598.7014, 2606.995
599.1835, 2580.650
599.6656, 2549.461
600.1478, 2521.821
600.6299, 2499.010
601.1120, 2478.704
601.5941, 2461.306
602.0762, 2448.565
602.5583, 2427.552
603.0405, 2395.646
603.5226, 2361.669
604.0047, 2333.161
604.4868, 2310.406
604.9689, 2295.177
605.4510, 2291.133
605.9332, 2288.781
606.4153, 2272.436
606.8974, 2245.888
607.3795, 2220.852
607.8616, 2206.013
608.3438, 2193.445
608.8259, 2176.075
609.3080, 2153.562
609.7901, 2134.862
610.2722, 2127.091
610.7543, 2121.396
611.2365, 2112.238
611.7186, 2098.991
612.2007, 2081.568
612.6828, 2054.608
613.1649, 2026.954
613.6470, 2014.223
614.1292, 2021.230
614.6113, 2023.720
615.0934, 2015.716
615.5755, 1999.088
616.0576, 1977.544
616.5397, 1951.036
617.0219, 1926.029
617.5040, 1905.793
617.9861, 1890.264
618.4682, 1881.389
618.9503, 1879.820
619.4324, 1876.458
619.9146, 1859.574
620.3967, 1839.768
620.8788, 1829.023
621.3609, 1842.013
621.8430, 1848.203
622.3251, 1834.839
622.8073, 1809.692
623.2894, 1790.242
623.7715, 1781.061
624.2536, 1771.611
624.7357, 1758.683
625.2178, 1742.796
625.7000, 1730.117
626.1821, 1720.379
626.6642, 1714.556
627.1463, 1715.885
627.6284, 1722.547
628.1105, 1724.311
628.5927, 1720.123
629.0748, 1713.087
629.5569, 1705.803
630.0390, 1697.947
630.5211, 1688.993
631.0032, 1677.947
631.4854, 1666.735
631.9675, 1656.434
632.4496, 1646.772
632.9317, 1637.192
633.4138, 1628.920
633.8959, 1619.324
634.3781, 1605.391
634.8602, 1586.724
635.3423, 1576.993
635.8244, 1580.883
636.3065, 1586.232
636.7886, 1584.954
637.2708, 1576.842
637.7529, 1565.213
638.2350, 1548.613
638.7171, 1533.877
639.1992, 1533.930
639.6813, 1543.867
640.1635, 1546.188
640.6456, 1530.683
641.1277, 1511.204
641.6098, 1501.953
642.0919, 1499.873
642.5740, 1496.210
643.0562, 1485.035
643.5383, 1473.127
644.0204, 1462.648
644.5025, 1453.544
644.9846, 1449.233
645.4667, 1455.144
645.9489, 1460.318
646.4310, 1457.174
646.9131, 1442.210
647.3952, 1432.120
647.8773, 1428.851
648.3594, 1427.581
648.8416, 1419.510
649.3237, 1405.932
649.8058, 1399.423
650.2879, 1407.804
650.7700, 1419.304
651.2521, 1415.477
651.7343, 1400.314
652.2164, 1387.255
652.6985, 1384.010
653.1806, 1384.619
653.6627, 1388.447
654.1448, 1395.622
654.6270, 1393.808
655.1091, 1365.902
655.5912, 1339.167
656.0733, 1330.003
656.5554, 1346.909
657.0375, 1360.624
657.5197, 1371.479
658.0018, 1378.644
658.4839, 1381.232
658.9660, 1379.238
659.4481, 1371.069
659.9302, 1352.918
660.4123, 1333.679
660.8944, 1331.545
661.3765, 1342.173
661.8586, 1349.417
662.3408, 1339.106
662.8229, 1326.331
663.3050, 1323.132
663.7871, 1329.499
664.2692, 1337.884
664.7513, 1352.076
665.2335, 1362.802
665.7156, 1362.860
666.1977, 1346.702
666.6798, 1337.186
667.1619, 1337.011
667.6440, 1340.254
668.1262, 1340.356
668.6083, 1336.935
669.0904, 1335.451
669.5725, 1337.483
670.0546, 1340.535
670.5367, 1341.495
671.0189, 1340.107
671.5010, 1335.407
671.9831, 1321.035
672.4652, 1307.649
672.9473, 1306.835
673.4294, 1316.379
673.9116, 1324.168
674.3937, 1321.370
674.8758, 1318.853
675.3579, 1323.724
675.8400, 1339.408
676.3221, 1347.972
676.8043, 1346.016
677.2864, 1340.966
677.7685, 1338.252
678.2506, 1337.923
678.7327, 1340.231
679.2148, 1346.468
679.6970, 1352.059
680.1791, 1348.860
680.6612, 1339.111
681.1433, 1330.784
681.6254, 1325.271
682.1075, 1323.845
682.5897, 1330.764
683.0718, 1343.006
683.5539, 1352.238
684.0360, 1355.143
684.5181, 1354.235
685.0002, 1348.055
685.4824, 1336.136
685.9645, 1331.866
686.4466, 1340.868
686.9287, 1349.949
687.4108, 1351.256
687.8929, 1343.784
688.3751, 1336.873
688.8572, 1330.061
689.3393, 1325.948
689.8214, 1328.034
690.3035, 1335.271
690.7856, 1345.671
691.2678, 1361.294
691.7499, 1373.819
692.2320, 1374.507
692.7141, 1367.371
693.1962, 1359.304
693.6783, 1348.782
694.1605, 1341.895
694.6426, 1342.407
695.1247, 1348.834
695.6068, 1353.374
696.0889, 1355.609
696.5710, 1356.550
697.0532, 1355.620
697.5353, 1353.151
698.0174, 1355.330
698.4995, 1362.702
698.9816, 1370.210
699.4637, 1374.568
699.9459, 1376.122
700.4280, 1374.242
700.9101, 1368.130
701.3922, 1364.620
701.8743, 1374.306
702.3564, 1386.959
702.8386, 1391.141
703.3207, 1374.503
703.8028, 1362.611
704.2849, 1363.526
704.7670, 1370.794
705.2491, 1374.376
705.7313, 1372.244
706.2134, 1371.192
706.6955, 1372.330
707.1776, 1375.698
707.6597, 1382.733
708.1418, 1393.308
708.6240, 1402.270
709.1061, 1405.269
709.5882, 1405.726
710.0703, 1410.928
710.5524, 1419.990
711.0345, 1423.580
711.5167, 1408.428
711.9988, 1391.538
712.4809, 1384.530
712.9630, 1390.528
713.4451, 1400.799
713.9272, 1420.612
714.4094, 1438.860
714.8915, 1446.791
715.3736, 1442.452
715.8557, 1435.506
716.3378, 1425.130
716.8199, 1415.811
717.3021, 1415.479
717.7842, 1422.316
718.2663, 1427.715
718.7484, 1427.084
719.2305, 1426.948
719.7126, 1434.193
720.1948, 1446.985
720.6769, 1460.733
721.1590, 1481.112
721.6411, 1494.729
722.1232, 1492.838
722.6053, 1476.971
723.0875, 1466.578
723.5696, 1462.154
724.0517, 1462.323
724.5338, 1467.462
725.0159, 1477.288
725.4980, 1487.969
725.9802, 1499.797
726.4623, 1507.946
726.9444, 1503.922
727.4265, 1494.476
727.9086, 1493.169
728.3907, 1502.764
728.8729, 1513.938
729.3550, 1520.539
729.8371, 1525.619
730.3192, 1532.263
730.8013, 1550.065
731.2834, 1556.513
731.7656, 1542.874
732.2477, 1521.866
732.7298, 1512.854
733.2119, 1518.296
733.6940, 1524.873
734.1761, 1529.239
734.6583, 1533.674
735.1404, 1545.404
735.6225, 1562.694
736.1046, 1576.154
736.5867, 1580.178
737.0688, 1578.809
737.5510, 1572.305
738.0331, 1562.456
738.5152, 1558.368
738.9973, 1570.103
739.4794, 1582.485
739.9615, 1587.057
740.4437, 1582.841
740.9258, 1585.087
741.4079, 1596.884
741.8900, 1609.008
742.3721, 1615.490
742.8542, 1616.518
743.3364, 1614.112
743.8185, 1607.685
744.3006, 1603.321
744.7827, 1611.171
745.2648, 1623.835
745.7469, 1628.702
746.2291, 1618.964
746.7112, 1612.210
747.1933, 1620.837
747.6754, 1635.675
748.1575, 1645.006
748.6396, 1643.190
749.1217, 1642.021
749.6038, 1642.542
750.0859, 1644.071
750.5681, 1644.507
751.0502, 1643.556
751.5323, 1646.300
752.0144, 1657.086
752.4965, 1669.459
752.9786, 1668.291
753.4608, 1657.400
753.9429, 1651.178
754.4250, 1664.494
754.9071, 1678.918
755.3892, 1682.372
755.8713, 1675.149
756.3535, 1666.202
756.8356, 1653.816
757.3177, 1643.414
757.7998, 1636.359
758.2819, 1632.491
758.7640, 1637.959
759.2462, 1655.404
759.7283, 1670.175
760.2104, 1666.185
760.6925, 1650.567
761.1746, 1643.907
761.6567, 1648.517
762.1389, 1654.365
762.6210, 1652.805
763.1031, 1649.030
763.5852, 1649.077
764.0673, 1658.485
764.5494, 1662.507
765.0316, 1652.038
765.5137, 1638.826
765.9958, 1635.823
766.4779, 1647.219
766.9600, 1653.262
767.4421, 1651.160
767.9243, 1643.552
768.4064, 1631.701
768.8885, 1617.339
769.3706, 1607.815
769.8527, 1605.239
770.3348, 1609.069
770.8170, 1626.717
771.2991, 1650.308
771.7812, 1661.280
772.2633, 1640.068
772.7454, 1620.469
773.2275, 1611.710
773.7097, 1612.276
774.1918, 1617.943
774.6739, 1631.863
775.1560, 1641.010
775.6381, 1638.533
776.1202, 1627.409
776.6024, 1617.528
777.0845, 1608.815
777.5666, 1600.941
778.0487, 1594.589
778.5308, 1588.221
779.0129, 1578.766
779.4951, 1566.069
779.9772, 1558.340
780.4593, 1562.057
780.9414, 1568.560
781.4235, 1573.774
781.9056, 1578.354
782.3878, 1577.217
782.8699, 1567.866
783.3520, 1559.239
783.8341, 1562.488
784.3162, 1574.014
784.7983, 1576.120
785.2805, 1566.285
785.7626, 1553.100
786.2447, 1539.973
786.7268, 1529.802
787.2089, 1526.201
787.6910, 1533.492
788.1732, 1540.458
788.6553, 1546.072
789.1374, 1549.151
789.6195, 1546.986
790.1016, 1535.161
790.5837, 1533.791
791.0659, 1549.374
791.5480, 1568.664
792.0301, 1566.601
792.5122, 1547.753
792.9943, 1533.028
793.4764, 1531.621
793.9586, 1533.012
794.4407, 1526.577
794.9228, 1516.208
795.4049, 1509.800
795.8870, 1514.494
796.3691, 1517.968
796.8513, 1516.283
797.3334, 1511.448
797.8155, 1510.390
798.2976, 1515.088
798.7797, 1514.813
799.2618, 1502.732
799.7440, 1485.250
800.2261, 1480.392
800.7082, 1486.111
801.1903, 1491.056
801.6724, 1487.195
802.1545, 1481.343
802.6367, 1479.947
803.1188, 1482.318
803.6009, 1480.185
804.0830, 1464.539
804.5651, 1451.595
805.0472, 1447.275
805.5294, 1451.445
806.0115, 1456.289
806.4936, 1462.231
806.9757, 1466.430
807.4578, 1466.531
807.9399, 1463.581
808.4221, 1459.254
808.9042, 1453.676
809.3863, 1448.826
809.8684, 1446.716
810.3505, 1445.211
810.8326, 1442.130
811.3148, 1435.999
811.7969, 1434.053
812.2790, 1439.816
812.7611, 1445.666
813.2432, 1446.742
813.7253, 1442.987
814.2075, 1433.991
814.6896, 1418.742
815.1717, 1404.864
815.6538, 1402.671
816.1359, 1406.221
816.6180, 1405.373
817.1002, 1397.121
817.5823, 1389.616
818.0644, 1385.811
818.5465, 1384.972
819.0286, 1386.933
819.5107, 1395.815
819.9929, 1398.427
820.4750, 1392.672
820.9571, 1383.666
821.4392, 1377.042
821.9213, 1372.632
822.4034, 1369.377
822.8856, 1366.914
823.3677, 1366.118
823.8498, 1372.265
824.3319, 1379.362
824.8140, 1377.880
825.2961, 1355.097
825.7783, 1337.962
826.2604, 1335.121
826.7425, 1340.072
827.2246, 1345.434
827.7067, 1351.906
828.1888, 1356.100
828.6710, 1357.529
829.1531, 1356.220
829.6352, 1350.458
830.1173, 1341.740
830.5994, 1334.674
831.0815, 1329.838
831.5637, 1328.782
832.0458, 1337.722
832.5279, 1350.369
833.0100, 1354.850
833.4921, 1338.303
833.9742, 1327.082
834.4564, 1327.357
834.9385, 1333.319
835.4206, 1328.638
835.9027, 1312.595
836.3848, 1305.381
836.8669, 1317.500
837.3491, 1335.860
837.8312, 1341.371
838.3133, 1337.369
838.7953, 1332.674
839.2775, 1329.519
839.7596, 1328.112
840.2417, 1328.928
840.7238, 1331.664
841.2059, 1335.264
841.6880, 1340.463
842.1702, 1344.693
842.6523, 1347.061
843.1344, 1348.106
843.6165, 1349.981
844.0986, 1352.232
844.5807, 1352.143
845.0629, 1341.295
845.5450, 1333.347
846.0271, 1342.978
846.5092, 1365.830
846.9913, 1385.787
847.4734, 1400.898
847.9556, 1409.083
848.4377, 1407.392
848.9198, 1398.516
849.4019, 1394.327
849.8840, 1395.119
850.3661, 1397.507
850.8483, 1399.077
851.3304, 1401.870
851.8125, 1412.966
852.2946, 1429.428
852.7767, 1439.523
853.2589, 1434.367
853.7410, 1424.405
854.2231, 1409.365
854.7052, 1391.680
855.1873, 1390.644
855.6694, 1413.864
856.1516, 1435.371
856.6337, 1444.627
857.1158, 1444.895
857.5979, 1448.098
858.0800, 1453.863
858.5621, 1458.840
859.0443, 1459.870
859.5264, 1460.230
860.0085, 1463.094
860.4906, 1468.025
860.9727, 1471.786
861.4548, 1470.717
861.9370, 1471.573
862.4191, 1476.254
862.9012, 1484.493
863.3833, 1496.732
863.8654, 1513.578
864.3475, 1525.765
864.8297, 1525.802
865.3118, 1519.416
865.7939, 1512.973
866.2760, 1507.383
866.7581, 1506.590
867.2402, 1513.499
867.7224, 1524.525
868.2045, 1542.472
868.6866, 1565.079
869.1687, 1574.005
869.6508, 1565.643
870.1329, 1555.257
870.6151, 1549.996
871.0972, 1547.539
871.5793, 1539.901
872.0614, 1528.258
872.5435, 1519.809
873.0256, 1521.555
873.5078, 1525.470
873.9899, 1526.509
874.4720, 1524.826
874.9541, 1522.989
875.4362, 1520.717
875.9183, 1519.356
876.4005, 1520.424
876.8826, 1522.594
877.3647, 1518.818
877.8468, 1509.353
878.3289, 1499.813
878.8110, 1492.675
879.2932, 1487.288
879.7753, 1483.344
880.2574, 1480.647
880.7395, 1478.440
881.2216, 1476.263
881.7037, 1474.778
882.1859, 1473.885
882.6680, 1473.771
883.1501, 1476.819
883.6322, 1483.821
884.1143, 1485.658
884.5964, 1473.163
885.0786, 1457.428
885.5607, 1459.314
886.0428, 1474.332
886.5249, 1487.486
887.0070, 1494.755
887.4891, 1495.918
887.9713, 1485.763
888.4534, 1469.006
888.9355, 1462.510
889.4176, 1469.794
889.8997, 1475.724
890.3818, 1475.183
890.8640, 1470.982
891.3461, 1468.000
891.8282, 1466.598
892.3103, 1467.994
892.7924, 1478.242
893.2745, 1485.994
893.7567, 1480.805
894.2388, 1468.356
894.7209, 1465.094
895.2030, 1477.501
895.6851, 1487.837
896.1672, 1492.146
896.6494, 1493.187
897.1315, 1497.870
897.6136, 1505.281
898.0957, 1510.092
898.5778, 1507.862
899.0599, 1506.000
899.5421, 1512.090
900.0242, 1522.790
900.5063, 1531.703
900.9884, 1539.932
901.4705, 1541.818
901.9526, 1531.414
902.4348, 1519.215
902.9169, 1527.887
903.3990, 1556.144
903.8811, 1576.591
904.3632, 1581.021
904.8453, 1578.746
905.3275, 1575.291
905.8096, 1573.151
906.2917, 1576.276
906.7738, 1592.556
907.2559, 1604.430
907.7380, 1606.675
908.2202, 1605.368
908.7023, 1607.534
909.1844, 1613.396
909.6665, 1619.069
910.1486, 1623.751
910.6307, 1629.222
911.1129, 1639.165
911.5950, 1650.710
912.0771, 1659.629
912.5592, 1664.769
913.0413, 1667.705
913.5234, 1664.503
914.0056, 1662.429
914.4877, 1669.086
914.9698, 1688.301
915.4519, 1695.814
915.9340, 1688.347
916.4161, 1680.895
916.8983, 1692.634
917.3804, 1713.533
917.8625, 1724.670
918.3446, 1722.482
918.8267, 1722.429
919.3088, 1735.993
919.7910, 1750.703
920.2731, 1757.274
920.7552, 1753.573
921.2373, 1755.307
921.7194, 1762.275
922.2015, 1775.427
922.6837, 1801.842
923.1658, 1833.180
923.6479, 1848.896
924.1300, 1849.119
924.6121, 1851.486
925.0942, 1869.968
925.5764, 1889.645
926.0585, 1900.087
926.5406, 1901.627
927.0227, 1908.683
927.5048, 1923.534
927.9869, 1935.576
928.4690, 1935.679
928.9511, 1930.611
929.4332, 1939.860
929.9153, 1960.943
930.3975, 1981.548
930.8796, 1994.253
931.3617, 2005.591
931.8438, 2016.014
932.3259, 2027.393
932.8080, 2048.923
933.2902, 2086.034
933.7723, 2116.968
934.2544, 2133.118
934.7365, 2141.198
935.2186, 2156.262
935.7007, 2175.293
936.1829, 2188.328
936.6650, 2176.798
937.1471, 2174.803
937.6292, 2208.740
938.1113, 2261.926
938.5934, 2302.977
939.0756, 2328.734
939.5577, 2345.795
940.0398, 2350.604
940.5219, 2356.050
941.0040, 2385.505
941.4861, 2432.184
941.9683, 2477.247
942.4504, 2517.676
942.9325, 2550.967
943.4146, 2564.347
943.8967, 2575.828
944.3788, 2606.275
944.8610, 2666.071
945.3431, 2720.746
945.8252, 2768.881
946.3073, 2814.093
946.7894, 2860.420
947.2715, 2906.840
947.7537, 2947.845
948.2358, 2982.147
948.7179, 3025.865
949.2000, 3099.960
949.6821, 3178.356
950.1642, 3236.936
950.6464, 3270.277
951.1285, 3330.992
951.6106, 3427.232
952.0927, 3525.676
952.5748, 3599.622
953.0569, 3660.671
953.5391, 3743.793
954.0212, 3847.156
954.5033, 3956.975
954.9854, 4065.806
955.4675, 4177.279
955.9496, 4292.935
956.4318, 4413.363
956.9139, 4535.620
957.3960, 4657.843
957.8781, 4792.051
958.3602, 4942.158
958.8423, 5108.329
959.3245, 5294.461
959.8066, 5497.246
960.2887, 5708.097
960.7708, 5908.094
961.2529, 6135.867
961.7350, 6418.273
962.2172, 6732.494
962.6993, 7031.751
963.1814, 7295.835
963.6635, 7622.471
964.1456, 8033.651
964.6277, 8494.965
965.1099, 8969.761
965.5920, 9470.335
966.0741, 10031.19
966.5562, 10657.40
967.0383, 11334.22
967.5204, 12084.19
968.0026, 12861.51
968.4847, 13632.98
968.9668, 14371.51
969.4489, 15230.41
969.9310, 16222.18
970.4131, 17294.67
970.8953, 18437.01
971.3774, 19624.28
971.8595, 20854.74
972.3416, 22123.57
972.8237, 23453.87
973.3058, 24875.33
973.7880, 26360.72
974.2701, 27892.32
974.7522, 29483.02
975.2343, 31146.39
975.7164, 32863.70
976.1985, 34610.18
976.6807, 36394.41
977.1628, 38157.63
977.6449, 39849.85
978.1270, 41473.98
978.6091, 43000.21
979.0912, 44488.26
979.5734, 45754.07
980.0555, 46780.55
980.5376, 47560.95
981.0197, 48095.90
981.5018, 48380.63
981.9839, 48411.02
982.4661, 48190.36
982.9482, 47694.84
983.4303, 46843.48
983.9124, 45730.29
984.3945, 44465.29
984.8766, 43061.04
985.3588, 41489.57
985.8409, 39700.60
986.3230, 37830.66
986.8051, 35998.97
987.2872, 34199.25
987.7693, 32419.03
988.2515, 30658.82
988.7336, 28985.72
989.2157, 27422.13
989.6978, 25976.03
990.1799, 24664.20
990.6620, 23481.04
991.1442, 22470.31
991.6263, 21651.65
992.1084, 20926.37
992.5905, 20249.01
993.0726, 19636.67
993.5547, 19156.70
994.0369, 18788.94
994.5190, 18459.15
995.0011, 18112.70
995.4832, 17821.99
995.9653, 17640.41
996.4474, 17522.63
996.9296, 17391.32
997.4117, 17238.41
997.8938, 17115.39
998.3759, 17032.91
998.8580, 16975.03
999.3401, 16922.40
999.8223, 16881.53
1000.304, 16864.70
1000.786, 16882.95
1001.269, 16898.56
1001.751, 16915.75
1002.233, 16913.35
1002.715, 16880.34
1003.197, 16817.15
1003.679, 16707.75
1004.161, 16552.77
1004.643, 16372.64
1005.126, 16184.88
1005.608, 15982.64
1006.090, 15753.57
1006.572, 15501.62
1007.054, 15246.80
1007.536, 14990.58
1008.018, 14736.42
1008.500, 14476.00
1008.982, 14223.54
1009.465, 14002.18
1009.947, 13810.97
1010.429, 13656.47
1010.911, 13561.09
1011.393, 13470.99
1011.875, 13343.33
1012.357, 13207.87
1012.839, 13111.85
1013.322, 13071.90
1013.804, 13016.51
1014.286, 12938.99
1014.768, 12855.92
1015.250, 12773.32
1015.732, 12701.66
1016.214, 12663.03
1016.696, 12660.12
1017.178, 12674.02
1017.661, 12685.74
1018.143, 12726.16
1018.625, 12813.68
1019.107, 12944.63
1019.589, 13083.24
1020.071, 13230.19
1020.553, 13362.92
1021.035, 13472.35
1021.517, 13560.77
1022.000, 13650.15
1022.482, 13720.03
1022.964, 13715.69
1023.446, 13615.06
1023.928, 13452.49
1024.410, 13236.66
1024.892, 12954.27
1025.374, 12570.59
1025.857, 12101.26
1026.339, 11602.66
1026.821, 11080.50
1027.303, 10545.96
1027.785, 9974.479
1028.267, 9416.940
1028.749, 8922.286
1029.231, 8496.259
1029.714, 8073.970
1030.196, 7648.160
1030.678, 7253.287
1031.160, 6912.913
1031.642, 6619.965
1032.124, 6361.687
1032.606, 6131.548
1033.088, 5907.360
1033.570, 5661.326
1034.052, 5442.615
1034.535, 5264.519
1035.017, 5116.654
1035.499, 4979.059
1035.981, 4849.792
1036.463, 4717.697
1036.945, 4575.135
1037.427, 4439.992
1037.909, 4333.007
1038.392, 4237.980
1038.874, 4131.089
1039.356, 3997.085
1039.838, 3891.147
1040.320, 3822.940
1040.802, 3759.297
1041.284, 3670.725
1041.766, 3568.656
1042.249, 3482.533
1042.731, 3411.588
1043.213, 3342.312
1043.695, 3263.317
1044.177, 3189.405
1044.659, 3132.057
1045.141, 3082.648
1045.623, 3011.520
1046.105, 2918.896
1046.588, 2838.701
1047.070, 2785.851
1047.552, 2739.249
1048.034, 2675.069
1048.516, 2603.507
1048.998, 2537.280
1049.480, 2480.720
1049.962, 2428.314
1050.444, 2381.200
1050.927, 2334.919
1051.409, 2284.043
1051.891, 2230.979
1052.373, 2183.497
1052.855, 2141.378
1053.337, 2105.027
1053.819, 2075.678
1054.301, 2050.502
1054.784, 2029.210
1055.266, 2010.830
1055.748, 1995.739
1056.230, 1985.467
1056.712, 1958.229
1057.194, 1899.607
1057.676, 1839.035
1058.158, 1812.466
1058.641, 1805.669
1059.123, 1797.998
1059.605, 1783.473
1060.087, 1770.467
1060.569, 1760.022
1061.051, 1749.937
1061.533, 1738.390
1062.015, 1725.638
1062.497, 1712.432
1062.979, 1698.905
1063.462, 1686.068
1063.944, 1674.476
1064.426, 1663.981
1064.908, 1654.372
1065.390, 1645.764
1065.872, 1639.099
1066.354, 1634.706
1066.836, 1628.374
1067.318, 1618.516
1067.801, 1607.208
1068.283, 1595.138
1068.765, 1584.212
1069.247, 1577.385
1069.729, 1577.482
1070.211, 1577.608
1070.693, 1578.257
1071.175, 1577.363
1071.658, 1573.536
1072.140, 1566.821
1072.622, 1555.209
1073.104, 1539.605
1073.586, 1528.184
1074.068, 1525.162
1074.550, 1527.507
1075.032, 1538.469
1075.515, 1552.465
1075.997, 1555.212
1076.479, 1546.185
1076.961, 1536.474
1077.443, 1527.590
1077.925, 1522.199
1078.407, 1524.487
1078.889, 1531.210
1079.371, 1539.490
1079.854, 1552.399
1080.336, 1554.173
1080.818, 1540.023
1081.300, 1526.238
1081.782, 1525.383
1082.264, 1532.664
1082.746, 1534.119
1083.228, 1531.584
1083.710, 1533.759
1084.193, 1549.018
1084.675, 1564.560
1085.157, 1578.708
1085.639, 1589.284
1086.121, 1590.091
1086.603, 1581.604
1087.085, 1574.957
1087.567, 1571.946
1088.050, 1571.721
1088.532, 1575.173
1089.014, 1579.998
1089.496, 1584.102
1089.978, 1587.224
1090.460, 1590.846
1090.942, 1595.467
1091.424, 1598.517
1091.906, 1596.590
1092.389, 1593.799
1092.871, 1597.245
1093.353, 1605.766
1093.835, 1615.985
1094.317, 1629.322
1094.799, 1640.598
1095.281, 1647.440
1095.763, 1654.259
1096.245, 1668.004
1096.728, 1686.875
1097.210, 1703.248
1097.692, 1716.172
1098.174, 1726.359
1098.656, 1730.126
1099.138, 1734.933
1099.620, 1746.633
1100.102, 1763.911
1100.585, 1776.399
1101.067, 1783.741
1101.549, 1794.448
1102.031, 1811.677
1102.513, 1833.722
1102.995, 1860.788
1103.477, 1890.439
1103.959, 1918.835
1104.442, 1941.922
1104.924, 1971.390
1105.406, 2010.060
1105.888, 2045.999
1106.370, 2063.476
1106.852, 2072.188
1107.334, 2094.303
1107.816, 2128.637
1108.298, 2159.130
1108.781, 2171.302
1109.263, 2189.365
1109.745, 2225.846
1110.227, 2267.430
1110.709, 2277.879
1111.191, 2264.006
1111.673, 2269.262
1112.155, 2308.127
1112.637, 2348.762
1113.120, 2365.639
1113.602, 2378.142
1114.084, 2405.328
1114.566, 2448.836
1115.048, 2474.192
1115.530, 2480.286
1116.012, 2483.219
1116.494, 2491.046
1116.977, 2501.390
1117.459, 2512.493
1117.941, 2523.998
1118.423, 2536.278
1118.905, 2561.147
1119.387, 2560.238
1119.869, 2525.763
1120.351, 2478.270
1120.833, 2440.777
1121.316, 2407.121
1121.798, 2364.252
1122.280, 2311.057
1122.762, 2259.351
1123.244, 2213.855
1123.726, 2170.428
1124.208, 2129.878
1124.690, 2088.734
1125.172, 2033.219
1125.655, 1967.133
1126.137, 1907.233
1126.619, 1858.544
1127.101, 1817.851
1127.583, 1786.221
1128.065, 1759.516
1128.547, 1734.846
1129.029, 1712.794
1129.512, 1682.974
1129.994, 1644.955
1130.476, 1611.098
1130.958, 1590.515
1131.440, 1576.280
1131.922, 1563.364
1132.404, 1552.338
1132.886, 1546.509
1133.369, 1550.395
1133.851, 1543.355
1134.333, 1520.349
1134.815, 1493.488
1135.297, 1475.779
1135.779, 1463.771
1136.261, 1453.958
1136.743, 1446.247
1137.225, 1436.383
1137.708, 1425.473
1138.190, 1408.803
1138.672, 1380.883
1139.154, 1349.433
1139.636, 1332.175
1140.118, 1326.219
1140.600, 1324.041
1141.082, 1329.033
1141.564, 1326.364
1142.047, 1308.907
1142.529, 1285.985
1143.011, 1261.717
1143.493, 1237.027
1143.975, 1226.157
1144.457, 1228.188
1144.939, 1231.445
1145.421, 1229.119
1145.904, 1225.813
1146.386, 1225.672
1146.868, 1225.455
1147.350, 1217.947
1147.832, 1202.675
1148.314, 1187.758
1148.796, 1173.885
1149.278, 1165.337
1149.760, 1171.545
1150.243, 1181.053
1150.725, 1183.396
1151.207, 1177.794
1151.689, 1172.214
1152.171, 1166.790
1152.653, 1160.383
1153.135, 1150.934
1153.617, 1143.182
1154.099, 1146.146
1154.582, 1154.129
1155.064, 1158.259
1155.546, 1154.207
1156.028, 1150.705
1156.510, 1148.425
1156.992, 1145.106
1157.474, 1136.693
1157.956, 1127.063
1158.438, 1124.894
1158.921, 1128.943
1159.403, 1133.516
1159.885, 1139.799
1160.367, 1141.164
1160.849, 1134.285
1161.331, 1125.816
1161.813, 1126.685
1162.295, 1133.555
1162.778, 1136.092
1163.260, 1132.944
1163.742, 1128.235
1164.224, 1119.623
1164.706, 1115.205
1165.188, 1120.334
1165.670, 1130.906
1166.152, 1132.408
1166.635, 1126.198
1167.117, 1120.311
1167.599, 1116.781
1168.081, 1115.089
1168.563, 1116.131
1169.045, 1117.970
1169.527, 1119.752
1170.009, 1121.565
1170.491, 1116.198
1170.974, 1103.952
1171.456, 1094.464
1171.938, 1096.257
1172.420, 1099.763
1172.902, 1098.230
1173.384, 1093.948
1173.866, 1090.642
1174.348, 1087.607
1174.830, 1092.139
1175.313, 1105.876
1175.795, 1115.636
1176.277, 1103.678
1176.759, 1086.955
1177.241, 1079.941
1177.723, 1083.446
1178.205, 1094.059
1178.687, 1114.407
1179.170, 1130.805
1179.652, 1141.094
1180.134, 1143.098
1180.616, 1127.777
1181.098, 1105.796
1181.580, 1090.499
1182.062, 1084.528
1182.544, 1084.227
1183.026, 1091.057
1183.509, 1098.584
1183.991, 1106.601
1184.473, 1110.582
1184.955, 1094.814
1185.437, 1070.593
1185.919, 1060.375
1186.401, 1082.917
1186.883, 1096.270
1187.365, 1094.791
1187.848, 1091.257
1188.330, 1099.716
1188.812, 1112.309
1189.294, 1105.267
1189.776, 1083.628
1190.258, 1069.317
1190.740, 1080.927
1191.222, 1085.563
1191.705, 1074.415
1192.187, 1060.219
1192.669, 1061.933
1193.151, 1073.819
1193.633, 1079.232
1194.115, 1076.751
1194.597, 1074.659
1195.079, 1077.527
1195.562, 1080.248
1196.044, 1081.366
1196.526, 1081.104
1197.008, 1080.229
1197.490, 1078.463
1197.972, 1074.108
1198.454, 1065.749
1198.936, 1059.572
1199.418, 1060.749
1199.901, 1062.753
1200.383, 1061.802
1200.865, 1058.772
1201.347, 1059.456
1201.829, 1062.692
1202.311, 1062.225
1202.793, 1051.823
1203.275, 1043.286
1203.757, 1045.417
1204.240, 1049.100
1204.722, 1045.253
1205.204, 1034.174
1205.686, 1032.522
1206.168, 1039.534
1206.650, 1046.100
1207.132, 1045.666
1207.614, 1044.806
1208.097, 1048.740
1208.579, 1053.152
1209.061, 1050.248
1209.543, 1040.396
1210.025, 1038.903
1210.507, 1047.316
1210.989, 1054.620
1211.471, 1051.014
1211.953, 1045.719
1212.436, 1045.347
1212.918, 1047.618
1213.400, 1045.430
1213.882, 1038.912
1214.364, 1035.717
1214.846, 1037.772
1215.328, 1041.516
1215.810, 1044.883
1216.292, 1048.193
1216.775, 1052.532
1217.257, 1057.378
1217.739, 1057.776
1218.221, 1053.781
1218.703, 1048.772
1219.185, 1044.362
1219.667, 1038.437
1220.149, 1021.718
1220.632, 1008.237
1221.114, 1015.608
1221.596, 1046.758
1222.078, 1056.689
1222.560, 1045.623
1223.042, 1033.064
1223.524, 1026.911
1224.006, 1026.988
1224.489, 1039.091
1224.971, 1054.607
1225.453, 1060.510
1225.935, 1055.857
1226.417, 1046.221
1226.899, 1031.539
1227.381, 1019.881
1227.863, 1018.265
1228.345, 1020.909
1228.828, 1024.574
1229.310, 1029.048
1229.792, 1035.578
1230.274, 1045.081
1230.756, 1044.113
1231.238, 1029.961
1231.720, 1016.893
1232.202, 1018.678
1232.684, 1025.273
1233.167, 1029.860
1233.649, 1032.503
1234.131, 1033.722
1234.613, 1033.259
1235.095, 1039.386
1235.577, 1056.545
1236.059, 1069.495
1236.541, 1060.917
1237.024, 1045.148
1237.506, 1033.131
1237.988, 1025.220
1238.470, 1024.564
1238.952, 1031.165
1239.434, 1035.939
1239.916, 1033.858
1240.398, 1032.631
1240.880, 1040.455
1241.363, 1050.889
1241.845, 1057.935
1242.327, 1061.599
1242.809, 1059.534
1243.291, 1051.833
1243.773, 1045.253
1244.255, 1042.678
1244.737, 1043.054
1245.219, 1049.072
1245.702, 1055.604
1246.184, 1055.263
1246.666, 1046.999
1247.148, 1045.083
1247.630, 1049.516
1248.112, 1053.062
1248.594, 1047.704
1249.076, 1043.487
1249.558, 1049.434
1250.041, 1058.831
1250.523, 1061.290
1251.005, 1056.824
1251.487, 1048.946
1251.969, 1037.875
1252.451, 1029.281
1252.933, 1028.223
1253.415, 1029.580
1253.898, 1030.403
1254.380, 1031.723
1254.862, 1037.220
1255.344, 1046.176
1255.826, 1050.613
1256.308, 1049.188
1256.790, 1045.642
1257.272, 1040.542
1257.755, 1035.829
1258.237, 1031.350
1258.719, 1028.528
1259.201, 1034.110
1259.683, 1045.920
1260.165, 1052.043
1260.647, 1049.135
1261.129, 1043.205
1261.611, 1030.806
1262.094, 1024.233
1262.576, 1033.828
1263.058, 1051.879
1263.540, 1045.312
1264.022, 1021.841
1264.504, 1011.965
1264.986, 1032.624
1265.468, 1047.534
1265.950, 1039.172
1266.433, 1027.106
1266.915, 1020.409
1267.397, 1018.748
1267.879, 1023.774
1268.361, 1032.942
1268.843, 1037.801
1269.325, 1030.566
1269.807, 1027.177
1270.290, 1032.353
1270.772, 1037.637
1271.254, 1036.101
1271.736, 1029.914
1272.218, 1023.931
1272.700, 1018.819
1273.182, 1016.650
1273.664, 1021.057
1274.146, 1023.923
1274.629, 1023.883
1275.111, 1024.013
1275.593, 1028.781
1276.075, 1034.950
1276.557, 1035.285
1277.039, 1031.284
1277.521, 1030.650
1278.003, 1040.842
1278.485, 1040.525
1278.968, 1024.471
1279.450, 1007.570
1279.932, 1007.587
1280.414, 1014.828
1280.896, 1017.322
1281.378, 1015.016
1281.860, 1013.675
1282.342, 1014.242
1282.825, 1013.998
1283.307, 1012.535
1283.789, 1010.014
1284.271, 1005.450
##END=



