##NAMES=Stromeyerite
##RRUFFID=R060909
##IDEAL CHEMISTRY=Cu^1+^Ag^1+^S^2-^
##LOCALITY=Gowganda, Ontario, Canada
##OWNER=RRUFF
##SOURCE=Royal Ontario Museum
##DESCRIPTION=Grey, metallic, pseudohexagonal flakes, conchoidal fracture
##STATUS=The identification of this mineral has been confirmed by X-ray diffraction and chemical analysis
##URL=rruff.info/R060909
##MEASURED CHEMISTRY=Ag_1.00_Cu_1.00_S_1.00_
166.8464, 5324.482
167.3285, 5398.764
167.8106, 5459.005
168.2927, 5496.861
168.7749, 5523.234
169.2570, 5547.041
169.7391, 5568.396
170.2212, 5587.966
170.7033, 5607.525
171.1854, 5625.643
171.6676, 5638.282
172.1497, 5634.205
172.6318, 5630.262
173.1139, 5648.786
173.5960, 5692.809
174.0781, 5736.763
174.5603, 5764.864
175.0424, 5779.876
175.5245, 5786.388
176.0066, 5776.174
176.4887, 5762.203
176.9708, 5764.065
177.4530, 5785.154
177.9351, 5802.760
178.4172, 5793.203
178.8993, 5769.722
179.3814, 5757.743
179.8635, 5768.601
180.3457, 5791.838
180.8278, 5814.283
181.3099, 5835.462
181.7920, 5857.325
182.2741, 5883.025
182.7562, 5909.997
183.2384, 5933.686
183.7205, 5951.132
184.2026, 5965.320
184.6847, 5979.430
185.1668, 5992.375
185.6489, 6009.066
186.1311, 6040.622
186.6132, 6077.120
187.0953, 6102.215
187.5774, 6103.072
188.0595, 6094.251
188.5416, 6097.821
189.0238, 6115.599
189.5059, 6138.967
189.9880, 6175.491
190.4701, 6212.668
190.9522, 6228.346
191.4343, 6195.940
191.9165, 6151.978
192.3986, 6157.524
192.8807, 6224.021
193.3628, 6296.340
193.8449, 6349.070
194.3270, 6387.640
194.8092, 6415.426
195.2913, 6428.463
195.7734, 6435.638
196.2555, 6450.525
196.7376, 6474.629
197.2197, 6500.469
197.7019, 6524.390
198.1840, 6547.782
198.6661, 6572.011
199.1482, 6597.466
199.6303, 6624.158
200.1124, 6653.798
200.5946, 6688.221
201.0767, 6717.364
201.5588, 6733.766
202.0409, 6742.359
202.5230, 6746.788
203.0051, 6744.766
203.4873, 6743.060
203.9694, 6748.695
204.4515, 6760.939
204.9336, 6784.810
205.4157, 6844.109
205.8978, 6908.773
206.3800, 6941.598
206.8621, 6924.861
207.3442, 6889.441
207.8263, 6867.931
208.3084, 6860.113
208.7905, 6867.470
209.2727, 6907.929
209.7548, 6956.797
210.2369, 6984.633
210.7190, 6979.022
211.2011, 6966.862
211.6832, 6977.446
212.1654, 7012.039
212.6475, 7049.496
213.1296, 7084.864
213.6117, 7117.403
214.0938, 7146.783
214.5760, 7173.585
215.0581, 7195.476
215.5402, 7209.307
216.0223, 7215.098
216.5044, 7218.820
216.9865, 7220.464
217.4687, 7222.479
217.9508, 7224.963
218.4329, 7225.853
218.9150, 7236.601
219.3971, 7273.808
219.8792, 7335.052
220.3614, 7385.625
220.8435, 7408.480
221.3256, 7422.590
221.8077, 7452.718
222.2898, 7502.542
222.7719, 7546.935
223.2541, 7560.428
223.7362, 7549.799
224.2183, 7554.481
224.7004, 7590.713
225.1825, 7637.879
225.6646, 7674.071
226.1468, 7699.469
226.6289, 7715.857
227.1110, 7717.971
227.5931, 7710.785
228.0752, 7710.561
228.5573, 7720.124
229.0395, 7738.457
229.5216, 7768.465
230.0037, 7809.282
230.4858, 7843.554
230.9679, 7858.601
231.4500, 7861.990
231.9322, 7869.909
232.4143, 7884.549
232.8964, 7904.781
233.3785, 7933.890
233.8606, 7970.081
234.3427, 8000.325
234.8249, 8012.779
235.3070, 8019.345
235.7891, 8042.939
236.2712, 8090.276
236.7533, 8134.548
237.2354, 8146.595
237.7176, 8132.392
238.1997, 8120.045
238.6818, 8112.273
239.1639, 8110.379
239.6460, 8115.672
240.1281, 8128.285
240.6103, 8148.602
241.0924, 8183.354
241.5745, 8228.063
242.0566, 8256.248
242.5387, 8254.247
243.0208, 8243.580
243.5030, 8242.175
243.9851, 8249.595
244.4672, 8253.912
244.9493, 8244.734
245.4314, 8226.136
245.9135, 8219.683
246.3957, 8235.396
246.8778, 8253.740
247.3599, 8263.393
247.8420, 8266.160
248.3241, 8269.177
248.8062, 8276.289
249.2884, 8286.302
249.7705, 8294.624
250.2526, 8296.987
250.7347, 8302.739
251.2168, 8304.842
251.6989, 8312.796
252.1811, 8356.076
252.6632, 8455.394
253.1453, 8576.645
253.6274, 8629.746
254.1095, 8586.684
254.5916, 8532.356
255.0738, 8466.397
255.5559, 8402.632
256.0380, 8362.085
256.5201, 8352.064
257.0022, 8359.695
257.4843, 8363.503
257.9665, 8360.587
258.4486, 8359.302
258.9307, 8361.828
259.4128, 8365.117
259.8949, 8365.895
260.3770, 8363.695
260.8592, 8361.145
261.3413, 8361.598
261.8234, 8366.435
262.3055, 8370.527
262.7876, 8379.928
263.2697, 8384.174
263.7519, 8371.934
264.2340, 8345.812
264.7161, 8320.052
265.1982, 8307.979
265.6803, 8310.564
266.1624, 8319.493
266.6446, 8338.342
267.1267, 8359.110
267.6088, 8384.324
268.0909, 8409.369
268.5730, 8424.140
269.0551, 8420.385
269.5373, 8399.710
270.0194, 8382.227
270.5015, 8364.489
270.9836, 8354.312
271.4657, 8359.507
271.9478, 8371.864
272.4300, 8378.106
272.9121, 8370.460
273.3942, 8355.896
273.8763, 8358.098
274.3584, 8396.746
274.8405, 8420.171
275.3227, 8402.877
275.8048, 8377.184
276.2869, 8378.969
276.7690, 8420.750
277.2511, 8474.394
277.7332, 8486.638
278.2154, 8434.177
278.6975, 8411.504
279.1796, 8460.731
279.6617, 8522.874
280.1438, 8562.826
280.6259, 8574.729
281.1081, 8572.630
281.5902, 8566.848
282.0723, 8556.727
282.5544, 8553.688
283.0365, 8560.168
283.5186, 8573.396
284.0008, 8595.191
284.4829, 8623.310
284.9650, 8648.903
285.4471, 8669.352
285.9292, 8683.166
286.4113, 8682.290
286.8935, 8661.122
287.3756, 8635.165
287.8577, 8610.827
288.3398, 8589.081
288.8219, 8572.250
289.3040, 8559.308
289.7862, 8552.921
290.2683, 8557.715
290.7504, 8574.407
291.2325, 8599.444
291.7146, 8644.909
292.1967, 8693.426
292.6789, 8712.153
293.1610, 8678.424
293.6431, 8638.534
294.1252, 8631.415
294.6073, 8652.622
295.0894, 8672.191
295.5716, 8674.634
296.0537, 8672.384
296.5358, 8692.014
297.0179, 8743.011
297.5000, 8787.264
297.9821, 8802.576
298.4643, 8801.469
298.9464, 8808.579
299.4285, 8831.659
299.9106, 8858.554
300.3927, 8871.015
300.8748, 8864.154
301.3570, 8863.474
301.8391, 8867.700
302.3212, 8881.419
302.8033, 8917.524
303.2854, 8974.472
303.7675, 9024.721
304.2497, 9041.023
304.7318, 9018.783
305.2139, 9006.965
305.6960, 9007.521
306.1781, 9014.938
306.6602, 9026.004
307.1424, 9041.771
307.6245, 9068.621
308.1066, 9113.219
308.5887, 9169.288
309.0708, 9196.692
309.5529, 9162.089
310.0351, 9135.521
310.5172, 9126.926
310.9993, 9130.532
311.4814, 9141.880
311.9635, 9158.980
312.4456, 9176.297
312.9278, 9182.007
313.4099, 9168.959
313.8920, 9159.151
314.3741, 9155.432
314.8562, 9154.089
315.3383, 9152.757
315.8205, 9151.143
316.3026, 9150.404
316.7847, 9153.211
317.2668, 9160.484
317.7489, 9161.476
318.2310, 9139.422
318.7132, 9129.342
319.1953, 9160.593
319.6774, 9217.857
320.1595, 9259.035
320.6416, 9246.944
321.1237, 9202.594
321.6059, 9190.040
322.0880, 9217.453
322.5701, 9255.615
323.0522, 9295.868
323.5343, 9336.230
324.0164, 9375.234
324.4986, 9416.078
324.9807, 9449.393
325.4628, 9458.309
325.9449, 9444.380
326.4270, 9440.665
326.9091, 9463.471
327.3913, 9498.657
327.8734, 9522.251
328.3555, 9530.666
328.8376, 9542.939
329.3197, 9575.012
329.8018, 9615.232
330.2840, 9640.941
330.7661, 9646.028
331.2482, 9643.352
331.7303, 9647.654
332.2124, 9660.410
332.6945, 9667.501
333.1767, 9664.742
333.6588, 9658.614
334.1409, 9648.767
334.6230, 9638.205
335.1051, 9640.914
335.5872, 9671.519
336.0694, 9725.994
336.5515, 9746.896
337.0336, 9698.870
337.5157, 9663.046
337.9979, 9667.463
338.4800, 9694.696
338.9621, 9717.526
339.4442, 9724.123
339.9263, 9722.601
340.4084, 9731.435
340.8906, 9760.928
341.3727, 9782.523
341.8548, 9789.989
342.3369, 9793.943
342.8190, 9801.919
343.3011, 9814.723
343.7833, 9827.774
344.2654, 9831.424
344.7475, 9823.025
345.2296, 9841.381
345.7117, 9915.498
346.1938, 9984.906
346.6760, 10022.80
347.1581, 10037.76
347.6402, 10049.19
348.1223, 10068.83
348.6044, 10090.12
349.0865, 10094.24
349.5687, 10073.96
350.0508, 10064.86
350.5329, 10095.31
351.0150, 10139.15
351.4971, 10166.27
351.9792, 10168.12
352.4614, 10166.51
352.9435, 10176.47
353.4256, 10196.53
353.9077, 10223.25
354.3898, 10259.92
354.8719, 10294.54
355.3541, 10309.30
355.8362, 10305.30
356.3183, 10297.55
356.8004, 10282.14
357.2825, 10268.87
357.7646, 10271.64
358.2468, 10290.12
358.7289, 10307.20
359.2110, 10308.30
359.6931, 10294.84
360.1752, 10294.65
360.6573, 10313.41
361.1395, 10336.75
361.6216, 10366.56
362.1037, 10396.58
362.5858, 10414.69
363.0679, 10415.42
363.5500, 10408.71
364.0322, 10416.09
364.5143, 10445.50
364.9964, 10476.55
365.4785, 10523.18
365.9606, 10560.66
366.4427, 10564.10
366.9249, 10536.69
367.4070, 10507.28
367.8891, 10503.01
368.3712, 10523.80
368.8533, 10550.21
369.3354, 10586.99
369.8176, 10623.37
370.2997, 10658.63
370.7818, 10690.02
371.2639, 10711.71
371.7460, 10718.13
372.2281, 10719.16
372.7103, 10723.62
373.1924, 10729.31
373.6745, 10763.74
374.1566, 10858.98
374.6387, 10970.51
375.1208, 11050.41
375.6030, 11097.06
376.0851, 11112.44
376.5672, 11077.78
377.0493, 11016.71
377.5314, 10973.20
378.0135, 10954.40
378.4957, 10953.93
378.9778, 10972.30
379.4599, 11010.10
379.9420, 11031.25
380.4241, 11016.20
380.9063, 11001.99
381.3884, 11015.66
381.8705, 11048.15
382.3526, 11072.63
382.8347, 11074.19
383.3168, 11061.35
383.7990, 11059.43
384.2811, 11083.11
384.7632, 11098.97
385.2453, 11094.79
385.7274, 11090.06
386.2095, 11106.74
386.6917, 11145.24
387.1738, 11182.44
387.6559, 11188.69
388.1380, 11159.88
388.6201, 11152.86
389.1022, 11187.02
389.5844, 11222.20
390.0665, 11236.98
390.5486, 11243.74
391.0307, 11268.21
391.5128, 11330.51
391.9949, 11402.09
392.4771, 11428.21
392.9592, 11402.15
393.4413, 11387.39
393.9234, 11409.80
394.4055, 11449.71
394.8876, 11485.81
395.3698, 11517.68
395.8519, 11542.99
396.3340, 11554.45
396.8161, 11559.84
397.2982, 11576.07
397.7803, 11606.45
398.2625, 11632.79
398.7446, 11635.63
399.2267, 11615.58
399.7088, 11615.22
400.1909, 11655.65
400.6730, 11693.09
401.1552, 11699.75
401.6373, 11689.69
402.1194, 11694.51
402.6015, 11728.76
403.0836, 11777.31
403.5657, 11807.72
404.0479, 11811.30
404.5300, 11811.11
405.0121, 11799.96
405.4942, 11791.56
405.9763, 11796.00
406.4584, 11812.59
406.9406, 11833.87
407.4227, 11855.91
407.9048, 11877.63
408.3869, 11888.59
408.8690, 11880.46
409.3511, 11877.03
409.8333, 11893.22
410.3154, 11916.38
410.7975, 11927.23
411.2796, 11915.01
411.7617, 11910.75
412.2438, 11955.43
412.7260, 12039.81
413.2081, 12106.19
413.6902, 12139.39
414.1723, 12154.07
414.6544, 12158.62
415.1365, 12153.78
415.6187, 12161.44
416.1008, 12193.02
416.5829, 12233.03
417.0650, 12271.14
417.5471, 12306.41
418.0292, 12338.29
418.5114, 12365.94
418.9935, 12390.86
419.4756, 12418.60
419.9577, 12457.83
420.4398, 12489.05
420.9219, 12516.41
421.4041, 12532.29
421.8862, 12521.42
422.3683, 12486.01
422.8504, 12452.19
423.3325, 12448.67
423.8146, 12476.63
424.2968, 12507.55
424.7789, 12542.94
425.2610, 12579.61
425.7431, 12620.64
426.2252, 12661.08
426.7073, 12692.39
427.1895, 12709.65
427.6716, 12721.42
428.1537, 12739.75
428.6358, 12764.16
429.1179, 12780.48
429.6000, 12780.54
430.0822, 12777.33
430.5643, 12787.10
431.0464, 12809.41
431.5285, 12831.22
432.0106, 12852.23
432.4927, 12869.09
432.9749, 12876.26
433.4570, 12874.91
433.9391, 12871.82
434.4212, 12869.46
434.9033, 12870.33
435.3854, 12885.70
435.8676, 12935.95
436.3497, 12974.36
436.8318, 12987.97
437.3139, 12993.50
437.7960, 13002.43
438.2781, 13018.96
438.7603, 13047.90
439.2424, 13100.42
439.7245, 13177.51
440.2066, 13227.30
440.6887, 13231.77
441.1708, 13231.99
441.6530, 13242.67
442.1351, 13259.12
442.6172, 13272.38
443.0993, 13276.38
443.5814, 13285.61
444.0635, 13321.50
444.5457, 13380.35
445.0278, 13433.30
445.5099, 13475.21
445.9920, 13505.44
446.4741, 13513.75
446.9562, 13501.43
447.4384, 13507.38
447.9205, 13559.65
448.4026, 13614.94
448.8847, 13640.19
449.3668, 13639.01
449.8489, 13624.29
450.3311, 13599.51
450.8132, 13577.50
451.2953, 13595.39
451.7774, 13708.96
452.2595, 13778.56
452.7416, 13776.30
453.2238, 13752.55
453.7059, 13731.39
454.1880, 13721.13
454.6701, 13731.40
455.1522, 13782.02
455.6343, 13858.58
456.1165, 13877.59
456.5986, 13806.85
457.0807, 13753.67
457.5628, 13772.23
458.0449, 13825.41
458.5270, 13881.85
459.0092, 13939.38
459.4913, 13985.79
459.9734, 14003.77
460.4555, 14005.89
460.9376, 14022.97
461.4197, 14060.92
461.9019, 14099.78
462.3840, 14120.75
462.8661, 14124.38
463.3482, 14136.49
463.8303, 14163.70
464.3124, 14191.42
464.7946, 14215.67
465.2767, 14236.95
465.7588, 14255.08
466.2409, 14270.41
466.7230, 14286.16
467.2051, 14307.99
467.6873, 14338.56
468.1694, 14364.01
468.6515, 14381.78
469.1336, 14396.68
469.6157, 14406.31
470.0978, 14414.85
470.5800, 14431.57
471.0621, 14464.33
471.5442, 14498.97
472.0263, 14511.10
472.5084, 14502.26
472.9905, 14509.14
473.4727, 14551.16
473.9548, 14597.98
474.4369, 14599.80
474.9190, 14557.17
475.4011, 14543.86
475.8832, 14599.59
476.3654, 14667.66
476.8475, 14709.46
477.3296, 14725.97
477.8117, 14725.95
478.2938, 14711.80
478.7759, 14694.84
479.2581, 14705.53
479.7402, 14765.38
480.2223, 14816.13
480.7044, 14854.67
481.1865, 14886.33
481.6686, 14913.64
482.1508, 14937.08
482.6329, 14955.89
483.1150, 14966.17
483.5971, 14973.89
484.0792, 14998.20
484.5613, 15043.17
485.0435, 15081.57
485.5256, 15098.77
486.0077, 15107.52
486.4898, 15124.22
486.9719, 15149.21
487.4540, 15179.85
487.9362, 15216.72
488.4183, 15257.49
488.9004, 15301.45
489.3825, 15347.50
489.8646, 15392.13
490.3467, 15435.18
490.8289, 15472.88
491.3110, 15488.24
491.7931, 15450.45
492.2752, 15430.00
492.7573, 15429.39
493.2394, 15447.76
493.7216, 15495.70
494.2037, 15566.76
494.6858, 15629.39
495.1679, 15653.09
495.6500, 15646.81
496.1321, 15654.01
496.6143, 15679.79
497.0964, 15703.73
497.5785, 15716.94
498.0606, 15723.60
498.5427, 15727.59
499.0248, 15727.91
499.5070, 15731.52
499.9891, 15738.67
500.4712, 15752.42
500.9533, 15781.77
501.4355, 15826.01
501.9176, 15868.25
502.3997, 15897.21
502.8818, 15912.92
503.3639, 15914.73
503.8460, 15870.15
504.3282, 15853.13
504.8103, 15893.32
505.2924, 15949.55
505.7745, 15979.96
506.2566, 15982.58
506.7387, 15992.51
507.2209, 16051.00
507.7030, 16145.35
508.1851, 16202.11
508.6672, 16208.99
509.1493, 16214.42
509.6314, 16244.97
510.1136, 16283.50
510.5957, 16301.55
511.0778, 16287.98
511.5599, 16291.88
512.0420, 16349.58
512.5241, 16431.12
513.0062, 16502.34
513.4883, 16557.53
513.9705, 16592.60
514.4526, 16600.95
514.9347, 16588.22
515.4168, 16587.86
515.8989, 16603.93
516.3810, 16628.01
516.8632, 16673.11
517.3453, 16716.33
517.8274, 16732.83
518.3095, 16724.36
518.7916, 16718.85
519.2737, 16740.72
519.7559, 16783.21
520.2380, 16826.14
520.7201, 16871.55
521.2022, 16904.77
521.6843, 16904.81
522.1664, 16898.66
522.6486, 16935.68
523.1307, 17030.66
523.6128, 17103.09
524.0949, 17113.85
524.5770, 17098.39
525.0591, 17087.20
525.5413, 17084.11
526.0234, 17086.74
526.5055, 17093.90
526.9876, 17105.29
527.4697, 17118.77
527.9518, 17124.95
528.4340, 17151.66
528.9161, 17231.26
529.3982, 17305.40
529.8803, 17322.77
530.3624, 17295.37
530.8445, 17284.53
531.3267, 17345.50
531.8088, 17431.79
532.2909, 17444.28
532.7730, 17384.30
533.2551, 17362.24
533.7372, 17435.45
534.2194, 17536.11
534.7015, 17544.21
535.1836, 17432.84
535.6657, 17398.03
536.1478, 17537.21
536.6299, 17687.71
537.1121, 17733.10
537.5942, 17706.29
538.0763, 17700.42
538.5584, 17760.23
539.0405, 17848.81
539.5226, 17892.60
540.0048, 17876.47
540.4869, 17881.18
540.9690, 17935.40
541.4511, 17985.05
541.9332, 17993.89
542.4153, 17977.43
542.8975, 17972.89
543.3796, 17992.88
543.8617, 18027.96
544.3438, 18083.00
544.8259, 18147.19
545.3080, 18188.16
545.7902, 18197.31
546.2723, 18190.44
546.7544, 18178.99
547.2365, 18160.79
547.7186, 18175.44
548.2007, 18264.56
548.6829, 18333.62
549.1650, 18341.21
549.6471, 18325.02
550.1292, 18329.21
550.6113, 18364.38
551.0934, 18409.17
551.5756, 18444.41
552.0577, 18470.76
552.5398, 18492.06
553.0219, 18505.50
553.5040, 18523.93
553.9861, 18558.89
554.4683, 18601.10
554.9504, 18629.37
555.4325, 18634.45
555.9146, 18650.57
556.3967, 18696.47
556.8788, 18752.90
557.3610, 18803.85
557.8431, 18847.15
558.3252, 18885.79
558.8073, 18922.29
559.2894, 18953.96
559.7715, 18968.10
560.2537, 18947.81
560.7358, 18950.91
561.2179, 19012.16
561.7000, 19076.44
562.1821, 19110.09
562.6642, 19118.10
563.1464, 19127.26
563.6285, 19149.54
564.1106, 19177.99
564.5927, 19209.56
565.0748, 19241.58
565.5569, 19256.81
566.0391, 19246.26
566.5212, 19242.29
567.0033, 19291.25
567.4854, 19408.38
567.9675, 19480.33
568.4496, 19483.86
568.9318, 19475.46
569.4139, 19461.75
569.8960, 19451.25
570.3781, 19454.27
570.8602, 19473.52
571.3423, 19500.54
571.8245, 19529.47
572.3066, 19559.34
572.7887, 19585.99
573.2708, 19609.68
573.7529, 19627.70
574.2350, 19631.04
574.7172, 19631.53
575.1993, 19659.43
575.6814, 19728.88
576.1635, 19790.12
576.6456, 19831.68
577.1277, 19860.75
577.6099, 19874.56
578.0920, 19880.52
578.5741, 19899.95
579.0562, 19946.93
579.5383, 20010.95
580.0204, 20070.44
580.5026, 20129.99
580.9847, 20162.99
581.4668, 20136.64
581.9489, 20115.36
582.4310, 20152.79
582.9132, 20232.53
583.3953, 20298.44
583.8774, 20330.83
584.3596, 20350.48
584.8417, 20361.90
585.3238, 20372.83
585.8059, 20405.71
586.2880, 20463.93
586.7701, 20514.71
587.2523, 20519.65
587.7344, 20480.85
588.2165, 20477.50
588.6986, 20534.33
589.1807, 20591.63
589.6628, 20641.49
590.1450, 20684.02
590.6271, 20720.00
591.1092, 20749.32
591.5913, 20770.58
592.0734, 20772.80
592.5555, 20771.81
593.0377, 20795.16
593.5198, 20840.32
594.0019, 20883.08
594.4840, 20913.11
594.9661, 20936.21
595.4482, 20960.16
595.9304, 20981.28
596.4125, 21016.58
596.8946, 21089.98
597.3767, 21150.00
597.8588, 21160.78
598.3409, 21150.67
598.8231, 21166.00
599.3052, 21222.69
599.7873, 21285.41
600.2694, 21314.90
600.7515, 21319.76
601.2336, 21331.84
601.7158, 21353.22
602.1979, 21387.40
602.6800, 21443.46
603.1621, 21509.99
603.6442, 21552.33
604.1263, 21553.44
604.6085, 21566.16
605.0906, 21604.51
605.5727, 21648.51
606.0548, 21683.45
606.5369, 21711.81
607.0190, 21745.07
607.5012, 21789.64
607.9833, 21838.91
608.4654, 21885.11
608.9475, 21927.82
609.4296, 21951.70
609.9117, 21943.07
610.3939, 21940.82
610.8760, 21979.52
611.3581, 22050.87
611.8402, 22113.58
612.3223, 22165.10
612.8044, 22209.84
613.2866, 22241.04
613.7687, 22271.34
614.2508, 22323.71
614.7329, 22392.46
615.2150, 22441.24
615.6971, 22438.88
616.1793, 22406.09
616.6614, 22403.69
617.1435, 22436.05
617.6256, 22474.88
618.1077, 22516.58
618.5898, 22560.31
619.0720, 22616.20
619.5541, 22677.82
620.0362, 22704.68
620.5183, 22637.38
621.0004, 22592.06
621.4825, 22644.83
621.9647, 22747.20
622.4468, 22835.29
622.9289, 22893.74
623.4110, 22933.77
623.8931, 22963.02
624.3752, 22983.88
624.8574, 23013.17
625.3395, 23057.17
625.8216, 23089.67
626.3037, 23093.48
626.7858, 23091.97
627.2679, 23102.19
627.7501, 23125.02
628.2322, 23169.43
628.7143, 23257.25
629.1964, 23348.84
629.6785, 23427.05
630.1606, 23488.33
630.6428, 23523.67
631.1249, 23532.46
631.6070, 23529.83
632.0891, 23526.62
632.5712, 23525.09
633.0533, 23567.36
633.5355, 23683.59
634.0176, 23773.27
634.4997, 23782.78
634.9818, 23765.11
635.4639, 23769.56
635.9460, 23797.83
636.4282, 23829.69
636.9103, 23846.44
637.3924, 23875.18
637.8745, 23958.11
638.3566, 24065.38
638.8387, 24129.16
639.3209, 24128.64
639.8030, 24104.63
640.2851, 24105.08
640.7672, 24129.69
641.2493, 24158.32
641.7314, 24190.28
642.2136, 24228.28
642.6957, 24283.29
643.1778, 24338.53
643.6599, 24374.63
644.1420, 24390.09
644.6241, 24406.42
645.1063, 24428.55
645.5884, 24456.67
646.0705, 24488.86
646.5526, 24527.89
647.0347, 24585.80
647.5168, 24665.21
647.9990, 24740.89
648.4811, 24776.76
648.9632, 24773.30
649.4453, 24786.74
649.9274, 24820.94
650.4095, 24864.07
650.8917, 24920.52
651.3738, 24978.03
651.8559, 25020.91
652.3380, 25047.68
652.8201, 25071.78
653.3022, 25084.93
653.7844, 25107.30
654.2665, 25159.67
654.7486, 25231.12
655.2307, 25299.13
655.7128, 25355.95
656.1949, 25408.23
656.6771, 25470.72
657.1592, 25540.55
657.6413, 25557.51
658.1234, 25489.61
658.6055, 25463.28
659.0876, 25557.89
659.5698, 25694.39
660.0519, 25763.59
660.5340, 25760.74
661.0161, 25765.29
661.4982, 25810.21
661.9803, 25850.72
662.4625, 25856.51
662.9446, 25839.87
663.4267, 25808.46
663.9088, 25770.58
664.3909, 25769.38
664.8730, 25879.54
665.3552, 26070.67
665.8373, 26142.42
666.3194, 26067.71
666.8015, 26019.06
667.2836, 26070.63
667.7657, 26160.83
668.2479, 26201.86
668.7300, 26188.84
669.2121, 26210.40
669.6942, 26316.59
670.1763, 26410.71
670.6584, 26430.18
671.1406, 26421.70
671.6227, 26455.72
672.1048, 26541.20
672.5869, 26619.33
673.0690, 26628.52
673.5511, 26596.07
674.0333, 26589.44
674.5154, 26608.25
674.9975, 26680.49
675.4796, 26835.64
675.9617, 26996.60
676.4438, 27069.64
676.9260, 27047.63
677.4081, 27047.39
677.8902, 27078.60
678.3723, 27117.45
678.8544, 27163.03
679.3365, 27210.63
679.8187, 27257.40
680.3008, 27302.06
680.7829, 27343.12
681.2650, 27385.97
681.7471, 27417.64
682.2292, 27400.08
682.7114, 27348.39
683.1935, 27344.97
683.6756, 27413.56
684.1577, 27490.63
684.6398, 27513.73
685.1219, 27489.16
685.6041, 27491.53
686.0862, 27531.15
686.5683, 27582.71
687.0504, 27665.49
687.5325, 27739.95
688.0146, 27764.51
688.4968, 27754.99
688.9789, 27770.82
689.4610, 27844.62
689.9431, 27935.62
690.4252, 28014.48
690.9073, 28085.53
691.3895, 28165.35
691.8716, 28252.16
692.3537, 28303.69
692.8358, 28281.62
693.3179, 28221.88
693.8000, 28245.13
694.2822, 28384.06
694.7643, 28492.28
695.2464, 28549.04
695.7285, 28579.79
696.2106, 28574.26
696.6927, 28558.48
697.1749, 28595.30
697.6570, 28726.61
698.1391, 28830.70
698.6212, 28831.92
699.1033, 28805.86
699.5854, 28832.05
700.0676, 28897.24
700.5497, 28933.60
701.0318, 28906.55
701.5139, 28874.95
701.9960, 28950.06
702.4781, 29121.65
702.9603, 29215.22
703.4424, 29207.24
703.9245, 29185.40
704.4066, 29189.81
704.8887, 29209.97
705.3708, 29224.08
705.8530, 29225.89
706.3351, 29243.20
706.8172, 29277.43
707.2993, 29327.14
707.7814, 29407.80
708.2635, 29496.28
708.7457, 29560.28
709.2278, 29592.84
709.7099, 29613.77
710.1920, 29637.63
710.6741, 29661.07
711.1563, 29667.10
711.6384, 29662.39
712.1205, 29696.43
712.6026, 29789.16
713.0847, 29895.94
713.5668, 29963.61
714.0490, 29991.56
714.5311, 30022.41
715.0132, 30048.43
715.4953, 30089.61
715.9774, 30176.84
716.4595, 30258.66
716.9417, 30280.80
717.4238, 30255.56
717.9059, 30258.88
718.3880, 30339.83
718.8701, 30427.79
719.3522, 30476.26
719.8344, 30505.23
720.3165, 30543.93
720.7986, 30595.31
721.2807, 30643.92
721.7628, 30676.99
722.2449, 30706.97
722.7271, 30767.47
723.2092, 30860.75
723.6913, 30947.18
724.1734, 31030.51
724.6555, 31081.33
725.1376, 31066.94
725.6198, 31008.31
726.1019, 30970.52
726.5840, 30948.58
727.0661, 30955.93
727.5482, 31020.45
728.0303, 31089.05
728.5125, 31127.96
728.9946, 31150.06
729.4767, 31183.48
729.9588, 31237.43
730.4409, 31289.75
730.9230, 31315.93
731.4052, 31330.03
731.8873, 31356.54
732.3694, 31395.57
732.8515, 31438.50
733.3336, 31481.12
733.8157, 31534.97
734.2979, 31621.73
734.7800, 31742.57
735.2621, 31823.55
735.7442, 31845.78
736.2263, 31863.00
736.7084, 31876.63
737.1906, 31900.85
737.6727, 31957.49
738.1548, 32041.19
738.6369, 32106.54
739.1190, 32117.25
739.6011, 32138.56
740.0833, 32215.15
740.5654, 32310.89
741.0475, 32381.87
741.5296, 32427.54
742.0117, 32475.12
742.4938, 32543.45
742.9760, 32617.02
743.4581, 32676.19
743.9402, 32718.96
744.4223, 32720.46
744.9044, 32671.09
745.3865, 32636.99
745.8687, 32658.76
746.3508, 32724.05
746.8329, 32804.51
747.3150, 32909.43
747.7971, 33005.16
748.2792, 33124.77
748.7614, 33197.02
749.2435, 33142.93
749.7256, 33052.13
750.2077, 33052.30
750.6898, 33167.17
751.1719, 33279.75
751.6541, 33330.99
752.1362, 33361.25
752.6183, 33396.39
753.1004, 33440.30
753.5825, 33507.20
754.0646, 33595.66
754.5468, 33668.16
755.0289, 33682.69
755.5110, 33659.38
755.9931, 33666.76
756.4752, 33706.86
756.9573, 33738.98
757.4395, 33746.91
757.9216, 33769.79
758.4037, 33851.43
758.8858, 33976.78
759.3679, 34057.28
759.8500, 34054.74
760.3322, 34061.47
760.8143, 34085.41
761.2964, 34113.13
761.7785, 34133.58
762.2606, 34153.04
762.7427, 34183.93
763.2249, 34229.58
763.7070, 34285.99
764.1891, 34359.96
764.6712, 34436.54
765.1533, 34491.50
765.6354, 34533.17
766.1176, 34593.89
766.5997, 34683.52
767.0818, 34771.91
767.5639, 34819.45
768.0460, 34833.64
768.5281, 34865.20
769.0103, 34917.48
769.4924, 34962.63
769.9745, 34992.01
770.4566, 35013.23
770.9387, 35027.21
771.4208, 35036.28
771.9030, 35076.69
772.3851, 35187.40
772.8672, 35274.18
773.3493, 35315.22
773.8314, 35342.14
774.3135, 35372.24
774.7957, 35405.89
775.2778, 35442.66
775.7599, 35487.81
776.2420, 35515.02
776.7241, 35461.15
777.2062, 35410.21
777.6884, 35493.70
778.1705, 35675.04
778.6526, 35828.90
779.1347, 35904.82
779.6168, 35924.22
780.0989, 35888.79
780.5811, 35816.58
781.0632, 35832.20
781.5453, 35944.29
782.0274, 36062.32
782.5095, 36167.94
782.9916, 36246.02
783.4738, 36271.95
783.9559, 36248.92
784.4380, 36256.02
784.9201, 36297.70
785.4022, 36363.44
785.8843, 36484.90
786.3665, 36598.32
786.8486, 36645.11
787.3307, 36652.93
787.8128, 36700.65
788.2949, 36828.91
788.7770, 36929.96
789.2592, 36918.15
789.7413, 36874.62
790.2234, 36862.97
790.7055, 36891.12
791.1876, 36977.48
791.6697, 37123.99
792.1519, 37257.87
792.6340, 37287.08
793.1161, 37245.18
793.5982, 37230.24
794.0803, 37242.79
794.5624, 37294.65
795.0446, 37394.96
795.5267, 37500.81
796.0088, 37571.63
796.4909, 37611.36
796.9730, 37646.00
797.4551, 37680.22
797.9373, 37697.08
798.4194, 37656.24
798.9015, 37640.52
799.3836, 37721.50
799.8657, 37853.34
800.3478, 37941.66
800.8300, 37963.75
801.3121, 37984.03
801.7942, 38018.32
802.2763, 38056.94
802.7584, 38094.80
803.2405, 38131.95
803.7227, 38165.56
804.2048, 38196.87
804.6869, 38241.57
805.1690, 38327.61
805.6511, 38420.96
806.1332, 38459.04
806.6154, 38463.65
807.0975, 38506.41
807.5796, 38598.98
808.0617, 38690.93
808.5438, 38743.05
809.0259, 38771.33
809.5081, 38821.61
809.9902, 38897.73
810.4723, 38958.45
810.9544, 38995.58
811.4365, 39030.23
811.9186, 39065.45
812.4008, 39111.44
812.8829, 39196.43
813.3650, 39345.36
813.8471, 39429.36
814.3292, 39372.37
814.8113, 39347.97
815.2935, 39447.11
815.7756, 39570.41
816.2577, 39617.01
816.7398, 39590.47
817.2219, 39568.65
817.7040, 39570.60
818.1862, 39599.39
818.6683, 39680.32
819.1504, 39774.48
819.6325, 39827.58
820.1146, 39848.85
820.5967, 39889.10
821.0789, 39973.27
821.5610, 40057.92
822.0431, 40072.63
822.5252, 40047.80
823.0073, 40084.99
823.4894, 40180.61
823.9716, 40253.77
824.4537, 40274.84
824.9358, 40278.79
825.4179, 40300.68
825.9000, 40341.24
826.3821, 40415.19
826.8643, 40543.95
827.3464, 40630.27
827.8285, 40638.75
828.3106, 40631.23
828.7927, 40638.43
829.2748, 40664.77
829.7570, 40728.79
830.2391, 40860.03
830.7212, 40958.73
831.2033, 40996.75
831.6854, 41023.52
832.1675, 41059.33
832.6497, 41098.16
833.1318, 41121.35
833.6139, 41129.70
834.0960, 41167.23
834.5781, 41298.20
835.0602, 41419.84
835.5424, 41425.59
836.0245, 41390.36
836.5066, 41431.89
836.9887, 41548.78
837.4708, 41658.90
837.9529, 41716.79
838.4351, 41745.95
838.9172, 41775.36
839.3993, 41803.62
839.8814, 41816.39
840.3635, 41816.93
840.8456, 41851.90
841.3278, 41943.04
841.8099, 42053.52
842.2920, 42141.18
842.7741, 42205.57
843.2562, 42235.21
843.7383, 42215.04
844.2205, 42219.88
844.7026, 42268.23
845.1847, 42338.92
845.6668, 42422.24
846.1489, 42513.87
846.6310, 42598.73
847.1132, 42667.93
847.5953, 42744.83
848.0774, 42856.91
848.5595, 42944.46
849.0416, 42948.93
849.5237, 42932.22
850.0059, 42987.08
850.4880, 43121.32
850.9701, 43222.98
851.4522, 43229.24
851.9343, 43220.65
852.4164, 43222.13
852.8986, 43245.92
853.3807, 43328.27
853.8628, 43447.64
854.3449, 43524.06
854.8270, 43513.07
855.3091, 43486.53
855.7913, 43520.41
856.2734, 43587.49
856.7555, 43624.61
857.2376, 43646.79
857.7197, 43741.60
858.2018, 43935.18
858.6840, 44121.39
859.1661, 44180.49
859.6482, 44149.60
860.1303, 44167.71
860.6124, 44234.44
861.0945, 44260.65
861.5767, 44220.48
862.0588, 44202.68
862.5409, 44269.92
863.0230, 44395.17
863.5051, 44518.42
863.9872, 44649.78
864.4694, 44736.89
864.9515, 44777.76
865.4336, 44775.22
865.9157, 44668.46
866.3978, 44571.02
866.8799, 44648.90
867.3621, 44887.43
867.8442, 45026.80
868.3263, 44979.44
868.8084, 44942.09
869.2905, 44944.43
869.7726, 44969.91
870.2548, 45009.21
870.7369, 45062.79
871.2190, 45138.77
871.7011, 45243.06
872.1832, 45335.39
872.6653, 45345.11
873.1475, 45389.45
873.6296, 45618.15
874.1117, 45905.23
874.5938, 46059.98
875.0759, 46065.66
875.5580, 46033.54
876.0402, 46021.12
876.5223, 46020.74
877.0044, 46003.71
877.4865, 46000.10
877.9686, 46096.59
878.4507, 46271.21
878.9329, 46393.35
879.4150, 46410.39
879.8971, 46419.08
880.3792, 46558.56
880.8613, 46776.49
881.3434, 46849.08
881.8256, 46785.79
882.3077, 46767.19
882.7898, 46835.38
883.2719, 46920.65
883.7540, 46973.86
884.2361, 47006.74
884.7183, 47046.67
885.2004, 47090.23
885.6825, 47169.17
886.1646, 47312.09
886.6467, 47410.00
887.1288, 47397.00
887.6110, 47354.43
888.0931, 47380.46
888.5752, 47473.62
889.0573, 47560.69
889.5394, 47647.30
890.0215, 47718.14
890.5037, 47732.55
890.9858, 47770.91
891.4679, 47921.09
891.9500, 48110.09
892.4321, 48185.19
892.9142, 48101.96
893.3964, 48080.88
893.8785, 48249.98
894.3606, 48392.37
894.8427, 48373.02
895.3248, 48308.29
895.8069, 48316.96
896.2891, 48400.75
896.7712, 48508.56
897.2533, 48644.60
897.7354, 48739.66
898.2175, 48695.44
898.6996, 48636.99
899.1818, 48689.52
899.6639, 48826.65
900.1460, 48991.40
900.6281, 49160.98
901.1102, 49308.09
901.5923, 49413.30
902.0745, 49481.92
902.5566, 49508.19
903.0387, 49508.14
903.5208, 49497.05
904.0029, 49490.54
904.4850, 49554.46
904.9672, 49723.90
905.4493, 49910.61
905.9314, 49982.50
906.4135, 49972.33
906.8956, 49999.14
907.3777, 50061.27
907.8599, 50142.04
908.3420, 50237.39
908.8241, 50320.37
909.3062, 50364.95
909.7883, 50392.06
910.2704, 50468.35
910.7526, 50598.57
911.2347, 50682.93
911.7168, 50709.11
912.1990, 50727.61
912.6811, 50758.47
913.1632, 50789.38
913.6453, 50799.25
914.1274, 50792.65
914.6096, 50841.52
915.0917, 50973.23
915.5738, 51087.64
916.0559, 51166.46
916.5380, 51240.38
917.0201, 51341.16
917.5023, 51440.41
917.9844, 51469.46
918.4665, 51397.01
918.9486, 51402.50
919.4307, 51552.77
919.9128, 51690.55
920.3950, 51784.86
920.8771, 51857.18
921.3592, 51917.63
921.8413, 51969.30
922.3234, 52018.42
922.8055, 52060.59
923.2877, 52113.85
923.7698, 52198.04
924.2519, 52275.68
924.7340, 52315.72
925.2161, 52347.85
925.6982, 52399.90
926.1804, 52477.60
926.6625, 52590.56
927.1446, 52782.69
927.6267, 52940.15
928.1088, 52974.45
928.5909, 52984.80
929.0731, 53031.21
929.5552, 53128.18
930.0373, 53322.91
930.5194, 53612.66
931.0015, 53825.30
931.4836, 53795.65
931.9658, 53705.89
932.4479, 53693.85
932.9300, 53726.71
933.4121, 53765.25
933.8942, 53805.11
934.3763, 53851.57
934.8585, 53907.12
935.3406, 53978.21
935.8227, 54093.88
936.3048, 54213.54
936.7869, 54273.61
937.2690, 54291.32
937.7512, 54299.20
938.2333, 54309.72
938.7154, 54346.32
939.1975, 54426.93
939.6796, 54516.49
940.1617, 54555.88
940.6439, 54567.80
941.1260, 54604.89
941.6081, 54671.72
942.0902, 54795.60
942.5723, 54979.59
943.0544, 55135.68
943.5366, 55186.36
944.0187, 55170.91
944.5008, 55169.05
944.9829, 55180.95
945.4650, 55211.36
945.9471, 55260.21
946.4293, 55312.67
946.9114, 55360.74
947.3935, 55441.12
947.8756, 55607.43
948.3577, 55830.98
948.8398, 55976.01
949.3220, 56040.34
949.8041, 56071.16
950.2862, 56068.21
950.7683, 56072.11
951.2504, 56100.80
951.7325, 56156.17
952.2147, 56241.34
952.6968, 56356.28
953.1789, 56511.13
953.6610, 56723.21
954.1431, 56892.74
954.6252, 57001.21
955.1074, 57060.93
955.5895, 57061.75
956.0716, 57044.17
956.5537, 57099.17
957.0358, 57243.13
957.5179, 57346.07
958.0001, 57393.38
958.4822, 57439.59
958.9643, 57503.43
959.4464, 57558.50
959.9285, 57566.34
960.4106, 57557.26
960.8928, 57630.80
961.3749, 57826.02
961.8570, 57985.71
962.3391, 58120.39
962.8212, 58196.96
963.3033, 58145.74
963.7855, 58093.86
964.2676, 58177.30
964.7497, 58366.14
965.2318, 58503.59
965.7139, 58561.57
966.1960, 58618.10
966.6782, 58642.96
967.1603, 58703.26
967.6424, 58896.10
968.1245, 59082.46
968.6066, 59061.49
969.0887, 58865.98
969.5709, 58834.89
970.0530, 59162.58
970.5351, 59383.72
971.0172, 59381.07
971.4993, 59360.25
971.9814, 59403.93
972.4636, 59491.34
972.9457, 59609.80
973.4278, 59754.15
973.9099, 59854.51
974.3920, 59835.37
974.8741, 59866.39
975.3563, 60050.36
975.8384, 60217.46
976.3205, 60230.29
976.8026, 60178.76
977.2847, 60207.35
977.7668, 60331.86
978.2490, 60461.58
978.7311, 60630.00
979.2132, 60730.30
979.6953, 60635.81
980.1774, 60555.62
980.6595, 60688.16
981.1417, 60923.72
981.6238, 61037.03
982.1059, 60986.31
982.5880, 60979.49
983.0701, 61130.42
983.5522, 61265.45
984.0344, 61299.17
984.5165, 61307.89
984.9986, 61334.70
985.4807, 61392.99
985.9628, 61520.35
986.4449, 61737.10
986.9271, 61869.58
987.4092, 61728.50
987.8913, 61651.03
988.3734, 61892.88
988.8555, 62188.64
989.3376, 62275.28
989.8198, 62211.34
990.3019, 62189.38
990.7840, 62258.17
991.2661, 62351.99
991.7482, 62495.98
992.2303, 62597.27
992.7125, 62542.48
993.1946, 62470.35
993.6767, 62539.03
994.1588, 62713.91
994.6409, 62859.18
995.1230, 62934.05
995.6052, 63014.23
996.0873, 63125.91
996.5694, 63260.01
997.0515, 63440.36
997.5336, 63618.39
998.0157, 63727.44
998.4979, 63786.94
998.9800, 63876.09
999.4621, 64025.04
999.9442, 64161.59
1000.426, 64238.60
1000.908, 64306.99
1001.391, 64400.14
1001.873, 64500.00
1002.355, 64599.38
1002.837, 64685.14
1003.319, 64715.54
1003.801, 64656.91
1004.283, 64643.57
1004.765, 64766.95
1005.247, 64922.47
1005.730, 65084.48
1006.212, 65214.56
1006.694, 65234.07
1007.176, 65186.14
1007.658, 65233.02
1008.140, 65455.55
1008.622, 65640.27
1009.104, 65667.80
1009.587, 65655.30
1010.069, 65630.07
1010.551, 65636.82
1011.033, 65755.03
1011.515, 65948.05
1011.997, 66075.21
1012.479, 66071.22
1012.961, 66090.88
1013.443, 66211.40
1013.926, 66360.23
1014.408, 66515.70
1014.890, 66659.95
1015.372, 66781.92
1015.854, 66876.23
1016.336, 66928.80
1016.818, 66921.71
1017.300, 66928.32
1017.783, 66957.08
1018.265, 67029.88
1018.747, 67209.86
1019.229, 67401.34
1019.711, 67479.17
1020.193, 67477.83
1020.675, 67542.70
1021.157, 67732.13
1021.639, 67891.93
1022.122, 67951.84
1022.604, 67993.17
1023.086, 68041.88
1023.568, 68101.96
1024.050, 68173.11
1024.532, 68257.66
1025.014, 68372.39
1025.496, 68541.28
1025.979, 68652.23
1026.461, 68607.77
1026.943, 68584.50
1027.425, 68659.49
1027.907, 68783.17
1028.389, 68926.86
1028.871, 69078.30
1029.353, 69217.33
1029.835, 69340.59
1030.318, 69451.09
1030.800, 69545.41
1031.282, 69631.92
1031.764, 69726.84
1032.246, 69802.16
1032.728, 69796.83
1033.210, 69762.45
1033.692, 69838.16
1034.174, 70071.38
1034.657, 70246.67
1035.139, 70294.25
1035.621, 70349.89
1036.103, 70462.29
1036.585, 70577.28
1037.067, 70659.38
1037.549, 70716.04
1038.031, 70760.71
1038.514, 70788.14
1038.996, 70831.43
1039.478, 70858.48
1039.960, 70950.55
1040.442, 71184.09
1040.924, 71408.89
1041.406, 71529.95
1041.888, 71587.79
1042.370, 71644.85
1042.853, 71696.45
1043.335, 71799.07
1043.817, 72007.11
1044.299, 72150.03
1044.781, 72181.99
1045.263, 72183.65
1045.745, 72174.92
1046.227, 72187.33
1046.709, 72281.38
1047.192, 72454.88
1047.674, 72560.82
1048.156, 72570.91
1048.638, 72607.28
1049.120, 72692.52
1049.602, 72779.88
1050.084, 72847.73
1050.566, 72907.23
1051.049, 72964.28
1051.531, 73027.38
1052.013, 73169.78
1052.495, 73411.78
1052.977, 73601.77
1053.459, 73720.11
1053.941, 73832.63
1054.423, 73969.33
1054.906, 74084.20
1055.388, 74118.43
1055.870, 74106.40
1056.352, 74178.87
1056.834, 74334.45
1057.316, 74479.00
1057.798, 74607.18
1058.280, 74723.51
1058.762, 74829.69
1059.245, 74920.12
1059.727, 74989.95
1060.209, 75043.82
1060.691, 75089.16
1061.173, 75127.94
1061.655, 75151.89
1062.137, 75171.53
1062.619, 75287.82
1063.101, 75513.78
1063.584, 75670.41
1064.066, 75629.63
1064.548, 75535.67
1065.030, 75631.52
1065.512, 75825.23
1065.994, 75863.15
1066.476, 75801.75
1066.958, 75820.09
1067.441, 75946.02
1067.923, 76139.91
1068.405, 76385.89
1068.887, 76613.21
1069.369, 76735.84
1069.851, 76806.18
1070.333, 76878.39
1070.815, 76960.75
1071.297, 77069.30
1071.780, 77200.42
1072.262, 77345.26
1072.744, 77499.17
1073.226, 77627.04
1073.708, 77701.95
1074.190, 77741.53
1074.672, 77696.93
1075.154, 77677.17
1075.636, 77854.12
1076.119, 78135.55
1076.601, 78326.25
1077.083, 78386.09
1077.565, 78399.99
1078.047, 78321.04
1078.529, 78338.07
1079.011, 78671.26
1079.494, 78991.01
1079.976, 79019.07
1080.458, 78913.48
1080.940, 78893.34
1081.422, 78970.80
1081.904, 79046.15
1082.386, 79084.80
1082.868, 79150.84
1083.350, 79281.61
1083.833, 79411.75
1084.315, 79511.86
1084.797, 79604.18
1085.279, 79709.90
1085.761, 79827.36
1086.243, 79951.28
1086.725, 80090.87
1087.207, 80206.25
1087.689, 80287.26
1088.172, 80361.92
1088.654, 80418.45
1089.136, 80498.51
1089.618, 80641.09
1090.100, 80809.85
1090.582, 80930.72
1091.064, 81001.03
1091.546, 81109.65
1092.029, 81257.20
1092.511, 81448.46
1092.993, 81703.67
1093.475, 81896.98
1093.957, 81955.99
1094.439, 81975.19
1094.921, 82071.76
1095.403, 82223.02
1095.885, 82333.75
1096.368, 82408.53
1096.850, 82507.30
1097.332, 82632.70
1097.814, 82738.80
1098.296, 82812.37
1098.778, 82897.88
1099.260, 83036.95
1099.742, 83186.14
1100.224, 83254.07
1100.707, 83281.52
1101.189, 83389.95
1101.671, 83543.98
1102.153, 83607.03
1102.635, 83576.17
1103.117, 83580.70
1103.599, 83688.33
1104.081, 83818.83
1104.564, 83915.77
1105.046, 83980.22
1105.528, 83966.89
1106.010, 83952.86
1106.492, 84065.94
1106.974, 84269.02
1107.456, 84430.59
1107.938, 84516.95
1108.421, 84632.23
1108.903, 84878.94
1109.385, 85095.19
1109.867, 85168.26
1110.349, 85217.92
1110.831, 85305.77
1111.313, 85441.60
1111.795, 85678.95
1112.277, 85991.11
1112.760, 86149.26
1113.242, 85965.30
1113.724, 85928.12
1114.206, 86241.70
1114.688, 86500.91
1115.170, 86507.68
1115.652, 86496.77
1116.134, 86697.73
1116.616, 87006.23
1117.099, 87133.16
1117.581, 87042.23
1118.063, 87041.10
1118.545, 87150.54
1119.027, 87286.99
1119.509, 87448.63
1119.991, 87589.82
1120.473, 87686.19
1120.956, 87749.87
1121.438, 87781.01
1121.920, 87807.77
1122.402, 87999.29
1122.884, 88328.41
1123.366, 88477.20
1123.848, 88437.39
1124.330, 88424.24
1124.813, 88507.87
1125.295, 88644.02
1125.777, 88809.77
1126.259, 88960.44
1126.741, 89004.26
1127.223, 89004.53
1127.705, 89070.26
1128.187, 89189.37
1128.669, 89344.24
1129.151, 89514.28
1129.634, 89641.77
1130.116, 89699.44
1130.598, 89773.88
1131.080, 89981.23
1131.562, 90158.84
1132.044, 90137.47
1132.526, 90082.67
1133.008, 90158.66
1133.491, 90321.99
1133.973, 90494.58
1134.455, 90658.38
1134.937, 90748.46
1135.419, 90659.95
1135.901, 90644.46
1136.383, 90766.32
1136.865, 90935.24
1137.348, 91141.82
1137.830, 91353.13
1138.312, 91558.78
1138.794, 91739.33
1139.276, 91826.60
1139.758, 91790.59
1140.240, 91845.11
1140.722, 92018.72
1141.204, 92159.48
1141.687, 92228.05
1142.169, 92324.77
1142.651, 92515.42
1143.133, 92702.91
1143.615, 92745.20
1144.097, 92702.73
1144.579, 92810.66
1145.061, 93033.60
1145.543, 93168.46
1146.026, 93216.73
1146.508, 93269.46
1146.990, 93356.74
1147.472, 93490.42
1147.954, 93688.35
1148.436, 93882.14
1148.918, 93961.35
1149.400, 94022.81
1149.883, 94249.28
1150.365, 94503.73
1150.847, 94517.02
1151.329, 94367.60
1151.811, 94356.70
1152.293, 94567.04
1152.775, 94784.22
1153.257, 94920.66
1153.740, 95039.02
1154.222, 95156.73
1154.704, 95271.34
1155.186, 95368.29
1155.668, 95470.60
1156.150, 95616.94
1156.632, 95796.92
1157.114, 95941.27
1157.596, 96011.88
1158.078, 96164.87
1158.561, 96460.52
1159.043, 96668.66
1159.525, 96707.34
1160.007, 96737.75
1160.489, 96863.37
1160.971, 97022.88
1161.453, 97118.13
1161.935, 97167.55
1162.418, 97260.42
1162.900, 97395.57
1163.382, 97585.30
1163.864, 97815.95
1164.346, 97980.29
1164.828, 98052.46
1165.310, 98105.36
1165.792, 98185.05
1166.275, 98296.93
1166.757, 98513.13
1167.239, 98707.33
1167.721, 98641.29
1168.203, 98491.30
1168.685, 98537.15
1169.167, 98750.43
1169.649, 98965.78
1170.131, 99138.12
1170.614, 99285.27
1171.096, 99410.66
1171.578, 99516.47
1172.060, 99612.49
1172.542, 99679.45
1173.024, 99623.45
1173.506, 99602.16
1173.988, 99851.60
1174.470, 100271.8
1174.953, 100489.4
1175.435, 100451.6
1175.917, 100472.3
1176.399, 100555.8
1176.881, 100689.2
1177.363, 100880.9
1177.845, 101058.7
1178.327, 101186.7
1178.810, 101261.4
1179.292, 101259.9
1179.774, 101232.0
1180.256, 101309.0
1180.738, 101469.2
1181.220, 101687.9
1181.702, 101919.5
1182.184, 101998.7
1182.667, 101929.2
1183.149, 101918.2
1183.631, 102071.7
1184.113, 102278.9
1184.595, 102498.0
1185.077, 102691.9
1185.559, 102835.0
1186.041, 102936.8
1186.523, 102940.8
1187.005, 102942.4
1187.488, 103134.7
1187.970, 103516.6
1188.452, 103802.2
1188.934, 103875.2
1189.416, 104003.0
1189.898, 104234.8
1190.380, 104432.6
1190.862, 104544.3
1191.345, 104650.2
1191.827, 104818.1
1192.309, 104985.5
1192.791, 105023.2
1193.273, 104970.4
1193.755, 105095.0
1194.237, 105373.5
1194.719, 105584.2
1195.202, 105714.2
1195.684, 105817.0
1196.166, 105917.1
1196.648, 106081.6
1197.130, 106370.7
1197.612, 106636.8
1198.094, 106668.7
1198.576, 106656.2
1199.058, 106840.8
1199.541, 107071.8
1200.023, 107113.4
1200.505, 107050.6
1200.987, 107114.3
1201.469, 107337.7
1201.951, 107543.7
1202.433, 107694.4
1202.915, 107820.7
1203.397, 107920.0
1203.880, 108003.5
1204.362, 108069.8
1204.844, 108129.8
1205.326, 108187.4
1205.808, 108253.9
1206.290, 108353.6
1206.772, 108483.7
1207.254, 108602.9
1207.737, 108714.5
1208.219, 108872.4
1208.701, 109077.5
1209.183, 109287.8
1209.665, 109488.0
1210.147, 109663.8
1210.629, 109806.0
1211.111, 109923.4
1211.594, 109993.8
1212.076, 110075.3
1212.558, 110255.3
1213.040, 110464.7
1213.522, 110595.0
1214.004, 110686.5
1214.486, 110842.7
1214.968, 111077.2
1215.450, 111331.7
1215.932, 111660.6
1216.415, 111884.1
1216.897, 111915.8
1217.379, 111948.0
1217.861, 112003.7
1218.343, 112133.9
1218.825, 112411.1
1219.307, 112710.5
1219.789, 112811.6
1220.272, 112759.8
1220.754, 112808.4
1221.236, 112951.7
1221.718, 113161.6
1222.200, 113422.4
1222.682, 113669.9
1223.164, 113881.6
1223.646, 114034.2
1224.129, 114111.2
1224.611, 114165.4
1225.093, 114194.7
1225.575, 114277.3
1226.057, 114573.3
1226.539, 114866.3
1227.021, 114882.3
1227.503, 114776.6
1227.985, 114842.2
1228.468, 115075.2
1228.950, 115204.7
1229.432, 115132.3
1229.914, 115175.7
1230.396, 115386.3
1230.878, 115581.2
1231.360, 115716.1
1231.842, 115881.9
1232.324, 116138.1
1232.807, 116382.7
1233.289, 116484.4
1233.771, 116512.1
1234.253, 116631.3
1234.735, 116813.6
1235.217, 117001.8
1235.699, 117175.6
1236.181, 117253.8
1236.664, 117270.8
1237.146, 117408.8
1237.628, 117729.3
1238.110, 118015.7
1238.592, 118113.5
1239.074, 118206.4
1239.556, 118324.0
1240.038, 118511.8
1240.521, 118920.1
1241.003, 119294.4
1241.485, 119343.8
1241.967, 119212.8
1242.449, 119240.8
1242.931, 119430.0
1243.413, 119587.2
1243.895, 119710.5
1244.377, 119843.8
1244.859, 119991.4
1245.342, 120120.1
1245.824, 120221.6
1246.306, 120327.7
1246.788, 120461.6
1247.270, 120593.3
1247.752, 120668.9
1248.234, 120743.4
1248.716, 120902.4
1249.199, 121075.8
1249.681, 121149.7
1250.163, 121189.7
1250.645, 121341.5
1251.127, 121601.3
1251.609, 121810.2
1252.091, 121946.9
1252.573, 122020.8
1253.056, 121965.8
1253.538, 122009.2
1254.020, 122217.1
1254.502, 122446.3
1254.984, 122626.0
1255.466, 122800.6
1255.948, 123026.5
1256.430, 123254.4
1256.912, 123346.0
1257.395, 123370.6
1257.877, 123509.5
1258.359, 123732.4
1258.841, 123962.9
1259.323, 124190.9
1259.805, 124438.3
1260.287, 124706.7
1260.769, 124954.4
1261.251, 125184.9
1261.734, 125348.0
1262.216, 125387.6
1262.698, 125409.5
1263.180, 125382.4
1263.662, 125449.1
1264.144, 125752.3
1264.626, 126133.6
1265.108, 126340.0
1265.591, 126416.3
##END=



