##NAMES=Strontiojoaquinite
##RRUFFID=R060331
##IDEAL CHEMISTRY=(Na,Fe^2+^)_2_Ba_2_Sr_2_Ti^4+^_2_(SiO_3_)_8_(O,OH)_2_&#183;H_2_O
##LOCALITY=Mina Numero Uno, San Benito County, California, USA
##OWNER=RRUFF
##SOURCE=Michael Scott
##DESCRIPTION=Pale yellow tapering pseudotetragonal prisms
##STATUS=The identification of this mineral is confirmed by single-crystal X-ray diffraction and chemical analysis.
##URL=rruff.info/R060331
##MEASURED CHEMISTRY=(Na_1.00_Fe_0.69_Zn_0.20_Mn_0.11_)_Σ=2_Ba_2.00_(Sr_1.89_Ba_0.08_Ca_0.03_)_Σ=2_Ti_2.00_Si_8.00_O_24_(O_1.00_(OH)_1.00_)_Σ=2_·1.50H_2_O; OH estimated by charge balance
92.35352, 181.5104
92.83563, 182.9302
93.31775, 183.5434
93.79987, 184.4497
94.28198, 183.2938
94.76410, 181.5795
95.24622, 179.8132
95.72833, 178.0346
96.21045, 176.1646
96.69257, 174.2441
97.17468, 172.1068
97.65680, 169.6554
98.13892, 167.2002
98.62103, 165.0136
99.10315, 163.0322
99.58527, 161.0143
100.0674, 158.8127
100.5495, 156.0472
101.0316, 153.6025
101.5137, 151.6132
101.9958, 149.9708
102.4780, 148.5071
102.9601, 147.0866
103.4422, 145.6792
103.9243, 144.6803
104.4064, 144.1204
104.8885, 143.7615
105.3707, 143.5355
105.8528, 143.4118
106.3349, 143.3305
106.8170, 143.2233
107.2991, 143.0802
107.7813, 142.8634
108.2634, 142.3873
108.7455, 141.8904
109.2276, 141.7141
109.7097, 141.9843
110.1918, 142.3989
110.6740, 142.5578
111.1561, 142.4888
111.6382, 142.5455
112.1203, 142.9180
112.6024, 143.5859
113.0845, 144.4075
113.5666, 145.5289
114.0488, 146.6563
114.5309, 147.6331
115.0130, 148.4390
115.4951, 149.0585
115.9772, 149.3867
116.4593, 149.2087
116.9415, 149.3660
117.4236, 150.0529
117.9057, 151.0108
118.3878, 152.1642
118.8699, 153.4672
119.3520, 154.7872
119.8342, 155.7464
120.3163, 155.8537
120.7984, 156.1481
121.2805, 156.7285
121.7626, 157.5318
122.2447, 158.4768
122.7269, 159.5238
123.2090, 160.6644
123.6911, 161.8406
124.1732, 163.2160
124.6553, 164.4607
125.1374, 165.3332
125.6196, 165.9164
126.1017, 166.5789
126.5838, 167.6347
127.0659, 169.0256
127.5480, 170.1907
128.0302, 171.0064
128.5123, 171.6473
128.9944, 172.2117
129.4765, 172.6744
129.9586, 173.2289
130.4407, 174.1911
130.9229, 175.3712
131.4050, 176.3917
131.8871, 177.0272
132.3692, 177.3812
132.8513, 177.7581
133.3334, 178.1050
133.8155, 178.5790
134.2977, 179.4495
134.7798, 180.5359
135.2619, 181.3697
135.7440, 181.4060
136.2261, 180.5149
136.7082, 180.1214
137.1904, 180.7084
137.6725, 181.4230
138.1546, 182.0725
138.6367, 182.5753
139.1188, 182.8382
139.6009, 182.6862
140.0831, 181.7785
140.5652, 181.3052
141.0473, 181.4263
141.5294, 181.7868
142.0115, 182.1897
142.4936, 182.5690
142.9758, 182.9269
143.4579, 183.2621
143.9400, 183.5567
144.4221, 183.8569
144.9042, 184.1696
145.3863, 184.4859
145.8685, 184.7654
146.3506, 184.9734
146.8327, 185.2027
147.3148, 185.7092
147.7969, 186.5977
148.2790, 187.4122
148.7612, 187.8902
149.2433, 188.1250
149.7254, 188.4518
150.2075, 189.0704
150.6896, 189.8038
151.1717, 190.3182
151.6539, 190.5023
152.1360, 190.7323
152.6181, 191.3841
153.1002, 192.5000
153.5823, 193.6136
154.0644, 194.6735
154.5466, 195.5708
155.0287, 196.1225
155.5108, 196.2085
155.9929, 196.1410
156.4750, 196.4620
156.9571, 197.2988
157.4393, 198.2714
157.9214, 199.3672
158.4035, 200.4940
158.8856, 201.5627
159.3677, 202.5332
159.8498, 203.4130
160.3320, 204.2168
160.8141, 204.7433
161.2962, 205.4503
161.7783, 206.5261
162.2604, 207.8020
162.7425, 209.0513
163.2247, 210.1417
163.7068, 211.0803
164.1889, 211.8885
164.6710, 212.1455
165.1531, 212.7098
165.6352, 214.0639
166.1174, 215.9541
166.5995, 217.7328
167.0816, 218.9295
167.5637, 219.5328
168.0458, 220.1636
168.5279, 220.6356
169.0101, 221.2803
169.4922, 222.4158
169.9743, 223.9901
170.4564, 225.5382
170.9385, 226.6714
171.4206, 227.4039
171.9028, 228.1817
172.3849, 229.0420
172.8670, 229.9452
173.3491, 230.8169
173.8312, 231.6360
174.3133, 232.5616
174.7955, 234.0088
175.2776, 235.7035
175.7597, 236.9585
176.2418, 237.1898
176.7239, 236.9046
177.2060, 237.1097
177.6882, 237.9756
178.1703, 239.0600
178.6524, 240.1217
179.1345, 241.1664
179.6166, 242.1951
180.0987, 243.2452
180.5809, 244.2949
181.0630, 245.1877
181.5451, 245.7299
182.0272, 246.3499
182.5093, 247.2931
182.9914, 248.4556
183.4736, 249.5944
183.9557, 250.4920
184.4378, 251.1366
184.9199, 251.8844
185.4020, 253.1463
185.8841, 254.1462
186.3663, 254.5883
186.8484, 254.5305
187.3305, 254.1668
187.8126, 253.5717
188.2947, 252.5703
188.7768, 252.4498
189.2590, 254.2033
189.7411, 255.8474
190.2232, 256.4304
190.7053, 255.9805
191.1874, 255.1373
191.6695, 254.5519
192.1517, 254.3039
192.6338, 254.0171
193.1159, 253.4353
193.5980, 253.0061
194.0801, 253.2019
194.5622, 253.9980
195.0444, 254.7723
195.5265, 254.7777
196.0086, 253.7055
196.4907, 253.0573
196.9728, 253.3015
197.4549, 253.7023
197.9371, 253.5298
198.4192, 252.6507
198.9013, 251.5662
199.3834, 250.8432
199.8655, 250.4778
200.3476, 250.1094
200.8298, 249.4451
201.3119, 248.8235
201.7940, 248.8596
202.2761, 249.7991
202.7582, 250.8103
203.2403, 250.7475
203.7225, 249.8694
204.2046, 249.3262
204.6867, 249.7778
205.1688, 250.8351
205.6509, 251.5714
206.1330, 251.7520
206.6152, 251.8528
207.0973, 252.3294
207.5794, 253.0710
208.0615, 253.6921
208.5436, 253.8238
209.0257, 253.6064
209.5079, 253.7436
209.9900, 254.4951
210.4721, 255.3307
210.9542, 255.8547
211.4363, 256.1810
211.9184, 256.6502
212.4006, 257.6645
212.8827, 259.1811
213.3648, 260.2255
213.8469, 260.1452
214.3290, 260.2452
214.8111, 261.2073
215.2933, 262.8085
215.7754, 264.4087
216.2575, 265.4260
216.7396, 265.8154
217.2217, 266.5178
217.7038, 267.8561
218.1859, 269.2452
218.6681, 270.5145
219.1502, 271.6885
219.6323, 272.8937
220.1144, 274.2409
220.5965, 275.7402
221.0786, 277.2774
221.5608, 278.9422
222.0429, 280.5805
222.5250, 282.0718
223.0071, 283.4785
223.4892, 284.9627
223.9713, 286.6756
224.4535, 288.6472
224.9356, 290.6410
225.4177, 292.4908
225.8998, 294.5113
226.3819, 297.0646
226.8640, 299.9704
227.3462, 302.6160
227.8283, 304.4172
228.3104, 305.2751
228.7925, 306.6349
229.2746, 308.6810
229.7567, 310.9546
230.2389, 313.2810
230.7210, 315.6367
231.2031, 318.0267
231.6852, 320.5269
232.1673, 323.0983
232.6494, 325.1079
233.1316, 325.7869
233.6137, 326.5970
234.0958, 328.5799
234.5779, 331.6094
235.0600, 334.6799
235.5421, 337.1077
236.0243, 338.9046
236.5064, 340.6982
236.9885, 342.3599
237.4706, 344.1069
237.9527, 346.1692
238.4348, 348.5195
238.9170, 350.8334
239.3991, 352.9413
239.8812, 354.8419
240.3633, 356.5978
240.8454, 358.1045
241.3275, 359.5780
241.8097, 361.2953
242.2918, 363.2466
242.7739, 364.9520
243.2560, 366.0562
243.7381, 366.7641
244.2202, 367.4806
244.7024, 368.1861
245.1845, 368.9832
245.6666, 370.1765
246.1487, 371.7831
246.6308, 372.8871
247.1129, 372.5069
247.5951, 371.6743
248.0772, 371.8151
248.5593, 373.4996
249.0414, 375.2093
249.5235, 375.2574
250.0056, 373.5270
250.4878, 371.7400
250.9699, 370.3304
251.4520, 369.2411
251.9341, 368.5382
252.4162, 368.2720
252.8983, 368.0829
253.3805, 367.6088
253.8626, 366.8318
254.3447, 365.9126
254.8268, 364.5213
255.3089, 363.2497
255.7910, 362.6156
256.2732, 362.6799
256.7553, 362.9017
257.2374, 362.6756
257.7195, 361.9257
258.2016, 361.2617
258.6837, 360.9537
259.1659, 360.6302
259.6480, 360.0506
260.1301, 359.2160
260.6122, 358.3466
261.0943, 357.6214
261.5764, 357.0276
262.0586, 356.6868
262.5407, 357.1901
263.0228, 357.4880
263.5049, 356.9773
263.9870, 355.7472
264.4691, 354.3785
264.9513, 353.4414
265.4334, 353.0050
265.9155, 352.4208
266.3976, 351.5610
266.8797, 350.6555
267.3618, 349.7713
267.8440, 348.9108
268.3261, 348.0338
268.8082, 347.0433
269.2903, 345.9167
269.7724, 345.2852
270.2545, 345.7023
270.7367, 346.1188
271.2188, 346.1801
271.7009, 346.0113
272.1830, 345.9399
272.6651, 346.2230
273.1472, 346.8326
273.6294, 347.2998
274.1115, 347.5735
274.5936, 347.7367
275.0757, 347.7326
275.5578, 347.6358
276.0399, 347.4873
276.5221, 347.2752
277.0042, 347.1042
277.4863, 347.5913
277.9684, 349.7936
278.4505, 351.5432
278.9326, 352.3531
279.4148, 352.6275
279.8969, 352.8595
280.3790, 353.2869
280.8611, 353.9333
281.3432, 354.8788
281.8253, 356.5542
282.3075, 358.0322
282.7896, 359.0905
283.2717, 359.9990
283.7538, 361.0954
284.2359, 362.4992
284.7180, 364.0137
285.2002, 365.2044
285.6823, 365.7417
286.1644, 366.3885
286.6465, 366.9927
287.1286, 367.7823
287.6107, 369.0355
288.0929, 370.8044
288.5750, 372.8109
289.0571, 374.6477
289.5392, 376.1357
290.0213, 377.8481
290.5034, 379.9596
290.9856, 382.1466
291.4677, 384.1252
291.9498, 385.8716
292.4319, 387.6248
292.9140, 389.6627
293.3961, 392.1178
293.8783, 394.2437
294.3604, 395.6727
294.8425, 397.1230
295.3246, 399.1743
295.8067, 401.7142
296.2888, 404.0565
296.7710, 405.5479
297.2531, 406.1161
297.7352, 407.2249
298.2173, 409.2513
298.6994, 411.3295
299.1815, 413.0260
299.6637, 414.4491
300.1458, 415.9812
300.6279, 417.8994
301.1100, 420.1377
301.5921, 422.2357
302.0742, 423.8677
302.5564, 425.7374
303.0385, 428.2744
303.5206, 431.1523
304.0027, 433.7749
304.4848, 435.8181
304.9669, 437.4974
305.4491, 439.4832
305.9312, 442.0509
306.4133, 444.5445
306.8954, 446.6916
307.3775, 448.7830
307.8596, 451.2810
308.3418, 454.3447
308.8239, 457.6035
309.3060, 460.3664
309.7881, 462.3560
310.2702, 464.4146
310.7523, 466.4916
311.2345, 468.7048
311.7166, 471.2091
312.1987, 474.0092
312.6808, 476.9290
313.1629, 479.7876
313.6451, 482.5754
314.1272, 485.1856
314.6093, 487.5584
315.0914, 489.7779
315.5735, 491.7516
316.0556, 493.5563
316.5378, 495.5772
317.0199, 498.2146
317.5020, 501.4774
317.9841, 504.4344
318.4662, 506.7237
318.9483, 509.1055
319.4305, 512.0284
319.9126, 515.3446
320.3947, 518.6229
320.8768, 521.5988
321.3589, 524.3434
321.8410, 527.2162
322.3232, 530.1952
322.8053, 533.3322
323.2874, 536.6964
323.7695, 540.2083
324.2516, 543.7606
324.7337, 547.2907
325.2159, 550.8010
325.6980, 554.2470
326.1801, 557.5909
326.6622, 560.9115
327.1443, 564.1218
327.6264, 567.3638
328.1086, 570.9486
328.5907, 574.9065
329.0728, 578.7070
329.5549, 581.5677
330.0370, 582.9438
330.5191, 585.2134
331.0013, 589.4610
331.4834, 593.7259
331.9655, 596.3840
332.4476, 597.5461
332.9297, 598.6757
333.4118, 601.1052
333.8940, 604.9268
334.3761, 608.1611
334.8582, 610.3640
335.3403, 612.5628
335.8224, 615.3948
336.3045, 618.5569
336.7867, 621.3114
337.2688, 623.1666
337.7509, 624.3443
338.2330, 625.8790
338.7151, 628.2283
339.1972, 630.3687
339.6793, 632.2220
340.1614, 633.7687
340.6436, 634.9513
341.1257, 635.7614
341.6078, 636.3095
342.0899, 636.7959
342.5720, 637.0098
343.0541, 637.5579
343.5363, 638.8255
344.0184, 640.1625
344.5005, 641.0406
344.9826, 641.3923
345.4647, 641.5109
345.9468, 641.7292
346.4290, 642.1141
346.9111, 642.2526
347.3932, 642.1627
347.8753, 641.8609
348.3574, 641.3800
348.8395, 640.6931
349.3217, 639.6992
349.8038, 638.2976
350.2859, 636.5296
350.7680, 634.9398
351.2501, 634.0892
351.7322, 632.7606
352.2144, 630.3694
352.6965, 627.4836
353.1786, 625.0096
353.6607, 623.3546
354.1428, 621.9603
354.6249, 619.4091
355.1071, 614.4537
355.5892, 610.3766
356.0713, 608.0650
356.5534, 606.1086
357.0355, 603.4161
357.5176, 599.7949
357.9998, 595.7761
358.4819, 591.9916
358.9640, 588.4983
359.4461, 585.0098
359.9282, 581.5167
360.4103, 577.9988
360.8925, 574.2836
361.3746, 570.5184
361.8567, 567.1584
362.3388, 564.6451
362.8209, 562.8145
363.3030, 560.1188
363.7852, 555.7419
364.2673, 551.5002
364.7494, 547.8377
365.2315, 544.5208
365.7136, 541.3252
366.1957, 538.1653
366.6779, 534.9442
367.1600, 531.4140
367.6421, 527.2825
368.1242, 523.5967
368.6063, 520.7889
369.0884, 518.2448
369.5706, 515.6888
370.0527, 513.0245
370.5348, 510.1527
371.0169, 506.7414
371.4990, 502.7293
371.9811, 499.3982
372.4633, 497.4111
372.9454, 495.4790
373.4275, 492.8970
373.9096, 489.8997
374.3917, 487.0532
374.8738, 484.7354
375.3560, 482.8074
375.8381, 480.8649
376.3202, 478.8416
376.8023, 476.9520
377.2844, 475.2602
377.7665, 473.7499
378.2487, 472.5063
378.7308, 471.6199
379.2129, 470.6763
379.6950, 468.9521
380.1771, 466.3896
380.6592, 464.4511
381.1414, 463.8867
381.6235, 463.7322
382.1056, 463.0724
382.5877, 461.9175
383.0698, 460.9598
383.5519, 460.7413
384.0341, 461.0466
384.5162, 461.2226
384.9983, 461.2073
385.4804, 461.0780
385.9625, 460.9074
386.4446, 460.6700
386.9268, 460.2690
387.4089, 459.3315
387.8910, 458.4955
388.3731, 458.6327
388.8552, 459.7065
389.3373, 460.6958
389.8195, 461.1304
390.3016, 461.1808
390.7837, 461.2348
391.2658, 461.3016
391.7479, 461.3431
392.2300, 461.2792
392.7122, 461.1813
393.1943, 461.2025
393.6764, 461.3810
394.1585, 461.6823
394.6406, 462.1699
395.1227, 462.8571
395.6049, 463.2138
396.0870, 462.7211
396.5691, 462.1820
397.0512, 462.4100
397.5333, 463.3548
398.0154, 464.2541
398.4976, 464.5610
398.9797, 464.3994
399.4618, 464.5698
399.9439, 465.5833
400.4260, 466.2825
400.9081, 466.0086
401.3903, 465.2746
401.8724, 464.9843
402.3545, 465.4723
402.8366, 466.2105
403.3187, 466.2970
403.8008, 465.3710
404.2830, 464.5375
404.7651, 463.4739
405.2472, 462.7451
405.7293, 463.1320
406.2114, 464.3921
406.6935, 465.3607
407.1757, 465.0101
407.6578, 463.3795
408.1399, 461.9825
408.6220, 460.8619
409.1041, 459.9320
409.5862, 459.3406
410.0684, 458.8756
410.5505, 458.2454
411.0326, 457.3286
411.5147, 456.2482
411.9968, 455.2033
412.4789, 454.0612
412.9611, 453.2781
413.4432, 453.1685
413.9253, 453.1359
414.4074, 452.8611
414.8895, 452.3120
415.3716, 451.5861
415.8538, 450.6653
416.3359, 449.5851
416.8180, 448.9951
417.3001, 449.3939
417.7822, 449.5790
418.2643, 448.8175
418.7465, 447.7179
419.2286, 447.2081
419.7107, 447.7586
420.1928, 448.6210
420.6749, 448.5360
421.1570, 447.3336
421.6392, 446.4375
422.1213, 446.3891
422.6034, 446.6235
423.0855, 446.7592
423.5676, 446.7745
424.0497, 446.7022
424.5319, 446.4479
425.0140, 446.1255
425.4961, 446.1037
425.9782, 446.4931
426.4603, 446.8785
426.9424, 447.0027
427.4246, 446.9043
427.9067, 446.6035
428.3888, 445.8326
428.8709, 445.1989
429.3530, 445.3349
429.8351, 446.0819
430.3173, 446.7578
430.7994, 447.1949
431.2815, 447.3108
431.7636, 446.7100
432.2457, 445.2222
432.7278, 444.3250
433.2100, 444.9619
433.6921, 446.0072
434.1742, 446.3328
434.6563, 445.8182
435.1384, 444.7913
435.6205, 443.4442
436.1027, 441.8028
436.5848, 440.2270
437.0669, 439.0321
437.5490, 437.5423
438.0311, 435.5168
438.5132, 433.0707
438.9954, 430.3813
439.4775, 427.5214
439.9596, 424.4426
440.4417, 421.0831
440.9238, 417.3974
441.4059, 413.4843
441.8881, 408.7231
442.3702, 404.2843
442.8523, 401.1100
443.3344, 398.9352
443.8165, 396.7201
444.2986, 393.6660
444.7808, 389.9613
445.2629, 386.8778
445.7450, 385.1616
446.2271, 382.9188
446.7092, 379.1964
447.1913, 375.1647
447.6735, 371.9934
448.1556, 369.9902
448.6377, 368.4905
449.1198, 366.7398
449.6019, 364.7250
450.0840, 362.7823
450.5662, 360.9975
451.0483, 359.2061
451.5304, 357.0997
452.0125, 354.9180
452.4946, 353.2469
452.9767, 352.5926
453.4589, 352.3525
453.9410, 351.5145
454.4231, 350.0367
454.9052, 348.5990
455.3873, 347.4583
455.8694, 346.5060
456.3516, 345.5241
456.8337, 344.4767
457.3158, 343.6513
457.7979, 343.5379
458.2800, 343.6358
458.7621, 342.8844
459.2443, 341.0750
459.7264, 339.3506
460.2085, 338.7354
460.6906, 339.1350
461.1727, 339.1382
461.6548, 338.3163
462.1370, 337.5493
462.6191, 337.4341
463.1012, 337.6295
463.5833, 337.4351
464.0654, 336.5785
464.5475, 335.3594
465.0297, 334.2569
465.5118, 333.2434
465.9939, 332.4497
466.4760, 331.9307
466.9581, 331.5645
467.4402, 331.4275
467.9224, 331.3965
468.4045, 331.1430
468.8866, 330.4008
469.3687, 329.3366
469.8508, 328.7310
470.3329, 328.9347
470.8151, 329.0530
471.2972, 329.0946
471.7793, 328.9366
472.2614, 328.3353
472.7435, 327.3206
473.2256, 326.3547
473.7078, 325.9889
474.1899, 326.2040
474.6720, 326.2054
475.1541, 325.8361
475.6362, 325.4917
476.1183, 325.3255
476.6005, 325.3059
477.0826, 325.4445
477.5647, 325.8527
478.0468, 326.1593
478.5289, 325.8252
479.0110, 324.9300
479.4932, 324.2243
479.9753, 323.9085
480.4574, 323.8486
480.9395, 323.9101
481.4216, 324.0839
481.9037, 324.4013
482.3859, 325.0108
482.8680, 325.6710
483.3501, 326.2293
483.8322, 326.6541
484.3143, 326.8013
484.7964, 326.5349
485.2786, 326.0150
485.7607, 325.7257
486.2428, 325.7691
486.7249, 325.8441
487.2070, 325.8886
487.6891, 325.9655
488.1713, 326.1906
488.6534, 326.5414
489.1355, 326.8296
489.6176, 326.8733
490.0997, 326.6776
490.5818, 326.5054
491.0640, 326.0418
491.5461, 325.9845
492.0282, 326.9570
492.5103, 328.1578
492.9924, 328.5499
493.4745, 327.8659
493.9567, 326.9438
494.4388, 326.9690
494.9209, 328.0655
495.4030, 328.6994
495.8851, 328.5395
496.3672, 328.2253
496.8494, 328.0305
497.3315, 327.9326
497.8136, 327.8669
498.2957, 327.7781
498.7778, 327.7675
499.2599, 328.0931
499.7421, 328.7239
500.2242, 328.9944
500.7063, 328.5317
501.1884, 327.8886
501.6705, 327.8070
502.1526, 328.2510
502.6348, 328.5971
503.1169, 328.8019
503.5990, 328.7547
504.0811, 328.2092
504.5632, 327.2511
505.0453, 326.3559
505.5274, 325.7823
506.0096, 325.4384
506.4917, 325.0686
506.9738, 324.7898
507.4559, 324.2915
507.9380, 323.5751
508.4201, 322.6129
508.9023, 321.2588
509.3844, 319.5946
509.8665, 317.9496
510.3486, 316.6199
510.8307, 315.5450
511.3128, 314.2245
511.7950, 312.4431
512.2771, 310.7298
512.7592, 309.2802
513.2413, 307.8649
513.7234, 306.2194
514.2056, 304.3130
514.6877, 302.4756
515.1698, 301.0154
515.6519, 299.9121
516.1340, 299.0359
516.6161, 298.6826
517.0983, 297.9218
517.5804, 295.8082
518.0625, 293.0770
518.5446, 290.7193
519.0267, 288.9548
519.5089, 287.5582
519.9910, 286.6620
520.4731, 286.0048
520.9552, 284.7894
521.4373, 282.7647
521.9194, 280.5572
522.4016, 278.7337
522.8837, 277.3239
523.3658, 276.0538
523.8479, 275.0201
524.3300, 274.0225
524.8121, 273.1194
525.2943, 272.1576
525.7764, 270.7406
526.2585, 268.7516
526.7406, 266.6902
527.2227, 265.4204
527.7048, 265.2926
528.1870, 264.7068
528.6691, 263.2428
529.1512, 261.7783
529.6333, 260.6555
530.1154, 259.7729
530.5975, 258.9330
531.0797, 258.0499
531.5618, 257.1198
532.0439, 256.0569
532.5260, 254.8090
533.0081, 253.8732
533.4902, 253.5455
533.9724, 253.3107
534.4545, 252.8549
534.9366, 252.1855
535.4187, 251.3364
535.9008, 250.0576
536.3829, 248.8094
536.8651, 248.1742
537.3472, 248.0763
537.8293, 248.0680
538.3114, 248.0155
538.7935, 247.9106
539.2756, 247.7566
539.7578, 247.5785
540.2399, 247.2207
540.7220, 246.3653
541.2041, 245.5879
541.6862, 245.3502
542.1683, 245.5292
542.6505, 245.7779
543.1326, 245.9259
543.6147, 245.9092
544.0968, 245.5184
544.5789, 244.3591
545.0610, 243.6430
545.5432, 243.6457
546.0253, 243.8269
546.5074, 243.9946
546.9895, 244.0879
547.4716, 244.0112
547.9537, 243.6210
548.4359, 243.1680
548.9180, 243.3423
549.4001, 244.2923
549.8822, 244.8082
550.3643, 244.2151
550.8464, 243.3928
551.3286, 243.1992
551.8107, 243.5992
552.2928, 244.1407
552.7749, 244.8597
553.2570, 245.4972
553.7391, 245.7525
554.2213, 245.6507
554.7034, 245.3396
555.1855, 244.8235
555.6676, 244.2849
556.1497, 244.1129
556.6318, 244.5563
557.1140, 244.7950
557.5961, 244.5809
558.0782, 244.3637
558.5603, 244.5429
559.0424, 244.9712
559.5245, 245.1661
560.0067, 244.8289
560.4888, 244.2560
560.9709, 244.2664
561.4530, 245.1994
561.9351, 245.7569
562.4172, 245.5602
562.8994, 245.1384
563.3815, 244.5960
563.8636, 244.0367
564.3457, 243.7066
564.8278, 243.7925
565.3099, 244.1026
565.7921, 244.3820
566.2742, 244.6312
566.7563, 244.8551
567.2384, 245.0457
567.7205, 245.2253
568.2026, 245.3492
568.6848, 245.4077
569.1669, 245.7701
569.6490, 246.8686
570.1311, 247.9444
570.6132, 248.4658
571.0953, 248.5552
571.5775, 248.4977
572.0596, 248.4057
572.5417, 248.4587
573.0238, 249.0228
573.5059, 250.3910
573.9880, 251.3735
574.4702, 251.5502
574.9523, 251.7973
575.4344, 252.5436
575.9165, 253.5891
576.3986, 254.5483
576.8807, 255.2557
577.3629, 255.8353
577.8450, 256.3536
578.3271, 256.8160
578.8092, 257.7362
579.2913, 259.5032
579.7734, 261.1883
580.2556, 261.7990
580.7377, 261.7645
581.2198, 262.1779
581.7019, 263.5004
582.1840, 264.9738
582.6661, 266.1794
583.1483, 267.1908
583.6304, 268.1370
584.1125, 269.0522
584.5946, 269.9680
585.0767, 270.8876
585.5588, 271.7971
586.0409, 273.0757
586.5230, 275.1967
587.0051, 277.1077
587.4872, 278.5821
587.9694, 279.7314
588.4515, 280.6668
588.9336, 281.4265
589.4157, 281.9958
589.8978, 282.1393
590.3799, 281.9852
590.8621, 282.8559
591.3442, 285.2674
591.8263, 287.4545
592.3084, 288.5174
592.7905, 288.9959
593.2726, 289.3588
593.7548, 289.6086
594.2369, 290.0777
594.7190, 291.2805
595.2011, 292.6283
595.6832, 293.1043
596.1653, 292.7458
596.6475, 292.6220
597.1296, 293.4546
597.6117, 294.8199
598.0938, 295.5054
598.5759, 295.0580
599.0580, 294.6103
599.5402, 293.9359
600.0223, 293.4598
600.5044, 293.6686
600.9865, 294.3199
601.4686, 294.7389
601.9507, 294.5069
602.4329, 293.9063
602.9150, 293.5630
603.3971, 293.5338
603.8792, 293.3685
604.3613, 292.8505
604.8434, 292.3465
605.3256, 292.1023
605.8077, 292.0819
606.2898, 292.1833
606.7719, 292.5869
607.2540, 292.8575
607.7361, 292.5031
608.2183, 291.7529
608.7004, 291.2220
609.1825, 291.0804
609.6646, 291.0117
610.1467, 290.6604
610.6288, 290.0081
611.1110, 289.5298
611.5931, 289.3570
612.0752, 289.1817
612.5573, 288.9838
613.0394, 288.7237
613.5215, 288.3236
614.0037, 287.7908
614.4858, 287.2695
614.9679, 286.9005
615.4500, 286.6562
615.9321, 286.3871
616.4142, 286.0971
616.8964, 285.7653
617.3785, 285.3513
617.8606, 284.9078
618.3427, 284.5750
618.8248, 284.3800
619.3069, 283.8862
619.7891, 282.6917
620.2712, 281.2964
620.7533, 280.1537
621.2354, 279.2615
621.7175, 278.5063
622.1996, 277.8493
622.6818, 277.2188
623.1639, 276.5146
623.6460, 275.8503
624.1281, 274.7615
624.6102, 272.6179
625.0923, 270.7544
625.5745, 270.0898
626.0566, 269.9498
626.5387, 269.1352
627.0208, 267.1901
627.5029, 265.0201
627.9850, 263.8016
628.4672, 263.3674
628.9493, 262.4872
629.4314, 260.9376
629.9135, 259.3347
630.3956, 257.9627
630.8777, 256.8469
631.3599, 256.0628
631.8420, 255.9389
632.3241, 255.4127
632.8062, 253.7268
633.2883, 251.7651
633.7704, 250.4205
634.2526, 249.7036
634.7347, 249.2189
635.2168, 248.7469
635.6989, 248.1817
636.1810, 247.1548
636.6631, 245.3864
637.1453, 243.8841
637.6274, 242.7091
638.1095, 241.8414
638.5916, 241.5330
639.0737, 241.5117
639.5558, 241.0881
640.0380, 239.7677
640.5201, 238.4903
641.0022, 238.3737
641.4843, 239.1116
641.9664, 239.6978
642.4485, 239.9630
642.9307, 239.8754
643.4128, 239.2959
643.8949, 238.3097
644.3770, 237.7003
644.8591, 237.4681
645.3412, 237.5518
645.8234, 238.2070
646.3055, 238.9904
646.7876, 239.4393
647.2697, 239.5975
647.7518, 239.8758
648.2339, 240.5930
648.7161, 241.5708
649.1982, 242.4055
649.6803, 243.1183
650.1624, 243.4760
650.6445, 243.0417
651.1266, 242.7152
651.6088, 243.4133
652.0909, 244.8993
652.5730, 246.2393
653.0551, 247.0887
653.5372, 247.9009
654.0193, 249.1814
654.5015, 250.5427
654.9836, 251.1142
655.4657, 250.7932
655.9478, 250.5446
656.4299, 251.2992
656.9120, 252.9508
657.3942, 254.4526
657.8763, 255.7770
658.3584, 256.9761
658.8405, 258.0782
659.3226, 259.0552
659.8047, 259.8548
660.2869, 260.4988
660.7690, 261.0661
661.2511, 261.5177
661.7332, 262.0010
662.2153, 262.8370
662.6974, 263.9310
663.1796, 264.6878
663.6617, 264.8719
664.1438, 265.0294
664.6259, 265.7538
665.1080, 267.0513
665.5901, 268.2641
666.0723, 269.4092
666.5544, 270.4608
667.0365, 271.4402
667.5186, 272.3074
668.0007, 272.9790
668.4828, 273.4789
668.9650, 273.9670
669.4471, 274.6111
669.9292, 275.2909
670.4113, 275.5294
670.8934, 275.2267
671.3755, 275.4166
671.8577, 276.7261
672.3398, 278.1439
672.8219, 278.6265
673.3040, 278.3023
673.7861, 277.6881
674.2682, 276.6483
674.7504, 275.5722
675.2325, 274.6694
675.7146, 273.8437
676.1967, 273.0853
676.6788, 272.3235
677.1609, 271.2039
677.6431, 269.3692
678.1252, 266.9436
678.6073, 264.5700
679.0894, 262.2190
679.5715, 260.0375
680.0536, 258.3582
680.5358, 256.6060
681.0179, 254.4829
681.5000, 251.9636
681.9821, 248.9539
682.4642, 244.9390
682.9464, 240.9949
683.4285, 238.1536
683.9106, 236.0005
684.3927, 233.5051
684.8748, 230.4562
685.3569, 227.4106
685.8391, 224.8933
686.3212, 222.8053
686.8033, 220.3291
687.2854, 216.9257
687.7675, 214.0022
688.2496, 212.1350
688.7318, 210.3765
689.2139, 208.0886
689.6960, 205.3389
690.1781, 202.5133
690.6602, 199.7115
691.1423, 197.0750
691.6245, 194.9186
692.1066, 193.1109
692.5887, 191.0761
693.0708, 188.6830
693.5529, 186.2440
694.0350, 183.9521
694.5172, 181.8247
694.9993, 179.8860
695.4814, 178.1201
695.9635, 176.5805
696.4456, 175.5512
696.9277, 174.5130
697.4099, 173.0081
697.8920, 171.1675
698.3741, 169.4333
698.8562, 168.0298
699.3383, 166.7877
699.8204, 165.4566
700.3026, 164.0571
700.7847, 162.7391
701.2668, 161.5168
701.7489, 160.4139
702.2310, 159.4873
702.7131, 158.6898
703.1953, 157.8311
703.6774, 156.8574
704.1595, 155.9344
704.6416, 155.1028
705.1237, 154.3113
705.6058, 153.5091
706.0880, 152.7235
706.5701, 151.9844
707.0522, 151.3086
707.5343, 150.7748
708.0164, 150.6497
708.4985, 150.8806
708.9807, 150.5411
709.4628, 149.3160
709.9449, 148.4166
710.4270, 148.8033
710.9091, 149.7880
711.3912, 149.8585
711.8734, 148.7373
712.3555, 147.8473
712.8376, 147.6878
713.3197, 147.6313
713.8018, 147.1750
714.2839, 146.5112
714.7661, 146.1192
715.2482, 146.1609
715.7303, 146.2826
716.2124, 146.0162
716.6945, 145.3922
717.1766, 144.8430
717.6588, 144.3311
718.1409, 144.0409
718.6230, 144.2121
719.1051, 144.5105
719.5872, 144.5005
720.0693, 144.1798
720.5515, 143.7530
721.0336, 143.3343
721.5157, 142.7464
721.9978, 141.6663
722.4799, 140.4259
722.9620, 139.6580
723.4442, 139.4554
723.9263, 139.2361
724.4084, 138.4128
724.8905, 137.1068
725.3726, 135.9384
725.8547, 134.9520
726.3369, 133.9370
726.8190, 132.8085
727.3011, 131.6698
727.7832, 130.6710
728.2653, 129.7629
728.7474, 128.7232
729.2296, 127.4910
729.7117, 126.1365
730.1938, 124.5434
730.6759, 122.9309
731.1580, 121.6008
731.6401, 120.5451
732.1223, 119.5318
732.6044, 118.4119
733.0865, 117.1822
733.5686, 115.7231
734.0507, 113.9281
734.5328, 112.7107
735.0150, 112.5276
735.4971, 112.3631
735.9792, 111.4837
736.4613, 110.1591
736.9434, 108.8977
737.4255, 107.7708
737.9077, 106.6226
738.3898, 105.2893
738.8719, 103.9972
739.3540, 102.9815
739.8361, 102.1730
740.3182, 101.3366
740.8004, 100.3641
741.2825, 99.34450
741.7646, 98.41598
742.2467, 97.57629
742.7288, 96.66125
743.2109, 95.58778
743.6931, 94.69248
744.1752, 94.28495
744.6573, 94.00616
745.1394, 93.30592
745.6215, 92.15401
746.1036, 91.12589
746.5858, 90.49938
747.0679, 89.85454
747.5500, 88.82929
748.0321, 87.69139
748.5142, 86.87753
748.9963, 86.45341
749.4785, 86.11233
749.9606, 85.57982
750.4427, 84.91882
750.9248, 84.34265
751.4069, 83.85649
751.8890, 83.42324
752.3712, 83.06895
752.8533, 82.70323
753.3354, 82.21675
753.8175, 81.63999
754.2996, 81.15421
754.7817, 80.86043
755.2639, 80.51803
755.7460, 80.00210
756.2281, 79.46842
756.7102, 79.06664
757.1923, 78.76775
757.6744, 78.44538
758.1566, 78.03316
758.6387, 77.58903
759.1208, 77.18883
759.6029, 76.82891
760.0850, 76.51868
760.5671, 76.26707
761.0493, 76.01023
761.5314, 75.73079
762.0135, 75.40624
762.4956, 74.97707
762.9777, 74.38764
763.4598, 73.89499
763.9420, 73.48275
764.4241, 73.19498
764.9062, 73.20885
765.3883, 73.27945
765.8704, 73.03838
766.3525, 72.45872
766.8347, 71.92207
767.3168, 71.78787
767.7989, 71.84502
768.2810, 71.67142
768.7631, 71.29940
769.2452, 71.00590
769.7274, 70.87450
770.2095, 70.72666
770.6916, 70.36370
771.1737, 69.83029
771.6558, 69.51585
772.1379, 69.67781
772.6201, 69.67546
773.1022, 69.31252
773.5843, 68.93296
774.0664, 68.72385
774.5485, 68.66503
775.0306, 68.71217
775.5128, 68.88949
775.9949, 68.97097
776.4770, 68.67848
776.9591, 68.20755
777.4412, 67.92043
777.9233, 67.81364
778.4055, 67.66158
778.8876, 67.35276
779.3697, 67.01175
779.8518, 66.85040
780.3339, 66.90255
780.8160, 66.82024
781.2982, 66.47991
781.7803, 66.20762
782.2624, 66.17114
782.7445, 66.18725
783.2266, 66.09332
783.7087, 65.89202
784.1909, 65.69017
784.6730, 65.50974
785.1551, 65.35410
785.6372, 65.28145
786.1193, 65.20899
786.6014, 64.93699
787.0836, 64.49930
787.5657, 64.22763
788.0478, 64.38181
788.5299, 64.71706
789.0120, 64.63566
789.4941, 64.09724
789.9763, 63.61932
790.4584, 63.23641
790.9405, 62.94490
791.4226, 62.77453
791.9047, 62.68194
792.3868, 62.57060
792.8690, 62.42260
793.3511, 62.32914
793.8332, 62.36226
794.3153, 62.39002
794.7974, 62.26441
795.2795, 62.12341
795.7617, 62.28811
796.2438, 62.75129
796.7259, 62.97616
797.2080, 62.35942
797.6901, 61.35844
798.1722, 60.93119
798.6544, 61.02121
799.1365, 61.19485
799.6186, 61.38824
800.1007, 61.38244
800.5828, 60.90993
801.0649, 60.12183
801.5471, 59.77746
802.0292, 60.29458
802.5113, 60.54622
802.9934, 60.36427
803.4755, 60.08178
803.9576, 59.77491
804.4398, 59.50587
804.9219, 59.38399
805.4040, 59.44496
805.8861, 59.51481
806.3682, 59.48419
806.8503, 59.40968
807.3325, 59.39336
807.8146, 59.38971
808.2967, 59.23423
808.7788, 58.88410
809.2609, 58.49703
809.7430, 58.22721
810.2252, 58.06776
810.7073, 58.00487
811.1894, 58.10279
811.6715, 58.02744
812.1536, 57.59437
812.6357, 57.13927
813.1179, 56.94985
813.6000, 56.94590
814.0821, 56.87435
814.5642, 56.62838
815.0463, 56.50895
815.5284, 56.68685
816.0106, 56.92251
816.4927, 57.11977
816.9748, 57.22370
817.4569, 57.12238
817.9390, 56.79155
818.4211, 56.44445
818.9033, 56.30722
819.3854, 56.30019
819.8675, 56.21039
820.3496, 56.05147
820.8317, 56.01984
821.3138, 56.20172
821.7960, 56.30709
822.2781, 55.99590
822.7602, 55.34358
823.2423, 55.02823
823.7244, 55.29263
824.2065, 55.45037
824.6887, 55.43805
825.1708, 55.31219
825.6529, 54.96572
826.1350, 54.56107
826.6171, 54.42244
827.0992, 54.65911
827.5814, 54.94212
828.0635, 55.17636
828.5456, 55.33064
829.0277, 55.37801
829.5098, 55.32179
829.9919, 55.14000
830.4741, 54.84047
830.9562, 54.54137
831.4383, 54.35825
831.9204, 54.26477
832.4025, 54.15668
832.8846, 54.02827
833.3668, 54.00851
833.8489, 54.16917
834.3310, 54.29865
834.8131, 54.19999
835.2952, 53.94457
835.7773, 53.82103
836.2595, 53.93527
836.7416, 53.99726
837.2237, 54.00621
837.7058, 53.96259
838.1879, 53.83075
838.6700, 53.66428
839.1522, 53.52965
839.6343, 53.44176
840.1164, 53.38599
840.5985, 53.30896
841.0806, 53.29792
841.5627, 53.53715
842.0449, 53.89516
842.5270, 54.04134
843.0091, 53.93008
843.4912, 53.81659
843.9733, 53.90653
844.4554, 54.09239
844.9376, 54.04734
845.4197, 53.73168
845.9018, 53.65208
846.3839, 53.97675
846.8660, 54.18291
847.3481, 53.90166
847.8303, 53.40068
848.3124, 53.17070
848.7945, 53.25762
849.2766, 53.36497
849.7587, 53.47565
850.2408, 53.61324
850.7230, 53.91119
851.2051, 54.15257
851.6872, 53.99154
852.1693, 53.53227
852.6514, 53.33049
853.1335, 53.75166
853.6157, 54.30770
854.0978, 54.52589
854.5799, 54.56032
855.0620, 54.72500
855.5441, 55.00907
856.0262, 55.14435
856.5084, 54.99441
856.9905, 54.78745
857.4726, 54.90470
857.9547, 55.33377
858.4368, 55.52082
858.9189, 55.35645
859.4011, 55.38625
859.8832, 55.82247
860.3653, 56.43214
860.8474, 57.03810
861.3295, 57.62886
861.8116, 58.12655
862.2938, 58.50076
862.7759, 58.82670
863.2580, 59.06069
863.7401, 59.29831
864.2222, 59.55409
864.7043, 59.87302
865.1865, 60.33547
865.6686, 60.96378
866.1507, 61.64367
866.6328, 62.33086
867.1149, 63.00496
867.5970, 63.63142
868.0792, 64.22470
868.5613, 64.79214
869.0434, 65.34588
869.5255, 65.96274
870.0076, 66.71188
870.4897, 67.54446
870.9719, 68.32666
871.4540, 69.05176
871.9361, 69.84827
872.4182, 70.73347
872.9003, 71.67311
873.3824, 72.69645
873.8646, 73.70530
874.3467, 74.48502
874.8288, 74.92159
875.3109, 75.72665
875.7930, 77.27783
876.2751, 78.67554
876.7573, 79.67077
877.2394, 80.47400
877.7215, 81.17030
878.2036, 81.83652
878.6857, 82.67507
879.1678, 83.79616
879.6500, 84.97081
880.1321, 86.16492
880.6142, 87.26579
881.0963, 88.06125
881.5784, 88.66902
882.0605, 89.44636
882.5427, 90.49950
883.0248, 91.54742
883.5069, 92.31749
883.9890, 92.85451
884.4711, 93.25164
884.9532, 93.51465
885.4354, 93.71986
885.9175, 93.87211
886.3996, 94.05745
886.8817, 94.34620
887.3638, 94.70003
887.8459, 95.01649
888.3281, 95.32594
888.8102, 95.50767
889.2923, 95.60319
889.7744, 95.50681
890.2565, 94.91335
890.7386, 94.29606
891.2208, 94.26572
891.7029, 94.76842
892.1850, 94.93421
892.6671, 94.43192
893.1492, 93.76495
893.6313, 92.96652
894.1135, 92.20177
894.5956, 91.64051
895.0777, 91.23697
895.5598, 90.88988
896.0419, 90.56483
896.5240, 90.11497
897.0062, 89.22475
897.4883, 88.23314
897.9704, 87.79208
898.4525, 87.74609
898.9346, 87.51680
899.4167, 86.95779
899.8989, 86.23904
900.3810, 85.47723
900.8631, 84.70898
901.3452, 84.04016
901.8273, 83.47850
902.3094, 82.89778
902.7916, 82.28224
903.2737, 81.67241
903.7558, 81.10800
904.2379, 80.52165
904.7200, 79.74217
905.2021, 78.70310
905.6843, 78.12124
906.1664, 78.58353
906.6485, 78.68453
907.1306, 77.97264
907.6127, 77.06762
908.0948, 76.31258
908.5770, 75.71896
909.0591, 75.28686
909.5412, 75.09116
910.0233, 74.73769
910.5054, 73.87778
910.9875, 72.96917
911.4697, 72.38290
911.9518, 71.99320
912.4339, 71.56931
912.9160, 71.06886
913.3981, 70.58068
913.8802, 70.16463
914.3624, 69.79813
914.8445, 69.47013
915.3265, 69.16304
915.8087, 68.78458
916.2908, 68.34799
916.7729, 68.06788
917.2550, 68.05138
917.7371, 68.08172
918.2192, 67.84386
918.7014, 67.36729
919.1835, 67.01369
919.6656, 66.80318
920.1477, 66.60811
920.6298, 66.41422
921.1119, 66.19444
921.5941, 65.90806
922.0762, 65.58924
922.5583, 65.34422
923.0404, 65.18194
923.5225, 65.07053
924.0046, 65.16949
924.4868, 65.11973
924.9689, 64.60443
925.4510, 64.04058
925.9331, 63.91110
926.4152, 64.15961
926.8973, 64.27352
927.3795, 63.99754
927.8616, 63.76802
928.3437, 63.93102
928.8258, 64.08397
929.3079, 63.74134
929.7900, 63.15040
930.2722, 62.86550
930.7543, 63.03081
931.2364, 63.26646
931.7185, 63.33642
932.2006, 63.25829
932.6827, 62.93682
933.1649, 62.51222
933.6470, 62.36954
934.1291, 62.52511
934.6112, 62.69795
935.0933, 62.73346
935.5754, 62.62829
936.0576, 62.29838
936.5397, 61.78536
937.0218, 61.51020
937.5039, 61.47796
937.9860, 61.64503
938.4681, 62.05027
938.9503, 62.43324
939.4324, 62.55920
939.9145, 62.47593
940.3966, 62.36395
940.8787, 62.20158
941.3608, 62.06057
941.8430, 61.85323
942.3251, 61.80737
942.8072, 62.07746
943.2893, 62.51123
943.7714, 62.97971
944.2535, 63.47311
944.7357, 63.82312
945.2178, 63.82840
945.6999, 63.95565
946.1820, 64.46345
946.6641, 64.95779
947.1462, 65.12887
947.6284, 65.11961
948.1105, 65.18491
948.5926, 65.38003
949.0747, 65.65326
949.5568, 66.05071
950.0389, 66.44096
950.5211, 66.72951
951.0032, 66.95199
951.4853, 67.07970
951.9674, 67.18828
952.4495, 67.53159
952.9316, 68.23922
953.4138, 68.97093
953.8959, 69.37458
954.3780, 69.54212
954.8601, 69.55789
955.3422, 69.49313
955.8243, 69.58987
956.3065, 69.90241
956.7886, 70.35021
957.2707, 70.89771
957.7528, 71.44792
958.2349, 71.78151
958.7170, 71.90913
959.1992, 72.00521
959.6813, 72.06470
960.1634, 72.25330
960.6455, 72.64908
961.1276, 73.12671
961.6097, 73.55461
962.0919, 73.94071
962.5740, 74.33549
963.0561, 74.81131
963.5382, 75.06257
964.0203, 74.94865
964.5024, 74.81885
964.9846, 74.84956
965.4667, 74.95009
965.9488, 74.98740
966.4309, 74.95553
966.9130, 74.94914
967.3951, 74.98017
967.8773, 75.01990
968.3594, 75.16917
968.8415, 75.22090
969.3236, 74.97571
969.8057, 74.57023
970.2878, 74.25911
970.7700, 74.09007
971.2521, 73.89162
971.7342, 73.64686
972.2163, 73.31289
972.6984, 72.79178
973.1805, 72.22979
973.6627, 71.81111
974.1448, 71.48266
974.6269, 71.03822
975.1090, 70.39159
975.5911, 69.75359
976.0732, 69.32038
976.5554, 68.93445
977.0375, 68.36111
977.5196, 67.73557
978.0017, 67.41246
978.4838, 67.35549
978.9659, 67.08250
979.4481, 66.28452
979.9302, 65.36402
980.4123, 64.83082
980.8944, 64.56499
981.3765, 64.32687
981.8586, 64.08830
982.3408, 63.78471
982.8229, 63.40065
983.3050, 62.96798
983.7871, 62.50596
984.2692, 62.04533
984.7513, 61.65277
985.2335, 61.32880
985.7156, 61.09555
986.1977, 60.95771
986.6798, 60.81967
987.1619, 60.63854
987.6440, 60.48883
988.1262, 60.45055
988.6083, 60.50776
989.0904, 60.59520
989.5725, 60.73168
990.0546, 60.80999
990.5367, 60.82011
991.0189, 60.76965
991.5010, 60.61089
991.9831, 60.46442
992.4652, 60.50203
992.9473, 60.71434
993.4294, 60.85215
993.9116, 60.83105
994.3937, 60.89077
994.8758, 61.15351
995.3579, 61.37292
995.8400, 61.42147
996.3221, 61.36713
996.8043, 61.23277
997.2864, 61.01238
997.7685, 61.06431
998.2506, 61.87540
998.7327, 62.31590
999.2148, 61.72926
999.6970, 61.13526
1000.179, 61.23414
1000.661, 61.75354
1001.143, 62.24353
1001.625, 62.63276
1002.108, 62.84597
1002.590, 62.58764
1003.072, 62.48863
1003.554, 62.95131
1004.036, 63.60190
1004.518, 64.19534
1005.000, 64.67019
1005.482, 64.93865
1005.964, 64.97794
1006.447, 65.09673
1006.929, 65.60143
1007.411, 66.11884
1007.893, 66.28156
1008.375, 66.33052
1008.857, 66.58648
1009.339, 67.03551
1009.821, 67.50589
1010.304, 67.93465
1010.786, 68.39692
1011.268, 69.03611
1011.750, 69.68413
1012.232, 70.04259
1012.714, 70.28166
1013.196, 70.76152
1013.678, 71.49014
1014.160, 72.25100
1014.643, 72.94301
1015.125, 73.61695
1015.607, 74.29646
1016.089, 75.02219
1016.571, 76.00345
1017.053, 77.11135
1017.535, 77.78623
1018.017, 78.00650
1018.500, 78.39487
1018.982, 79.31251
1019.464, 80.45551
1019.946, 81.47794
1020.428, 82.35075
1020.910, 82.82919
1021.392, 82.96337
1021.874, 83.23607
1022.356, 83.74448
1022.839, 84.37104
1023.321, 85.05492
1023.803, 85.73913
1024.285, 86.27026
1024.767, 86.68221
1025.249, 87.52702
1025.731, 88.84795
1026.213, 89.82529
1026.696, 90.25292
1027.178, 90.51927
1027.660, 90.86887
1028.142, 91.26699
1028.624, 91.63412
1029.106, 91.96534
1029.588, 92.39796
1030.070, 92.92274
1030.552, 93.66430
1031.035, 94.79783
1031.517, 95.67319
1031.999, 95.72910
1032.481, 95.37399
1032.963, 95.50489
1033.445, 96.18152
1033.927, 96.85526
1034.409, 97.50607
1034.891, 98.21917
1035.374, 99.06583
1035.856, 99.88039
1036.338, 100.5442
1036.820, 101.1030
1037.302, 101.6693
1037.784, 102.2844
1038.266, 102.6574
1038.748, 102.5079
1039.231, 102.6320
1039.713, 103.3168
1040.195, 104.1470
1040.677, 104.8958
1041.159, 105.5720
1041.641, 106.1539
1042.123, 106.5433
1042.605, 107.3071
1043.088, 108.8834
1043.570, 110.2074
1044.052, 110.9120
1044.534, 111.5166
1045.016, 112.4043
1045.498, 113.4038
1045.980, 114.1264
1046.462, 114.4852
1046.944, 115.0834
1047.427, 116.3997
1047.909, 117.3468
1048.391, 117.1885
1048.873, 117.1058
1049.355, 118.0452
1049.837, 119.5270
1050.319, 120.6310
1050.801, 121.2456
1051.283, 121.9056
1051.766, 122.8638
1052.248, 123.6401
1052.730, 123.9302
1053.212, 124.1838
1053.694, 124.8026
1054.176, 125.5563
1054.658, 126.0101
1055.140, 126.1116
1055.623, 126.2076
1056.105, 126.1983
1056.587, 126.4442
1057.069, 127.6527
1057.551, 128.5487
1058.033, 128.0251
1058.515, 126.7009
1058.997, 125.6005
1059.479, 124.8573
1059.962, 124.0106
1060.444, 122.8000
1060.926, 121.6384
1061.408, 120.8102
1061.890, 119.9400
1062.372, 118.6962
1062.854, 117.2804
1063.336, 116.0957
1063.818, 115.1336
1064.301, 113.8326
1064.783, 111.5636
1065.265, 109.6899
1065.747, 109.0544
1066.229, 108.6397
1066.711, 107.7346
1067.193, 106.5870
1067.675, 105.5599
1068.158, 104.7061
1068.640, 103.9644
1069.122, 103.2675
1069.604, 102.7920
1070.086, 102.7155
1070.568, 102.7775
1071.050, 102.9206
1071.532, 103.0174
1072.015, 102.8912
1072.497, 102.5677
1072.979, 102.2076
1073.461, 101.7665
1073.943, 101.6049
1074.425, 102.0618
1074.907, 102.6554
1075.389, 103.1231
1075.871, 103.5075
1076.354, 103.7814
1076.836, 104.0413
1077.318, 104.6186
1077.800, 105.7118
1078.282, 106.5730
1078.764, 106.7491
1079.246, 106.7177
1079.728, 106.5791
1080.210, 106.5335
1080.693, 106.7751
1081.175, 107.2840
1081.657, 107.9552
1082.139, 108.7690
1082.621, 109.7056
1083.103, 110.9289
1083.585, 112.0649
1084.067, 112.8024
1084.549, 113.4550
1085.032, 114.3762
1085.514, 115.4340
1085.996, 116.2739
1086.478, 116.8276
1086.960, 117.4276
1087.442, 118.1349
1087.924, 119.0241
1088.406, 120.2596
1088.889, 121.5612
1089.371, 122.7188
1089.853, 123.7735
1090.335, 124.8037
1090.817, 125.8299
1091.299, 126.9143
1091.781, 128.0302
1092.263, 129.2907
1092.745, 130.8639
1093.228, 132.4631
1093.710, 133.8290
1094.192, 135.1280
1094.674, 136.4584
1095.156, 137.9151
1095.638, 139.8783
1096.120, 142.8162
1096.602, 145.3324
1097.084, 146.4699
1097.567, 147.5694
1098.049, 149.2691
1098.531, 151.3991
1099.013, 153.9230
1099.495, 156.6741
1099.977, 159.2111
1100.459, 161.3629
1100.941, 163.6061
1101.424, 165.9942
1101.906, 168.6176
1102.388, 171.6003
1102.870, 174.7695
1103.352, 177.9361
1103.834, 181.2083
1104.316, 184.9599
1104.798, 189.3400
1105.281, 193.1476
1105.763, 195.5254
1106.245, 198.1572
1106.727, 201.5435
1107.209, 205.2617
1107.691, 209.1636
1108.173, 213.1458
1108.655, 217.1497
1109.137, 221.1546
1109.620, 224.9808
1110.102, 228.5337
1110.584, 231.9877
1111.066, 235.4366
1111.548, 238.6900
1112.030, 241.6166
1112.512, 244.3487
1112.994, 247.1048
1113.476, 249.8371
1113.959, 252.2947
1114.441, 254.4774
1114.923, 256.3855
1115.405, 257.9453
1115.887, 259.3428
1116.369, 260.9537
1116.851, 262.0827
1117.333, 261.8958
1117.816, 260.8993
1118.298, 260.4725
1118.780, 260.8197
1119.262, 260.7697
1119.744, 260.6118
1120.226, 259.4496
1120.708, 256.5802
1121.190, 253.5491
1121.672, 251.2517
1122.155, 249.3392
1122.637, 247.2498
1123.119, 244.9990
1123.601, 243.0310
1124.083, 241.4834
1124.565, 239.8040
1125.047, 237.8496
1125.529, 235.9748
1126.011, 234.3149
1126.494, 232.7913
1126.976, 231.2358
1127.458, 229.8056
1127.940, 229.2527
1128.422, 229.6969
1128.904, 230.3461
1129.386, 231.3022
1129.868, 231.6546
1130.351, 230.9699
1130.833, 230.5074
1131.315, 231.2700
1131.797, 232.6689
1132.279, 233.4311
1132.761, 233.6326
1133.243, 234.6770
1133.725, 236.5691
1134.208, 238.3802
1134.690, 239.9665
1135.172, 241.4309
1135.654, 242.8184
1136.136, 244.2424
1136.618, 245.8678
1137.100, 247.6052
1137.582, 249.0762
1138.064, 250.3711
1138.547, 252.0338
1139.029, 254.0667
1139.511, 256.1115
1139.993, 258.0524
1140.475, 259.9876
1140.957, 261.9899
1141.439, 264.0082
1141.921, 265.8695
1142.403, 267.7206
1142.886, 269.9238
1143.368, 272.4122
1143.850, 275.0652
1144.332, 277.7616
1144.814, 280.0956
1145.296, 281.8722
1145.778, 283.5746
1146.260, 285.5700
1146.743, 287.8824
1147.225, 290.7061
1147.707, 293.7678
1148.189, 296.6269
1148.671, 299.3381
1149.153, 302.2415
1149.635, 305.4065
1150.117, 308.5727
1150.599, 311.6032
1151.082, 314.5548
1151.564, 317.3591
1152.046, 320.1955
1152.528, 323.1595
1153.010, 326.2940
1153.492, 329.6627
1153.974, 333.2110
1154.456, 336.7005
1154.938, 340.0154
1155.421, 343.5502
1155.903, 347.7177
1156.385, 351.8118
1156.867, 355.3226
1157.349, 358.7665
1157.831, 362.7180
1158.313, 366.8951
1158.795, 370.6667
1159.278, 373.9615
1159.760, 377.6182
1160.242, 381.8959
1160.724, 386.3539
1161.206, 390.9894
1161.688, 395.7014
1162.170, 400.2735
1162.652, 405.0227
1163.135, 410.4087
1163.617, 416.1909
1164.099, 421.3895
1164.581, 425.6233
1165.063, 430.5576
1165.545, 436.5269
1166.027, 442.3854
1166.509, 447.8008
1166.991, 453.2555
1167.474, 459.1129
1167.956, 465.1356
1168.438, 470.9903
1168.920, 476.6549
1169.402, 481.9750
1169.884, 486.8802
1170.366, 492.4534
1170.848, 498.8747
1171.330, 505.2738
1171.813, 511.3348
1172.295, 517.5020
1172.777, 524.1929
1173.259, 531.2059
1173.741, 538.2852
1174.223, 545.3044
1174.705, 551.4749
1175.187, 557.0354
1175.670, 563.6275
1176.152, 571.4313
1176.634, 579.4764
1177.116, 587.3307
1177.598, 594.8192
1178.080, 601.6608
1178.562, 608.2769
1179.044, 615.2801
1179.526, 622.5813
1180.009, 630.3427
1180.491, 638.2745
1180.973, 645.5364
1181.455, 652.1310
1181.937, 658.8258
1182.419, 666.0309
1182.901, 673.3590
1183.383, 680.5306
1183.865, 687.6595
1184.348, 694.6636
1184.830, 701.7656
1185.312, 709.4765
1185.794, 717.4240
1186.276, 724.5630
1186.758, 730.6990
1187.240, 737.0048
1187.722, 743.8005
1188.205, 750.8479
1188.687, 758.7258
1189.169, 766.0530
1189.651, 771.6514
1190.133, 776.7000
1190.615, 782.5332
1191.097, 789.0127
1191.579, 795.4896
1192.062, 801.9308
1192.544, 808.4177
1193.026, 815.0163
1193.508, 821.5866
1193.990, 828.3292
1194.472, 834.4921
1194.954, 839.4293
1195.436, 844.0706
1195.918, 849.7612
1196.401, 856.1844
1196.883, 861.3593
1197.365, 865.1888
1197.847, 870.2906
1198.329, 876.8373
1198.811, 883.2433
1199.293, 889.0978
1199.775, 894.5861
1200.257, 899.8859
1200.740, 904.9148
1201.222, 909.4327
1201.704, 913.7205
1202.186, 918.6545
1202.668, 923.9814
1203.150, 928.9885
1203.632, 933.6607
1204.114, 938.0756
1204.597, 942.4123
1205.079, 947.4763
1205.561, 954.0487
1206.043, 960.7177
1206.525, 966.4144
1207.007, 971.4802
1207.489, 975.5408
1207.971, 979.6534
1208.453, 985.6846
1208.936, 992.8544
1209.418, 998.7037
1209.900, 1002.608
1210.382, 1006.553
1210.864, 1010.615
1211.346, 1015.615
1211.828, 1023.059
1212.310, 1030.050
1212.792, 1034.384
1213.275, 1037.957
1213.757, 1042.883
1214.239, 1048.865
1214.721, 1054.829
1215.203, 1060.839
1215.685, 1066.465
1216.167, 1071.633
1216.649, 1076.534
1217.132, 1081.245
1217.614, 1085.368
1218.096, 1088.486
1218.578, 1091.766
1219.060, 1096.770
1219.542, 1102.814
1220.024, 1107.446
1220.506, 1110.945
1220.989, 1116.390
1221.471, 1123.533
1221.953, 1129.286
1222.435, 1133.124
1222.917, 1136.488
1223.399, 1140.125
1223.881, 1144.220
1224.363, 1149.163
1224.845, 1154.399
1225.328, 1159.106
1225.810, 1163.682
1226.292, 1168.899
1226.774, 1174.389
1227.256, 1179.243
1227.738, 1183.523
1228.220, 1188.399
1228.702, 1194.701
1229.184, 1199.498
1229.667, 1199.891
1230.149, 1200.624
1230.631, 1204.170
1231.113, 1208.581
1231.595, 1212.803
1232.077, 1216.682
1232.559, 1220.054
1233.041, 1222.941
1233.524, 1225.758
1234.006, 1228.984
1234.488, 1230.743
1234.970, 1229.691
1235.452, 1231.027
1235.934, 1237.086
1236.416, 1242.224
1236.898, 1242.713
1237.380, 1241.600
1237.863, 1243.387
1238.345, 1247.104
1238.827, 1248.584
1239.309, 1248.211
1239.791, 1249.061
1240.273, 1251.074
1240.755, 1252.506
1241.237, 1253.006
1241.719, 1253.443
1242.202, 1254.289
1242.684, 1255.318
1243.166, 1256.791
1243.648, 1257.816
1244.130, 1256.754
1244.612, 1255.161
1245.094, 1255.065
1245.576, 1255.932
1246.059, 1256.745
1246.541, 1257.219
1247.023, 1257.039
1247.505, 1255.959
1247.987, 1254.906
1248.469, 1254.031
1248.951, 1253.399
1249.433, 1253.144
1249.916, 1253.037
1250.398, 1253.156
1250.880, 1253.149
1251.362, 1252.431
1251.844, 1251.198
1252.326, 1250.732
1252.808, 1251.454
1253.290, 1250.197
1253.772, 1246.466
1254.255, 1244.702
1254.737, 1245.931
1255.219, 1247.121
1255.701, 1246.691
1256.183, 1245.843
1256.665, 1245.901
1257.147, 1246.469
1257.629, 1246.691
1258.111, 1246.871
1258.594, 1248.004
1259.076, 1249.542
1259.558, 1250.021
1260.040, 1249.479
1260.522, 1248.944
1261.004, 1248.790
1261.486, 1248.955
1261.968, 1249.461
1262.451, 1250.208
1262.933, 1251.441
1263.415, 1252.567
1263.897, 1252.850
1264.379, 1253.091
1264.861, 1254.336
1265.343, 1256.292
1265.825, 1257.921
1266.307, 1259.195
1266.790, 1260.220
1267.272, 1261.006
1267.754, 1261.389
1268.236, 1261.102
1268.718, 1261.499
1269.200, 1263.195
1269.682, 1264.970
1270.164, 1265.826
1270.646, 1265.958
1271.129, 1265.394
1271.611, 1264.544
1272.093, 1265.136
1272.575, 1266.477
1273.057, 1266.617
1273.539, 1265.524
1274.021, 1263.630
1274.503, 1261.250
1274.986, 1259.257
1275.468, 1258.221
1275.950, 1257.170
1276.432, 1255.443
1276.914, 1253.551
1277.396, 1252.069
1277.878, 1250.311
1278.360, 1247.667
1278.843, 1244.376
1279.325, 1241.000
1279.807, 1237.462
1280.289, 1232.834
1280.771, 1226.142
1281.253, 1221.681
1281.735, 1220.601
1282.217, 1218.272
1282.699, 1213.731
1283.182, 1208.274
1283.664, 1202.435
1284.146, 1196.488
1284.628, 1190.739
1285.110, 1184.677
1285.592, 1177.425
1286.074, 1169.098
##END=



