##NAMES=Strontiojoaquinite
##RRUFFID=R070084
##IDEAL CHEMISTRY=(Na,Fe^2+^)_2_Ba_2_Sr_2_Ti^4+^_2_(SiO_3_)_8_(O,OH)_2_&#183;H_2_O
##LOCALITY=Clear Creek area, San Benito County, California, USA
##OWNER=RRUFF
##SOURCE=James Shigley
##DESCRIPTION=Yellow prismatic single crystals
##STATUS=The identification of this mineral is not yet confirmed.
##URL=rruff.info/R070084
170.4860, 2895.754
170.9681, 2908.086
171.4502, 2914.108
171.9323, 2915.526
172.4144, 2915.495
172.8965, 2916.079
173.3787, 2917.283
173.8608, 2920.927
174.3429, 2925.155
174.8250, 2933.216
175.3071, 2948.774
175.7892, 2969.333
176.2714, 2989.378
176.7535, 3004.948
177.2356, 3016.115
177.7177, 3026.129
178.1998, 3037.342
178.6819, 3045.302
179.1641, 3045.858
179.6462, 3041.599
180.1283, 3038.741
180.6104, 3041.503
181.0925, 3049.548
181.5746, 3058.053
182.0567, 3068.282
182.5389, 3077.566
183.0210, 3086.001
183.5031, 3092.844
183.9852, 3096.097
184.4673, 3093.997
184.9494, 3087.293
185.4316, 3083.140
185.9137, 3078.752
186.3958, 3079.007
186.8779, 3089.073
187.3600, 3105.402
187.8421, 3119.330
188.3243, 3125.349
188.8064, 3125.214
189.2885, 3128.947
189.7706, 3140.284
190.2527, 3150.545
190.7348, 3156.314
191.2170, 3158.781
191.6991, 3160.475
192.1812, 3162.394
192.6633, 3164.833
193.1454, 3169.092
193.6275, 3177.638
194.1097, 3184.731
194.5918, 3189.726
195.0739, 3192.007
195.5560, 3188.935
196.0381, 3177.792
196.5202, 3162.845
197.0024, 3157.935
197.4845, 3166.302
197.9666, 3176.665
198.4487, 3189.863
198.9308, 3202.466
199.4129, 3206.271
199.8951, 3196.346
200.3772, 3179.449
200.8593, 3173.136
201.3414, 3183.282
201.8235, 3188.476
202.3056, 3176.499
202.7878, 3156.562
203.2699, 3146.390
203.7520, 3153.422
204.2341, 3168.160
204.7162, 3172.573
205.1983, 3166.536
205.6805, 3154.914
206.1626, 3130.330
206.6447, 3102.826
207.1268, 3090.429
207.6089, 3099.979
208.0910, 3117.890
208.5732, 3123.739
209.0553, 3116.900
209.5374, 3105.710
210.0195, 3083.748
210.5016, 3061.072
210.9837, 3054.254
211.4659, 3068.206
211.9480, 3087.500
212.4301, 3090.989
212.9122, 3076.627
213.3943, 3068.524
213.8764, 3075.083
214.3586, 3087.485
214.8407, 3095.664
215.3228, 3097.885
215.8049, 3098.375
216.2870, 3100.885
216.7691, 3105.487
217.2513, 3112.304
217.7334, 3121.743
218.2155, 3133.181
218.6976, 3148.530
219.1797, 3167.661
219.6618, 3182.819
220.1440, 3186.348
220.6261, 3177.914
221.1082, 3169.376
221.5903, 3157.871
222.0724, 3148.743
222.5546, 3150.051
223.0367, 3160.686
223.5188, 3165.632
224.0009, 3150.042
224.4830, 3118.269
224.9651, 3105.386
225.4473, 3126.816
225.9294, 3153.302
226.4115, 3166.982
226.8936, 3169.757
227.3757, 3173.004
227.8578, 3184.624
228.3400, 3201.266
228.8221, 3208.788
229.3042, 3205.159
229.7863, 3195.852
230.2684, 3173.464
230.7505, 3145.763
231.2327, 3136.763
231.7148, 3161.345
232.1969, 3207.238
232.6790, 3238.399
233.1611, 3248.953
233.6432, 3258.432
234.1254, 3274.298
234.6075, 3293.115
235.0896, 3308.032
235.5717, 3316.008
236.0538, 3320.698
236.5359, 3328.833
237.0181, 3338.636
237.5002, 3355.099
237.9823, 3383.312
238.4644, 3417.276
238.9465, 3450.441
239.4286, 3481.127
239.9108, 3508.018
240.3929, 3528.606
240.8750, 3541.274
241.3571, 3553.122
241.8392, 3557.814
242.3213, 3565.684
242.8035, 3590.415
243.2856, 3633.225
243.7677, 3678.439
244.2498, 3710.059
244.7319, 3724.944
245.2140, 3738.571
245.6962, 3747.562
246.1783, 3757.953
246.6604, 3776.340
247.1425, 3801.421
247.6246, 3823.848
248.1067, 3834.211
248.5889, 3832.279
249.0710, 3845.287
249.5531, 3887.792
250.0352, 3928.564
250.5173, 3954.576
250.9994, 3967.464
251.4816, 3973.562
251.9637, 3976.179
252.4458, 3975.771
252.9279, 3975.364
253.4100, 3974.049
253.8921, 3973.757
254.3743, 3974.414
254.8564, 3976.480
255.3385, 3981.381
255.8206, 3989.968
256.3027, 4000.223
256.7849, 4006.664
257.2670, 4004.242
257.7491, 4004.006
258.2312, 4006.986
258.7133, 4012.010
259.1954, 4018.323
259.6776, 4025.564
260.1597, 4033.207
260.6418, 4041.056
261.1239, 4054.021
261.6060, 4055.902
262.0881, 4040.242
262.5703, 4019.551
263.0524, 4000.348
263.5345, 3984.515
264.0166, 3972.114
264.4987, 3963.412
264.9808, 3958.856
265.4630, 3955.945
265.9451, 3954.487
266.4272, 3954.591
266.9093, 3959.896
267.3914, 3967.318
267.8735, 3968.633
268.3557, 3956.039
268.8378, 3930.489
269.3199, 3913.720
269.8020, 3925.018
270.2841, 3925.260
270.7662, 3897.555
271.2484, 3855.509
271.7305, 3818.516
272.2126, 3796.822
272.6947, 3788.868
273.1768, 3790.855
273.6589, 3810.149
274.1411, 3828.052
274.6232, 3843.647
275.1053, 3855.776
275.5874, 3862.681
276.0695, 3863.891
276.5516, 3861.961
277.0338, 3860.440
277.5159, 3858.717
277.9980, 3859.401
278.4801, 3860.130
278.9622, 3865.232
279.4443, 3880.601
279.9265, 3905.345
280.4086, 3929.784
280.8907, 3945.125
281.3728, 3951.213
281.8549, 3950.579
282.3370, 3930.438
282.8192, 3917.685
283.3013, 3933.982
283.7834, 3969.308
284.2655, 3995.364
284.7476, 3987.700
285.2297, 3956.509
285.7119, 3941.870
286.1940, 3951.726
286.6761, 3962.000
287.1582, 3962.224
287.6403, 3955.372
288.1224, 3943.929
288.6046, 3924.906
289.0867, 3907.241
289.5688, 3907.810
290.0509, 3929.776
290.5330, 3944.399
291.0151, 3931.309
291.4973, 3910.133
291.9794, 3904.470
292.4615, 3919.738
292.9436, 3938.164
293.4257, 3945.844
293.9078, 3944.593
294.3900, 3944.350
294.8721, 3947.698
295.3542, 3952.761
295.8363, 3956.157
296.3184, 3957.750
296.8005, 3963.608
297.2827, 3979.191
297.7648, 3999.635
298.2469, 4016.533
298.7290, 4028.574
299.2111, 4039.031
299.6932, 4050.093
300.1754, 4061.866
300.6575, 4075.407
301.1396, 4089.317
301.6217, 4106.107
302.1038, 4132.108
302.5859, 4165.065
303.0681, 4190.418
303.5501, 4197.656
304.0323, 4191.147
304.5144, 4191.613
304.9965, 4200.431
305.4786, 4213.342
305.9607, 4235.912
306.4428, 4260.650
306.9250, 4273.455
307.4071, 4268.702
307.8892, 4253.025
308.3713, 4238.383
308.8534, 4221.618
309.3355, 4212.222
309.8177, 4216.968
310.2998, 4225.019
310.7819, 4229.660
311.2640, 4228.786
311.7461, 4220.253
312.2282, 4200.867
312.7104, 4168.471
313.1925, 4138.619
313.6746, 4105.009
314.1567, 4079.390
314.6388, 4073.668
315.1209, 4079.709
315.6031, 4080.617
316.0852, 4065.701
316.5673, 4036.664
317.0494, 4001.871
317.5315, 3948.630
318.0136, 3907.330
318.4958, 3882.308
318.9779, 3870.359
319.4600, 3873.324
319.9421, 3891.139
320.4242, 3910.152
320.9063, 3905.941
321.3885, 3869.453
321.8706, 3841.691
322.3527, 3831.217
322.8348, 3827.476
323.3169, 3826.225
323.7990, 3826.847
324.2812, 3829.815
324.7633, 3836.362
325.2454, 3846.082
325.7275, 3855.806
326.2096, 3868.105
326.6917, 3875.857
327.1739, 3870.399
327.6560, 3858.996
328.1381, 3855.070
328.6202, 3865.495
329.1023, 3884.121
329.5844, 3903.135
330.0666, 3922.633
330.5487, 3941.620
331.0308, 3961.236
331.5129, 3978.924
331.9950, 3991.190
332.4771, 3996.727
332.9593, 4000.817
333.4414, 4004.831
333.9235, 4009.772
334.4056, 4020.501
334.8877, 4040.592
335.3698, 4059.301
335.8520, 4059.776
336.3341, 4042.236
336.8162, 4032.051
337.2983, 4039.234
337.7804, 4051.817
338.2625, 4058.779
338.7447, 4059.795
339.2268, 4060.711
339.7089, 4066.429
340.1910, 4075.788
340.6731, 4078.143
341.1552, 4063.945
341.6374, 4054.717
342.1195, 4061.796
342.6016, 4077.082
343.0837, 4087.877
343.5658, 4089.137
344.0479, 4083.954
344.5301, 4077.927
345.0122, 4067.461
345.4943, 4063.191
345.9764, 4072.003
346.4585, 4081.220
346.9406, 4079.854
347.4228, 4068.855
347.9049, 4058.581
348.3870, 4059.162
348.8691, 4070.846
349.3512, 4080.503
349.8333, 4091.646
350.3155, 4096.252
350.7976, 4086.797
351.2797, 4070.942
351.7618, 4060.528
352.2439, 4061.795
352.7260, 4068.363
353.2082, 4067.307
353.6903, 4056.528
354.1724, 4045.633
354.6545, 4040.219
355.1366, 4033.301
355.6187, 4018.348
356.1009, 3994.978
356.5830, 3972.036
357.0651, 3957.887
357.5472, 3950.214
358.0293, 3938.078
358.5114, 3918.839
358.9936, 3898.624
359.4757, 3883.261
359.9578, 3870.687
360.4399, 3855.690
360.9220, 3836.132
361.4041, 3814.191
361.8863, 3793.415
362.3684, 3773.197
362.8505, 3747.060
363.3326, 3709.477
363.8147, 3666.784
364.2968, 3633.257
364.7790, 3608.251
365.2611, 3591.530
365.7432, 3590.366
366.2253, 3594.237
366.7074, 3590.631
367.1895, 3576.819
367.6717, 3555.506
368.1538, 3528.164
368.6359, 3493.146
369.1180, 3464.537
369.6001, 3443.893
370.0822, 3427.062
370.5644, 3412.842
371.0465, 3400.917
371.5286, 3390.973
372.0107, 3382.845
372.4928, 3376.592
372.9749, 3372.536
373.4571, 3371.061
373.9392, 3371.392
374.4213, 3379.371
374.9034, 3384.949
375.3855, 3378.706
375.8676, 3360.020
376.3498, 3337.488
376.8319, 3318.067
377.3140, 3301.741
377.7961, 3291.393
378.2782, 3290.204
378.7603, 3291.173
379.2425, 3290.783
379.7246, 3289.902
380.2067, 3290.768
380.6888, 3296.663
381.1709, 3301.492
381.6530, 3294.431
382.1352, 3275.223
382.6173, 3258.896
383.0994, 3251.804
383.5815, 3249.400
384.0636, 3245.595
384.5457, 3240.604
385.0279, 3233.110
385.5100, 3219.874
385.9921, 3204.768
386.4742, 3193.262
386.9563, 3186.154
387.4384, 3182.636
387.9206, 3182.990
388.4027, 3187.080
388.8848, 3188.421
389.3669, 3186.278
389.8490, 3182.431
390.3311, 3176.961
390.8133, 3170.397
391.2954, 3162.557
391.7775, 3153.313
392.2596, 3145.454
392.7417, 3145.798
393.2238, 3166.686
393.7060, 3170.924
394.1881, 3141.432
394.6702, 3111.642
395.1523, 3102.737
395.6344, 3113.278
396.1165, 3130.261
396.5987, 3146.316
397.0808, 3159.573
397.5629, 3155.337
398.0450, 3116.695
398.5271, 3091.337
399.0092, 3105.041
399.4914, 3132.628
399.9735, 3147.200
400.4556, 3141.297
400.9377, 3128.061
401.4198, 3118.546
401.9019, 3112.700
402.3841, 3111.260
402.8662, 3116.850
403.3483, 3122.445
403.8304, 3116.714
404.3125, 3103.479
404.7946, 3102.239
405.2768, 3133.280
405.7589, 3167.062
406.2410, 3174.506
406.7231, 3158.581
407.2052, 3138.597
407.6873, 3122.056
408.1695, 3110.404
408.6516, 3108.116
409.1337, 3118.382
409.6158, 3131.170
410.0979, 3150.011
410.5800, 3167.975
411.0622, 3177.203
411.5443, 3177.643
412.0264, 3176.699
412.5085, 3182.155
412.9906, 3194.163
413.4727, 3196.922
413.9549, 3172.695
414.4370, 3159.017
414.9191, 3168.378
415.4012, 3190.558
415.8833, 3213.508
416.3654, 3232.989
416.8476, 3249.957
417.3297, 3266.350
417.8118, 3282.422
418.2939, 3294.394
418.7760, 3298.076
419.2581, 3301.574
419.7403, 3312.703
420.2224, 3328.700
420.7045, 3339.447
421.1866, 3334.569
421.6687, 3325.422
422.1508, 3328.340
422.6330, 3342.999
423.1151, 3358.981
423.5972, 3370.514
424.0793, 3381.654
424.5614, 3402.240
425.0435, 3436.182
425.5257, 3466.462
426.0078, 3483.553
426.4899, 3497.578
426.9720, 3521.128
427.4541, 3554.776
427.9362, 3588.232
428.4184, 3612.146
428.9005, 3626.992
429.3826, 3645.226
429.8647, 3662.220
430.3468, 3688.162
430.8289, 3734.101
431.3111, 3785.968
431.7932, 3828.013
432.2753, 3855.335
432.7574, 3873.535
433.2395, 3888.864
433.7216, 3900.900
434.2038, 3913.038
434.6859, 3923.967
435.1680, 3936.885
435.6501, 3954.886
436.1322, 3975.762
436.6143, 3995.006
437.0965, 4011.390
437.5786, 4024.396
438.0607, 4033.074
438.5428, 4037.546
439.0249, 4038.591
439.5070, 4035.872
439.9892, 4030.646
440.4713, 4027.382
440.9534, 4027.921
441.4355, 4014.725
441.9176, 3974.555
442.3997, 3925.813
442.8819, 3882.641
443.3640, 3846.168
443.8461, 3814.373
444.3282, 3786.793
444.8103, 3761.994
445.2924, 3734.170
445.7746, 3701.484
446.2567, 3667.901
446.7388, 3633.310
447.2209, 3598.039
447.7030, 3561.357
448.1852, 3523.677
448.6673, 3488.487
449.1494, 3459.671
449.6315, 3436.535
450.1136, 3409.237
450.5957, 3372.086
451.0779, 3341.716
451.5600, 3331.202
452.0421, 3327.720
452.5242, 3315.253
453.0063, 3288.465
453.4884, 3262.628
453.9706, 3255.092
454.4527, 3258.793
454.9348, 3248.210
455.4169, 3215.855
455.8990, 3184.219
456.3811, 3174.344
456.8633, 3185.547
457.3454, 3192.679
457.8275, 3195.662
458.3096, 3194.316
458.7917, 3187.150
459.2738, 3175.908
459.7560, 3161.757
460.2381, 3145.346
460.7202, 3131.297
461.2023, 3127.388
461.6844, 3137.191
462.1665, 3144.456
462.6487, 3152.986
463.1308, 3155.219
463.6129, 3143.983
464.0950, 3124.849
464.5771, 3107.969
465.0592, 3098.151
465.5414, 3093.201
466.0235, 3090.729
466.5056, 3091.156
466.9877, 3088.991
467.4698, 3082.491
467.9519, 3073.537
468.4341, 3062.883
468.9162, 3050.976
469.3983, 3041.031
469.8804, 3033.365
470.3625, 3028.791
470.8446, 3031.181
471.3268, 3038.519
471.8089, 3040.330
472.2910, 3030.794
472.7731, 3015.503
473.2552, 3006.373
473.7373, 3007.802
474.2195, 3007.401
474.7016, 3003.962
475.1837, 2999.678
475.6658, 2992.032
476.1479, 2984.455
476.6300, 2987.053
477.1122, 3008.163
477.5943, 3040.214
478.0764, 3058.387
478.5585, 3059.593
479.0406, 3054.909
479.5227, 3035.637
480.0049, 3019.120
480.4870, 3021.872
480.9691, 3042.376
481.4512, 3058.761
481.9333, 3051.912
482.4154, 3035.352
482.8976, 3033.490
483.3797, 3047.031
483.8618, 3061.461
484.3439, 3069.850
484.8260, 3074.365
485.3081, 3080.305
485.7903, 3087.784
486.2724, 3095.974
486.7545, 3108.568
487.2366, 3119.133
487.7187, 3118.780
488.2008, 3109.621
488.6830, 3103.051
489.1651, 3107.288
489.6472, 3121.094
490.1293, 3140.275
490.6114, 3175.268
491.0935, 3196.397
491.5757, 3188.305
492.0578, 3174.471
492.5399, 3171.820
493.0220, 3181.907
493.5041, 3196.610
493.9862, 3212.871
494.4684, 3229.027
494.9505, 3239.415
495.4326, 3242.986
495.9147, 3250.428
496.3968, 3270.270
496.8789, 3294.660
497.3611, 3305.899
497.8432, 3297.206
498.3253, 3297.536
498.8074, 3322.075
499.2895, 3354.490
499.7716, 3381.916
500.2538, 3401.809
500.7359, 3411.547
501.2180, 3407.443
501.7001, 3394.627
502.1822, 3396.676
502.6643, 3425.245
503.1465, 3449.667
503.6286, 3466.773
504.1107, 3479.347
504.5928, 3488.289
505.0749, 3494.348
505.5570, 3499.354
506.0392, 3505.401
506.5213, 3510.981
507.0034, 3512.232
507.4855, 3508.905
507.9676, 3503.161
508.4497, 3494.520
508.9319, 3484.953
509.4140, 3478.043
509.8961, 3474.504
510.3782, 3469.321
510.8603, 3459.140
511.3424, 3448.264
511.8246, 3442.686
512.3067, 3440.579
512.7888, 3432.943
513.2709, 3413.790
513.7531, 3388.677
514.2352, 3374.732
514.7173, 3381.985
515.1994, 3380.871
515.6815, 3369.609
516.1636, 3350.929
516.6458, 3320.267
517.1279, 3282.895
517.6100, 3253.229
518.0921, 3242.389
518.5742, 3240.496
519.0563, 3231.755
519.5385, 3216.164
520.0206, 3195.400
520.5027, 3166.929
520.9848, 3137.747
521.4669, 3117.576
521.9490, 3106.205
522.4312, 3094.563
522.9133, 3080.515
523.3954, 3066.591
523.8775, 3054.402
524.3596, 3043.567
524.8417, 3032.891
525.3239, 3021.832
525.8060, 3011.287
526.2881, 3003.292
526.7702, 2999.464
527.2523, 2992.451
527.7344, 2978.539
528.2166, 2965.137
528.6987, 2958.028
529.1808, 2952.564
529.6629, 2938.931
530.1450, 2910.915
530.6271, 2883.123
531.1093, 2873.359
531.5914, 2877.555
532.0735, 2878.911
532.5556, 2874.626
533.0377, 2866.094
533.5198, 2854.176
534.0020, 2838.739
534.4841, 2821.012
534.9662, 2792.382
535.4483, 2771.862
535.9304, 2769.690
536.4125, 2776.643
536.8947, 2784.077
537.3768, 2788.982
537.8589, 2788.800
538.3410, 2779.448
538.8231, 2761.986
539.3052, 2751.387
539.7874, 2752.427
540.2695, 2751.028
540.7516, 2741.023
541.2337, 2727.279
541.7158, 2712.472
542.1979, 2696.866
542.6801, 2685.983
543.1622, 2684.566
543.6443, 2688.965
544.1264, 2695.830
544.6085, 2704.332
545.0906, 2709.611
545.5728, 2708.665
546.0549, 2703.523
546.5370, 2699.185
547.0191, 2695.685
547.5012, 2692.995
547.9833, 2690.852
548.4655, 2689.740
548.9476, 2689.261
549.4297, 2690.087
549.9117, 2694.895
550.3939, 2706.448
550.8760, 2717.801
551.3581, 2713.931
551.8402, 2694.150
552.3223, 2681.052
552.8044, 2679.877
553.2866, 2684.380
553.7687, 2692.570
554.2508, 2702.648
554.7329, 2707.192
555.2150, 2701.515
555.6971, 2693.823
556.1793, 2683.842
556.6614, 2676.079
557.1435, 2681.623
557.6256, 2701.740
558.1077, 2720.439
558.5898, 2720.123
559.0720, 2701.119
559.5541, 2686.031
560.0362, 2673.711
560.5183, 2667.488
561.0004, 2672.180
561.4825, 2680.078
561.9647, 2683.338
562.4468, 2681.017
562.9289, 2679.230
563.4110, 2683.337
563.8931, 2690.019
564.3752, 2694.871
564.8574, 2697.501
565.3395, 2693.966
565.8216, 2680.309
566.3037, 2663.458
566.7858, 2657.634
567.2679, 2670.499
567.7501, 2676.377
568.2322, 2665.357
568.7143, 2656.982
569.1964, 2666.373
569.6785, 2685.460
570.1606, 2697.258
570.6428, 2693.859
571.1249, 2684.270
571.6070, 2681.532
572.0891, 2685.489
572.5712, 2688.552
573.0533, 2689.870
573.5355, 2690.409
574.0176, 2688.771
574.4997, 2687.101
574.9818, 2691.456
575.4639, 2706.961
575.9460, 2720.385
576.4282, 2724.594
576.9103, 2725.069
577.3924, 2726.082
577.8745, 2729.392
578.3566, 2739.522
578.8387, 2761.436
579.3209, 2790.044
579.8030, 2803.474
580.2851, 2793.779
580.7672, 2788.138
581.2493, 2790.677
581.7314, 2799.084
582.2136, 2815.395
582.6957, 2837.372
583.1778, 2856.069
583.6599, 2864.938
584.1420, 2872.136
584.6241, 2886.576
585.1063, 2905.772
585.5884, 2922.057
586.0705, 2933.036
586.5526, 2943.904
587.0347, 2960.361
587.5168, 2982.496
587.9990, 3006.150
588.4811, 3039.985
588.9632, 3064.503
589.4453, 3067.229
589.9274, 3064.690
590.4095, 3071.937
590.8917, 3091.526
591.3738, 3118.093
591.8559, 3152.037
592.3380, 3188.756
592.8201, 3214.473
593.3022, 3229.415
593.7844, 3253.559
594.2665, 3298.452
594.7486, 3348.787
595.2307, 3380.145
595.7128, 3386.744
596.1949, 3399.678
596.6771, 3428.175
597.1592, 3453.801
597.6413, 3462.471
598.1234, 3464.651
598.6055, 3478.118
599.0876, 3508.075
599.5698, 3541.793
600.0519, 3565.742
600.5340, 3580.419
601.0161, 3589.660
601.4982, 3592.129
601.9803, 3593.775
602.4625, 3596.122
602.9446, 3600.138
603.4267, 3608.193
603.9088, 3621.877
604.3909, 3632.602
604.8730, 3632.540
605.3552, 3633.683
605.8373, 3647.971
606.3194, 3671.046
606.8015, 3692.968
607.2836, 3709.199
607.7657, 3716.678
608.2479, 3704.433
608.7300, 3667.785
609.2121, 3656.721
609.6942, 3690.313
610.1763, 3719.976
610.6584, 3713.407
611.1406, 3689.621
611.6227, 3674.832
612.1048, 3672.588
612.5869, 3677.755
613.0690, 3693.334
613.5511, 3711.835
614.0333, 3725.284
614.5154, 3733.369
614.9975, 3738.027
615.4796, 3740.105
615.9617, 3740.978
616.4438, 3745.535
616.9260, 3758.863
617.4081, 3757.124
617.8902, 3721.317
618.3723, 3691.844
618.8544, 3696.465
619.3365, 3717.762
619.8187, 3722.856
620.3008, 3698.797
620.7829, 3675.764
621.2650, 3675.387
621.7471, 3686.851
622.2292, 3694.941
622.7114, 3698.010
623.1935, 3700.026
623.6756, 3704.160
624.1577, 3706.741
624.6398, 3696.690
625.1219, 3666.564
625.6041, 3641.404
626.0862, 3625.172
626.5683, 3610.970
627.0504, 3595.638
627.5325, 3580.185
628.0146, 3566.571
628.4968, 3555.139
628.9789, 3546.227
629.4610, 3543.654
629.9431, 3542.617
630.4252, 3533.595
630.9073, 3515.869
631.3895, 3493.989
631.8716, 3470.512
632.3537, 3446.219
632.8358, 3422.521
633.3179, 3391.837
633.8000, 3377.395
634.2822, 3401.073
634.7643, 3419.272
635.2464, 3406.816
635.7285, 3374.234
636.2106, 3342.569
636.6927, 3317.356
637.1749, 3301.176
637.6570, 3303.210
638.1391, 3314.143
638.6212, 3312.410
639.1033, 3296.302
639.5854, 3281.458
640.0676, 3278.747
640.5497, 3282.749
641.0318, 3276.635
641.5139, 3248.846
641.9960, 3233.447
642.4781, 3241.181
642.9603, 3249.984
643.4424, 3249.013
643.9245, 3241.716
644.4066, 3235.337
644.8887, 3232.102
645.3708, 3230.821
645.8530, 3228.352
646.3351, 3227.760
646.8172, 3239.776
647.2993, 3263.915
647.7814, 3278.435
648.2635, 3268.271
648.7457, 3245.851
649.2278, 3243.693
649.7099, 3274.874
650.1920, 3297.443
650.6741, 3309.137
651.1563, 3314.885
651.6384, 3312.082
652.1205, 3306.089
652.6026, 3305.863
653.0847, 3314.523
653.5668, 3324.757
654.0490, 3327.601
654.5311, 3329.899
655.0132, 3348.218
655.4953, 3380.787
655.9774, 3404.287
656.4595, 3405.381
656.9417, 3396.237
657.4238, 3403.130
657.9059, 3437.069
658.3880, 3450.833
658.8701, 3415.984
659.3522, 3393.046
659.8344, 3410.733
660.3165, 3448.402
660.7986, 3480.059
661.2807, 3500.608
661.7628, 3512.557
662.2449, 3512.821
662.7271, 3508.096
663.2092, 3504.706
663.6913, 3504.000
664.1734, 3509.218
664.6555, 3521.761
665.1376, 3540.078
665.6198, 3561.532
666.1019, 3585.649
666.5840, 3617.307
667.0661, 3667.618
667.5482, 3708.525
668.0303, 3727.894
668.5125, 3736.056
668.9946, 3738.280
669.4767, 3735.500
669.9588, 3747.380
670.4409, 3799.564
670.9230, 3855.228
671.4052, 3873.471
671.8873, 3869.532
672.3694, 3887.274
672.8515, 3938.835
673.3336, 3990.867
673.8157, 4003.473
674.2979, 3980.482
674.7800, 3976.299
675.2621, 3995.028
675.7442, 4022.762
676.2263, 4070.060
676.7084, 4112.382
677.1906, 4124.187
677.6727, 4108.233
678.1548, 4091.895
678.6369, 4081.207
679.1190, 4072.092
679.6011, 4066.283
680.0833, 4058.950
680.5654, 4040.421
681.0475, 4011.278
681.5296, 3985.201
682.0117, 3974.450
682.4938, 3971.536
682.9760, 3952.021
683.4581, 3913.624
683.9402, 3879.855
684.4223, 3857.124
684.9044, 3836.079
685.3865, 3807.567
685.8687, 3773.854
686.3508, 3746.320
686.8329, 3731.174
687.3150, 3713.229
687.7971, 3692.174
688.2792, 3664.538
688.7614, 3620.075
689.2435, 3566.349
689.7256, 3525.216
690.2077, 3508.835
690.6898, 3502.535
691.1719, 3487.452
691.6541, 3464.572
692.1362, 3437.938
692.6183, 3407.481
693.1004, 3376.953
693.5825, 3347.820
694.0646, 3320.625
694.5468, 3296.077
695.0289, 3274.126
695.5110, 3255.601
695.9931, 3243.036
696.4752, 3230.936
696.9573, 3215.931
697.4395, 3200.206
697.9216, 3189.742
698.4037, 3185.824
698.8858, 3174.773
699.3679, 3136.715
699.8500, 3090.090
700.3322, 3067.855
700.8143, 3066.301
701.2964, 3061.148
701.7785, 3043.471
702.2606, 3019.574
702.7427, 2996.541
703.2249, 2974.199
703.7070, 2957.344
704.1891, 2944.099
704.6712, 2939.459
705.1533, 2958.500
705.6354, 2975.850
706.1176, 2966.477
706.5997, 2933.631
707.0818, 2906.786
707.5639, 2900.414
708.0460, 2897.971
708.5281, 2887.673
709.0103, 2875.269
709.4924, 2872.079
709.9745, 2877.702
710.4566, 2878.834
710.9387, 2864.637
711.4208, 2842.864
711.9030, 2835.067
712.3851, 2843.029
712.8672, 2844.305
713.3493, 2833.442
713.8314, 2821.543
714.3135, 2818.231
714.7957, 2818.964
715.2778, 2808.227
715.7599, 2774.906
716.2420, 2754.809
716.7241, 2764.981
717.2062, 2778.364
717.6884, 2777.534
718.1705, 2767.104
718.6526, 2759.146
719.1347, 2757.656
719.6168, 2753.191
720.0989, 2732.016
720.5811, 2702.280
721.0632, 2682.617
721.5453, 2673.414
722.0274, 2673.705
722.5095, 2684.967
722.9916, 2695.944
723.4738, 2690.658
723.9559, 2667.937
724.4380, 2650.198
724.9201, 2638.608
725.4022, 2630.577
725.8843, 2630.314
726.3665, 2629.411
726.8486, 2620.860
727.3307, 2605.048
727.8128, 2586.543
728.2949, 2559.300
728.7770, 2539.521
729.2592, 2543.025
729.7413, 2557.927
730.2234, 2569.606
730.7055, 2575.000
731.1876, 2573.323
731.6697, 2563.242
732.1519, 2549.916
732.6340, 2546.760
733.1161, 2554.332
733.5982, 2549.583
734.0803, 2524.830
734.5624, 2505.886
735.0446, 2511.793
735.5267, 2530.622
736.0088, 2534.793
736.4909, 2518.649
736.9730, 2506.070
737.4551, 2505.236
737.9373, 2500.491
738.4194, 2479.280
738.9015, 2452.544
739.3836, 2433.945
739.8657, 2426.597
740.3478, 2426.296
740.8300, 2439.454
741.3121, 2451.768
741.7942, 2437.149
742.2763, 2403.696
742.7584, 2379.240
743.2405, 2370.901
743.7227, 2371.989
744.2048, 2377.993
744.6869, 2386.805
745.1690, 2387.276
745.6511, 2378.647
746.1332, 2363.253
746.6154, 2332.240
747.0975, 2305.698
747.5796, 2303.097
748.0617, 2313.734
748.5438, 2312.231
749.0259, 2289.001
749.5081, 2271.434
749.9902, 2273.232
750.4723, 2278.127
750.9544, 2274.004
751.4365, 2263.417
751.9186, 2251.332
752.4008, 2239.878
752.8829, 2234.605
753.3650, 2246.968
753.8471, 2268.189
754.3292, 2276.565
754.8113, 2272.208
755.2935, 2257.085
755.7756, 2229.764
756.2577, 2206.424
756.7398, 2207.174
757.2219, 2230.046
757.7040, 2238.154
758.1862, 2223.889
758.6683, 2208.966
759.1504, 2191.637
759.6325, 2178.990
760.1146, 2178.233
760.5967, 2185.564
761.0789, 2189.652
761.5610, 2185.887
762.0431, 2183.964
762.5252, 2194.660
763.0073, 2203.849
763.4894, 2193.475
763.9716, 2170.542
764.4537, 2155.234
764.9358, 2155.472
765.4179, 2159.795
765.9000, 2153.194
766.3821, 2139.794
766.8643, 2136.188
767.3464, 2142.405
767.8285, 2145.847
768.3106, 2141.790
768.7927, 2135.622
769.2748, 2133.523
769.7570, 2135.327
770.2391, 2134.954
770.7212, 2130.012
771.2033, 2126.943
771.6854, 2127.538
772.1675, 2129.365
772.6497, 2134.173
773.1318, 2138.844
773.6139, 2134.051
774.0960, 2111.916
774.5781, 2094.446
775.0602, 2094.633
775.5424, 2101.452
776.0245, 2104.260
776.5066, 2104.898
776.9887, 2111.760
777.4708, 2127.600
777.9529, 2141.686
778.4351, 2139.392
778.9172, 2126.405
779.3993, 2122.188
779.8814, 2126.159
780.3635, 2123.709
780.8456, 2108.986
781.3278, 2095.745
781.8099, 2099.662
782.2920, 2118.019
782.7741, 2124.144
783.2562, 2112.978
783.7383, 2099.854
784.2205, 2085.277
784.7026, 2070.255
785.1847, 2050.304
785.6668, 2031.286
786.1489, 2027.669
786.6310, 2047.510
787.1132, 2063.114
787.5953, 2058.725
788.0774, 2052.747
788.5595, 2062.860
789.0416, 2079.972
789.5237, 2086.105
790.0059, 2076.813
790.4880, 2062.603
790.9701, 2049.013
791.4522, 2038.820
791.9343, 2040.831
792.4164, 2051.802
792.8986, 2053.147
793.3807, 2040.724
793.8628, 2034.250
794.3449, 2052.202
794.8270, 2084.029
795.3091, 2090.919
795.7913, 2064.385
796.2734, 2045.379
796.7555, 2040.133
797.2376, 2036.383
797.7197, 2024.611
798.2018, 2011.853
798.6840, 2011.533
799.1661, 2026.388
799.6482, 2039.057
800.1303, 2045.693
800.6124, 2051.725
801.0945, 2063.267
801.5767, 2073.083
802.0588, 2071.531
802.5409, 2059.115
803.0230, 2045.321
803.5051, 2033.672
803.9872, 2025.140
804.4694, 2022.640
804.9515, 2023.245
805.4336, 2020.944
805.9157, 2015.772
806.3978, 2012.294
806.8799, 2013.092
807.3621, 2015.502
807.8442, 2015.365
808.3263, 2012.760
808.8084, 2008.359
809.2905, 2001.174
809.7726, 1999.094
810.2548, 2006.504
810.7369, 2017.202
811.2190, 2026.022
811.7011, 2032.862
812.1832, 2026.160
812.6653, 1984.058
813.1475, 1961.093
813.6296, 1978.821
814.1117, 2000.927
814.5938, 2003.130
815.0759, 1992.726
815.5580, 1989.636
816.0402, 2001.132
816.5223, 2007.980
817.0044, 2000.838
817.4865, 1987.121
817.9686, 1965.118
818.4507, 1943.547
818.9329, 1939.423
819.4150, 1955.175
819.8971, 1973.585
820.3792, 1983.149
820.8613, 1984.537
821.3434, 1973.929
821.8256, 1955.864
822.3077, 1947.449
822.7898, 1951.548
823.2719, 1961.849
823.7540, 1975.173
824.2361, 1988.497
824.7183, 1995.948
825.2004, 1998.028
825.6825, 1987.338
826.1646, 1955.580
826.6467, 1935.177
827.1288, 1946.320
827.6110, 1966.908
828.0931, 1965.117
828.5752, 1938.391
829.0573, 1928.046
829.5394, 1954.791
830.0215, 1968.771
830.5037, 1948.058
830.9858, 1924.142
831.4679, 1921.239
831.9500, 1933.874
832.4321, 1943.945
832.9142, 1946.083
833.3964, 1947.539
833.8785, 1954.922
834.3606, 1960.668
834.8427, 1955.693
835.3248, 1944.529
835.8069, 1935.286
836.2891, 1930.622
836.7712, 1930.741
837.2533, 1938.210
837.7354, 1947.857
838.2175, 1949.526
838.6996, 1945.339
839.1818, 1944.912
839.6639, 1949.304
840.1460, 1947.440
840.6281, 1931.134
841.1102, 1909.972
841.5923, 1904.666
842.0745, 1916.629
842.5566, 1928.938
843.0387, 1943.958
843.5208, 1950.363
844.0029, 1940.830
844.4850, 1925.881
844.9672, 1916.842
845.4493, 1913.649
845.9314, 1914.325
846.4135, 1926.765
846.8956, 1931.533
847.3777, 1917.846
847.8599, 1905.325
848.3420, 1909.871
848.8241, 1922.695
849.3062, 1925.217
849.7883, 1912.570
850.2704, 1900.100
850.7526, 1889.740
851.2347, 1885.050
851.7168, 1892.336
852.1989, 1904.586
852.6810, 1912.955
853.1631, 1915.989
853.6453, 1916.624
854.1274, 1915.720
854.6095, 1915.017
855.0916, 1916.228
855.5737, 1919.094
856.0558, 1927.073
856.5380, 1937.163
857.0201, 1933.071
857.5022, 1907.673
857.9843, 1879.591
858.4664, 1873.560
858.9485, 1885.768
859.4307, 1898.334
859.9128, 1911.273
860.3949, 1923.367
860.8770, 1934.969
861.3591, 1941.573
861.8412, 1938.822
862.3234, 1929.022
862.8055, 1919.308
863.2876, 1907.921
863.7697, 1902.471
864.2518, 1904.784
864.7339, 1910.244
865.2161, 1920.363
865.6982, 1930.142
866.1803, 1930.171
866.6624, 1920.005
867.1445, 1918.940
867.6266, 1938.459
868.1088, 1952.167
868.5909, 1951.088
869.0730, 1945.873
869.5551, 1940.665
870.0372, 1938.102
870.5193, 1944.861
871.0015, 1965.568
871.4836, 1978.333
871.9657, 1965.883
872.4478, 1949.160
872.9299, 1943.111
873.4120, 1943.800
873.8942, 1943.135
874.3763, 1940.760
874.8584, 1944.342
875.3405, 1961.670
875.8226, 1979.583
876.3047, 1978.506
876.7869, 1969.043
877.2690, 1973.237
877.7511, 1989.932
878.2332, 2004.321
878.7153, 2010.279
879.1974, 2015.993
879.6796, 2033.220
880.1617, 2056.909
880.6438, 2066.989
881.1259, 2064.260
881.6080, 2063.439
882.0901, 2067.660
882.5723, 2071.164
883.0544, 2069.330
883.5365, 2065.521
884.0186, 2067.825
884.5007, 2076.940
884.9828, 2089.153
885.4650, 2107.434
885.9471, 2119.570
886.4292, 2116.831
886.9113, 2113.001
887.3934, 2124.535
887.8755, 2149.587
888.3577, 2167.048
888.8398, 2170.517
889.3219, 2176.728
889.8040, 2190.173
890.2861, 2202.287
890.7682, 2207.074
891.2504, 2209.000
891.7325, 2217.690
892.2146, 2235.121
892.6967, 2239.164
893.1788, 2212.603
893.6609, 2187.838
894.1431, 2177.363
894.6252, 2173.814
895.1073, 2172.809
895.5894, 2172.294
896.0715, 2169.102
896.5536, 2161.763
897.0358, 2154.037
897.5179, 2149.590
898.0000, 2144.400
898.4821, 2131.584
898.9642, 2116.742
899.4464, 2110.530
899.9285, 2113.792
900.4106, 2118.562
900.8927, 2120.735
901.3748, 2119.930
901.8569, 2115.378
902.3391, 2107.634
902.8212, 2096.727
903.3033, 2083.499
903.7854, 2069.280
904.2675, 2054.847
904.7496, 2046.418
905.2318, 2052.231
905.7139, 2067.136
906.1960, 2079.465
906.6781, 2088.515
907.1602, 2086.548
907.6423, 2072.458
908.1245, 2060.032
908.6066, 2057.551
909.0887, 2059.235
909.5708, 2054.421
910.0529, 2043.294
910.5350, 2038.975
911.0172, 2043.500
911.4993, 2040.814
911.9814, 2024.333
912.4635, 2007.927
912.9456, 2003.745
913.4277, 2007.786
913.9099, 2006.457
914.3920, 1998.068
914.8741, 1988.918
915.3562, 1975.098
915.8383, 1968.621
916.3204, 1981.449
916.8026, 1995.728
917.2847, 1988.570
917.7668, 1962.141
918.2489, 1947.676
918.7310, 1956.559
919.2131, 1960.232
919.6953, 1953.394
920.1774, 1945.578
920.6595, 1940.376
921.1416, 1937.384
921.6237, 1937.101
922.1058, 1939.672
922.5880, 1937.892
923.0701, 1928.401
923.5522, 1917.040
924.0343, 1902.110
924.5164, 1889.222
924.9985, 1881.332
925.4807, 1879.313
925.9628, 1886.929
926.4449, 1906.603
926.9270, 1919.327
927.4091, 1912.201
927.8912, 1900.449
928.3734, 1889.025
928.8555, 1881.773
929.3376, 1887.743
929.8197, 1902.177
930.3018, 1906.463
930.7839, 1890.624
931.2661, 1875.407
931.7482, 1877.722
932.2303, 1887.485
932.7124, 1897.049
933.1945, 1904.457
933.6766, 1908.087
934.1588, 1907.203
934.6409, 1899.419
935.1230, 1880.564
935.6051, 1862.814
936.0872, 1862.178
936.5693, 1872.070
937.0515, 1881.867
937.5336, 1890.876
938.0157, 1903.088
938.4978, 1918.347
938.9799, 1922.730
939.4620, 1899.809
939.9442, 1866.700
940.4263, 1857.653
940.9084, 1866.333
941.3905, 1871.630
941.8726, 1871.452
942.3547, 1868.061
942.8369, 1862.366
943.3190, 1858.674
943.8011, 1862.821
944.2832, 1872.287
944.7653, 1878.629
945.2474, 1881.964
945.7296, 1883.519
946.2117, 1883.459
946.6938, 1882.625
947.1759, 1881.476
947.6580, 1879.714
948.1401, 1876.256
948.6223, 1871.557
949.1044, 1871.026
949.5865, 1874.839
950.0686, 1881.742
950.5507, 1892.546
951.0328, 1900.623
951.5150, 1901.275
951.9971, 1897.180
952.4792, 1893.391
952.9613, 1889.713
953.4434, 1888.862
953.9255, 1891.219
954.4077, 1894.635
954.8898, 1897.751
955.3719, 1904.192
955.8540, 1918.267
956.3361, 1936.591
956.8182, 1949.419
957.3004, 1955.345
957.7825, 1961.118
958.2646, 1968.166
958.7467, 1971.167
959.2288, 1963.459
959.7109, 1958.841
960.1931, 1974.260
960.6752, 2002.954
961.1573, 2013.403
961.6394, 1990.285
962.1215, 1984.423
962.6036, 2007.770
963.0858, 2030.195
963.5679, 2041.500
964.0500, 2047.358
964.5321, 2054.542
965.0142, 2061.985
965.4963, 2060.930
965.9785, 2030.613
966.4606, 2025.133
966.9427, 2071.091
967.4248, 2110.070
967.9069, 2115.310
968.3890, 2105.578
968.8712, 2099.940
969.3533, 2098.612
969.8354, 2098.442
970.3175, 2100.284
970.7996, 2101.663
971.2817, 2107.645
971.7639, 2107.123
972.2460, 2085.437
972.7281, 2059.650
973.2102, 2055.791
973.6923, 2073.714
974.1744, 2080.513
974.6566, 2061.842
975.1387, 2045.255
975.6208, 2037.331
976.1029, 2031.659
976.5850, 2025.224
977.0671, 2018.359
977.5493, 2012.230
978.0314, 2006.896
978.5135, 2000.202
978.9956, 1991.066
979.4777, 1981.385
979.9598, 1971.554
980.4420, 1961.450
980.9241, 1951.441
981.4062, 1940.783
981.8883, 1928.695
982.3704, 1915.017
982.8525, 1898.296
983.3347, 1868.884
983.8168, 1848.760
984.2989, 1853.559
984.7810, 1863.253
985.2631, 1861.095
985.7452, 1853.186
986.2274, 1855.341
986.7095, 1870.154
987.1916, 1874.097
987.6737, 1845.158
988.1558, 1821.755
988.6379, 1826.358
989.1201, 1837.803
989.6022, 1842.341
990.0843, 1838.703
990.5664, 1823.818
991.0485, 1797.183
991.5306, 1780.860
992.0128, 1795.212
992.4949, 1806.984
992.9770, 1794.404
993.4591, 1777.671
993.9412, 1772.840
994.4233, 1778.699
994.9055, 1792.065
995.3876, 1812.119
995.8697, 1826.178
996.3518, 1824.659
996.8339, 1821.005
997.3160, 1824.032
997.7982, 1826.229
998.2803, 1818.511
998.7624, 1805.062
999.2445, 1795.564
999.7266, 1792.212
1000.209, 1789.777
1000.691, 1784.507
1001.173, 1781.362
1001.655, 1784.020
1002.137, 1789.047
1002.619, 1794.960
1003.101, 1800.156
1003.584, 1802.076
1004.066, 1800.140
1004.548, 1796.675
1005.030, 1789.157
1005.512, 1784.839
1005.994, 1790.288
1006.476, 1798.159
1006.958, 1801.455
1007.440, 1802.045
1007.923, 1805.751
1008.405, 1813.724
1008.887, 1818.511
1009.369, 1815.499
1009.851, 1810.480
1010.333, 1801.236
1010.815, 1795.780
1011.297, 1807.482
1011.780, 1825.855
1012.262, 1827.556
1012.744, 1808.586
1013.226, 1796.960
1013.708, 1809.270
1014.190, 1823.810
1014.672, 1834.314
1015.154, 1840.098
1015.636, 1837.460
1016.119, 1831.206
1016.601, 1829.183
1017.083, 1832.719
1017.565, 1837.968
1018.047, 1846.327
1018.529, 1852.451
1019.011, 1849.293
1019.493, 1848.198
1019.976, 1863.364
1020.458, 1883.517
1020.940, 1887.707
1021.422, 1874.413
1021.904, 1866.864
1022.386, 1874.987
1022.868, 1885.547
1023.350, 1900.934
1023.832, 1910.832
1024.315, 1902.091
1024.797, 1887.108
1025.279, 1884.192
1025.761, 1894.267
1026.243, 1904.496
1026.725, 1910.856
1027.207, 1918.786
1027.689, 1936.091
1028.172, 1947.825
1028.654, 1939.371
1029.136, 1924.921
1029.618, 1924.016
1030.100, 1935.898
1030.582, 1942.647
1031.064, 1937.344
1031.546, 1934.376
1032.028, 1939.656
1032.511, 1943.032
1032.993, 1933.641
1033.475, 1924.838
1033.957, 1933.514
1034.439, 1956.849
1034.921, 1975.838
1035.403, 1992.372
1035.885, 1998.469
1036.368, 1981.996
1036.850, 1969.955
1037.332, 1980.930
1037.814, 1991.931
1038.296, 1972.197
1038.778, 1934.451
1039.260, 1929.948
1039.742, 1977.838
1040.224, 2007.968
1040.707, 2014.159
1041.189, 2011.630
1041.671, 1995.522
1042.153, 1982.760
1042.635, 1990.363
1043.117, 2009.409
1043.599, 2014.901
1044.081, 2002.823
1044.563, 1997.067
1045.046, 2001.225
1045.528, 2003.300
1046.010, 1999.353
1046.492, 1995.425
1046.974, 1994.470
1047.456, 1997.293
1047.938, 2005.641
1048.420, 2019.652
1048.902, 2038.302
1049.385, 2066.162
1049.867, 2079.388
1050.349, 2070.813
1050.831, 2056.932
1051.313, 2043.829
1051.795, 2038.203
1052.277, 2052.690
1052.759, 2084.296
1053.242, 2101.833
1053.724, 2104.497
1054.206, 2098.881
1054.688, 2083.222
1055.170, 2083.905
1055.652, 2114.806
1056.134, 2153.391
1056.616, 2174.146
1057.099, 2181.968
1057.581, 2195.066
1058.063, 2212.595
1058.545, 2223.326
1059.027, 2226.445
1059.509, 2224.961
1059.991, 2219.887
1060.473, 2207.836
1060.955, 2183.827
1061.438, 2157.656
1061.920, 2153.952
1062.402, 2164.271
1062.884, 2155.149
1063.366, 2128.686
1063.848, 2101.888
1064.330, 2079.185
1064.812, 2057.592
1065.294, 2034.985
1065.777, 2014.766
1066.259, 2003.569
1066.741, 1996.747
1067.223, 1990.102
1067.705, 1978.985
1068.187, 1945.717
1068.669, 1895.229
1069.151, 1858.651
1069.634, 1850.379
1070.116, 1853.395
1070.598, 1857.974
1071.080, 1860.627
1071.562, 1857.397
1072.044, 1849.706
1072.526, 1838.641
1073.008, 1825.319
1073.490, 1810.262
1073.973, 1794.112
1074.455, 1782.514
1074.937, 1785.930
1075.419, 1785.666
1075.901, 1763.498
1076.383, 1738.001
1076.865, 1723.714
1077.347, 1719.457
1077.829, 1724.055
1078.312, 1735.319
1078.794, 1741.243
1079.276, 1735.523
1079.758, 1728.670
1080.240, 1718.303
1080.722, 1714.380
1081.204, 1727.096
1081.686, 1745.633
1082.169, 1759.819
1082.651, 1768.968
1083.133, 1773.610
1083.615, 1773.447
1084.097, 1769.696
1084.579, 1754.576
1085.061, 1746.787
1085.543, 1760.107
1086.026, 1772.653
1086.508, 1768.277
1086.990, 1753.008
1087.472, 1737.989
1087.954, 1722.345
1088.436, 1715.935
1088.918, 1721.144
1089.400, 1730.804
1089.882, 1749.732
1090.365, 1756.852
1090.847, 1736.699
1091.329, 1710.071
1091.811, 1705.145
1092.293, 1718.355
1092.775, 1727.003
1093.257, 1730.607
1093.739, 1736.740
1094.221, 1745.829
1094.704, 1760.984
1095.186, 1783.870
1095.668, 1806.056
1096.150, 1821.018
1096.632, 1827.669
1097.114, 1819.897
1097.596, 1801.750
1098.078, 1786.922
1098.561, 1778.300
1099.043, 1793.019
1099.525, 1830.498
1100.007, 1861.362
1100.489, 1869.264
1100.971, 1867.194
1101.453, 1866.105
1101.935, 1867.422
1102.417, 1875.902
1102.900, 1887.081
1103.382, 1890.635
1103.864, 1889.517
1104.346, 1895.713
1104.828, 1912.449
1105.310, 1931.179
1105.792, 1949.715
1106.274, 1963.192
1106.756, 1966.638
1107.239, 1964.851
1107.721, 1951.423
1108.203, 1941.986
1108.685, 1963.486
1109.167, 2013.210
1109.649, 2060.089
1110.131, 2096.700
1110.613, 2127.024
1111.096, 2148.105
1111.578, 2168.291
1112.060, 2186.123
1112.542, 2208.912
1113.024, 2248.275
1113.506, 2296.258
1113.988, 2331.253
1114.470, 2349.789
1114.953, 2377.480
1115.435, 2422.617
1115.917, 2459.307
1116.399, 2478.872
1116.881, 2501.091
1117.363, 2536.895
1117.845, 2577.839
1118.327, 2614.545
1118.809, 2646.298
1119.292, 2670.518
1119.774, 2687.793
1120.256, 2685.824
1120.738, 2662.661
1121.220, 2647.981
1121.702, 2651.156
1122.184, 2644.519
1122.666, 2606.611
1123.148, 2553.505
1123.631, 2511.747
1124.113, 2476.925
1124.595, 2431.941
1125.077, 2381.254
1125.559, 2341.925
1126.041, 2313.823
1126.523, 2285.364
1127.005, 2251.617
1127.488, 2214.478
1127.970, 2172.428
1128.452, 2132.357
1128.934, 2104.983
1129.416, 2080.727
1129.898, 2043.258
1130.380, 2002.601
1130.862, 1980.174
1131.344, 1975.777
1131.827, 1968.551
1132.309, 1950.320
1132.791, 1931.076
1133.273, 1911.205
1133.755, 1895.781
1134.237, 1892.266
1134.719, 1889.485
1135.201, 1875.640
1135.683, 1855.459
1136.166, 1840.265
1136.648, 1830.695
1137.130, 1825.503
1137.612, 1829.147
1138.094, 1827.198
1138.576, 1811.850
1139.058, 1805.719
1139.540, 1823.826
1140.023, 1843.382
1140.505, 1838.092
1140.987, 1817.324
1141.469, 1815.095
1141.951, 1831.948
1142.433, 1838.120
1142.915, 1833.149
1143.397, 1828.742
1143.880, 1827.383
1144.362, 1823.038
1144.844, 1811.950
1145.326, 1801.692
1145.808, 1804.247
1146.290, 1811.590
1146.772, 1803.216
1147.254, 1789.787
1147.736, 1796.766
1148.219, 1818.774
1148.701, 1835.412
1149.183, 1841.403
1149.665, 1843.095
1150.147, 1844.052
1150.629, 1841.186
1151.111, 1823.437
1151.593, 1811.182
1152.075, 1830.847
1152.558, 1854.951
1153.040, 1845.476
1153.522, 1815.314
1154.004, 1809.055
1154.486, 1838.171
1154.968, 1848.140
1155.450, 1807.660
1155.932, 1785.965
1156.415, 1802.156
1156.897, 1821.994
1157.379, 1832.344
1157.861, 1837.652
1158.343, 1842.929
1158.825, 1847.112
1159.307, 1844.549
1159.789, 1833.757
1160.271, 1833.340
1160.754, 1844.273
1161.236, 1848.246
1161.718, 1841.375
1162.200, 1834.208
1162.682, 1832.644
1163.164, 1834.456
1163.646, 1837.852
1164.128, 1841.638
1164.610, 1843.141
1165.093, 1843.345
1165.575, 1844.763
1166.057, 1846.704
1166.539, 1845.662
1167.021, 1841.967
1167.503, 1841.799
1167.985, 1848.704
1168.467, 1857.228
1168.950, 1870.113
1169.432, 1876.258
1169.914, 1862.951
1170.396, 1844.488
1170.878, 1832.763
1171.360, 1826.978
1171.842, 1825.388
1172.324, 1828.129
1172.807, 1822.969
1173.289, 1799.083
1173.771, 1786.793
1174.253, 1788.101
1174.735, 1801.393
1175.217, 1833.441
1175.699, 1859.401
1176.181, 1856.139
1176.663, 1838.513
1177.146, 1839.942
1177.628, 1857.907
1178.110, 1864.313
1178.592, 1860.874
1179.074, 1867.706
1179.556, 1884.946
1180.038, 1888.720
1180.520, 1871.456
1181.002, 1858.268
1181.485, 1872.328
1181.967, 1891.023
1182.449, 1882.440
1182.931, 1868.087
1183.413, 1878.093
1183.895, 1898.035
1184.377, 1902.842
1184.859, 1895.341
1185.342, 1894.356
1185.824, 1905.067
1186.306, 1913.005
1186.788, 1913.339
1187.270, 1911.009
1187.752, 1900.632
1188.234, 1896.032
1188.716, 1907.802
1189.198, 1924.365
1189.681, 1935.629
1190.163, 1942.062
1190.645, 1944.658
1191.127, 1943.127
1191.609, 1939.408
1192.091, 1932.672
1192.573, 1934.935
1193.055, 1948.334
1193.537, 1959.935
1194.020, 1963.925
1194.502, 1963.813
1194.984, 1962.207
1195.466, 1960.841
1195.948, 1961.627
1196.430, 1965.298
1196.912, 1976.063
1197.394, 1989.369
1197.877, 1996.487
1198.359, 1997.027
1198.841, 1993.705
1199.323, 1987.067
1199.805, 1985.331
1200.287, 2000.322
1200.769, 2009.110
1201.251, 1996.967
1201.734, 1983.657
1202.216, 1979.926
1202.698, 1982.063
1203.180, 1987.243
1203.662, 1993.844
1204.144, 1995.689
1204.626, 1991.493
1205.108, 1993.341
1205.590, 2002.894
1206.073, 2006.807
1206.555, 2002.726
1207.037, 1995.668
1207.519, 1987.654
1208.001, 1982.438
1208.483, 1984.270
1208.965, 1989.032
1209.447, 1988.598
1209.929, 1986.852
1210.412, 1992.973
1210.894, 2002.518
1211.376, 2007.576
1211.858, 2006.707
1212.340, 1998.566
1212.822, 1982.923
1213.304, 1970.938
1213.786, 1970.937
1214.269, 1970.284
1214.751, 1963.745
1215.233, 1956.989
1215.715, 1952.988
1216.197, 1950.141
1216.679, 1948.089
1217.161, 1945.287
1217.643, 1937.209
1218.125, 1923.676
1218.608, 1915.474
1219.090, 1913.286
1219.572, 1909.150
1220.054, 1902.169
1220.536, 1884.104
1221.018, 1852.760
1221.500, 1833.514
1221.982, 1847.541
1222.464, 1870.465
1222.947, 1869.877
1223.429, 1859.416
1223.911, 1859.820
1224.393, 1861.588
1224.875, 1845.289
1225.357, 1819.854
1225.839, 1809.284
1226.321, 1816.377
1226.804, 1821.362
1227.286, 1821.924
1227.768, 1813.590
1228.250, 1782.893
1228.732, 1762.137
1229.214, 1765.547
1229.696, 1771.114
1230.178, 1765.715
1230.661, 1753.877
1231.143, 1741.061
1231.625, 1728.430
1232.107, 1720.972
1232.589, 1718.628
1233.071, 1722.636
1233.553, 1731.454
1234.035, 1737.033
1234.517, 1737.307
1235.000, 1730.030
1235.482, 1714.109
1235.964, 1703.100
1236.446, 1717.395
1236.928, 1728.408
1237.410, 1702.310
1237.892, 1676.498
1238.374, 1691.007
1238.856, 1718.859
1239.339, 1724.854
1239.821, 1711.094
1240.303, 1694.135
1240.785, 1673.080
1241.267, 1661.479
1241.749, 1662.499
1242.231, 1661.742
1242.713, 1656.217
1243.196, 1657.656
1243.678, 1671.063
1244.160, 1685.475
1244.642, 1692.618
1245.124, 1692.490
##END=



