##NAMES=Strontianite
##RRUFFID=R040037
##IDEAL CHEMISTRY=SrCO_3_
##LOCALITY=Alston Moor, Cumbria, England
##OWNER=RRUFF
##SOURCE=University of Arizona Mineral Museum
##DESCRIPTION=Group of tan colored crystals
##STATUS=The identification of this mineral has been confirmed by X-ray diffraction and chemical analysis
##URL=rruff.info/R040037
##MEASURED CHEMISTRY=(Sr_0.91_Ca_0.09_)_Î£=1_CO_3_; CO_2_ estimated by difference
126.4988, 681.8586
126.9809, 712.3561
127.4630, 743.5526
127.9451, 774.8197
128.4272, 807.2955
128.9093, 842.2083
129.3915, 879.2816
129.8736, 916.6642
130.3557, 952.7962
130.8378, 984.1001
131.3199, 1010.924
131.8020, 1037.561
132.2842, 1063.717
132.7663, 1087.815
133.2484, 1110.126
133.7305, 1132.853
134.2126, 1157.568
134.6947, 1184.325
135.1769, 1212.390
135.6590, 1241.632
136.1411, 1272.287
136.6232, 1305.475
137.1053, 1341.226
137.5874, 1378.315
138.0696, 1414.816
138.5517, 1449.677
139.0338, 1490.620
139.5159, 1540.402
139.9980, 1597.851
140.4801, 1655.585
140.9623, 1712.872
141.4444, 1772.023
141.9265, 1836.217
142.4086, 1904.387
142.8907, 1980.853
143.3728, 2067.713
143.8550, 2164.418
144.3371, 2268.813
144.8192, 2381.030
145.3013, 2500.520
145.7834, 2623.545
146.2655, 2758.388
146.7477, 2887.052
147.2298, 3008.787
147.7119, 3131.585
148.1940, 3224.449
148.6761, 3297.540
149.1582, 3339.227
149.6404, 3322.727
150.1225, 3232.588
150.6046, 3101.446
151.0867, 2940.031
151.5688, 2718.608
152.0509, 2508.351
152.5331, 2305.114
153.0152, 2110.790
153.4973, 1937.055
153.9794, 1788.815
154.4615, 1659.910
154.9436, 1546.607
155.4258, 1451.659
155.9079, 1370.196
156.3900, 1302.424
156.8721, 1247.812
157.3542, 1202.016
157.8363, 1166.455
158.3185, 1138.619
158.8006, 1116.769
159.2827, 1102.313
159.7648, 1092.329
160.2469, 1087.636
160.7290, 1087.728
161.2112, 1088.101
161.6933, 1085.089
162.1754, 1082.813
162.6575, 1084.701
163.1396, 1093.281
163.6217, 1104.799
164.1039, 1117.887
164.5860, 1132.505
165.0681, 1149.023
165.5502, 1167.318
166.0323, 1187.617
166.5145, 1210.425
166.9966, 1236.915
167.4787, 1265.176
167.9608, 1293.647
168.4429, 1322.152
168.9250, 1352.967
169.4071, 1387.819
169.8893, 1425.862
170.3714, 1465.810
170.8535, 1506.819
171.3356, 1549.999
171.8177, 1597.138
172.2998, 1648.835
172.7820, 1700.890
173.2641, 1750.807
173.7462, 1798.691
174.2283, 1845.047
174.7104, 1891.231
175.1925, 1936.121
175.6747, 1976.751
176.1568, 2012.052
176.6389, 2047.596
177.1210, 2086.891
177.6031, 2130.374
178.0852, 2179.664
178.5674, 2237.877
179.0495, 2302.074
179.5316, 2369.801
180.0137, 2442.370
180.4958, 2514.332
180.9779, 2583.441
181.4601, 2648.895
181.9422, 2704.926
182.4243, 2752.535
182.9064, 2788.046
183.3885, 2803.853
183.8706, 2798.847
184.3528, 2773.705
184.8349, 2728.381
185.3170, 2663.440
185.7991, 2580.080
186.2812, 2475.805
186.7633, 2353.526
187.2455, 2222.927
187.7276, 2082.187
188.2097, 1937.009
188.6918, 1790.595
189.1739, 1643.646
189.6560, 1506.708
190.1382, 1385.832
190.6203, 1280.991
191.1024, 1188.378
191.5845, 1107.718
192.0666, 1038.718
192.5487, 981.0441
193.0309, 935.3973
193.5130, 896.5363
193.9951, 859.7611
194.4772, 825.2571
194.9593, 796.3517
195.4414, 774.4956
195.9236, 757.9224
196.4057, 741.6959
196.8878, 725.6710
197.3699, 710.7457
197.8520, 697.6906
198.3341, 686.3437
198.8163, 676.7775
199.2984, 669.5596
199.7805, 663.9696
200.2626, 656.5775
200.7447, 647.0815
201.2268, 637.0102
201.7090, 627.9342
202.1911, 619.9510
202.6732, 612.0052
203.1553, 603.9025
203.6374, 595.6790
204.1195, 587.6313
204.6017, 579.5865
205.0838, 572.1901
205.5659, 566.2477
206.0480, 561.9720
206.5301, 557.9442
207.0122, 553.9518
207.4944, 549.9690
207.9765, 545.7285
208.4586, 540.8929
208.9407, 536.4780
209.4228, 533.6450
209.9049, 532.6746
210.3871, 532.1763
210.8692, 531.9019
211.3513, 531.8466
211.8334, 531.8534
212.3155, 531.8115
212.7976, 532.0177
213.2798, 532.7037
213.7619, 533.7487
214.2440, 535.7347
214.7261, 539.2195
215.2082, 544.1998
215.6903, 547.9957
216.1725, 550.3550
216.6546, 551.8331
217.1367, 553.1504
217.6188, 554.7179
218.1009, 555.0120
218.5830, 553.4043
219.0651, 549.7524
219.5473, 546.3314
220.0294, 543.0999
220.5115, 540.0510
220.9936, 537.1877
221.4757, 534.3929
221.9578, 531.9632
222.4400, 529.8442
222.9221, 527.9744
223.4042, 527.0840
223.8863, 527.3398
224.3684, 528.3620
224.8505, 529.7217
225.3327, 531.3043
225.8148, 533.4594
226.2969, 536.2865
226.7790, 539.8625
227.2611, 543.7744
227.7432, 548.0735
228.2254, 552.7596
228.7075, 557.8806
229.1896, 563.7173
229.6717, 569.5269
230.1538, 575.0869
230.6359, 580.2923
231.1181, 586.0853
231.6002, 592.2191
232.0823, 599.1693
232.5644, 607.5071
233.0465, 617.7813
233.5286, 628.5792
234.0108, 639.6411
234.4929, 651.0833
234.9750, 662.4568
235.4571, 673.1829
235.9392, 684.1830
236.4213, 696.5515
236.9035, 710.4490
237.3856, 725.4244
237.8677, 742.4764
238.3498, 762.2758
238.8319, 776.5935
239.3140, 782.7681
239.7962, 785.9500
240.2783, 791.4465
240.7604, 800.0905
241.2425, 809.4355
241.7246, 818.5292
242.2067, 827.2860
242.6889, 838.9798
243.1710, 853.9695
243.6531, 871.5465
244.1352, 891.6979
244.6173, 916.6859
245.0994, 939.8829
245.5816, 959.7504
246.0637, 976.2288
246.5458, 992.4321
247.0279, 1008.860
247.5100, 1024.559
247.9921, 1038.978
248.4743, 1054.401
248.9564, 1064.175
249.4385, 1066.623
249.9206, 1061.854
250.4027, 1054.598
250.8848, 1044.778
251.3670, 1032.518
251.8491, 1017.878
252.3312, 999.8936
252.8133, 981.1530
253.2954, 960.8322
253.7775, 939.2632
254.2597, 922.2489
254.7418, 911.0392
255.2239, 902.7402
255.7060, 894.7363
256.1881, 885.3828
256.6702, 880.1232
257.1523, 880.1893
257.6345, 885.1655
258.1166, 891.8873
258.5987, 901.3542
259.0808, 910.9593
259.5629, 918.9523
260.0450, 925.1273
260.5272, 930.0280
261.0093, 934.3688
261.4914, 937.5754
261.9735, 936.4445
262.4556, 931.2824
262.9377, 921.2872
263.4199, 905.1305
263.9020, 880.8094
264.3841, 856.8978
264.8662, 834.0233
265.3483, 812.1100
265.8304, 789.6853
266.3126, 766.2748
266.7947, 743.7913
267.2768, 723.7001
267.7589, 706.0195
268.2410, 689.8572
268.7231, 675.0374
269.2053, 661.4886
269.6874, 648.8112
270.1695, 636.7834
270.6516, 625.8715
271.1337, 616.3116
271.6158, 607.9945
272.0980, 601.1102
272.5801, 595.9940
273.0622, 591.9189
273.5443, 587.3046
274.0264, 581.9823
274.5085, 576.7305
274.9907, 571.8679
275.4728, 567.3529
275.9549, 563.5312
276.4370, 560.4574
276.9191, 558.0112
277.4012, 556.4440
277.8834, 556.1291
278.3655, 554.6693
278.8476, 550.0424
279.3297, 542.0155
279.8118, 537.5149
280.2939, 537.4036
280.7761, 539.1552
281.2582, 539.0951
281.7403, 537.1021
282.2224, 534.7728
282.7045, 532.5920
283.1866, 530.5639
283.6688, 528.6152
284.1509, 526.5944
284.6330, 525.0942
285.1151, 525.4950
285.5972, 527.7806
286.0793, 528.6892
286.5615, 526.2285
287.0436, 521.4011
287.5257, 519.2985
288.0078, 520.2719
288.4899, 521.9891
288.9720, 521.7813
289.4542, 519.8724
289.9363, 518.6790
290.4184, 519.3406
290.9005, 521.0221
291.3826, 521.3678
291.8647, 520.3331
292.3469, 518.6687
292.8290, 516.6105
293.3111, 514.3585
293.7932, 512.7767
294.2753, 512.1924
294.7574, 512.2628
295.2396, 512.4772
295.7217, 512.8228
296.2038, 513.0483
296.6859, 512.7780
297.1680, 512.2266
297.6501, 512.0549
298.1323, 512.5660
298.6144, 513.1901
299.0965, 513.2391
299.5786, 512.7149
300.0607, 511.6566
300.5428, 509.3137
301.0250, 506.5839
301.5071, 505.1801
301.9892, 505.5213
302.4713, 506.6743
302.9534, 507.8656
303.4355, 509.0469
303.9177, 510.1168
304.3998, 511.2481
304.8819, 512.1190
305.3640, 512.1644
305.8461, 511.2417
306.3282, 510.0626
306.8104, 509.1293
307.2925, 508.4047
307.7746, 507.8307
308.2567, 507.0794
308.7388, 506.6556
309.2209, 507.3841
309.7031, 509.3710
310.1852, 510.9852
310.6673, 510.7568
311.1494, 509.5394
311.6315, 508.5524
312.1136, 508.1760
312.5958, 508.2424
313.0779, 508.7064
313.5600, 509.5396
314.0421, 510.5399
314.5242, 512.3293
315.0063, 513.9013
315.4885, 514.2254
315.9706, 511.6433
316.4527, 509.1255
316.9348, 507.8344
317.4169, 507.6974
317.8990, 508.3978
318.3812, 511.0121
318.8633, 513.7040
319.3454, 515.0972
319.8275, 514.0164
320.3096, 513.0251
320.7917, 513.0090
321.2739, 513.6859
321.7560, 514.3317
322.2381, 514.7142
322.7202, 515.0706
323.2023, 515.5319
323.6844, 516.1951
324.1666, 516.7781
324.6487, 517.4801
325.1308, 518.0184
325.6129, 517.9435
326.0950, 516.0443
326.5771, 514.5730
327.0593, 514.4283
327.5414, 516.1175
328.0235, 517.1032
328.5056, 516.9400
328.9877, 516.1198
329.4698, 515.1403
329.9520, 513.0038
330.4341, 511.8725
330.9162, 512.4933
331.3983, 514.9451
331.8804, 516.7282
332.3625, 517.6476
332.8447, 518.0634
333.3268, 518.1724
333.8089, 517.5226
334.2910, 517.4791
334.7731, 518.7755
335.2552, 520.9171
335.7374, 520.9373
336.2195, 517.3920
336.7016, 514.0392
337.1837, 513.1860
337.6658, 515.7351
338.1479, 517.7725
338.6301, 518.9871
339.1122, 519.6578
339.5943, 520.4359
340.0764, 521.3987
340.5585, 522.1685
341.0406, 522.5386
341.5227, 522.4946
342.0049, 522.2416
342.4870, 521.6744
342.9691, 521.1095
343.4512, 521.1180
343.9333, 521.7490
344.4154, 522.2184
344.8976, 521.9895
345.3797, 521.3531
345.8618, 522.1320
346.3439, 524.5848
346.8260, 526.7977
347.3081, 526.3624
347.7903, 523.7091
348.2724, 521.7831
348.7545, 521.4711
349.2366, 522.1630
349.7187, 522.9236
350.2008, 523.7332
350.6830, 524.1662
351.1651, 523.3672
351.6472, 521.9841
352.1293, 521.6708
352.6114, 522.9484
353.0935, 524.7031
353.5757, 525.8704
354.0578, 526.4855
354.5399, 526.6963
355.0220, 526.0444
355.5041, 525.2679
355.9862, 525.4642
356.4684, 526.8554
356.9505, 528.2198
357.4326, 528.5194
357.9147, 528.1650
358.3968, 527.8248
358.8789, 527.3112
359.3611, 527.2430
359.8432, 528.4332
360.3253, 530.8157
360.8074, 532.7509
361.2895, 533.5564
361.7716, 533.4681
362.2538, 532.6790
362.7359, 530.3806
363.2180, 528.3593
363.7001, 526.8790
364.1822, 526.1089
364.6643, 526.6705
365.1465, 530.9085
365.6286, 534.9540
366.1107, 536.5828
366.5928, 534.0660
367.0749, 532.0002
367.5570, 531.3401
368.0392, 531.5195
368.5213, 531.5591
369.0034, 530.3834
369.4855, 529.9874
369.9676, 531.5413
370.4497, 535.8641
370.9319, 537.6907
371.4140, 534.6378
371.8961, 530.5821
372.3782, 529.4423
372.8603, 533.2722
373.3424, 536.4725
373.8246, 538.3246
374.3067, 538.8561
374.7888, 538.1299
375.2709, 535.1833
375.7530, 532.5915
376.2351, 532.3004
376.7173, 535.0883
377.1994, 537.0233
377.6815, 537.7882
378.1636, 537.6688
378.6457, 537.1057
379.1278, 535.9803
379.6100, 535.0935
380.0921, 535.0714
380.5742, 535.8552
381.0563, 535.6907
381.5384, 534.3788
382.0205, 532.8602
382.5027, 532.1334
382.9848, 532.1849
383.4669, 533.0743
383.9490, 535.3855
384.4311, 538.2454
384.9132, 539.6914
385.3954, 539.7399
385.8775, 538.9501
386.3596, 536.9425
386.8417, 534.4985
387.3238, 533.3091
387.8059, 533.9444
388.2881, 535.5214
388.7702, 537.8060
389.2523, 540.3769
389.7344, 541.9426
390.2165, 540.6866
390.6986, 538.7128
391.1808, 538.2841
391.6629, 539.8103
392.1450, 541.3179
392.6271, 541.5226
393.1092, 540.9525
393.5913, 540.3006
394.0735, 539.6273
394.5556, 539.0992
395.0377, 538.7120
395.5198, 538.4954
396.0019, 538.6917
396.4840, 539.9432
396.9662, 541.2896
397.4483, 542.0684
397.9304, 541.4154
398.4125, 541.2288
398.8946, 542.0144
399.3767, 543.4576
399.8589, 544.7872
400.3410, 545.3409
400.8231, 546.3456
401.3052, 548.6666
401.7873, 553.3482
402.2694, 555.0978
402.7516, 551.8033
403.2337, 547.1398
403.7158, 545.4496
404.1979, 548.6420
404.6800, 550.6244
405.1621, 549.5945
405.6443, 546.2144
406.1264, 545.7882
406.6085, 549.4078
407.0906, 553.1098
407.5727, 553.7671
408.0548, 551.0645
408.5370, 549.3397
409.0191, 549.1349
409.5012, 549.7970
409.9833, 550.3254
410.4654, 550.7158
410.9475, 550.9031
411.4297, 550.6874
411.9118, 550.2244
412.3939, 549.8688
412.8760, 549.5804
413.3581, 549.9788
413.8402, 552.6984
414.3224, 556.6053
414.8045, 558.8077
415.2866, 557.7102
415.7687, 555.4709
416.2508, 554.5673
416.7329, 554.7396
417.2151, 554.8005
417.6972, 553.6121
418.1793, 552.2018
418.6614, 551.6555
419.1435, 552.3306
419.6256, 553.0863
420.1078, 553.0444
420.5899, 552.7264
421.0720, 552.9006
421.5541, 554.1076
422.0362, 555.6011
422.5183, 557.4304
423.0005, 559.5430
423.4826, 560.8027
423.9647, 560.1913
424.4468, 559.0952
424.9289, 558.4247
425.4110, 558.2251
425.8932, 558.5063
426.3753, 559.8843
426.8574, 561.6869
427.3395, 562.2853
427.8216, 560.8231
428.3037, 559.2575
428.7859, 558.0504
429.2680, 557.0928
429.7501, 557.3582
430.2322, 559.3907
430.7143, 561.8524
431.1964, 563.2883
431.6786, 563.5742
432.1607, 563.4353
432.6428, 562.8386
433.1249, 562.0192
433.6070, 561.8983
434.0891, 562.5656
434.5713, 563.0316
435.0534, 562.1390
435.5355, 560.3651
436.0176, 560.3937
436.4997, 562.8682
436.9818, 565.3124
437.4640, 563.8636
437.9461, 559.7391
438.4282, 556.8022
438.9103, 557.1368
439.3924, 559.1639
439.8745, 561.3175
440.3566, 563.5336
440.8387, 565.4622
441.3209, 567.1098
441.8030, 568.2269
442.2851, 568.3348
442.7672, 566.6544
443.2493, 565.4893
443.7314, 566.9277
444.2136, 569.6257
444.6957, 571.1177
445.1778, 569.6108
445.6599, 567.6712
446.1420, 566.0824
446.6241, 564.8645
447.1063, 564.3997
447.5884, 564.9689
448.0705, 566.1700
448.5526, 567.7570
449.0347, 571.5300
449.5168, 573.0170
449.9990, 570.4222
450.4811, 565.5858
450.9632, 564.0866
451.4453, 567.7756
451.9274, 571.2367
452.4095, 572.1281
452.8917, 570.1699
453.3738, 569.0787
453.8559, 568.9825
454.3380, 569.4809
454.8201, 570.2150
455.3022, 571.1819
455.7844, 572.4254
456.2665, 574.2527
456.7486, 576.0255
457.2307, 575.9935
457.7128, 574.2938
458.1949, 572.7114
458.6771, 572.9524
459.1592, 573.9989
459.6413, 573.5349
460.1234, 571.2240
460.6055, 568.8815
461.0876, 567.7909
461.5698, 567.8109
462.0519, 568.7035
462.5340, 571.3650
463.0161, 573.9590
463.4982, 575.0850
463.9803, 575.0436
464.4625, 575.1771
464.9446, 577.1037
465.4267, 578.6328
465.9088, 578.0878
466.3909, 574.0707
466.8730, 571.3062
467.3552, 571.2413
467.8373, 572.7454
468.3194, 574.4023
468.8015, 576.5223
469.2836, 578.2899
469.7657, 579.4788
470.2479, 580.1481
470.7300, 580.9471
471.2121, 582.4116
471.6942, 583.1490
472.1763, 581.8612
472.6584, 577.7499
473.1406, 576.0729
473.6227, 577.7929
474.1048, 580.5629
474.5869, 580.3829
475.0690, 577.1923
475.5511, 574.9532
476.0333, 575.1818
476.5154, 577.1019
476.9975, 579.1686
477.4796, 581.3436
477.9617, 582.7020
478.4438, 581.7388
478.9260, 579.6663
479.4081, 578.7075
479.8902, 579.2562
480.3723, 580.5778
480.8544, 582.8038
481.3365, 585.2538
481.8187, 586.7576
482.3008, 586.7741
482.7829, 585.7511
483.2650, 583.0529
483.7471, 579.0568
484.2292, 576.5585
484.7114, 577.3710
485.1935, 579.3147
485.6756, 581.1929
486.1577, 583.1065
486.6398, 584.5011
487.1219, 585.2421
487.6041, 585.4764
488.0862, 585.3130
488.5683, 584.2546
489.0504, 583.6459
489.5325, 583.9800
490.0146, 585.0726
490.4968, 585.3732
490.9789, 584.5894
491.4610, 583.7582
491.9431, 583.5331
492.4252, 583.9240
492.9073, 584.4430
493.3895, 585.0954
493.8716, 585.7985
494.3537, 586.6874
494.8358, 587.6398
495.3179, 587.9008
495.8000, 586.6959
496.2822, 585.1062
496.7643, 585.0173
497.2464, 586.1978
497.7285, 587.3120
498.2106, 587.7542
498.6927, 587.5656
499.1749, 586.4493
499.6570, 584.0605
500.1391, 582.3893
500.6212, 582.9271
501.1033, 584.6224
501.5854, 586.2532
502.0676, 587.3492
502.5497, 588.4386
503.0318, 589.7685
503.5139, 591.2593
503.9960, 592.4601
504.4781, 593.7766
504.9603, 594.4024
505.4424, 593.8770
505.9245, 591.8009
506.4066, 590.1384
506.8887, 588.5355
507.3708, 587.8048
507.8530, 589.4944
508.3351, 594.3631
508.8172, 597.0018
509.2993, 595.8165
509.7814, 592.5051
510.2635, 591.2904
510.7457, 592.1331
511.2278, 593.0125
511.7099, 592.1442
512.1920, 590.5771
512.6741, 591.1575
513.1563, 593.9900
513.6384, 597.1429
514.1205, 599.4921
514.6026, 600.9692
515.0847, 601.3724
515.5668, 600.2125
516.0490, 598.7869
516.5311, 597.6895
517.0132, 596.9235
517.4953, 596.4919
517.9774, 597.0322
518.4595, 597.3286
518.9417, 596.4362
519.4238, 594.2169
519.9059, 593.3558
520.3880, 595.6602
520.8701, 598.2242
521.3522, 599.4785
521.8344, 598.7970
522.3165, 597.9879
522.7986, 596.7155
523.2807, 595.6086
523.7628, 595.8464
524.2449, 597.6417
524.7271, 599.6971
525.2092, 602.0011
525.6913, 604.1629
526.1734, 604.4434
526.6555, 602.8076
527.1376, 601.1564
527.6198, 600.8107
528.1019, 601.4648
528.5840, 602.6540
529.0661, 604.4285
529.5482, 605.9038
530.0303, 606.1176
530.5125, 605.5247
530.9946, 604.8330
531.4767, 604.3586
531.9588, 603.7651
532.4409, 601.9353
532.9230, 599.7259
533.4052, 599.5785
533.8873, 605.4076
534.3694, 610.6950
534.8515, 612.2963
535.3336, 609.2713
535.8157, 606.8758
536.2979, 605.2338
536.7800, 604.2510
537.2621, 603.9504
537.7442, 604.6790
538.2263, 605.1465
538.7084, 605.1237
539.1906, 604.9692
539.6727, 605.4597
540.1548, 606.6613
540.6369, 607.8654
541.1190, 609.0779
541.6011, 610.0247
542.0833, 609.1818
542.5654, 606.6690
543.0475, 605.0548
543.5296, 607.7589
544.0117, 612.0673
544.4938, 613.1512
544.9760, 609.9020
545.4581, 606.8763
545.9402, 608.4442
546.4223, 611.9019
546.9044, 613.7961
547.3865, 610.7429
547.8687, 608.3199
548.3508, 609.3880
548.8329, 612.6729
549.3150, 614.0947
549.7971, 610.4795
550.2792, 607.4845
550.7614, 607.1943
551.2435, 609.9382
551.7256, 611.5811
552.2077, 611.6372
552.6898, 611.3472
553.1719, 611.9120
553.6541, 613.5991
554.1362, 613.8481
554.6183, 612.0088
555.1004, 609.5999
555.5825, 609.2396
556.0646, 610.6476
556.5468, 612.0745
557.0289, 612.7462
557.5110, 613.1815
557.9931, 614.0294
558.4752, 615.3018
558.9573, 617.0490
559.4395, 620.4672
559.9216, 623.6322
560.4037, 624.7276
560.8858, 623.3783
561.3679, 621.6049
561.8500, 619.7924
562.3322, 618.1632
562.8143, 616.8846
563.2964, 614.9080
563.7785, 614.7821
564.2606, 618.9542
564.7427, 624.4152
565.2249, 624.6018
565.7070, 616.0372
566.1891, 609.7496
566.6712, 609.4777
567.1533, 614.1914
567.6354, 617.1244
568.1176, 618.1202
568.5997, 618.3234
569.0818, 618.2079
569.5639, 617.9149
570.0460, 618.1219
570.5281, 618.9242
571.0103, 619.7529
571.4924, 619.9575
571.9745, 619.8127
572.4566, 619.8319
572.9387, 620.3597
573.4208, 620.7802
573.9030, 620.2350
574.3851, 619.3038
574.8672, 619.2507
575.3493, 621.1820
575.8314, 623.3881
576.3135, 625.5257
576.7957, 627.5507
577.2778, 628.6048
577.7599, 628.0253
578.2420, 627.1772
578.7241, 626.7576
579.2062, 626.8820
579.6884, 626.9508
580.1705, 626.9449
580.6526, 626.9298
581.1347, 627.0135
581.6168, 627.1940
582.0989, 627.3105
582.5811, 627.3520
583.0632, 627.2850
583.5453, 626.7493
584.0274, 625.9772
584.5095, 625.8333
584.9916, 627.5927
585.4738, 629.6019
585.9559, 630.0033
586.4380, 628.9842
586.9201, 628.3772
587.4022, 629.9087
587.8843, 631.4852
588.3664, 631.5209
588.8485, 629.0437
589.3306, 627.4951
589.8127, 627.8461
590.2949, 628.9509
590.7770, 629.8254
591.2591, 630.2714
591.7412, 630.9525
592.2233, 631.9314
592.7054, 633.1898
593.1876, 635.1625
593.6697, 638.0346
594.1518, 639.2540
594.6339, 636.8501
595.1160, 632.6607
595.5981, 631.4316
596.0803, 632.9362
596.5624, 634.9950
597.0445, 636.4834
597.5266, 637.5250
598.0087, 638.0805
598.4908, 638.1129
598.9730, 638.3268
599.4551, 639.3685
599.9372, 640.6293
600.4193, 641.5438
600.9014, 642.0132
601.3835, 642.1085
601.8657, 641.7466
602.3478, 641.0354
602.8299, 640.0844
603.3120, 638.6902
603.7941, 637.3998
604.2762, 636.0405
604.7584, 634.9283
605.2405, 635.6691
605.7226, 638.5611
606.2047, 641.2335
606.6868, 642.6288
607.1689, 642.8402
607.6511, 641.5950
608.1332, 638.8925
608.6153, 636.9838
609.0974, 638.3929
609.5795, 641.4115
610.0616, 643.9421
610.5438, 645.7613
611.0259, 646.4863
611.5080, 644.5310
611.9901, 641.8701
612.4722, 640.8334
612.9543, 643.6472
613.4365, 646.1686
613.9186, 647.8601
614.4007, 648.7748
614.8828, 648.9015
615.3649, 647.8881
615.8470, 646.7854
616.3292, 645.8477
616.8113, 645.0699
617.2934, 644.4634
617.7755, 644.0419
618.2576, 643.5789
618.7397, 642.6695
619.2219, 641.6064
619.7040, 641.2526
620.1861, 641.6791
620.6682, 642.4415
621.1503, 643.0907
621.6324, 643.8817
622.1146, 645.2970
622.5967, 647.9686
623.0788, 650.0947
623.5609, 650.6896
624.0430, 650.3400
624.5251, 649.8798
625.0073, 649.3684
625.4894, 648.8615
625.9715, 648.3012
626.4536, 647.7577
626.9357, 647.4462
627.4178, 647.3810
627.9000, 647.5037
628.3821, 647.7736
628.8642, 648.2002
629.3463, 648.7997
629.8284, 649.5507
630.3105, 650.6984
630.7927, 652.9257
631.2748, 655.5358
631.7569, 657.1749
632.2390, 657.6837
632.7211, 657.6906
633.2032, 657.4338
633.6854, 657.0366
634.1675, 656.6203
634.6496, 656.1158
635.1317, 655.7904
635.6138, 655.7352
636.0959, 655.9171
636.5781, 656.3112
637.0602, 657.4011
637.5423, 657.9025
638.0244, 657.4128
638.5065, 656.2839
638.9886, 655.6077
639.4708, 655.4349
639.9529, 655.3414
640.4350, 655.0536
640.9171, 654.7070
641.3992, 654.8497
641.8813, 655.4399
642.3635, 656.0413
642.8456, 656.0823
643.3277, 656.0805
643.8098, 656.8132
644.2919, 658.4261
644.7740, 659.8171
645.2562, 660.1584
645.7383, 660.1659
646.2204, 660.4238
646.7025, 661.1633
647.1846, 661.9611
647.6667, 663.1154
648.1489, 664.1340
648.6310, 664.3811
649.1131, 663.7135
649.5952, 662.6052
650.0773, 660.6929
650.5594, 658.8846
651.0416, 659.8068
651.5237, 663.2186
652.0058, 665.7798
652.4879, 665.3759
652.9700, 663.7599
653.4521, 663.7800
653.9343, 665.0696
654.4164, 665.8868
654.8985, 664.4888
655.3806, 662.8524
655.8627, 662.3778
656.3448, 663.2377
656.8270, 664.2527
657.3091, 665.3986
657.7912, 666.4440
658.2733, 667.1943
658.7554, 667.4260
659.2375, 668.1857
659.7197, 669.9294
660.2018, 671.4033
660.6839, 670.6114
661.1660, 667.6395
661.6481, 666.6205
662.1302, 668.5652
662.6124, 671.5537
663.0945, 673.5602
663.5766, 674.5461
664.0587, 674.3127
664.5408, 671.3504
665.0229, 668.8695
665.5051, 669.6552
665.9872, 672.6411
666.4693, 675.1862
666.9514, 676.7469
667.4335, 677.5021
667.9156, 677.0326
668.3978, 675.5911
668.8799, 674.9697
669.3620, 675.3854
669.8441, 676.2457
670.3262, 677.5587
670.8083, 679.2618
671.2905, 679.9065
671.7726, 679.4401
672.2547, 678.4214
672.7368, 676.5522
673.2189, 674.6439
673.7010, 674.7518
674.1832, 677.2934
674.6653, 679.9369
675.1474, 680.5646
675.6295, 680.5887
676.1116, 681.6213
676.5938, 684.9633
677.0759, 687.5770
677.5580, 687.6738
678.0401, 687.1392
678.5222, 688.4318
679.0043, 692.1420
679.4865, 696.4315
679.9686, 701.0587
680.4507, 706.1508
680.9328, 712.5245
681.4149, 720.1266
681.8970, 727.4183
682.3792, 733.5792
682.8613, 739.3226
683.3434, 745.1891
683.8255, 751.5536
684.3076, 760.3585
684.7897, 774.4371
685.2719, 789.8514
685.7540, 803.4106
686.2361, 815.1440
686.7182, 828.2211
687.2003, 844.6351
687.6824, 861.3914
688.1646, 876.6271
688.6467, 889.6254
689.1288, 905.5495
689.6109, 924.1096
690.0930, 945.9474
690.5751, 971.6580
691.0573, 1001.182
691.5394, 1034.261
692.0215, 1069.988
692.5036, 1112.428
692.9857, 1165.588
693.4678, 1227.855
693.9500, 1296.063
694.4321, 1369.628
694.9142, 1450.810
695.3963, 1542.206
695.8784, 1640.903
696.3605, 1742.741
696.8427, 1857.397
697.3248, 1962.093
697.8069, 2061.450
698.2890, 2146.318
698.7711, 2195.977
699.2532, 2205.030
699.7354, 2200.798
700.2175, 2190.989
700.6996, 2171.984
701.1817, 2144.510
701.6638, 2104.504
702.1459, 2023.642
702.6281, 1862.517
703.1102, 1669.650
703.5923, 1480.299
704.0744, 1299.399
704.5565, 1148.270
705.0386, 1042.652
705.5208, 963.6952
706.0029, 905.5427
706.4850, 869.8391
706.9671, 841.2476
707.4492, 821.5433
707.9313, 806.6129
708.4135, 794.5468
708.8956, 785.3045
709.3777, 779.6086
709.8598, 777.7654
710.3419, 777.2560
710.8240, 776.6686
711.3062, 775.5609
711.7883, 772.9633
712.2704, 768.7666
712.7525, 763.0110
713.2346, 754.5984
713.7167, 745.2809
714.1989, 736.7642
714.6810, 729.3271
715.1631, 723.2736
715.6452, 719.1476
716.1273, 716.2317
716.6094, 713.8663
717.0916, 712.2929
717.5737, 710.4987
718.0558, 708.0081
718.5379, 705.7712
719.0200, 705.6730
719.5021, 707.4777
719.9843, 709.6600
720.4664, 712.0882
720.9485, 714.0790
721.4306, 714.7759
721.9127, 714.3683
722.3948, 713.2885
722.8770, 710.8877
723.3591, 708.7032
723.8412, 707.3047
724.3233, 706.6461
724.8054, 706.5460
725.2875, 707.3043
725.7697, 708.1060
726.2518, 708.8530
726.7339, 709.4448
727.2160, 709.3422
727.6981, 708.5167
728.1802, 707.3359
728.6624, 705.0775
729.1445, 702.8750
729.6266, 703.5099
730.1087, 706.7275
730.5908, 710.3650
731.0729, 714.4965
731.5551, 717.5476
732.0372, 717.8546
732.5193, 715.0874
733.0014, 712.9868
733.4835, 712.6891
733.9656, 712.8061
734.4478, 712.6956
734.9299, 712.2924
735.4120, 712.0972
735.8941, 712.0936
736.3762, 712.3570
736.8583, 713.2455
737.3405, 714.4894
737.8226, 714.9881
738.3047, 714.6061
738.7868, 713.8961
739.2689, 712.4517
739.7510, 711.3439
740.2332, 712.0735
740.7153, 715.9291
741.1974, 718.9644
741.6795, 719.4539
742.1616, 718.9088
742.6437, 718.8323
743.1259, 719.5970
743.6080, 719.7033
744.0901, 718.5905
744.5722, 717.6116
745.0543, 719.5065
745.5364, 723.8062
746.0186, 725.9404
746.5007, 724.5244
746.9828, 721.9864
747.4649, 720.7515
747.9470, 720.3961
748.4291, 720.1448
748.9113, 719.2859
749.3934, 719.0433
749.8755, 720.6116
750.3576, 722.9254
750.8397, 723.8444
751.3218, 722.3697
751.8040, 721.2711
752.2861, 720.8829
752.7682, 721.2261
753.2503, 723.0165
753.7324, 726.1261
754.2145, 727.5806
754.6967, 725.2648
755.1788, 721.9720
755.6609, 722.0507
756.1430, 724.5079
756.6251, 726.5653
757.1072, 726.4788
757.5894, 726.1732
758.0715, 726.5070
758.5536, 727.3887
759.0357, 728.2969
759.5178, 729.3636
759.9999, 730.2047
760.4821, 730.7564
760.9642, 730.9810
761.4463, 730.2541
761.9284, 728.5082
762.4105, 727.8630
762.8926, 730.5880
763.3748, 734.5364
763.8569, 735.9133
764.3390, 735.0927
764.8211, 733.9656
765.3032, 732.7860
765.7853, 732.2722
766.2675, 733.2721
766.7496, 735.7752
767.2317, 737.2668
767.7138, 736.6663
768.1959, 736.5192
768.6780, 738.4049
769.1602, 742.0386
769.6423, 742.9493
770.1244, 740.9899
770.6065, 738.3992
771.0886, 735.8026
771.5707, 733.9217
772.0529, 734.6683
772.5350, 737.8806
773.0171, 740.7055
773.4992, 740.9911
773.9813, 740.6932
774.4634, 741.0740
774.9456, 742.3373
775.4277, 743.6048
775.9098, 745.5001
776.3919, 746.4636
776.8740, 745.0421
777.3561, 741.1930
777.8383, 740.0155
778.3204, 741.7578
778.8025, 743.7194
779.2846, 743.1183
779.7667, 741.4622
780.2488, 741.7313
780.7310, 744.2098
781.2131, 746.0842
781.6952, 745.2825
782.1773, 743.7012
782.6594, 742.5306
783.1415, 741.8102
783.6237, 741.9595
784.1058, 743.4420
784.5879, 745.0575
785.0699, 745.8337
785.5521, 745.7659
786.0342, 746.1140
786.5163, 746.9552
786.9984, 747.7100
787.4805, 747.5792
787.9626, 747.1450
788.4448, 747.3986
788.9269, 748.5679
789.4090, 749.5541
789.8911, 749.2573
790.3732, 748.9848
790.8553, 749.9055
791.3375, 752.7482
791.8196, 754.7878
792.3017, 756.1016
792.7838, 756.5294
793.2659, 755.2972
793.7480, 752.6637
794.2302, 751.9927
794.7123, 753.6616
795.1944, 755.7070
795.6765, 756.3337
796.1586, 756.3030
796.6407, 756.6345
797.1229, 757.5953
797.6050, 758.3837
798.0871, 758.5095
798.5692, 758.5143
799.0513, 758.8129
799.5334, 759.4639
800.0156, 760.3830
800.4977, 761.7959
800.9798, 762.9484
801.4619, 762.9680
801.9440, 762.0551
802.4261, 760.8124
802.9083, 759.1986
803.3904, 758.5135
803.8725, 761.2247
804.3546, 764.6804
804.8367, 765.9401
805.3188, 763.9333
805.8010, 761.8379
806.2831, 759.8567
806.7652, 758.4127
807.2473, 757.7926
807.7294, 757.9907
808.2115, 759.2212
808.6937, 761.7255
809.1758, 764.3107
809.6579, 765.9609
810.1400, 766.7921
810.6221, 766.7770
811.1042, 765.8356
811.5864, 765.3428
812.0685, 767.2703
812.5506, 769.3856
813.0327, 769.4495
813.5148, 765.8674
813.9969, 764.5155
814.4791, 766.9554
814.9612, 769.9847
815.4433, 771.2733
815.9254, 770.7524
816.4075, 770.0794
816.8896, 769.2142
817.3718, 768.9053
817.8539, 771.3624
818.3360, 774.1871
818.8181, 772.5363
819.3002, 765.4698
819.7823, 760.9996
820.2645, 765.1914
820.7466, 771.5338
821.2287, 775.6168
821.7108, 777.0156
822.1929, 777.6969
822.6750, 777.2398
823.1572, 777.1038
823.6393, 778.9148
824.1214, 782.1187
824.6035, 783.7940
825.0856, 783.8286
825.5677, 782.7091
826.0499, 779.6232
826.5320, 776.3629
827.0141, 774.5212
827.4962, 774.3056
827.9783, 775.0308
828.4604, 777.0999
828.9426, 779.6030
829.4247, 782.5446
829.9068, 785.9819
830.3889, 787.0468
830.8710, 785.5362
831.3531, 783.2709
831.8353, 780.6760
832.3174, 778.5057
832.7995, 778.8036
833.2816, 781.3678
833.7637, 783.8248
834.2458, 784.9191
834.7280, 785.4540
835.2101, 785.6641
835.6922, 785.5691
836.1743, 786.1633
836.6564, 788.0558
837.1385, 789.4301
837.6207, 789.3092
838.1028, 788.0417
838.5849, 786.7883
839.0670, 785.6425
839.5491, 785.7050
840.0313, 790.1128
840.5134, 794.1688
840.9955, 791.5664
841.4776, 783.9885
841.9597, 779.7305
842.4418, 784.5028
842.9240, 789.4344
843.4061, 791.9800
843.8882, 792.6051
844.3703, 793.4296
844.8524, 794.5901
845.3345, 794.7609
845.8167, 792.7155
846.2988, 790.1507
846.7809, 790.7039
847.2630, 793.3896
847.7451, 795.2725
848.2272, 794.3815
848.7094, 793.0345
849.1915, 792.0650
849.6736, 791.4384
850.1557, 790.9001
850.6378, 789.9627
851.1199, 790.2722
851.6021, 792.4247
852.0842, 795.6475
852.5663, 798.7727
853.0484, 801.6236
853.5305, 803.2306
854.0126, 802.7627
854.4948, 801.9708
854.9769, 802.2516
855.4590, 803.2521
855.9411, 804.4627
856.4232, 805.8426
856.9053, 807.2980
857.3875, 809.1163
857.8696, 810.7401
858.3517, 811.3885
858.8338, 811.0410
859.3159, 810.2983
859.7980, 809.1852
860.2802, 808.0111
860.7623, 806.7250
861.2444, 805.7609
861.7265, 805.9767
862.2086, 808.0485
862.6907, 809.7289
863.1729, 810.2530
863.6550, 809.9586
864.1371, 808.9777
864.6192, 806.6778
865.1013, 805.9814
865.5834, 807.0756
866.0656, 809.0723
866.5477, 812.2816
867.0298, 815.5956
867.5119, 815.4355
867.9940, 811.4932
868.4761, 808.0950
868.9583, 807.6718
869.4404, 808.9811
869.9225, 811.8063
870.4046, 816.5296
870.8867, 818.9196
871.3688, 818.2062
871.8510, 816.6131
872.3331, 814.8558
872.8152, 813.1886
873.2973, 813.2567
873.7794, 814.9410
874.2615, 816.6801
874.7437, 817.3900
875.2258, 817.8106
875.7079, 818.6420
876.1900, 819.7951
876.6721, 820.6885
877.1542, 820.9633
877.6364, 821.3019
878.1185, 822.3181
878.6006, 823.3542
879.0827, 821.0786
879.5648, 815.5454
880.0469, 812.6871
880.5291, 816.1411
881.0112, 821.3104
881.4933, 822.0381
881.9754, 820.1119
882.4575, 819.2121
882.9396, 822.1898
883.4218, 824.4572
883.9039, 824.2576
884.3860, 823.1673
884.8681, 823.6564
885.3502, 826.1793
885.8323, 827.1012
886.3145, 825.4396
886.7966, 823.6667
887.2787, 825.9474
887.7608, 830.1593
888.2429, 832.3646
888.7250, 831.4542
889.2072, 829.3734
889.6893, 825.3699
890.1714, 821.6685
890.6535, 820.3366
891.1356, 822.1539
891.6177, 823.1827
892.0999, 823.1428
892.5820, 823.3081
893.0641, 825.3004
893.5462, 828.2286
894.0283, 829.6963
894.5104, 829.6011
894.9926, 829.1486
895.4747, 828.7429
895.9568, 828.4710
896.4389, 828.0343
896.9210, 827.4855
897.4031, 828.9645
897.8853, 833.8948
898.3674, 837.3898
898.8495, 837.0538
899.3316, 834.0900
899.8137, 831.5035
900.2958, 829.4387
900.7780, 828.4827
901.2601, 829.8413
901.7422, 831.5708
902.2243, 832.1830
902.7064, 832.2459
903.1885, 833.3611
903.6707, 837.2903
904.1528, 838.9648
904.6349, 836.8022
905.1170, 833.1516
905.5991, 832.0690
906.0812, 833.2272
906.5634, 834.7521
907.0455, 836.1418
907.5276, 838.0399
908.0097, 842.9528
908.4918, 847.7074
908.9739, 848.3494
909.4561, 840.9699
909.9382, 836.1927
910.4203, 834.7125
910.9024, 835.2017
911.3845, 837.4205
911.8666, 841.0598
912.3488, 842.3561
912.8309, 841.1618
913.3130, 839.9191
913.7951, 840.9677
914.2772, 842.4750
914.7593, 842.6149
915.2415, 841.2926
915.7236, 840.3021
916.2057, 839.5713
916.6878, 839.6957
917.1699, 841.1790
917.6520, 843.5993
918.1342, 844.7710
918.6163, 844.8486
919.0984, 845.9811
919.5805, 850.8252
920.0626, 855.3605
920.5447, 854.8143
921.0269, 851.1619
921.5090, 848.5796
921.9911, 848.7082
922.4732, 849.3278
922.9553, 850.2178
923.4374, 851.4965
923.9196, 853.8505
924.4017, 857.1543
924.8838, 858.6625
925.3659, 857.8010
925.8480, 856.0807
926.3301, 853.9570
926.8123, 852.3187
927.2944, 852.3659
927.7765, 854.8738
928.2586, 856.8693
928.7407, 858.1722
929.2228, 858.6929
929.7050, 858.0216
930.1871, 856.2775
930.6692, 855.5267
931.1513, 855.7614
931.6334, 856.5615
932.1155, 858.2619
932.5977, 859.9094
933.0798, 860.8724
933.5619, 861.0612
934.0440, 860.2025
934.5261, 855.8016
935.0082, 853.8102
935.4904, 856.5850
935.9725, 861.6623
936.4546, 862.7267
936.9367, 860.2178
937.4188, 858.6629
937.9009, 859.7980
938.3831, 861.2875
938.8652, 860.2843
939.3473, 858.5565
939.8294, 858.5458
940.3115, 862.2250
940.7936, 865.0707
941.2758, 866.9926
941.7579, 867.9811
942.2400, 867.5773
942.7221, 866.0249
943.2042, 865.4099
943.6863, 865.8469
944.1685, 866.5708
944.6506, 867.6169
945.1327, 868.2261
945.6148, 867.4193
946.0969, 865.1947
946.5790, 863.6323
947.0612, 862.8843
947.5433, 862.7054
948.0254, 862.8612
948.5075, 863.6237
948.9896, 866.8436
949.4717, 871.7767
949.9539, 874.5046
950.4360, 871.7049
950.9181, 868.6872
951.4002, 869.8264
951.8823, 872.8319
952.3644, 874.0041
952.8466, 871.8278
953.3287, 870.4075
953.8108, 869.9589
954.2929, 870.2386
954.7750, 871.2391
955.2571, 872.7299
955.7393, 873.9162
956.2214, 874.7088
956.7035, 875.5939
957.1856, 878.0713
957.6677, 879.7744
958.1498, 877.9816
958.6320, 872.7059
959.1141, 871.1906
959.5962, 874.3669
960.0783, 878.1354
960.5604, 881.0673
961.0425, 883.0780
961.5247, 883.7294
962.0068, 883.3253
962.4889, 882.8098
962.9710, 882.7257
963.4531, 882.4695
963.9352, 880.8626
964.4174, 879.4198
964.8995, 880.7575
965.3816, 886.0397
965.8637, 888.2311
966.3458, 886.1232
966.8279, 883.4904
967.3101, 885.6924
967.7922, 889.6383
968.2743, 889.4349
968.7564, 884.0367
969.2385, 880.9697
969.7206, 885.7189
970.2028, 890.6911
970.6849, 891.8046
971.1670, 889.7852
971.6491, 892.4266
972.1312, 899.8246
972.6133, 904.3314
973.0955, 900.0554
973.5776, 893.2586
974.0597, 890.4987
974.5418, 890.8415
975.0239, 892.3922
975.5060, 896.5708
975.9882, 899.1390
976.4703, 899.1968
976.9524, 898.0939
977.4345, 897.5337
977.9166, 897.4154
978.3987, 896.5143
978.8809, 894.6410
979.3630, 893.3379
979.8451, 894.4790
980.3272, 896.3536
980.8093, 897.3928
981.2914, 897.3905
981.7736, 898.0623
982.2557, 899.7643
982.7377, 901.4600
983.2198, 902.9196
983.7020, 903.9182
984.1841, 903.1585
984.6662, 901.2802
985.1483, 900.6122
985.6304, 903.0260
986.1125, 905.6756
986.5947, 907.6721
987.0768, 908.8066
987.5589, 908.7881
988.0410, 907.1971
988.5231, 905.9194
989.0052, 905.0552
989.4874, 904.4628
989.9695, 904.3149
990.4516, 904.2129
990.9337, 902.9105
991.4158, 900.4315
991.8979, 899.6757
992.3801, 903.9409
992.8622, 907.8362
993.3443, 909.1686
993.8264, 908.5223
994.3085, 908.3549
994.7906, 908.6681
995.2728, 909.0409
995.7549, 909.2754
996.2370, 909.6094
996.7191, 910.4657
997.2012, 911.5150
997.6833, 912.2842
998.1655, 912.6429
998.6476, 912.6426
999.1297, 912.0890
999.6118, 911.4695
1000.094, 910.8560
1000.576, 910.4783
1001.058, 911.8529
1001.540, 914.8948
1002.022, 918.0247
1002.505, 921.1883
1002.987, 923.1888
1003.469, 922.5275
1003.951, 919.8866
1004.433, 918.1051
1004.915, 916.9871
1005.397, 917.8339
1005.879, 921.7108
1006.361, 925.9299
1006.844, 925.5169
1007.326, 922.8324
1007.808, 922.5570
1008.290, 926.8636
1008.772, 930.0057
1009.254, 929.3856
1009.736, 927.6510
1010.218, 925.7823
1010.701, 923.8138
1011.183, 924.8444
1011.665, 928.8019
1012.147, 932.3478
1012.629, 932.6439
1013.111, 932.2256
1013.593, 933.7093
1014.075, 936.3167
1014.557, 937.7169
1015.040, 937.1014
1015.522, 936.1178
1016.004, 934.5138
1016.486, 933.4315
1016.968, 934.7741
1017.450, 937.9186
1017.932, 941.4009
1018.414, 945.0961
1018.896, 947.2897
1019.379, 945.9709
1019.861, 943.7479
1020.343, 942.2292
1020.825, 941.3390
1021.307, 939.4445
1021.789, 936.2429
1022.271, 935.1339
1022.753, 938.4370
1023.236, 943.1608
1023.718, 945.8532
1024.200, 947.0051
1024.682, 947.4679
1025.164, 947.3532
1025.646, 946.5953
1026.128, 944.3444
1026.610, 942.7619
1027.093, 944.9634
1027.575, 949.9498
1028.057, 950.6847
1028.539, 947.1388
1029.021, 943.0500
1029.503, 938.4149
1029.985, 936.3553
1030.467, 940.6139
1030.949, 949.2977
1031.432, 955.1576
1031.914, 957.9803
1032.396, 958.4803
1032.878, 956.2746
1033.360, 953.2826
1033.842, 951.7449
1034.324, 951.3978
1034.806, 952.0314
1035.288, 953.8838
1035.771, 955.3717
1036.253, 955.9357
1036.735, 956.2596
1037.217, 956.2106
1037.699, 956.1895
1038.181, 959.6569
1038.663, 966.0492
1039.145, 970.5550
1039.628, 968.4779
1040.110, 966.3099
1040.592, 969.4858
1041.074, 974.9818
1041.556, 977.5039
1042.038, 975.1418
1042.520, 975.5154
1043.002, 979.6079
1043.484, 983.9138
1043.967, 984.4291
1044.449, 983.2497
1044.931, 983.4071
1045.413, 985.1407
1045.895, 988.4301
1046.377, 994.2158
1046.859, 1000.618
1047.341, 1007.721
1047.823, 1014.618
1048.306, 1017.812
1048.788, 1018.209
1049.270, 1022.820
1049.752, 1034.639
1050.234, 1045.436
1050.716, 1050.828
1051.198, 1050.931
1051.680, 1043.961
1052.163, 1029.191
1052.645, 1018.697
1053.127, 1012.773
1053.609, 1009.260
1054.091, 1006.528
1054.573, 1005.876
1055.055, 1010.256
1055.537, 1018.322
1056.020, 1027.052
1056.502, 1033.207
1056.984, 1043.025
1057.466, 1055.218
1057.948, 1073.406
1058.430, 1098.678
1058.912, 1132.555
1059.394, 1183.274
1059.876, 1251.101
1060.359, 1339.768
1060.841, 1461.510
1061.323, 1595.764
1061.805, 1740.692
1062.287, 1886.922
1062.769, 1999.659
1063.251, 2071.812
1063.733, 2151.647
1064.215, 2247.355
1064.698, 2362.392
1065.180, 2503.635
1065.662, 2666.728
1066.144, 2845.812
1066.626, 3034.996
1067.108, 3253.221
1067.590, 3490.700
1068.072, 3772.257
1068.555, 4094.507
1069.037, 4475.089
1069.519, 4946.914
1070.001, 5518.298
1070.483, 6219.425
1070.965, 7029.289
1071.447, 8016.608
1071.929, 9227.962
1072.411, 10623.71
1072.894, 12406.85
1073.376, 14682.89
1073.858, 15785.65
1074.340, 15679.59
1074.822, 14420.83
1075.304, 11102.67
1075.786, 7472.353
1076.268, 4896.762
1076.750, 3274.879
1077.233, 2209.517
1077.715, 1774.199
1078.197, 1499.824
1078.679, 1343.802
1079.161, 1257.390
1079.643, 1203.166
1080.125, 1170.272
1080.607, 1140.079
1081.090, 1110.337
1081.572, 1087.935
1082.054, 1079.863
1082.536, 1073.444
1083.018, 1064.892
1083.500, 1055.295
1083.982, 1047.596
1084.464, 1041.550
1084.946, 1035.711
1085.429, 1029.523
1085.911, 1024.116
1086.393, 1020.313
1086.875, 1017.467
1087.357, 1014.782
1087.839, 1012.156
1088.321, 1011.894
1088.803, 1014.171
1089.286, 1015.530
1089.768, 1012.983
1090.250, 1009.750
1090.732, 1009.430
1091.214, 1010.764
1091.696, 1011.376
1092.178, 1010.328
1092.660, 1009.887
1093.142, 1010.525
1093.625, 1010.525
1094.107, 1006.753
1094.589, 1001.847
1095.071, 1002.252
1095.553, 1007.119
1096.035, 1010.050
1096.517, 1005.533
1096.999, 1002.772
1097.481, 1004.840
1097.964, 1008.596
1098.446, 1008.485
1098.928, 1005.309
1099.410, 1003.132
1099.892, 1002.595
1100.374, 1002.807
1100.856, 1003.787
1101.338, 1004.825
1101.821, 1005.633
1102.303, 1006.143
1102.785, 1005.655
1103.267, 1004.125
1103.749, 1003.442
1104.231, 1004.487
1104.713, 1005.750
1105.195, 1005.420
1105.677, 1004.664
1106.160, 1005.094
1106.642, 1007.506
1107.124, 1007.484
1107.606, 1004.137
1108.088, 1001.826
1108.570, 1003.214
1109.052, 1006.581
1109.534, 1010.471
1110.016, 1013.837
1110.499, 1014.507
1110.981, 1008.579
1111.463, 1005.085
1111.945, 1005.103
1112.427, 1006.762
1112.909, 1009.644
1113.391, 1012.823
1113.873, 1012.165
1114.356, 1008.291
1114.838, 1005.310
1115.320, 1005.190
1115.802, 1006.400
1116.284, 1009.891
1116.766, 1013.203
1117.248, 1011.897
1117.730, 1006.446
1118.213, 1004.576
1118.695, 1007.040
1119.177, 1010.293
1119.659, 1012.374
1120.141, 1013.776
1120.623, 1014.701
1121.105, 1015.203
1121.587, 1015.314
1122.069, 1014.976
1122.552, 1014.660
1123.034, 1014.317
1123.516, 1014.725
1123.998, 1017.609
1124.480, 1021.083
1124.962, 1023.364
1125.444, 1024.162
1125.926, 1023.614
1126.408, 1021.522
1126.891, 1018.608
1127.373, 1014.286
1127.855, 1010.802
1128.337, 1012.988
1128.819, 1018.089
1129.301, 1021.592
1129.783, 1022.172
1130.265, 1021.556
1130.748, 1019.212
1131.230, 1017.237
1131.712, 1016.636
1132.194, 1017.345
1132.676, 1020.086
1133.158, 1023.990
1133.640, 1026.619
1134.122, 1026.038
1134.604, 1025.620
1135.087, 1026.755
1135.569, 1027.593
1136.051, 1025.962
1136.533, 1022.412
1137.015, 1021.465
1137.497, 1022.892
1137.979, 1024.663
1138.461, 1025.941
1138.943, 1027.011
1139.426, 1028.234
1139.908, 1029.155
1140.390, 1028.809
1140.872, 1027.195
1141.354, 1026.976
1141.836, 1028.343
1142.318, 1029.978
1142.800, 1031.262
1143.283, 1032.122
1143.765, 1032.435
1144.247, 1032.263
1144.729, 1031.657
1145.211, 1030.467
1145.693, 1030.085
1146.175, 1030.775
1146.657, 1031.926
1147.140, 1032.871
1147.622, 1034.027
1148.104, 1035.872
1148.586, 1038.392
1149.068, 1041.023
1149.550, 1044.171
1150.032, 1045.436
1150.514, 1043.787
1150.996, 1041.280
1151.479, 1040.816
1151.961, 1041.074
1152.443, 1040.230
1152.925, 1037.838
1153.407, 1035.804
1153.889, 1033.667
1154.371, 1033.661
1154.853, 1037.581
1155.335, 1042.643
1155.818, 1042.886
1156.300, 1040.675
1156.782, 1040.529
1157.264, 1044.599
1157.746, 1047.050
1158.228, 1046.424
1158.710, 1045.784
1159.192, 1047.263
1159.675, 1049.499
1160.157, 1048.052
1160.639, 1044.394
1161.121, 1042.587
1161.603, 1045.501
1162.085, 1047.570
1162.567, 1047.252
1163.049, 1046.393
1163.531, 1046.095
1164.014, 1046.340
1164.496, 1047.221
1164.978, 1048.602
1165.460, 1049.908
1165.942, 1050.799
1166.424, 1051.663
1166.906, 1052.600
1167.388, 1053.585
1167.870, 1054.820
1168.353, 1056.178
1168.835, 1056.326
1169.317, 1055.355
1169.799, 1054.474
1170.281, 1054.312
1170.763, 1054.425
1171.245, 1054.608
1171.727, 1054.962
1172.210, 1055.938
1172.692, 1057.442
1173.174, 1057.584
1173.656, 1056.265
1174.138, 1054.481
1174.620, 1051.083
1175.102, 1049.303
1175.584, 1053.136
1176.067, 1059.027
1176.549, 1060.003
1177.031, 1056.021
1177.513, 1053.804
1177.995, 1054.186
1178.477, 1055.722
1178.959, 1058.446
1179.441, 1060.846
1179.923, 1061.458
1180.406, 1060.931
1180.888, 1061.427
1181.370, 1063.006
1181.852, 1063.819
1182.334, 1063.363
1182.816, 1063.358
1183.298, 1066.075
1183.780, 1069.248
1184.262, 1070.786
1184.745, 1070.932
1185.227, 1071.843
1185.709, 1073.655
1186.191, 1074.275
1186.673, 1072.922
1187.155, 1071.410
1187.637, 1072.502
1188.119, 1073.571
1188.602, 1071.179
1189.084, 1065.538
1189.566, 1062.941
1190.048, 1063.589
1190.530, 1065.921
1191.012, 1070.351
1191.494, 1073.749
1191.976, 1070.726
1192.458, 1066.074
1192.941, 1065.537
1193.423, 1069.875
1193.905, 1072.500
1194.387, 1073.345
1194.869, 1072.567
1195.351, 1069.136
1195.833, 1066.372
1196.315, 1069.560
1196.797, 1074.798
1197.280, 1076.980
1197.762, 1075.048
1198.244, 1074.509
1198.726, 1075.555
1199.208, 1076.791
1199.690, 1077.896
1200.172, 1078.334
1200.654, 1076.272
1201.137, 1073.726
1201.619, 1073.794
1202.101, 1077.537
1202.583, 1080.552
1203.065, 1082.774
1203.547, 1084.754
1204.029, 1087.664
1204.511, 1089.383
1204.994, 1085.607
1205.476, 1079.615
1205.958, 1077.130
1206.440, 1080.141
1206.922, 1081.189
1207.404, 1079.856
1207.886, 1079.544
1208.368, 1084.439
1208.850, 1089.600
1209.333, 1087.693
1209.815, 1082.482
1210.297, 1081.279
1210.779, 1086.815
1211.261, 1089.410
1211.743, 1088.750
1212.225, 1087.351
1212.707, 1085.903
1213.189, 1085.551
1213.672, 1089.160
1214.154, 1094.364
1214.636, 1095.919
1215.118, 1091.665
1215.600, 1090.824
1216.082, 1094.081
1216.564, 1097.059
1217.046, 1095.721
1217.529, 1093.035
1218.011, 1091.135
1218.493, 1090.323
1218.975, 1091.476
1219.457, 1095.791
1219.939, 1096.457
1220.421, 1092.680
1220.903, 1089.468
1221.385, 1091.566
1221.868, 1095.389
1222.350, 1098.340
1222.832, 1100.368
1223.314, 1101.728
1223.796, 1102.451
1224.278, 1102.194
1224.760, 1100.806
1225.242, 1100.010
1225.724, 1100.921
1226.207, 1103.253
1226.689, 1108.730
1227.171, 1114.975
1227.653, 1115.969
1228.135, 1110.616
1228.617, 1107.786
1229.099, 1108.252
1229.581, 1109.057
1230.064, 1106.968
1230.546, 1105.178
1231.028, 1107.385
1231.510, 1111.346
1231.992, 1111.359
1232.474, 1106.941
1232.956, 1104.647
1233.438, 1105.057
1233.921, 1106.224
1234.403, 1107.197
1234.885, 1107.877
1235.367, 1107.488
1235.849, 1107.042
1236.331, 1108.902
1236.813, 1113.101
1237.295, 1115.693
1237.777, 1116.338
1238.260, 1116.653
1238.742, 1118.266
1239.224, 1119.399
1239.706, 1118.367
1240.188, 1116.535
1240.670, 1116.274
1241.152, 1117.425
1241.634, 1118.188
1242.116, 1118.369
1242.599, 1118.191
1243.081, 1116.895
1243.563, 1116.370
1244.045, 1118.328
1244.527, 1120.720
1245.009, 1119.177
1245.491, 1114.770
1245.973, 1114.022
1246.456, 1117.453
1246.938, 1120.469
1247.420, 1119.370
1247.902, 1119.291
1248.384, 1122.715
1248.866, 1126.910
1249.348, 1127.104
1249.830, 1124.474
1250.313, 1122.844
1250.795, 1122.556
1251.277, 1122.857
1251.759, 1123.786
1252.241, 1124.951
1252.723, 1126.655
1253.205, 1127.885
1253.687, 1126.416
1254.169, 1123.571
1254.651, 1122.295
1255.134, 1122.729
1255.616, 1123.447
1256.098, 1124.362
1256.580, 1125.044
1257.062, 1125.577
1257.544, 1125.432
1258.026, 1122.604
1258.508, 1119.351
1258.991, 1119.783
1259.473, 1123.724
1259.955, 1127.125
1260.437, 1129.653
1260.919, 1130.782
1261.401, 1130.026
1261.883, 1129.443
1262.365, 1131.898
1262.848, 1135.395
1263.330, 1138.479
1263.812, 1140.528
1264.294, 1138.778
1264.776, 1131.558
1265.258, 1128.098
1265.740, 1130.017
1266.222, 1133.309
1266.704, 1134.752
1267.187, 1135.281
1267.669, 1135.642
1268.151, 1135.744
1268.633, 1135.027
1269.115, 1133.339
1269.597, 1132.639
1270.079, 1133.163
1270.561, 1134.364
1271.043, 1136.404
1271.526, 1138.363
1272.008, 1139.190
1272.490, 1139.661
1272.972, 1141.834
1273.454, 1145.394
1273.936, 1145.543
1274.418, 1141.941
1274.900, 1138.953
1275.383, 1139.452
1275.865, 1141.022
1276.347, 1143.404
1276.829, 1145.513
1277.311, 1144.934
1277.793, 1142.733
1278.275, 1143.782
1278.757, 1148.036
1279.239, 1151.329
1279.722, 1151.919
1280.204, 1150.723
1280.686, 1146.729
1281.168, 1143.437
1281.650, 1146.742
1282.132, 1153.165
1282.614, 1154.949
1283.096, 1152.494
1283.578, 1150.719
1284.061, 1150.747
1284.543, 1151.823
1285.025, 1154.094
1285.507, 1156.577
1285.989, 1159.392
1286.471, 1161.091
1286.953, 1158.966
1287.435, 1154.128
1287.917, 1150.205
1288.400, 1146.943
1288.882, 1147.000
1289.364, 1150.840
1289.846, 1155.270
1290.328, 1158.763
1290.810, 1160.690
1291.292, 1159.430
1291.774, 1156.604
##END=



