##NAMES=Stromeyerite
##RRUFFID=R060908
##IDEAL CHEMISTRY=Cu^1+^Ag^1+^S^2-^
##LOCALITY=Cobalt, Ontario, Canada
##OWNER=RRUFF
##SOURCE=Royal Ontario Museum
##DESCRIPTION=Black metallic massive with conchoidal fracture
##STATUS=The identification of this mineral has been confirmed by X-ray diffraction and chemical analysis
##URL=rruff.info/R060908
##MEASURED CHEMISTRY=Cu_1.01_Ag_0.99_S
165.8822, 5598.613
166.3643, 5590.388
166.8464, 5604.836
167.3285, 5650.638
167.8106, 5692.548
168.2927, 5726.380
168.7749, 5755.061
169.2570, 5782.712
169.7391, 5810.525
170.2212, 5835.346
170.7033, 5851.407
171.1854, 5856.531
171.6676, 5862.344
172.1497, 5871.903
172.6318, 5882.783
173.1139, 5893.031
173.5960, 5902.705
174.0781, 5908.823
174.5603, 5904.549
175.0424, 5887.260
175.5245, 5874.022
176.0066, 5865.529
176.4887, 5863.839
176.9708, 5876.650
177.4530, 5909.170
177.9351, 5943.363
178.4172, 5946.525
178.8993, 5913.717
179.3814, 5890.170
179.8635, 5889.443
180.3457, 5904.294
180.8278, 5925.602
181.3099, 5952.504
181.7920, 5980.121
182.2741, 5998.197
182.7562, 6005.100
183.2384, 6018.912
183.7205, 6053.005
184.2026, 6095.563
184.6847, 6125.157
185.1668, 6134.084
185.6489, 6135.412
186.1311, 6147.618
186.6132, 6170.551
187.0953, 6193.855
187.5774, 6215.655
188.0595, 6235.595
188.5416, 6250.840
189.0238, 6258.534
189.5059, 6267.911
189.9880, 6295.556
190.4701, 6341.449
190.9522, 6382.581
191.4343, 6408.800
191.9165, 6426.233
192.3986, 6445.976
192.8807, 6470.843
193.3628, 6497.403
193.8449, 6520.594
194.3270, 6540.605
194.8092, 6563.160
195.2913, 6593.438
195.7734, 6627.013
196.2555, 6655.285
196.7376, 6675.895
197.2197, 6693.799
197.7019, 6712.534
198.1840, 6731.916
198.6661, 6758.101
199.1482, 6801.238
199.6303, 6850.590
200.1124, 6885.881
200.5946, 6901.253
201.0767, 6911.448
201.5588, 6934.624
202.0409, 6968.712
202.5230, 6999.285
203.0051, 7022.782
203.4873, 7039.982
203.9694, 7050.211
204.4515, 7051.853
204.9336, 7052.294
205.4157, 7058.430
205.8978, 7069.548
206.3800, 7084.526
206.8621, 7106.538
207.3442, 7131.043
207.8263, 7151.412
208.3084, 7166.557
208.7905, 7179.650
209.2727, 7194.191
209.7548, 7209.557
210.2369, 7221.158
210.7190, 7219.698
211.2011, 7217.681
211.6832, 7233.710
212.1654, 7271.088
212.6475, 7310.318
213.1296, 7332.628
213.6117, 7341.454
214.0938, 7355.344
214.5759, 7381.251
215.0581, 7411.309
215.5402, 7437.832
216.0223, 7460.263
216.5044, 7481.011
216.9865, 7501.508
217.4686, 7521.854
217.9508, 7542.617
218.4329, 7559.816
218.9150, 7580.216
219.3971, 7615.726
219.8792, 7666.175
220.3613, 7707.590
220.8435, 7718.789
221.3256, 7706.111
221.8077, 7705.481
222.2898, 7730.177
222.7719, 7757.830
223.2540, 7771.910
223.7362, 7773.297
224.2183, 7770.620
224.7004, 7767.014
225.1825, 7763.663
225.6646, 7764.543
226.1467, 7767.031
226.6289, 7775.816
227.1110, 7797.876
227.5931, 7830.096
228.0752, 7859.614
228.5573, 7880.399
229.0394, 7892.669
229.5216, 7898.310
230.0037, 7886.632
230.4858, 7882.190
230.9679, 7903.179
231.4500, 7940.894
231.9321, 7970.469
232.4143, 7979.074
232.8964, 7975.100
233.3785, 7982.767
233.8606, 8014.165
234.3427, 8034.868
234.8248, 8023.882
235.3070, 7995.814
235.7891, 7979.142
236.2712, 7985.270
236.7533, 8004.396
237.2354, 8015.578
237.7175, 8014.344
238.1997, 8016.475
238.6818, 8027.090
239.1639, 8042.203
239.6460, 8058.060
240.1281, 8073.974
240.6102, 8086.397
241.0924, 8088.839
241.5745, 8076.752
242.0566, 8066.230
242.5387, 8059.194
243.0208, 8054.016
243.5029, 8049.700
243.9851, 8045.978
244.4672, 8041.958
244.9493, 8036.873
245.4314, 8031.458
245.9135, 8021.858
246.3956, 8007.892
246.8778, 7990.113
247.3599, 7966.018
247.8420, 7936.729
248.3241, 7910.016
248.8062, 7893.976
249.2883, 7890.985
249.7705, 7884.783
250.2526, 7876.802
250.7347, 7864.720
251.2168, 7842.787
251.6989, 7814.262
252.1810, 7789.987
252.6632, 7779.326
253.1453, 7782.515
253.6274, 7782.833
254.1095, 7784.815
254.5916, 7779.603
255.0737, 7762.485
255.5559, 7735.835
256.0380, 7702.695
256.5201, 7663.605
257.0022, 7621.431
257.4843, 7595.229
257.9665, 7605.084
258.4486, 7609.849
258.9307, 7604.656
259.4128, 7590.728
259.8949, 7569.285
260.3770, 7540.707
260.8592, 7507.192
261.3413, 7474.071
261.8234, 7436.794
262.3055, 7407.504
262.7876, 7391.980
263.2697, 7381.700
263.7519, 7369.324
264.2340, 7352.370
264.7161, 7332.436
265.1982, 7313.094
265.6803, 7297.564
266.1624, 7274.510
266.6446, 7236.247
267.1267, 7196.215
267.6088, 7161.782
268.0909, 7134.533
268.5730, 7113.530
269.0551, 7102.917
269.5373, 7108.752
270.0194, 7093.497
270.5015, 7026.448
270.9836, 6961.163
271.4657, 6920.115
271.9478, 6902.221
272.4300, 6894.160
272.9121, 6888.805
273.3942, 6885.641
273.8763, 6874.647
274.3584, 6850.729
274.8405, 6824.955
275.3227, 6803.079
275.8048, 6783.427
276.2869, 6761.498
276.7690, 6731.480
277.2511, 6698.822
277.7332, 6682.106
278.2154, 6690.950
278.6975, 6692.245
279.1796, 6663.353
279.6617, 6619.675
280.1438, 6579.939
280.6259, 6548.423
281.1081, 6525.766
281.5902, 6518.200
282.0723, 6528.227
282.5544, 6527.951
283.0365, 6499.627
283.5186, 6457.875
284.0008, 6419.255
284.4829, 6383.818
284.9650, 6356.164
285.4471, 6347.604
285.9292, 6353.339
286.4113, 6344.012
286.8935, 6304.486
287.3756, 6254.981
287.8577, 6223.153
288.3398, 6210.181
288.8219, 6200.824
289.3040, 6198.832
289.7862, 6194.535
290.2683, 6162.812
290.7504, 6093.227
291.2325, 6023.375
291.7146, 6002.981
292.1967, 6033.298
292.6789, 6044.822
293.1610, 6010.499
293.6431, 5964.639
294.1252, 5939.973
294.6073, 5938.088
295.0894, 5939.927
295.5716, 5931.259
296.0537, 5911.786
296.5358, 5890.675
297.0179, 5866.896
297.5000, 5842.372
297.9821, 5816.319
298.4643, 5790.188
298.9464, 5766.445
299.4285, 5745.970
299.9106, 5729.983
300.3927, 5724.213
300.8748, 5742.541
301.3570, 5753.819
301.8391, 5750.216
302.3212, 5738.559
302.8033, 5726.474
303.2854, 5716.783
303.7675, 5708.525
304.2497, 5700.254
304.7318, 5695.797
305.2139, 5684.101
305.6960, 5660.437
306.1781, 5633.996
306.6602, 5610.046
307.1424, 5589.899
307.6245, 5572.969
308.1066, 5560.348
308.5887, 5554.115
309.0708, 5538.585
309.5529, 5495.350
310.0351, 5459.879
310.5172, 5452.171
310.9993, 5462.719
311.4814, 5468.555
311.9635, 5453.467
312.4456, 5421.511
312.9278, 5390.186
313.4099, 5356.513
313.8920, 5329.483
314.3741, 5318.346
314.8562, 5312.539
315.3383, 5297.785
315.8205, 5266.873
316.3026, 5231.376
316.7847, 5211.077
317.2668, 5209.420
317.7489, 5198.472
318.2310, 5162.333
318.7132, 5118.175
319.1953, 5079.748
319.6774, 5048.317
320.1595, 5024.782
320.6416, 5016.460
321.1237, 5018.076
321.6059, 5006.068
322.0880, 4968.204
322.5701, 4930.891
323.0522, 4928.581
323.5343, 4956.074
324.0164, 4973.154
324.4986, 4962.333
324.9807, 4938.242
325.4628, 4916.953
325.9449, 4899.744
326.4270, 4884.500
326.9091, 4870.379
327.3913, 4857.040
327.8734, 4842.172
328.3555, 4822.569
328.8376, 4804.695
329.3197, 4792.423
329.8018, 4784.438
330.2840, 4778.456
330.7661, 4774.288
331.2482, 4769.038
331.7303, 4754.423
332.2124, 4723.120
332.6945, 4692.511
333.1767, 4662.587
333.6588, 4634.507
334.1409, 4609.001
334.6230, 4586.410
335.1051, 4567.132
335.5872, 4552.540
336.0694, 4546.556
336.5515, 4531.616
337.0336, 4495.890
337.5157, 4463.439
337.9978, 4446.232
338.4799, 4442.143
338.9621, 4443.051
339.4442, 4445.425
339.9263, 4447.139
340.4084, 4431.028
340.8905, 4376.736
341.3727, 4334.801
341.8548, 4320.863
342.3369, 4324.467
342.8190, 4336.453
343.3011, 4355.518
343.7832, 4371.250
344.2654, 4364.830
344.7475, 4332.461
345.2296, 4304.015
345.7117, 4286.451
346.1938, 4275.842
346.6759, 4271.403
347.1581, 4272.895
347.6402, 4271.950
348.1223, 4259.692
348.6044, 4240.796
349.0865, 4229.939
349.5686, 4230.992
350.0508, 4233.563
350.5329, 4224.495
351.0150, 4208.021
351.4971, 4203.372
351.9792, 4230.845
352.4613, 4258.851
352.9435, 4255.873
353.4256, 4226.345
353.9077, 4200.115
354.3898, 4195.364
354.8719, 4204.638
355.3540, 4199.915
355.8362, 4170.199
356.3183, 4144.814
356.8004, 4130.179
357.2825, 4123.641
357.7646, 4123.865
358.2467, 4130.129
358.7289, 4138.250
359.2110, 4143.167
359.6931, 4147.345
360.1752, 4139.911
360.6573, 4111.195
361.1394, 4081.428
361.6216, 4061.138
362.1037, 4049.517
362.5858, 4040.311
363.0679, 4028.985
363.5500, 4015.978
364.0321, 4004.030
364.5143, 3989.136
364.9964, 3981.715
365.4785, 3987.623
365.9606, 3999.847
366.4427, 4012.477
366.9248, 4024.018
367.4070, 4030.113
367.8891, 4021.097
368.3712, 3995.059
368.8533, 3976.709
369.3354, 3975.986
369.8175, 3979.405
370.2997, 3974.791
370.7818, 3962.844
371.2639, 3953.899
371.7460, 3954.429
372.2281, 3961.230
372.7102, 3970.567
373.1924, 3983.237
373.6745, 3990.160
374.1566, 3980.076
374.6387, 3958.609
375.1208, 3949.600
375.6029, 3968.417
376.0851, 3985.822
376.5672, 3984.270
377.0493, 3969.390
377.5314, 3954.717
378.0135, 3945.709
378.4956, 3938.924
378.9778, 3927.322
379.4599, 3903.770
379.9420, 3889.074
380.4241, 3892.293
380.9062, 3898.231
381.3883, 3894.563
381.8705, 3881.024
382.3526, 3865.047
382.8347, 3852.873
383.3168, 3844.476
383.7989, 3839.990
384.2810, 3845.244
384.7632, 3848.065
385.2453, 3843.923
385.7274, 3836.380
386.2095, 3830.317
386.6916, 3827.826
387.1737, 3827.264
387.6559, 3825.966
388.1380, 3823.762
388.6201, 3821.975
389.1022, 3825.537
389.5843, 3825.369
390.0664, 3810.048
390.5486, 3781.031
391.0307, 3759.646
391.5128, 3764.900
391.9949, 3785.174
392.4770, 3794.209
392.9591, 3788.699
393.4413, 3782.268
393.9234, 3786.794
394.4055, 3797.654
394.8876, 3797.677
395.3697, 3775.653
395.8518, 3753.853
396.3340, 3741.783
396.8161, 3738.628
397.2982, 3745.499
397.7803, 3763.881
398.2624, 3784.161
398.7445, 3789.561
399.2267, 3768.323
399.7088, 3758.232
400.1909, 3773.282
400.6730, 3787.600
401.1551, 3781.668
401.6372, 3758.251
402.1194, 3733.292
402.6015, 3718.721
403.0836, 3713.542
403.5657, 3710.797
404.0478, 3712.629
404.5299, 3713.872
405.0121, 3713.504
405.4942, 3712.135
405.9763, 3711.645
406.4584, 3712.644
406.9405, 3710.342
407.4226, 3693.992
407.9048, 3664.266
408.3869, 3650.711
408.8690, 3665.399
409.3511, 3685.799
409.8332, 3695.734
410.3153, 3696.650
410.7975, 3693.423
411.2796, 3683.817
411.7617, 3673.288
412.2438, 3666.523
412.7259, 3663.769
413.2080, 3667.849
413.6902, 3682.989
414.1723, 3703.179
414.6544, 3710.396
415.1365, 3698.438
415.6186, 3687.738
416.1007, 3678.617
416.5829, 3674.405
417.0650, 3681.118
417.5471, 3698.522
418.0292, 3718.489
418.5113, 3734.417
418.9934, 3747.087
419.4756, 3743.874
419.9577, 3695.778
420.4398, 3663.065
420.9219, 3675.833
421.4040, 3708.987
421.8861, 3722.798
422.3683, 3699.170
422.8504, 3664.446
423.3325, 3666.846
423.8146, 3713.730
424.2967, 3746.401
424.7788, 3748.651
425.2610, 3738.985
425.7431, 3728.431
426.2252, 3717.766
426.7073, 3709.555
427.1894, 3706.379
427.6715, 3705.738
428.1537, 3702.479
428.6358, 3696.439
429.1179, 3696.172
429.6000, 3710.520
430.0821, 3731.837
430.5642, 3735.780
431.0464, 3710.767
431.5285, 3689.699
432.0106, 3684.572
432.4927, 3686.609
432.9748, 3684.616
433.4569, 3676.645
433.9391, 3669.203
434.4212, 3669.528
434.9033, 3678.459
435.3854, 3686.844
435.8675, 3698.061
436.3496, 3704.979
436.8318, 3705.063
437.3139, 3699.710
437.7960, 3689.567
438.2781, 3674.448
438.7602, 3659.451
439.2423, 3650.951
439.7245, 3648.167
440.2066, 3659.624
440.6887, 3701.303
441.1708, 3742.651
441.6529, 3760.636
442.1350, 3757.678
442.6172, 3749.000
443.0993, 3732.729
443.5814, 3718.748
444.0635, 3724.489
444.5456, 3748.639
445.0277, 3768.759
445.5099, 3774.167
445.9920, 3767.233
446.4741, 3752.088
446.9562, 3716.412
447.4383, 3696.635
447.9204, 3708.817
448.4026, 3733.259
448.8847, 3755.261
449.3668, 3770.785
449.8489, 3776.289
450.3310, 3766.365
450.8131, 3741.946
451.2953, 3730.088
451.7774, 3734.564
452.2595, 3748.190
452.7416, 3784.038
453.2237, 3820.860
453.7059, 3831.150
454.1880, 3806.155
454.6701, 3774.603
455.1522, 3774.083
455.6343, 3800.583
456.1165, 3804.971
456.5986, 3770.689
457.0807, 3733.324
457.5628, 3722.682
458.0449, 3731.686
458.5270, 3741.729
459.0092, 3748.468
459.4913, 3755.548
459.9734, 3768.348
460.4555, 3783.682
460.9376, 3792.379
461.4197, 3790.637
461.9019, 3782.730
462.3840, 3775.423
462.8661, 3768.156
463.3482, 3763.302
463.8303, 3761.386
464.3124, 3761.281
464.7946, 3762.913
465.2767, 3765.885
465.7588, 3769.880
466.2409, 3775.102
466.7230, 3780.234
467.2051, 3780.820
467.6873, 3774.492
468.1694, 3771.157
468.6515, 3769.036
469.1336, 3774.017
469.6157, 3795.905
470.0978, 3833.214
470.5800, 3864.212
471.0621, 3876.968
471.5442, 3876.032
472.0263, 3865.877
472.5084, 3846.817
472.9905, 3827.718
473.4727, 3812.637
473.9548, 3801.619
474.4369, 3795.303
474.9190, 3792.002
475.4011, 3794.978
475.8832, 3808.900
476.3654, 3826.848
476.8475, 3846.763
477.3296, 3865.615
477.8117, 3873.136
478.2938, 3857.436
478.7759, 3821.148
479.2581, 3800.373
479.7402, 3804.489
480.2223, 3810.640
480.7044, 3816.240
481.1865, 3819.458
481.6686, 3816.324
482.1508, 3805.975
482.6329, 3798.031
483.1150, 3803.392
483.5971, 3818.343
484.0792, 3828.554
484.5613, 3831.442
485.0435, 3834.953
485.5256, 3848.140
486.0077, 3866.797
486.4898, 3872.387
486.9719, 3847.212
487.4540, 3829.438
487.9362, 3838.879
488.4183, 3862.765
488.9004, 3884.636
489.3825, 3899.830
489.8646, 3909.599
490.3467, 3914.932
490.8289, 3915.380
491.3110, 3915.511
491.7931, 3913.378
492.2752, 3913.147
492.7573, 3916.490
493.2394, 3922.107
493.7216, 3929.977
494.2037, 3940.655
494.6858, 3947.057
495.1679, 3937.907
495.6500, 3915.582
496.1321, 3898.315
496.6143, 3888.219
497.0964, 3884.599
497.5785, 3889.837
498.0606, 3901.924
498.5427, 3911.721
499.0248, 3917.234
499.5070, 3921.469
499.9891, 3925.456
500.4712, 3929.294
500.9533, 3934.381
501.4354, 3940.954
501.9175, 3944.297
502.3997, 3936.087
502.8818, 3911.466
503.3639, 3903.882
503.8460, 3936.787
504.3281, 3962.140
504.8102, 3957.155
505.2924, 3938.531
505.7745, 3933.310
506.2566, 3952.888
506.7387, 3976.677
507.2208, 3976.851
507.7029, 3956.622
508.1851, 3945.940
508.6672, 3951.733
509.1493, 3962.010
509.6314, 3966.798
510.1135, 3967.379
510.5956, 3970.384
511.0778, 3979.450
511.5599, 3987.826
512.0420, 3993.129
512.5241, 3995.213
513.0062, 3991.284
513.4883, 3981.094
513.9705, 3973.464
514.4526, 3981.542
514.9347, 4008.972
515.4168, 4025.710
515.8989, 4019.734
516.3810, 4016.095
516.8632, 4025.771
517.3453, 4040.574
517.8274, 4048.707
518.3095, 4045.984
518.7916, 4039.009
519.2737, 4031.244
519.7559, 4024.274
520.2380, 4028.877
520.7201, 4050.601
521.2022, 4067.695
521.6843, 4057.620
522.1664, 4025.300
522.6486, 4011.504
523.1307, 4034.126
523.6128, 4054.090
524.0949, 4053.052
524.5770, 4043.717
525.0591, 4042.831
525.5413, 4054.015
526.0234, 4069.995
526.5055, 4083.991
526.9876, 4095.943
527.4697, 4104.442
527.9518, 4113.199
528.4340, 4112.225
528.9161, 4086.751
529.3982, 4056.892
529.8803, 4048.214
530.3624, 4067.349
530.8445, 4087.752
531.3267, 4089.503
531.8088, 4079.286
532.2909, 4069.457
532.7730, 4061.202
533.2551, 4060.019
533.7372, 4072.910
534.2194, 4094.631
534.7015, 4100.379
535.1836, 4069.193
535.6657, 4051.541
536.1478, 4061.477
536.6299, 4080.940
537.1121, 4096.455
537.5942, 4105.837
538.0763, 4112.119
538.5584, 4117.769
539.0405, 4122.107
539.5226, 4120.596
540.0048, 4109.174
540.4869, 4106.318
540.9690, 4122.239
541.4511, 4145.937
541.9332, 4170.583
542.4153, 4196.237
542.8975, 4207.515
543.3796, 4185.006
543.8617, 4155.591
544.3438, 4149.650
544.8259, 4162.339
545.3080, 4166.494
545.7902, 4147.868
546.2723, 4119.126
546.7544, 4107.267
547.2365, 4121.734
547.7186, 4132.210
548.2007, 4134.524
548.6829, 4137.354
549.1650, 4146.002
549.6471, 4158.154
550.1292, 4168.290
550.6113, 4173.486
551.0934, 4176.900
551.5756, 4184.490
552.0577, 4195.062
552.5398, 4197.618
553.0219, 4186.926
553.5040, 4176.510
553.9861, 4181.068
554.4683, 4200.213
554.9504, 4210.400
555.4325, 4198.905
555.9146, 4192.900
556.3967, 4211.642
556.8788, 4237.705
557.3610, 4244.857
557.8431, 4228.490
558.3252, 4209.653
558.8073, 4213.322
559.2894, 4237.846
559.7715, 4248.254
560.2537, 4236.434
560.7358, 4226.830
561.2179, 4233.263
561.7000, 4244.776
562.1821, 4248.245
562.6642, 4240.673
563.1464, 4237.980
563.6285, 4254.108
564.1106, 4275.984
564.5927, 4288.063
565.0748, 4289.502
565.5569, 4283.279
566.0391, 4269.990
566.5212, 4253.219
567.0033, 4243.193
567.4854, 4245.986
567.9675, 4244.223
568.4496, 4233.885
568.9318, 4222.998
569.4139, 4212.260
569.8960, 4204.688
570.3781, 4207.330
570.8602, 4226.408
571.3423, 4251.262
571.8245, 4265.793
572.3066, 4272.356
572.7887, 4291.236
573.2708, 4332.827
573.7529, 4365.096
574.2350, 4345.461
574.7172, 4273.999
575.1993, 4258.621
575.6814, 4364.785
576.1635, 4445.587
576.6456, 4438.123
577.1277, 4390.702
577.6099, 4356.132
578.0920, 4347.339
578.5741, 4349.938
579.0562, 4353.593
579.5383, 4356.872
580.0204, 4347.880
580.5026, 4319.912
580.9847, 4303.736
581.4668, 4318.965
581.9489, 4347.292
582.4310, 4362.688
582.9131, 4363.742
583.3953, 4362.356
583.8774, 4358.689
584.3595, 4356.514
584.8416, 4360.602
585.3237, 4368.940
585.8058, 4374.460
586.2880, 4373.589
586.7701, 4372.147
587.2522, 4384.061
587.7343, 4416.738
588.2164, 4430.607
588.6985, 4409.701
589.1807, 4387.933
589.6628, 4381.496
590.1449, 4384.748
590.6270, 4387.393
591.1091, 4386.004
591.5912, 4386.276
592.0734, 4393.366
592.5555, 4404.319
593.0376, 4415.168
593.5197, 4425.062
594.0018, 4431.445
594.4839, 4431.878
594.9661, 4427.797
595.4482, 4426.241
595.9303, 4430.554
596.4124, 4431.734
596.8945, 4418.903
597.3766, 4411.641
597.8588, 4429.810
598.3409, 4466.376
598.8230, 4494.004
599.3051, 4495.442
599.7872, 4485.749
600.2693, 4483.208
600.7515, 4486.380
601.2336, 4487.718
601.7157, 4484.958
602.1978, 4482.046
602.6799, 4483.863
603.1620, 4490.745
603.6442, 4492.200
604.1263, 4477.160
604.6084, 4470.988
605.0905, 4485.426
605.5726, 4507.625
606.0547, 4526.355
606.5369, 4538.957
607.0190, 4547.110
607.5011, 4550.707
607.9832, 4551.217
608.4653, 4553.401
608.9474, 4557.409
609.4296, 4555.216
609.9117, 4539.641
610.3938, 4523.491
610.8759, 4527.338
611.3580, 4556.904
611.8401, 4577.802
612.3223, 4590.498
612.8044, 4593.042
613.2865, 4576.198
613.7686, 4551.663
614.2507, 4535.738
614.7328, 4533.634
615.2150, 4540.333
615.6971, 4553.794
616.1792, 4572.380
616.6613, 4583.718
617.1434, 4585.886
617.6255, 4588.441
618.1077, 4594.943
618.5898, 4605.211
619.0719, 4619.899
619.5540, 4641.420
620.0361, 4658.060
620.5182, 4672.178
621.0004, 4676.969
621.4825, 4658.270
621.9646, 4627.712
622.4467, 4610.687
622.9288, 4618.243
623.4109, 4636.681
623.8931, 4645.192
624.3752, 4643.903
624.8573, 4652.236
625.3394, 4674.854
625.8215, 4698.194
626.3036, 4719.596
626.7858, 4734.544
627.2679, 4732.515
627.7500, 4704.397
628.2321, 4682.441
628.7142, 4676.935
629.1964, 4679.529
629.6785, 4685.871
630.1606, 4693.883
630.6427, 4700.330
631.1248, 4703.468
631.6069, 4704.990
632.0891, 4709.773
632.5712, 4718.672
633.0533, 4716.288
633.5354, 4692.886
634.0175, 4674.127
634.4996, 4681.845
634.9818, 4705.500
635.4639, 4720.301
635.9460, 4718.928
636.4281, 4720.175
636.9102, 4731.374
637.3923, 4747.040
637.8745, 4765.679
638.3566, 4784.101
638.8387, 4793.980
639.3208, 4789.657
639.8029, 4777.932
640.2850, 4772.975
640.7672, 4775.405
641.2493, 4778.189
641.7314, 4780.396
642.2135, 4783.189
642.6956, 4790.386
643.1777, 4798.548
643.6599, 4797.515
644.1420, 4775.284
644.6241, 4763.800
645.1062, 4783.652
645.5883, 4812.743
646.0704, 4831.363
646.5526, 4837.825
647.0347, 4835.943
647.5168, 4826.912
647.9989, 4816.384
648.4810, 4818.298
648.9631, 4834.305
649.4453, 4845.018
649.9274, 4847.104
650.4095, 4845.202
650.8916, 4838.710
651.3737, 4830.833
651.8558, 4832.342
652.3380, 4851.527
652.8201, 4867.325
653.3022, 4870.161
653.7843, 4869.089
654.2664, 4872.164
654.7485, 4879.542
655.2307, 4887.971
655.7128, 4895.730
656.1949, 4902.309
656.6770, 4908.136
657.1591, 4913.329
657.6412, 4908.447
658.1234, 4885.979
658.6055, 4868.549
659.0876, 4876.347
659.5697, 4902.268
660.0518, 4916.577
660.5339, 4914.397
661.0161, 4909.091
661.4982, 4896.737
661.9803, 4887.570
662.4624, 4894.183
662.9445, 4911.824
663.4266, 4924.265
663.9088, 4922.116
664.3909, 4915.275
664.8730, 4921.056
665.3551, 4937.974
665.8372, 4949.192
666.3193, 4952.020
666.8015, 4951.628
667.2836, 4949.790
667.7657, 4947.872
668.2478, 4951.142
668.7299, 4963.563
669.2120, 4973.896
669.6942, 4980.168
670.1763, 4985.049
670.6584, 4988.625
671.1405, 4992.414
671.6226, 5000.108
672.1047, 5013.989
672.5869, 5027.424
673.0690, 5031.773
673.5511, 5029.101
674.0332, 5025.587
674.5153, 5021.625
674.9974, 5021.542
675.4796, 5028.439
675.9617, 5040.290
676.4438, 5051.982
676.9259, 5064.005
677.4080, 5074.945
677.8901, 5090.235
678.3723, 5098.892
678.8544, 5085.930
679.3365, 5066.104
679.8186, 5066.542
680.3007, 5097.205
680.7828, 5128.897
681.2650, 5140.582
681.7471, 5136.870
682.2292, 5119.664
682.7113, 5092.105
683.1934, 5072.170
683.6755, 5068.718
684.1577, 5076.845
684.6398, 5088.612
685.1219, 5104.852
685.6040, 5121.422
686.0861, 5142.438
686.5682, 5158.171
687.0504, 5167.970
687.5325, 5169.779
688.0146, 5154.271
688.4967, 5118.503
688.9788, 5101.043
689.4609, 5138.416
689.9431, 5186.986
690.4252, 5204.222
690.9073, 5197.352
691.3894, 5186.547
691.8715, 5179.352
692.3536, 5180.946
692.8358, 5203.346
693.3179, 5243.979
693.8000, 5249.581
694.2821, 5202.393
694.7642, 5172.020
695.2463, 5192.206
695.7285, 5229.640
696.2106, 5246.332
696.6927, 5242.854
697.1748, 5237.246
697.6569, 5232.310
698.1390, 5225.852
698.6212, 5210.719
699.1033, 5196.578
699.5854, 5197.290
700.0675, 5213.899
700.5496, 5236.436
701.0317, 5260.556
701.5139, 5281.326
701.9960, 5281.212
702.4781, 5261.043
702.9602, 5259.256
703.4423, 5291.159
703.9244, 5320.537
704.4066, 5310.315
704.8887, 5265.642
705.3708, 5243.460
705.8529, 5260.721
706.3350, 5276.763
706.8171, 5287.818
707.2993, 5296.693
707.7814, 5305.675
708.2635, 5314.278
708.7456, 5320.418
709.2277, 5322.794
709.7098, 5323.617
710.1920, 5325.202
710.6741, 5326.730
711.1562, 5323.811
711.6383, 5317.119
712.1204, 5318.678
712.6025, 5337.399
713.0847, 5364.170
713.5668, 5375.999
714.0489, 5368.003
714.5310, 5361.325
715.0131, 5353.165
715.4952, 5350.941
715.9774, 5359.768
716.4595, 5375.750
716.9416, 5395.973
717.4237, 5423.159
717.9058, 5439.262
718.3879, 5428.355
718.8701, 5412.484
719.3522, 5403.382
719.8343, 5404.436
720.3164, 5425.651
720.7985, 5468.456
721.2806, 5507.881
721.7628, 5511.050
722.2449, 5486.227
722.7270, 5477.722
723.2091, 5487.812
723.6912, 5487.350
724.1733, 5459.068
724.6555, 5432.145
725.1376, 5448.017
725.6197, 5511.538
726.1018, 5545.543
726.5839, 5532.813
727.0660, 5515.796
727.5482, 5500.984
728.0303, 5487.171
728.5124, 5465.789
728.9945, 5442.540
729.4766, 5442.161
729.9587, 5492.105
730.4409, 5546.754
730.9230, 5551.064
731.4051, 5527.516
731.8872, 5529.295
732.3693, 5562.102
732.8514, 5590.677
733.3336, 5588.777
733.8157, 5570.408
734.2978, 5579.127
734.7799, 5626.909
735.2620, 5646.728
735.7441, 5617.423
736.2263, 5585.358
736.7084, 5577.717
737.1905, 5584.468
737.6726, 5587.594
738.1547, 5585.398
738.6368, 5582.673
739.1190, 5575.995
739.6011, 5573.589
740.0832, 5580.014
740.5653, 5594.990
741.0474, 5623.972
741.5295, 5666.558
742.0117, 5697.063
742.4938, 5676.808
742.9759, 5630.530
743.4580, 5626.652
743.9401, 5660.308
744.4222, 5670.549
744.9044, 5633.353
745.3865, 5595.066
745.8686, 5611.001
746.3507, 5678.625
746.8328, 5722.915
747.3149, 5737.344
747.7971, 5738.638
748.2792, 5708.906
748.7613, 5684.867
749.2434, 5701.559
749.7255, 5746.194
750.2076, 5770.831
750.6898, 5753.682
751.1719, 5731.013
751.6540, 5712.697
752.1361, 5703.546
752.6182, 5711.578
753.1003, 5734.171
753.5825, 5764.839
754.0646, 5801.263
754.5467, 5830.949
755.0288, 5829.333
755.5109, 5802.201
755.9930, 5786.417
756.4752, 5784.480
756.9573, 5788.008
757.4394, 5793.870
757.9215, 5802.158
758.4036, 5814.500
758.8857, 5834.100
759.3679, 5840.747
759.8500, 5811.102
760.3321, 5797.423
760.8142, 5829.015
761.2963, 5868.973
761.7784, 5881.931
762.2606, 5867.264
762.7427, 5849.674
763.2248, 5830.350
763.7069, 5820.656
764.1890, 5832.923
764.6711, 5857.445
765.1533, 5885.277
765.6354, 5911.562
766.1175, 5925.283
766.5996, 5918.111
767.0817, 5899.186
767.5638, 5883.101
768.0460, 5870.224
768.5281, 5864.385
769.0102, 5864.810
769.4923, 5882.110
769.9744, 5930.874
770.4565, 5988.947
770.9387, 6006.977
771.4208, 5966.989
771.9029, 5943.965
772.3850, 5945.240
772.8671, 5954.497
773.3492, 5972.334
773.8314, 5992.437
774.3135, 6010.134
774.7956, 6024.312
775.2777, 6030.727
775.7598, 6022.545
776.2419, 6011.148
776.7241, 5996.070
777.2062, 5987.157
777.6883, 6011.962
778.1704, 6064.941
778.6525, 6094.474
779.1346, 6057.434
779.6168, 5996.444
780.0989, 6007.633
780.5810, 6082.208
781.0631, 6118.901
781.5452, 6101.903
782.0273, 6073.692
782.5095, 6055.885
782.9916, 6048.858
783.4737, 6054.520
783.9558, 6078.067
784.4379, 6098.250
784.9200, 6116.438
785.4022, 6129.215
785.8843, 6130.401
786.3664, 6128.667
786.8485, 6135.845
787.3306, 6152.385
787.8127, 6162.295
788.2949, 6153.434
788.7770, 6143.975
789.2591, 6139.068
789.7412, 6143.127
790.2233, 6170.746
790.7054, 6215.725
791.1876, 6245.871
791.6697, 6237.977
792.1518, 6213.850
792.6339, 6208.008
793.1160, 6215.058
793.5981, 6209.085
794.0803, 6187.598
794.5624, 6176.907
795.0445, 6193.067
795.5266, 6222.977
796.0087, 6242.003
796.4908, 6248.694
796.9730, 6253.958
797.4551, 6260.812
797.9372, 6260.337
798.4193, 6244.231
798.9014, 6223.110
799.3835, 6206.215
799.8657, 6193.789
800.3478, 6192.464
800.8299, 6211.695
801.3120, 6231.159
801.7941, 6240.925
802.2762, 6250.310
802.7584, 6274.269
803.2405, 6305.979
803.7226, 6320.280
804.2047, 6300.437
804.6868, 6280.073
805.1689, 6299.184
805.6511, 6334.821
806.1332, 6345.474
806.6153, 6333.155
807.0974, 6319.895
807.5795, 6315.108
808.0616, 6321.823
808.5438, 6349.518
809.0259, 6394.176
809.5080, 6414.341
809.9901, 6406.170
810.4722, 6397.960
810.9543, 6395.892
811.4365, 6400.167
811.9186, 6413.128
812.4007, 6433.263
812.8828, 6446.879
813.3649, 6448.614
813.8470, 6451.849
814.3292, 6463.649
814.8113, 6470.615
815.2934, 6459.244
815.7755, 6439.648
816.2576, 6431.079
816.7397, 6438.324
817.2219, 6450.584
817.7040, 6469.600
818.1861, 6486.101
818.6682, 6491.906
819.1503, 6490.467
819.6324, 6486.028
820.1146, 6480.782
820.5967, 6479.327
821.0788, 6486.166
821.5609, 6497.854
822.0430, 6512.287
822.5251, 6526.770
823.0073, 6529.259
823.4894, 6518.271
823.9716, 6502.837
824.4537, 6486.716
824.9358, 6478.145
825.4179, 6502.552
825.9000, 6568.068
826.3821, 6601.446
826.8643, 6588.214
827.3464, 6579.437
827.8285, 6601.563
828.3106, 6632.582
828.7927, 6639.946
829.2748, 6620.252
829.7570, 6612.157
830.2391, 6622.071
830.7212, 6634.427
831.2033, 6652.299
831.6854, 6666.452
832.1675, 6666.670
832.6497, 6657.082
833.1318, 6650.350
833.6139, 6648.923
834.0960, 6653.947
834.5781, 6670.550
835.0602, 6690.029
835.5424, 6707.938
836.0245, 6721.086
836.5066, 6720.845
836.9887, 6706.024
837.4708, 6694.746
837.9529, 6710.388
838.4351, 6736.292
838.9172, 6736.922
839.3993, 6718.556
839.8814, 6706.288
840.3635, 6705.602
840.8456, 6712.059
841.3278, 6723.542
841.8099, 6736.515
842.2920, 6739.455
842.7741, 6730.490
843.2562, 6731.498
843.7383, 6745.604
844.2205, 6765.084
844.7026, 6791.511
845.1847, 6814.382
845.6668, 6813.557
846.1489, 6782.642
846.6310, 6774.935
847.1132, 6814.134
847.5953, 6844.716
848.0774, 6851.441
848.5595, 6851.745
849.0416, 6855.595
849.5237, 6864.301
850.0059, 6880.854
850.4880, 6913.462
850.9701, 6937.089
851.4522, 6939.657
851.9343, 6932.701
852.4164, 6920.773
852.8986, 6907.489
853.3807, 6895.388
853.8628, 6885.927
854.3449, 6886.369
854.8270, 6914.224
855.3091, 6945.194
855.7913, 6943.017
856.2734, 6921.928
856.7555, 6912.756
857.2376, 6920.280
857.7197, 6934.124
858.2018, 6947.838
858.6840, 6962.739
859.1661, 6985.332
859.6482, 7012.795
860.1303, 7020.390
860.6124, 7005.714
861.0945, 7000.764
861.5767, 7020.852
862.0588, 7045.915
862.5409, 7048.802
863.0230, 7031.072
863.5051, 7030.008
863.9872, 7054.566
864.4694, 7069.746
864.9515, 7063.718
865.4336, 7055.732
865.9157, 7058.558
866.3978, 7069.941
866.8799, 7084.495
867.3621, 7110.156
867.8442, 7119.765
868.3263, 7093.621
868.8084, 7073.270
869.2905, 7074.453
869.7726, 7090.120
870.2548, 7116.725
870.7369, 7151.519
871.2190, 7178.929
871.7011, 7193.804
872.1832, 7200.010
872.6653, 7190.775
873.1475, 7180.368
873.6296, 7183.161
874.1117, 7197.260
874.5938, 7216.158
875.0759, 7237.740
875.5580, 7254.486
876.0402, 7255.181
876.5223, 7250.615
877.0044, 7254.292
877.4865, 7265.308
877.9686, 7284.192
878.4507, 7308.671
878.9329, 7323.332
879.4150, 7314.143
879.8971, 7294.983
880.3792, 7293.854
880.8613, 7308.086
881.3434, 7324.125
881.8256, 7340.520
882.3077, 7347.403
882.7898, 7338.891
883.2719, 7326.582
883.7540, 7327.149
884.2361, 7339.882
884.7183, 7350.582
885.2004, 7360.201
885.6825, 7361.546
886.1646, 7345.681
886.6467, 7339.005
887.1288, 7368.127
887.6110, 7418.331
888.0931, 7441.015
888.5752, 7421.114
889.0573, 7410.541
889.5394, 7408.777
890.0215, 7416.981
890.5037, 7451.469
890.9858, 7484.823
891.4679, 7478.937
891.9500, 7437.500
892.4321, 7420.144
892.9142, 7455.409
893.3964, 7487.169
893.8785, 7501.547
894.3606, 7508.754
894.8427, 7515.061
895.3248, 7520.044
895.8069, 7519.714
896.2891, 7512.535
896.7712, 7511.561
897.2533, 7529.784
897.7354, 7549.611
898.2175, 7560.428
898.6996, 7563.557
899.1818, 7555.051
899.6639, 7540.280
900.1460, 7539.854
900.6281, 7567.577
901.1102, 7599.225
901.5923, 7607.540
902.0745, 7605.541
902.5566, 7613.189
903.0387, 7629.595
903.5208, 7649.378
904.0029, 7669.990
904.4850, 7686.872
904.9672, 7695.475
905.4493, 7697.953
905.9314, 7698.187
906.4135, 7696.302
906.8956, 7687.819
907.3777, 7673.618
907.8599, 7680.151
908.3420, 7723.193
908.8241, 7776.603
909.3062, 7799.149
909.7883, 7793.013
910.2704, 7786.488
910.7526, 7778.380
911.2347, 7783.629
911.7168, 7808.682
912.1989, 7835.989
912.6810, 7852.305
913.1631, 7859.528
913.6453, 7864.352
914.1274, 7869.172
914.6095, 7860.899
915.0916, 7829.294
915.5737, 7807.635
916.0558, 7811.292
916.5380, 7826.581
917.0201, 7839.483
917.5022, 7850.131
917.9843, 7859.482
918.4664, 7869.379
918.9485, 7875.186
919.4307, 7873.943
919.9128, 7871.561
920.3949, 7864.083
920.8770, 7860.231
921.3591, 7878.198
921.8412, 7922.430
922.3234, 7952.069
922.8055, 7951.548
923.2876, 7948.771
923.7697, 7942.957
924.2518, 7946.196
924.7339, 7978.754
925.2161, 8026.777
925.6982, 8051.765
926.1803, 8037.852
926.6624, 8031.918
927.1445, 8062.988
927.6266, 8096.173
928.1088, 8108.811
928.5909, 8110.848
929.0730, 8118.665
929.5551, 8131.246
930.0372, 8131.389
930.5193, 8104.032
931.0015, 8080.951
931.4836, 8080.472
931.9657, 8099.373
932.4478, 8152.633
932.9299, 8217.014
933.4120, 8241.038
933.8942, 8216.078
934.3763, 8190.227
934.8584, 8200.406
935.3405, 8222.646
935.8226, 8229.840
936.3047, 8228.448
936.7869, 8227.926
937.2690, 8230.401
937.7511, 8240.099
938.2332, 8258.421
938.7153, 8273.014
939.1974, 8264.359
939.6796, 8246.906
940.1617, 8252.445
940.6438, 8275.587
941.1259, 8300.826
941.6080, 8324.100
942.0901, 8338.342
942.5723, 8338.850
943.0544, 8334.204
943.5365, 8336.965
944.0186, 8346.215
944.5007, 8358.854
944.9828, 8374.460
945.4650, 8389.263
945.9471, 8402.295
946.4292, 8408.217
946.9113, 8401.029
947.3934, 8389.814
947.8755, 8399.418
948.3577, 8429.444
948.8398, 8452.063
949.3219, 8466.528
949.8040, 8464.503
950.2861, 8438.564
950.7682, 8419.507
951.2504, 8442.832
951.7325, 8495.519
952.2146, 8516.399
952.6967, 8499.105
953.1788, 8490.616
953.6609, 8495.335
954.1431, 8505.099
954.6252, 8515.404
955.1073, 8531.734
955.5894, 8565.223
956.0715, 8613.664
956.5536, 8635.186
957.0358, 8618.992
957.5179, 8610.274
958.0000, 8618.283
958.4821, 8626.598
958.9642, 8626.837
959.4464, 8621.204
959.9285, 8610.393
960.4106, 8591.963
960.8927, 8597.325
961.3748, 8645.643
961.8569, 8679.049
962.3391, 8676.814
962.8212, 8671.979
963.3033, 8687.663
963.7854, 8715.103
964.2675, 8735.754
964.7496, 8750.479
965.2318, 8753.870
965.7139, 8728.545
966.1960, 8716.349
966.6781, 8726.082
967.1602, 8751.816
967.6423, 8806.459
968.1245, 8872.688
968.6066, 8895.069
969.0887, 8847.556
969.5708, 8823.495
970.0529, 8843.674
970.5350, 8867.397
971.0172, 8892.426
971.4993, 8907.460
971.9814, 8889.867
972.4635, 8851.832
972.9456, 8845.657
973.4277, 8895.854
973.9099, 8935.511
974.3920, 8950.919
974.8741, 8959.442
975.3562, 8963.187
975.8383, 8967.621
976.3204, 8980.181
976.8026, 8999.297
977.2847, 9013.791
977.7668, 9018.320
978.2489, 9023.936
978.7310, 9044.113
979.2131, 9053.709
979.6953, 9020.608
980.1774, 8980.214
980.6595, 8981.821
981.1416, 9025.145
981.6237, 9065.104
982.1058, 9096.271
982.5880, 9113.209
983.0701, 9099.435
983.5522, 9086.623
984.0343, 9098.071
984.5164, 9122.573
984.9985, 9145.606
985.4807, 9164.292
985.9628, 9172.491
986.4449, 9160.907
986.9270, 9148.594
987.4091, 9132.258
987.8912, 9127.488
988.3734, 9156.094
988.8555, 9199.888
989.3376, 9232.054
989.8197, 9247.300
990.3018, 9246.856
990.7839, 9206.058
991.2661, 9182.476
991.7482, 9216.911
992.2303, 9264.224
992.7124, 9290.806
993.1945, 9300.679
993.6766, 9303.924
994.1588, 9303.106
994.6409, 9309.453
995.1230, 9342.968
995.6051, 9365.321
996.0872, 9339.842
996.5693, 9310.439
997.0515, 9319.332
997.5336, 9353.962
998.0157, 9385.740
998.4978, 9407.901
998.9799, 9420.907
999.4620, 9411.832
999.9442, 9409.699
1000.426, 9438.326
1000.908, 9473.395
1001.391, 9490.813
1001.873, 9496.469
1002.355, 9510.295
1002.837, 9537.433
1003.319, 9551.932
1003.801, 9519.351
1004.283, 9499.271
1004.765, 9540.988
1005.247, 9595.660
1005.730, 9618.560
1006.212, 9615.178
1006.694, 9601.608
1007.176, 9580.752
1007.658, 9583.076
1008.140, 9646.532
1008.622, 9706.827
1009.104, 9732.776
1009.586, 9736.957
1010.069, 9718.910
1010.551, 9692.714
1011.033, 9688.717
1011.515, 9715.462
1011.997, 9733.958
1012.479, 9707.646
1012.961, 9693.685
1013.443, 9736.959
1013.926, 9792.325
1014.408, 9820.085
1014.890, 9824.612
1015.372, 9819.148
1015.854, 9805.050
1016.336, 9810.114
1016.818, 9873.521
1017.300, 9922.278
1017.782, 9910.691
1018.265, 9879.873
1018.747, 9856.169
1019.229, 9845.863
1019.711, 9861.203
1020.193, 9907.318
1020.675, 9933.657
1021.157, 9887.438
1021.639, 9865.085
1022.122, 9944.724
1022.604, 10029.42
1023.086, 10028.23
1023.568, 9974.850
1024.050, 9945.450
1024.532, 9954.004
1025.014, 9970.468
1025.496, 10000.21
1025.978, 10018.54
1026.461, 9992.103
1026.943, 9975.020
1027.425, 10031.19
1027.907, 10116.50
1028.389, 10138.72
1028.871, 10080.87
1029.353, 10052.13
1029.835, 10096.86
1030.318, 10140.82
1030.800, 10175.37
1031.282, 10192.67
1031.764, 10172.73
1032.246, 10138.92
1032.728, 10129.22
1033.210, 10147.13
1033.692, 10176.96
1034.174, 10226.94
1034.656, 10274.27
1035.139, 10328.35
1035.621, 10364.44
1036.103, 10358.97
1036.585, 10331.54
1037.067, 10307.58
1037.549, 10287.65
1038.031, 10280.96
1038.513, 10290.03
1038.996, 10309.39
1039.478, 10352.86
1039.960, 10388.95
1040.442, 10399.78
1040.924, 10398.04
1041.406, 10400.37
1041.888, 10406.34
1042.370, 10404.82
1042.853, 10378.77
1043.335, 10380.82
1043.817, 10434.88
1044.299, 10481.57
1044.781, 10495.54
1045.263, 10490.50
1045.745, 10473.07
1046.227, 10449.57
1046.709, 10474.98
1047.192, 10580.97
1047.674, 10638.20
1048.156, 10626.78
1048.638, 10601.89
1049.120, 10574.85
1049.602, 10561.78
1050.084, 10583.67
1050.566, 10629.86
1051.048, 10656.22
1051.531, 10660.77
1052.013, 10652.65
1052.495, 10625.33
1052.977, 10620.54
1053.459, 10656.07
1053.941, 10695.42
1054.423, 10704.82
1054.905, 10699.87
1055.388, 10731.20
1055.870, 10800.01
1056.352, 10807.25
1056.834, 10747.90
1057.316, 10722.93
1057.798, 10759.61
1058.280, 10810.63
1058.762, 10844.74
1059.245, 10862.26
1059.727, 10853.69
1060.209, 10827.11
1060.691, 10843.12
1061.173, 10894.98
1061.655, 10924.24
1062.137, 10921.12
1062.619, 10912.62
1063.101, 10914.15
1063.583, 10916.46
1064.066, 10899.14
1064.548, 10877.39
1065.030, 10899.60
1065.512, 10950.08
1065.994, 10977.47
1066.476, 10978.50
1066.958, 10975.59
1067.440, 10978.68
1067.923, 10986.91
1068.405, 10999.23
1068.887, 11016.57
1069.369, 11043.04
1069.851, 11074.07
1070.333, 11101.55
1070.815, 11125.92
1071.297, 11154.34
1071.780, 11187.19
1072.262, 11206.31
1072.744, 11189.67
1073.226, 11172.18
1073.708, 11193.41
1074.190, 11223.12
1074.672, 11221.32
1075.154, 11204.90
1075.636, 11206.53
1076.119, 11231.98
1076.601, 11273.23
1077.083, 11343.48
1077.565, 11387.82
1078.047, 11351.89
1078.529, 11308.76
1079.011, 11306.51
1079.493, 11328.85
1079.976, 11363.78
1080.458, 11401.70
1080.940, 11413.95
1081.422, 11380.44
1081.904, 11366.73
1082.386, 11404.28
1082.868, 11444.40
1083.350, 11480.83
1083.833, 11501.53
1084.315, 11484.11
1084.797, 11446.62
1085.279, 11434.79
1085.761, 11455.90
1086.243, 11479.19
1086.725, 11508.35
1087.207, 11532.82
1087.689, 11546.47
1088.172, 11562.50
1088.654, 11593.58
1089.136, 11625.47
1089.618, 11632.80
1090.100, 11616.68
1090.582, 11623.22
1091.064, 11664.31
1091.546, 11676.80
1092.028, 11642.46
1092.511, 11626.43
1092.993, 11657.00
1093.475, 11713.71
1093.957, 11780.03
1094.439, 11846.41
1094.921, 11873.44
1095.403, 11862.33
1095.885, 11871.09
1096.368, 11901.61
1096.850, 11912.44
1097.332, 11892.14
1097.814, 11866.20
1098.296, 11851.63
1098.778, 11851.15
1099.260, 11878.25
1099.742, 11920.23
1100.224, 11941.06
1100.707, 11943.14
1101.189, 11930.16
1101.671, 11908.11
1102.153, 11898.15
1102.635, 11910.34
1103.117, 11936.18
1103.599, 11984.09
1104.081, 12026.15
1104.563, 12016.38
1105.046, 11986.69
1105.528, 11984.48
1106.010, 12003.28
1106.492, 12012.82
1106.974, 12006.90
1107.456, 12010.42
1107.938, 12038.05
1108.420, 12075.21
1108.903, 12128.51
1109.385, 12172.92
1109.867, 12181.56
1110.349, 12174.22
1110.831, 12176.54
1111.313, 12189.92
1111.795, 12204.82
1112.277, 12219.19
1112.760, 12235.14
1113.242, 12244.56
1113.724, 12266.75
1114.206, 12332.32
1114.688, 12389.30
1115.170, 12389.37
1115.652, 12356.43
1116.134, 12340.78
1116.616, 12341.87
1117.099, 12371.49
1117.581, 12453.47
1118.063, 12491.73
1118.545, 12456.09
1119.027, 12424.23
1119.509, 12434.15
1119.991, 12469.24
1120.473, 12514.50
1120.955, 12562.30
1121.438, 12572.06
1121.920, 12545.09
1122.402, 12533.07
1122.884, 12538.88
1123.366, 12549.75
1123.848, 12561.81
1124.330, 12585.92
1124.812, 12633.63
1125.295, 12677.93
1125.777, 12662.27
1126.259, 12619.12
1126.741, 12623.67
1127.223, 12660.74
1127.705, 12687.39
1128.187, 12701.27
1128.669, 12731.09
1129.151, 12788.20
1129.634, 12828.93
1130.116, 12799.78
1130.598, 12763.34
1131.080, 12768.09
1131.562, 12793.89
1132.044, 12831.30
1132.526, 12868.44
1133.008, 12885.74
1133.490, 12882.88
1133.973, 12884.62
1134.455, 12906.64
1134.937, 12917.28
1135.419, 12888.77
1135.901, 12872.33
1136.383, 12900.85
1136.865, 12942.31
1137.347, 12969.19
1137.830, 12984.03
1138.312, 12993.62
1138.794, 12996.52
1139.276, 13000.14
1139.758, 12997.56
1140.240, 13018.79
1140.722, 13079.24
1141.204, 13130.02
1141.687, 13145.91
1142.169, 13137.24
1142.651, 13111.00
1143.133, 13078.50
1143.615, 13092.24
1144.097, 13146.27
1144.579, 13174.99
1145.061, 13176.96
1145.543, 13180.70
1146.026, 13194.39
1146.508, 13213.77
1146.990, 13236.97
1147.472, 13257.32
1147.954, 13266.64
1148.436, 13267.64
1148.918, 13253.18
1149.400, 13239.66
1149.882, 13260.16
1150.365, 13308.01
1150.847, 13355.75
1151.329, 13394.76
1151.811, 13425.19
1152.293, 13440.30
1152.775, 13456.82
1153.257, 13495.00
1153.739, 13523.96
1154.222, 13517.47
1154.704, 13492.65
1155.186, 13458.87
1155.668, 13425.54
1156.150, 13436.64
1156.632, 13522.36
1157.114, 13579.61
1157.596, 13592.53
1158.078, 13607.72
1158.561, 13638.42
1159.043, 13664.75
1159.525, 13671.97
1160.007, 13673.07
1160.489, 13690.28
1160.971, 13719.35
1161.453, 13724.86
1161.935, 13708.23
1162.417, 13728.24
1162.900, 13786.74
1163.382, 13829.33
1163.864, 13838.82
1164.346, 13829.07
1164.828, 13806.51
1165.310, 13790.33
1165.792, 13806.54
1166.274, 13846.23
1166.757, 13916.94
1167.239, 13989.07
1167.721, 14002.40
1168.203, 13968.32
1168.685, 13935.61
1169.167, 13919.57
1169.649, 13926.07
1170.131, 13979.45
1170.614, 14025.59
1171.096, 14035.43
1171.578, 14037.48
1172.060, 14047.73
1172.542, 14062.03
1173.024, 14070.42
1173.506, 14077.10
1173.988, 14103.17
1174.470, 14154.62
1174.953, 14204.85
1175.435, 14262.03
1175.917, 14293.79
1176.399, 14287.95
1176.881, 14274.77
1177.363, 14267.37
1177.845, 14273.29
1178.327, 14307.65
1178.809, 14355.46
1179.292, 14355.91
1179.774, 14321.32
1180.256, 14316.50
1180.738, 14341.85
1181.220, 14385.77
1181.702, 14439.19
1182.184, 14467.69
1182.666, 14449.70
1183.149, 14432.25
1183.631, 14473.95
1184.113, 14521.03
1184.595, 14519.43
1185.077, 14497.21
1185.559, 14473.50
1186.041, 14461.22
1186.523, 14484.84
1187.005, 14543.18
1187.488, 14587.58
1187.970, 14590.18
1188.452, 14609.84
1188.934, 14680.84
1189.416, 14731.98
1189.898, 14733.82
1190.380, 14723.63
1190.862, 14729.89
1191.344, 14738.07
1191.827, 14714.58
1192.309, 14664.70
1192.791, 14670.81
1193.273, 14733.79
1193.755, 14798.80
1194.237, 14859.55
1194.719, 14901.40
1195.201, 14919.79
1195.684, 14923.89
1196.166, 14918.69
1196.648, 14912.80
1197.130, 14910.52
1197.612, 14920.12
1198.094, 14963.99
1198.576, 15020.96
1199.058, 15062.35
1199.541, 15085.67
1200.023, 15090.69
1200.505, 15079.23
1200.987, 15078.25
1201.469, 15100.26
1201.951, 15128.81
1202.433, 15178.14
1202.915, 15209.97
1203.397, 15188.68
1203.880, 15161.85
1204.362, 15165.71
1204.844, 15191.35
1205.326, 15223.68
1205.808, 15262.97
1206.290, 15258.07
1206.772, 15203.08
1207.254, 15190.67
1207.736, 15231.11
1208.219, 15279.19
1208.701, 15318.52
1209.183, 15343.00
1209.665, 15344.11
1210.147, 15346.66
1210.629, 15395.24
1211.111, 15458.73
1211.593, 15487.73
1212.076, 15498.98
1212.558, 15514.50
1213.040, 15540.33
1213.522, 15592.13
1214.004, 15669.07
1214.486, 15707.40
1214.968, 15649.66
1215.450, 15610.44
1215.932, 15618.59
1216.415, 15649.77
1216.897, 15721.18
1217.379, 15778.96
1217.861, 15766.39
1218.343, 15731.60
1218.825, 15780.86
1219.307, 15904.85
1219.789, 15935.54
1220.271, 15871.02
1220.754, 15840.72
1221.236, 15855.33
1221.718, 15877.67
1222.200, 15896.56
1222.682, 15925.48
1223.164, 15974.94
1223.646, 16027.45
1224.128, 16084.71
1224.611, 16113.10
1225.093, 16032.15
1225.575, 15930.90
1226.057, 15926.11
1226.539, 15990.78
1227.021, 16061.89
1227.503, 16125.17
1227.985, 16162.43
1228.468, 16153.83
1228.950, 16153.57
1229.432, 16173.87
1229.914, 16191.40
1230.396, 16201.23
1230.878, 16206.20
1231.360, 16205.11
1231.842, 16207.51
1232.324, 16228.00
1232.807, 16261.90
1233.289, 16294.08
1233.771, 16323.30
1234.253, 16339.33
1234.735, 16345.11
1235.217, 16356.42
1235.699, 16374.97
1236.181, 16388.04
1236.663, 16389.40
1237.146, 16399.67
1237.628, 16438.07
1238.110, 16484.84
1238.592, 16544.81
1239.074, 16589.18
1239.556, 16574.62
1240.038, 16546.51
1240.520, 16573.86
1241.003, 16639.85
1241.485, 16658.98
1241.967, 16618.15
1242.449, 16616.93
1242.931, 16661.34
1243.413, 16727.45
1243.895, 16818.45
1244.377, 16874.35
1244.859, 16870.81
1245.342, 16847.91
1245.824, 16838.25
1246.306, 16834.21
1246.788, 16825.35
1247.270, 16813.38
1247.752, 16781.82
1248.234, 16761.64
1248.716, 16824.24
1249.198, 16935.51
1249.681, 17004.20
1250.163, 17015.18
1250.645, 17024.75
1251.127, 17054.68
1251.609, 17072.20
1252.091, 17063.07
1252.573, 17052.98
1253.055, 17045.48
1253.538, 17042.67
1254.020, 17043.99
1254.502, 17055.43
1254.984, 17088.06
1255.466, 17133.50
1255.948, 17160.37
1256.430, 17171.94
1256.912, 17177.29
1257.395, 17184.52
1257.877, 17235.22
1258.359, 17320.86
1258.841, 17369.15
1259.323, 17352.38
1259.805, 17334.77
1260.287, 17350.83
1260.769, 17385.46
1261.251, 17460.16
1261.734, 17515.86
1262.216, 17500.08
1262.698, 17461.54
1263.180, 17439.86
1263.662, 17437.28
1264.144, 17456.70
1264.626, 17498.40
1265.108, 17576.66
1265.590, 17697.48
1266.073, 17766.51
1266.555, 17778.14
1267.037, 17763.75
1267.519, 17734.24
1268.001, 17712.31
1268.483, 17711.98
1268.965, 17726.80
1269.447, 17761.97
1269.930, 17795.39
1270.412, 17792.77
##END=



