##NAMES=Strontianite
##RRUFFID=R050476
##IDEAL CHEMISTRY=SrCO_3_
##LOCALITY=Fidalgo Island, Puget Sound, Washington, USA
##OWNER=RRUFF
##SOURCE=California Institute of Technology
##DESCRIPTION=Aggregate of colorless spheres
##STATUS=The identification of this mineral has been confirmed by X-ray diffraction and chemical analysis
##URL=rruff.info/R050476
##MEASURED CHEMISTRY=(Sr_0.86_Ca_0.14_)CO_3_
91.00781, 26.57082
91.48993, 24.47995
91.97205, 23.64471
92.45416, 25.10258
92.93628, 27.76908
93.41840, 29.04959
93.90051, 28.04806
94.38263, 26.34804
94.86475, 26.75930
95.34686, 29.26283
95.82898, 32.03901
96.31110, 33.61481
96.79321, 34.09321
97.27533, 34.38774
97.75745, 34.37141
98.23956, 34.35304
98.72168, 35.94326
99.20380, 39.48277
99.68591, 43.51137
100.1680, 46.28698
100.6501, 47.46049
101.1323, 48.94732
101.6144, 51.11010
102.0965, 53.89787
102.5786, 58.17864
103.0607, 64.72894
103.5428, 72.12054
104.0250, 77.88136
104.5071, 80.53396
104.9892, 83.95839
105.4713, 89.69805
105.9534, 98.93957
106.4355, 107.8835
106.9177, 116.5849
107.3998, 124.9898
107.8819, 133.2267
108.3640, 141.0396
108.8461, 148.7946
109.3282, 156.7688
109.8104, 164.7690
110.2925, 173.0237
110.7746, 181.2985
111.2567, 189.6414
111.7388, 198.7990
112.2209, 209.7348
112.7031, 220.9288
113.1852, 231.4561
113.6673, 239.8288
114.1494, 248.6624
114.6315, 259.0154
115.1136, 271.0640
115.5958, 282.7093
116.0779, 293.0163
116.5600, 302.6664
117.0421, 312.3812
117.5242, 322.7680
118.0063, 333.1221
118.4885, 342.8745
118.9706, 351.7134
119.4527, 361.4026
119.9348, 373.3396
120.4169, 386.7373
120.8990, 400.3597
121.3812, 412.9208
121.8633, 425.6677
122.3454, 439.8773
122.8275, 456.3609
123.3096, 473.0027
123.7917, 486.5536
124.2739, 498.1932
124.7560, 512.2511
125.2381, 532.4786
125.7202, 556.9183
126.2023, 581.7302
126.6844, 605.5525
127.1666, 630.3672
127.6487, 659.3184
128.1308, 692.3988
128.6129, 726.9911
129.0950, 760.6106
129.5771, 794.1033
130.0593, 830.8729
130.5414, 872.8401
131.0235, 918.0262
131.5056, 960.0430
131.9877, 994.6079
132.4698, 1023.633
132.9520, 1053.553
133.4341, 1084.405
133.9162, 1117.140
134.3983, 1151.322
134.8804, 1187.052
135.3625, 1227.349
135.8447, 1273.218
136.3268, 1321.383
136.8089, 1367.804
137.2910, 1412.251
137.7731, 1457.697
138.2552, 1506.516
138.7374, 1559.106
139.2195, 1609.240
139.7016, 1655.620
140.1837, 1701.426
140.6658, 1752.862
141.1479, 1812.199
141.6301, 1872.705
142.1122, 1931.543
142.5943, 1987.875
143.0764, 2045.763
143.5585, 2107.028
144.0406, 2170.032
144.5228, 2231.798
145.0049, 2293.656
145.4870, 2352.080
145.9691, 2404.863
146.4512, 2455.910
146.9333, 2496.566
147.4155, 2529.246
147.8976, 2553.284
148.3797, 2558.380
148.8618, 2540.953
149.3439, 2507.587
149.8260, 2462.792
150.3082, 2405.609
150.7903, 2337.702
151.2724, 2255.483
151.7545, 2158.949
152.2366, 2061.558
152.7188, 1958.692
153.2009, 1857.314
153.6830, 1764.184
154.1651, 1683.274
154.6472, 1606.773
155.1293, 1533.083
155.6115, 1460.967
156.0936, 1397.691
156.5757, 1346.932
157.0578, 1304.506
157.5399, 1266.593
158.0220, 1232.526
158.5042, 1202.430
158.9863, 1176.130
159.4684, 1152.993
159.9505, 1135.935
160.4326, 1128.618
160.9147, 1127.609
161.3969, 1127.807
161.8790, 1126.069
162.3611, 1126.062
162.8432, 1129.820
163.3253, 1137.906
163.8074, 1148.647
164.2896, 1162.461
164.7717, 1178.360
165.2538, 1194.386
165.7359, 1208.540
166.2180, 1223.080
166.7001, 1239.404
167.1823, 1256.869
167.6644, 1277.674
168.1465, 1305.000
168.6286, 1337.085
169.1107, 1369.002
169.5928, 1398.332
170.0750, 1425.932
170.5571, 1452.882
171.0392, 1478.144
171.5213, 1504.348
172.0034, 1533.539
172.4855, 1565.639
172.9677, 1599.416
173.4498, 1635.861
173.9319, 1673.406
174.4140, 1709.695
174.8961, 1743.664
175.3782, 1776.718
175.8604, 1812.272
176.3425, 1850.042
176.8246, 1886.079
177.3067, 1916.855
177.7888, 1944.262
178.2709, 1971.772
178.7531, 2001.866
179.2352, 2031.844
179.7173, 2057.900
180.1994, 2080.217
180.6815, 2099.977
181.1636, 2119.898
181.6458, 2138.387
182.1279, 2150.031
182.6100, 2152.916
183.0921, 2148.104
183.5742, 2137.776
184.0563, 2122.165
184.5385, 2100.249
185.0206, 2071.408
185.5027, 2035.480
185.9848, 1993.137
186.4669, 1943.683
186.9490, 1888.013
187.4312, 1826.187
187.9133, 1759.029
188.3954, 1687.571
188.8775, 1612.751
189.3596, 1535.278
189.8417, 1458.122
190.3239, 1383.289
190.8060, 1309.938
191.2881, 1236.156
191.7702, 1161.819
192.2523, 1090.569
192.7344, 1026.840
193.2166, 970.9198
193.6987, 919.1392
194.1808, 868.9680
194.6629, 820.9371
195.1450, 779.1547
195.6271, 744.3160
196.1093, 713.8857
196.5914, 684.4013
197.0735, 655.7850
197.5556, 628.9380
198.0377, 604.2762
198.5198, 581.5815
199.0020, 561.0174
199.4841, 542.6631
199.9662, 526.2191
200.4483, 511.1549
200.9304, 497.6170
201.4125, 484.5402
201.8947, 471.4235
202.3768, 458.2230
202.8589, 445.5278
203.3410, 433.3371
203.8231, 421.6120
204.3052, 410.5872
204.7874, 400.3466
205.2695, 390.2115
205.7516, 379.7440
206.2337, 368.7928
206.7158, 358.4501
207.1979, 348.5282
207.6801, 339.3727
208.1622, 332.2485
208.6443, 327.8525
209.1264, 323.2013
209.6085, 316.3885
210.0906, 306.4128
210.5728, 298.9961
211.0549, 294.9553
211.5370, 293.0293
212.0191, 290.4795
212.5012, 287.0073
212.9833, 283.6048
213.4655, 280.7284
213.9476, 278.3746
214.4297, 276.6085
214.9118, 275.8604
215.3939, 275.4849
215.8760, 273.4290
216.3581, 268.3860
216.8403, 264.3865
217.3224, 263.9606
217.8045, 269.0035
218.2866, 271.6197
218.7687, 270.8176
219.2508, 267.7922
219.7330, 265.7657
220.2151, 265.0766
220.6972, 264.7476
221.1793, 264.2515
221.6614, 263.2522
222.1435, 263.0653
222.6257, 264.2446
223.1078, 266.0841
223.5899, 266.4796
224.0720, 264.4293
224.5541, 262.5449
225.0362, 262.0425
225.5184, 263.3937
226.0005, 264.9501
226.4826, 266.4812
226.9647, 268.2561
227.4468, 271.2007
227.9289, 275.9384
228.4111, 280.8708
228.8932, 285.1162
229.3753, 287.8034
229.8574, 291.9164
230.3395, 297.9734
230.8216, 305.3278
231.3038, 312.2385
231.7859, 317.9498
232.2680, 324.2602
232.7501, 332.0327
233.2322, 341.7931
233.7143, 351.8033
234.1965, 362.2034
234.6786, 372.8766
235.1607, 383.5313
235.6428, 393.6512
236.1249, 404.4915
236.6070, 416.8724
237.0892, 432.3082
237.5713, 445.8102
238.0534, 456.4526
238.5355, 465.3932
239.0176, 475.8108
239.4997, 489.6563
239.9819, 502.3734
240.4640, 511.6233
240.9461, 515.4634
241.4282, 520.6804
241.9103, 528.1870
242.3924, 536.7843
242.8746, 543.4741
243.3567, 547.1296
243.8388, 550.6028
244.3209, 555.1310
244.8030, 561.2800
245.2851, 566.8474
245.7673, 571.5753
246.2494, 575.8371
246.7315, 580.3907
247.2136, 585.1502
247.6957, 590.3604
248.1778, 596.5001
248.6600, 604.6113
249.1421, 610.3147
249.6242, 613.1224
250.1063, 613.8341
250.5884, 614.0692
251.0705, 614.3973
251.5527, 613.2472
252.0348, 609.8714
252.5169, 603.6614
252.9990, 597.3640
253.4811, 591.3185
253.9632, 584.8846
254.4454, 577.0002
254.9275, 567.2504
255.4096, 556.7129
255.8917, 545.2096
256.3738, 532.0582
256.8560, 521.5156
257.3381, 514.0944
257.8202, 508.7661
258.3023, 503.8474
258.7844, 499.2069
259.2665, 495.3869
259.7487, 492.7262
260.2308, 491.4376
260.7129, 489.9575
261.1950, 488.2880
261.6771, 486.4326
262.1592, 484.6417
262.6414, 483.5692
263.1235, 480.9542
263.6056, 476.2356
264.0877, 469.3458
264.5698, 460.4441
265.0519, 448.8197
265.5341, 436.2070
266.0162, 424.5251
266.4983, 414.1887
266.9804, 403.7848
267.4625, 392.9808
267.9446, 381.8652
268.4268, 369.7455
268.9089, 356.3533
269.3910, 342.8568
269.8731, 330.2560
270.3552, 318.6240
270.8373, 307.9607
271.3195, 298.3725
271.8016, 289.7907
272.2837, 281.0334
272.7658, 271.8222
273.2479, 262.8110
273.7300, 254.3474
274.2122, 246.4145
274.6943, 239.3218
275.1764, 233.2847
275.6585, 228.1818
276.1406, 223.4597
276.6227, 219.1950
277.1049, 215.0637
277.5870, 210.6241
278.0691, 205.7854
278.5512, 201.7167
279.0333, 198.6914
279.5154, 196.5169
279.9976, 194.7189
280.4797, 193.3856
280.9618, 191.9443
281.4439, 190.0443
281.9260, 187.6908
282.4081, 184.6078
282.8903, 180.4158
283.3724, 175.8492
283.8545, 172.7103
284.3366, 171.0727
284.8187, 170.0730
285.3008, 169.4393
285.7830, 169.1077
286.2651, 168.3943
286.7472, 167.2224
287.2293, 165.6691
287.7114, 163.5456
288.1935, 160.8609
288.6757, 158.7352
289.1578, 158.1412
289.6399, 158.7666
290.1220, 159.0547
290.6041, 158.8824
291.0862, 158.4802
291.5684, 158.3468
292.0505, 158.4037
292.5326, 157.9434
293.0147, 156.2134
293.4968, 153.6884
293.9789, 151.7538
294.4611, 150.5022
294.9432, 149.6090
295.4253, 148.9261
295.9074, 148.3591
296.3895, 147.5166
296.8716, 145.6212
297.3538, 143.4722
297.8359, 142.9809
298.3180, 144.2087
298.8001, 145.6339
299.2822, 145.7211
299.7643, 144.8761
300.2465, 144.1801
300.7286, 144.4190
301.2107, 144.7482
301.6928, 143.7254
302.1749, 141.4465
302.6570, 139.2384
303.1392, 138.2183
303.6213, 137.9866
304.1034, 137.9065
304.5855, 137.9102
305.0676, 137.8526
305.5497, 137.5221
306.0319, 136.9676
306.5140, 136.4273
306.9961, 135.9167
307.4782, 135.5644
307.9603, 135.6193
308.4424, 136.4592
308.9246, 137.1079
309.4067, 136.6173
309.8888, 135.2885
310.3709, 133.9677
310.8530, 132.8110
311.3351, 132.0376
311.8173, 131.9693
312.2994, 132.8992
312.7815, 133.7755
313.2636, 134.0022
313.7457, 133.7387
314.2278, 133.2642
314.7100, 132.1976
315.1921, 131.3244
315.6742, 131.2802
316.1563, 132.2814
316.6384, 133.1370
317.1205, 133.5038
317.6027, 133.3775
318.0848, 132.7455
318.5669, 130.7043
319.0490, 128.9582
319.5311, 128.2835
320.0132, 128.7481
320.4954, 129.3976
320.9775, 130.2560
321.4596, 131.0399
321.9417, 131.4937
322.4238, 131.4184
322.9059, 131.1609
323.3881, 130.7739
323.8702, 130.2638
324.3523, 129.6490
324.8344, 128.4785
325.3165, 127.5040
325.7986, 127.1575
326.2808, 128.2098
326.7629, 129.0251
327.2450, 129.4728
327.7271, 129.5997
328.2092, 129.5879
328.6913, 129.0218
329.1735, 128.6865
329.6556, 128.9539
330.1377, 130.4848
330.6198, 131.3558
331.1019, 131.3371
331.5840, 130.7238
332.0662, 130.0516
332.5483, 129.2588
333.0304, 128.4725
333.5125, 127.5923
333.9946, 126.3925
334.4767, 126.3311
334.9589, 128.0413
335.4410, 130.2680
335.9231, 131.4122
336.4052, 131.1765
336.8873, 130.5845
337.3694, 129.6978
337.8516, 128.5664
338.3336, 128.0935
338.8158, 128.4529
339.2979, 129.1076
339.7800, 129.6397
340.2621, 130.0544
340.7442, 130.2855
341.2263, 130.2865
341.7085, 130.1119
342.1906, 129.8921
342.6727, 129.6022
343.1548, 129.4115
343.6369, 129.4640
344.1190, 129.7456
344.6012, 130.0876
345.0833, 130.5322
345.5654, 130.9047
346.0475, 130.8256
346.5296, 130.3194
347.0117, 129.7692
347.4939, 129.4440
347.9760, 129.2448
348.4581, 128.7110
348.9402, 127.7295
349.4223, 126.9466
349.9044, 127.3838
350.3866, 128.6917
350.8687, 129.6762
351.3508, 129.7399
351.8329, 129.2448
352.3150, 128.6230
352.7971, 127.8801
353.2793, 127.2728
353.7614, 126.9406
354.2435, 126.8784
354.7256, 127.0986
355.2077, 127.7691
355.6898, 128.5124
356.1720, 129.1436
356.6541, 129.6137
357.1362, 129.7258
357.6183, 128.8925
358.1004, 127.9059
358.5826, 127.5739
359.0647, 128.3378
359.5468, 129.0142
360.0289, 128.9911
360.5110, 128.4317
360.9931, 127.6434
361.4753, 125.7138
361.9574, 124.4166
362.4395, 125.1314
362.9216, 128.4197
363.4037, 130.8381
363.8858, 130.7425
364.3680, 129.5072
364.8501, 128.5758
365.3322, 128.3377
365.8143, 128.3551
366.2964, 128.9816
366.7785, 130.1691
367.2607, 130.1061
367.7428, 126.3343
368.2249, 122.7855
368.7070, 121.8884
369.1891, 126.9476
369.6712, 130.2789
370.1534, 131.1281
370.6355, 130.0940
371.1176, 128.9775
371.5997, 127.4427
372.0818, 126.2531
372.5639, 125.7592
373.0461, 126.1923
373.5282, 126.5477
374.0103, 126.7478
374.4924, 126.9448
374.9745, 127.5014
375.4566, 128.7184
375.9388, 129.3369
376.4209, 128.7959
376.9030, 127.1826
377.3851, 125.9694
377.8672, 125.1040
378.3493, 124.7476
378.8315, 125.4340
379.3136, 127.2043
379.7957, 128.0581
380.2778, 127.3560
380.7599, 125.8014
381.2420, 124.9215
381.7242, 124.7293
382.2063, 125.1633
382.6884, 126.7220
383.1705, 128.9539
383.6526, 130.1489
384.1347, 130.0140
384.6169, 129.3509
385.0990, 129.2765
385.5811, 129.5409
386.0632, 129.3382
386.5453, 127.5757
387.0274, 125.4516
387.5096, 124.6292
387.9917, 125.1242
388.4738, 126.1680
388.9559, 127.8378
389.4380, 129.4918
389.9201, 130.2373
390.4023, 129.1578
390.8844, 127.8125
391.3665, 127.1926
391.8486, 127.1644
392.3307, 127.2595
392.8128, 127.2943
393.2950, 127.3445
393.7771, 127.4275
394.2592, 127.4665
394.7413, 127.7449
395.2234, 128.8051
395.7055, 130.0694
396.1877, 130.6454
396.6698, 129.6643
397.1519, 128.6069
397.6340, 127.9086
398.1161, 127.6215
398.5982, 127.3940
399.0804, 127.3680
399.5625, 127.2967
400.0446, 126.9944
400.5267, 126.2332
401.0088, 125.5652
401.4909, 124.9213
401.9731, 124.3974
402.4552, 124.4723
402.9373, 125.5552
403.4194, 126.5708
403.9015, 126.9237
404.3836, 126.3521
404.8658, 126.1273
405.3479, 126.2151
405.8300, 126.6953
406.3121, 128.1092
406.7942, 130.7554
407.2763, 132.1578
407.7585, 131.0016
408.2406, 127.8710
408.7227, 126.1335
409.2048, 125.8921
409.6869, 126.1923
410.1690, 126.3054
410.6512, 126.2611
411.1333, 126.2114
411.6154, 126.1931
412.0975, 126.1677
412.5796, 125.9904
413.0617, 125.7168
413.5439, 125.6159
414.0260, 125.9646
414.5081, 126.5327
414.9902, 127.0166
415.4723, 127.3988
415.9544, 127.6813
416.4366, 127.8699
416.9187, 127.9570
417.4008, 127.9307
417.8829, 127.4492
418.3650, 127.1426
418.8471, 127.7948
419.3293, 129.1490
419.8114, 129.7163
420.2935, 127.5821
420.7756, 125.2517
421.2577, 124.5786
421.7398, 126.8921
422.2220, 128.8220
422.7041, 129.5861
423.1862, 129.5226
423.6683, 129.2539
424.1504, 128.5486
424.6325, 127.9450
425.1147, 127.5979
425.5968, 127.5228
426.0789, 127.5438
426.5610, 127.9476
427.0431, 128.1886
427.5252, 127.6885
428.0074, 125.7802
428.4895, 124.7281
428.9716, 125.0365
429.4537, 126.2846
429.9358, 127.1470
430.4179, 127.5260
430.9001, 127.8547
431.3822, 128.4007
431.8643, 129.1706
432.3464, 129.7162
432.8285, 130.0495
433.3106, 130.1184
433.7928, 129.6461
434.2749, 128.7249
434.7570, 128.1685
435.2391, 128.4442
435.7212, 129.0670
436.2033, 128.9710
436.6855, 128.2304
437.1676, 127.5789
437.6497, 127.4854
438.1318, 127.8337
438.6139, 128.5963
439.0960, 129.9492
439.5782, 131.0482
440.0603, 131.0234
440.5424, 130.2635
441.0245, 129.5010
441.5066, 128.9715
441.9887, 128.5879
442.4709, 128.3249
442.9530, 128.1773
443.4351, 128.0779
443.9172, 127.6981
444.3993, 127.5362
444.8814, 127.9975
445.3636, 130.2673
445.8457, 131.6552
446.3278, 130.8989
446.8099, 128.9980
447.2920, 128.4522
447.7741, 131.1109
448.2563, 133.1135
448.7384, 133.0436
449.2205, 130.5307
449.7026, 128.9514
450.1847, 128.5907
450.6668, 128.8253
451.1490, 129.1691
451.6311, 129.6948
452.1132, 130.0658
452.5953, 130.2580
453.0774, 130.2516
453.5595, 129.8395
454.0417, 128.9464
454.5238, 128.3383
455.0059, 128.6458
455.4880, 129.6583
455.9701, 130.2952
456.4522, 130.5031
456.9344, 130.4512
457.4165, 130.0886
457.8986, 129.5896
458.3807, 129.4803
458.8628, 130.1445
459.3449, 131.0252
459.8271, 131.5065
460.3092, 131.6508
460.7913, 131.7390
461.2734, 132.1198
461.7555, 132.4052
462.2376, 132.2711
462.7198, 131.6540
463.2019, 130.7061
463.6840, 128.8844
464.1661, 126.9789
464.6482, 125.9455
465.1303, 126.7724
465.6125, 127.7234
466.0946, 128.3415
466.5767, 128.6625
467.0588, 129.0653
467.5409, 129.8612
468.0230, 130.4951
468.5052, 130.6990
468.9873, 130.2794
469.4694, 129.8940
469.9515, 129.4697
470.4336, 129.1449
470.9157, 129.1671
471.3979, 129.6618
471.8800, 130.0832
472.3621, 130.3038
472.8442, 130.3416
473.3263, 130.1960
473.8084, 129.8213
474.2906, 129.6147
474.7727, 130.1638
475.2548, 131.2161
475.7369, 131.4859
476.2190, 130.7537
476.7011, 129.5785
477.1833, 128.2994
477.6654, 127.0811
478.1475, 126.3812
478.6296, 126.7810
479.1117, 127.5193
479.5938, 127.5972
480.0760, 127.1750
480.5581, 127.3107
481.0402, 129.5304
481.5223, 132.0107
482.0044, 133.2676
482.4865, 132.8172
482.9687, 131.7010
483.4508, 129.2337
483.9329, 126.5728
484.4150, 125.3944
484.8971, 127.7027
485.3792, 129.7007
485.8614, 130.4281
486.3435, 129.9721
486.8256, 129.5131
487.3077, 128.8697
487.7898, 128.4414
488.2719, 128.5714
488.7541, 129.6567
489.2362, 129.8633
489.7183, 128.6796
490.2004, 127.2810
490.6825, 127.8008
491.1646, 130.5069
491.6468, 132.3545
492.1289, 132.0687
492.6110, 130.5023
493.0931, 130.4834
493.5752, 131.9845
494.0573, 132.9810
494.5395, 131.1215
495.0216, 127.8640
495.5037, 126.4190
495.9858, 127.4174
496.4679, 128.9142
496.9500, 129.2945
497.4322, 128.9529
497.9143, 128.5351
498.3964, 128.1449
498.8785, 127.8872
499.3606, 127.8646
499.8427, 128.0445
500.3249, 128.2740
500.8070, 128.3463
501.2891, 128.5753
501.7712, 129.1626
502.2533, 130.2687
502.7354, 131.3301
503.2176, 132.7899
503.6997, 133.9238
504.1818, 133.9066
504.6639, 131.9493
505.1460, 130.3001
505.6281, 129.3259
506.1103, 128.8821
506.5924, 128.4320
507.0745, 127.9223
507.5566, 127.5875
508.0387, 127.5565
508.5208, 127.8216
509.0030, 128.3371
509.4851, 129.1636
509.9672, 129.8975
510.4493, 130.0750
510.9314, 129.7987
511.4135, 129.3204
511.8957, 128.4419
512.3778, 127.8571
512.8599, 128.9061
513.3420, 131.0099
513.8242, 132.4652
514.3063, 131.7275
514.7884, 130.4843
515.2705, 130.2018
515.7526, 130.9863
516.2347, 131.3826
516.7169, 130.0022
517.1990, 128.4799
517.6811, 128.0944
518.1632, 130.5611
518.6453, 132.1155
519.1274, 131.7383
519.6096, 130.3277
520.0917, 129.5373
520.5738, 129.8263
521.0559, 129.9680
521.5380, 129.5734
522.0201, 128.6874
522.5023, 128.0827
522.9844, 127.7665
523.4665, 127.7144
523.9486, 127.9664
524.4307, 128.5105
524.9128, 129.1550
525.3950, 129.9489
525.8771, 130.5925
526.3592, 130.4573
526.8413, 129.7756
527.3234, 129.4381
527.8055, 130.2943
528.2877, 131.1493
528.7698, 129.9902
529.2519, 127.3937
529.7340, 125.7701
530.2161, 127.6324
530.6982, 130.2090
531.1804, 131.4202
531.6625, 130.8269
532.1446, 129.8940
532.6267, 128.6658
533.1088, 127.5326
533.5909, 126.8728
534.0731, 126.8607
534.5552, 127.1838
535.0373, 128.1265
535.5194, 129.3384
536.0015, 129.8605
536.4836, 129.1103
536.9658, 128.8802
537.4479, 130.1088
537.9300, 132.6793
538.4121, 133.8635
538.8942, 133.3919
539.3763, 132.6221
539.8585, 133.0834
540.3406, 134.4048
540.8227, 134.1942
541.3048, 131.8240
541.7869, 129.0462
542.2690, 128.0612
542.7512, 128.3820
543.2333, 128.7893
543.7154, 128.7541
544.1975, 128.6196
544.6796, 128.7961
545.1617, 129.1658
545.6439, 129.2001
546.1260, 127.8852
546.6081, 126.7547
547.0902, 126.9181
547.5723, 128.9226
548.0544, 130.3899
548.5366, 130.7897
549.0187, 130.6290
549.5008, 130.3214
549.9829, 129.5737
550.4650, 129.2319
550.9471, 129.4975
551.4293, 130.1391
551.9114, 130.6716
552.3935, 131.1187
552.8756, 131.3399
553.3577, 131.2295
553.8398, 130.8506
554.3220, 130.3915
554.8041, 129.8407
555.2862, 129.5269
555.7683, 129.9546
556.2504, 130.7526
556.7325, 131.1511
557.2147, 131.0052
557.6968, 130.6977
558.1789, 130.3585
558.6610, 130.1102
559.1431, 130.1362
559.6252, 131.1273
560.1074, 131.7620
560.5895, 131.0956
561.0716, 129.5753
561.5537, 128.7106
562.0358, 129.2164
562.5179, 130.0232
563.0001, 130.9348
563.4822, 132.0251
563.9643, 132.3553
564.4464, 131.6346
564.9285, 130.5626
565.4106, 129.4801
565.8928, 128.2661
566.3749, 127.9574
566.8570, 128.8425
567.3391, 130.1891
567.8212, 130.9689
568.3033, 131.2232
568.7855, 131.1801
569.2676, 130.7774
569.7497, 130.2644
570.2318, 129.9451
570.7139, 129.8245
571.1960, 129.8992
571.6782, 130.1185
572.1603, 130.5671
572.6424, 131.5581
573.1245, 133.1917
573.6066, 134.1912
574.0887, 133.5838
574.5709, 132.4458
575.0530, 131.6087
575.5351, 131.1213
576.0172, 131.0376
576.4993, 131.6880
576.9814, 132.5810
577.4636, 132.8618
577.9457, 132.2558
578.4278, 131.7800
578.9099, 131.7472
579.3920, 132.0065
579.8741, 131.8345
580.3563, 131.1746
580.8384, 130.8722
581.3205, 131.9914
581.8026, 133.8355
582.2847, 134.0877
582.7668, 132.6561
583.2490, 131.1500
583.7311, 131.0675
584.2132, 131.6607
584.6953, 131.8751
585.1774, 131.1393
585.6595, 130.7804
586.1416, 132.1567
586.6237, 134.1815
587.1058, 135.2315
587.5880, 133.7646
588.0701, 132.5597
588.5522, 132.4658
589.0343, 133.2132
589.5164, 133.5444
589.9985, 133.2173
590.4807, 132.8804
590.9628, 132.8195
591.4449, 133.0414
591.9270, 133.2451
592.4091, 133.5096
592.8912, 133.4140
593.3734, 132.0035
593.8555, 129.7414
594.3376, 129.0602
594.8197, 130.5676
595.3018, 132.5527
595.7839, 133.1498
596.2661, 132.8652
596.7482, 132.6755
597.2303, 133.3013
597.7124, 133.7776
598.1945, 133.1869
598.6766, 131.9559
599.1588, 131.3304
599.6409, 132.1234
600.1230, 133.1737
600.6051, 134.0332
601.0872, 134.6600
601.5693, 135.6222
602.0515, 137.5614
602.5336, 138.9483
603.0157, 138.5562
603.4978, 135.9371
603.9799, 134.3355
604.4620, 133.9843
604.9442, 134.2044
605.4263, 134.1593
605.9084, 133.9188
606.3905, 133.9196
606.8726, 134.3519
607.3547, 134.8959
607.8369, 135.1161
608.3190, 135.1308
608.8011, 135.2473
609.2832, 135.6560
609.7653, 136.1737
610.2474, 137.0675
610.7296, 138.1729
611.2117, 138.2362
611.6938, 135.2193
612.1759, 132.5062
612.6580, 132.0454
613.1401, 134.5901
613.6223, 136.0260
614.1044, 135.8851
614.5865, 135.2514
615.0686, 135.0021
615.5507, 135.1595
616.0328, 135.6120
616.5150, 136.5153
616.9971, 137.3083
617.4792, 136.8842
617.9613, 135.5178
618.4434, 134.4561
618.9255, 134.0517
619.4077, 134.2345
619.8898, 135.3478
620.3719, 137.0564
620.8540, 138.3185
621.3361, 138.8238
621.8182, 138.5463
622.3004, 136.9154
622.7825, 133.9668
623.2646, 132.1326
623.7467, 132.5889
624.2288, 133.7245
624.7109, 134.8262
625.1931, 136.0043
625.6752, 136.7702
626.1573, 137.1057
626.6394, 137.0665
627.1215, 136.3971
627.6036, 135.0741
628.0858, 134.8761
628.5679, 136.3897
629.0500, 138.3190
629.5321, 138.5395
630.0142, 137.5049
630.4963, 136.6465
630.9785, 136.5325
631.4606, 136.8271
631.9427, 137.6431
632.4248, 138.6985
632.9069, 139.0894
633.3890, 137.6659
633.8712, 136.1945
634.3533, 135.3118
634.8354, 135.0588
635.3175, 135.6425
635.7996, 138.1308
636.2817, 140.2256
636.7639, 140.4029
637.2460, 138.0021
637.7281, 137.2284
638.2102, 138.5116
638.6923, 140.1787
639.1744, 140.1811
639.6566, 138.8244
640.1387, 137.9549
640.6208, 137.9898
641.1029, 138.4056
641.5850, 138.6980
642.0671, 138.9215
642.5493, 139.1921
643.0314, 139.9165
643.5135, 140.3506
643.9956, 139.7619
644.4777, 138.5298
644.9598, 137.8315
645.4420, 138.6665
645.9241, 139.3136
646.4062, 139.1992
646.8883, 138.3623
647.3704, 137.5216
647.8525, 136.4207
648.3347, 135.8966
648.8168, 136.8770
649.2989, 139.2928
649.7810, 140.2725
650.2631, 139.6797
650.7452, 138.6875
651.2274, 138.3335
651.7095, 138.4269
652.1916, 138.5848
652.6737, 138.7325
653.1558, 138.9400
653.6379, 139.3406
654.1201, 139.8046
654.6022, 140.1639
655.0843, 140.2468
655.5664, 140.3602
656.0485, 140.7976
656.5306, 141.2808
657.0128, 141.1341
657.4949, 139.8008
657.9770, 138.8830
658.4591, 138.7766
658.9412, 139.3898
659.4233, 140.4485
659.9055, 142.0009
660.3876, 143.5195
660.8697, 145.1900
661.3518, 146.5415
661.8339, 145.9224
662.3160, 143.4635
662.7982, 141.2357
663.2803, 140.6673
663.7624, 141.0694
664.2445, 142.1413
664.7266, 144.1123
665.2087, 145.0326
665.6909, 142.9978
666.1730, 140.3817
666.6551, 139.2059
667.1372, 140.4010
667.6193, 141.5163
668.1014, 142.5763
668.5836, 143.5063
669.0657, 144.1724
669.5478, 144.5520
670.0299, 144.8871
670.5120, 145.2727
670.9941, 145.5560
671.4763, 145.1851
671.9584, 144.4033
672.4405, 144.1452
672.9226, 145.4330
673.4047, 146.9260
673.8868, 147.3525
674.3690, 146.9695
674.8511, 146.7056
675.3332, 146.4515
675.8153, 146.8253
676.2974, 148.3838
676.7795, 151.1977
677.2617, 153.3712
677.7438, 154.3299
678.2259, 155.5418
678.7080, 157.6602
679.1901, 160.7069
679.6722, 164.8210
680.1544, 170.0775
680.6365, 176.2381
681.1186, 182.9884
681.6007, 190.5076
682.0828, 199.2825
682.5649, 209.1845
683.0471, 221.1206
683.5292, 236.7712
684.0113, 254.2956
684.4934, 271.0757
684.9755, 285.2945
685.4576, 300.7041
685.9398, 318.4583
686.4219, 338.0755
686.9040, 358.8183
687.3861, 381.1846
687.8682, 403.5604
688.3503, 425.2313
688.8325, 447.1183
689.3146, 470.4959
689.7967, 495.2308
690.2788, 523.1803
690.7609, 554.5797
691.2430, 589.7501
691.7252, 629.7328
692.2073, 674.7242
692.6894, 723.9924
693.1715, 776.9465
693.6536, 834.2552
694.1357, 897.2703
694.6179, 965.8469
695.1000, 1035.993
695.5821, 1111.444
696.0642, 1184.014
696.5463, 1252.456
697.0284, 1319.110
697.5106, 1365.366
697.9927, 1389.049
698.4748, 1397.486
698.9569, 1396.420
699.4390, 1385.563
699.9211, 1361.910
700.4033, 1325.267
700.8854, 1275.941
701.3675, 1212.291
701.8496, 1136.744
702.3317, 1051.507
702.8138, 954.8070
703.2960, 856.9811
703.7781, 757.1375
704.2602, 661.5515
704.7423, 577.9146
705.2244, 509.1467
705.7065, 450.9642
706.1887, 403.8200
706.6708, 366.8536
707.1529, 337.4464
707.6350, 316.0811
708.1171, 299.7787
708.5992, 288.8365
709.0814, 281.2195
709.5635, 272.5166
710.0456, 263.0521
710.5277, 254.5518
711.0098, 248.0390
711.4919, 242.7273
711.9741, 238.9106
712.4562, 236.0033
712.9383, 231.5501
713.4204, 223.9578
713.9025, 215.2834
714.3846, 205.9441
714.8668, 195.9571
715.3489, 186.7724
715.8310, 177.9473
716.3131, 170.6635
716.7952, 165.7109
717.2773, 162.9915
717.7595, 160.6682
718.2416, 158.7645
718.7237, 157.0397
719.2058, 155.2591
719.6879, 153.5412
720.1700, 152.0899
720.6522, 150.9107
721.1343, 150.0285
721.6164, 149.5299
722.0985, 149.2777
722.5806, 149.1942
723.0627, 149.4844
723.5449, 149.4183
724.0270, 148.6850
724.5091, 147.8537
724.9912, 147.5079
725.4733, 147.7656
725.9554, 147.8461
726.4376, 147.7402
726.9197, 147.2745
727.4018, 145.6717
727.8839, 143.4687
728.3660, 142.5027
728.8481, 143.6701
729.3303, 145.1648
729.8124, 145.3093
730.2945, 144.7964
730.7766, 144.6815
731.2587, 145.9525
731.7408, 146.8629
732.2230, 146.9146
732.7051, 146.3804
733.1872, 145.6276
733.6693, 144.4261
734.1514, 143.7232
734.6335, 143.8791
735.1157, 144.5435
735.5978, 144.8799
736.0799, 144.9074
736.5620, 144.7784
737.0441, 144.4083
737.5262, 144.0449
738.0084, 143.9432
738.4905, 144.0829
738.9726, 144.3938
739.4547, 145.0648
739.9368, 145.6889
740.4189, 146.2229
740.9011, 146.6146
741.3832, 146.3501
741.8653, 144.9262
742.3474, 143.7643
742.8295, 143.6320
743.3116, 144.3384
743.7938, 144.1711
744.2759, 143.0957
744.7580, 142.2433
745.2401, 142.5410
745.7222, 143.5013
746.2043, 144.5684
746.6865, 145.6917
747.1686, 146.4388
747.6507, 146.3269
748.1328, 145.9598
748.6149, 145.8432
749.0970, 146.2126
749.5792, 145.7919
750.0613, 143.8311
750.5434, 141.9909
751.0255, 141.3872
751.5076, 142.1345
751.9897, 142.9136
752.4719, 143.7654
752.9540, 144.3631
753.4361, 144.1904
753.9182, 143.6015
754.4003, 143.2641
754.8824, 143.2612
755.3646, 143.5914
755.8467, 144.7012
756.3288, 145.8981
756.8109, 146.4807
757.2930, 146.0036
757.7751, 145.6164
758.2573, 145.3970
758.7394, 145.2832
759.2215, 145.3133
759.7036, 145.5767
760.1857, 145.2133
760.6678, 143.9818
761.1500, 142.7061
761.6321, 142.4906
762.1142, 143.0650
762.5963, 143.8296
763.0784, 144.7420
763.5605, 145.5100
764.0427, 145.8096
764.5248, 145.8882
765.0069, 146.0567
765.4890, 146.7819
765.9711, 147.0385
766.4532, 146.4032
766.9354, 145.5226
767.4175, 145.4401
767.8996, 146.3370
768.3817, 146.8713
768.8638, 146.7584
769.3459, 146.3258
769.8281, 145.9921
770.3102, 145.7628
770.7923, 145.6690
771.2744, 145.8308
771.7565, 145.9585
772.2386, 145.6040
772.7208, 145.1295
773.2029, 145.1649
773.6850, 146.6156
774.1671, 147.6097
774.6492, 147.6592
775.1313, 147.2152
775.6135, 147.3275
776.0956, 148.1180
776.5777, 148.5197
777.0598, 148.0748
777.5419, 147.3551
778.0240, 147.4210
778.5062, 148.0850
778.9883, 148.7682
779.4704, 149.4070
779.9525, 149.7773
780.4346, 149.5659
780.9167, 148.9819
781.3989, 148.5399
781.8810, 148.5165
782.3631, 148.4151
782.8452, 148.0237
783.3273, 147.5406
783.8094, 147.6012
784.2916, 148.2533
784.7737, 149.0059
785.2558, 149.7830
785.7379, 150.4650
786.2200, 150.9830
786.7021, 151.2400
787.1843, 150.8933
787.6664, 148.9623
788.1485, 147.1726
788.6306, 146.5985
789.1127, 146.9841
789.5948, 147.3510
790.0770, 147.5114
790.5591, 147.7732
791.0412, 148.2793
791.5233, 148.9136
792.0054, 149.2140
792.4875, 149.1689
792.9697, 149.1705
793.4518, 149.4406
793.9339, 149.8109
794.4160, 149.8860
794.8981, 149.8067
795.3802, 150.0439
795.8624, 151.8328
796.3445, 152.9856
796.8266, 151.5896
797.3087, 148.4028
797.7908, 147.4373
798.2729, 150.3360
798.7551, 152.4292
799.2372, 152.1181
799.7193, 150.1264
800.2014, 148.9140
800.6835, 148.4666
801.1656, 148.5580
801.6478, 149.4884
802.1299, 150.5870
802.6120, 151.0837
803.0941, 151.0889
803.5762, 150.9623
804.0583, 150.6217
804.5405, 150.4039
805.0226, 150.5190
805.5047, 150.8723
805.9868, 151.1279
806.4689, 151.2965
806.9510, 151.3264
807.4332, 151.2213
807.9153, 150.9490
808.3974, 150.0664
808.8795, 148.7817
809.3616, 148.2813
809.8438, 150.2060
810.3259, 152.3132
810.8080, 152.5822
811.2901, 151.4908
811.7722, 150.6512
812.2543, 150.6921
812.7365, 150.7894
813.2186, 150.5782
813.7007, 150.2896
814.1828, 151.0863
814.6649, 153.2368
815.1470, 154.2934
815.6292, 152.8108
816.1113, 150.2652
816.5934, 149.4566
817.0755, 149.9723
817.5576, 150.4527
818.0397, 149.7101
818.5219, 149.2881
819.0040, 150.4361
819.4861, 152.5837
819.9682, 153.8083
820.4503, 153.6219
820.9324, 153.1607
821.4146, 152.4278
821.8967, 151.7520
822.3788, 152.4372
822.8609, 154.3404
823.3430, 155.2252
823.8251, 153.6346
824.3073, 151.4966
824.7894, 151.4579
825.2715, 152.6084
825.7536, 152.9664
826.2357, 150.6579
826.7178, 148.7560
827.2000, 148.0160
827.6821, 148.3059
828.1642, 149.7882
828.6463, 153.1994
829.1284, 155.0753
829.6105, 154.3235
830.0927, 152.4125
830.5748, 151.9544
831.0569, 152.6182
831.5390, 153.2938
832.0211, 153.8071
832.5032, 153.8790
832.9854, 152.4657
833.4675, 150.7252
833.9496, 150.4532
834.4317, 154.3003
834.9138, 156.4236
835.3959, 155.8409
835.8781, 153.9505
836.3602, 152.6440
836.8423, 151.9390
837.3244, 151.9978
837.8065, 153.0318
838.2886, 154.2198
838.7708, 154.3804
839.2529, 154.0989
839.7350, 154.4868
840.2171, 156.7418
840.6992, 157.8562
841.1813, 155.4757
841.6635, 152.2651
842.1456, 151.0645
842.6277, 152.5715
843.1098, 154.0649
843.5919, 155.5008
844.0740, 156.6465
844.5562, 157.2962
845.0383, 157.4255
845.5204, 156.6104
846.0025, 154.5703
846.4846, 153.2022
846.9667, 154.8857
847.4489, 155.9382
847.9310, 157.5324
848.4131, 158.4243
848.8952, 158.6515
849.3773, 156.2236
849.8594, 157.2243
850.3416, 156.8509
850.8237, 156.4212
851.3058, 157.9045
851.7879, 155.8628
852.2700, 157.3157
852.7521, 157.3736
853.2343, 158.0700
853.7164, 157.3838
854.1985, 157.1247
854.6806, 158.2485
855.1627, 158.6066
855.6448, 157.7613
856.1270, 158.4982
856.6091, 156.4082
857.0912, 156.7989
857.5733, 158.2599
858.0554, 157.4841
858.5375, 158.2464
859.0197, 158.4228
859.5018, 155.9373
859.9839, 158.0812
860.4660, 158.2231
860.9481, 156.3092
861.4302, 158.2945
861.9124, 156.6641
862.3945, 156.3242
862.8766, 156.9556
863.3587, 156.5745
863.8408, 157.7898
864.3229, 157.4672
864.8051, 157.0072
865.2872, 157.1468
865.7693, 155.5872
866.2514, 157.1799
866.7335, 156.6194
867.2156, 157.1292
867.6978, 157.8816
868.1799, 156.7763
868.6620, 157.6378
869.1441, 155.4493
869.6262, 156.9205
870.1083, 157.6948
870.5905, 158.5546
871.0726, 157.9359
871.5547, 155.8883
872.0368, 154.6645
872.5189, 154.9640
873.0010, 155.8786
873.4832, 156.3148
873.9653, 156.6715
874.4474, 157.6699
874.9295, 160.3891
875.4116, 162.2413
875.8937, 162.1867
876.3759, 161.2767
876.8580, 160.3223
877.3401, 159.2402
877.8222, 158.6633
878.3043, 158.7293
878.7864, 158.8746
879.2686, 158.4254
879.7507, 157.6501
880.2328, 157.0405
880.7149, 156.6807
881.1970, 156.3513
881.6791, 155.6631
882.1613, 155.1928
882.6434, 155.3918
883.1255, 156.3312
883.6076, 157.4321
884.0897, 158.8542
884.5718, 159.9301
885.0540, 160.0310
885.5361, 159.4467
886.0182, 159.0642
886.5003, 158.8703
886.9824, 158.7074
887.4645, 158.4316
887.9467, 158.1971
888.4288, 158.1577
888.9109, 158.2843
889.3930, 158.1832
889.8751, 157.4749
890.3572, 157.3916
890.8394, 158.6276
891.3215, 160.5152
891.8036, 161.0071
892.2857, 160.3339
892.7678, 159.7661
893.2499, 159.9560
893.7321, 160.3501
894.2142, 160.6972
894.6963, 160.9298
895.1784, 160.9108
895.6605, 160.4205
896.1426, 159.9612
896.6248, 159.5702
897.1069, 159.2300
897.5890, 158.9482
898.0711, 158.7079
898.5532, 158.3029
899.0353, 157.6255
899.5175, 157.1044
899.9996, 156.9041
900.4817, 157.2066
900.9638, 158.4396
901.4459, 161.4579
901.9280, 163.0859
902.4102, 162.3942
902.8923, 161.0303
903.3744, 160.0901
903.8565, 159.5761
904.3386, 158.8246
904.8207, 157.8265
905.3029, 157.0464
905.7850, 157.1330
906.2671, 157.4634
906.7492, 157.1245
907.2313, 156.1718
907.7134, 155.9068
908.1956, 157.2931
908.6777, 158.8403
909.1598, 160.3383
909.6419, 161.5961
910.1240, 161.2267
910.6061, 159.1931
911.0883, 158.0041
911.5704, 159.5037
912.0525, 161.4956
912.5346, 160.8647
913.0167, 158.5749
913.4988, 156.7173
913.9810, 155.8836
914.4631, 155.7752
914.9452, 156.8906
915.4273, 158.2979
915.9094, 158.4435
916.3915, 157.1753
916.8737, 156.8138
917.3558, 157.8565
917.8379, 159.0675
918.3200, 158.6565
918.8021, 157.6615
919.2842, 157.8815
919.7664, 160.1147
920.2485, 161.3658
920.7306, 159.4515
921.2127, 157.3526
921.6948, 156.8880
922.1769, 158.1575
922.6591, 159.7133
923.1412, 161.6662
923.6233, 162.8026
924.1054, 161.4620
924.5875, 159.2688
925.0696, 158.7066
925.5518, 159.5252
926.0339, 160.0031
926.5160, 159.3397
926.9981, 158.3020
927.4802, 156.6326
927.9623, 154.9174
928.4445, 155.3840
928.9266, 158.2762
929.4087, 160.3158
929.8908, 160.3484
930.3729, 159.4972
930.8550, 159.0938
931.3372, 158.9566
931.8193, 158.7539
932.3014, 158.1468
932.7835, 157.8662
933.2656, 158.3875
933.7477, 159.0735
934.2299, 159.3629
934.7120, 159.2207
935.1941, 158.8953
935.6762, 158.3470
936.1583, 158.0786
936.6404, 159.3921
937.1226, 160.8300
937.6047, 159.7607
938.0868, 155.9750
938.5689, 153.7988
939.0510, 156.2897
939.5331, 158.9208
940.0153, 159.9664
940.4974, 159.6349
940.9795, 159.2761
941.4616, 158.8806
941.9437, 158.8654
942.4258, 159.9102
942.9080, 160.8787
943.3901, 159.8544
943.8722, 157.7570
944.3543, 156.5569
944.8364, 158.0359
945.3185, 158.8743
945.8007, 158.1328
946.2828, 156.9924
946.7649, 157.2331
947.2470, 158.8071
947.7291, 159.7634
948.2112, 159.8075
948.6934, 159.5085
949.1755, 159.1336
949.6576, 158.8655
950.1397, 159.0503
950.6218, 159.8979
951.1039, 160.0663
951.5861, 158.8763
952.0682, 157.7323
952.5503, 157.2559
953.0324, 157.4149
953.5145, 158.1008
953.9966, 159.2821
954.4788, 160.5853
954.9609, 162.2273
955.4430, 163.5319
955.9251, 163.8804
956.4072, 163.4677
956.8893, 162.7801
957.3715, 161.5253
957.8536, 160.6389
958.3357, 160.2006
958.8178, 160.2460
959.2999, 161.0247
959.7820, 162.3854
960.2642, 163.7235
960.7463, 165.0143
961.2284, 165.7994
961.7105, 165.2412
962.1926, 164.3792
962.6747, 164.1489
963.1569, 164.7571
963.6390, 165.4265
964.1211, 166.2466
964.6032, 166.8978
965.0853, 167.1143
965.5674, 167.0245
966.0496, 166.8471
966.5317, 166.6516
967.0138, 166.7602
967.4959, 167.7273
967.9780, 168.6404
968.4601, 169.0058
968.9423, 169.0024
969.4244, 168.9051
969.9065, 167.1962
970.3886, 168.8727
970.8707, 169.8469
971.3528, 170.1565
971.8350, 167.8110
972.3171, 168.8940
972.7992, 168.6030
973.2813, 168.2556
973.7634, 169.8212
974.2455, 167.8618
974.7277, 169.3971
975.2098, 169.5374
975.6919, 170.3161
976.1740, 169.7123
976.6561, 169.5355
977.1382, 170.7416
977.6204, 171.1821
978.1025, 170.4191
978.5846, 171.2384
979.0667, 169.2307
979.5488, 169.7038
980.0309, 171.2471
980.5131, 170.5537
980.9952, 171.3982
981.4773, 171.6571
981.9594, 169.2538
982.4415, 171.4802
982.9236, 171.7043
983.4058, 169.8728
983.8879, 171.9405
984.3700, 170.3924
984.8521, 170.1349
985.3342, 170.8486
985.8163, 170.5499
986.2985, 171.8475
986.7806, 171.6072
987.2627, 171.2295
987.7448, 171.4515
988.2269, 169.9743
988.7090, 171.6493
989.1912, 171.1711
989.6733, 171.7633
990.1554, 172.5981
990.6375, 171.5751
991.1196, 172.5189
991.6017, 170.4128
992.0839, 170.8587
992.5660, 171.0297
993.0481, 172.8319
993.5302, 170.7407
994.0123, 171.1156
994.4944, 172.5406
994.9766, 172.4963
995.4587, 173.0664
995.9408, 171.8178
996.4229, 172.2777
996.9050, 172.2666
997.3871, 173.8828
997.8693, 174.2144
998.3514, 172.9967
998.8335, 171.7855
999.3156, 173.5189
999.7977, 172.4614
1000.280, 172.9095
1000.762, 171.8027
1001.244, 172.0384
1001.726, 174.2910
1002.208, 174.4331
1002.690, 172.0293
1003.173, 171.1331
1003.655, 172.2701
1004.137, 174.1098
1004.619, 175.5446
1005.101, 176.5457
1005.583, 176.6252
1006.065, 175.8263
1006.547, 175.5529
1007.029, 178.0176
1007.512, 179.9520
1007.994, 178.3808
1008.476, 174.4485
1008.958, 173.6940
1009.440, 176.7709
1009.922, 178.8845
1010.404, 178.3338
1010.886, 176.7460
1011.369, 176.0477
1011.851, 176.0114
1012.333, 176.3699
1012.815, 177.6474
1013.297, 177.8221
1013.779, 175.6857
1014.261, 173.4427
1014.743, 172.6976
1015.225, 173.3620
1015.708, 173.9819
1016.190, 174.5287
1016.672, 174.5065
1017.154, 172.5031
1017.636, 170.8213
1018.118, 171.7795
1018.600, 174.4423
1019.082, 175.5779
1019.565, 174.2961
1020.047, 173.4506
1020.529, 173.5253
1021.011, 174.0887
1021.493, 174.6642
1021.975, 175.2499
1022.457, 175.8478
1022.939, 176.4592
1023.421, 177.0641
1023.904, 177.5529
1024.386, 178.1540
1024.868, 179.1756
1025.350, 180.4871
1025.832, 180.7008
1026.314, 179.8307
1026.796, 178.9428
1027.278, 178.4004
1027.760, 178.2381
1028.243, 178.7570
1028.725, 179.5987
1029.207, 180.1564
1029.689, 180.0141
1030.171, 180.0991
1030.653, 180.4649
1031.135, 180.9793
1031.617, 181.8355
1032.100, 182.6903
1032.582, 182.3562
1033.064, 180.8701
1033.546, 179.4319
1034.028, 177.9367
1034.510, 177.4312
1034.992, 179.1200
1035.474, 182.0490
1035.957, 183.3559
1036.439, 182.9534
1036.921, 182.6980
1037.403, 182.9484
1037.885, 183.7733
1038.367, 185.6813
1038.849, 187.9954
1039.331, 189.7146
1039.813, 190.4034
1040.296, 191.8610
1040.778, 194.6447
1041.260, 197.2463
1041.742, 198.7551
1042.224, 199.4550
1042.706, 200.0971
1043.188, 200.7174
1043.670, 201.5000
1044.152, 202.1107
1044.635, 203.3776
1045.117, 205.9772
1045.599, 209.2549
1046.081, 212.3007
1046.563, 215.0430
1047.045, 218.5065
1047.527, 222.7928
1048.009, 227.4048
1048.492, 232.0592
1048.974, 236.6421
1049.456, 241.2779
1049.938, 245.8934
1050.420, 249.4152
1050.902, 251.7625
1051.384, 253.2802
1051.866, 254.1319
1052.349, 254.0857
1052.831, 251.7992
1053.313, 248.2959
1053.795, 246.3039
1054.277, 246.4590
1054.759, 248.3071
1055.241, 250.2411
1055.723, 255.2544
1056.205, 264.9985
1056.688, 279.4376
1057.170, 296.9815
1057.652, 317.7202
1058.134, 342.4113
1058.616, 369.0745
1059.098, 402.7495
1059.580, 444.7019
1060.062, 497.8472
1060.544, 567.9166
1061.027, 650.7906
1061.509, 760.5010
1061.991, 897.5262
1062.473, 1059.839
1062.955, 1255.686
1063.437, 1471.673
1063.919, 1685.213
1064.401, 1891.784
1064.884, 2083.256
1065.366, 2241.846
1065.848, 2397.329
1066.330, 2549.067
1066.812, 2708.523
1067.294, 2896.077
1067.776, 3111.082
1068.258, 3358.480
1068.740, 3633.113
1069.223, 3967.628
1069.705, 4371.943
1070.187, 4861.944
1070.669, 5464.994
1071.151, 6185.265
1071.633, 6978.155
1072.115, 7861.324
1072.597, 8774.831
1073.079, 9752.393
1073.562, 10665.24
1074.044, 11515.80
1074.526, 12117.01
1075.008, 12133.26
1075.490, 11327.49
1075.972, 10090.67
1076.454, 8279.305
1076.936, 6402.769
1077.419, 4771.474
1077.901, 3403.597
1078.383, 2383.115
1078.865, 1683.932
1079.347, 1184.171
1079.829, 896.8834
1080.311, 702.0069
1080.793, 578.2698
1081.275, 500.6504
1081.758, 440.4436
1082.240, 397.7256
1082.722, 363.3652
1083.204, 336.4672
1083.686, 314.8904
1084.168, 298.0077
1084.650, 283.8674
1085.132, 270.3986
1085.615, 257.6645
1086.097, 248.0221
1086.579, 242.0364
1087.061, 237.6097
1087.543, 234.7068
1088.025, 232.0141
1088.507, 226.9336
1088.989, 220.7769
1089.471, 216.0938
1089.953, 214.0220
1090.436, 211.1944
1090.918, 205.6881
1091.400, 200.8674
1091.882, 198.5188
1092.364, 198.2268
1092.846, 198.6658
1093.328, 199.5708
1093.810, 199.7110
1094.293, 198.3959
1094.775, 196.3516
1095.257, 192.8678
1095.739, 189.5050
1096.221, 188.0858
1096.703, 188.8940
1097.185, 189.1925
1097.667, 188.9290
1098.150, 188.3333
1098.632, 187.2724
1099.114, 186.2258
1099.596, 185.4292
1100.078, 184.9899
1100.560, 185.3201
1101.042, 187.0122
1101.524, 187.6212
1102.006, 186.6812
1102.489, 185.1179
1102.971, 183.6904
1103.453, 182.4550
1103.935, 181.5004
1104.417, 180.8291
1104.899, 180.4791
1105.381, 180.5479
1105.863, 180.8775
1106.345, 181.7036
1106.828, 182.4351
1107.310, 181.4012
1107.792, 179.1993
1108.274, 177.6970
1108.756, 177.4008
1109.238, 177.4056
1109.720, 177.8181
1110.202, 177.8267
1110.685, 176.6590
1111.167, 174.6292
1111.649, 174.5430
1112.131, 176.1714
1112.613, 177.2157
1113.095, 176.4318
1113.577, 175.1963
1114.059, 173.8061
1114.542, 172.9197
1115.024, 173.5381
1115.506, 176.2701
1115.988, 177.2613
1116.470, 176.3897
1116.952, 175.0008
1117.434, 173.6212
1117.916, 172.5035
1118.398, 171.8560
1118.880, 171.6956
1119.363, 172.1488
1119.845, 174.0366
1120.327, 174.5938
1120.809, 173.2554
1121.291, 171.7849
1121.773, 172.2776
1122.255, 173.6940
1122.737, 174.2839
1123.220, 174.0195
1123.702, 173.4562
1124.184, 172.2151
1124.666, 171.5092
1125.148, 171.7282
1125.630, 172.3181
1126.112, 172.4159
1126.594, 172.1471
1127.077, 171.8164
1127.559, 171.4566
1128.041, 171.3540
1128.523, 172.0821
1129.005, 172.5891
1129.487, 172.2172
1129.969, 171.3962
1130.451, 171.7487
1130.933, 173.0473
1131.416, 173.4286
1131.898, 172.1771
1132.380, 170.8719
1132.862, 170.3651
1133.344, 170.4228
1133.826, 171.0347
1134.308, 172.1253
1134.790, 172.5808
1135.272, 172.3886
1135.755, 172.0493
1136.237, 171.6749
1136.719, 171.4030
1137.201, 171.3382
1137.683, 171.4689
1138.165, 171.8667
1138.647, 172.6926
1139.129, 173.0280
1139.612, 172.8483
1140.094, 172.3553
1140.576, 171.3131
1141.058, 170.3385
1141.540, 170.3886
1142.022, 171.0812
1142.504, 171.6092
1142.986, 171.8401
1143.469, 171.8267
1143.951, 171.5305
1144.433, 171.1115
1144.915, 170.7914
1145.397, 170.3975
1145.879, 169.1714
1146.361, 167.4926
1146.843, 166.9183
1147.325, 169.1311
1147.807, 170.8141
1148.290, 171.5118
1148.772, 171.6486
1149.254, 171.4685
1149.736, 171.2005
1150.218, 171.5429
1150.700, 172.4933
1151.182, 173.3620
1151.664, 174.1943
1152.147, 174.3854
1152.629, 173.5369
1153.111, 172.2611
1153.593, 171.6360
1154.075, 171.5859
1154.557, 171.9916
1155.039, 172.8852
1155.521, 173.2247
1156.004, 171.7952
1156.486, 170.3716
1156.968, 169.8542
1157.450, 169.9354
1157.932, 169.4819
1158.414, 168.6397
1158.896, 168.6391
1159.378, 170.0324
1159.860, 171.0498
1160.343, 169.6525
1160.825, 168.2436
1161.307, 168.6449
1161.789, 170.5931
1162.271, 172.2604
1162.753, 173.6239
1163.235, 174.0999
1163.717, 173.2864
1164.199, 172.0007
1164.682, 170.0565
1165.164, 168.5975
1165.646, 169.1703
1166.128, 171.9323
1166.610, 172.8546
1167.092, 171.8735
1167.574, 170.5416
1168.056, 169.2937
1168.539, 168.5094
1169.021, 168.7561
1169.503, 169.5701
1169.985, 170.3940
1170.467, 171.3199
1170.949, 171.4744
1171.431, 170.7417
1171.913, 170.2982
1172.396, 171.1503
1172.878, 172.4446
1173.360, 173.9974
1173.842, 175.1579
1174.324, 174.3849
1174.806, 170.1455
1175.288, 168.2883
1175.770, 169.2469
1176.252, 171.0031
1176.734, 172.3765
1177.217, 173.3371
1177.699, 173.8606
1178.181, 173.9227
1178.663, 173.3266
1179.145, 171.3225
1179.627, 170.5728
1180.109, 171.4604
1180.591, 172.8288
1181.074, 173.9524
1181.556, 174.6216
1182.038, 174.3922
1182.520, 173.3994
1183.002, 172.3194
1183.484, 170.9133
1183.966, 170.2490
1184.448, 170.6277
1184.931, 171.2605
1185.413, 171.1925
1185.895, 170.8109
1186.377, 170.7560
1186.859, 171.0288
1187.341, 171.2236
1187.823, 171.0384
1188.305, 171.2647
1188.787, 172.1945
1189.270, 173.2238
1189.752, 173.4678
1190.234, 173.2518
1190.716, 173.1462
1191.198, 173.2044
1191.680, 173.1358
1192.162, 173.1216
1192.644, 172.4093
1193.126, 170.4474
1193.609, 168.4479
1194.091, 168.6035
1194.573, 170.0657
1195.055, 171.4262
1195.537, 172.4890
1196.019, 173.1383
1196.501, 173.1629
1196.983, 173.1408
1197.466, 173.2887
1197.948, 173.3996
1198.430, 172.9456
1198.912, 172.2116
1199.394, 171.7551
1199.876, 171.6940
1200.358, 171.8467
1200.840, 172.3252
1201.323, 172.7374
1201.805, 172.9693
1202.287, 173.0137
1202.769, 172.8141
1203.251, 172.4228
1203.733, 171.8588
1204.215, 170.9653
1204.697, 170.7001
1205.179, 171.5161
1205.661, 172.3811
1206.144, 172.8935
1206.626, 173.1107
1207.108, 173.0196
1207.590, 172.7511
1208.072, 172.5061
1208.554, 172.1320
1209.036, 172.6239
1209.518, 174.7935
1210.001, 176.4142
1210.483, 176.1308
1210.965, 174.7421
1211.447, 173.8483
1211.929, 173.4348
1212.411, 173.4976
1212.893, 174.2874
1213.375, 174.9139
1213.858, 175.3518
1214.340, 175.4539
1214.822, 174.9370
1215.304, 174.1834
1215.786, 174.3810
1216.268, 175.0304
1216.750, 174.9131
1217.232, 172.7202
1217.714, 172.0319
1218.197, 173.8850
1218.679, 175.4545
1219.161, 174.4805
1219.643, 172.3189
1220.125, 171.8234
1220.607, 172.4772
1221.089, 173.0835
1221.571, 173.2862
1222.053, 173.3984
1222.536, 173.3929
1223.018, 173.4162
1223.500, 173.4476
1223.982, 173.6534
1224.464, 174.8176
1224.946, 176.3532
1225.428, 176.9151
1225.910, 174.8578
1226.393, 174.0434
1226.875, 174.9014
1227.357, 175.8528
1227.839, 175.6282
1228.321, 174.8295
1228.803, 174.1076
1229.285, 173.6612
1229.767, 174.0033
1230.250, 176.3725
1230.732, 177.1554
1231.214, 175.9998
1231.696, 174.4741
1232.178, 173.4772
1232.660, 173.0639
1233.142, 173.6278
1233.624, 174.7985
1234.106, 175.7222
1234.589, 176.3200
1235.071, 176.5700
1235.553, 176.4648
1236.035, 176.0495
1236.517, 174.8867
1236.999, 173.8204
1237.481, 174.0021
1237.963, 175.0069
1238.445, 175.8805
1238.928, 176.5647
1239.410, 177.0845
1239.892, 177.4611
1240.374, 177.5074
1240.856, 176.5494
1241.338, 175.6911
1241.820, 176.3896
1242.302, 177.7974
1242.785, 177.9969
1243.267, 176.5100
1243.749, 176.2110
1244.231, 177.2528
1244.713, 178.4210
1245.195, 179.0338
1245.677, 179.2410
1246.159, 179.0981
1246.641, 178.6126
1247.124, 177.7950
1247.606, 176.6046
1248.088, 175.3355
1248.570, 174.0336
1249.052, 173.7234
1249.534, 176.2628
1250.016, 178.7287
1250.498, 179.3095
1250.980, 178.7611
1251.463, 177.9524
1251.945, 176.8885
1252.427, 175.7630
1252.909, 174.6486
1253.391, 174.2814
1253.873, 175.9330
1254.355, 177.4603
1254.837, 177.7583
1255.320, 177.6164
1255.802, 178.1359
1256.284, 179.0580
1256.766, 178.2385
1257.248, 175.9146
1257.730, 174.3421
1258.212, 175.4299
1258.694, 176.4505
1259.177, 176.7423
1259.659, 176.6042
1260.141, 176.0159
1260.623, 175.2912
1261.105, 175.8784
1261.587, 177.4547
1262.069, 178.3166
1262.551, 176.5847
1263.033, 175.9590
1263.516, 177.4042
1263.998, 178.9322
1264.480, 178.1944
1264.962, 176.3117
1265.444, 175.5644
1265.926, 175.7775
1266.408, 176.0343
1266.890, 175.8615
1267.372, 176.2843
1267.855, 177.5860
1268.337, 178.7146
1268.819, 178.5902
1269.301, 177.8723
1269.783, 177.2192
1270.265, 176.7578
1270.747, 176.8346
1271.229, 177.6871
1271.712, 178.4129
1272.194, 179.0335
1272.676, 179.0569
1273.158, 177.0244
1273.640, 175.2164
1274.122, 176.6648
1274.604, 179.5499
1275.086, 180.1240
1275.568, 177.7960
1276.051, 176.7378
1276.533, 177.0657
1277.015, 177.7220
1277.497, 178.1320
1277.979, 178.5126
1278.461, 179.1837
1278.943, 179.7776
1279.425, 179.7537
1279.907, 179.1301
1280.390, 178.9287
1280.872, 179.1264
1281.354, 179.3871
1281.836, 179.9982
1282.318, 179.9935
1282.800, 178.3351
1283.282, 176.6972
1283.764, 176.8275
1284.247, 178.2428
1284.729, 178.3396
1285.211, 177.4933
1285.693, 177.1562
1286.175, 178.6047
1286.657, 179.5502
1287.139, 179.5893
1287.621, 179.4038
1288.104, 179.7470
1288.586, 180.1028
1289.068, 178.8880
1289.550, 176.8723
1290.032, 175.8412
1290.514, 176.8951
1290.996, 177.8749
1291.478, 178.8594
1291.960, 179.4473
1292.443, 179.1358
1292.925, 178.5659
1293.407, 178.5516
1293.889, 178.8096
1294.371, 178.8976
1294.853, 178.8094
1295.335, 178.3617
1295.817, 177.5369
1296.299, 176.8891
1296.782, 176.5009
1297.264, 176.7111
1297.746, 178.4862
1298.228, 180.4414
1298.710, 181.2736
1299.192, 181.0197
1299.674, 180.0121
1300.156, 178.3957
1300.639, 176.9778
1301.121, 175.8316
1301.603, 175.5150
##END=



