##NAMES=Strontianite
##RRUFFID=R050476
##IDEAL CHEMISTRY=SrCO_3_
##LOCALITY=Fidalgo Island, Puget Sound, Washington, USA
##OWNER=RRUFF
##SOURCE=California Institute of Technology
##DESCRIPTION=Aggregate of colorless spheres
##STATUS=The identification of this mineral has been confirmed by X-ray diffraction and chemical analysis
##URL=rruff.info/R050476
##MEASURED CHEMISTRY=(Sr_0.86_Ca_0.14_)CO_3_
93.78320, 70.58446
94.26532, 69.82874
94.74744, 70.11234
95.22955, 71.26730
95.71167, 72.88206
96.19379, 73.92034
96.67590, 74.43813
97.15802, 74.83180
97.64014, 74.91624
98.12225, 74.93784
98.60437, 75.43262
99.08649, 76.79001
99.56860, 78.42263
100.0507, 79.38042
100.5328, 79.43072
101.0150, 79.34909
101.4971, 79.75508
101.9792, 80.67876
102.4613, 81.51427
102.9434, 81.92104
103.4255, 82.18078
103.9077, 82.50562
104.3898, 82.97862
104.8719, 83.48339
105.3540, 83.77263
105.8361, 83.71714
106.3182, 83.64568
106.8004, 83.65057
107.2825, 83.67818
107.7646, 83.64584
108.2467, 83.49177
108.7288, 83.22880
109.2109, 83.06188
109.6931, 82.76295
110.1752, 82.77318
110.6573, 83.31772
111.1394, 84.29734
111.6215, 85.47124
112.1036, 86.66408
112.5858, 87.90478
113.0679, 88.80371
113.5500, 88.99495
114.0321, 89.12424
114.5142, 89.76747
114.9964, 91.01382
115.4785, 92.30466
115.9606, 92.95896
116.4427, 93.01981
116.9248, 92.90591
117.4069, 92.71620
117.8891, 92.41392
118.3712, 91.85849
118.8533, 90.84827
119.3354, 89.86083
119.8175, 89.24905
120.2996, 88.99669
120.7818, 89.09170
121.2639, 89.55340
121.7460, 90.38573
122.2281, 91.46677
122.7102, 93.02856
123.1923, 94.68473
123.6745, 96.21394
124.1566, 97.58715
124.6387, 98.93910
125.1208, 100.4209
125.6029, 101.8646
126.0850, 103.8630
126.5672, 106.5120
127.0493, 109.5750
127.5314, 112.9424
128.0135, 116.5750
128.4956, 120.3248
128.9777, 123.8605
129.4599, 127.0220
129.9420, 130.0890
130.4241, 132.9428
130.9062, 135.7431
131.3883, 138.6898
131.8705, 141.8891
132.3526, 145.3600
132.8347, 149.2404
133.3168, 153.9579
133.7989, 158.5753
134.2810, 162.7108
134.7632, 166.4129
135.2453, 169.8914
135.7274, 173.0324
136.2095, 176.1405
136.6916, 180.0796
137.1737, 185.3818
137.6559, 191.2541
138.1380, 197.0101
138.6201, 202.6661
139.1022, 208.1629
139.5843, 213.2597
140.0664, 218.2422
140.5486, 223.4920
141.0307, 229.3223
141.5128, 235.5253
141.9949, 241.3297
142.4770, 246.2968
142.9591, 251.5795
143.4413, 257.7103
143.9234, 264.4284
144.4055, 271.3534
144.8876, 278.3956
145.3697, 285.5520
145.8518, 291.5806
146.3340, 295.4506
146.8161, 298.9929
147.2982, 303.2414
147.7803, 307.7721
148.2624, 311.3487
148.7445, 312.7939
149.2267, 311.9489
149.7088, 309.1938
150.1909, 304.5345
150.6730, 298.4913
151.1551, 291.1093
151.6372, 282.4870
152.1194, 273.0166
152.6015, 263.0185
153.0836, 252.2115
153.5657, 241.7610
154.0478, 231.5086
154.5299, 221.6672
155.0121, 212.3530
155.4942, 203.5752
155.9763, 195.6341
156.4584, 189.2862
156.9405, 184.5057
157.4227, 180.2938
157.9048, 176.3696
158.3869, 172.8310
158.8690, 169.8824
159.3511, 167.5557
159.8332, 165.9226
160.3154, 164.9641
160.7975, 164.6560
161.2796, 164.8170
161.7617, 165.5098
162.2438, 166.6962
162.7259, 167.7949
163.2081, 168.3989
163.6902, 169.1209
164.1723, 170.3500
164.6544, 172.1381
165.1365, 174.3767
165.6186, 177.0520
166.1008, 180.2404
166.5829, 183.4832
167.0650, 186.6706
167.5471, 189.9060
168.0292, 193.2649
168.5113, 196.7610
168.9935, 200.2868
169.4756, 203.6089
169.9577, 206.4319
170.4398, 209.6747
170.9219, 213.6749
171.4040, 217.8902
171.8862, 221.8605
172.3683, 225.4178
172.8504, 228.7298
173.3325, 232.2283
173.8146, 235.8101
174.2967, 239.7137
174.7789, 244.2226
175.2610, 248.9693
175.7431, 253.5611
176.2252, 257.8721
176.7073, 261.8607
177.1894, 265.3322
177.6716, 268.0039
178.1537, 270.5908
178.6358, 273.5286
179.1179, 276.4717
179.6000, 278.7793
180.0821, 280.0885
180.5643, 280.5688
181.0464, 280.8535
181.5285, 281.3760
182.0106, 281.1757
182.4927, 279.6819
182.9749, 277.0315
183.4570, 273.8256
183.9391, 270.3151
184.4212, 266.3648
184.9033, 262.0107
185.3854, 257.4464
185.8676, 252.1592
186.3497, 245.5398
186.8318, 237.5601
187.3139, 229.2459
187.7960, 221.0978
188.2781, 212.7818
188.7603, 203.8923
189.2424, 194.1497
189.7245, 184.1910
190.2066, 174.8075
190.6887, 166.0466
191.1708, 157.6537
191.6530, 149.6086
192.1351, 141.8321
192.6172, 134.1794
193.0993, 126.5701
193.5814, 119.3213
194.0635, 113.2539
194.5457, 108.9764
195.0278, 104.7439
195.5099, 99.84001
195.9920, 94.92683
196.4741, 90.66479
196.9562, 87.35705
197.4384, 84.79479
197.9205, 82.37672
198.4026, 80.30636
198.8847, 78.11492
199.3668, 75.44675
199.8489, 72.73315
200.3311, 70.52415
200.8132, 69.11023
201.2953, 68.25671
201.7774, 67.05129
202.2595, 64.83458
202.7416, 62.98420
203.2238, 61.86305
203.7059, 61.13669
204.1880, 60.28534
204.6701, 59.02168
205.1522, 57.48886
205.6344, 56.34597
206.1165, 56.06929
206.5986, 55.57993
207.0807, 54.50604
207.5628, 53.06789
208.0449, 51.63348
208.5271, 50.35755
209.0092, 49.28076
209.4913, 48.61192
209.9734, 48.72606
210.4555, 48.71028
210.9376, 48.07588
211.4198, 47.03407
211.9019, 46.16407
212.3840, 45.77507
212.8661, 45.75462
213.3482, 45.74292
213.8303, 45.76013
214.3125, 45.75529
214.7946, 45.73067
215.2767, 45.67347
215.7588, 45.48887
216.2409, 45.01712
216.7230, 44.48229
217.2052, 44.29646
217.6873, 44.62075
218.1694, 44.96232
218.6515, 44.89179
219.1336, 44.42598
219.6157, 44.01170
220.0979, 43.76247
220.5800, 43.69780
221.0621, 43.86897
221.5442, 44.32888
222.0263, 44.83454
222.5084, 45.16149
222.9906, 45.30243
223.4727, 45.35554
223.9548, 45.21781
224.4369, 45.08177
224.9190, 45.09671
225.4011, 45.29360
225.8833, 45.58447
226.3654, 45.84144
226.8475, 46.02289
227.3296, 46.36950
227.8117, 47.12074
228.2938, 47.93303
228.7760, 48.57812
229.2581, 49.01525
229.7402, 49.37714
230.2223, 49.80359
230.7044, 50.24979
231.1866, 50.92189
231.6687, 52.06929
232.1508, 53.27014
232.6329, 54.19902
233.1150, 54.82768
233.5971, 55.43327
234.0793, 56.46049
234.5614, 58.20029
235.0435, 59.63708
235.5256, 60.54570
236.0077, 61.34399
236.4898, 62.23571
236.9720, 63.27608
237.4541, 64.45890
237.9362, 65.84589
238.4183, 67.76910
238.9004, 69.01320
239.3825, 69.01827
239.8647, 68.88517
240.3468, 69.35817
240.8289, 70.51162
241.3110, 71.88068
241.7931, 72.93172
242.2752, 73.64874
242.7574, 73.97525
243.2395, 73.74845
243.7216, 73.31838
244.2037, 72.82851
244.6858, 72.33387
245.1679, 71.89799
245.6501, 71.59293
246.1322, 71.44486
246.6143, 71.35979
247.0964, 71.37289
247.5785, 71.41483
248.0606, 71.48716
248.5428, 71.56815
249.0249, 71.56006
249.5070, 71.35303
249.9891, 70.90639
250.4712, 70.50647
250.9533, 70.29440
251.4355, 70.01851
251.9176, 69.49517
252.3997, 68.72424
252.8818, 67.83595
253.3639, 66.94308
253.8460, 66.03331
254.3282, 65.00807
254.8103, 63.72054
255.2924, 62.43559
255.7745, 61.39675
256.2566, 60.58482
256.7387, 59.73310
257.2209, 58.60148
257.7030, 57.26143
258.1851, 56.16364
258.6672, 55.36019
259.1493, 54.75906
259.6314, 54.40968
260.1136, 54.27589
260.5957, 54.04108
261.0778, 53.46339
261.5599, 52.65474
262.0420, 51.99096
262.5241, 51.51855
263.0063, 51.13904
263.4884, 50.91053
263.9705, 50.79083
264.4526, 50.36948
264.9347, 49.25808
265.4168, 47.84845
265.8990, 46.94211
266.3811, 46.75960
266.8632, 46.60465
267.3453, 45.90436
267.8275, 44.73357
268.3096, 43.67617
268.7917, 43.01612
269.2738, 42.50975
269.7559, 41.83196
270.2380, 40.95842
270.7202, 40.02195
271.2023, 39.06659
271.6844, 38.10777
272.1665, 37.23639
272.6486, 36.48243
273.1307, 35.83433
273.6129, 35.27821
274.0950, 34.80949
274.5771, 34.35228
275.0592, 33.80099
275.5413, 33.19195
276.0234, 32.76269
276.5056, 32.65281
276.9877, 32.59600
277.4698, 32.37625
277.9519, 32.01947
278.4340, 31.65577
278.9161, 31.35295
279.3983, 31.10529
279.8804, 30.87487
280.3625, 30.63221
280.8446, 30.45881
281.3267, 30.44767
281.8088, 30.53632
282.2910, 30.57733
282.7731, 30.47544
283.2552, 30.26571
283.7373, 30.05132
284.2194, 29.79834
284.7015, 29.60974
285.1837, 29.64152
285.6658, 29.73937
286.1479, 29.63685
286.6300, 29.11249
287.1121, 28.41495
287.5942, 28.16257
288.0764, 28.57366
288.5585, 28.91962
289.0406, 28.90520
289.5227, 28.70683
290.0048, 28.48621
290.4869, 28.29171
290.9691, 28.12183
291.4512, 27.97232
291.9333, 27.84274
292.4154, 27.73735
292.8975, 27.67831
293.3796, 27.63146
293.8618, 27.55791
294.3439, 27.44803
294.8260, 27.35739
295.3081, 27.39213
295.7902, 27.60177
296.2723, 27.70048
296.7545, 27.53838
297.2366, 27.32149
297.7187, 27.15658
298.2008, 27.05551
298.6829, 26.97151
299.1650, 26.84454
299.6472, 26.66301
300.1293, 26.54354
300.6114, 26.52744
301.0935, 26.54950
301.5756, 26.62562
302.0577, 26.72544
302.5399, 26.76533
303.0220, 26.63804
303.5041, 26.35629
303.9862, 26.21202
304.4683, 26.32983
304.9504, 26.44972
305.4326, 26.46127
305.9147, 26.40817
306.3968, 26.38610
306.8789, 26.47413
307.3610, 26.62564
307.8431, 26.62111
308.3253, 26.31647
308.8074, 26.08193
309.2895, 26.03913
309.7716, 26.10608
310.2537, 26.19602
310.7358, 26.27545
311.2180, 26.33710
311.7001, 26.37420
312.1822, 26.41920
312.6643, 26.35923
313.1464, 26.00289
313.6285, 25.64451
314.1107, 25.57860
314.5928, 25.87452
315.0749, 26.26439
315.5570, 26.33737
316.0392, 25.98463
316.5213, 25.71119
317.0034, 25.51270
317.4855, 25.44745
317.9676, 25.65378
318.4497, 26.08768
318.9319, 26.48798
319.4140, 26.54979
319.8961, 26.22857
320.3782, 26.01346
320.8603, 26.02759
321.3424, 26.03936
321.8246, 25.93736
322.3067, 25.75823
322.7888, 25.60183
323.2709, 25.53929
323.7530, 25.56288
324.2351, 25.62825
324.7173, 25.82617
325.1994, 25.93240
325.6815, 25.81626
326.1636, 25.59330
326.6457, 25.42969
327.1278, 25.41601
327.6100, 25.48438
328.0921, 25.45051
328.5742, 25.21598
329.0563, 25.09687
329.5384, 25.27849
330.0205, 25.53121
330.5027, 25.63327
330.9848, 25.52247
331.4669, 25.36087
331.9490, 25.41495
332.4311, 25.76877
332.9132, 25.96792
333.3954, 25.74175
333.8775, 25.49136
334.3596, 25.46733
334.8417, 25.66482
335.3238, 25.87436
335.8059, 25.88647
336.2881, 25.69819
336.7702, 25.54725
337.2523, 25.50341
337.7344, 25.42167
338.2165, 25.14164
338.6986, 24.77041
339.1808, 24.55683
339.6629, 24.69579
340.1450, 25.09851
340.6271, 25.44916
341.1092, 25.77726
341.5913, 25.98532
342.0735, 26.00161
342.5556, 25.90610
343.0377, 25.78763
343.5198, 25.67610
344.0019, 25.56314
344.4840, 25.40258
344.9662, 25.15067
345.4483, 25.03820
345.9304, 25.37757
346.4125, 25.74225
346.8946, 25.78483
347.3767, 25.45324
347.8589, 25.05150
348.3410, 24.86804
348.8231, 24.89712
349.3052, 24.93465
349.7873, 24.92134
350.2694, 24.95218
350.7516, 25.15244
351.2337, 25.47065
351.7158, 25.68832
352.1979, 25.59348
352.6800, 25.29216
353.1621, 25.15173
353.6443, 25.24485
354.1264, 25.34609
354.6085, 25.33224
355.0906, 25.23849
355.5727, 25.10350
356.0548, 24.90586
356.5370, 24.71353
357.0191, 24.58857
357.5012, 24.52377
357.9833, 24.62031
358.4654, 25.09294
358.9475, 25.64947
359.4297, 25.93870
359.9118, 25.90390
360.3939, 25.73359
360.8760, 25.48784
361.3581, 25.19881
361.8402, 25.05088
362.3224, 25.16553
362.8045, 25.30964
363.2866, 25.16142
363.7687, 24.76049
364.2508, 24.52823
364.7329, 24.83835
365.2151, 25.35700
365.6972, 25.45020
366.1793, 24.99603
366.6614, 24.53847
367.1436, 24.47829
367.6257, 24.74587
368.1078, 25.12516
368.5899, 25.89782
369.0720, 26.51943
369.5541, 26.38346
370.0363, 25.60446
370.5184, 24.93831
371.0005, 24.73410
371.4826, 24.87102
371.9647, 25.08133
372.4468, 25.43871
372.9290, 25.68003
373.4111, 25.63251
373.8932, 25.41228
374.3753, 25.23779
374.8574, 25.17215
375.3395, 25.11839
375.8217, 24.91929
376.3038, 24.54209
376.7859, 24.32940
377.2680, 24.39985
377.7501, 24.58926
378.2322, 24.83305
378.7144, 25.09589
379.1965, 25.21306
379.6786, 25.01457
380.1607, 24.54474
380.6428, 24.31585
381.1249, 24.51901
381.6071, 24.71528
382.0892, 24.71861
382.5713, 24.60987
383.0534, 24.55957
383.5355, 24.64540
384.0176, 24.79311
384.4998, 24.84162
384.9819, 24.71055
385.4640, 24.60574
385.9461, 24.49012
386.4282, 24.42827
386.9103, 24.53110
387.3925, 24.78488
387.8746, 25.01865
388.3567, 25.03451
388.8388, 24.78849
389.3209, 24.64293
389.8030, 24.70992
390.2852, 24.74543
390.7673, 24.62784
391.2494, 24.40921
391.7315, 24.20034
392.2136, 24.06549
392.6957, 23.99207
393.1779, 23.93450
393.6600, 23.89217
394.1421, 23.86930
394.6242, 23.85099
395.1063, 23.85882
395.5884, 23.91617
396.0706, 24.02720
396.5527, 24.17221
397.0348, 24.34331
397.5169, 24.56754
397.9990, 24.70527
398.4811, 24.71066
398.9633, 24.66645
399.4454, 24.52658
399.9275, 24.35801
400.4096, 24.32118
400.8917, 24.57483
401.3738, 25.02117
401.8560, 25.23231
402.3381, 25.12781
402.8202, 24.92939
403.3023, 24.61567
403.7844, 24.29593
404.2665, 24.08494
404.7487, 24.01847
405.2308, 24.03938
405.7129, 24.10833
406.1950, 24.23155
406.6771, 24.28901
407.1592, 24.17405
407.6414, 24.07722
408.1235, 24.17243
408.6056, 24.42511
409.0877, 24.63617
409.5698, 24.67229
410.0519, 24.58852
410.5341, 24.51010
411.0162, 24.44213
411.4983, 24.37155
411.9804, 24.29035
412.4625, 24.20119
412.9446, 24.09801
413.4268, 23.93418
413.9089, 23.83330
414.3910, 23.93253
414.8731, 24.19481
415.3553, 24.44682
415.8374, 24.64154
416.3195, 24.78918
416.8016, 24.91914
417.2837, 25.04410
417.7658, 25.06499
418.2480, 24.83492
418.7301, 24.55080
419.2122, 24.47972
419.6943, 24.63941
420.1764, 24.78856
420.6585, 24.73521
421.1407, 24.49272
421.6228, 24.27331
422.1049, 23.98480
422.5870, 23.81239
423.0691, 23.92462
423.5512, 24.18745
424.0334, 24.35120
424.5155, 24.31329
424.9976, 24.16876
425.4797, 24.08941
425.9618, 24.07786
426.4439, 24.14198
426.9261, 24.39078
427.4082, 24.62930
427.8903, 24.67229
428.3724, 24.55114
428.8545, 24.47759
429.3366, 24.65002
429.8188, 25.04871
430.3009, 25.21519
430.7830, 24.84492
431.2651, 24.56983
431.7472, 24.59707
432.2293, 24.73124
432.7115, 24.69972
433.1936, 24.40709
433.6757, 24.04483
434.1578, 23.93245
434.6399, 24.12430
435.1220, 24.37231
435.6042, 24.88807
436.0863, 25.25751
436.5684, 25.16801
437.0505, 24.72775
437.5326, 24.31616
438.0147, 24.19162
438.4969, 24.29547
438.9790, 24.44588
439.4611, 24.68868
439.9432, 24.86062
440.4253, 24.86161
440.9074, 24.77273
441.3896, 24.64969
441.8717, 24.49002
442.3538, 24.37622
442.8359, 24.43240
443.3180, 24.62124
443.8001, 24.71209
444.2823, 24.64332
444.7644, 24.49929
445.2465, 24.30342
445.7286, 24.07961
446.2107, 23.97509
446.6928, 24.08844
447.1750, 24.29926
447.6571, 24.56207
448.1392, 24.85013
448.6213, 24.93887
449.1034, 24.62958
449.5855, 24.11192
450.0677, 23.93964
450.5498, 24.26690
451.0319, 24.54158
451.5140, 24.54763
451.9961, 24.46106
452.4782, 24.54433
452.9604, 24.83154
453.4425, 25.07068
453.9246, 24.96572
454.4067, 24.45579
454.8888, 24.26085
455.3709, 24.70507
455.8531, 25.05544
456.3352, 24.97580
456.8173, 24.63623
457.2994, 24.31197
457.7815, 24.13016
458.2636, 24.08751
458.7458, 24.21258
459.2279, 24.71135
459.7100, 24.93734
460.1921, 24.69655
460.6742, 24.36429
461.1563, 24.08043
461.6385, 23.89468
462.1206, 23.87323
462.6027, 24.11768
463.0848, 24.55805
463.5669, 24.82031
464.0491, 24.82619
464.5312, 24.80613
465.0133, 24.84317
465.4954, 24.89178
465.9775, 24.91037
466.4597, 24.88984
466.9418, 24.83377
467.4239, 24.68429
467.9060, 24.47511
468.3881, 24.47993
468.8702, 24.87655
469.3524, 25.22184
469.8345, 24.98620
470.3166, 24.37627
470.7987, 23.99847
471.2808, 24.22671
471.7629, 24.57491
472.2451, 24.57895
472.7272, 24.30237
473.2093, 24.06069
473.6914, 23.97180
474.1735, 24.01127
474.6556, 24.17409
475.1378, 24.53305
475.6199, 24.75400
476.1020, 24.76088
476.5841, 24.62849
477.0662, 24.31316
477.5483, 23.87875
478.0305, 23.60514
478.5126, 23.73410
478.9947, 24.20736
479.4768, 24.50678
479.9589, 24.49005
480.4410, 24.47275
480.9232, 24.52225
481.4053, 24.57570
481.8874, 24.56769
482.3695, 24.48213
482.8516, 24.34191
483.3337, 24.13446
483.8159, 23.82574
484.2980, 23.74708
484.7801, 24.10153
485.2622, 24.46729
485.7443, 24.73808
486.2264, 24.91353
486.7086, 24.99647
487.1907, 24.97935
487.6728, 24.90219
488.1549, 24.81771
488.6370, 24.72620
489.1191, 24.61170
489.6013, 24.39941
490.0834, 24.24855
490.5655, 24.33083
491.0476, 24.61285
491.5297, 24.86351
492.0118, 25.02309
492.4940, 25.08335
492.9761, 24.98411
493.4582, 24.73532
493.9403, 24.52591
494.4224, 24.46131
494.9045, 24.48928
495.3867, 24.47733
495.8688, 24.40812
496.3509, 24.35007
496.8330, 24.32454
497.3151, 24.31448
497.7972, 24.29548
498.2794, 24.26819
498.7615, 24.26480
499.2436, 24.32180
499.7257, 24.43213
500.2078, 24.46989
500.6899, 24.33905
501.1721, 24.25161
501.6542, 24.25768
502.1363, 24.31583
502.6184, 24.38034
503.1005, 24.43911
503.5826, 24.51263
504.0648, 24.68390
504.5469, 24.99376
505.0290, 24.96261
505.5111, 24.12554
505.9932, 23.53121
506.4753, 23.85097
506.9575, 24.59761
507.4396, 24.95386
507.9217, 24.54707
508.4038, 23.90959
508.8859, 23.72541
509.3680, 23.96552
509.8502, 24.08761
510.3323, 23.89112
510.8144, 23.67831
511.2965, 23.79882
511.7786, 24.18921
512.2607, 24.52035
512.7429, 24.75414
513.2250, 24.86196
513.7071, 24.73525
514.1892, 24.43817
514.6713, 24.23742
515.1534, 24.25845
515.6356, 24.41597
516.1177, 24.54989
516.5998, 24.68046
517.0819, 24.73704
517.5640, 24.72278
518.0461, 24.63021
518.5283, 24.38288
519.0104, 24.04262
519.4925, 23.78302
519.9746, 23.71967
520.4567, 23.81786
520.9388, 23.96230
521.4210, 24.22892
521.9031, 24.39532
522.3852, 24.45043
522.8673, 24.40003
523.3494, 24.16093
523.8315, 23.78530
524.3137, 23.50994
524.7958, 23.58297
525.2779, 23.89230
525.7600, 24.01656
526.2421, 23.89023
526.7242, 23.82747
527.2064, 24.05664
527.6885, 24.37621
528.1706, 24.51661
528.6527, 24.42788
529.1348, 24.33523
529.6169, 24.42798
530.0991, 24.56455
530.5812, 24.43266
531.0633, 24.00160
531.5454, 23.69026
532.0275, 23.87481
532.5096, 24.44523
532.9918, 24.62612
533.4739, 24.13182
533.9560, 23.68182
534.4381, 23.36268
534.9202, 23.19224
535.4023, 23.27209
535.8845, 23.57401
536.3666, 23.84595
536.8487, 23.80636
537.3308, 23.45654
537.8129, 23.28100
538.2951, 23.32138
538.7772, 23.49973
539.2593, 23.97083
539.7415, 24.47328
540.2236, 24.69113
540.7057, 24.54979
541.1878, 24.32888
541.6699, 24.36577
542.1520, 24.60167
542.6342, 24.57586
543.1163, 24.13360
543.5984, 23.73174
544.0805, 23.74320
544.5626, 23.98560
545.0447, 24.12887
545.5269, 24.11206
546.0090, 24.02580
546.4911, 23.86800
546.9732, 23.68921
547.4553, 23.59196
547.9374, 23.59782
548.4196, 23.65627
548.9017, 23.71812
549.3838, 23.78268
549.8659, 23.89797
550.3480, 24.22714
550.8301, 24.40574
551.3123, 24.20944
551.7944, 23.86219
552.2765, 23.61641
552.7586, 23.54809
553.2407, 23.60999
553.7228, 23.79033
554.2050, 24.10511
554.6871, 24.23571
555.1692, 24.07503
555.6513, 23.87397
556.1334, 23.61308
556.6155, 23.41359
557.0977, 23.48996
557.5798, 23.93686
558.0619, 24.36801
558.5440, 24.36629
559.0261, 24.05009
559.5082, 23.87836
559.9904, 23.94146
560.4725, 24.01990
560.9546, 23.92188
561.4367, 23.69394
561.9188, 23.57918
562.4009, 23.60290
562.8831, 23.71135
563.3652, 24.00046
563.8473, 24.31567
564.3294, 24.40515
564.8115, 24.23330
565.2936, 24.01485
565.7758, 23.97726
566.2579, 24.12146
566.7400, 24.11904
567.2221, 23.75359
567.7042, 23.50089
568.1863, 23.49949
568.6685, 23.61522
569.1506, 23.73215
569.6327, 23.81668
570.1148, 23.86735
570.5969, 23.84338
571.0790, 23.76968
571.5612, 23.83919
572.0433, 24.13189
572.5254, 24.33916
573.0075, 24.20043
573.4896, 23.92407
573.9717, 23.84385
574.4539, 24.05223
574.9360, 24.21346
575.4181, 24.09735
575.9002, 23.87266
576.3823, 23.75569
576.8644, 23.77448
577.3466, 23.92028
577.8287, 24.22697
578.3108, 24.62524
578.7929, 24.77177
579.2750, 24.37613
579.7571, 24.10439
580.2393, 24.04154
580.7214, 24.07645
581.2035, 24.14997
581.6856, 24.23930
582.1677, 24.32607
582.6498, 24.40387
583.1320, 24.46021
583.6141, 24.43246
584.0962, 24.27997
584.5783, 24.18593
585.0604, 24.30324
585.5425, 24.41568
586.0247, 24.27803
586.5068, 23.91306
586.9889, 23.66677
587.4710, 23.78923
587.9531, 24.04268
588.4352, 24.13437
588.9174, 24.09011
589.3995, 24.12311
589.8816, 24.35441
590.3637, 24.61863
590.8458, 24.61091
591.3279, 24.17528
591.8101, 23.90732
592.2922, 23.93759
592.7743, 24.00296
593.2564, 23.93837
593.7385, 23.80889
594.2206, 23.74462
594.7028, 23.80442
595.1849, 23.98059
595.6670, 24.36157
596.1491, 25.03355
596.6312, 25.22536
597.1133, 24.43495
597.5955, 23.75181
598.0776, 23.92217
598.5597, 24.57080
599.0418, 24.97165
599.5239, 24.86441
600.0060, 24.63225
600.4882, 24.57571
600.9703, 24.62650
601.4524, 24.60461
601.9345, 24.47285
602.4166, 24.32969
602.8987, 24.24982
603.3809, 24.23406
603.8630, 24.30437
604.3451, 24.61405
604.8272, 24.80121
605.3093, 24.70448
605.7914, 24.51258
606.2736, 24.40113
606.7557, 24.39683
607.2378, 24.43204
607.7199, 24.45632
608.2020, 24.46906
608.6841, 24.46745
609.1663, 24.45153
609.6484, 24.42060
610.1305, 24.34108
610.6126, 24.27137
611.0947, 24.27781
611.5768, 24.35783
612.0590, 24.41689
612.5411, 24.40332
613.0232, 24.35682
613.5053, 24.28728
613.9874, 24.21547
614.4695, 24.25511
614.9517, 24.47570
615.4338, 24.73130
615.9159, 24.76809
616.3980, 24.47834
616.8801, 24.33918
617.3622, 24.46706
617.8444, 24.60253
618.3265, 24.68850
618.8086, 24.69230
619.2907, 24.51123
619.7728, 24.11478
620.2549, 23.76731
620.7371, 23.90583
621.2192, 24.50228
621.7013, 24.81242
622.1834, 24.70756
622.6655, 24.52688
623.1476, 24.46120
623.6298, 24.44480
624.1119, 24.35620
624.5940, 24.14050
625.0761, 23.98923
625.5582, 24.02371
626.0403, 24.15307
626.5225, 24.29040
627.0046, 24.41569
627.4867, 24.49451
627.9688, 24.50231
628.4509, 24.45593
628.9330, 24.40778
629.4152, 24.33879
629.8973, 24.30500
630.3794, 24.35032
630.8615, 24.38758
631.3436, 24.38471
631.8257, 24.33242
632.3079, 24.19568
632.7900, 23.91141
633.2721, 23.66075
633.7542, 23.74693
634.2363, 24.13235
634.7184, 24.48495
635.2006, 24.75484
635.6827, 24.94382
636.1648, 25.05959
636.6469, 25.08995
637.1291, 25.00171
637.6112, 24.62856
638.0933, 24.33877
638.5754, 24.30211
639.0576, 24.38459
639.5397, 24.46218
640.0218, 24.49988
640.5039, 24.46953
640.9860, 24.32003
641.4681, 24.11053
641.9503, 24.16619
642.4324, 24.64863
642.9145, 24.98977
643.3966, 24.93889
643.8787, 24.80859
644.3608, 24.85759
644.8430, 25.03626
645.3251, 25.05183
645.8072, 24.57694
646.2893, 24.07226
646.7714, 24.09525
647.2535, 24.48846
647.7357, 24.73790
648.2178, 24.69050
648.6999, 24.51515
649.1820, 24.38749
649.6641, 24.30805
650.1462, 24.26120
650.6284, 24.18068
651.1105, 24.21383
651.5926, 24.58183
652.0747, 24.96136
652.5568, 24.94075
653.0389, 24.52359
653.5211, 24.16327
654.0032, 24.29523
654.4853, 24.72393
654.9674, 24.87871
655.4495, 24.73372
655.9316, 24.60495
656.4138, 24.60942
656.8959, 24.66180
657.3780, 24.65145
657.8601, 24.58126
658.3422, 24.50875
658.8243, 24.41339
659.3065, 24.34673
659.7886, 24.29539
660.2707, 24.30490
660.7528, 24.51385
661.2349, 24.93364
661.7170, 25.30978
662.1992, 25.31983
662.6813, 24.98426
663.1634, 24.79631
663.6455, 24.80213
664.1276, 24.86277
664.6097, 24.98301
665.0919, 25.10702
665.5740, 25.21196
666.0561, 25.29064
666.5382, 25.26201
667.0203, 24.93939
667.5024, 24.60335
667.9846, 24.64176
668.4667, 24.93994
668.9488, 25.04568
669.4309, 24.78223
669.9130, 24.42697
670.3951, 24.34968
670.8773, 24.58220
671.3594, 24.83406
671.8415, 25.25422
672.3236, 25.51459
672.8057, 25.42048
673.2878, 25.20510
673.7700, 25.10506
674.2521, 25.15996
674.7342, 25.26118
675.2163, 25.32650
675.6984, 25.38229
676.1805, 25.49290
676.6627, 25.65642
677.1448, 25.79804
677.6269, 25.87515
678.1090, 25.95215
678.5911, 26.11133
679.0732, 26.35901
679.5554, 26.68671
680.0375, 27.17176
680.5196, 27.64725
681.0017, 27.96753
681.4838, 28.28100
681.9659, 28.77683
682.4481, 29.49270
682.9302, 30.32413
683.4123, 31.18758
683.8944, 32.08405
684.3765, 33.08738
684.8586, 34.23607
685.3408, 35.21398
685.8229, 35.79776
686.3050, 36.29134
686.7871, 37.10659
687.2692, 38.22793
687.7513, 39.32263
688.2335, 40.22772
688.7156, 41.21407
689.1977, 42.46309
689.6798, 43.86920
690.1619, 45.21413
690.6440, 46.47572
691.1262, 47.90311
691.6083, 49.72186
692.0904, 51.93005
692.5725, 54.52051
693.0546, 57.48329
693.5367, 60.82562
694.0189, 64.60458
694.5010, 68.74601
694.9831, 73.26340
695.4652, 78.09536
695.9473, 82.85057
696.4294, 87.89465
696.9116, 92.35542
697.3937, 95.61403
697.8758, 97.87919
698.3579, 99.57765
698.8400, 100.7897
699.3221, 101.2625
699.8043, 100.7795
700.2864, 99.32504
700.7685, 96.72945
701.2506, 92.68884
701.7327, 88.14817
702.2148, 83.02808
702.6970, 77.69482
703.1791, 72.21025
703.6612, 66.70721
704.1433, 61.46519
704.6254, 56.56337
705.1075, 52.06237
705.5897, 47.90738
706.0718, 44.23238
706.5539, 41.43434
707.0360, 39.55133
707.5181, 38.22145
708.0002, 37.17202
708.4824, 36.38812
708.9645, 35.80359
709.4466, 35.58485
709.9287, 35.24297
710.4108, 34.52563
710.8929, 33.87453
711.3751, 33.63913
711.8572, 33.66304
712.3393, 33.54322
712.8214, 33.13326
713.3035, 32.54544
713.7856, 31.83182
714.2678, 31.02456
714.7499, 30.14030
715.2320, 29.19686
715.7141, 28.30300
716.1962, 27.52154
716.6783, 26.87026
717.1605, 26.41553
717.6426, 26.25535
718.1247, 26.10733
718.6068, 26.03933
719.0889, 25.91245
719.5710, 25.56822
720.0532, 25.14951
720.5353, 24.91156
721.0174, 24.94358
721.4995, 25.04799
721.9816, 25.09466
722.4637, 25.09256
722.9459, 25.06042
723.4280, 24.99868
723.9101, 24.87844
724.3922, 24.66453
724.8743, 24.45243
725.3564, 24.43866
725.8386, 24.71572
726.3207, 24.85688
726.8028, 24.72488
727.2849, 24.62087
727.7670, 24.69202
728.2491, 24.81272
728.7313, 24.79833
729.2134, 24.62398
729.6955, 24.49215
730.1776, 24.58537
730.6597, 24.78614
731.1418, 24.92724
731.6240, 25.00857
732.1061, 25.06711
732.5882, 25.12416
733.0703, 25.08129
733.5524, 24.76216
734.0345, 24.13865
734.5167, 23.92112
734.9988, 24.52380
735.4809, 25.00170
735.9631, 25.16014
736.4452, 25.17953
736.9273, 25.18122
737.4094, 25.18606
737.8915, 25.20236
738.3737, 25.29455
738.8558, 25.31894
739.3379, 24.95965
739.8200, 24.40082
740.3021, 24.29467
740.7842, 24.76785
741.2664, 25.22009
741.7485, 25.14777
742.2306, 24.67559
742.7127, 24.42110
743.1948, 24.56701
743.6769, 24.59791
744.1591, 24.30264
744.6412, 24.07304
745.1233, 24.15657
745.6054, 24.45188
746.0875, 24.75323
746.5696, 25.01524
747.0518, 25.18526
747.5339, 25.15062
748.0160, 25.02549
748.4981, 25.00592
748.9802, 25.09721
749.4623, 25.22132
749.9445, 25.34774
750.4266, 25.43614
750.9087, 25.40510
751.3908, 25.22750
751.8729, 25.05590
752.3550, 24.82107
752.8372, 24.68631
753.3193, 24.78311
753.8014, 24.95223
754.2835, 24.99941
754.7656, 24.90638
755.2477, 24.85724
755.7299, 25.03754
756.2120, 25.21642
756.6941, 25.11480
757.1762, 24.84321
757.6583, 24.69104
758.1404, 24.73200
758.6226, 24.79843
759.1047, 24.70447
759.5868, 24.49704
760.0689, 24.54125
760.5510, 25.02127
761.0331, 25.25104
761.5153, 24.84531
761.9974, 24.41267
762.4795, 24.45922
762.9616, 24.83921
763.4437, 25.06946
763.9258, 24.96746
764.4080, 24.85317
764.8901, 24.92410
765.3722, 25.03569
765.8543, 24.97028
766.3364, 24.77299
766.8185, 24.70171
767.3007, 24.90452
767.7828, 25.19919
768.2649, 25.24333
768.7470, 25.02517
769.2291, 24.87703
769.7112, 24.84000
770.1934, 24.79086
770.6755, 24.62204
771.1576, 24.43827
771.6397, 24.42887
772.1218, 24.61612
772.6039, 24.79639
773.0861, 24.96160
773.5682, 25.08618
774.0503, 25.13633
774.5324, 25.14716
775.0145, 25.17817
775.4966, 25.23423
775.9788, 25.24872
776.4609, 25.13001
776.9430, 24.96598
777.4251, 25.03384
777.9072, 25.32339
778.3893, 25.37650
778.8715, 25.02655
779.3536, 24.64506
779.8357, 24.54145
780.3178, 24.68917
780.7999, 24.90682
781.2820, 25.41197
781.7642, 25.67153
782.2463, 25.44429
782.7284, 25.16695
783.2105, 25.12358
783.6926, 25.23993
784.1747, 25.33344
784.6569, 25.34534
785.1390, 25.28142
785.6211, 25.07260
786.1032, 24.82002
786.5853, 24.71590
787.0674, 24.76459
787.5496, 24.93331
788.0317, 25.22149
788.5138, 25.51048
788.9959, 25.61643
789.4780, 25.52107
789.9601, 25.50751
790.4423, 25.63827
790.9244, 25.75098
791.4065, 25.85736
791.8886, 25.89345
792.3707, 25.73138
792.8528, 25.42485
793.3350, 25.27196
793.8171, 25.50708
794.2992, 25.73612
794.7813, 25.71776
795.2634, 25.54343
795.7455, 25.24293
796.2277, 24.89316
796.7098, 24.77044
797.1919, 25.06320
797.6740, 25.52376
798.1561, 25.65589
798.6382, 25.44648
799.1204, 25.25632
799.6025, 25.10853
800.0846, 24.96142
800.5667, 24.74626
801.0488, 24.55129
801.5309, 24.57867
802.0131, 24.87479
802.4952, 25.05836
802.9773, 24.94339
803.4594, 24.88544
803.9415, 25.13034
804.4236, 25.46313
804.9058, 25.62001
805.3879, 25.57106
805.8700, 25.44866
806.3521, 25.28510
806.8342, 25.17806
807.3163, 25.41507
807.7985, 25.86261
808.2806, 25.84897
808.7627, 25.24380
809.2448, 24.74175
809.7269, 24.86542
810.2090, 25.40682
810.6912, 25.72263
811.1733, 25.71012
811.6554, 25.72018
812.1375, 25.81330
812.6196, 25.85891
813.1017, 25.75518
813.5839, 25.60144
814.0660, 25.53240
814.5481, 25.56780
815.0302, 25.62236
815.5123, 25.64828
815.9944, 25.69046
816.4766, 25.79099
816.9587, 25.93185
817.4408, 26.12680
817.9229, 26.34920
818.4050, 26.42789
818.8871, 26.18109
819.3693, 25.76290
819.8514, 25.60876
820.3335, 25.73173
820.8156, 25.81708
821.2977, 25.81629
821.7798, 25.76684
822.2620, 25.64818
822.7441, 25.52005
823.2262, 25.58275
823.7083, 26.04465
824.1904, 26.21110
824.6725, 25.80006
825.1547, 25.38185
825.6368, 25.16876
826.1189, 25.12726
826.6010, 25.25924
827.0831, 25.53588
827.5652, 25.72030
828.0474, 25.51831
828.5295, 25.25359
829.0116, 25.39985
829.4937, 25.78716
829.9758, 25.94937
830.4579, 25.80047
830.9401, 25.60993
831.4222, 25.58763
831.9043, 25.67228
832.3864, 25.68277
832.8685, 25.61050
833.3506, 25.49012
833.8328, 25.24406
834.3149, 25.10321
834.7971, 25.28019
835.2792, 25.60244
835.7613, 25.76503
836.2434, 25.75246
836.7255, 25.66395
837.2076, 25.34614
837.6898, 25.14522
838.1719, 25.37897
838.6540, 25.73781
839.1361, 25.77429
839.6182, 25.48913
840.1003, 25.31860
840.5825, 25.60721
841.0646, 26.03409
841.5467, 26.15426
842.0288, 26.04686
842.5109, 25.91197
842.9930, 25.78956
843.4752, 25.86134
843.9573, 26.28331
844.4394, 26.78436
844.9215, 26.71446
845.4036, 25.88238
845.8857, 25.47155
846.3679, 25.71463
846.8500, 25.96546
847.3321, 26.01259
847.8142, 25.93809
848.2963, 25.73160
848.7784, 25.41701
849.2606, 25.39545
849.7427, 26.04871
850.2248, 26.62725
850.7069, 26.83681
851.1890, 26.82955
851.6711, 26.67337
852.1533, 26.44919
852.6354, 26.31647
853.1175, 26.35778
853.5996, 26.47385
854.0817, 26.61048
854.5638, 26.72140
855.0460, 26.65089
855.5281, 26.40788
856.0102, 26.14012
856.4923, 25.89346
856.9744, 25.76758
857.4565, 25.93068
857.9387, 26.36496
858.4208, 26.54496
858.9029, 26.38239
859.3850, 26.17059
859.8671, 25.85651
860.3492, 25.62915
860.8314, 25.71505
861.3135, 25.98849
861.7956, 26.10284
862.2777, 25.97286
862.7598, 25.80703
863.2419, 25.54757
863.7241, 25.37923
864.2062, 25.52139
864.6883, 25.80759
865.1704, 25.93998
865.6525, 25.85308
866.1346, 25.74979
866.6168, 25.84044
867.0989, 25.96943
867.5810, 25.84614
868.0631, 25.54815
868.5452, 25.33035
869.0273, 25.24487
869.5095, 25.26206
869.9916, 25.37069
870.4737, 25.53292
870.9558, 25.65578
871.4379, 25.74015
871.9200, 25.77568
872.4022, 25.73698
872.8843, 25.70820
873.3664, 25.77020
873.8485, 25.82842
874.3306, 25.65952
874.8127, 25.24109
875.2949, 25.15532
875.7770, 25.86893
876.2591, 26.36280
876.7412, 26.16937
877.2233, 25.77536
877.7054, 25.57839
878.1876, 25.56757
878.6697, 25.56872
879.1518, 25.51521
879.6339, 25.45662
880.1160, 25.38638
880.5981, 25.36376
881.0803, 25.59405
881.5624, 25.95260
882.0445, 25.95722
882.5266, 25.46693
883.0087, 24.93040
883.4908, 24.82751
883.9730, 25.05161
884.4551, 25.18097
884.9372, 25.20709
885.4193, 25.29351
885.9014, 25.49712
886.3835, 25.66206
886.8657, 25.65938
887.3478, 25.55628
887.8299, 25.54434
888.3120, 25.69074
888.7941, 25.74810
889.2762, 25.58632
889.7584, 25.49496
890.2405, 25.73590
890.7226, 25.96970
891.2047, 25.75951
891.6868, 25.14560
892.1689, 24.68247
892.6511, 24.58725
893.1332, 24.62890
893.6153, 24.75208
894.0974, 24.90837
894.5795, 25.08711
895.0616, 25.24879
895.5438, 25.28978
896.0259, 25.16809
896.5080, 25.01984
896.9901, 24.99121
897.4722, 25.04397
897.9543, 25.12190
898.4365, 25.20744
898.9186, 25.19473
899.4007, 25.05346
899.8828, 24.88830
900.3649, 24.78139
900.8470, 24.73803
901.3292, 24.79528
901.8113, 24.98587
902.2934, 25.11821
902.7755, 25.18976
903.2576, 25.16953
903.7397, 24.96275
904.2219, 24.71576
904.7040, 24.68833
905.1861, 24.91945
905.6682, 25.07808
906.1503, 25.15056
906.6324, 25.16230
907.1146, 25.06925
907.5967, 24.96092
908.0788, 24.86709
908.5609, 24.82290
909.0430, 24.95129
909.5251, 25.38370
910.0073, 25.61402
910.4894, 25.13126
910.9715, 24.48620
911.4536, 24.20262
911.9357, 24.20221
912.4178, 24.26035
912.9000, 24.31628
913.3821, 24.44994
913.8642, 24.78634
914.3463, 25.14000
914.8284, 25.09805
915.3105, 24.75364
915.7927, 24.50775
916.2748, 24.41770
916.7569, 24.49746
917.2390, 24.79251
917.7211, 25.05918
918.2032, 24.81839
918.6854, 24.03704
919.1675, 23.71518
919.6496, 23.98449
920.1317, 24.32707
920.6138, 24.70639
921.0959, 24.97544
921.5781, 24.92812
922.0602, 24.65478
922.5423, 24.60946
923.0244, 25.01158
923.5065, 25.22246
923.9886, 25.13524
924.4708, 24.94545
924.9529, 24.62008
925.4350, 24.30951
925.9171, 24.23669
926.3992, 24.40274
926.8813, 24.51972
927.3635, 24.40837
927.8456, 24.29779
928.3277, 24.41074
928.8098, 24.52816
929.2919, 24.29002
929.7740, 23.84133
930.2562, 23.67366
930.7383, 23.98704
931.2204, 24.36230
931.7025, 24.35224
932.1846, 24.14190
932.6667, 24.06207
933.1489, 24.08932
933.6310, 24.14216
934.1132, 24.19427
934.5953, 24.16769
935.0774, 23.98499
935.5595, 23.76249
936.0416, 23.82256
936.5237, 24.16882
937.0059, 24.32859
937.4880, 24.25725
937.9701, 24.11109
938.4522, 23.89146
938.9343, 23.77526
939.4164, 24.03041
939.8986, 24.62076
940.3807, 24.89202
940.8628, 24.60795
941.3449, 24.47205
941.8270, 24.69266
942.3091, 24.90506
942.7913, 24.89231
943.2734, 24.76056
943.7555, 24.67766
944.2376, 24.65947
944.7197, 24.62723
945.2018, 24.52116
945.6840, 24.45819
946.1661, 24.46478
946.6482, 24.54722
947.1303, 24.80221
947.6124, 25.13179
948.0945, 25.24032
948.5767, 24.97763
949.0588, 24.74804
949.5409, 24.99669
950.0230, 25.22877
950.5051, 24.74353
950.9872, 23.94156
951.4694, 23.65090
951.9515, 23.98305
952.4336, 24.43469
952.9157, 24.69610
953.3978, 24.79682
953.8799, 24.74077
954.3621, 24.56660
954.8442, 24.32807
955.3263, 24.05769
955.8084, 23.93506
956.2905, 24.03168
956.7726, 24.15117
957.2548, 24.04105
957.7369, 23.79021
958.2190, 23.84465
958.7011, 24.22747
959.1832, 24.39300
959.6653, 24.20518
960.1475, 24.10333
960.6296, 24.39426
961.1117, 24.82346
961.5938, 24.91313
962.0759, 24.62513
962.5580, 24.35740
963.0402, 24.05237
963.5223, 23.90065
964.0044, 24.08516
964.4865, 24.26195
964.9686, 24.05261
965.4507, 23.63975
965.9329, 23.62866
966.4150, 24.26230
966.8971, 24.63842
967.3792, 24.53902
967.8613, 24.36630
968.3434, 24.17949
968.8256, 24.05340
969.3077, 24.08212
969.7898, 24.24118
970.2719, 24.39178
970.7540, 24.46026
971.2361, 24.59577
971.7183, 25.03074
972.2004, 25.39326
972.6825, 25.28045
973.1646, 24.94176
973.6467, 24.80062
974.1288, 24.92678
974.6110, 25.08104
975.0931, 25.09310
975.5752, 25.12866
976.0573, 25.45031
976.5394, 25.83111
977.0215, 25.91617
977.5037, 25.74021
977.9858, 25.52511
978.4679, 25.35010
978.9500, 25.11881
979.4321, 24.63141
979.9142, 24.12889
980.3964, 24.19329
980.8785, 24.66634
981.3606, 24.99254
981.8427, 25.09214
982.3248, 25.07725
982.8069, 25.00126
983.2891, 24.94228
983.7712, 25.04878
984.2533, 25.28101
984.7354, 25.30775
985.2175, 25.11984
985.6996, 25.08995
986.1818, 25.33084
986.6639, 25.50912
987.1460, 25.36970
987.6281, 25.05673
988.1102, 24.88707
988.5923, 24.86693
989.0745, 24.98217
989.5566, 25.36411
990.0387, 25.46712
990.5208, 25.00092
991.0029, 24.45065
991.4850, 24.22435
991.9672, 24.26378
992.4493, 24.34949
992.9314, 24.50584
993.4135, 24.65136
993.8956, 24.86883
994.3777, 24.96234
994.8599, 24.80563
995.3420, 24.54908
995.8241, 24.24345
996.3062, 23.93803
996.7883, 23.89698
997.2704, 24.38164
997.7526, 24.70037
998.2347, 24.58938
998.7168, 24.48587
999.1989, 24.67171
999.6810, 24.94867
1000.163, 25.08645
1000.645, 25.06265
1001.127, 24.92452
1001.609, 24.55599
1002.092, 24.28640
1002.574, 24.31456
1003.056, 24.42731
1003.538, 24.45812
1004.020, 24.45505
1004.502, 24.55742
1004.984, 24.76873
1005.466, 24.87318
1005.949, 24.65837
1006.431, 24.43855
1006.913, 24.53018
1007.395, 24.68073
1007.877, 24.50661
1008.359, 24.14946
1008.841, 24.05151
1009.323, 24.32277
1009.805, 24.58575
1010.288, 24.49164
1010.770, 24.30506
1011.252, 24.38616
1011.734, 24.58782
1012.216, 24.63174
1012.698, 24.52445
1013.180, 24.41613
1013.662, 24.37039
1014.145, 24.36644
1014.627, 24.39092
1015.109, 24.43613
1015.591, 24.51069
1016.073, 24.59090
1016.555, 24.58400
1017.037, 24.48955
1017.519, 24.39032
1018.001, 24.32751
1018.484, 24.30643
1018.966, 24.37157
1019.448, 24.46783
1019.930, 24.31822
1020.412, 23.97016
1020.894, 23.90885
1021.376, 24.21259
1021.858, 24.46920
1022.341, 24.43553
1022.823, 24.27493
1023.305, 24.24155
1023.787, 24.32339
1024.269, 24.41053
1024.751, 24.50531
1025.233, 24.56816
1025.715, 24.59137
1026.198, 24.57530
1026.680, 24.50789
1027.162, 24.43967
1027.644, 24.48563
1028.126, 24.65125
1028.608, 24.66771
1029.090, 24.49752
1029.572, 24.34779
1030.054, 24.24088
1030.536, 24.24001
1031.019, 24.43540
1031.501, 24.70054
1031.983, 24.75998
1032.465, 24.58883
1032.947, 24.37607
1033.429, 24.01980
1033.911, 23.90743
1034.393, 24.25818
1034.876, 24.62618
1035.358, 24.64753
1035.840, 24.49605
1036.322, 24.62846
1036.804, 25.18944
1037.286, 25.31464
1037.768, 24.60947
1038.250, 24.18287
1038.733, 24.38272
1039.215, 24.79873
1039.697, 25.29298
1040.179, 25.74016
1040.661, 25.76675
1041.143, 25.17707
1041.625, 24.89479
1042.107, 25.17689
1042.589, 25.41362
1043.072, 25.52304
1043.554, 25.51594
1044.036, 25.26402
1044.518, 24.92633
1045.000, 24.89613
1045.482, 25.25013
1045.964, 25.65190
1046.446, 26.17254
1046.928, 26.61244
1047.411, 26.90991
1047.893, 27.11948
1048.375, 27.24511
1048.857, 27.32363
1049.339, 27.41117
1049.821, 27.48315
1050.303, 27.72086
1050.785, 28.42494
1051.268, 28.93830
1051.750, 28.90833
1052.232, 28.73823
1052.714, 28.76379
1053.196, 28.89546
1053.678, 28.85110
1054.160, 28.53958
1054.642, 28.40930
1055.125, 28.45817
1055.607, 28.84300
1056.089, 29.88264
1056.571, 31.04576
1057.053, 31.66637
1057.535, 32.13543
1058.017, 33.33135
1058.499, 35.43299
1058.981, 37.97602
1059.464, 40.48749
1059.946, 43.82184
1060.428, 48.32050
1060.910, 53.80989
1061.392, 60.23488
1061.874, 67.51799
1062.356, 75.81643
1062.838, 85.21491
1063.320, 94.34585
1063.803, 103.0170
1064.285, 110.9444
1064.767, 117.8744
1065.249, 124.0792
1065.731, 128.7946
1066.213, 133.2792
1066.695, 139.5372
1067.177, 147.9746
1067.660, 158.7276
1068.142, 172.5272
1068.624, 187.7612
1069.106, 203.0538
1069.588, 219.9319
1070.070, 239.3002
1070.552, 261.4126
1071.034, 286.2162
1071.516, 313.7756
1071.999, 346.2177
1072.481, 385.4317
1072.963, 428.3971
1073.445, 481.5956
1073.927, 530.7563
1074.409, 572.2040
1074.891, 597.5457
1075.373, 594.7461
1075.855, 562.3529
1076.338, 508.3557
1076.820, 423.5363
1077.302, 337.8260
1077.784, 259.0486
1078.266, 191.9122
1078.748, 141.0769
1079.230, 103.8664
1079.712, 78.63725
1080.195, 63.67044
1080.677, 53.37737
1081.159, 46.95995
1081.641, 42.20344
1082.123, 38.57149
1082.605, 35.78846
1083.087, 33.89931
1083.569, 32.60962
1084.052, 31.74946
1084.534, 31.14842
1085.016, 30.27461
1085.498, 28.75675
1085.980, 27.52017
1086.462, 27.15328
1086.944, 26.99247
1087.426, 26.63970
1087.908, 26.22202
1088.391, 25.84746
1088.873, 25.57815
1089.355, 25.61536
1089.837, 26.15917
1090.319, 26.37582
1090.801, 25.56951
1091.283, 24.77610
1091.765, 24.59814
1092.248, 24.70104
1092.730, 24.76628
1093.212, 24.78588
1093.694, 24.86842
1094.176, 25.05565
1094.658, 25.16264
1095.140, 25.11531
1095.622, 24.98390
1096.104, 24.72171
1096.587, 24.45830
1097.069, 24.26141
1097.551, 24.16286
1098.033, 24.26042
1098.515, 24.58174
1098.997, 24.74782
1099.479, 24.47361
1099.961, 24.26879
1100.443, 24.35546
1100.926, 24.51987
1101.408, 24.66661
1101.890, 24.76035
1102.372, 24.75525
1102.854, 24.64983
1103.336, 24.50780
1103.818, 24.32112
1104.300, 24.13220
1104.783, 23.87919
1105.265, 23.70652
1105.747, 23.72967
1106.229, 23.85256
1106.711, 23.98862
1107.193, 24.11785
1107.675, 24.16390
1108.157, 24.08885
1108.640, 23.98519
1109.122, 23.79805
1109.604, 23.66641
1110.086, 23.69759
1110.568, 23.76511
1111.050, 23.71539
1111.532, 23.59562
1112.014, 23.61873
1112.496, 23.92804
1112.979, 24.01116
1113.461, 23.58126
1113.943, 23.28872
1114.425, 23.39393
1114.907, 23.57940
1115.389, 23.61117
1115.871, 23.56670
1116.353, 23.64187
1116.835, 23.88311
1117.318, 23.95925
1117.800, 23.67815
1118.282, 23.60139
1118.764, 24.03528
1119.246, 24.34043
1119.728, 24.04950
1120.210, 23.53649
1120.692, 23.39125
1121.175, 23.60382
1121.657, 23.67258
1122.139, 23.51863
1122.621, 23.43204
1123.103, 23.40843
1123.585, 23.54214
1124.067, 23.96567
1124.549, 24.38631
1125.031, 24.48051
1125.514, 24.29086
1125.996, 23.95716
1126.478, 23.37729
1126.960, 23.27637
1127.442, 23.81438
1127.924, 24.17572
1128.406, 24.08825
1128.888, 23.86607
1129.370, 23.75004
1129.853, 23.69293
1130.335, 23.55695
1130.817, 23.34242
1131.299, 23.39123
1131.781, 23.72359
1132.263, 23.86923
1132.745, 23.72616
1133.227, 23.52935
1133.710, 23.40800
1134.192, 23.35358
1134.674, 23.37311
1135.156, 23.43830
1135.638, 23.40487
1136.120, 23.29541
1136.602, 23.30664
1137.084, 23.44752
1137.567, 23.57439
1138.049, 23.62831
1138.531, 23.55991
1139.013, 23.27724
1139.495, 22.95366
1139.977, 22.92691
1140.459, 23.13630
1140.941, 23.54636
1141.423, 24.03098
1141.906, 24.07607
1142.388, 23.62826
1142.870, 23.26674
1143.352, 23.36677
1143.834, 23.59582
1144.316, 23.54595
1144.798, 23.38451
1145.280, 23.39731
1145.762, 23.48287
1146.245, 23.32781
1146.727, 23.02143
1147.209, 23.08746
1147.691, 23.72305
1148.173, 24.22657
1148.655, 23.90465
1149.137, 23.40773
1149.619, 23.25434
1150.102, 23.28215
1150.584, 23.40780
1151.066, 23.52534
1151.548, 23.40357
1152.030, 23.04809
1152.512, 22.87201
1152.994, 23.18653
1153.476, 23.44438
1153.958, 23.21654
1154.441, 23.02083
1154.923, 23.40606
1155.405, 23.88022
1155.887, 23.74202
1156.369, 23.12776
1156.851, 22.73883
1157.333, 22.73128
1157.815, 22.85436
1158.297, 23.19440
1158.780, 23.46710
1159.262, 23.52550
1159.744, 23.54248
1160.226, 23.65843
1160.708, 23.81339
1161.190, 23.88811
1161.672, 23.87615
1162.154, 23.85386
1162.637, 23.82297
1163.119, 23.77547
1163.601, 23.67862
1164.083, 23.62109
1164.565, 23.64170
1165.047, 23.71793
1165.529, 23.85687
1166.011, 24.01666
1166.494, 24.02140
1166.976, 23.84608
1167.458, 23.61101
1167.940, 23.27002
1168.422, 23.11889
1168.904, 23.25522
1169.386, 23.45371
1169.868, 23.57248
1170.350, 23.63685
1170.833, 23.68805
1171.315, 23.72167
1171.797, 23.71288
1172.279, 23.66131
1172.761, 23.50522
1173.243, 23.26140
1173.725, 23.27405
1174.207, 23.66641
1174.689, 24.03217
1175.172, 23.99248
1175.654, 23.73862
1176.136, 23.51327
1176.618, 23.36367
1177.100, 23.47819
1177.582, 23.75040
1178.064, 23.89178
1178.546, 23.84897
1179.029, 23.66599
1179.511, 23.34936
1179.993, 23.15060
1180.475, 23.39977
1180.957, 23.74886
1181.439, 23.91684
1181.921, 23.93394
1182.403, 23.72982
1182.885, 23.45341
1183.368, 23.43513
1183.850, 23.71700
1184.332, 23.93825
1184.814, 23.96642
1185.296, 23.87923
1185.778, 23.60082
1186.260, 23.33917
1186.742, 23.27525
1187.225, 23.25177
1187.707, 23.02437
1188.189, 22.68322
1188.671, 22.59906
1189.153, 22.90158
1189.635, 23.08785
1190.117, 22.96987
1190.599, 22.97750
1191.082, 23.26767
1191.564, 23.56901
1192.046, 23.75944
1192.528, 23.85672
1193.010, 23.88241
1193.492, 23.83648
1193.974, 23.70564
1194.456, 23.46407
1194.938, 23.26398
1195.421, 23.10166
1195.903, 23.06861
1196.385, 23.21289
1196.867, 23.34032
1197.349, 23.29947
1197.831, 23.18341
1198.313, 23.14720
1198.795, 23.18740
1199.277, 23.33899
1199.760, 23.56022
1200.242, 23.62304
1200.724, 23.51181
1201.206, 23.29129
1201.688, 23.00434
1202.170, 22.83712
1202.652, 22.97303
1203.134, 23.22736
1203.617, 23.47953
1204.099, 23.61688
1204.581, 23.32872
1205.063, 22.87211
1205.545, 22.74692
1206.027, 22.95044
1206.509, 23.17024
1206.991, 23.30202
1207.474, 23.34596
1207.956, 23.27140
1208.438, 23.14898
1208.920, 22.87915
1209.402, 22.71230
1209.884, 22.96095
1210.366, 23.37861
1210.848, 23.58703
1211.330, 23.57248
1211.813, 23.52659
1212.295, 23.40356
1212.777, 23.38443
1213.259, 23.57757
1213.741, 23.70543
1214.223, 23.70820
1214.705, 23.60602
1215.187, 23.37847
1215.669, 23.09403
1216.152, 22.86087
1216.634, 22.68593
1217.116, 22.71698
1217.598, 22.96777
1218.080, 23.29089
1218.562, 23.68431
1219.044, 23.88024
1219.526, 23.78240
1220.009, 23.57498
1220.491, 23.39079
1220.973, 23.27117
1221.455, 23.32517
1221.937, 23.48333
1222.419, 23.60034
1222.901, 23.66038
1223.383, 23.60563
1223.865, 23.45863
1224.348, 23.32456
1224.830, 23.23657
1225.312, 23.11458
1225.794, 22.79551
1226.276, 22.62948
1226.758, 23.08131
1227.240, 23.60215
1227.722, 23.70215
1228.204, 23.56833
1228.687, 23.40245
1229.169, 23.27090
1229.651, 23.29016
1230.133, 23.52267
1230.615, 23.65957
1231.097, 23.50992
1231.579, 23.46379
1232.061, 23.77772
1232.544, 23.97377
1233.026, 23.73067
1233.508, 23.39152
1233.990, 23.37069
1234.472, 23.56545
1234.954, 23.52846
1235.436, 23.21188
1235.918, 22.97499
1236.401, 22.81061
1236.883, 22.84562
1237.365, 23.11843
1237.847, 23.27392
1238.329, 23.11531
1238.811, 22.93133
1239.293, 23.07691
1239.775, 23.38331
1240.257, 23.54471
1240.740, 23.57247
1241.222, 23.45089
1241.704, 23.23149
1242.186, 22.98352
1242.668, 22.76847
1243.150, 22.77981
1243.632, 23.12280
1244.114, 23.40383
1244.596, 23.26579
1245.079, 23.10350
1245.561, 23.18049
1246.043, 23.32674
1246.525, 23.42148
1247.007, 23.47113
1247.489, 23.51544
1247.971, 23.54656
1248.453, 23.49205
1248.936, 23.31096
1249.418, 23.11715
1249.900, 22.78690
1250.382, 22.70220
1250.864, 23.05409
1251.346, 23.42423
1251.828, 23.59425
1252.310, 23.61762
1252.792, 23.53415
1253.275, 23.39885
1253.757, 23.54037
1254.239, 23.90326
1254.721, 23.61256
1255.203, 22.75690
1255.685, 22.47948
1256.167, 22.95626
1256.649, 23.33110
1257.131, 23.15734
1257.614, 22.93619
1258.096, 23.28629
1258.578, 23.69741
1259.060, 23.39882
1259.542, 22.95880
1260.024, 23.24589
1260.506, 23.83101
1260.988, 23.80841
1261.471, 23.23487
1261.953, 22.94205
1262.435, 23.22007
1262.917, 23.44142
1263.399, 23.42753
1263.881, 23.36900
1264.363, 23.27258
1264.845, 23.19496
1265.328, 23.13900
1265.810, 23.15210
1266.292, 23.34736
1266.774, 23.62646
1267.256, 23.54344
1267.738, 23.04006
1268.220, 22.79778
1268.702, 22.82340
1269.184, 22.91772
1269.667, 23.04446
1270.149, 23.27204
1270.631, 23.63010
1271.113, 23.87016
1271.595, 23.70298
1272.077, 23.42402
1272.559, 23.51194
1273.041, 23.74299
1273.523, 23.81476
1274.006, 23.75889
1274.488, 23.60026
1274.970, 23.41061
1275.452, 23.37665
1275.934, 23.54850
1276.416, 23.65502
1276.898, 23.58768
1277.380, 23.45308
1277.863, 23.16037
1278.345, 22.95523
1278.827, 23.00418
1279.309, 23.14430
1279.791, 23.27009
1280.273, 23.37390
1280.755, 23.42113
1281.237, 23.41388
1281.719, 23.57533
1282.202, 23.93073
1282.684, 24.05056
1283.166, 23.89504
1283.648, 23.70414
1284.130, 23.55719
1284.612, 23.48889
1285.094, 23.53165
1285.576, 23.57507
1286.059, 23.37288
1286.541, 23.18080
1287.023, 23.29391
1287.505, 23.72090
##END=



