##NAMES=Struvite
##RRUFFID=R050511
##IDEAL CHEMISTRY=(N^3-^H_4_)MgPO_4_&#183;6H_2_O
##LOCALITY=Hamburg, Germany
##OWNER=RRUFF
##SOURCE=American Museum of Natural History
##DESCRIPTION=Colorless with a brown tint, cleavage fragment
##STATUS=The identification of this mineral has been confirmed by X-ray diffraction and chemical analysis
##URL=rruff.info/R050511
##MEASURED CHEMISTRY=(NH_4_)(Mg_0.85_Fe^2+^_0.12_Mn_0.02_Ca_0.01_)_Σ=1_(P_1.00_O_4_)·6H_2_O ; NH_4_ not measured but assumed by charge balance
155.2712, 42183.76
155.7533, 42325.31
156.2354, 42538.73
156.7175, 42733.73
157.1996, 42861.14
157.6817, 42981.22
158.1639, 43139.16
158.6460, 43376.73
159.1281, 43620.90
159.6102, 43837.43
160.0923, 44022.17
160.5744, 44233.91
161.0566, 44547.02
161.5387, 44876.62
162.0208, 45128.74
162.5029, 45192.84
162.9850, 45228.46
163.4671, 45317.87
163.9493, 45473.71
164.4314, 45629.93
164.9135, 45762.25
165.3956, 45873.84
165.8777, 45969.91
166.3598, 46040.36
166.8420, 46106.05
167.3241, 46182.20
167.8062, 46273.38
168.2883, 46374.54
168.7704, 46487.36
169.2525, 46610.67
169.7346, 46740.24
170.2168, 46870.11
170.6989, 47007.13
171.1810, 47156.87
171.6631, 47320.30
172.1452, 47499.21
172.6273, 47703.16
173.1095, 47926.73
173.5916, 48155.76
174.0737, 48378.38
174.5558, 48601.55
175.0379, 48832.70
175.5201, 49077.95
176.0022, 49329.49
176.4843, 49581.94
176.9664, 49832.41
177.4485, 50069.45
177.9306, 50274.64
178.4128, 50458.14
178.8949, 50647.63
179.3770, 50864.00
179.8591, 51083.27
180.3412, 51269.73
180.8233, 51424.80
181.3055, 51555.00
181.7876, 51672.44
182.2697, 51771.97
182.7518, 51840.64
183.2339, 51869.25
183.7160, 51863.23
184.1982, 51828.68
184.6803, 51763.14
185.1624, 51685.36
185.6445, 51627.62
186.1266, 51582.16
186.6087, 51500.12
187.0908, 51336.44
187.5730, 51113.37
188.0551, 50925.80
188.5372, 50776.61
189.0193, 50647.97
189.5014, 50516.04
189.9835, 50380.00
190.4657, 50243.55
190.9478, 50107.68
191.4299, 49972.10
191.9120, 49841.58
192.3941, 49716.86
192.8762, 49597.55
193.3584, 49480.89
193.8405, 49367.44
194.3226, 49264.13
194.8047, 49179.37
195.2868, 49112.88
195.7689, 49047.69
196.2511, 48981.48
196.7332, 48917.66
197.2153, 48855.63
197.6974, 48791.36
198.1795, 48758.26
198.6616, 48797.30
199.1438, 48914.55
199.6259, 48990.71
200.1080, 49003.85
200.5901, 48974.68
201.0722, 48964.51
201.5543, 48975.72
202.0364, 48993.69
202.5186, 48989.87
203.0007, 48951.26
203.4828, 48995.79
203.9649, 49170.36
204.4470, 49433.18
204.9291, 49589.07
205.4113, 49610.21
205.8934, 49598.11
206.3755, 49640.23
206.8576, 49752.25
207.3397, 49836.20
207.8218, 49871.16
208.3040, 49862.95
208.7861, 49852.95
209.2682, 49840.02
209.7503, 49831.69
210.2324, 49836.88
210.7145, 49860.71
211.1967, 49888.14
211.6788, 49918.79
212.1609, 49953.86
212.6430, 49992.91
213.1251, 50042.72
213.6072, 50088.93
214.0894, 50116.86
214.5715, 50123.24
215.0536, 50117.83
215.5357, 50087.16
216.0178, 50027.76
216.4999, 50045.52
216.9820, 50181.67
217.4642, 50340.29
217.9463, 50401.07
218.4284, 50307.24
218.9105, 50244.60
219.3926, 50265.42
219.8747, 50376.66
220.3569, 50487.24
220.8390, 50615.62
221.3211, 50725.90
221.8032, 50763.50
222.2853, 50675.91
222.7674, 50629.71
223.2496, 50686.87
223.7317, 50872.85
224.2138, 51005.72
224.6959, 51058.91
225.1780, 51084.18
225.6601, 51164.01
226.1423, 51343.63
226.6244, 51491.68
227.1065, 51555.46
227.5886, 51507.00
228.0707, 51502.76
228.5528, 51561.25
229.0350, 51649.96
229.5171, 51719.38
229.9992, 51771.42
230.4813, 51799.82
230.9634, 51797.07
231.4455, 51750.49
231.9276, 51718.46
232.4098, 51706.44
232.8919, 51706.11
233.3740, 51705.96
233.8561, 51718.43
234.3382, 51711.38
234.8203, 51665.63
235.3025, 51556.14
235.7846, 51492.92
236.2667, 51494.70
236.7488, 51534.77
237.2309, 51562.36
237.7130, 51570.22
238.1952, 51578.11
238.6773, 51594.44
239.1594, 51624.92
239.6415, 51647.92
240.1236, 51658.80
240.6057, 51665.04
241.0879, 51686.05
241.5700, 51746.82
242.0521, 51783.32
242.5342, 51757.56
243.0163, 51616.05
243.4984, 51562.34
243.9806, 51629.85
244.4627, 51770.52
244.9448, 51881.47
245.4269, 51945.49
245.9090, 52001.27
246.3911, 52064.19
246.8732, 52140.47
247.3554, 52199.58
247.8375, 52230.09
248.3196, 52245.71
248.8017, 52279.79
249.2838, 52346.06
249.7659, 52408.56
250.2481, 52453.60
250.7302, 52476.16
251.2123, 52502.40
251.6944, 52543.29
252.1765, 52587.25
252.6586, 52607.15
253.1408, 52597.03
253.6229, 52579.28
254.1050, 52560.34
254.5871, 52534.32
255.0692, 52530.56
255.5513, 52551.03
256.0334, 52594.21
256.5156, 52662.54
256.9977, 52777.72
257.4798, 52878.41
257.9619, 52927.43
258.4440, 52887.28
258.9261, 52912.11
259.4083, 53023.45
259.8904, 53185.11
260.3725, 53315.12
260.8546, 53396.67
261.3367, 53478.68
261.8188, 53584.32
262.3010, 53726.47
262.7831, 53840.90
263.2652, 53910.47
263.7473, 53963.35
264.2294, 54067.82
264.7115, 54249.24
265.1937, 54419.89
265.6758, 54541.80
266.1579, 54606.46
266.6400, 54654.93
267.1221, 54680.85
267.6042, 54697.54
268.0864, 54727.83
268.5685, 54773.31
269.0506, 54832.48
269.5327, 54908.89
270.0148, 55007.00
270.4969, 55105.27
270.9791, 55214.14
271.4612, 55313.43
271.9433, 55350.18
272.4254, 55302.12
272.9075, 55277.97
273.3896, 55335.63
273.8718, 55484.88
274.3539, 55602.14
274.8360, 55685.54
275.3181, 55741.04
275.8002, 55767.84
276.2823, 55756.09
276.7645, 55763.21
277.2466, 55822.12
277.7287, 55934.83
278.2108, 56015.95
278.6929, 56057.93
279.1750, 56082.30
279.6572, 56120.82
280.1393, 56174.45
280.6214, 56225.45
281.1035, 56262.63
281.5856, 56287.06
282.0677, 56322.47
282.5499, 56367.30
283.0320, 56426.41
283.5141, 56523.18
283.9962, 56660.04
284.4783, 56761.77
284.9604, 56783.42
285.4425, 56740.57
285.9247, 56737.52
286.4068, 56778.73
286.8889, 56842.52
287.3710, 56908.57
287.8531, 56977.01
288.3352, 57044.04
288.8174, 57106.87
289.2995, 57167.46
289.7816, 57239.16
290.2637, 57323.19
290.7458, 57396.74
291.2279, 57432.44
291.7101, 57433.52
292.1922, 57421.35
292.6743, 57393.32
293.1564, 57359.95
293.6385, 57357.77
294.1206, 57389.00
294.6028, 57412.02
295.0849, 57379.10
295.5670, 57305.14
296.0491, 57241.08
296.5312, 57208.62
297.0133, 57193.83
297.4955, 57163.67
297.9776, 57121.28
298.4597, 57100.36
298.9418, 57156.54
299.4239, 57256.61
299.9060, 57316.80
300.3882, 57282.64
300.8703, 57230.07
301.3524, 57281.25
301.8345, 57421.84
302.3166, 57550.51
302.7987, 57574.63
303.2809, 57539.67
303.7630, 57520.16
304.2451, 57530.44
304.7272, 57561.76
305.2093, 57596.18
305.6914, 57639.02
306.1736, 57715.60
306.6557, 57918.81
307.1378, 58137.42
307.6199, 58222.58
308.1020, 58096.54
308.5841, 57941.09
309.0663, 57917.76
309.5484, 57987.81
310.0305, 58037.65
310.5126, 57980.34
310.9947, 57892.85
311.4768, 57844.61
311.9590, 57856.41
312.4411, 57879.71
312.9232, 57899.98
313.4053, 57910.53
313.8874, 57897.67
314.3695, 57814.00
314.8517, 57733.90
315.3337, 57712.94
315.8159, 57771.68
316.2980, 57829.51
316.7801, 57859.31
317.2622, 57865.64
317.7443, 57855.86
318.2264, 57818.69
318.7086, 57779.02
319.1907, 57744.76
319.6728, 57715.46
320.1549, 57703.98
320.6370, 57717.27
321.1191, 57749.41
321.6013, 57793.63
322.0834, 57842.00
322.5655, 57905.88
323.0476, 57999.20
323.5297, 58125.00
324.0118, 58223.38
324.4940, 58273.70
324.9761, 58297.03
325.4582, 58310.90
325.9403, 58294.04
326.4224, 58291.34
326.9045, 58313.29
327.3867, 58359.01
327.8688, 58404.78
328.3509, 58446.62
328.8330, 58490.15
329.3151, 58540.03
329.7972, 58615.87
330.2794, 58671.91
330.7615, 58692.93
331.2436, 58688.65
331.7257, 58713.32
332.2078, 58794.55
332.6899, 58875.00
333.1721, 58923.98
333.6542, 58926.63
334.1363, 58928.62
334.6184, 58924.86
335.1005, 58924.55
335.5826, 58954.27
336.0648, 59028.14
336.5469, 59105.77
337.0290, 59170.21
337.5111, 59219.17
337.9932, 59261.28
338.4753, 59296.45
338.9575, 59321.61
339.4396, 59322.83
339.9217, 59287.23
340.4038, 59277.27
340.8859, 59336.27
341.3680, 59463.29
341.8502, 59515.37
342.3323, 59472.48
342.8144, 59407.26
343.2965, 59417.60
343.7786, 59506.12
344.2607, 59600.03
344.7429, 59682.75
345.2250, 59755.26
345.7071, 59819.16
346.1892, 59876.80
346.6713, 59924.38
347.1534, 59948.64
347.6355, 59956.02
348.1176, 59980.14
348.5998, 60027.34
349.0819, 60095.36
349.5640, 60199.23
350.0461, 60334.82
350.5282, 60440.20
351.0103, 60436.25
351.4925, 60370.31
351.9746, 60341.01
352.4567, 60369.86
352.9388, 60436.89
353.4209, 60539.74
353.9030, 60667.93
354.3852, 60782.18
354.8673, 60871.79
355.3494, 60931.64
355.8315, 60942.23
356.3136, 60886.49
356.7957, 60847.59
357.2779, 60912.67
357.7600, 61041.84
358.2421, 61152.58
358.7242, 61203.76
359.2063, 61228.43
359.6884, 61239.95
360.1706, 61236.85
360.6527, 61247.09
361.1348, 61277.25
361.6169, 61329.24
362.0990, 61404.69
362.5811, 61544.42
363.0633, 61668.16
363.5454, 61740.10
364.0275, 61760.31
364.5096, 61773.29
364.9917, 61777.05
365.4738, 61784.88
365.9560, 61806.60
366.4381, 61871.45
366.9202, 61920.59
367.4023, 61932.11
367.8844, 61917.45
368.3665, 61931.90
368.8487, 62012.31
369.3308, 62097.05
369.8129, 62159.14
370.2950, 62184.34
370.7771, 62211.18
371.2592, 62228.21
371.7414, 62249.70
372.2235, 62310.94
372.7056, 62445.46
373.1877, 62563.30
373.6698, 62615.57
374.1519, 62575.82
374.6341, 62628.45
375.1162, 62820.29
375.5983, 63041.74
376.0804, 63135.57
376.5625, 63065.21
377.0446, 63012.96
377.5267, 63034.89
378.0089, 63120.98
378.4910, 63188.49
378.9731, 63235.87
379.4552, 63275.58
379.9373, 63325.32
380.4194, 63385.43
380.9016, 63415.31
381.3837, 63391.52
381.8658, 63355.09
382.3479, 63411.13
382.8300, 63556.60
383.3121, 63703.50
383.7943, 63783.27
384.2764, 63816.68
384.7585, 63857.59
385.2406, 63909.65
385.7227, 63974.13
386.2048, 64060.61
386.6870, 64159.25
387.1691, 64244.34
387.6512, 64261.77
388.1333, 64273.41
388.6154, 64378.68
389.0975, 64589.06
389.5797, 64764.17
390.0618, 64759.97
390.5439, 64664.60
391.0260, 64598.54
391.5081, 64639.79
391.9902, 64697.82
392.4724, 64728.56
392.9545, 64734.77
393.4366, 64731.99
393.9187, 64696.36
394.4008, 64675.82
394.8829, 64709.90
395.3651, 64876.31
395.8472, 65003.00
396.3293, 65021.11
396.8114, 64966.32
397.2935, 64932.59
397.7756, 64950.13
398.2578, 64977.31
398.7399, 64992.89
399.2220, 64974.32
399.7041, 64995.29
400.1862, 65084.84
400.6683, 65199.77
401.1505, 65284.54
401.6326, 65317.74
402.1147, 65354.42
402.5968, 65414.48
403.0789, 65498.71
403.5610, 65542.91
404.0432, 65522.29
404.5253, 65501.50
405.0074, 65544.97
405.4895, 65676.02
405.9716, 65771.73
406.4537, 65809.02
406.9359, 65804.64
407.4180, 65801.07
407.9001, 65796.37
408.3822, 65803.67
408.8643, 65833.96
409.3464, 65884.80
409.8285, 65935.57
410.3106, 65982.71
410.7928, 66036.44
411.2749, 66126.19
411.7570, 66243.03
412.2391, 66334.66
412.7212, 66344.19
413.2033, 66324.85
413.6855, 66383.06
414.1676, 66517.34
414.6497, 66662.07
415.1318, 66778.19
415.6139, 66864.18
416.0960, 66910.45
416.5782, 66876.01
417.0603, 66848.84
417.5424, 66914.80
418.0245, 67050.08
418.5066, 67172.05
418.9887, 67232.27
419.4709, 67269.82
419.9530, 67314.33
420.4351, 67375.88
420.9172, 67429.29
421.3993, 67462.45
421.8814, 67484.71
422.3636, 67509.29
422.8457, 67536.55
423.3278, 67571.88
423.8099, 67621.98
424.2920, 67690.70
424.7741, 67749.73
425.2563, 67798.66
425.7384, 67838.60
426.2205, 67867.48
426.7026, 67866.24
427.1847, 67886.70
427.6668, 67938.55
428.1490, 68013.78
428.6311, 68084.75
429.1132, 68149.92
429.5953, 68212.38
430.0774, 68268.41
430.5595, 68313.61
431.0417, 68380.53
431.5238, 68475.15
432.0059, 68578.53
432.4880, 68673.85
432.9701, 68761.73
433.4522, 68807.91
433.9344, 68775.34
434.4165, 68699.59
434.8986, 68696.18
435.3807, 68766.80
435.8628, 68865.03
436.3449, 68976.64
436.8271, 69086.14
437.3092, 69148.08
437.7913, 69135.11
438.2734, 69107.22
438.7555, 69129.58
439.2376, 69190.45
439.7197, 69254.91
440.2018, 69308.99
440.6840, 69353.87
441.1661, 69387.23
441.6482, 69406.33
442.1303, 69425.92
442.6124, 69475.73
443.0945, 69521.52
443.5767, 69523.42
444.0588, 69412.80
444.5409, 69314.96
445.0230, 69283.95
445.5051, 69310.55
445.9872, 69310.97
446.4694, 69210.21
446.9515, 69128.83
447.4336, 69134.41
447.9157, 69323.63
448.3978, 69435.75
448.8799, 69433.61
449.3621, 69369.59
449.8442, 69336.20
450.3263, 69346.69
450.8084, 69360.00
451.2905, 69363.32
451.7726, 69356.08
452.2548, 69346.54
452.7369, 69323.94
453.2190, 69323.52
453.7011, 69395.48
454.1832, 69540.11
454.6653, 69651.45
455.1475, 69708.16
455.6296, 69728.25
456.1117, 69742.48
456.5938, 69751.62
457.0759, 69762.89
457.5580, 69801.80
458.0402, 69842.30
458.5223, 69815.99
459.0044, 69711.95
459.4865, 69615.78
459.9686, 69607.13
460.4507, 69657.85
460.9329, 69721.09
461.4150, 69813.48
461.8971, 69881.05
462.3792, 69866.99
462.8613, 69788.41
463.3434, 69729.64
463.8256, 69719.52
464.3077, 69747.79
464.7898, 69817.73
465.2719, 69968.46
465.7540, 70075.12
466.2361, 70079.25
466.7183, 70032.85
467.2004, 70016.66
467.6825, 70068.17
468.1646, 70113.64
468.6467, 70136.39
469.1288, 70135.18
469.6110, 70136.46
470.0930, 70137.64
470.5752, 70141.82
471.0573, 70153.77
471.5394, 70177.55
472.0215, 70183.25
472.5036, 70157.75
472.9857, 70123.07
473.4679, 70136.05
473.9500, 70199.93
474.4321, 70252.88
474.9142, 70265.13
475.3963, 70245.07
475.8784, 70222.78
476.3606, 70200.27
476.8427, 70172.62
477.3248, 70125.59
477.8069, 70073.52
478.2890, 70047.41
478.7711, 70066.55
479.2533, 70101.60
479.7354, 70120.33
480.2175, 70131.28
480.6996, 70158.83
481.1817, 70240.80
481.6638, 70323.80
482.1460, 70361.75
482.6281, 70338.41
483.1102, 70326.98
483.5923, 70337.19
484.0744, 70373.12
484.5565, 70439.20
485.0387, 70578.76
485.5208, 70694.02
486.0029, 70766.98
486.4850, 70801.23
486.9671, 70812.32
487.4492, 70784.59
487.9314, 70755.36
488.4135, 70746.14
488.8956, 70770.33
489.3777, 70766.38
489.8598, 70727.00
490.3419, 70678.16
490.8241, 70660.15
491.3062, 70679.56
491.7883, 70673.18
492.2704, 70612.72
492.7525, 70525.31
493.2346, 70479.29
493.7168, 70474.69
494.1989, 70498.41
494.6810, 70565.15
495.1631, 70648.16
495.6452, 70690.57
496.1273, 70680.10
496.6095, 70652.37
497.0916, 70633.48
497.5737, 70620.63
498.0558, 70609.76
498.5379, 70592.66
499.0201, 70584.23
499.5022, 70596.95
499.9843, 70629.14
500.4664, 70665.83
500.9485, 70721.41
501.4306, 70767.10
501.9127, 70780.13
502.3948, 70723.70
502.8770, 70708.41
503.3591, 70766.75
503.8412, 70860.52
504.3233, 70943.80
504.8054, 71019.58
505.2875, 71072.70
505.7697, 71087.98
506.2518, 71072.38
506.7339, 71091.42
507.2160, 71153.23
507.6981, 71221.82
508.1802, 71273.03
508.6624, 71307.70
509.1445, 71351.91
509.6266, 71415.07
510.1087, 71466.81
510.5908, 71442.80
511.0729, 71364.79
511.5551, 71324.64
512.0372, 71387.87
512.5193, 71488.19
513.0014, 71527.34
513.4835, 71517.08
513.9656, 71523.53
514.4478, 71603.90
514.9299, 71709.92
515.4120, 71801.38
515.8941, 71872.40
516.3762, 71921.26
516.8583, 71911.05
517.3405, 71887.04
517.8226, 71908.01
518.3047, 72060.20
518.7868, 72177.23
519.2689, 72192.68
519.7510, 72123.39
520.2332, 72118.07
520.7153, 72223.59
521.1974, 72331.38
521.6795, 72387.82
522.1616, 72382.80
522.6437, 72365.95
523.1259, 72332.22
523.6080, 72298.35
524.0901, 72287.46
524.5722, 72300.30
525.0543, 72320.84
525.5364, 72345.89
526.0186, 72374.90
526.5007, 72407.49
526.9828, 72442.86
527.4649, 72479.34
527.9470, 72532.23
528.4291, 72578.02
528.9113, 72571.09
529.3934, 72498.72
529.8755, 72443.73
530.3576, 72493.28
530.8397, 72582.66
531.3218, 72634.10
531.8040, 72584.25
532.2861, 72532.56
532.7682, 72512.55
533.2503, 72518.48
533.7324, 72529.47
534.2145, 72537.41
534.6967, 72557.79
535.1788, 72602.17
535.6609, 72679.79
536.1430, 72738.58
536.6251, 72776.32
537.1072, 72798.73
537.5894, 72797.63
538.0715, 72760.09
538.5536, 72784.65
539.0357, 72908.66
539.5178, 73073.28
539.9999, 73136.44
540.4821, 73101.84
540.9642, 73086.13
541.4463, 73160.41
541.9284, 73288.96
542.4105, 73401.74
542.8926, 73496.92
543.3748, 73588.19
543.8569, 73697.76
544.3390, 73802.03
544.8211, 73870.91
545.3032, 73884.73
545.7853, 73890.60
546.2675, 73899.98
546.7495, 73919.59
547.2316, 73961.03
547.7137, 74058.88
548.1959, 74148.41
548.6780, 74203.89
549.1601, 74226.58
549.6422, 74278.97
550.1243, 74393.07
550.6064, 74500.14
551.0886, 74549.74
551.5707, 74506.28
552.0528, 74548.94
552.5349, 74703.24
553.0170, 74901.15
553.4991, 75051.81
553.9813, 75155.71
554.4634, 75238.98
554.9455, 75297.04
555.4276, 75350.73
555.9097, 75448.59
556.3918, 75583.70
556.8740, 75716.50
557.3561, 75802.45
557.8382, 75884.20
558.3203, 76022.06
558.8024, 76227.98
559.2845, 76419.77
559.7667, 76537.00
560.2488, 76626.12
560.7309, 76733.48
561.2130, 76878.83
561.6951, 77032.32
562.1772, 77188.39
562.6594, 77348.65
563.1415, 77520.30
563.6236, 77727.13
564.1057, 77905.93
564.5878, 78037.45
565.0699, 78120.27
565.5521, 78182.43
566.0342, 78219.48
566.5163, 78246.06
566.9984, 78280.51
567.4805, 78320.23
567.9626, 78323.30
568.4448, 78280.38
568.9269, 78220.72
569.4090, 78190.18
569.8911, 78175.02
570.3732, 78133.29
570.8553, 78049.55
571.3375, 77931.88
571.8196, 77774.27
572.3017, 77585.69
572.7838, 77408.86
573.2659, 77270.35
573.7480, 77142.45
574.2302, 77009.22
574.7123, 76870.34
575.1944, 76722.39
575.6765, 76553.20
576.1586, 76383.22
576.6407, 76229.76
577.1229, 76097.32
577.6050, 75971.44
578.0871, 75843.70
578.5692, 75729.14
579.0513, 75669.85
579.5334, 75674.80
580.0156, 75683.63
580.4977, 75668.00
580.9798, 75640.76
581.4619, 75659.82
581.9440, 75723.03
582.4261, 75770.16
582.9083, 75731.69
583.3904, 75653.04
583.8725, 75603.66
584.3546, 75592.45
584.8367, 75602.99
585.3188, 75639.13
585.8010, 75683.93
586.2831, 75716.80
586.7652, 75704.16
587.2473, 75707.67
587.7294, 75773.10
588.2115, 75871.68
588.6937, 75906.03
589.1758, 75827.37
589.6579, 75743.14
590.1400, 75679.51
590.6221, 75636.52
591.1042, 75626.16
591.5864, 75652.96
592.0685, 75701.73
592.5506, 75767.94
593.0327, 75850.52
593.5148, 75926.28
593.9969, 75993.99
594.4791, 76053.86
594.9612, 76115.84
595.4433, 76171.34
595.9254, 76193.93
596.4075, 76134.68
596.8896, 76081.38
597.3718, 76130.78
597.8539, 76252.86
598.3360, 76351.27
598.8181, 76344.70
599.3002, 76339.00
599.7823, 76401.37
600.2645, 76550.69
600.7466, 76649.65
601.2287, 76643.52
601.7108, 76621.16
602.1929, 76636.13
602.6750, 76690.13
603.1572, 76781.62
603.6393, 76927.18
604.1214, 77087.02
604.6035, 77205.63
605.0856, 77282.95
605.5677, 77328.23
606.0499, 77325.93
606.5320, 77312.28
607.0141, 77367.77
607.4962, 77479.15
607.9783, 77583.90
608.4604, 77614.16
608.9425, 77637.55
609.4246, 77732.20
609.9067, 77905.07
610.3889, 78056.05
610.8710, 78125.43
611.3531, 78164.20
611.8352, 78210.23
612.3173, 78279.27
612.7994, 78340.24
613.2816, 78396.48
613.7637, 78444.31
614.2458, 78479.07
614.7279, 78501.66
615.2100, 78510.67
615.6921, 78496.77
616.1743, 78476.59
616.6564, 78503.61
617.1385, 78578.57
617.6206, 78668.56
618.1027, 78785.25
618.5848, 78896.95
619.0670, 78913.17
619.5491, 78836.82
620.0312, 78788.76
620.5133, 78878.11
620.9954, 79025.88
621.4775, 79153.05
621.9597, 79241.05
622.4418, 79314.23
622.9239, 79350.26
623.4060, 79386.93
623.8881, 79472.20
624.3702, 79699.67
624.8524, 79853.69
625.3345, 79901.34
625.8166, 79863.14
626.2987, 79786.12
626.7808, 79653.69
627.2629, 79547.94
627.7451, 79501.51
628.2272, 79508.66
628.7093, 79559.33
629.1914, 79654.17
629.6735, 79734.55
630.1556, 79751.35
630.6378, 79726.37
631.1199, 79682.72
631.6020, 79619.72
632.0841, 79572.34
632.5662, 79575.31
633.0483, 79601.84
633.5305, 79622.71
634.0126, 79596.51
634.4947, 79608.08
634.9768, 79715.60
635.4589, 79862.87
635.9410, 79934.17
636.4232, 79871.44
636.9053, 79841.57
637.3874, 79892.26
637.8695, 80005.27
638.3516, 80108.71
638.8337, 80206.92
639.3159, 80255.29
639.7980, 80187.92
640.2801, 80052.07
640.7622, 79999.71
641.2443, 80035.59
641.7264, 80087.78
642.2086, 80083.30
642.6907, 80070.88
643.1728, 80117.16
643.6549, 80266.20
644.1370, 80394.91
644.6191, 80438.27
645.1013, 80440.89
645.5834, 80459.00
646.0655, 80514.06
646.5476, 80565.56
647.0297, 80592.30
647.5118, 80614.98
647.9940, 80696.63
648.4761, 80850.27
648.9582, 81006.54
649.4403, 81149.16
649.9224, 81268.95
650.4045, 81318.41
650.8867, 81299.28
651.3688, 81310.51
651.8509, 81483.47
652.3330, 81705.89
652.8151, 81802.32
653.2972, 81751.73
653.7794, 81673.44
654.2615, 81597.83
654.7436, 81553.12
655.2257, 81569.80
655.7078, 81713.71
656.1899, 81823.73
656.6721, 81873.79
657.1542, 81882.13
657.6363, 81865.65
658.1184, 81811.95
658.6005, 81762.91
659.0826, 81720.91
659.5648, 81690.31
660.0469, 81689.41
660.5290, 81717.43
661.0111, 81748.32
661.4932, 81774.80
661.9753, 81795.10
662.4575, 81790.96
662.9396, 81770.66
663.4217, 81785.05
663.9038, 81920.70
664.3859, 82071.01
664.8680, 82134.45
665.3502, 82081.39
665.8323, 82071.89
666.3144, 82196.55
666.7965, 82344.02
667.2786, 82424.24
667.7607, 82364.59
668.2429, 82388.64
668.7250, 82530.74
669.2071, 82711.28
669.6892, 82820.13
670.1713, 82854.61
670.6534, 82847.66
671.1355, 82788.47
671.6176, 82717.84
672.0997, 82712.84
672.5818, 82758.14
673.0640, 82803.23
673.5461, 82852.14
674.0282, 82874.46
674.5103, 82835.73
674.9924, 82749.65
675.4745, 82679.22
675.9567, 82647.03
676.4388, 82641.51
676.9209, 82669.34
677.4030, 82737.73
677.8851, 82781.12
678.3672, 82786.29
678.8494, 82788.30
679.3315, 82804.25
679.8136, 82831.41
680.2957, 82892.02
680.7778, 82983.30
681.2599, 83104.13
681.7421, 83267.14
682.2242, 83454.38
682.7063, 83628.20
683.1884, 83790.66
683.6705, 83910.58
684.1526, 83936.19
684.6348, 83909.91
685.1169, 83903.24
685.5990, 83975.31
686.0811, 84030.31
686.5632, 84021.31
687.0453, 83978.49
687.5275, 84000.69
688.0096, 84123.66
688.4917, 84242.00
688.9738, 84324.84
689.4559, 84375.13
689.9380, 84391.29
690.4202, 84371.38
690.9023, 84383.88
691.3844, 84513.16
691.8665, 84691.23
692.3486, 84793.98
692.8307, 84812.97
693.3129, 84830.21
693.7950, 84916.65
694.2771, 85011.67
694.7592, 85060.37
695.2413, 85032.33
695.7234, 85007.59
696.2056, 84999.51
696.6877, 84999.60
697.1698, 85002.70
697.6519, 85014.23
698.1340, 85018.52
698.6161, 85016.69
699.0983, 85008.68
699.5804, 84991.01
700.0625, 84966.38
700.5446, 84941.79
701.0267, 84909.18
701.5089, 84892.75
701.9910, 84926.54
702.4731, 85001.32
702.9552, 85091.29
703.4373, 85206.68
703.9194, 85312.08
704.4016, 85395.77
704.8837, 85455.39
705.3658, 85477.77
705.8479, 85401.82
706.3300, 85362.20
706.8121, 85424.36
707.2943, 85592.01
707.7764, 85706.84
708.2585, 85765.13
708.7406, 85794.28
709.2227, 85811.73
709.7048, 85818.60
710.1870, 85807.97
710.6691, 85777.37
711.1512, 85764.48
711.6333, 85821.70
712.1154, 85903.83
712.5975, 85955.31
713.0797, 85945.68
713.5618, 85948.81
714.0439, 85988.98
714.5260, 86051.02
715.0081, 86116.77
715.4902, 86184.46
715.9724, 86249.39
716.4545, 86298.06
716.9366, 86354.52
717.4187, 86497.88
717.9008, 86724.54
718.3829, 86852.13
718.8651, 86770.17
719.3472, 86626.27
719.8293, 86654.98
720.3114, 86810.13
720.7935, 86948.41
721.2756, 87000.35
721.7578, 87012.53
722.2399, 86977.72
722.7220, 86909.50
723.2041, 86913.90
723.6862, 87077.95
724.1683, 87235.52
724.6505, 87322.66
725.1326, 87339.05
725.6147, 87394.74
726.0968, 87505.93
726.5789, 87583.77
727.0610, 87535.66
727.5432, 87401.88
728.0253, 87323.90
728.5074, 87310.48
728.9895, 87303.77
729.4716, 87239.71
729.9537, 87168.08
730.4359, 87149.91
730.9180, 87216.76
731.4001, 87270.64
731.8822, 87264.05
732.3643, 87245.54
732.8464, 87261.38
733.3285, 87324.72
733.8106, 87390.52
734.2927, 87456.51
734.7748, 87521.57
735.2570, 87587.26
735.7391, 87652.07
736.2212, 87708.27
736.7033, 87754.47
737.1854, 87789.41
737.6675, 87799.90
738.1497, 87799.77
738.6318, 87817.62
739.1139, 87883.94
739.5960, 87954.72
740.0781, 88024.19
740.5602, 88088.13
741.0424, 88125.28
741.5245, 88080.66
742.0066, 88100.26
742.4887, 88243.33
742.9708, 88475.21
743.4529, 88642.21
743.9351, 88738.44
744.4172, 88819.45
744.8993, 88916.46
745.3814, 89012.45
745.8635, 89055.71
746.3456, 89055.05
746.8278, 89087.64
747.3099, 89258.37
747.7920, 89430.10
748.2741, 89502.26
748.7562, 89460.41
749.2383, 89419.38
749.7205, 89401.92
750.2026, 89390.31
750.6847, 89388.07
751.1668, 89407.59
751.6489, 89351.93
752.1310, 89199.92
752.6132, 89080.18
753.0953, 89141.90
753.5774, 89330.18
754.0595, 89484.22
754.5416, 89585.96
755.0237, 89656.45
755.5059, 89706.02
755.9880, 89732.22
756.4701, 89729.18
756.9522, 89668.43
757.4343, 89622.84
757.9164, 89594.91
758.3986, 89589.69
758.8807, 89625.21
759.3628, 89726.99
759.8449, 89775.13
760.3270, 89753.38
760.8091, 89690.11
761.2913, 89606.66
761.7734, 89517.38
762.2555, 89470.99
762.7376, 89503.05
763.2197, 89548.71
763.7018, 89528.77
764.1840, 89486.06
764.6661, 89494.02
765.1482, 89617.55
765.6303, 89745.27
766.1124, 89850.61
766.5945, 89938.82
767.0767, 90015.41
767.5588, 90064.66
768.0409, 90141.61
768.5230, 90277.52
769.0051, 90428.40
769.4872, 90452.41
769.9694, 90374.86
770.4515, 90363.02
770.9336, 90597.98
771.4157, 90863.94
771.8978, 90956.01
772.3799, 90902.69
772.8621, 90818.10
773.3442, 90679.03
773.8263, 90584.69
774.3084, 90594.45
774.7905, 90695.41
775.2726, 90766.80
775.7548, 90811.69
776.2369, 90826.91
776.7190, 90796.38
777.2011, 90737.41
777.6832, 90721.66
778.1653, 90747.60
778.6475, 90792.05
779.1296, 90851.27
779.6117, 90911.72
780.0938, 90950.93
780.5759, 90966.40
781.0580, 91004.76
781.5402, 91121.23
782.0223, 91224.15
782.5044, 91260.16
782.9865, 91217.40
783.4686, 91194.88
783.9507, 91195.23
784.4329, 91205.83
784.9150, 91217.01
785.3971, 91231.46
785.8792, 91256.72
786.3613, 91294.48
786.8434, 91351.83
787.3256, 91470.21
787.8077, 91592.34
788.2898, 91657.16
788.7719, 91644.27
789.2540, 91625.52
789.7361, 91558.27
790.2183, 91537.42
790.7004, 91644.55
791.1825, 91944.25
791.6646, 92128.97
792.1467, 92177.94
792.6288, 92160.57
793.1110, 92102.85
793.5930, 92034.84
794.0751, 92078.32
794.5573, 92268.95
795.0394, 92449.62
795.5215, 92477.82
796.0036, 92435.05
796.4857, 92407.55
796.9678, 92435.73
797.4500, 92439.26
797.9321, 92393.53
798.4142, 92337.14
798.8963, 92307.48
799.3784, 92308.62
799.8605, 92317.98
800.3427, 92332.73
800.8248, 92360.41
801.3069, 92429.87
801.7890, 92518.48
802.2711, 92567.22
802.7532, 92549.23
803.2354, 92519.19
803.7175, 92500.66
804.1996, 92492.92
804.6817, 92495.21
805.1638, 92511.77
805.6459, 92533.55
806.1281, 92568.70
806.6102, 92600.86
807.0923, 92588.78
807.5744, 92530.52
808.0565, 92543.68
808.5386, 92664.54
809.0208, 92824.45
809.5029, 92960.03
809.9850, 93062.02
810.4671, 93106.06
810.9492, 93039.92
811.4313, 92983.08
811.9135, 93001.10
812.3956, 93052.87
812.8777, 93069.03
813.3598, 93009.41
813.8419, 92996.34
814.3240, 93068.68
814.8062, 93162.68
815.2883, 93136.16
815.7704, 93010.02
816.2525, 92966.75
816.7346, 93099.45
817.2167, 93247.67
817.6989, 93204.90
818.1810, 93062.80
818.6631, 92984.32
819.1452, 93097.94
819.6273, 93194.20
820.1094, 93224.91
820.5916, 93210.91
821.0737, 93170.41
821.5558, 93086.45
822.0379, 93045.50
822.5200, 93065.62
823.0021, 93135.51
823.4843, 93270.48
823.9664, 93442.60
824.4485, 93560.35
824.9306, 93563.37
825.4127, 93539.45
825.8948, 93539.23
826.3770, 93554.27
826.8591, 93571.07
827.3412, 93556.98
827.8233, 93583.96
828.3054, 93686.41
828.7875, 93812.80
829.2697, 93850.49
829.7518, 93796.56
830.2339, 93751.80
830.7160, 93744.12
831.1981, 93755.60
831.6802, 93794.44
832.1624, 93831.40
832.6445, 93802.63
833.1266, 93578.09
833.6087, 93409.41
834.0908, 93439.78
834.5729, 93573.55
835.0551, 93621.32
835.5372, 93540.70
836.0193, 93476.38
836.5014, 93447.60
836.9835, 93449.31
837.4656, 93492.36
837.9478, 93563.27
838.4299, 93601.13
838.9120, 93583.30
839.3941, 93533.34
839.8762, 93459.76
840.3583, 93371.39
840.8405, 93282.08
841.3226, 93159.91
841.8047, 93088.97
842.2868, 93099.30
842.7689, 93148.06
843.2510, 93165.91
843.7332, 93149.23
844.2153, 93133.55
844.6974, 93129.22
845.1795, 93116.77
845.6616, 93071.57
846.1437, 92997.06
846.6259, 92899.41
847.1080, 92768.50
847.5901, 92633.55
848.0722, 92479.00
848.5543, 92339.08
849.0364, 92267.48
849.5186, 92310.34
850.0007, 92304.53
850.4828, 92217.84
850.9649, 92113.44
851.4470, 92116.44
851.9291, 92193.09
852.4113, 92168.76
852.8934, 91973.12
853.3755, 91784.88
853.8576, 91777.03
854.3397, 91856.24
854.8218, 91906.72
855.3040, 91875.96
855.7860, 91857.62
856.2681, 91852.35
856.7502, 91866.04
857.2324, 91909.26
857.7145, 91981.74
858.1966, 92056.13
858.6787, 92130.46
859.1608, 92193.57
859.6429, 92230.58
860.1251, 92247.74
860.6072, 92254.23
861.0893, 92246.45
861.5714, 92240.68
862.0535, 92217.81
862.5356, 92216.58
863.0178, 92275.02
863.4999, 92429.05
863.9820, 92531.91
864.4641, 92580.38
864.9462, 92582.74
865.4283, 92538.00
865.9105, 92454.55
866.3926, 92336.95
866.8747, 92183.11
867.3568, 92064.28
867.8389, 92051.86
868.3210, 92084.84
868.8032, 92126.48
869.2853, 92188.29
869.7674, 92193.63
870.2495, 92110.30
870.7316, 92028.17
871.2137, 92008.63
871.6959, 92048.29
872.1780, 92114.36
872.6601, 92206.49
873.1422, 92289.34
873.6243, 92348.96
874.1064, 92376.34
874.5886, 92333.59
875.0707, 92215.12
875.5528, 92166.84
876.0349, 92285.63
876.5170, 92411.20
876.9991, 92481.66
877.4813, 92498.93
877.9634, 92499.95
878.4455, 92481.88
878.9276, 92490.00
879.4097, 92584.98
879.8918, 92706.60
880.3740, 92768.74
880.8561, 92777.79
881.3382, 92768.61
881.8203, 92705.39
882.3024, 92681.73
882.7845, 92762.63
883.2667, 92919.94
883.7488, 93030.47
884.2309, 93084.56
884.7130, 93133.59
885.1951, 93208.19
885.6772, 93277.59
886.1594, 93264.40
886.6415, 93189.85
887.1236, 93123.18
887.6057, 93072.59
888.0878, 93064.60
888.5699, 93149.05
889.0521, 93284.48
889.5342, 93358.02
890.0163, 93322.69
890.4984, 93332.70
890.9805, 93418.07
891.4626, 93556.91
891.9448, 93736.13
892.4269, 93936.09
892.9090, 94081.68
893.3911, 94126.80
893.8732, 94152.65
894.3553, 94219.17
894.8375, 94299.75
895.3196, 94358.53
895.8017, 94368.76
896.2838, 94384.88
896.7659, 94413.36
897.2480, 94440.58
897.7302, 94458.08
898.2123, 94464.53
898.6944, 94438.98
899.1765, 94378.93
899.6586, 94305.52
900.1407, 94231.95
900.6229, 94163.91
901.1050, 94106.45
901.5871, 94057.63
902.0692, 94039.97
902.5513, 94071.83
903.0334, 94114.95
903.5156, 94148.19
903.9977, 94171.12
904.4798, 94155.33
904.9619, 94096.29
905.4440, 94061.79
905.9261, 94141.20
906.4083, 94249.57
906.8904, 94270.13
907.3725, 94199.67
907.8546, 94191.20
908.3367, 94370.45
908.8188, 94535.88
909.3010, 94602.76
909.7831, 94585.35
910.2652, 94585.38
910.7473, 94602.49
911.2294, 94657.96
911.7115, 94811.16
912.1937, 94974.04
912.6758, 94983.88
913.1579, 94893.61
913.6400, 94869.37
914.1221, 95067.57
914.6042, 95229.81
915.0864, 95275.70
915.5685, 95239.81
916.0506, 95171.66
916.5327, 95056.13
917.0148, 95069.29
917.4969, 95294.94
917.9790, 95579.71
918.4611, 95708.48
918.9432, 95738.98
919.4254, 95774.05
919.9075, 95818.70
920.3896, 95921.32
920.8717, 96135.38
921.3538, 96392.57
921.8359, 96620.15
922.3181, 96810.88
922.8002, 96996.91
923.2823, 97171.90
923.7644, 97364.98
924.2465, 97613.07
924.7286, 97890.84
925.2108, 98163.71
925.6929, 98429.41
926.1750, 98654.03
926.6571, 98787.13
927.1392, 98907.03
927.6213, 99065.89
928.1035, 99264.66
928.5856, 99457.01
929.0677, 99643.02
929.5498, 99837.42
930.0319, 100092.1
930.5140, 100348.2
930.9962, 100453.3
931.4783, 100444.3
931.9604, 100519.7
932.4425, 100841.2
932.9246, 101196.0
933.4067, 101493.8
933.8889, 101753.9
934.3710, 102071.1
934.8531, 102463.7
935.3352, 102782.3
935.8173, 102940.3
936.2994, 103054.5
936.7816, 103305.6
937.2637, 103659.0
937.7458, 104034.5
938.2279, 104442.3
938.7100, 104810.3
939.1921, 105080.8
939.6743, 105310.7
940.1564, 105572.9
940.6385, 105874.2
941.1206, 106183.1
941.6027, 106514.3
942.0848, 106794.0
942.5670, 106880.6
943.0491, 106882.2
943.5312, 107007.2
944.0133, 107308.4
944.4954, 107529.9
944.9775, 107501.7
945.4597, 107421.4
945.9418, 107416.3
946.4239, 107492.5
946.9060, 107503.6
947.3881, 107448.3
947.8702, 107351.4
948.3524, 107209.5
948.8345, 107047.9
949.3166, 106928.7
949.7987, 106830.9
950.2808, 106663.9
950.7629, 106287.9
951.2451, 105959.3
951.7272, 105795.0
952.2093, 105717.8
952.6914, 105514.4
953.1735, 105175.0
953.6556, 104834.5
954.1378, 104528.9
954.6199, 104245.9
955.1020, 103968.9
955.5841, 103702.4
956.0662, 103457.8
956.5483, 103286.0
957.0305, 103049.9
957.5126, 102684.1
957.9947, 102286.5
958.4768, 101924.0
958.9589, 101594.5
959.4410, 101382.1
959.9232, 101297.7
960.4053, 101241.8
960.8874, 101146.1
961.3695, 101018.2
961.8516, 100853.6
962.3337, 100651.7
962.8159, 100472.8
963.2980, 100316.5
963.7801, 100199.6
964.2622, 100143.8
964.7443, 100130.0
965.2264, 100068.9
965.7086, 99962.38
966.1907, 99825.29
966.6728, 99622.82
967.1549, 99435.23
967.6370, 99330.52
968.1191, 99293.72
968.6013, 99297.17
969.0834, 99383.91
969.5655, 99436.51
970.0476, 99451.48
970.5297, 99419.35
971.0118, 99271.23
971.4940, 99052.64
971.9761, 98987.76
972.4582, 99133.74
972.9403, 99306.32
973.4224, 99395.23
973.9045, 99439.73
974.3867, 99459.94
974.8688, 99441.86
975.3509, 99509.43
975.8330, 99707.03
976.3151, 99862.45
976.7972, 99797.79
977.2794, 99619.45
977.7615, 99669.26
978.2436, 99903.80
978.7257, 100095.3
979.2078, 100070.0
979.6899, 100026.0
980.1720, 100049.0
980.6541, 100122.8
981.1362, 100205.8
981.6183, 100301.1
982.1005, 100391.8
982.5826, 100474.1
983.0647, 100554.6
983.5468, 100660.7
984.0289, 100767.1
984.5110, 100819.1
984.9932, 100783.0
985.4753, 100755.5
985.9574, 100789.9
986.4395, 100824.6
986.9216, 100807.6
987.4037, 100730.3
987.8859, 100719.4
988.3680, 100777.8
988.8501, 100841.2
989.3322, 100817.7
989.8143, 100804.5
990.2964, 100970.6
990.7786, 101275.2
991.2607, 101419.9
991.7428, 101202.6
992.2249, 101012.5
992.7070, 100938.9
993.1891, 100947.3
993.6713, 100952.5
994.1534, 100959.8
994.6355, 101005.4
995.1176, 101116.8
995.5997, 101231.0
996.0818, 101312.1
996.5640, 101363.2
997.0461, 101382.9
997.5282, 101352.6
998.0103, 101340.3
998.4924, 101352.9
998.9745, 101362.7
999.4567, 101322.3
999.9388, 101264.9
1000.421, 101287.3
1000.903, 101387.0
1001.385, 101497.4
1001.867, 101619.4
1002.349, 101702.6
1002.831, 101684.4
1003.314, 101605.3
1003.796, 101637.3
1004.278, 101799.2
1004.760, 101899.2
1005.242, 101859.5
1005.724, 101773.3
1006.206, 101761.3
1006.688, 101792.7
1007.171, 101815.3
1007.653, 101819.3
1008.135, 101805.9
1008.617, 101738.3
1009.099, 101701.2
1009.581, 101785.3
1010.063, 101981.9
1010.545, 102143.2
1011.027, 102264.5
1011.510, 102341.5
1011.992, 102343.6
1012.474, 102319.5
1012.956, 102293.3
1013.438, 102269.8
1013.920, 102279.9
1014.402, 102343.6
1014.884, 102382.1
1015.367, 102358.6
1015.849, 102322.4
1016.331, 102408.0
1016.813, 102557.1
1017.295, 102605.9
1017.777, 102436.9
1018.259, 102320.7
1018.741, 102433.3
1019.223, 102600.5
1019.706, 102678.1
1020.188, 102654.9
1020.670, 102591.6
1021.152, 102479.5
1021.634, 102432.2
1022.116, 102602.8
1022.598, 102842.1
1023.080, 102981.7
1023.563, 103027.4
1024.045, 103065.4
1024.527, 103094.9
1025.009, 103146.3
1025.491, 103239.3
1025.973, 103338.2
1026.455, 103348.2
1026.937, 103291.6
1027.419, 103272.7
1027.901, 103323.4
1028.384, 103402.9
1028.866, 103527.6
1029.348, 103641.3
1029.830, 103684.3
1030.312, 103643.3
1030.794, 103625.2
1031.276, 103638.5
1031.758, 103647.0
1032.241, 103617.1
1032.723, 103573.9
1033.205, 103544.4
1033.687, 103534.8
1034.169, 103562.7
1034.651, 103647.6
1035.133, 103757.2
1035.615, 103907.4
1036.098, 104051.8
1036.580, 104073.6
1037.062, 103991.2
1037.544, 104011.8
1038.026, 104190.5
1038.508, 104359.7
1038.990, 104369.4
1039.472, 104312.8
1039.954, 104268.8
1040.437, 104245.6
1040.919, 104240.9
1041.401, 104261.3
1041.883, 104289.9
1042.365, 104343.0
1042.847, 104387.2
1043.329, 104307.1
1043.811, 104158.5
1044.293, 104096.6
1044.776, 104306.8
1045.258, 104456.4
1045.740, 104428.4
1046.222, 104339.6
1046.704, 104344.7
1047.186, 104439.6
1047.668, 104463.5
1048.150, 104395.4
1048.633, 104339.0
1049.115, 104406.0
1049.597, 104502.5
1050.079, 104530.7
1050.561, 104485.6
1051.043, 104538.2
1051.525, 104733.8
1052.007, 104897.5
1052.490, 104959.7
1052.972, 104964.3
1053.454, 104976.9
1053.936, 104998.2
1054.418, 105031.2
1054.900, 105069.7
1055.382, 105126.4
1055.864, 105226.3
1056.346, 105319.3
1056.828, 105363.7
1057.311, 105358.7
1057.793, 105325.9
1058.275, 105266.5
1058.757, 105234.1
1059.239, 105277.5
1059.721, 105355.4
1060.203, 105495.3
1060.685, 105654.6
1061.168, 105640.4
1061.650, 105377.6
1062.132, 105179.5
1062.614, 105118.4
1063.096, 105122.8
1063.578, 105106.4
1064.060, 105077.6
1064.542, 105043.2
1065.025, 104996.2
1065.507, 104989.2
1065.989, 105096.1
1066.471, 105180.6
1066.953, 105162.2
1067.435, 105063.3
1067.917, 105031.7
1068.399, 105063.1
1068.881, 105124.1
1069.364, 105244.7
1069.846, 105336.0
1070.328, 105286.1
1070.810, 105189.0
1071.292, 105210.8
1071.774, 105403.5
1072.256, 105518.5
1072.738, 105527.8
1073.220, 105503.8
1073.703, 105522.7
1074.185, 105547.9
1074.667, 105509.3
1075.149, 105410.9
1075.631, 105371.4
1076.113, 105478.4
1076.595, 105570.6
1077.077, 105616.1
1077.559, 105618.9
1078.042, 105567.8
1078.524, 105481.1
1079.006, 105414.0
1079.488, 105382.3
1079.970, 105380.3
1080.452, 105446.5
1080.934, 105509.2
1081.416, 105504.2
1081.899, 105426.6
1082.381, 105373.6
1082.863, 105342.4
1083.345, 105370.2
1083.827, 105542.8
1084.309, 105725.7
1084.791, 105766.2
1085.273, 105717.8
1085.755, 105716.4
1086.238, 105815.9
1086.720, 105879.4
1087.202, 105891.6
1087.684, 105878.3
1088.166, 105850.2
1088.648, 105825.8
1089.130, 105847.7
1089.612, 105919.9
1090.094, 105998.5
1090.577, 106109.4
1091.059, 106171.8
1091.541, 106126.1
1092.023, 106035.7
1092.505, 106117.7
1092.987, 106338.2
1093.469, 106467.8
1093.951, 106407.8
1094.434, 106339.7
1094.916, 106417.6
1095.398, 106524.1
1095.880, 106525.9
1096.362, 106395.7
1096.844, 106405.0
1097.326, 106566.8
1097.808, 106728.9
1098.291, 106794.8
1098.773, 106816.7
1099.255, 106869.1
1099.737, 106926.1
1100.219, 106923.8
1100.701, 106784.6
1101.183, 106707.7
1101.665, 106724.1
1102.147, 106764.5
1102.630, 106734.0
1103.112, 106674.4
1103.594, 106696.8
1104.076, 106801.1
1104.558, 106880.3
1105.040, 106885.1
1105.522, 106849.0
1106.004, 106757.7
1106.486, 106651.6
1106.969, 106655.3
1107.451, 106749.1
1107.933, 106807.8
1108.415, 106799.5
1108.897, 106758.3
1109.379, 106697.1
1109.861, 106624.4
1110.343, 106537.9
1110.826, 106439.0
1111.308, 106412.7
1111.790, 106466.3
1112.272, 106511.7
1112.754, 106492.8
1113.236, 106460.6
1113.718, 106473.6
1114.200, 106510.8
1114.682, 106534.4
1115.165, 106525.1
1115.647, 106526.3
1116.129, 106544.2
1116.611, 106547.0
1117.093, 106489.5
1117.575, 106402.5
1118.057, 106338.5
1118.539, 106299.2
1119.021, 106280.8
1119.504, 106293.6
1119.986, 106319.7
1120.468, 106371.4
1120.950, 106419.9
1121.432, 106401.4
1121.914, 106338.0
1122.396, 106312.2
1122.878, 106340.7
1123.361, 106372.5
1123.843, 106372.5
1124.325, 106377.7
1124.807, 106412.9
1125.289, 106469.3
1125.771, 106484.7
1126.253, 106464.0
1126.735, 106517.8
1127.218, 106716.0
1127.700, 106915.9
1128.182, 106986.2
1128.664, 107000.5
1129.146, 107037.9
1129.628, 107098.3
1130.110, 107192.3
1130.592, 107327.3
1131.074, 107409.2
1131.557, 107321.9
1132.039, 107192.2
1132.521, 107190.5
1133.003, 107265.5
1133.485, 107303.8
1133.967, 107281.8
1134.449, 107242.4
1134.931, 107191.0
1135.413, 107127.5
1135.896, 107049.4
1136.378, 106964.8
1136.860, 106870.2
1137.342, 106774.7
1137.824, 106726.0
1138.306, 106788.4
1138.788, 106835.3
1139.270, 106836.5
1139.752, 106810.1
1140.235, 106761.1
1140.717, 106709.8
1141.199, 106733.2
1141.681, 106848.0
1142.163, 106966.0
1142.645, 107108.1
1143.127, 107163.0
1143.609, 107048.5
1144.092, 106820.9
1144.574, 106730.6
1145.056, 106756.8
1145.538, 106741.8
1146.020, 106617.1
1146.502, 106493.6
1146.984, 106448.9
1147.466, 106443.4
1147.948, 106441.3
1148.431, 106443.6
1148.913, 106443.5
1149.395, 106440.6
1149.877, 106487.6
1150.359, 106664.4
1150.841, 106844.9
1151.323, 106924.3
1151.805, 106936.2
1152.287, 106937.4
1152.770, 106907.8
1153.252, 106941.9
1153.734, 107048.1
1154.216, 107169.9
1154.698, 107288.9
1155.180, 107374.5
1155.662, 107366.3
1156.144, 107289.5
1156.627, 107267.8
1157.109, 107359.4
1157.591, 107384.5
1158.073, 107304.9
1158.555, 107197.5
1159.037, 107138.5
1159.519, 107120.5
1160.001, 107141.5
1160.484, 107199.4
1160.966, 107251.2
1161.448, 107315.1
1161.930, 107315.0
1162.412, 107211.3
1162.894, 107059.7
1163.376, 106953.3
1163.858, 106883.7
1164.340, 106833.9
1164.823, 106801.3
1165.305, 106794.1
1165.787, 106867.9
1166.269, 106896.3
1166.751, 106789.6
1167.233, 106616.0
1167.715, 106623.8
1168.197, 106763.4
1168.679, 106855.4
1169.162, 106803.3
1169.644, 106754.6
1170.126, 106719.9
1170.608, 106741.8
1171.090, 106872.1
1171.572, 107093.3
1172.054, 107273.2
1172.536, 107410.2
1173.019, 107515.6
1173.501, 107588.6
1173.983, 107636.5
1174.465, 107653.6
1174.947, 107651.0
1175.429, 107624.6
1175.911, 107577.0
1176.393, 107632.0
1176.875, 107790.8
1177.358, 107900.2
1177.840, 107802.5
1178.322, 107679.8
1178.804, 107629.3
1179.286, 107637.8
1179.768, 107691.5
1180.250, 107792.6
1180.732, 107837.9
1181.214, 107807.0
1181.697, 107795.1
1182.179, 107914.8
1182.661, 108052.9
1183.143, 108122.0
1183.625, 108127.6
1184.107, 108110.8
1184.589, 108067.6
1185.071, 108034.1
1185.554, 108018.3
1186.036, 108014.1
1186.518, 108031.0
1187.000, 108047.2
1187.482, 108044.5
1187.964, 108022.4
1188.446, 107964.6
1188.928, 107864.8
1189.411, 107794.3
1189.893, 107795.7
1190.375, 107806.8
1190.857, 107724.5
1191.339, 107629.2
1191.821, 107636.0
1192.303, 107784.9
1192.785, 107864.2
1193.267, 107863.0
1193.750, 107850.9
1194.232, 107859.9
1194.714, 107880.6
1195.196, 107916.3
1195.678, 107950.1
1196.160, 107949.5
1196.642, 107876.7
1197.124, 107857.3
1197.606, 107899.5
1198.089, 107951.5
1198.571, 107984.0
1199.053, 107998.6
1199.535, 107981.3
1200.017, 107949.9
1200.499, 107949.7
1200.981, 107999.4
1201.463, 108059.0
1201.945, 108130.0
1202.428, 108193.4
1202.910, 108225.8
1203.392, 108243.2
1203.874, 108272.9
1204.356, 108309.4
1204.838, 108318.0
1205.320, 108248.4
1205.802, 108270.1
1206.285, 108430.8
1206.767, 108590.5
1207.249, 108537.0
1207.731, 108411.2
1208.213, 108431.9
1208.695, 108598.2
1209.177, 108702.5
1209.659, 108678.3
1210.141, 108694.7
1210.624, 108792.9
1211.106, 108922.0
1211.588, 109060.5
1212.070, 109161.5
1212.552, 109102.1
1213.034, 108860.4
1213.516, 108840.5
1213.998, 109211.9
1214.480, 109437.8
1214.963, 109324.4
1215.445, 109077.4
1215.927, 108991.9
1216.409, 109003.1
1216.891, 109021.2
1217.373, 109036.5
1217.855, 109020.6
1218.337, 108943.0
1218.820, 108928.2
1219.302, 109065.6
1219.784, 109232.0
1220.266, 109187.8
1220.748, 109035.7
1221.230, 108936.6
1221.712, 108921.4
1222.194, 108994.7
1222.677, 109187.0
1223.159, 109364.1
1223.641, 109449.5
1224.123, 109485.0
1224.605, 109520.4
1225.087, 109563.6
1225.569, 109635.4
1226.051, 109790.4
1226.533, 109837.6
1227.016, 109736.0
1227.498, 109649.1
1227.980, 109696.1
1228.462, 109809.4
1228.944, 109902.5
1229.426, 109976.2
1229.908, 110029.5
1230.390, 110028.8
1230.872, 110088.9
1231.355, 110232.7
1231.837, 110357.0
1232.319, 110321.7
1232.801, 110262.1
1233.283, 110412.1
1233.765, 110687.1
1234.247, 110850.4
1234.729, 110786.6
1235.212, 110809.6
1235.694, 110948.3
1236.176, 111098.0
1236.658, 111170.0
1237.140, 111194.0
1237.622, 111183.5
1238.104, 111153.8
1238.586, 111157.2
1239.068, 111212.0
1239.551, 111249.3
1240.033, 111261.5
1240.515, 111276.8
1240.997, 111352.4
1241.479, 111426.0
1241.961, 111419.6
1242.443, 111353.1
1242.925, 111312.4
1243.407, 111299.5
1243.890, 111328.6
1244.372, 111405.3
1244.854, 111490.4
1245.336, 111503.4
1245.818, 111533.4
1246.300, 111686.4
1246.782, 111935.4
1247.264, 112116.2
1247.747, 112220.6
1248.229, 112298.8
1248.711, 112365.4
1249.193, 112354.8
1249.675, 112101.3
1250.157, 111839.5
1250.639, 111809.4
1251.121, 111955.4
1251.604, 112013.0
1252.086, 111982.9
1252.568, 111923.6
1253.050, 111840.0
1253.532, 111801.6
1254.014, 111933.6
1254.496, 112073.4
1254.978, 112058.7
1255.460, 111947.1
1255.943, 111991.8
1256.425, 112179.4
1256.907, 112326.6
1257.389, 112379.9
1257.871, 112431.3
1258.353, 112546.4
1258.835, 112676.8
1259.317, 112819.7
1259.799, 112944.5
1260.281, 112874.0
1260.764, 112655.5
1261.246, 112585.1
1261.728, 112791.7
1262.210, 112954.3
1262.692, 112863.3
1263.174, 112733.4
1263.656, 112676.3
1264.138, 112676.6
1264.621, 112691.6
1265.103, 112713.9
1265.585, 112697.4
1266.067, 112603.4
1266.549, 112572.6
1267.031, 112674.7
1267.513, 112827.4
1267.995, 113005.1
1268.478, 113195.2
1268.960, 113345.5
1269.442, 113485.2
1269.924, 113706.6
1270.406, 114093.6
1270.888, 114362.0
1271.370, 114439.5
1271.852, 114456.9
1272.334, 114451.4
1272.817, 114454.3
1273.299, 114554.6
1273.781, 114708.5
1274.263, 114838.7
1274.745, 114937.1
1275.227, 114971.9
1275.709, 114932.6
1276.191, 114884.4
1276.673, 114857.9
1277.156, 114855.3
1277.638, 114926.4
1278.120, 115007.0
1278.602, 114970.7
1279.084, 114732.4
1279.566, 114678.5
1280.048, 114837.1
1280.530, 114983.3
1281.013, 114944.3
1281.495, 114900.6
1281.977, 115067.9
1282.459, 115328.1
1282.941, 115520.9
1283.423, 115638.1
1283.905, 115657.7
1284.387, 115577.8
1284.870, 115563.8
1285.352, 115779.7
1285.834, 115987.7
1286.316, 116024.8
1286.798, 115968.9
1287.280, 115882.3
1287.762, 115766.3
1288.244, 115887.9
1288.726, 116205.5
1289.208, 116408.6
1289.691, 116200.1
1290.173, 116032.9
1290.655, 116165.0
1291.137, 116349.4
1291.619, 116384.4
1292.101, 116295.5
1292.583, 116278.5
1293.065, 116341.9
1293.548, 116425.7
1294.030, 116534.7
1294.512, 116585.6
##END=



