##NAMES=Struvite
##RRUFFID=R050540
##IDEAL CHEMISTRY=(N^3-^H_4_)MgPO_4_&#183;6H_2_O
##LOCALITY=Hamburg, Germany
##OWNER=RRUFF
##SOURCE=University of Arizona Mineral Museum
##DESCRIPTION=Yellowish-brown wedge-shaped crystal
##STATUS=The identification of this mineral has been confirmed by X-ray diffraction and chemical analysis
##URL=rruff.info/R050540
##MEASURED CHEMISTRY=(NH_4_)(Mg_0.74_Fe^2+^_0.14_Ca_0.09_Mn_0.03_)_Σ=1_(P_1.00_O_4_)·6H_2_O ; NH_4_ not measured but estimated by charge balance.
92.37695, 4289.032
92.85907, 4235.677
93.34119, 4248.198
93.82330, 4292.179
94.30542, 4323.154
94.78754, 4332.967
95.26965, 4330.394
95.75177, 4320.492
96.23389, 4307.306
96.71600, 4289.571
97.19812, 4268.732
97.68024, 4245.536
98.16235, 4222.018
98.64447, 4200.404
99.12659, 4175.290
99.60870, 4153.299
100.0908, 4127.056
100.5729, 4103.566
101.0551, 4082.118
101.5372, 4061.479
102.0193, 4041.635
102.5014, 4025.590
102.9835, 4012.454
103.4656, 4003.498
103.9478, 4001.290
104.4299, 4003.092
104.9120, 4003.969
105.3941, 3999.647
105.8762, 3989.099
106.3583, 3982.837
106.8405, 3981.691
107.3226, 3981.856
107.8047, 3981.281
108.2868, 3979.717
108.7689, 3978.060
109.2510, 3977.368
109.7332, 3977.628
110.2153, 3977.597
110.6974, 3976.370
111.1795, 3974.861
111.6616, 3974.367
112.1437, 3975.060
112.6259, 3977.063
113.1080, 3980.961
113.5901, 3986.574
114.0722, 3991.846
114.5543, 3995.459
115.0364, 3997.462
115.5185, 3998.802
116.0007, 3998.931
116.4828, 3998.929
116.9649, 3999.948
117.4470, 4002.063
117.9291, 4003.671
118.4112, 4002.119
118.8934, 3995.295
119.3755, 3990.400
119.8576, 3989.183
120.3397, 3989.318
120.8218, 3989.238
121.3039, 3988.277
121.7861, 3986.489
122.2682, 3984.047
122.7503, 3979.628
123.2324, 3975.895
123.7145, 3973.457
124.1966, 3971.716
124.6788, 3969.767
125.1609, 3967.000
125.6430, 3963.581
126.1251, 3961.030
126.6072, 3958.771
127.0893, 3957.617
127.5715, 3958.174
128.0536, 3960.266
128.5357, 3963.083
129.0178, 3966.451
129.4999, 3970.109
129.9821, 3972.765
130.4642, 3972.848
130.9463, 3972.747
131.4284, 3975.581
131.9105, 3982.157
132.3926, 3988.433
132.8748, 3990.790
133.3569, 3990.696
133.8390, 3990.425
134.3211, 3990.521
134.8032, 3991.140
135.2853, 3992.866
135.7674, 3996.184
136.2496, 4000.134
136.7317, 4005.289
137.2138, 4010.816
137.6959, 4014.641
138.1780, 4014.121
138.6601, 4008.559
139.1423, 4006.182
139.6244, 4011.281
140.1065, 4016.144
140.5886, 4016.925
141.0707, 4014.081
141.5528, 4011.082
142.0350, 4012.172
142.5171, 4019.250
142.9992, 4025.832
143.4813, 4032.828
143.9634, 4038.807
144.4455, 4042.470
144.9277, 4043.590
145.4098, 4043.445
145.8919, 4044.124
146.3740, 4046.438
146.8561, 4048.017
147.3382, 4048.302
147.8204, 4047.941
148.3025, 4047.822
148.7846, 4048.324
149.2667, 4048.928
149.7488, 4048.531
150.2309, 4047.203
150.7131, 4045.262
151.1952, 4042.735
151.6773, 4039.678
152.1594, 4036.337
152.6415, 4032.936
153.1236, 4029.083
153.6058, 4024.301
154.0879, 4018.418
154.5700, 4012.219
155.0521, 4006.192
155.5342, 4000.344
156.0163, 3994.891
156.4985, 3990.595
156.9806, 3986.418
157.4627, 3981.843
157.9448, 3976.919
158.4269, 3970.768
158.9090, 3961.350
159.3912, 3946.700
159.8733, 3933.785
160.3554, 3925.410
160.8375, 3918.767
161.3196, 3911.543
161.8017, 3902.785
162.2839, 3892.747
162.7660, 3882.221
163.2481, 3870.491
163.7302, 3859.196
164.2123, 3848.046
164.6944, 3837.567
165.1766, 3828.590
165.6587, 3821.598
166.1408, 3816.310
166.6229, 3810.657
167.1050, 3805.722
167.5871, 3799.297
168.0693, 3789.368
168.5514, 3777.589
169.0335, 3767.118
169.5156, 3760.151
169.9977, 3756.448
170.4798, 3752.428
170.9620, 3747.642
171.4441, 3743.051
171.9262, 3739.201
172.4083, 3735.999
172.8904, 3732.782
173.3725, 3728.716
173.8547, 3724.231
174.3368, 3721.862
174.8189, 3724.015
175.3010, 3726.594
175.7831, 3725.745
176.2652, 3721.228
176.7474, 3716.657
177.2295, 3714.837
177.7116, 3715.010
178.1937, 3715.463
178.6758, 3716.547
179.1579, 3717.455
179.6401, 3716.560
180.1222, 3713.083
180.6043, 3710.093
181.0864, 3710.619
181.5685, 3712.819
182.0506, 3713.599
182.5328, 3710.458
183.0149, 3704.989
183.4970, 3702.358
183.9791, 3704.299
184.4612, 3706.599
184.9433, 3707.948
185.4255, 3708.301
185.9076, 3707.526
186.3897, 3705.245
186.8718, 3701.632
187.3539, 3698.692
187.8360, 3698.299
188.3182, 3696.527
188.8003, 3691.156
189.2824, 3683.515
189.7645, 3676.372
190.2466, 3672.178
190.7287, 3671.112
191.2109, 3668.179
191.6930, 3661.806
192.1751, 3655.074
192.6572, 3648.379
193.1393, 3642.096
193.6214, 3636.839
194.1036, 3633.404
194.5857, 3632.224
195.0678, 3629.079
195.5499, 3621.350
196.0320, 3614.444
196.5141, 3611.791
196.9963, 3612.786
197.4784, 3613.920
197.9605, 3611.803
198.4426, 3605.805
198.9247, 3601.251
199.4068, 3598.314
199.8890, 3596.495
200.3711, 3596.250
200.8532, 3597.354
201.3353, 3597.753
201.8174, 3595.012
202.2995, 3588.920
202.7817, 3585.044
203.2638, 3585.534
203.7459, 3587.202
204.2280, 3587.218
204.7101, 3585.265
205.1922, 3582.180
205.6744, 3577.548
206.1565, 3572.017
206.6386, 3569.041
207.1207, 3571.803
207.6028, 3576.571
208.0849, 3577.891
208.5671, 3574.701
209.0492, 3570.741
209.5313, 3569.112
210.0134, 3568.982
210.4955, 3568.703
210.9776, 3567.225
211.4598, 3565.241
211.9419, 3564.468
212.4240, 3565.545
212.9061, 3566.531
213.3882, 3566.382
213.8703, 3565.339
214.3525, 3563.714
214.8346, 3561.170
215.3167, 3558.156
215.7988, 3556.461
216.2809, 3556.709
216.7630, 3557.385
217.2451, 3558.452
217.7273, 3559.373
218.2094, 3559.147
218.6915, 3556.813
219.1736, 3552.816
219.6557, 3549.961
220.1378, 3549.617
220.6200, 3548.762
221.1021, 3545.739
221.5842, 3541.696
222.0663, 3538.612
222.5484, 3538.027
223.0305, 3539.580
223.5127, 3539.702
223.9948, 3535.885
224.4769, 3533.276
224.9590, 3534.139
225.4411, 3536.860
225.9232, 3538.735
226.4054, 3537.974
226.8875, 3534.749
227.3696, 3530.814
227.8517, 3523.485
228.3338, 3518.329
228.8159, 3517.686
229.2981, 3520.034
229.7802, 3522.674
230.2623, 3523.862
230.7444, 3523.776
231.2265, 3524.390
231.7086, 3528.267
232.1908, 3530.032
232.6729, 3526.330
233.1550, 3519.556
233.6371, 3514.641
234.1192, 3514.868
234.6013, 3519.256
235.0835, 3520.397
235.5656, 3515.810
236.0477, 3511.372
236.5298, 3508.484
237.0119, 3507.034
237.4940, 3506.717
237.9762, 3507.498
238.4583, 3509.142
238.9404, 3510.569
239.4225, 3513.767
239.9046, 3514.691
240.3867, 3510.616
240.8689, 3503.087
241.3510, 3495.685
241.8331, 3489.851
242.3152, 3485.729
242.7973, 3483.667
243.2794, 3484.967
243.7616, 3485.912
244.2437, 3484.894
244.7258, 3482.269
245.2079, 3478.957
245.6900, 3475.039
246.1721, 3471.022
246.6543, 3467.717
247.1364, 3464.942
247.6185, 3463.224
248.1006, 3464.126
248.5827, 3466.634
249.0648, 3466.783
249.5470, 3462.185
250.0291, 3455.820
250.5112, 3452.443
250.9933, 3452.512
251.4754, 3452.323
251.9576, 3449.488
252.4397, 3444.536
252.9218, 3439.751
253.4039, 3435.784
253.8860, 3432.090
254.3681, 3427.113
254.8503, 3420.802
255.3324, 3417.070
255.8145, 3421.223
256.2966, 3431.101
256.7787, 3435.066
257.2608, 3427.717
257.7430, 3418.274
258.2251, 3414.644
258.7072, 3416.164
259.1893, 3418.391
259.6714, 3418.791
260.1535, 3417.608
260.6357, 3415.949
261.1178, 3413.037
261.5999, 3410.953
262.0820, 3411.957
262.5641, 3414.964
263.0462, 3416.621
263.5284, 3412.931
264.0105, 3405.316
264.4926, 3402.702
264.9747, 3408.780
265.4568, 3414.756
265.9389, 3415.282
266.4211, 3412.562
266.9032, 3411.203
267.3853, 3414.585
267.8674, 3421.440
268.3495, 3426.173
268.8316, 3427.324
269.3138, 3428.445
269.7959, 3431.173
270.2780, 3434.672
270.7601, 3437.722
271.2422, 3439.706
271.7243, 3440.781
272.2065, 3441.164
272.6886, 3439.430
273.1707, 3439.576
273.6528, 3443.400
274.1349, 3449.103
274.6170, 3454.752
275.0992, 3459.558
275.5813, 3463.628
276.0634, 3467.216
276.5455, 3470.520
277.0276, 3472.901
277.5097, 3473.624
277.9919, 3473.877
278.4740, 3474.491
278.9561, 3475.780
279.4382, 3478.067
279.9203, 3482.379
280.4024, 3490.579
280.8846, 3496.732
281.3667, 3498.363
281.8488, 3499.269
282.3309, 3502.691
282.8130, 3509.252
283.2951, 3516.608
283.7773, 3521.047
284.2594, 3520.858
284.7415, 3521.984
285.2236, 3526.789
285.7057, 3531.090
286.1878, 3531.524
286.6700, 3528.224
287.1521, 3524.477
287.6342, 3524.208
288.1163, 3528.441
288.5984, 3532.194
289.0805, 3536.254
289.5627, 3539.171
290.0448, 3539.672
290.5269, 3538.201
291.0090, 3536.294
291.4911, 3535.215
291.9732, 3534.934
292.4554, 3535.871
292.9375, 3541.926
293.4196, 3545.309
293.9017, 3541.489
294.3838, 3532.889
294.8659, 3524.960
295.3481, 3521.723
295.8302, 3522.739
296.3123, 3522.199
296.7944, 3519.127
297.2765, 3515.449
297.7586, 3511.049
298.2408, 3506.372
298.7229, 3502.253
299.2050, 3499.240
299.6871, 3496.750
300.1692, 3492.484
300.6513, 3483.891
301.1335, 3476.595
301.6156, 3471.944
302.0977, 3468.520
302.5798, 3464.593
303.0619, 3459.517
303.5440, 3454.167
304.0262, 3450.347
304.5083, 3449.131
304.9904, 3448.042
305.4725, 3447.892
305.9546, 3447.336
306.4367, 3444.666
306.9189, 3439.750
307.4010, 3434.585
307.8831, 3432.222
308.3652, 3434.676
308.8473, 3434.565
309.3294, 3430.387
309.8116, 3425.281
310.2937, 3421.038
310.7758, 3417.789
311.2579, 3414.667
311.7400, 3410.704
312.2221, 3405.523
312.7043, 3402.036
313.1864, 3402.056
313.6685, 3401.728
314.1506, 3398.780
314.6327, 3394.142
315.1148, 3390.590
315.5970, 3390.468
316.0791, 3393.308
316.5612, 3392.507
317.0433, 3383.687
317.5254, 3376.108
318.0075, 3372.039
318.4897, 3370.385
318.9718, 3369.598
319.4539, 3368.931
319.9360, 3368.126
320.4181, 3366.311
320.9002, 3362.065
321.3824, 3358.563
321.8645, 3356.036
322.3466, 3354.266
322.8287, 3353.185
323.3108, 3352.733
323.7929, 3352.566
324.2751, 3352.147
324.7572, 3351.681
325.2393, 3350.461
325.7214, 3347.605
326.2035, 3344.734
326.6856, 3343.181
327.1678, 3342.956
327.6499, 3342.879
328.1320, 3341.579
328.6141, 3338.656
329.0962, 3336.483
329.5783, 3336.320
330.0605, 3335.611
330.5426, 3333.409
331.0247, 3329.730
331.5068, 3324.653
331.9889, 3317.876
332.4710, 3309.688
332.9532, 3304.845
333.4353, 3307.021
333.9174, 3308.704
334.3995, 3309.037
334.8816, 3307.872
335.3637, 3304.470
335.8459, 3298.365
336.3280, 3291.272
336.8101, 3288.826
337.2922, 3297.626
337.7743, 3301.130
338.2564, 3294.294
338.7386, 3284.244
339.2206, 3277.212
339.7028, 3274.904
340.1849, 3274.954
340.6670, 3273.980
341.1491, 3272.008
341.6312, 3268.856
342.1133, 3262.190
342.5955, 3256.428
343.0776, 3255.190
343.5597, 3257.708
344.0418, 3259.791
344.5239, 3257.002
345.0060, 3248.895
345.4882, 3243.771
345.9703, 3245.291
346.4524, 3246.405
346.9345, 3244.646
347.4166, 3241.184
347.8987, 3238.409
348.3809, 3237.897
348.8630, 3238.978
349.3451, 3238.938
349.8272, 3237.234
350.3093, 3235.108
350.7914, 3232.929
351.2736, 3230.429
351.7557, 3226.992
352.2378, 3222.413
352.7199, 3217.825
353.2020, 3215.414
353.6841, 3216.118
354.1663, 3216.089
354.6484, 3214.152
355.1305, 3211.949
355.6126, 3210.150
356.0947, 3208.954
356.5768, 3208.547
357.0590, 3210.045
357.5411, 3213.656
358.0232, 3213.881
358.5053, 3207.134
358.9874, 3200.907
359.4695, 3198.761
359.9517, 3199.469
360.4338, 3200.359
360.9159, 3200.011
361.3980, 3198.673
361.8801, 3196.907
362.3622, 3194.245
362.8444, 3192.240
363.3265, 3191.540
363.8086, 3191.656
364.2907, 3192.537
364.7728, 3194.410
365.2549, 3195.634
365.7371, 3193.542
366.2192, 3187.682
366.7013, 3182.470
367.1834, 3178.552
367.6655, 3176.024
368.1476, 3175.476
368.6298, 3176.768
369.1119, 3178.051
369.5940, 3177.977
370.0761, 3176.765
370.5582, 3175.457
371.0403, 3174.317
371.5225, 3172.760
372.0046, 3169.851
372.4867, 3166.244
372.9688, 3163.446
373.4509, 3162.204
373.9330, 3161.987
374.4152, 3162.583
374.8973, 3164.234
375.3794, 3164.425
375.8615, 3160.101
376.3436, 3154.367
376.8257, 3152.451
377.3079, 3156.582
377.7900, 3160.064
378.2721, 3156.688
378.7542, 3148.110
379.2363, 3141.524
379.7184, 3138.891
380.2006, 3139.000
380.6827, 3141.217
381.1648, 3145.522
381.6469, 3148.407
382.1290, 3148.259
382.6111, 3146.250
383.0933, 3144.046
383.5754, 3141.856
384.0575, 3138.898
384.5396, 3133.797
385.0217, 3127.124
385.5038, 3122.788
385.9860, 3122.781
386.4681, 3123.482
386.9502, 3122.915
387.4323, 3121.252
387.9144, 3119.120
388.3965, 3116.708
388.8787, 3114.190
389.3608, 3111.984
389.8429, 3109.756
390.3250, 3108.373
390.8071, 3108.871
391.2892, 3109.931
391.7714, 3109.972
392.2535, 3108.638
392.7356, 3106.472
393.2177, 3103.913
393.6998, 3100.644
394.1819, 3098.816
394.6641, 3100.810
395.1462, 3101.971
395.6283, 3098.366
396.1104, 3091.456
396.5925, 3086.103
397.0746, 3085.656
397.5568, 3089.069
398.0389, 3090.444
398.5210, 3088.815
399.0031, 3086.214
399.4852, 3081.686
399.9673, 3076.820
400.4495, 3073.374
400.9316, 3071.882
401.4137, 3071.426
401.8958, 3070.573
402.3779, 3068.875
402.8600, 3068.031
403.3422, 3068.566
403.8243, 3069.336
404.3064, 3069.968
404.7885, 3070.330
405.2706, 3070.410
405.7527, 3070.339
406.2349, 3069.947
406.7170, 3067.758
407.1991, 3061.835
407.6812, 3056.882
408.1633, 3053.922
408.6454, 3052.444
409.1276, 3052.322
409.6097, 3053.565
410.0918, 3054.809
410.5739, 3053.708
411.0560, 3049.723
411.5381, 3046.336
412.0203, 3043.562
412.5024, 3042.078
412.9845, 3043.490
413.4666, 3047.047
413.9487, 3049.354
414.4308, 3046.406
414.9130, 3040.118
415.3951, 3038.531
415.8772, 3043.951
416.3593, 3048.394
416.8414, 3045.385
417.3235, 3039.296
417.8057, 3036.255
418.2878, 3038.881
418.7699, 3042.598
419.2520, 3042.980
419.7341, 3040.297
420.2162, 3036.925
420.6984, 3032.742
421.1805, 3029.289
421.6626, 3029.397
422.1447, 3033.114
422.6268, 3034.988
423.1089, 3031.416
423.5911, 3025.586
424.0732, 3021.671
424.5553, 3020.128
425.0374, 3019.980
425.5195, 3021.254
426.0016, 3023.402
426.4838, 3023.135
426.9659, 3018.234
427.4480, 3013.351
427.9301, 3010.730
428.4122, 3009.663
428.8943, 3008.745
429.3765, 3007.476
429.8586, 3005.946
430.3407, 3004.320
430.8228, 3002.790
431.3049, 3000.724
431.7870, 2996.726
432.2692, 2993.275
432.7513, 2993.016
433.2334, 2995.428
433.7155, 2997.381
434.1976, 2996.218
434.6797, 2992.210
435.1619, 2989.339
435.6440, 2987.713
436.1261, 2987.143
436.6082, 2989.278
437.0903, 2991.737
437.5724, 2991.379
438.0546, 2987.205
438.5367, 2981.472
439.0188, 2977.637
439.5009, 2976.016
439.9830, 2975.255
440.4651, 2975.899
440.9473, 2976.880
441.4294, 2978.000
441.9115, 2979.080
442.3936, 2979.804
442.8757, 2979.911
443.3578, 2979.547
443.8400, 2979.242
444.3221, 2979.212
444.8042, 2978.728
445.2863, 2977.156
445.7684, 2975.226
446.2505, 2973.553
446.7327, 2972.261
447.2148, 2971.250
447.6969, 2970.283
448.1790, 2969.472
448.6611, 2969.587
449.1432, 2971.194
449.6254, 2972.863
450.1075, 2973.087
450.5896, 2972.315
451.0717, 2971.903
451.5538, 2972.522
452.0359, 2973.421
452.5181, 2973.851
453.0002, 2973.867
453.4823, 2974.003
453.9644, 2974.712
454.4465, 2975.422
454.9286, 2974.440
455.4108, 2970.726
455.8929, 2968.658
456.3750, 2970.991
456.8571, 2974.513
457.3392, 2975.350
457.8214, 2973.138
458.3035, 2970.577
458.7856, 2970.034
459.2677, 2971.534
459.7498, 2973.118
460.2319, 2976.512
460.7141, 2978.032
461.1962, 2975.310
461.6783, 2970.504
462.1604, 2966.654
462.6425, 2964.919
463.1246, 2964.292
463.6068, 2963.147
464.0889, 2961.524
464.5710, 2959.284
465.0531, 2956.681
465.5352, 2953.296
466.0173, 2947.948
466.4995, 2941.579
466.9816, 2936.566
467.4637, 2934.761
467.9458, 2935.057
468.4279, 2933.708
468.9100, 2929.801
469.3922, 2926.624
469.8743, 2925.855
470.3564, 2925.757
470.8385, 2924.984
471.3206, 2923.328
471.8027, 2921.434
472.2849, 2919.691
472.7670, 2918.092
473.2491, 2916.727
473.7312, 2915.701
474.2133, 2914.585
474.6954, 2913.193
475.1776, 2911.450
475.6597, 2909.072
476.1418, 2905.115
476.6239, 2901.623
477.1060, 2900.249
477.5881, 2900.519
478.0703, 2901.453
478.5524, 2903.098
479.0345, 2903.853
479.5166, 2900.814
479.9987, 2892.669
480.4808, 2886.980
480.9630, 2885.026
481.4451, 2884.947
481.9272, 2886.840
482.4093, 2889.692
482.8914, 2890.807
483.3735, 2888.416
483.8557, 2883.535
484.3378, 2879.773
484.8199, 2877.742
485.3020, 2876.046
485.7841, 2875.148
486.2662, 2874.151
486.7484, 2871.836
487.2305, 2868.422
487.7126, 2865.698
488.1947, 2865.598
488.6768, 2867.874
489.1589, 2868.586
489.6411, 2866.906
490.1232, 2864.893
490.6053, 2863.003
491.0874, 2861.272
491.5695, 2859.825
492.0516, 2858.727
492.5338, 2857.641
493.0159, 2856.304
493.4980, 2854.715
493.9801, 2852.749
494.4622, 2850.141
494.9443, 2847.665
495.4265, 2846.074
495.9086, 2845.143
496.3907, 2844.322
496.8728, 2843.485
497.3549, 2842.708
497.8370, 2841.867
498.3192, 2841.091
498.8013, 2841.113
499.2834, 2842.463
499.7655, 2843.981
500.2476, 2843.597
500.7297, 2840.551
501.2119, 2838.277
501.6940, 2837.452
502.1761, 2837.058
502.6582, 2836.405
503.1403, 2835.525
503.6224, 2834.704
504.1045, 2834.093
504.5866, 2833.763
505.0688, 2834.113
505.5509, 2837.387
506.0330, 2837.654
506.5151, 2831.312
506.9972, 2824.567
507.4793, 2822.057
507.9615, 2823.954
508.4436, 2827.642
508.9257, 2831.745
509.4078, 2835.795
509.8899, 2836.349
510.3720, 2831.577
510.8542, 2827.293
511.3363, 2825.864
511.8184, 2825.875
512.3005, 2826.256
512.7827, 2826.876
513.2648, 2827.153
513.7469, 2826.717
514.2290, 2825.593
514.7111, 2823.286
515.1932, 2819.222
515.6754, 2816.575
516.1575, 2819.275
516.6396, 2825.607
517.1217, 2827.521
517.6038, 2820.458
518.0859, 2813.929
518.5681, 2813.246
519.0502, 2815.694
519.5323, 2816.492
520.0144, 2814.323
520.4965, 2811.468
520.9786, 2810.906
521.4608, 2813.374
521.9429, 2813.601
522.4250, 2808.637
522.9071, 2804.996
523.3892, 2806.089
523.8713, 2809.696
524.3535, 2812.434
524.8356, 2812.892
525.3177, 2811.943
525.7998, 2810.435
526.2819, 2807.741
526.7640, 2807.709
527.2462, 2813.481
527.7283, 2818.926
528.2104, 2821.688
528.6925, 2821.842
529.1746, 2819.444
529.6567, 2813.051
530.1389, 2806.481
530.6210, 2805.621
531.1031, 2810.134
531.5852, 2814.138
532.0673, 2816.031
532.5494, 2816.680
533.0316, 2816.861
533.5137, 2816.611
533.9958, 2816.463
534.4779, 2815.860
534.9600, 2815.944
535.4421, 2818.340
535.9243, 2822.315
536.4064, 2825.594
536.8885, 2827.146
537.3706, 2827.047
537.8527, 2825.211
538.3348, 2819.023
538.8170, 2816.501
539.2991, 2819.664
539.7812, 2824.377
540.2633, 2828.708
540.7454, 2832.542
541.2275, 2836.442
541.7097, 2840.773
542.1918, 2845.318
542.6739, 2849.752
543.1560, 2854.597
543.6381, 2857.685
544.1202, 2855.351
544.6024, 2853.776
545.0845, 2857.670
545.5666, 2866.338
546.0487, 2874.977
546.5308, 2881.593
547.0129, 2886.430
547.4951, 2888.870
547.9772, 2889.018
548.4593, 2890.837
548.9414, 2896.269
549.4235, 2903.888
549.9056, 2911.464
550.3878, 2919.140
550.8699, 2926.036
551.3520, 2931.453
551.8341, 2936.381
552.3162, 2941.169
552.7983, 2946.142
553.2805, 2952.088
553.7626, 2959.529
554.2447, 2968.124
554.7268, 2976.990
555.2089, 2986.551
555.6910, 2995.573
556.1732, 3003.554
556.6553, 3011.484
557.1374, 3020.146
557.6195, 3029.377
558.1016, 3038.357
558.5837, 3046.442
559.0659, 3054.204
559.5480, 3063.617
560.0301, 3075.294
560.5122, 3084.704
560.9943, 3090.045
561.4764, 3092.931
561.9586, 3095.263
562.4407, 3096.975
562.9228, 3097.033
563.4049, 3095.041
563.8870, 3091.234
564.3691, 3086.211
564.8513, 3079.748
565.3334, 3070.419
565.8155, 3057.323
566.2976, 3041.802
566.7797, 3026.131
567.2618, 3009.877
567.7440, 2994.699
568.2261, 2982.303
568.7082, 2969.527
569.1903, 2953.317
569.6724, 2935.283
570.1545, 2919.125
570.6367, 2906.953
571.1188, 2897.256
571.6009, 2887.091
572.0830, 2876.200
572.5651, 2865.428
573.0472, 2854.676
573.5294, 2844.257
574.0115, 2833.341
574.4936, 2822.790
574.9757, 2815.171
575.4578, 2813.003
575.9399, 2812.191
576.4221, 2807.705
576.9042, 2800.202
577.3863, 2793.298
577.8684, 2787.983
578.3505, 2783.762
578.8326, 2780.434
579.3148, 2778.105
579.7969, 2774.836
580.2790, 2770.100
580.7611, 2764.951
581.2432, 2759.474
581.7253, 2754.056
582.2075, 2748.940
582.6896, 2744.313
583.1717, 2740.772
583.6538, 2739.415
584.1359, 2740.637
584.6180, 2741.193
585.1002, 2740.431
585.5823, 2739.748
586.0643, 2739.607
586.5464, 2739.771
587.0286, 2740.428
587.5107, 2741.779
587.9928, 2741.538
588.4749, 2735.899
588.9570, 2726.595
589.4391, 2720.641
589.9213, 2719.114
590.4034, 2719.221
590.8855, 2719.464
591.3676, 2719.816
591.8497, 2720.237
592.3318, 2721.231
592.8140, 2721.464
593.2961, 2720.506
593.7782, 2718.600
594.2603, 2715.719
594.7424, 2712.077
595.2245, 2708.279
595.7067, 2704.711
596.1888, 2701.588
596.6709, 2700.261
597.1530, 2702.801
597.6351, 2703.548
598.1172, 2699.548
598.5994, 2695.468
599.0815, 2695.610
599.5636, 2699.353
600.0457, 2702.014
600.5278, 2699.737
601.0099, 2695.025
601.4921, 2692.743
601.9742, 2692.911
602.4563, 2693.280
602.9384, 2693.028
603.4205, 2692.671
603.9026, 2693.371
604.3848, 2695.253
604.8669, 2695.465
605.3490, 2691.249
605.8311, 2687.461
606.3132, 2688.382
606.7953, 2692.004
607.2775, 2693.559
607.7596, 2691.204
608.2417, 2687.168
608.7238, 2684.769
609.2059, 2684.110
609.6880, 2684.640
610.1702, 2687.750
610.6523, 2690.496
611.1344, 2692.486
611.6165, 2693.339
612.0986, 2691.822
612.5807, 2687.317
613.0629, 2683.757
613.5450, 2686.577
614.0271, 2693.319
614.5092, 2695.375
614.9913, 2691.325
615.4734, 2686.802
615.9556, 2685.523
616.4377, 2686.449
616.9198, 2685.823
617.4019, 2682.653
617.8840, 2680.006
618.3661, 2679.191
618.8483, 2678.656
619.3304, 2676.345
619.8125, 2672.802
620.2946, 2670.797
620.7767, 2672.347
621.2589, 2675.965
621.7410, 2677.018
622.2231, 2674.275
622.7052, 2672.639
623.1873, 2673.626
623.6694, 2675.120
624.1516, 2676.143
624.6337, 2676.694
625.1158, 2676.925
625.5979, 2676.809
626.0800, 2676.501
626.5621, 2676.360
627.0443, 2676.176
627.5264, 2674.848
628.0085, 2671.905
628.4906, 2669.486
628.9727, 2670.164
629.4548, 2673.945
629.9370, 2674.802
630.4191, 2670.289
630.9012, 2666.395
631.3833, 2664.800
631.8654, 2664.242
632.3475, 2663.244
632.8297, 2661.684
633.3118, 2660.604
633.7939, 2661.021
634.2760, 2662.597
634.7581, 2664.214
635.2402, 2666.261
635.7224, 2666.809
636.2045, 2664.552
636.6866, 2661.127
637.1687, 2657.723
637.6508, 2654.452
638.1329, 2652.874
638.6151, 2655.527
639.0972, 2658.296
639.5793, 2656.607
640.0614, 2652.268
640.5435, 2650.635
641.0256, 2653.617
641.5078, 2657.724
641.9899, 2658.112
642.4720, 2654.168
642.9541, 2651.507
643.4362, 2650.599
643.9183, 2650.505
644.4005, 2652.314
644.8826, 2654.147
645.3647, 2653.616
645.8468, 2650.385
646.3289, 2646.794
646.8110, 2644.823
647.2932, 2643.925
647.7753, 2642.308
648.2574, 2639.852
648.7395, 2639.375
649.2216, 2643.069
649.7037, 2648.223
650.1859, 2649.788
650.6680, 2646.970
651.1501, 2644.457
651.6322, 2642.058
652.1143, 2640.572
652.5964, 2641.173
653.0786, 2642.865
653.5607, 2643.845
654.0428, 2643.441
654.5249, 2642.371
655.0070, 2641.571
655.4891, 2641.052
655.9713, 2640.477
656.4534, 2639.947
656.9355, 2639.166
657.4176, 2637.373
657.8997, 2635.544
658.3818, 2635.032
658.8640, 2636.150
659.3461, 2637.204
659.8282, 2637.632
660.3103, 2637.474
660.7924, 2636.464
661.2745, 2634.840
661.7567, 2633.652
662.2388, 2633.483
662.7209, 2633.511
663.2030, 2632.055
663.6851, 2628.367
664.1672, 2625.621
664.6494, 2624.365
665.1315, 2623.457
665.6136, 2622.565
666.0957, 2621.778
666.5778, 2620.820
667.0599, 2619.535
667.5421, 2619.906
668.0242, 2626.000
668.5063, 2634.588
668.9884, 2637.017
669.4705, 2632.662
669.9526, 2627.487
670.4348, 2624.272
670.9169, 2622.759
671.3990, 2622.699
671.8811, 2625.569
672.3632, 2626.156
672.8453, 2622.063
673.3275, 2617.956
673.8096, 2616.445
674.2917, 2616.717
674.7738, 2617.186
675.2559, 2617.228
675.7380, 2616.920
676.2202, 2616.143
676.7023, 2614.989
677.1844, 2614.414
677.6665, 2614.558
678.1486, 2614.955
678.6307, 2615.714
679.1129, 2616.379
679.5950, 2616.094
680.0771, 2614.693
680.5592, 2613.117
681.0413, 2611.366
681.5234, 2609.720
682.0056, 2608.467
682.4877, 2607.485
682.9698, 2606.324
683.4519, 2604.807
683.9340, 2603.526
684.4161, 2603.651
684.8983, 2605.399
685.3804, 2605.803
685.8625, 2603.906
686.3446, 2602.333
686.8267, 2602.667
687.3088, 2603.698
687.7910, 2604.093
688.2731, 2603.683
688.7552, 2603.079
689.2373, 2602.750
689.7194, 2602.223
690.2015, 2600.687
690.6837, 2598.480
691.1658, 2596.770
691.6479, 2596.047
692.1300, 2595.925
692.6121, 2595.778
693.0942, 2595.493
693.5764, 2596.118
694.0585, 2599.665
694.5406, 2601.353
695.0227, 2597.735
695.5048, 2592.943
695.9869, 2592.085
696.4691, 2595.712
696.9512, 2598.355
697.4333, 2595.221
697.9154, 2590.248
698.3975, 2589.088
698.8796, 2591.120
699.3618, 2592.702
699.8439, 2592.525
700.3260, 2591.234
700.8081, 2589.487
701.2902, 2587.125
701.7723, 2585.828
702.2545, 2586.453
702.7366, 2587.138
703.2187, 2587.826
703.7008, 2588.230
704.1829, 2587.840
704.6650, 2586.763
705.1472, 2586.006
705.6293, 2586.699
706.1114, 2587.776
706.5935, 2587.164
707.0756, 2585.191
707.5577, 2583.997
708.0399, 2584.224
708.5220, 2585.362
709.0041, 2587.163
709.4862, 2589.629
709.9683, 2590.537
710.4504, 2588.158
710.9326, 2586.574
711.4147, 2587.728
711.8968, 2589.007
712.3789, 2587.669
712.8610, 2584.081
713.3431, 2580.891
713.8253, 2579.723
714.3074, 2579.767
714.7895, 2580.191
715.2716, 2580.840
715.7537, 2580.290
716.2358, 2577.973
716.7180, 2575.847
717.2001, 2575.674
717.6822, 2577.137
718.1643, 2578.103
718.6464, 2577.946
719.1285, 2578.200
719.6107, 2579.782
720.0928, 2581.157
720.5749, 2580.972
721.0570, 2579.618
721.5391, 2578.293
722.0212, 2577.537
722.5034, 2577.288
722.9855, 2578.086
723.4676, 2579.525
723.9497, 2578.730
724.4318, 2575.007
724.9139, 2571.490
725.3961, 2570.144
725.8782, 2570.345
726.3603, 2570.429
726.8424, 2570.183
727.3245, 2570.323
727.8066, 2571.757
728.2888, 2572.738
728.7709, 2571.604
729.2530, 2569.513
729.7351, 2568.797
730.2172, 2570.216
730.6993, 2571.781
731.1815, 2570.702
731.6636, 2567.975
732.1457, 2568.000
732.6278, 2571.181
733.1099, 2572.775
733.5920, 2570.236
734.0742, 2565.944
734.5563, 2563.480
735.0384, 2563.188
735.5205, 2563.163
736.0026, 2563.045
736.4847, 2563.607
736.9669, 2566.626
737.4490, 2569.631
737.9311, 2569.066
738.4132, 2564.857
738.8953, 2560.948
739.3774, 2560.642
739.8596, 2562.353
740.3417, 2562.676
740.8238, 2561.719
741.3059, 2561.080
741.7880, 2560.983
742.2701, 2562.164
742.7523, 2566.290
743.2344, 2572.900
743.7165, 2574.631
744.1986, 2566.301
744.6807, 2560.645
745.1628, 2561.614
745.6450, 2563.827
746.1271, 2563.051
746.6092, 2559.836
747.0913, 2556.932
747.5734, 2555.602
748.0555, 2555.403
748.5377, 2556.600
749.0198, 2558.561
749.5019, 2558.560
749.9840, 2556.207
750.4661, 2553.578
750.9482, 2551.606
751.4304, 2550.654
751.9125, 2551.836
752.3946, 2557.255
752.8767, 2559.800
753.3588, 2558.054
753.8409, 2555.254
754.3231, 2551.352
754.8052, 2547.821
755.2873, 2546.854
755.7694, 2548.889
756.2515, 2551.510
756.7336, 2553.247
757.2158, 2554.216
757.6979, 2554.796
758.1800, 2554.858
758.6621, 2553.242
759.1442, 2549.355
759.6263, 2545.390
760.1085, 2544.091
760.5906, 2545.477
761.0727, 2545.710
761.5548, 2542.724
762.0369, 2541.739
762.5190, 2545.854
763.0012, 2550.222
763.4833, 2551.011
763.9654, 2548.747
764.4475, 2546.328
764.9296, 2544.250
765.4117, 2543.515
765.8939, 2546.510
766.3760, 2550.891
766.8581, 2551.775
767.3402, 2548.893
767.8223, 2545.978
768.3044, 2545.472
768.7866, 2542.872
769.2687, 2544.863
769.7508, 2540.415
770.2329, 2537.977
770.7150, 2538.608
771.1971, 2539.969
771.6793, 2541.255
772.1614, 2542.491
772.6435, 2543.872
773.1256, 2545.508
773.6077, 2546.354
774.0898, 2545.187
774.5720, 2543.806
775.0541, 2544.195
775.5362, 2545.391
776.0183, 2545.038
776.5004, 2542.608
776.9825, 2540.101
777.4647, 2539.710
777.9468, 2540.904
778.4289, 2540.835
778.9110, 2539.147
779.3931, 2538.151
779.8752, 2538.618
780.3574, 2539.640
780.8395, 2541.160
781.3216, 2542.724
781.8037, 2541.898
782.2858, 2535.783
782.7679, 2531.355
783.2501, 2530.954
783.7322, 2532.350
784.2143, 2534.636
784.6964, 2537.025
785.1785, 2538.093
785.6606, 2537.136
786.1428, 2535.604
786.6249, 2535.508
787.1070, 2536.390
787.5891, 2535.974
788.0712, 2534.036
788.5533, 2533.458
789.0355, 2536.013
789.5176, 2539.478
789.9997, 2540.222
790.4818, 2537.574
790.9639, 2536.414
791.4460, 2537.324
791.9282, 2538.926
792.4103, 2541.969
792.8924, 2544.835
793.3745, 2545.944
793.8566, 2545.378
794.3387, 2544.441
794.8209, 2543.449
795.3030, 2542.848
795.7851, 2543.382
796.2672, 2544.557
796.7493, 2545.659
797.2314, 2546.421
797.7136, 2545.726
798.1957, 2542.714
798.6778, 2538.307
799.1599, 2534.415
799.6420, 2530.403
800.1241, 2529.677
800.6063, 2534.416
801.0884, 2539.089
801.5705, 2541.019
802.0526, 2541.476
802.5347, 2541.939
803.0168, 2542.549
803.4990, 2542.516
803.9811, 2540.513
804.4632, 2538.980
804.9453, 2540.219
805.4274, 2542.599
805.9095, 2543.719
806.3917, 2543.150
806.8738, 2541.915
807.3559, 2540.818
807.8380, 2539.605
808.3201, 2537.008
808.8022, 2533.177
809.2844, 2532.266
809.7665, 2535.526
810.2486, 2539.277
810.7307, 2541.050
811.2128, 2541.360
811.6949, 2541.754
812.1771, 2542.428
812.6592, 2542.752
813.1413, 2543.564
813.6234, 2543.092
814.1055, 2538.790
814.5876, 2533.574
815.0698, 2531.850
815.5519, 2534.287
816.0340, 2536.683
816.5161, 2535.089
816.9982, 2533.119
817.4803, 2536.468
817.9625, 2542.758
818.4446, 2544.853
818.9267, 2541.401
819.4088, 2538.011
819.8909, 2539.767
820.3730, 2544.697
820.8552, 2545.316
821.3373, 2540.207
821.8194, 2537.125
822.3015, 2537.909
822.7836, 2539.102
823.2657, 2538.582
823.7479, 2537.082
824.2300, 2535.878
824.7121, 2534.794
825.1942, 2534.902
825.6763, 2538.141
826.1584, 2540.856
826.6406, 2540.857
827.1227, 2539.061
827.6048, 2536.167
828.0869, 2532.813
828.5690, 2531.102
829.0511, 2533.447
829.5333, 2537.547
830.0154, 2539.163
830.4975, 2538.851
830.9796, 2539.470
831.4617, 2541.592
831.9438, 2543.990
832.4260, 2545.977
832.9081, 2547.215
833.3902, 2546.406
833.8723, 2541.688
834.3544, 2539.804
834.8365, 2543.719
835.3187, 2546.687
835.8008, 2544.770
836.2829, 2541.190
836.7650, 2540.499
837.2471, 2543.186
837.7292, 2544.101
838.2114, 2538.337
838.6935, 2533.775
839.1756, 2537.149
839.6577, 2543.932
840.1398, 2547.717
840.6219, 2547.822
841.1041, 2547.391
841.5862, 2548.629
842.0683, 2550.137
842.5504, 2549.298
843.0325, 2546.422
843.5146, 2542.923
843.9968, 2538.766
844.4789, 2536.927
844.9610, 2539.663
845.4431, 2544.251
845.9252, 2545.713
846.4073, 2543.457
846.8895, 2540.978
847.3716, 2536.892
847.8537, 2534.443
848.3358, 2534.756
848.8179, 2536.589
849.3000, 2539.769
849.7822, 2543.668
850.2643, 2545.726
850.7464, 2544.128
851.2285, 2542.154
851.7106, 2541.672
852.1927, 2541.842
852.6749, 2541.421
853.1570, 2540.716
853.6391, 2541.328
854.1212, 2543.983
854.6033, 2546.781
855.0854, 2546.746
855.5676, 2547.819
856.0497, 2548.179
856.5318, 2546.604
857.0139, 2547.206
857.4960, 2544.682
857.9781, 2542.433
858.4603, 2544.765
858.9424, 2550.960
859.4245, 2552.476
859.9066, 2544.710
860.3887, 2540.155
860.8708, 2542.187
861.3530, 2545.032
861.8351, 2546.054
862.3172, 2545.687
862.7993, 2544.758
863.2814, 2543.263
863.7635, 2542.159
864.2457, 2541.241
864.7278, 2541.449
865.2099, 2544.377
865.6920, 2548.655
866.1741, 2552.269
866.6563, 2554.604
867.1384, 2555.385
867.6205, 2554.036
868.1026, 2551.742
868.5847, 2550.897
869.0668, 2551.244
869.5490, 2551.058
870.0311, 2550.073
870.5132, 2549.260
870.9953, 2549.400
871.4774, 2549.450
871.9595, 2547.022
872.4417, 2541.249
872.9238, 2537.708
873.4059, 2537.215
873.8880, 2537.663
874.3701, 2539.767
874.8522, 2541.551
875.3344, 2540.552
875.8165, 2537.413
876.2986, 2536.073
876.7807, 2538.156
877.2628, 2540.862
877.7449, 2545.136
878.2271, 2548.003
878.7092, 2544.949
879.1913, 2538.667
879.6734, 2535.661
880.1555, 2538.165
880.6376, 2541.997
881.1198, 2543.964
881.6019, 2544.286
882.0840, 2542.224
882.5661, 2538.702
883.0482, 2538.112
883.5303, 2541.494
884.0125, 2545.215
884.4946, 2546.181
884.9767, 2545.173
885.4588, 2544.621
885.9409, 2544.476
886.4230, 2545.067
886.9052, 2546.573
887.3873, 2548.529
887.8694, 2551.661
888.3515, 2554.393
888.8336, 2553.280
889.3157, 2547.351
889.7979, 2545.061
890.2800, 2550.581
890.7621, 2554.601
891.2442, 2553.484
891.7263, 2550.804
892.2084, 2549.279
892.6906, 2548.990
893.1727, 2549.186
893.6548, 2549.714
894.1369, 2550.298
894.6190, 2550.981
895.1011, 2551.471
895.5833, 2551.438
896.0654, 2550.918
896.5475, 2549.945
897.0296, 2548.580
897.5117, 2547.120
897.9938, 2545.652
898.4760, 2544.501
898.9581, 2544.469
899.4402, 2545.541
899.9223, 2548.000
900.4044, 2552.056
900.8865, 2555.938
901.3687, 2558.694
901.8508, 2560.182
902.3329, 2559.823
902.8150, 2556.870
903.2971, 2555.808
903.7792, 2557.270
904.2614, 2559.578
904.7435, 2563.508
905.2256, 2567.050
905.7077, 2568.156
906.1898, 2567.176
906.6719, 2566.005
907.1541, 2564.246
907.6362, 2563.345
908.1183, 2563.453
908.6004, 2564.757
909.0825, 2567.998
909.5646, 2572.293
910.0468, 2576.369
910.5289, 2579.842
911.0110, 2582.779
911.4931, 2585.003
911.9752, 2586.879
912.4573, 2588.732
912.9395, 2590.569
913.4216, 2592.003
913.9037, 2593.276
914.3858, 2596.137
914.8679, 2601.782
915.3500, 2608.208
915.8321, 2611.376
916.3142, 2616.066
916.7963, 2620.510
917.2784, 2622.376
917.7606, 2627.771
918.2427, 2629.498
918.7248, 2630.989
919.2069, 2635.995
919.6890, 2644.086
920.1711, 2652.116
920.6533, 2660.358
921.1354, 2667.952
921.6175, 2674.683
922.0996, 2680.978
922.5817, 2687.007
923.0638, 2692.795
923.5460, 2698.168
924.0281, 2702.988
924.5102, 2708.657
924.9923, 2714.885
925.4744, 2722.621
925.9565, 2733.248
926.4387, 2744.711
926.9208, 2754.778
927.4029, 2763.985
927.8850, 2774.347
928.3671, 2786.848
928.8492, 2799.368
929.3314, 2810.114
929.8135, 2820.376
930.2956, 2831.727
930.7777, 2843.809
931.2598, 2855.637
931.7419, 2867.096
932.2241, 2878.596
932.7062, 2890.409
933.1883, 2902.682
933.6704, 2915.886
934.1525, 2929.802
934.6346, 2943.942
935.1168, 2958.161
935.5989, 2970.644
936.0810, 2980.291
936.5631, 2989.384
937.0452, 3001.196
937.5273, 3015.547
938.0095, 3029.483
938.4916, 3043.219
938.9737, 3055.930
939.4558, 3067.879
939.9379, 3078.142
940.4200, 3086.067
940.9022, 3091.922
941.3843, 3096.207
941.8664, 3098.008
942.3485, 3101.052
942.8306, 3107.823
943.3127, 3112.561
943.7949, 3112.923
944.2770, 3111.254
944.7591, 3110.366
945.2412, 3109.438
945.7233, 3104.521
946.2054, 3093.005
946.6876, 3081.264
947.1697, 3072.957
947.6518, 3063.905
948.1339, 3050.480
948.6160, 3034.496
949.0981, 3019.176
949.5803, 3005.054
950.0624, 2989.816
950.5445, 2971.786
951.0266, 2952.400
951.5087, 2932.868
951.9908, 2912.847
952.4730, 2890.684
952.9551, 2867.242
953.4372, 2846.095
953.9193, 2828.719
954.4014, 2812.625
954.8835, 2794.931
955.3657, 2776.515
955.8478, 2760.345
956.3299, 2746.055
956.8120, 2730.474
957.2941, 2712.972
957.7762, 2695.710
958.2584, 2679.868
958.7405, 2665.717
959.2226, 2654.239
959.7047, 2645.648
960.1868, 2635.540
960.6689, 2623.114
961.1511, 2612.469
961.6332, 2605.517
962.1153, 2599.073
962.5974, 2590.323
963.0795, 2579.742
963.5616, 2569.306
964.0438, 2558.281
964.5259, 2548.933
965.0080, 2541.648
965.4901, 2535.597
965.9722, 2531.371
966.4543, 2527.594
966.9365, 2522.684
967.4186, 2516.768
967.9007, 2511.502
968.3828, 2507.240
968.8649, 2503.400
969.3470, 2500.341
969.8292, 2497.191
970.3113, 2492.961
970.7934, 2488.468
971.2755, 2485.144
971.7576, 2483.183
972.2397, 2481.218
972.7219, 2478.351
973.2040, 2475.580
973.6861, 2473.106
974.1682, 2471.377
974.6503, 2471.454
975.1324, 2472.665
975.6146, 2473.213
976.0967, 2472.462
976.5788, 2471.298
977.0609, 2470.446
977.5430, 2469.668
978.0251, 2468.787
978.5073, 2467.672
978.9894, 2465.478
979.4715, 2462.502
979.9536, 2460.960
980.4357, 2462.099
980.9178, 2464.384
981.4000, 2466.035
981.8821, 2466.986
982.3642, 2466.670
982.8463, 2465.242
983.3284, 2464.094
983.8105, 2463.581
984.2927, 2463.181
984.7748, 2462.621
985.2569, 2461.525
985.7390, 2458.507
986.2211, 2453.384
986.7032, 2450.483
987.1854, 2450.111
987.6675, 2450.688
988.1496, 2452.001
988.6317, 2453.314
989.1138, 2454.009
989.5959, 2454.073
990.0781, 2453.488
990.5602, 2452.417
991.0423, 2449.938
991.5244, 2444.191
992.0065, 2440.499
992.4886, 2441.673
992.9708, 2444.954
993.4529, 2448.046
993.9350, 2450.763
994.4171, 2451.016
994.8992, 2447.360
995.3813, 2443.475
995.8635, 2438.150
996.3456, 2434.131
996.8277, 2432.950
997.3098, 2433.587
997.7919, 2435.241
998.2740, 2437.738
998.7562, 2439.626
999.2383, 2440.701
999.7204, 2441.081
1000.203, 2440.416
1000.685, 2439.492
1001.167, 2438.268
1001.649, 2437.440
1002.131, 2438.266
1002.613, 2440.852
1003.095, 2443.380
1003.577, 2444.818
1004.059, 2446.258
1004.542, 2448.297
1005.024, 2450.587
1005.506, 2452.355
1005.988, 2454.168
1006.470, 2457.780
1006.952, 2463.500
1007.434, 2468.488
1007.916, 2470.726
1008.398, 2471.389
1008.881, 2470.162
1009.363, 2468.913
1009.845, 2470.908
1010.327, 2475.550
1010.809, 2480.286
1011.291, 2484.035
1011.773, 2486.357
1012.255, 2485.848
1012.738, 2484.469
1013.220, 2486.095
1013.702, 2489.124
1014.184, 2488.852
1014.666, 2485.547
1015.148, 2484.663
1015.630, 2488.854
1016.112, 2492.227
1016.594, 2486.594
1017.077, 2475.208
1017.559, 2465.974
1018.041, 2458.880
1018.523, 2454.066
1019.005, 2451.453
1019.487, 2450.199
1019.969, 2449.980
1020.451, 2449.016
1020.934, 2444.190
1021.416, 2436.237
1021.898, 2428.940
1022.380, 2422.320
1022.862, 2417.539
1023.344, 2414.874
1023.826, 2413.114
1024.308, 2411.612
1024.791, 2410.045
1025.273, 2407.593
1025.755, 2406.404
1026.237, 2402.884
1026.719, 2403.631
1027.201, 2403.801
1027.683, 2403.000
1028.165, 2400.466
1028.647, 2395.131
1029.130, 2388.769
1029.612, 2384.964
1030.094, 2383.696
1030.576, 2385.595
1031.058, 2392.388
1031.540, 2396.053
1032.022, 2393.511
1032.504, 2390.488
1032.986, 2390.887
1033.469, 2393.653
1033.951, 2396.867
1034.433, 2401.270
1034.915, 2401.048
1035.397, 2392.427
1035.879, 2387.565
1036.361, 2391.743
1036.843, 2396.269
1037.326, 2394.451
1037.808, 2388.938
1038.290, 2385.899
1038.772, 2385.911
1039.254, 2385.829
1039.736, 2385.650
1040.218, 2385.407
1040.700, 2384.717
1041.182, 2384.397
1041.665, 2385.317
1042.147, 2386.946
1042.629, 2388.160
1043.111, 2389.092
1043.593, 2389.020
1044.075, 2386.887
1044.557, 2385.174
1045.039, 2384.269
1045.521, 2384.042
1046.004, 2384.169
1046.486, 2384.976
1046.968, 2387.597
1047.450, 2392.738
1047.932, 2395.993
1048.414, 2394.799
1048.896, 2394.565
1049.378, 2397.951
1049.861, 2401.590
1050.343, 2402.935
1050.825, 2402.810
1051.307, 2402.960
1051.789, 2403.574
1052.271, 2404.543
1052.753, 2406.153
1053.235, 2407.678
1053.718, 2408.724
1054.200, 2409.726
1054.682, 2411.546
1055.164, 2413.344
1055.646, 2412.838
1056.128, 2409.468
1056.610, 2408.683
1057.092, 2415.736
1057.574, 2420.450
1058.057, 2417.634
1058.539, 2412.708
1059.021, 2409.006
1059.503, 2406.606
1059.985, 2405.348
1060.467, 2405.168
1060.949, 2404.251
1061.431, 2401.746
1061.913, 2398.771
1062.396, 2396.145
1062.878, 2392.858
1063.360, 2385.910
1063.842, 2378.760
1064.324, 2379.260
1064.806, 2387.771
1065.288, 2390.985
1065.770, 2378.734
1066.253, 2367.411
1066.735, 2364.286
1067.217, 2364.119
1067.699, 2364.864
1068.181, 2364.810
1068.663, 2360.869
1069.145, 2353.276
1069.627, 2347.780
1070.109, 2348.101
1070.592, 2348.187
1071.074, 2344.942
1071.556, 2340.794
1072.038, 2336.497
1072.520, 2333.053
1073.002, 2331.829
1073.484, 2332.782
1073.966, 2334.676
1074.448, 2338.549
1074.931, 2339.911
1075.413, 2333.501
1075.895, 2327.068
1076.377, 2327.392
1076.859, 2330.429
1077.341, 2330.213
1077.823, 2326.778
1078.305, 2324.456
1078.788, 2325.370
1079.270, 2325.427
1079.752, 2320.178
1080.234, 2316.202
1080.716, 2320.321
1081.198, 2326.585
1081.680, 2327.421
1082.162, 2323.471
1082.644, 2320.271
1083.127, 2319.786
1083.609, 2318.796
1084.091, 2315.532
1084.573, 2311.699
1085.055, 2307.401
1085.537, 2303.799
1086.019, 2302.161
1086.501, 2302.219
1086.984, 2303.231
1087.466, 2305.117
1087.948, 2306.612
1088.430, 2306.915
1088.912, 2307.006
1089.394, 2307.435
1089.876, 2307.834
1090.358, 2308.281
1090.840, 2308.269
1091.323, 2306.631
1091.805, 2303.128
1092.287, 2299.791
1092.769, 2296.719
1093.251, 2294.822
1093.733, 2295.362
1094.215, 2296.347
1094.697, 2295.976
1095.179, 2295.090
1095.662, 2296.070
1096.144, 2298.828
1096.626, 2298.474
1097.108, 2289.787
1097.590, 2283.573
1098.072, 2285.136
1098.554, 2288.325
1099.036, 2290.420
1099.519, 2291.102
1100.001, 2289.520
1100.483, 2286.228
1100.965, 2284.535
1101.447, 2287.061
1101.929, 2287.106
1102.411, 2278.843
1102.893, 2272.691
1103.375, 2275.768
1103.858, 2281.684
1104.340, 2284.515
1104.822, 2284.206
1105.304, 2282.042
1105.786, 2277.187
1106.268, 2274.032
1106.750, 2273.958
1107.232, 2274.888
1107.714, 2277.058
1108.197, 2279.088
1108.679, 2280.410
1109.161, 2280.641
1109.643, 2278.128
1110.125, 2271.710
1110.607, 2269.828
1111.089, 2279.089
1111.571, 2284.512
1112.054, 2280.428
1112.536, 2274.886
1113.018, 2272.570
1113.500, 2271.583
1113.982, 2268.258
1114.464, 2262.500
1114.946, 2259.883
1115.428, 2261.971
1115.911, 2264.700
1116.393, 2269.930
1116.875, 2272.930
1117.357, 2271.004
1117.839, 2266.701
1118.321, 2262.041
1118.803, 2257.359
1119.285, 2254.618
1119.767, 2254.535
1120.250, 2254.654
1120.732, 2254.925
1121.214, 2255.588
1121.696, 2257.106
1122.178, 2258.357
1122.660, 2258.259
1123.142, 2257.360
1123.624, 2257.147
1124.106, 2257.773
1124.589, 2257.863
1125.071, 2257.360
1125.553, 2256.467
1126.035, 2255.188
1126.517, 2253.437
1126.999, 2250.766
1127.481, 2248.414
1127.963, 2248.297
1128.446, 2250.344
1128.928, 2254.618
1129.410, 2261.771
1129.892, 2264.993
1130.374, 2263.302
1130.856, 2259.054
1131.338, 2252.879
1131.820, 2246.803
1132.302, 2242.862
1132.785, 2241.094
1133.267, 2242.690
1133.749, 2247.272
1134.231, 2247.927
1134.713, 2244.505
1135.195, 2242.384
1135.677, 2243.052
1136.159, 2243.901
1136.641, 2243.033
1137.124, 2241.377
1137.606, 2240.716
1138.088, 2240.558
1138.570, 2238.487
1139.052, 2235.143
1139.534, 2233.868
1140.016, 2234.926
1140.498, 2236.262
1140.981, 2236.896
1141.463, 2236.847
1141.945, 2235.982
1142.427, 2234.653
1142.909, 2233.453
1143.391, 2232.271
1143.873, 2230.677
1144.355, 2228.911
1144.838, 2228.287
1145.320, 2228.805
1145.802, 2227.610
1146.284, 2222.014
1146.766, 2216.519
1147.248, 2216.285
1147.730, 2218.217
1148.212, 2218.694
1148.694, 2218.480
1149.177, 2218.902
1149.659, 2220.373
1150.141, 2224.014
1150.623, 2230.790
1151.105, 2234.431
1151.587, 2228.135
1152.069, 2220.853
1152.551, 2218.742
1153.033, 2218.740
1153.516, 2217.457
1153.998, 2215.777
1154.480, 2216.973
1154.962, 2221.314
1155.444, 2222.894
1155.926, 2217.082
1156.408, 2212.186
1156.890, 2211.232
1157.373, 2211.293
1157.855, 2210.212
1158.337, 2209.585
1158.819, 2213.133
1159.301, 2210.626
1159.783, 2208.469
1160.265, 2209.129
1160.747, 2202.558
1161.229, 2202.622
1161.712, 2203.286
1162.194, 2203.898
1162.676, 2203.926
1163.158, 2202.856
1163.640, 2201.066
1164.122, 2198.876
1164.604, 2196.196
1165.086, 2196.390
1165.568, 2201.224
1166.051, 2203.308
1166.533, 2200.826
1167.015, 2199.112
1167.497, 2200.878
1167.979, 2202.758
1168.461, 2200.989
1168.943, 2197.036
1169.425, 2195.881
1169.908, 2197.638
1170.390, 2197.779
1170.872, 2196.174
1171.354, 2194.798
1171.836, 2194.088
1172.318, 2195.000
1172.800, 2198.271
1173.282, 2201.817
1173.765, 2202.750
1174.247, 2201.659
1174.729, 2199.737
1175.211, 2197.363
1175.693, 2196.097
1176.175, 2195.815
1176.657, 2195.040
1177.139, 2193.379
1177.621, 2192.130
1178.104, 2192.493
1178.586, 2192.823
1179.068, 2190.839
1179.550, 2187.895
1180.032, 2185.847
1180.514, 2184.269
1180.996, 2182.104
1181.478, 2179.432
1181.960, 2177.087
1182.443, 2175.377
1182.925, 2174.091
1183.407, 2173.059
1183.889, 2172.492
1184.371, 2172.359
1184.853, 2172.911
1185.335, 2175.722
1185.817, 2178.661
1186.300, 2177.429
1186.782, 2172.323
1187.264, 2169.728
1187.746, 2172.251
1188.228, 2174.577
1188.710, 2175.963
1189.192, 2176.782
1189.674, 2177.511
1190.156, 2177.334
1190.639, 2175.107
1191.121, 2171.742
1191.603, 2169.086
1192.085, 2167.106
1192.567, 2166.310
1193.049, 2167.370
1193.531, 2167.615
1194.013, 2166.601
1194.495, 2165.125
1194.978, 2163.300
1195.460, 2161.946
1195.942, 2162.094
1196.424, 2163.083
1196.906, 2162.813
1197.388, 2161.378
1197.870, 2160.645
1198.352, 2160.576
1198.835, 2159.327
1199.317, 2156.681
1199.799, 2155.322
1200.281, 2156.684
1200.763, 2158.388
1201.245, 2157.475
1201.727, 2155.419
1202.209, 2155.069
1202.692, 2155.503
1203.174, 2154.923
1203.656, 2153.358
1204.138, 2150.725
1204.620, 2147.546
1205.102, 2146.515
1205.584, 2149.525
1206.066, 2152.097
1206.548, 2150.361
1207.031, 2147.650
1207.513, 2145.486
1207.995, 2144.598
1208.477, 2147.119
1208.959, 2150.912
1209.441, 2151.733
1209.923, 2148.942
1210.405, 2144.567
1210.887, 2135.195
1211.370, 2130.412
1211.852, 2136.052
1212.334, 2141.112
1212.816, 2140.492
1213.298, 2138.017
1213.780, 2136.296
1214.262, 2135.342
1214.744, 2135.538
1215.227, 2137.235
1215.709, 2135.572
1216.191, 2128.913
1216.673, 2126.099
1217.155, 2129.144
1217.637, 2131.637
1218.119, 2130.842
1218.601, 2128.118
1219.083, 2124.622
1219.566, 2120.849
1220.048, 2117.842
1220.530, 2115.658
1221.012, 2114.561
1221.494, 2114.498
1221.976, 2115.659
1222.458, 2117.648
1222.940, 2118.360
1223.422, 2116.866
1223.905, 2114.373
1224.387, 2110.860
1224.869, 2108.525
1225.351, 2111.385
1225.833, 2115.362
1226.315, 2114.967
1226.797, 2112.363
1227.279, 2111.667
1227.762, 2113.008
1228.244, 2114.111
1228.726, 2114.321
1229.208, 2114.059
1229.690, 2112.467
1230.172, 2111.763
1230.654, 2113.944
1231.136, 2115.911
1231.619, 2114.942
1232.101, 2113.048
1232.583, 2113.587
1233.065, 2111.932
1233.547, 2109.827
1234.029, 2109.548
1234.511, 2105.754
1234.993, 2103.646
1235.475, 2103.364
1235.958, 2105.471
1236.440, 2106.815
1236.922, 2105.433
1237.404, 2103.141
1237.886, 2102.483
1238.368, 2102.687
1238.850, 2101.210
1239.332, 2098.454
1239.814, 2095.596
1240.297, 2092.986
1240.779, 2091.790
1241.261, 2092.001
1241.743, 2092.141
1242.225, 2091.451
1242.707, 2090.247
1243.189, 2087.502
1243.671, 2085.835
1244.154, 2089.157
1244.636, 2093.418
1245.118, 2093.693
1245.600, 2091.958
1246.082, 2092.606
1246.564, 2095.479
1247.046, 2096.141
1247.528, 2092.659
1248.010, 2089.675
1248.493, 2087.231
1248.975, 2086.454
1249.457, 2090.305
1249.939, 2092.143
1250.421, 2086.512
1250.903, 2079.053
1251.385, 2077.513
1251.867, 2080.800
1252.349, 2083.060
1252.832, 2084.408
1253.314, 2082.796
1253.796, 2078.067
1254.278, 2075.866
1254.760, 2077.393
1255.242, 2078.296
1255.724, 2076.204
1256.206, 2072.933
1256.689, 2069.943
1257.171, 2067.987
1257.653, 2069.248
1258.135, 2071.806
1258.617, 2072.318
1259.099, 2071.438
1259.581, 2070.817
1260.063, 2070.730
1260.546, 2070.836
1261.028, 2071.013
1261.510, 2071.247
1261.992, 2071.786
1262.474, 2071.978
1262.956, 2070.179
1263.438, 2069.483
1263.920, 2073.835
1264.402, 2078.798
1264.885, 2078.573
1265.367, 2074.552
1265.849, 2071.658
1266.331, 2069.919
1266.813, 2069.240
1267.295, 2069.912
1267.777, 2070.257
1268.259, 2070.002
1268.741, 2069.711
1269.224, 2069.666
1269.706, 2069.138
1270.188, 2067.352
1270.670, 2065.013
1271.152, 2063.426
1271.634, 2062.281
1272.116, 2060.393
1272.598, 2058.509
1273.081, 2059.060
1273.563, 2061.259
1274.045, 2061.812
1274.527, 2059.916
1275.009, 2057.988
1275.491, 2056.860
1275.973, 2056.775
1276.455, 2058.323
1276.938, 2060.332
1277.420, 2063.089
1277.902, 2065.120
1278.384, 2064.871
1278.866, 2063.025
1279.348, 2060.719
1279.830, 2058.018
1280.312, 2056.989
1280.794, 2058.268
1281.276, 2058.438
1281.759, 2056.686
1282.241, 2057.900
1282.723, 2063.719
1283.205, 2068.885
1283.687, 2070.292
1284.169, 2068.907
1284.651, 2065.301
1285.133, 2060.910
1285.616, 2057.911
1286.098, 2056.129
##END=



