##NAMES=Sugilite
##RRUFFID=R070623
##IDEAL CHEMISTRY=KNa_2_Fe^3+^_2_(Li_3_Si_12_)O_30_
##LOCALITY=Wessels mine, Kuruman, Kalahari Manganese Field, South Africa
##OWNER=RRUFF
##SOURCE=Shinichi Kihara
##DESCRIPTION=Bright purple fragment
##STATUS=The identification of this mineral has been confirmed by X-ray diffraction.
##URL=rruff.info/R070623
103.1273, 16132.62
103.6094, 16132.47
104.0916, 16159.69
104.5737, 16182.82
105.0558, 16209.52
105.5379, 16217.85
106.0200, 16181.23
106.5021, 16111.46
106.9843, 16053.72
107.4664, 16041.87
107.9485, 16073.68
108.4306, 16150.68
108.9127, 16377.10
109.3948, 16571.98
109.8770, 16607.46
110.3591, 16459.72
110.8412, 16231.04
111.3233, 16111.89
111.8054, 16178.92
112.2875, 16256.36
112.7697, 16342.25
113.2518, 16428.05
113.7339, 16497.37
114.2160, 16539.38
114.6981, 16563.96
115.1802, 16646.62
115.6624, 16835.50
116.1445, 17021.21
116.6266, 17163.78
117.1087, 17271.94
117.5908, 17381.76
118.0729, 17523.12
118.5551, 17697.33
119.0372, 17859.53
119.5193, 17988.81
120.0014, 18117.54
120.4835, 18280.42
120.9656, 18485.06
121.4478, 18696.01
121.9299, 18865.71
122.4120, 19002.30
122.8941, 19154.70
123.3762, 19347.38
123.8583, 19569.05
124.3405, 19782.53
124.8226, 19962.95
125.3047, 20159.53
125.7868, 20407.60
126.2689, 20706.71
126.7510, 21046.54
127.2332, 21418.21
127.7153, 21825.51
128.1974, 22259.04
128.6795, 22705.64
129.1616, 23188.21
129.6437, 23744.16
130.1259, 24393.04
130.6080, 25070.41
131.0901, 25673.63
131.5722, 26249.22
132.0543, 26640.79
132.5364, 26867.70
133.0186, 26919.49
133.5007, 26768.79
133.9828, 26393.17
134.4649, 25814.71
134.9470, 25186.39
135.4291, 24431.21
135.9113, 23698.71
136.3934, 23003.87
136.8755, 22358.03
137.3576, 21776.91
137.8397, 21277.27
138.3219, 20864.11
138.8040, 20511.74
139.2861, 20222.53
139.7682, 19980.17
140.2503, 19777.78
140.7324, 19613.66
141.2146, 19491.95
141.6967, 19419.34
142.1788, 19404.70
142.6609, 19420.41
143.1430, 19461.29
143.6251, 19533.51
144.1073, 19629.75
144.5894, 19739.47
145.0715, 19911.17
145.5536, 20262.44
146.0357, 20806.23
146.5178, 21319.94
147.0000, 21792.78
147.4821, 22184.57
147.9642, 22345.94
148.4463, 22136.14
148.9284, 21743.13
149.4105, 21449.94
149.8927, 21291.12
150.3748, 21125.07
150.8569, 20813.08
151.3390, 20342.88
151.8211, 19870.66
152.3032, 19387.02
152.7854, 18961.19
153.2675, 18683.06
153.7496, 18602.03
154.2317, 18624.13
154.7138, 18587.33
155.1959, 18468.36
155.6781, 18336.31
156.1602, 18194.82
156.6423, 18059.83
157.1244, 17950.92
157.6065, 17880.29
158.0886, 17842.90
158.5708, 17812.13
159.0529, 17786.07
159.5350, 17770.38
160.0171, 17769.15
160.4992, 17778.79
160.9813, 17793.21
161.4635, 17807.79
161.9456, 17822.26
162.4277, 17840.35
162.9098, 17900.72
163.3919, 17930.26
163.8740, 17880.04
164.3562, 17763.77
164.8383, 17637.13
165.3204, 17558.09
165.8025, 17538.84
166.2846, 17532.69
166.7667, 17550.14
167.2489, 17571.91
167.7310, 17588.60
168.2131, 17597.45
168.6952, 17595.31
169.1773, 17574.61
169.6594, 17519.04
170.1416, 17486.30
170.6237, 17496.37
171.1058, 17524.65
171.5879, 17541.34
172.0700, 17536.27
172.5521, 17522.51
173.0343, 17525.89
173.5164, 17550.05
173.9985, 17573.09
174.4806, 17584.95
174.9627, 17590.62
175.4448, 17600.75
175.9270, 17616.56
176.4091, 17642.87
176.8912, 17684.18
177.3733, 17738.18
177.8554, 17809.43
178.3375, 17913.96
178.8197, 18047.07
179.3018, 18166.78
179.7839, 18258.65
180.2660, 18322.55
180.7481, 18361.99
181.2302, 18377.95
181.7124, 18368.49
182.1945, 18332.70
182.6766, 18271.29
183.1587, 18179.95
183.6408, 18021.09
184.1229, 17842.74
184.6051, 17690.36
185.0872, 17579.23
185.5693, 17500.06
186.0514, 17438.56
186.5335, 17399.66
187.0156, 17368.51
187.4978, 17342.60
187.9799, 17319.22
188.4620, 17295.19
188.9441, 17269.45
189.4262, 17241.83
189.9083, 17210.78
190.3905, 17165.06
190.8726, 17132.42
191.3547, 17128.92
191.8368, 17142.21
192.3189, 17151.99
192.8010, 17144.63
193.2832, 17120.89
193.7653, 17095.44
194.2474, 17044.25
194.7295, 17014.98
195.2116, 17036.63
195.6937, 17092.49
196.1759, 17143.48
196.6580, 17152.86
197.1401, 17112.64
197.6222, 17105.14
198.1043, 17178.64
198.5864, 17238.60
199.0686, 17234.58
199.5507, 17176.37
200.0328, 17111.98
200.5149, 17091.46
200.9970, 17127.73
201.4791, 17156.46
201.9613, 17181.03
202.4434, 17197.33
202.9255, 17198.82
203.4076, 17186.86
203.8897, 17172.29
204.3718, 17169.17
204.8540, 17186.40
205.3361, 17187.96
205.8182, 17149.52
206.3003, 17111.45
206.7824, 17111.84
207.2645, 17156.98
207.7467, 17216.54
208.2288, 17249.48
208.7109, 17244.03
209.1930, 17238.73
209.6751, 17229.46
210.1572, 17223.52
210.6394, 17232.47
211.1215, 17260.22
211.6036, 17292.47
212.0857, 17300.81
212.5678, 17270.01
213.0499, 17269.30
213.5321, 17305.04
214.0142, 17379.58
214.4963, 17522.26
214.9784, 17762.82
215.4605, 18008.54
215.9426, 18075.38
216.4248, 17943.45
216.9069, 17805.28
217.3890, 17712.65
217.8711, 17660.12
218.3532, 17642.39
218.8353, 17670.39
219.3175, 17712.99
219.7996, 17720.07
220.2817, 17687.58
220.7638, 17647.76
221.2459, 17610.02
221.7280, 17576.10
222.2102, 17554.11
222.6923, 17551.90
223.1744, 17557.65
223.6565, 17553.60
224.1386, 17537.67
224.6207, 17521.16
225.1029, 17505.16
225.5850, 17491.52
226.0671, 17497.39
226.5492, 17537.58
227.0313, 17593.82
227.5134, 17649.22
227.9956, 17706.61
228.4777, 17746.48
228.9598, 17741.39
229.4419, 17691.46
229.9240, 17653.61
230.4061, 17645.94
230.8883, 17659.66
231.3704, 17694.47
231.8525, 17755.91
232.3346, 17809.44
232.8167, 17813.32
233.2988, 17762.36
233.7810, 17711.99
234.2631, 17664.36
234.7452, 17633.49
235.2273, 17639.06
235.7094, 17689.55
236.1915, 17749.15
236.6737, 17770.44
237.1558, 17744.04
237.6379, 17727.20
238.1200, 17742.27
238.6021, 17770.18
239.0842, 17798.13
239.5664, 17822.38
240.0485, 17849.59
240.5306, 17891.87
241.0127, 17955.90
241.4948, 18011.80
241.9769, 18028.22
242.4591, 18047.22
242.9412, 18114.62
243.4233, 18246.98
243.9054, 18387.33
244.3875, 18436.69
244.8696, 18354.71
245.3518, 18293.74
245.8339, 18292.34
246.3160, 18317.03
246.7981, 18345.92
247.2802, 18371.86
247.7623, 18397.42
248.2445, 18422.77
248.7266, 18435.85
249.2087, 18479.65
249.6908, 18584.83
250.1729, 18706.15
250.6550, 18806.70
251.1372, 18874.85
251.6193, 18926.37
252.1014, 18998.83
252.5835, 19131.33
253.0656, 19194.46
253.5477, 19108.60
254.0299, 18994.18
254.5120, 18950.74
254.9941, 19010.87
255.4762, 19127.23
255.9583, 19212.54
256.4405, 19246.17
256.9226, 19290.14
257.4047, 19366.03
257.8868, 19444.89
258.3689, 19506.45
258.8510, 19543.75
259.3332, 19558.91
259.8153, 19552.13
260.2974, 19504.92
260.7795, 19471.61
261.2616, 19474.40
261.7437, 19479.78
262.2259, 19456.24
262.7080, 19395.69
263.1901, 19321.05
263.6722, 19273.05
264.1543, 19264.36
264.6364, 19260.38
265.1186, 19269.63
265.6007, 19275.63
266.0828, 19257.79
266.5649, 19212.99
267.0470, 19165.51
267.5291, 19157.33
268.0113, 19210.70
268.4934, 19262.61
268.9755, 19300.51
269.4576, 19342.77
269.9397, 19406.95
270.4218, 19495.51
270.9040, 19593.61
271.3861, 19676.59
271.8682, 19736.35
272.3503, 19797.14
272.8324, 19854.90
273.3145, 19916.35
273.7967, 19992.91
274.2788, 20083.94
274.7609, 20171.37
275.2430, 20232.28
275.7251, 20267.88
276.2072, 20268.80
276.6894, 20203.82
277.1715, 20133.93
277.6536, 20102.61
278.1357, 20113.59
278.6178, 20136.68
279.0999, 20131.20
279.5821, 20078.43
280.0642, 20049.88
280.5463, 20059.82
281.0284, 20077.87
281.5105, 20098.59
281.9926, 20114.88
282.4748, 20109.87
282.9569, 20060.59
283.4390, 19952.35
283.9211, 19855.02
284.4032, 19760.28
284.8853, 19680.96
285.3675, 19629.75
285.8496, 19603.01
286.3317, 19583.00
286.8138, 19550.44
287.2959, 19499.03
287.7780, 19470.10
288.2602, 19488.79
288.7423, 19504.93
289.2244, 19491.24
289.7065, 19454.21
290.1886, 19419.31
290.6707, 19409.11
291.1529, 19424.99
291.6350, 19447.89
292.1171, 19473.23
292.5992, 19509.78
293.0813, 19542.98
293.5634, 19588.41
294.0456, 19690.75
294.5277, 19904.37
295.0098, 20224.96
295.4919, 20387.91
295.9740, 20214.92
296.4561, 20054.01
296.9383, 19989.15
297.4204, 19997.69
297.9025, 20027.60
298.3846, 20047.86
298.8667, 20058.29
299.3488, 20057.78
299.8310, 20038.64
300.3131, 20015.79
300.7952, 19997.15
301.2773, 19975.38
301.7594, 19936.37
302.2415, 19870.40
302.7237, 19787.28
303.2058, 19726.43
303.6879, 19701.05
304.1700, 19682.02
304.6521, 19671.34
305.1342, 19661.66
305.6164, 19642.12
306.0985, 19607.31
306.5806, 19566.94
307.0627, 19546.70
307.5448, 19556.77
308.0269, 19571.45
308.5091, 19584.71
308.9912, 19601.41
309.4733, 19630.23
309.9554, 19673.82
310.4375, 19718.78
310.9196, 19736.26
311.4018, 19701.00
311.8839, 19697.60
312.3660, 19756.05
312.8481, 19831.05
313.3302, 19895.43
313.8123, 19941.76
314.2945, 19973.22
314.7766, 19993.40
315.2587, 20001.04
315.7408, 20001.15
316.2229, 19978.36
316.7050, 19960.20
317.1872, 19951.31
317.6693, 19957.27
318.1514, 19995.46
318.6335, 20104.95
319.1156, 20300.10
319.5977, 20438.41
320.0799, 20462.82
320.5620, 20471.15
321.0441, 20495.93
321.5262, 20540.55
322.0083, 20601.85
322.4904, 20684.88
322.9726, 20788.10
323.4547, 20874.55
323.9368, 20926.23
324.4189, 20983.28
324.9010, 21064.06
325.3831, 21163.44
325.8653, 21269.18
326.3474, 21373.54
326.8295, 21479.08
327.3116, 21598.99
327.7937, 21748.49
328.2758, 21886.04
328.7580, 21980.59
329.2401, 22056.21
329.7222, 22151.19
330.2043, 22293.37
330.6864, 22451.30
331.1685, 22561.95
331.6507, 22612.88
332.1328, 22658.62
332.6149, 22735.39
333.0970, 22814.03
333.5791, 22864.42
334.0612, 22878.34
334.5434, 22863.43
335.0255, 22833.08
335.5076, 22788.98
335.9897, 22702.91
336.4718, 22531.28
336.9539, 22333.04
337.4361, 22173.15
337.9182, 22062.45
338.4003, 21959.95
338.8824, 21832.89
339.3645, 21684.80
339.8466, 21543.06
340.3288, 21413.97
340.8109, 21294.95
341.2930, 21175.63
341.7751, 21055.08
342.2572, 20957.11
342.7393, 20905.66
343.2215, 20884.42
343.7036, 20854.23
344.1857, 20805.53
344.6678, 20755.00
345.1499, 20723.55
345.6320, 20707.80
346.1142, 20688.00
346.5963, 20647.47
347.0784, 20605.54
347.5605, 20594.34
348.0426, 20618.60
348.5247, 20635.38
349.0069, 20600.11
349.4890, 20521.29
349.9711, 20476.80
350.4532, 20500.17
350.9353, 20535.94
351.4174, 20545.77
351.8996, 20531.43
352.3817, 20508.68
352.8638, 20482.07
353.3459, 20456.29
353.8280, 20451.86
354.3102, 20491.97
354.7923, 20525.21
355.2744, 20521.85
355.7565, 20498.31
356.2386, 20491.26
356.7207, 20518.75
357.2029, 20564.27
357.6850, 20586.41
358.1671, 20565.78
358.6492, 20553.96
359.1313, 20564.98
359.6134, 20584.30
360.0956, 20597.08
360.5777, 20599.05
361.0598, 20592.45
361.5419, 20578.80
362.0240, 20548.00
362.5061, 20537.22
362.9883, 20561.77
363.4704, 20593.06
363.9525, 20607.01
364.4346, 20605.29
364.9167, 20611.63
365.3988, 20653.44
365.8810, 20738.73
366.3631, 20786.00
366.8452, 20768.74
367.3273, 20743.39
367.8094, 20719.29
368.2915, 20702.51
368.7737, 20700.80
369.2558, 20720.47
369.7379, 20758.32
370.2200, 20794.99
370.7021, 20829.33
371.1842, 20864.53
371.6664, 20910.96
372.1485, 20954.79
372.6306, 20973.93
373.1127, 20958.33
373.5948, 20932.07
374.0769, 20946.85
374.5591, 21024.79
375.0412, 21084.73
375.5233, 21096.89
376.0054, 21098.89
376.4875, 21121.67
376.9696, 21168.47
377.4518, 21209.03
377.9339, 21201.23
378.4160, 21143.07
378.8981, 21112.89
379.3802, 21136.79
379.8623, 21172.20
380.3445, 21196.03
380.8266, 21208.88
381.3087, 21216.38
381.7908, 21215.68
382.2729, 21212.18
382.7550, 21226.23
383.2372, 21267.84
383.7193, 21301.41
384.2014, 21293.50
384.6835, 21262.82
385.1656, 21241.39
385.6477, 21245.43
386.1299, 21254.91
386.6120, 21237.57
387.0941, 21194.81
387.5762, 21182.69
388.0583, 21246.58
388.5404, 21345.71
389.0226, 21391.30
389.5047, 21361.22
389.9868, 21327.05
390.4689, 21325.77
390.9510, 21346.00
391.4331, 21359.13
391.9153, 21353.89
392.3974, 21349.11
392.8795, 21374.67
393.3616, 21435.33
393.8437, 21502.72
394.3258, 21600.12
394.8080, 21687.00
395.2901, 21712.60
395.7722, 21676.09
396.2543, 21627.82
396.7364, 21611.59
397.2185, 21629.60
397.7007, 21658.18
398.1828, 21718.28
398.6649, 21766.20
399.1470, 21764.88
399.6291, 21737.43
400.1112, 21741.00
400.5934, 21812.84
401.0755, 21928.12
401.5576, 21984.80
402.0397, 21914.72
402.5218, 21869.79
403.0039, 21879.43
403.4861, 21910.38
403.9682, 21928.03
404.4503, 21922.28
404.9324, 21910.03
405.4145, 21920.56
405.8966, 21968.75
406.3788, 21992.86
406.8609, 21954.01
407.3430, 21921.65
407.8251, 21934.44
408.3072, 21987.97
408.7893, 22051.52
409.2715, 22106.73
409.7536, 22152.27
410.2357, 22179.70
410.7178, 22193.34
411.1999, 22179.21
411.6820, 22105.69
412.1642, 22009.03
412.6463, 21947.16
413.1284, 21946.79
413.6105, 21982.71
414.0926, 22030.02
414.5747, 22090.89
415.0569, 22132.93
415.5390, 22136.32
416.0211, 22119.52
416.5032, 22104.88
416.9853, 22090.24
417.4674, 22089.98
417.9496, 22119.42
418.4317, 22168.64
418.9138, 22214.31
419.3959, 22251.16
419.8780, 22284.98
420.3601, 22322.87
420.8423, 22364.83
421.3244, 22403.97
421.8065, 22435.53
422.2886, 22466.79
422.7707, 22505.22
423.2528, 22549.87
423.7350, 22591.78
424.2171, 22622.92
424.6992, 22646.49
425.1813, 22691.24
425.6634, 22747.62
426.1455, 22832.37
426.6277, 22972.92
427.1098, 23136.97
427.5919, 23279.21
428.0740, 23382.94
428.5561, 23470.38
429.0382, 23577.50
429.5204, 23692.11
430.0025, 23857.01
430.4846, 24109.44
430.9667, 24372.24
431.4488, 24592.21
431.9309, 24773.94
432.4131, 24954.59
432.8952, 25167.54
433.3773, 25411.12
433.8594, 25663.05
434.3415, 25933.88
434.8236, 26197.28
435.3058, 26432.46
435.7879, 26656.49
436.2700, 26892.93
436.7521, 27150.26
437.2342, 27425.32
437.7163, 27712.29
438.1985, 28009.16
438.6806, 28334.68
439.1627, 28706.60
439.6448, 29101.94
440.1269, 29489.73
440.6090, 29866.80
441.0912, 30267.35
441.5733, 30722.64
442.0554, 31211.78
442.5375, 31706.38
443.0196, 32218.96
443.5017, 32668.09
443.9839, 33007.88
444.4660, 33223.96
444.9481, 33260.49
445.4302, 33042.14
445.9124, 32706.96
446.3945, 32329.28
446.8766, 31905.03
447.3587, 31406.93
447.8408, 30815.00
448.3229, 30157.00
448.8051, 29520.81
449.2872, 28868.80
449.7693, 28290.05
450.2514, 27817.33
450.7335, 27401.75
451.2156, 26989.91
451.6978, 26577.31
452.1799, 26210.17
452.6620, 25950.63
453.1441, 25813.72
453.6262, 25664.87
454.1083, 25492.09
454.5905, 25319.28
455.0726, 25143.39
455.5547, 24974.46
456.0368, 24829.56
456.5189, 24719.87
457.0010, 24636.30
457.4832, 24556.42
457.9653, 24472.80
458.4474, 24421.16
458.9295, 24449.75
459.4116, 24492.13
459.8937, 24491.06
460.3759, 24438.97
460.8580, 24381.79
461.3401, 24350.47
461.8222, 24339.26
462.3043, 24326.06
462.7864, 24302.00
463.2686, 24297.35
463.7507, 24352.53
464.2328, 24455.14
464.7149, 24538.69
465.1970, 24579.17
465.6791, 24612.27
466.1613, 24659.72
466.6434, 24720.01
467.1255, 24788.57
467.6076, 24864.02
468.0897, 24943.21
468.5718, 25017.71
469.0540, 25091.26
469.5361, 25153.99
470.0182, 25187.28
470.5003, 25221.60
470.9824, 25288.88
471.4645, 25388.70
471.9467, 25491.61
472.4288, 25564.41
472.9109, 25605.03
473.3930, 25681.29
473.8751, 25844.30
474.3572, 25986.21
474.8394, 26087.71
475.3215, 26149.58
475.8036, 26172.97
476.2857, 26156.90
476.7678, 26110.42
477.2499, 26046.87
477.7321, 25967.38
478.2142, 25862.76
478.6963, 25714.06
479.1784, 25555.48
479.6605, 25410.77
480.1426, 25280.85
480.6248, 25161.01
481.1069, 25064.38
481.5890, 24970.18
482.0711, 24832.02
482.5532, 24644.08
483.0353, 24469.32
483.5175, 24341.26
483.9996, 24261.59
484.4817, 24223.26
484.9638, 24263.31
485.4459, 24296.32
485.9280, 24285.99
486.4102, 24251.84
486.8923, 24226.35
487.3744, 24218.73
487.8565, 24208.15
488.3386, 24161.83
488.8207, 24057.44
489.3029, 23997.77
489.7850, 24004.46
490.2671, 24026.48
490.7492, 24058.37
491.2313, 24086.65
491.7134, 24082.88
492.1956, 24023.19
492.6777, 23938.78
493.1598, 23925.46
493.6419, 24018.95
494.1240, 24090.14
494.6061, 24091.86
495.0883, 24071.23
495.5704, 24058.19
496.0525, 24056.67
496.5346, 24058.80
497.0167, 24061.53
497.4988, 24063.35
497.9810, 24056.91
498.4631, 24037.87
498.9452, 24025.36
499.4273, 24032.93
499.9094, 24058.37
500.3915, 24091.20
500.8737, 24144.42
501.3558, 24190.55
501.8379, 24211.74
502.3200, 24216.26
502.8021, 24219.99
503.2842, 24228.18
503.7664, 24239.65
504.2485, 24253.45
504.7306, 24273.22
505.2127, 24283.93
505.6948, 24282.22
506.1769, 24275.80
506.6591, 24264.75
507.1412, 24252.39
507.6233, 24243.74
508.1054, 24240.88
508.5875, 24246.33
509.0696, 24272.62
509.5518, 24336.32
510.0339, 24381.02
510.5160, 24383.66
510.9981, 24370.50
511.4802, 24355.05
511.9623, 24340.23
512.4445, 24332.64
512.9266, 24348.56
513.4087, 24375.04
513.8908, 24366.78
514.3729, 24311.72
514.8550, 24268.76
515.3372, 24280.66
515.8193, 24336.93
516.3014, 24393.80
516.7835, 24466.80
517.2656, 24519.39
517.7477, 24519.25
518.2299, 24491.52
518.7120, 24480.43
519.1941, 24498.57
519.6762, 24525.91
520.1583, 24534.12
520.6404, 24512.05
521.1226, 24520.59
521.6047, 24585.65
522.0868, 24649.77
522.5689, 24689.32
523.0510, 24710.70
523.5331, 24729.88
524.0153, 24755.61
524.4974, 24778.98
524.9795, 24781.06
525.4616, 24758.63
525.9437, 24727.68
526.4258, 24663.15
526.9080, 24616.51
527.3901, 24634.97
527.8722, 24711.25
528.3543, 24784.76
528.8364, 24828.01
529.3185, 24849.29
529.8007, 24858.23
530.2828, 24855.30
530.7649, 24842.96
531.2470, 24815.64
531.7291, 24784.83
532.2112, 24785.27
532.6934, 24834.53
533.1755, 24875.11
533.6576, 24879.99
534.1397, 24880.11
534.6218, 24914.57
535.1039, 24982.66
535.5861, 25046.34
536.0682, 25070.57
536.5503, 25057.19
537.0324, 25043.28
537.5145, 25022.98
537.9966, 25010.22
538.4788, 25006.72
538.9609, 25012.20
539.4430, 25027.41
539.9251, 25052.41
540.4072, 25082.95
540.8893, 25119.47
541.3715, 25159.80
541.8536, 25187.78
542.3357, 25202.64
542.8178, 25202.91
543.2999, 25171.91
543.7820, 25124.69
544.2642, 25103.01
544.7463, 25142.22
545.2284, 25176.77
545.7105, 25149.03
546.1926, 25089.77
546.6747, 25068.56
547.1569, 25108.15
547.6390, 25175.27
548.1211, 25226.94
548.6032, 25261.81
549.0853, 25285.76
549.5674, 25291.36
550.0496, 25295.56
550.5317, 25301.06
551.0138, 25310.93
551.4959, 25331.46
551.9780, 25366.63
552.4601, 25406.01
552.9423, 25430.97
553.4244, 25440.01
553.9065, 25442.23
554.3886, 25424.88
554.8707, 25416.30
555.3528, 25440.78
555.8350, 25492.69
556.3171, 25544.94
556.7992, 25604.02
557.2813, 25646.62
557.7634, 25633.02
558.2455, 25574.04
558.7277, 25531.21
559.2098, 25533.46
559.6919, 25559.99
560.1740, 25571.56
560.6561, 25557.95
561.1382, 25551.92
561.6204, 25553.62
562.1025, 25563.47
562.5846, 25592.07
563.0667, 25629.93
563.5488, 25649.33
564.0309, 25629.40
564.5131, 25588.71
564.9952, 25579.29
565.4773, 25601.31
565.9594, 25653.80
566.4415, 25637.29
566.9236, 25831.04
567.4058, 25948.72
567.8879, 25994.41
568.3700, 25752.47
568.8521, 25881.93
569.3342, 25862.55
569.8163, 25837.07
570.2985, 26018.81
570.7806, 25818.71
571.2627, 25997.16
571.7448, 26024.50
572.2269, 26120.99
572.7090, 26067.73
573.1912, 26060.73
573.6733, 26203.53
574.1554, 26263.38
574.6375, 26192.88
575.1196, 26293.78
575.6017, 26154.07
576.0839, 26217.96
576.5660, 26309.43
577.0481, 26350.08
577.5302, 26314.04
578.0123, 26288.83
578.4944, 26313.50
578.9766, 26341.83
579.4587, 26332.33
579.9408, 26286.28
580.4229, 26253.36
580.9050, 26270.30
581.3871, 26313.74
581.8693, 26349.95
582.3514, 26377.75
582.8335, 26398.26
583.3156, 26409.62
583.7977, 26416.83
584.2798, 26433.81
584.7620, 26476.45
585.2441, 26496.51
585.7262, 26470.38
586.2083, 26434.97
586.6904, 26411.20
587.1725, 26403.64
587.6547, 26413.56
588.1368, 26442.47
588.6189, 26487.97
589.1010, 26545.77
589.5831, 26625.88
590.0652, 26690.18
590.5474, 26715.84
591.0295, 26732.48
591.5116, 26764.30
591.9937, 26810.28
592.4758, 26846.79
592.9579, 26863.73
593.4401, 26864.07
593.9222, 26835.76
594.4043, 26786.18
594.8864, 26773.06
595.3685, 26832.30
595.8506, 26925.99
596.3328, 26975.76
596.8149, 26960.03
597.2970, 26939.82
597.7791, 26897.74
598.2612, 26866.66
598.7433, 26870.12
599.2255, 26901.99
599.7076, 26947.50
600.1897, 27002.26
600.6718, 27050.68
601.1539, 27044.42
601.6360, 26966.87
602.1182, 26939.52
602.6003, 27025.46
603.0824, 27125.86
603.5645, 27151.10
604.0466, 27114.06
604.5287, 27091.04
605.0109, 27110.41
605.4930, 27148.98
605.9751, 27202.89
606.4572, 27261.13
606.9393, 27286.16
607.4214, 27261.84
607.9036, 27224.25
608.3857, 27231.00
608.8678, 27300.89
609.3499, 27347.98
609.8320, 27352.09
610.3141, 27357.36
610.7963, 27390.32
611.2784, 27433.13
611.7605, 27448.38
612.2426, 27417.43
612.7247, 27387.71
613.2068, 27435.23
613.6890, 27549.42
614.1711, 27620.91
614.6532, 27627.32
615.1353, 27609.09
615.6174, 27582.36
616.0995, 27555.14
616.5817, 27563.46
617.0638, 27648.81
617.5459, 27724.37
618.0280, 27745.19
618.5101, 27741.10
618.9922, 27750.57
619.4744, 27782.41
619.9565, 27824.35
620.4386, 27863.02
620.9207, 27899.17
621.4028, 27957.41
621.8849, 28068.71
622.3671, 28150.45
622.8492, 28148.91
623.3313, 28128.15
623.8134, 28159.49
624.2955, 28254.48
624.7776, 28341.50
625.2598, 28361.49
625.7419, 28349.31
626.2240, 28361.34
626.7061, 28401.00
627.1882, 28466.80
627.6703, 28567.94
628.1525, 28680.38
628.6346, 28737.32
629.1167, 28702.99
629.5988, 28665.54
630.0809, 28607.91
630.5630, 28562.08
631.0452, 28561.09
631.5273, 28591.28
632.0094, 28609.41
632.4915, 28586.60
632.9736, 28548.58
633.4557, 28551.38
633.9379, 28599.01
634.4200, 28628.50
634.9021, 28620.18
635.3842, 28599.90
635.8663, 28593.97
636.3484, 28599.35
636.8306, 28596.12
637.3127, 28562.11
637.7948, 28538.36
638.2769, 28542.60
638.7590, 28574.21
639.2411, 28647.39
639.7233, 28761.23
640.2054, 28861.75
640.6875, 28875.11
641.1696, 28794.67
641.6517, 28747.05
642.1339, 28734.67
642.6160, 28753.01
643.0981, 28809.56
643.5802, 28887.51
644.0623, 28980.69
644.5444, 29091.73
645.0266, 29164.25
645.5087, 29118.42
645.9908, 29027.60
646.4729, 29029.61
646.9550, 29127.50
647.4371, 29216.09
647.9193, 29232.52
648.4014, 29200.07
648.8835, 29184.85
649.3656, 29195.70
649.8477, 29211.71
650.3298, 29249.12
650.8120, 29277.52
651.2941, 29271.09
651.7762, 29240.27
652.2583, 29213.38
652.7404, 29204.11
653.2225, 29208.73
653.7047, 29228.42
654.1868, 29261.26
654.6689, 29279.13
655.1510, 29273.18
655.6331, 29258.49
656.1152, 29244.77
656.5974, 29232.90
657.0795, 29233.61
657.5616, 29263.22
658.0437, 29285.62
658.5258, 29266.25
659.0079, 29243.89
659.4901, 29278.95
659.9722, 29374.91
660.4543, 29468.86
660.9364, 29498.72
661.4185, 29475.00
661.9006, 29461.00
662.3828, 29460.21
662.8649, 29457.83
663.3470, 29437.47
663.8291, 29422.51
664.3112, 29444.28
664.7933, 29505.75
665.2755, 29561.88
665.7576, 29604.22
666.2397, 29631.72
666.7218, 29638.01
667.2039, 29628.56
667.6860, 29609.94
668.1682, 29584.50
668.6503, 29573.92
669.1324, 29623.70
669.6145, 29755.99
670.0966, 29834.71
670.5787, 29816.57
671.0609, 29799.92
671.5430, 29823.89
672.0251, 29873.21
672.5072, 29934.65
672.9893, 30015.22
673.4714, 30061.18
673.9536, 29998.77
674.4357, 29896.62
674.9178, 29876.97
675.3999, 29943.44
675.8820, 30000.61
676.3641, 29983.06
676.8463, 29923.59
677.3284, 29930.52
677.8105, 30059.97
678.2926, 30150.14
678.7747, 30181.98
679.2568, 30189.95
679.7390, 30176.43
680.2211, 30154.34
680.7032, 30150.03
681.1853, 30176.83
681.6674, 30220.27
682.1495, 30270.62
682.6317, 30324.82
683.1138, 30374.88
683.5959, 30419.87
684.0780, 30449.65
684.5601, 30453.06
685.0422, 30432.54
685.5244, 30414.31
686.0065, 30377.76
686.4886, 30371.42
686.9707, 30431.11
687.4528, 30500.37
687.9349, 30525.03
688.4171, 30510.68
688.8992, 30509.16
689.3813, 30567.85
689.8634, 30642.91
690.3455, 30645.10
690.8276, 30582.79
691.3098, 30552.62
691.7919, 30587.29
692.2740, 30641.59
692.7561, 30663.86
693.2382, 30650.61
693.7203, 30657.70
694.2025, 30695.98
694.6846, 30738.88
695.1667, 30792.98
695.6488, 30839.63
696.1309, 30850.80
696.6130, 30826.76
697.0952, 30802.85
697.5773, 30805.35
698.0594, 30831.16
698.5415, 30880.88
699.0236, 30956.20
699.5057, 31012.78
699.9879, 31029.63
700.4700, 31030.10
700.9521, 31051.47
701.4342, 31104.14
701.9163, 31113.68
702.3984, 31014.09
702.8806, 30942.72
703.3627, 30984.69
703.8448, 31078.71
704.3269, 31136.36
704.8090, 31134.71
705.2911, 31122.08
705.7733, 31151.57
706.2554, 31211.64
706.7375, 31249.09
707.2196, 31260.46
707.7017, 31276.01
708.1838, 31316.18
708.6660, 31357.80
709.1481, 31353.38
709.6302, 31284.92
710.1123, 31258.12
710.5944, 31300.16
711.0765, 31365.26
711.5587, 31451.71
712.0408, 31538.33
712.5229, 31596.34
713.0050, 31616.02
713.4871, 31606.08
713.9692, 31551.96
714.4514, 31470.59
714.9335, 31466.39
715.4156, 31555.96
715.8977, 31641.71
716.3798, 31679.93
716.8619, 31687.45
717.3441, 31692.29
717.8262, 31690.38
718.3083, 31700.83
718.7904, 31741.56
719.2725, 31778.52
719.7546, 31781.78
720.2368, 31770.89
720.7189, 31783.77
721.2010, 31833.30
721.6831, 31892.54
722.1652, 31935.79
722.6473, 31962.74
723.1295, 31966.19
723.6116, 31940.61
724.0937, 31926.17
724.5758, 31946.33
725.0579, 31985.44
725.5400, 32008.26
726.0222, 31998.75
726.5043, 32022.79
726.9864, 32138.22
727.4685, 32233.64
727.9506, 32232.00
728.4327, 32173.60
728.9149, 32126.39
729.3970, 32114.18
729.8791, 32126.01
730.3612, 32160.14
730.8433, 32209.30
731.3254, 32241.81
731.8076, 32254.70
732.2897, 32271.98
732.7718, 32308.34
733.2539, 32352.02
733.7360, 32378.23
734.2181, 32370.27
734.7003, 32389.13
735.1824, 32467.66
735.6645, 32537.30
736.1466, 32561.29
736.6287, 32556.98
737.1108, 32550.47
737.5930, 32549.67
738.0751, 32553.14
738.5572, 32556.84
739.0393, 32564.18
739.5214, 32588.23
740.0035, 32628.85
740.4857, 32664.30
740.9678, 32683.82
741.4499, 32694.36
741.9320, 32706.40
742.4141, 32715.52
742.8962, 32742.70
743.3784, 32807.28
743.8605, 32867.04
744.3426, 32911.27
744.8247, 32941.11
745.3068, 32951.95
745.7889, 32943.51
746.2711, 32944.31
746.7532, 32993.43
747.2353, 33055.30
747.7174, 33060.38
748.1995, 33017.73
748.6816, 32994.20
749.1638, 33017.09
749.6459, 33068.76
750.1280, 33127.52
750.6101, 33197.61
751.0922, 33243.32
751.5743, 33249.91
752.0565, 33251.18
752.5386, 33251.86
753.0207, 33254.83
753.5028, 33260.04
753.9849, 33267.89
754.4670, 33289.70
754.9492, 33351.57
755.4313, 33413.13
755.9134, 33422.68
756.3955, 33399.73
756.8776, 33398.57
757.3597, 33435.98
757.8419, 33488.68
758.3240, 33531.67
758.8061, 33564.92
759.2882, 33589.92
759.7703, 33610.21
760.2524, 33613.18
760.7346, 33573.60
761.2167, 33532.83
761.6988, 33536.57
762.1809, 33582.51
762.6630, 33622.43
763.1451, 33633.44
763.6273, 33648.67
764.1094, 33711.42
764.5915, 33778.55
765.0736, 33765.48
765.5557, 33672.11
766.0378, 33605.35
766.5200, 33666.85
767.0021, 33811.30
767.4842, 33907.47
767.9663, 33954.55
768.4484, 33950.03
768.9305, 33859.99
769.4127, 33787.95
769.8948, 33853.65
770.3769, 34044.32
770.8590, 34147.38
771.3411, 34098.18
771.8232, 34050.52
772.3054, 34030.59
772.7875, 34028.03
773.2696, 34031.36
773.7517, 34043.10
774.2338, 34078.31
774.7159, 34152.35
775.1981, 34235.57
775.6802, 34292.20
776.1623, 34324.67
776.6444, 34339.70
777.1265, 34338.14
777.6086, 34325.74
778.0908, 34302.79
778.5729, 34276.04
779.0550, 34267.63
779.5371, 34272.79
780.0192, 34305.85
780.5013, 34401.14
780.9835, 34488.86
781.4656, 34527.85
781.9477, 34537.98
782.4298, 34558.68
782.9119, 34602.60
783.3940, 34645.71
783.8762, 34678.88
784.3583, 34699.68
784.8404, 34698.05
785.3225, 34680.20
785.8046, 34668.91
786.2867, 34675.16
786.7689, 34690.86
787.2510, 34697.57
787.7331, 34692.56
788.2152, 34731.56
788.6973, 34839.22
789.1794, 34928.75
789.6616, 34953.29
790.1437, 34946.53
790.6258, 34955.78
791.1079, 34980.72
791.5900, 35021.62
792.0721, 35113.64
792.5543, 35183.22
793.0364, 35182.68
793.5185, 35141.17
794.0006, 35083.68
794.4827, 35024.81
794.9648, 35004.70
795.4470, 35085.82
795.9291, 35209.82
796.4112, 35235.31
796.8933, 35174.54
797.3754, 35154.39
797.8575, 35215.33
798.3397, 35287.54
798.8218, 35294.63
799.3039, 35244.02
799.7860, 35247.85
800.2681, 35360.80
800.7502, 35442.74
801.2324, 35470.99
801.7145, 35472.00
802.1966, 35442.50
802.6787, 35399.95
803.1608, 35396.22
803.6429, 35474.80
804.1251, 35544.36
804.6072, 35516.97
805.0893, 35460.11
805.5714, 35472.95
806.0535, 35553.95
806.5356, 35640.74
807.0178, 35697.86
807.4999, 35740.02
807.9820, 35797.79
808.4641, 35871.98
808.9462, 35929.83
809.4283, 35970.13
809.9105, 35988.36
810.3926, 35967.03
810.8747, 35931.66
811.3568, 35934.99
811.8389, 35985.26
812.3210, 36042.02
812.8032, 36126.36
813.2853, 36191.37
813.7674, 36194.11
814.2495, 36175.43
814.7317, 36198.76
815.2138, 36273.18
815.6959, 36335.59
816.1780, 36323.45
816.6602, 36283.85
817.1423, 36288.82
817.6244, 36325.95
818.1065, 36349.56
818.5886, 36347.02
819.0707, 36332.01
819.5529, 36312.61
820.0350, 36294.68
820.5171, 36326.81
820.9992, 36438.88
821.4813, 36512.79
821.9634, 36503.91
822.4456, 36479.19
822.9277, 36489.89
823.4098, 36525.65
823.8919, 36554.28
824.3740, 36573.49
824.8561, 36583.99
825.3383, 36566.33
825.8204, 36556.54
826.3025, 36588.90
826.7846, 36654.54
827.2667, 36730.30
827.7488, 36808.11
828.2310, 36871.53
828.7131, 36903.84
829.1952, 36906.91
829.6773, 36869.91
830.1594, 36797.18
830.6415, 36758.37
831.1237, 36787.04
831.6058, 36850.46
832.0879, 36903.85
832.5700, 36948.03
833.0521, 36971.19
833.5342, 36952.93
834.0164, 36947.93
834.4985, 36981.05
834.9806, 37027.40
835.4627, 37065.14
835.9448, 37095.43
836.4269, 37136.58
836.9091, 37229.98
837.3912, 37291.91
837.8733, 37246.71
838.3554, 37172.05
838.8375, 37166.66
839.3196, 37224.74
839.8018, 37266.26
840.2839, 37237.89
840.7660, 37190.61
841.2481, 37195.92
841.7302, 37247.53
842.2123, 37337.39
842.6945, 37465.07
843.1766, 37545.84
843.6587, 37519.95
844.1408, 37447.26
844.6229, 37460.23
845.1050, 37596.80
845.5872, 37669.39
846.0693, 37642.81
846.5514, 37602.25
847.0335, 37551.41
847.5156, 37518.34
847.9977, 37550.69
848.4799, 37652.30
848.9620, 37720.54
849.4441, 37678.56
849.9262, 37652.00
850.4083, 37744.96
850.8904, 37874.13
851.3726, 37926.79
851.8547, 37895.94
852.3368, 37851.44
852.8189, 37835.21
853.3010, 37840.32
853.7831, 37870.75
854.2653, 37914.84
854.7474, 37910.77
855.2295, 37850.01
855.7116, 37818.03
856.1937, 37873.54
856.6758, 37982.04
857.1580, 38061.79
857.6401, 38109.30
858.1222, 38140.83
858.6043, 38145.09
859.0864, 38151.43
859.5685, 38173.18
860.0507, 38203.87
860.5328, 38233.96
861.0149, 38262.31
861.4970, 38299.96
861.9791, 38375.17
862.4612, 38429.60
862.9434, 38411.47
863.4255, 38371.85
863.9076, 38379.52
864.3897, 38434.41
864.8718, 38477.46
865.3539, 38466.17
865.8361, 38437.33
866.3182, 38427.38
866.8003, 38437.13
867.2824, 38476.14
867.7645, 38542.37
868.2466, 38604.66
868.7288, 38643.28
869.2109, 38669.07
869.6930, 38711.52
870.1751, 38777.23
870.6572, 38790.98
871.1393, 38723.63
871.6215, 38682.07
872.1036, 38729.68
872.5857, 38813.16
873.0678, 38847.41
873.5499, 38820.62
874.0320, 38814.19
874.5142, 38839.07
874.9963, 38870.71
875.4784, 38905.46
875.9605, 38941.50
876.4426, 38984.83
876.9247, 39029.71
877.4069, 39052.23
877.8890, 39033.25
878.3711, 39004.53
878.8532, 38970.36
879.3353, 38951.57
879.8174, 38997.73
880.2996, 39091.30
880.7817, 39151.57
881.2638, 39136.95
881.7459, 39095.69
882.2280, 39091.14
882.7101, 39120.20
883.1923, 39174.11
883.6744, 39254.61
884.1565, 39304.16
884.6386, 39293.15
885.1207, 39273.94
885.6028, 39319.24
886.0850, 39429.47
886.5671, 39482.08
887.0492, 39439.09
887.5313, 39409.14
888.0134, 39407.34
888.4955, 39428.04
888.9777, 39481.96
889.4598, 39555.11
889.9419, 39601.30
890.4240, 39594.86
890.9061, 39599.14
891.3882, 39641.70
891.8704, 39691.15
892.3525, 39724.08
892.8346, 39746.79
893.3167, 39782.43
893.7988, 39836.84
894.2809, 39866.14
894.7631, 39808.39
895.2452, 39724.56
895.7273, 39697.37
896.2094, 39717.34
896.6915, 39759.55
897.1736, 39815.59
897.6558, 39868.35
898.1379, 39902.29
898.6200, 39925.30
899.1021, 39960.49
899.5842, 40008.20
900.0663, 40058.76
900.5485, 40114.24
901.0306, 40154.20
901.5127, 40157.37
901.9948, 40147.31
902.4769, 40181.91
902.9590, 40287.90
903.4412, 40347.34
903.9233, 40318.21
904.4054, 40296.23
904.8875, 40307.72
905.3696, 40339.73
905.8517, 40388.25
906.3339, 40449.93
906.8160, 40492.57
907.2981, 40479.02
907.7802, 40482.42
908.2623, 40555.91
908.7444, 40642.22
909.2266, 40680.50
909.7087, 40680.85
910.1908, 40691.23
910.6729, 40733.36
911.1550, 40781.96
911.6371, 40826.18
912.1193, 40855.14
912.6014, 40835.43
913.0835, 40782.55
913.5656, 40756.88
914.0477, 40778.47
914.5298, 40817.80
915.0120, 40845.17
915.4941, 40862.72
915.9762, 40878.10
916.4583, 40891.37
916.9404, 40901.43
917.4225, 40906.47
917.9047, 40916.48
918.3868, 40938.09
918.8689, 40971.09
919.3510, 41016.07
919.8331, 41082.08
920.3152, 41137.61
920.7974, 41190.12
921.2795, 41221.29
921.7616, 41188.45
922.2437, 41149.95
922.7258, 41196.27
923.2079, 41335.22
923.6901, 41408.47
924.1722, 41310.71
924.6543, 41250.17
925.1364, 41343.61
925.6185, 41468.76
926.1006, 41506.58
926.5828, 41472.71
927.0649, 41456.94
927.5470, 41496.95
928.0291, 41549.17
928.5112, 41589.95
928.9933, 41621.98
929.4755, 41637.85
929.9576, 41649.41
930.4397, 41693.65
930.9218, 41778.89
931.4039, 41853.80
931.8860, 41860.92
932.3682, 41829.01
932.8503, 41825.34
933.3324, 41843.78
933.8145, 41841.13
934.2966, 41809.66
934.7787, 41815.61
935.2609, 41915.05
935.7430, 42054.22
936.2251, 42094.23
936.7072, 42022.19
937.1893, 41963.61
937.6714, 41916.95
938.1536, 41905.84
938.6357, 41947.63
939.1178, 42019.57
939.5999, 42095.64
940.0820, 42177.18
940.5641, 42242.41
941.0463, 42290.66
941.5284, 42323.57
942.0105, 42325.54
942.4926, 42327.80
942.9747, 42356.54
943.4568, 42400.51
943.9390, 42425.75
944.4211, 42411.46
944.9032, 42426.25
945.3853, 42518.50
945.8674, 42612.14
946.3495, 42665.45
946.8317, 42689.90
947.3138, 42698.82
947.7959, 42697.92
948.2780, 42702.87
948.7601, 42728.40
949.2422, 42755.33
949.7244, 42760.04
950.2065, 42760.02
950.6886, 42788.50
951.1707, 42838.74
951.6528, 42872.63
952.1349, 42871.44
952.6171, 42858.22
953.0992, 42846.30
953.5813, 42847.56
954.0634, 42915.43
954.5455, 43032.64
955.0276, 43090.13
955.5098, 43057.74
955.9919, 43006.84
956.4740, 43000.99
956.9561, 43031.01
957.4382, 43069.80
957.9203, 43117.40
958.4025, 43172.65
958.8846, 43239.05
959.3667, 43291.10
959.8488, 43310.18
960.3309, 43316.84
960.8130, 43348.07
961.2952, 43407.86
961.7773, 43453.11
962.2594, 43480.93
962.7415, 43498.39
963.2236, 43491.84
963.7057, 43492.25
964.1879, 43535.94
964.6700, 43610.43
965.1521, 43655.77
965.6342, 43636.95
966.1163, 43653.12
966.5984, 43750.46
967.0806, 43840.05
967.5627, 43891.76
968.0448, 43905.27
968.5269, 43860.62
969.0090, 43760.91
969.4911, 43712.38
969.9733, 43778.19
970.4554, 43866.73
970.9375, 43949.57
971.4196, 44023.54
971.9017, 44099.52
972.3839, 44163.61
972.8660, 44172.01
973.3481, 44101.86
973.8302, 44036.37
974.3123, 44039.72
974.7944, 44076.67
975.2766, 44100.38
975.7587, 44129.49
976.2408, 44230.03
976.7229, 44397.12
977.2050, 44517.12
977.6871, 44497.19
978.1693, 44420.86
978.6514, 44412.58
979.1335, 44447.12
979.6156, 44448.90
980.0977, 44419.81
980.5798, 44419.38
981.0620, 44472.93
981.5441, 44552.04
982.0262, 44625.14
982.5083, 44692.92
982.9904, 44761.63
983.4725, 44830.85
983.9547, 44869.04
984.4368, 44866.02
984.9189, 44876.74
985.4010, 44941.36
985.8831, 45040.40
986.3652, 45132.02
986.8474, 45216.55
987.3295, 45290.39
987.8116, 45351.95
988.2937, 45406.37
988.7758, 45449.37
989.2579, 45496.70
989.7401, 45561.45
990.2222, 45644.94
990.7043, 45765.42
991.1864, 45954.04
991.6685, 46111.53
992.1506, 46217.02
992.6328, 46311.89
993.1149, 46398.43
993.5970, 46496.15
994.0791, 46638.86
994.5612, 46830.97
995.0433, 47031.82
995.5255, 47252.29
996.0076, 47464.94
996.4897, 47650.19
996.9718, 47838.38
997.4539, 48051.83
997.9360, 48285.00
998.4182, 48522.08
998.9003, 48757.76
999.3824, 49006.46
999.8645, 49281.41
1000.347, 49559.30
1000.829, 49848.00
1001.311, 50119.99
1001.793, 50337.21
1002.275, 50504.96
1002.757, 50670.52
1003.239, 50854.56
1003.721, 51035.55
1004.204, 51249.98
1004.686, 51414.76
1005.168, 51432.46
1005.650, 51345.32
1006.132, 51241.68
1006.614, 51144.24
1007.096, 51021.51
1007.578, 50836.17
1008.060, 50634.68
1008.543, 50473.95
1009.025, 50322.64
1009.507, 50113.90
1009.989, 49864.18
1010.471, 49658.04
1010.953, 49533.19
1011.435, 49431.28
1011.917, 49289.08
1012.400, 49133.36
1012.882, 49018.84
1013.364, 48929.27
1013.846, 48804.49
1014.328, 48640.59
1014.810, 48494.79
1015.292, 48400.19
1015.774, 48367.48
1016.256, 48454.96
1016.739, 48615.19
1017.221, 48656.89
1017.703, 48592.23
1018.185, 48583.46
1018.667, 48681.00
1019.149, 48792.33
1019.631, 48830.89
1020.113, 48825.07
1020.596, 48859.52
1021.078, 48929.25
1021.560, 48952.23
1022.042, 48918.88
1022.524, 48927.75
1023.006, 49033.38
1023.488, 49126.51
1023.970, 49049.86
1024.452, 48834.20
1024.935, 48712.55
1025.417, 48695.32
1025.899, 48659.57
1026.381, 48577.88
1026.863, 48518.75
1027.345, 48529.47
1027.827, 48570.50
1028.309, 48562.54
1028.792, 48499.06
1029.274, 48501.51
1029.756, 48599.29
1030.238, 48653.27
1030.720, 48616.34
1031.202, 48563.37
1031.684, 48551.45
1032.166, 48566.34
1032.648, 48561.29
1033.130, 48512.43
1033.613, 48538.82
1034.095, 48693.91
1034.577, 48812.19
1035.059, 48833.87
1035.541, 48811.71
1036.023, 48788.23
1036.505, 48764.18
1036.987, 48744.36
1037.470, 48737.61
1037.952, 48716.43
1038.434, 48661.87
1038.916, 48618.95
1039.398, 48603.68
1039.880, 48610.07
1040.362, 48656.51
1040.844, 48739.58
1041.327, 48723.65
1041.809, 48479.11
1042.291, 48334.11
1042.773, 48379.49
1043.255, 48447.31
1043.737, 48463.35
1044.219, 48449.05
1044.701, 48442.49
1045.183, 48447.74
1045.666, 48413.41
1046.148, 48259.87
1046.630, 48173.12
1047.112, 48240.52
1047.594, 48331.95
1048.076, 48365.79
1048.558, 48363.15
1049.040, 48369.65
1049.522, 48390.00
1050.005, 48415.27
1050.487, 48437.57
1050.969, 48472.66
1051.451, 48544.79
1051.933, 48614.48
1052.415, 48655.51
1052.897, 48667.93
1053.379, 48650.59
1053.862, 48589.97
1054.344, 48559.87
1054.826, 48603.95
1055.308, 48650.70
1055.790, 48659.87
1056.272, 48664.66
1056.754, 48712.12
1057.236, 48785.34
1057.719, 48816.01
1058.201, 48771.81
1058.683, 48736.78
1059.165, 48743.00
1059.647, 48758.63
1060.129, 48756.18
1060.611, 48760.61
1061.093, 48811.67
1061.575, 48900.24
1062.058, 48969.66
1062.540, 48988.40
1063.022, 49021.63
1063.504, 49132.46
1063.986, 49224.35
1064.468, 49197.00
1064.950, 49133.95
1065.432, 49162.76
1065.915, 49279.96
1066.397, 49360.99
1066.879, 49345.42
1067.361, 49318.29
1067.843, 49293.97
1068.325, 49293.59
1068.807, 49352.13
1069.289, 49434.72
1069.771, 49493.66
1070.254, 49521.28
1070.736, 49529.05
1071.218, 49491.31
1071.700, 49482.02
1072.182, 49575.56
1072.664, 49673.52
1073.146, 49682.77
1073.628, 49645.89
1074.110, 49644.36
1074.593, 49690.15
1075.075, 49727.70
1075.557, 49738.36
1076.039, 49728.78
1076.521, 49666.67
1077.003, 49617.91
1077.485, 49658.36
1077.967, 49746.82
1078.450, 49804.02
1078.932, 49813.77
1079.414, 49815.91
1079.896, 49830.78
1080.378, 49838.31
1080.860, 49810.71
1081.342, 49787.20
1081.824, 49801.46
1082.307, 49847.51
1082.789, 49919.35
1083.271, 50014.72
1083.753, 50077.98
1084.235, 50030.95
1084.717, 50014.93
1085.199, 50155.40
1085.681, 50311.06
1086.163, 50354.11
1086.646, 50309.54
1087.128, 50232.59
1087.610, 50134.40
1088.092, 50098.95
1088.574, 50224.05
1089.056, 50340.33
1089.538, 50338.32
1090.020, 50315.76
1090.502, 50366.95
1090.985, 50466.92
1091.467, 50555.11
1091.949, 50619.87
1092.431, 50640.93
1092.913, 50553.18
1093.395, 50493.33
1093.877, 50553.54
1094.359, 50641.71
1094.842, 50676.74
1095.324, 50675.11
1095.806, 50690.68
1096.288, 50737.29
1096.770, 50761.81
1097.252, 50720.30
1097.734, 50688.96
1098.216, 50695.65
1098.698, 50728.00
1099.181, 50784.98
1099.663, 50856.02
1100.145, 50922.77
1100.627, 50982.32
1101.109, 51036.61
1101.591, 51110.44
1102.073, 51146.34
1102.555, 51059.02
1103.037, 50987.08
1103.520, 51087.54
1104.002, 51269.65
1104.484, 51311.30
1104.966, 51152.79
1105.448, 51097.06
1105.930, 51286.43
1106.412, 51460.86
1106.894, 51561.73
1107.377, 51612.68
1107.859, 51590.00
1108.341, 51544.17
1108.823, 51588.45
1109.305, 51753.36
1109.787, 51858.69
1110.269, 51854.54
1110.751, 51838.64
1111.234, 51822.88
1111.716, 51809.14
1112.198, 51791.91
1112.680, 51779.87
1113.162, 51790.93
1113.644, 51827.80
1114.126, 51871.12
1114.608, 51926.00
1115.090, 51979.16
1115.573, 52030.80
1116.055, 52077.86
1116.537, 52124.45
1117.019, 52161.07
1117.501, 52160.82
1117.983, 52115.05
1118.465, 52135.20
1118.947, 52276.02
1119.429, 52365.69
1119.912, 52365.20
1120.394, 52333.47
1120.876, 52276.07
1121.358, 52236.60
1121.840, 52298.17
1122.322, 52461.35
1122.804, 52557.43
1123.286, 52561.47
1123.769, 52582.25
1124.251, 52643.55
1124.733, 52687.70
1125.215, 52665.22
1125.697, 52658.03
1126.179, 52800.11
1126.661, 53067.93
1127.143, 53194.07
1127.625, 53150.70
1128.108, 53159.92
1128.590, 53253.18
1129.072, 53354.21
1129.554, 53429.01
1130.036, 53490.14
1130.518, 53546.84
1131.000, 53607.01
1131.482, 53715.64
1131.964, 53871.36
1132.447, 53998.45
1132.929, 54089.17
1133.411, 54178.79
1133.893, 54280.84
1134.375, 54383.77
1134.857, 54470.98
1135.339, 54560.54
1135.821, 54714.92
1136.304, 54917.93
1136.786, 55095.45
1137.268, 55236.54
1137.750, 55295.76
1138.232, 55262.24
1138.714, 55201.30
1139.196, 55165.02
1139.678, 55139.41
1140.161, 55091.38
1140.643, 55037.86
1141.125, 55040.62
1141.607, 55077.30
1142.089, 55053.53
1142.571, 54956.22
1143.053, 54871.79
1143.535, 54864.42
1144.017, 54859.38
1144.500, 54739.41
1144.982, 54590.88
1145.464, 54559.14
1145.946, 54592.83
1146.428, 54569.55
1146.910, 54483.31
1147.392, 54423.54
1147.874, 54439.14
1148.356, 54452.37
1148.839, 54380.02
1149.321, 54302.20
1149.803, 54305.66
1150.285, 54340.71
1150.767, 54331.54
1151.249, 54287.60
1151.731, 54264.84
1152.213, 54279.81
1152.696, 54325.80
1153.178, 54422.14
1153.660, 54520.76
1154.142, 54619.24
1154.624, 54688.59
1155.106, 54684.86
1155.588, 54637.06
1156.070, 54610.28
1156.552, 54616.43
1157.035, 54626.75
1157.517, 54617.55
1157.999, 54636.87
1158.481, 54759.34
1158.963, 54848.07
1159.445, 54760.59
1159.927, 54609.88
1160.409, 54595.88
1160.891, 54727.65
1161.374, 54816.73
1161.856, 54834.28
1162.338, 54861.07
1162.820, 54902.02
1163.302, 54955.51
1163.784, 55039.47
1164.266, 55109.30
1164.748, 55101.29
1165.231, 55033.91
1165.713, 55031.87
1166.195, 55121.44
1166.677, 55152.05
1167.159, 55104.95
1167.641, 55052.17
1168.123, 55012.51
1168.605, 55000.02
1169.088, 55031.30
1169.570, 55089.92
1170.052, 55141.21
1170.534, 55183.45
1171.016, 55168.13
1171.498, 55099.85
1171.980, 55087.70
1172.462, 55155.29
1172.944, 55238.78
1173.427, 55297.97
1173.909, 55344.99
1174.391, 55395.44
1174.873, 55448.34
1175.355, 55505.83
1175.837, 55562.90
1176.319, 55598.44
1176.801, 55616.00
1177.283, 55650.13
1177.766, 55715.17
1178.248, 55764.95
1178.730, 55734.73
1179.212, 55692.86
1179.694, 55718.62
1180.176, 55776.84
1180.658, 55835.93
1181.140, 55882.02
1181.623, 55885.57
1182.105, 55846.13
1182.587, 55829.28
1183.069, 55886.39
1183.551, 55943.02
1184.033, 55937.85
1184.515, 55943.35
1184.997, 56047.14
1185.479, 56172.06
1185.962, 56202.27
1186.444, 56143.87
1186.926, 56101.06
1187.408, 56078.86
1187.890, 56099.80
1188.372, 56215.07
1188.854, 56310.05
1189.336, 56312.24
1189.818, 56313.09
1190.301, 56408.35
1190.783, 56546.85
1191.265, 56586.89
1191.747, 56506.85
1192.229, 56453.06
1192.711, 56410.11
1193.193, 56455.60
1193.675, 56639.89
1194.158, 56797.38
1194.640, 56834.75
1195.122, 56787.73
1195.604, 56690.89
1196.086, 56564.84
1196.568, 56538.17
1197.050, 56606.47
1197.532, 56678.55
1198.015, 56744.18
1198.497, 56791.89
1198.979, 56818.36
1199.461, 56848.23
1199.943, 56909.54
1200.425, 56969.63
1200.907, 56956.50
1201.389, 56908.04
1201.871, 56892.91
1202.354, 56916.28
1202.836, 57003.42
1203.318, 57136.36
1203.800, 57205.99
1204.282, 57142.91
1204.764, 57095.48
1205.246, 57222.71
1205.728, 57365.75
1206.210, 57373.81
1206.693, 57333.72
1207.175, 57352.46
1207.657, 57415.58
1208.139, 57460.56
1208.621, 57473.93
1209.103, 57477.09
1209.585, 57450.84
1210.067, 57452.18
1210.550, 57508.63
1211.032, 57583.22
1211.514, 57682.00
1211.996, 57768.25
1212.478, 57782.66
1212.960, 57736.38
1213.442, 57733.13
1213.924, 57801.76
1214.406, 57827.97
1214.889, 57786.05
1215.371, 57778.46
1215.853, 57851.02
1216.335, 57913.81
1216.817, 57889.23
1217.299, 57822.64
1217.781, 57803.26
1218.263, 57830.61
1218.745, 57919.26
1219.228, 58059.41
1219.710, 58151.61
1220.192, 58183.15
1220.674, 58202.71
1221.156, 58232.55
1221.638, 58239.28
1222.120, 58165.28
1222.602, 58082.39
1223.085, 58115.11
1223.567, 58202.72
1224.049, 58254.99
1224.531, 58274.45
1225.013, 58283.30
1225.495, 58289.42
1225.977, 58299.29
1226.459, 58318.37
1226.942, 58336.29
1227.424, 58344.14
1227.906, 58354.23
1228.388, 58377.29
1228.870, 58404.19
1229.352, 58415.83
1229.834, 58424.66
1230.316, 58474.15
1230.798, 58583.68
1231.281, 58644.98
1231.763, 58594.46
1232.245, 58607.91
1232.727, 58750.56
1233.209, 58875.54
1233.691, 58905.46
1234.173, 58894.74
1234.655, 58907.46
1235.137, 58939.20
1235.620, 58970.41
1236.102, 59001.25
1236.584, 59047.20
1237.066, 59108.14
1237.548, 59128.04
1238.030, 59094.79
1238.512, 59072.03
1238.994, 59103.87
1239.477, 59148.59
1239.959, 59134.50
1240.441, 59105.77
1240.923, 59152.89
1241.405, 59238.96
1241.887, 59296.30
1242.369, 59323.66
1242.851, 59342.70
1243.333, 59360.99
1243.816, 59387.68
1244.298, 59451.75
1244.780, 59486.55
1245.262, 59411.00
1245.744, 59348.91
1246.226, 59408.10
1246.708, 59511.43
1247.190, 59562.55
1247.672, 59568.69
1248.155, 59592.25
1248.637, 59650.05
1249.119, 59676.43
1249.601, 59646.02
1250.083, 59641.45
1250.565, 59683.07
1251.047, 59742.37
1251.529, 59809.96
1252.012, 59866.35
1252.494, 59876.88
1252.976, 59859.68
1253.458, 59908.59
1253.940, 60011.98
1254.422, 60074.97
1254.904, 60092.34
1255.386, 60060.05
1255.869, 59988.77
1256.351, 59976.41
1256.833, 60097.38
1257.315, 60230.69
1257.797, 60218.62
1258.279, 60176.39
1258.761, 60238.70
1259.243, 60353.62
1259.725, 60472.05
1260.208, 60568.23
1260.690, 60589.91
1261.172, 60528.07
1261.654, 60506.38
1262.136, 60601.17
1262.618, 60680.80
1263.100, 60702.75
1263.582, 60719.56
1264.064, 60754.13
1264.547, 60794.82
1265.029, 60841.87
1265.511, 60880.22
1265.993, 60852.73
1266.475, 60745.42
1266.957, 60731.75
1267.439, 60820.23
1267.921, 60916.00
1268.404, 61004.20
1268.886, 61041.96
1269.368, 61007.32
1269.850, 60971.79
1270.332, 61012.60
##END=



