##NAMES=Sulphur
##RRUFFID=R040135
##IDEAL CHEMISTRY=S
##LOCALITY=Sicily, Italy
##OWNER=RRUFF
##SOURCE=University of Arizona Mineral Museum
##DESCRIPTION=Yellow fragments
##STATUS=The identification of this mineral has been confirmed by X-ray diffraction and chemical analysis
##URL=rruff.info/R040135
##MEASURED CHEMISTRY=S_1.00_
133.5544, 1110.313
134.0366, 1244.005
134.5187, 1398.794
135.0008, 1584.016
135.4829, 1805.688
135.9650, 2062.799
136.4471, 2340.705
136.9293, 2641.926
137.4114, 2958.023
137.8935, 3295.736
138.3756, 3647.537
138.8577, 4000.734
139.3398, 4344.927
139.8220, 4680.480
140.3041, 5027.626
140.7862, 5368.482
141.2683, 5733.864
141.7504, 6133.912
142.2325, 6567.982
142.7147, 7026.223
143.1968, 7498.157
143.6789, 7985.056
144.1610, 8554.126
144.6431, 9173.968
145.1252, 9887.141
145.6074, 10723.73
146.0895, 11680.67
146.5716, 12727.92
147.0537, 13838.05
147.5358, 15024.78
148.0179, 16331.14
148.5001, 17782.44
148.9822, 19328.87
149.4643, 20993.31
149.9464, 22775.51
150.4285, 24530.27
150.9106, 26221.27
151.3928, 27797.07
151.8749, 29025.83
152.3570, 30052.04
152.8391, 30626.49
153.3212, 30534.56
153.8033, 29757.96
154.2855, 28363.89
154.7676, 26139.05
155.2497, 23246.37
155.7318, 20427.97
156.2139, 17712.34
156.6960, 15166.91
157.1782, 12850.04
157.6603, 10761.66
158.1424, 8940.675
158.6245, 7502.662
159.1066, 6374.152
159.5887, 5439.657
160.0709, 4721.808
160.5530, 4166.558
161.0351, 3721.653
161.5172, 3400.852
161.9993, 3142.640
162.4814, 2918.212
162.9636, 2725.068
163.4457, 2563.560
163.9278, 2445.529
164.4099, 2357.350
164.8920, 2276.464
165.3741, 2202.284
165.8563, 2137.924
166.3384, 2087.457
166.8205, 2047.333
167.3026, 2012.951
167.7847, 1984.240
168.2668, 1959.401
168.7490, 1933.198
169.2311, 1902.204
169.7132, 1877.847
170.1953, 1869.169
170.6774, 1869.927
171.1595, 1870.806
171.6417, 1866.863
172.1238, 1860.602
172.6059, 1858.462
173.0880, 1861.760
173.5701, 1866.793
174.0522, 1871.493
174.5344, 1876.708
175.0165, 1884.047
175.4986, 1895.706
175.9807, 1909.176
176.4628, 1916.088
176.9449, 1909.319
177.4271, 1909.605
177.9092, 1925.470
178.3913, 1951.777
178.8734, 1981.915
179.3555, 2013.215
179.8376, 2046.164
180.3197, 2082.743
180.8019, 2124.323
181.2840, 2167.403
181.7661, 2207.701
182.2482, 2249.459
182.7303, 2299.055
183.2124, 2361.475
183.6946, 2430.720
184.1767, 2490.146
184.6588, 2538.471
185.1409, 2577.153
185.6230, 2619.650
186.1051, 2650.308
186.5873, 2651.142
187.0694, 2612.966
187.5515, 2542.320
188.0336, 2450.481
188.5157, 2314.747
188.9978, 2199.114
189.4800, 2119.061
189.9621, 2062.284
190.4442, 2015.594
190.9263, 1973.697
191.4084, 1939.422
191.8905, 1920.038
192.3727, 1919.473
192.8548, 1928.554
193.3369, 1951.340
193.8190, 1978.530
194.3011, 1999.784
194.7832, 2010.863
195.2654, 2018.727
195.7475, 2037.521
196.2296, 2067.432
196.7117, 2110.077
197.1938, 2155.950
197.6759, 2216.927
198.1581, 2299.357
198.6402, 2406.036
199.1223, 2542.102
199.6044, 2714.355
200.0865, 2911.874
200.5686, 3176.706
201.0508, 3476.094
201.5329, 3850.677
202.0150, 4334.311
202.4971, 4936.814
202.9792, 5629.761
203.4613, 6384.808
203.9435, 7256.316
204.4256, 8061.671
204.9077, 8795.242
205.3898, 9472.389
205.8719, 10080.25
206.3540, 10626.83
206.8362, 11161.78
207.3183, 11754.39
207.8004, 12405.31
208.2825, 13107.07
208.7646, 13831.97
209.2467, 14620.84
209.7289, 15456.84
210.2110, 16357.64
210.6931, 17402.24
211.1752, 18667.93
211.6573, 20124.84
212.1395, 21909.60
212.6216, 24045.91
213.1037, 26447.65
213.5858, 29063.93
214.0679, 31895.90
214.5500, 34975.29
215.0322, 38263.17
215.5143, 41658.34
215.9964, 45928.11
216.4785, 51596.48
216.9606, 57657.66
217.4427, 65020.90
217.9249, 72683.94
218.4070, 78455.13
218.8891, 80630.74
219.3712, 79198.10
219.8533, 74539.41
220.3354, 63463.57
220.8176, 52064.36
221.2997, 41042.98
221.7818, 30960.80
222.2639, 22488.24
222.7460, 16200.86
223.2281, 11950.74
223.7103, 8686.226
224.1924, 6976.910
224.6745, 5739.830
225.1566, 4918.958
225.6387, 4386.489
226.1208, 4004.286
226.6030, 3702.529
227.0851, 3475.065
227.5672, 3298.615
228.0493, 3202.588
228.5314, 3122.461
229.0135, 3043.827
229.4957, 2975.242
229.9778, 2928.623
230.4599, 2909.667
230.9420, 2911.039
231.4241, 2915.791
231.9062, 2928.046
232.3884, 2936.395
232.8705, 2931.130
233.3526, 2926.282
233.8347, 2936.206
234.3168, 2965.223
234.7989, 3003.001
235.2811, 3032.681
235.7632, 3054.492
236.2453, 3066.953
236.7274, 3072.166
237.2095, 3068.098
237.6916, 3049.085
238.1738, 3015.842
238.6559, 2979.476
239.1380, 2952.512
239.6201, 2935.182
240.1022, 2926.785
240.5843, 2927.238
241.0665, 2936.652
241.5486, 2953.066
242.0307, 2978.000
242.5128, 3016.871
242.9949, 3076.311
243.4770, 3157.555
243.9592, 3246.500
244.4413, 3357.054
244.9234, 3463.095
245.4055, 3560.519
245.8876, 3646.158
246.3697, 3714.679
246.8519, 3764.348
247.3340, 3794.564
247.8161, 3800.926
248.2982, 3806.249
248.7803, 3749.687
249.2624, 3599.143
249.7446, 3381.683
250.2267, 3137.289
250.7088, 2877.412
251.1909, 2613.249
251.6730, 2374.013
252.1551, 2156.112
252.6373, 1971.844
253.1194, 1825.944
253.6015, 1710.783
254.0836, 1621.508
254.5657, 1558.005
255.0478, 1513.594
255.5300, 1480.638
256.0121, 1462.751
256.4942, 1442.943
256.9763, 1409.152
257.4584, 1375.866
257.9406, 1354.684
258.4227, 1348.318
258.9048, 1347.692
259.3869, 1342.668
259.8690, 1332.850
260.3511, 1328.368
260.8333, 1338.195
261.3154, 1347.581
261.7975, 1344.350
262.2796, 1328.809
262.7617, 1312.675
263.2438, 1302.195
263.7260, 1297.525
264.2081, 1301.048
264.6902, 1318.784
265.1723, 1335.852
265.6544, 1342.178
266.1365, 1339.391
266.6187, 1332.064
267.1008, 1318.256
267.5829, 1302.101
268.0650, 1293.232
268.5471, 1293.659
269.0292, 1295.544
269.5114, 1291.989
269.9935, 1286.340
270.4756, 1284.884
270.9577, 1293.700
271.4398, 1303.710
271.9219, 1302.754
272.4041, 1290.452
272.8862, 1280.138
273.3683, 1279.393
273.8504, 1284.531
274.3325, 1288.200
274.8146, 1290.455
275.2968, 1290.522
275.7789, 1285.997
276.2610, 1278.288
276.7431, 1273.346
277.2252, 1273.824
277.7073, 1277.332
278.1895, 1279.501
278.6716, 1279.586
279.1537, 1281.742
279.6358, 1290.888
280.1179, 1302.313
280.6000, 1307.280
281.0822, 1303.433
281.5643, 1295.783
282.0464, 1288.991
282.5285, 1282.860
283.0106, 1280.573
283.4927, 1286.285
283.9749, 1293.607
284.4570, 1297.290
284.9391, 1296.809
285.4212, 1293.099
285.9033, 1285.677
286.3854, 1274.853
286.8676, 1269.837
287.3497, 1274.319
287.8318, 1280.431
288.3139, 1284.719
288.7960, 1287.578
289.2781, 1290.653
289.7603, 1294.986
290.2424, 1300.018
290.7245, 1303.273
291.2066, 1298.309
291.6887, 1299.562
292.1708, 1318.474
292.6530, 1341.500
293.1351, 1349.264
293.6172, 1335.251
294.0993, 1311.956
294.5814, 1301.574
295.0635, 1311.631
295.5457, 1321.443
296.0278, 1334.536
296.5099, 1344.863
296.9920, 1345.864
297.4741, 1338.241
297.9562, 1329.666
298.4384, 1328.520
298.9205, 1336.395
299.4026, 1340.612
299.8847, 1338.715
300.3668, 1335.745
300.8489, 1330.768
301.3310, 1326.097
301.8131, 1327.026
302.2953, 1338.489
302.7774, 1356.795
303.2595, 1362.265
303.7416, 1343.886
304.2237, 1328.431
304.7058, 1321.772
305.1880, 1320.374
305.6701, 1320.458
306.1522, 1320.628
306.6343, 1321.895
307.1164, 1327.098
307.5985, 1338.379
308.0807, 1345.492
308.5628, 1343.937
309.0449, 1339.384
309.5270, 1334.034
310.0091, 1328.425
310.4912, 1323.610
310.9734, 1320.718
311.4555, 1319.595
311.9376, 1318.414
312.4197, 1315.798
312.9018, 1315.113
313.3839, 1321.140
313.8661, 1330.789
314.3482, 1335.727
314.8303, 1329.095
315.3124, 1316.830
315.7945, 1309.255
316.2766, 1306.873
316.7588, 1306.401
317.2409, 1308.217
317.7230, 1310.134
318.2051, 1307.724
318.6872, 1296.675
319.1693, 1287.934
319.6515, 1292.737
320.1336, 1307.893
320.6157, 1319.024
321.0978, 1320.757
321.5799, 1317.109
322.0620, 1314.386
322.5442, 1313.077
323.0263, 1310.013
323.5084, 1302.031
323.9905, 1292.742
324.4726, 1287.713
324.9547, 1287.831
325.4369, 1287.855
325.9190, 1281.553
326.4011, 1268.032
326.8832, 1262.737
327.3653, 1273.895
327.8474, 1285.381
328.3296, 1287.980
328.8117, 1283.203
329.2938, 1277.093
329.7759, 1273.246
330.2580, 1270.680
330.7401, 1265.056
331.2223, 1251.911
331.7044, 1241.194
332.1865, 1234.201
332.6686, 1229.979
333.1507, 1227.640
333.6328, 1226.876
334.1150, 1227.634
334.5971, 1230.097
335.0792, 1235.277
335.5613, 1239.380
336.0434, 1244.199
336.5255, 1246.541
337.0077, 1243.405
337.4898, 1235.998
337.9719, 1228.009
338.4540, 1221.837
338.9361, 1217.640
339.4182, 1217.186
339.9004, 1223.462
340.3825, 1229.173
340.8646, 1233.673
341.3467, 1235.956
341.8288, 1233.764
342.3109, 1225.486
342.7931, 1216.138
343.2752, 1214.048
343.7573, 1220.393
344.2394, 1225.672
344.7215, 1227.741
345.2036, 1227.744
345.6858, 1226.499
346.1679, 1224.061
346.6500, 1220.661
347.1321, 1213.444
347.6142, 1205.403
348.0963, 1206.276
348.5785, 1219.423
349.0606, 1234.039
349.5427, 1241.608
350.0248, 1243.834
350.5069, 1245.267
350.9890, 1246.992
351.4712, 1247.978
351.9533, 1245.894
352.4354, 1241.695
352.9175, 1240.895
353.3996, 1247.183
353.8817, 1257.207
354.3639, 1261.899
354.8460, 1259.638
355.3281, 1256.853
355.8102, 1253.513
356.2923, 1251.036
356.7744, 1251.450
357.2566, 1255.095
357.7387, 1260.433
358.2208, 1265.957
358.7029, 1271.911
359.1850, 1276.617
359.6671, 1277.779
360.1493, 1280.118
360.6314, 1287.059
361.1135, 1296.791
361.5956, 1305.710
362.0777, 1311.932
362.5598, 1315.091
363.0420, 1313.182
363.5241, 1298.551
364.0062, 1291.485
364.4883, 1298.665
364.9704, 1310.766
365.4525, 1320.805
365.9347, 1326.982
366.4168, 1330.762
366.8989, 1332.856
367.3810, 1333.063
367.8631, 1335.513
368.3452, 1343.520
368.8274, 1349.938
369.3095, 1349.617
369.7916, 1345.051
370.2737, 1342.206
370.7558, 1343.752
371.2379, 1348.698
371.7201, 1356.914
372.2022, 1369.052
372.6843, 1377.989
373.1664, 1379.377
373.6485, 1376.412
374.1306, 1373.511
374.6128, 1369.921
375.0949, 1369.564
375.5770, 1377.281
376.0591, 1389.206
376.5412, 1396.623
377.0233, 1397.206
377.5055, 1397.830
377.9876, 1407.329
378.4697, 1426.978
378.9518, 1436.815
379.4339, 1426.657
379.9160, 1415.545
380.3982, 1414.640
380.8803, 1422.232
381.3624, 1433.016
381.8445, 1444.776
382.3266, 1455.458
382.8087, 1458.813
383.2909, 1446.073
383.7730, 1437.152
384.2551, 1433.254
384.7372, 1432.775
385.2193, 1435.163
385.7014, 1439.889
386.1836, 1445.634
386.6657, 1451.332
387.1478, 1457.036
387.6299, 1461.420
388.1120, 1467.072
388.5941, 1467.980
389.0763, 1458.602
389.5584, 1444.245
390.0405, 1432.931
390.5226, 1427.859
391.0047, 1427.625
391.4868, 1431.829
391.9690, 1441.334
392.4511, 1446.557
392.9332, 1441.447
393.4153, 1434.172
393.8974, 1433.394
394.3795, 1439.117
394.8617, 1443.426
395.3438, 1440.395
395.8259, 1434.184
396.3080, 1431.829
396.7901, 1434.056
397.2722, 1437.985
397.7544, 1442.260
398.2365, 1446.587
398.7186, 1449.732
399.2007, 1451.352
399.6828, 1452.185
400.1649, 1449.949
400.6471, 1447.697
401.1292, 1451.894
401.6113, 1464.743
402.0934, 1479.949
402.5755, 1488.014
403.0576, 1485.415
403.5398, 1486.167
404.0219, 1489.403
404.5040, 1496.266
404.9861, 1510.418
405.4682, 1528.781
405.9503, 1543.672
406.4325, 1549.574
406.9146, 1549.928
407.3967, 1556.946
407.8788, 1572.939
408.3609, 1591.061
408.8430, 1614.258
409.3252, 1636.193
409.8073, 1650.221
410.2894, 1655.874
410.7715, 1661.266
411.2536, 1672.587
411.7357, 1689.429
412.2179, 1710.219
412.7000, 1736.351
413.1821, 1762.636
413.6642, 1782.763
414.1463, 1800.659
414.6284, 1824.312
415.1106, 1859.353
415.5927, 1895.648
416.0748, 1924.369
416.5569, 1948.147
417.0390, 1974.788
417.5211, 2006.755
418.0033, 2042.916
418.4854, 2081.577
418.9675, 2122.388
419.4496, 2167.450
419.9317, 2223.790
420.4138, 2278.381
420.8960, 2318.451
421.3781, 2348.375
421.8602, 2384.404
422.3423, 2438.270
422.8244, 2504.353
423.3065, 2557.562
423.7887, 2584.575
424.2708, 2619.650
424.7529, 2667.739
425.2350, 2723.550
425.7171, 2786.209
426.1992, 2853.925
426.6814, 2918.328
427.1635, 2967.471
427.6456, 3003.707
428.1277, 3052.373
428.6098, 3121.290
429.0919, 3187.484
429.5741, 3241.188
430.0562, 3284.575
430.5383, 3319.295
431.0204, 3344.880
431.5025, 3363.782
431.9846, 3373.681
432.4668, 3377.829
432.9489, 3388.674
433.4310, 3410.434
433.9131, 3436.094
434.3952, 3457.062
434.8773, 3472.477
435.3595, 3491.805
435.8416, 3520.509
436.3237, 3548.713
436.8058, 3579.061
437.2879, 3604.116
437.7701, 3607.888
438.2522, 3582.075
438.7343, 3530.344
439.2164, 3463.063
439.6985, 3389.505
440.1806, 3281.315
440.6628, 3120.824
441.1449, 2943.635
441.6270, 2760.070
442.1091, 2579.095
442.5912, 2416.899
443.0733, 2289.403
443.5555, 2189.750
444.0376, 2089.118
444.5197, 1980.099
445.0018, 1890.785
445.4839, 1837.913
445.9660, 1807.223
446.4482, 1787.838
446.9303, 1779.093
447.4124, 1777.397
447.8945, 1778.113
448.3766, 1784.859
448.8587, 1806.976
449.3409, 1846.430
449.8230, 1891.928
450.3051, 1933.174
450.7872, 1972.454
451.2693, 2027.916
451.7514, 2097.861
452.2336, 2184.293
452.7157, 2289.339
453.1978, 2410.625
453.6799, 2541.731
454.1620, 2681.613
454.6441, 2838.733
455.1263, 3022.661
455.6084, 3231.706
456.0905, 3475.661
456.5726, 3740.934
457.0547, 4056.567
457.5368, 4439.503
458.0190, 4877.798
458.5011, 5352.960
458.9832, 5858.656
459.4653, 6395.392
459.9474, 6969.924
460.4295, 7580.225
460.9117, 8222.118
461.3938, 8911.295
461.8759, 9609.934
462.3580, 10273.12
462.8401, 10911.92
463.3222, 11598.30
463.8044, 12338.36
464.2865, 13148.64
464.7686, 14035.09
465.2507, 15000.73
465.7328, 16049.42
466.2149, 17175.62
466.6971, 18407.92
467.1792, 19783.78
467.6613, 21347.43
468.1434, 22988.98
468.6255, 24699.79
469.1076, 26495.94
469.5898, 28452.71
470.0719, 30500.91
470.5540, 32496.11
471.0361, 34403.02
471.5182, 36077.14
472.0003, 37177.20
472.4825, 37778.51
472.9646, 37572.40
473.4467, 36248.17
473.9288, 34226.80
474.4109, 31538.58
474.8930, 28273.56
475.3752, 24927.36
475.8573, 21611.34
476.3394, 18467.76
476.8215, 15709.48
477.3036, 13348.28
477.7857, 11346.08
478.2679, 9714.836
478.7500, 8411.707
479.2321, 7343.276
479.7142, 6534.177
480.1963, 5860.490
480.6784, 5345.951
481.1606, 4925.721
481.6427, 4548.815
482.1248, 4207.318
482.6069, 3914.737
483.0890, 3682.841
483.5711, 3503.387
484.0533, 3324.846
484.5354, 3134.430
485.0175, 2966.974
485.4996, 2829.709
485.9817, 2712.325
486.4638, 2611.617
486.9460, 2524.767
487.4281, 2443.873
487.9102, 2359.804
488.3923, 2276.956
488.8744, 2211.523
489.3565, 2166.621
489.8387, 2121.891
490.3208, 2064.418
490.8029, 2002.506
491.2850, 1953.091
491.7671, 1918.272
492.2492, 1889.192
492.7314, 1867.043
493.2135, 1847.077
493.6956, 1823.054
494.1777, 1795.048
494.6598, 1768.033
495.1419, 1745.731
495.6241, 1727.789
496.1062, 1711.520
496.5883, 1700.921
497.0704, 1686.322
497.5525, 1661.300
498.0346, 1635.783
498.5168, 1620.156
498.9989, 1614.158
499.4810, 1607.091
499.9631, 1588.950
500.4452, 1562.706
500.9273, 1539.324
501.4095, 1518.650
501.8916, 1501.552
502.3737, 1490.051
502.8558, 1481.434
503.3379, 1471.229
503.8200, 1458.873
504.3022, 1447.161
504.7843, 1435.494
505.2664, 1425.995
505.7485, 1423.220
506.2306, 1426.300
506.7127, 1427.630
507.1949, 1421.526
507.6770, 1410.460
508.1591, 1405.367
508.6412, 1411.190
509.1233, 1415.990
509.6054, 1420.113
510.0876, 1422.296
510.5697, 1420.579
511.0518, 1415.686
511.5339, 1410.887
512.0161, 1408.677
512.4982, 1408.161
512.9803, 1407.178
513.4624, 1405.875
513.9445, 1403.318
514.4266, 1399.785
514.9088, 1394.177
515.3909, 1382.351
515.8730, 1362.982
516.3551, 1353.700
516.8372, 1371.830
517.3193, 1393.492
517.8015, 1393.405
518.2836, 1375.411
518.7657, 1360.959
519.2478, 1361.965
519.7299, 1370.982
520.2120, 1369.754
520.6942, 1349.343
521.1763, 1335.716
521.6584, 1332.478
522.1405, 1331.807
522.6226, 1330.035
523.1047, 1327.319
523.5869, 1325.508
524.0690, 1326.258
524.5511, 1326.848
525.0332, 1320.903
525.5153, 1308.494
525.9974, 1302.182
526.4796, 1308.187
526.9617, 1315.885
527.4438, 1312.246
527.9259, 1298.829
528.4080, 1288.839
528.8901, 1285.004
529.3723, 1284.194
529.8544, 1285.860
530.3365, 1288.957
530.8186, 1292.175
531.3007, 1295.005
531.7828, 1296.234
532.2650, 1293.508
532.7471, 1285.517
533.2292, 1281.750
533.7113, 1286.487
534.1934, 1290.650
534.6755, 1290.541
535.1577, 1288.594
535.6398, 1288.678
536.1219, 1292.165
536.6040, 1295.182
537.0861, 1293.030
537.5682, 1287.472
538.0504, 1283.565
538.5325, 1281.630
539.0146, 1283.871
539.4967, 1294.137
539.9788, 1309.761
540.4609, 1317.349
540.9431, 1311.819
541.4252, 1306.296
541.9073, 1303.608
542.3894, 1301.988
542.8715, 1297.863
543.3536, 1292.279
543.8358, 1292.046
544.3179, 1304.168
544.8000, 1324.465
545.2821, 1334.083
545.7642, 1329.895
546.2463, 1323.550
546.7285, 1316.046
547.2106, 1308.838
547.6926, 1302.919
548.1747, 1298.332
548.6569, 1294.773
549.1390, 1290.586
549.6211, 1288.482
550.1032, 1294.476
550.5853, 1306.062
551.0674, 1311.714
551.5496, 1306.331
552.0317, 1295.782
552.5138, 1289.934
552.9959, 1291.953
553.4780, 1287.715
553.9601, 1268.833
554.4423, 1253.548
554.9244, 1252.288
555.4065, 1258.487
555.8886, 1261.083
556.3707, 1255.938
556.8528, 1248.954
557.3350, 1248.864
557.8171, 1254.279
558.2992, 1252.386
558.7813, 1239.230
559.2634, 1227.733
559.7455, 1228.278
560.2277, 1236.850
560.7098, 1240.048
561.1919, 1235.428
561.6740, 1229.563
562.1561, 1222.869
562.6382, 1216.939
563.1204, 1215.320
563.6025, 1216.932
564.0846, 1214.967
564.5667, 1203.571
565.0488, 1186.211
565.5309, 1176.224
566.0131, 1174.542
566.4952, 1177.910
566.9773, 1192.626
567.4594, 1206.781
567.9415, 1213.913
568.4236, 1213.925
568.9058, 1208.273
569.3879, 1191.046
569.8700, 1174.252
570.3521, 1171.333
570.8342, 1179.209
571.3163, 1189.421
571.7985, 1200.027
572.2806, 1205.422
572.7627, 1196.882
573.2448, 1171.596
573.7269, 1158.916
574.2090, 1168.890
574.6912, 1178.651
575.1733, 1185.172
575.6554, 1187.135
576.1375, 1180.695
576.6196, 1166.111
577.1017, 1153.583
577.5839, 1155.078
578.0660, 1165.987
578.5481, 1169.131
579.0302, 1162.947
579.5123, 1161.387
579.9944, 1173.803
580.4766, 1191.905
580.9587, 1198.787
581.4408, 1192.189
581.9229, 1186.634
582.4050, 1185.210
582.8871, 1184.412
583.3693, 1181.588
583.8514, 1177.583
584.3335, 1173.966
584.8156, 1171.455
585.2977, 1171.337
585.7798, 1178.332
586.2620, 1193.913
586.7441, 1197.651
587.2262, 1180.513
587.7083, 1164.789
588.1904, 1168.325
588.6725, 1180.244
589.1547, 1181.839
589.6368, 1166.359
590.1189, 1151.879
590.6010, 1148.007
591.0831, 1149.519
591.5652, 1149.671
592.0474, 1148.193
592.5295, 1149.048
593.0116, 1155.296
593.4937, 1164.463
593.9758, 1168.472
594.4579, 1163.898
594.9401, 1162.271
595.4222, 1167.714
595.9043, 1173.429
596.3864, 1176.413
596.8685, 1176.947
597.3506, 1176.172
597.8328, 1174.407
598.3149, 1171.657
598.7970, 1165.490
599.2791, 1158.536
599.7612, 1159.470
600.2433, 1169.998
600.7255, 1179.920
601.2076, 1180.486
601.6897, 1172.754
602.1718, 1165.302
602.6539, 1155.109
603.1360, 1149.567
603.6182, 1152.504
604.1003, 1157.622
604.5824, 1161.013
605.0645, 1162.204
605.5466, 1161.827
606.0287, 1159.818
606.5109, 1157.028
606.9930, 1153.741
607.4751, 1150.363
607.9572, 1150.603
608.4393, 1155.948
608.9214, 1163.123
609.4036, 1169.939
609.8857, 1176.375
610.3678, 1176.682
610.8499, 1162.627
611.3320, 1153.461
611.8141, 1157.280
612.2963, 1165.812
612.7784, 1170.172
613.2605, 1169.875
613.7426, 1171.261
614.2247, 1181.190
614.7068, 1194.481
615.1890, 1196.928
615.6711, 1187.999
616.1532, 1180.445
616.6353, 1178.701
617.1174, 1178.197
617.5995, 1172.372
618.0817, 1161.083
618.5638, 1156.692
619.0459, 1164.519
619.5280, 1173.702
620.0101, 1182.291
620.4922, 1188.772
620.9744, 1190.698
621.4565, 1188.137
621.9386, 1184.288
622.4207, 1181.195
622.9028, 1179.467
623.3849, 1182.890
623.8671, 1192.955
624.3492, 1199.214
624.8313, 1196.829
625.3134, 1191.235
625.7955, 1189.071
626.2776, 1190.099
626.7598, 1189.829
627.2419, 1186.808
627.7240, 1183.266
628.2061, 1180.396
628.6882, 1177.701
629.1703, 1173.264
629.6525, 1167.278
630.1346, 1164.132
630.6167, 1169.926
631.0988, 1181.974
631.5809, 1184.400
632.0630, 1174.840
632.5452, 1164.530
633.0273, 1153.888
633.5094, 1146.810
633.9915, 1150.749
634.4736, 1164.867
634.9557, 1171.279
635.4379, 1158.881
635.9200, 1145.830
636.4021, 1142.301
636.8842, 1144.802
637.3663, 1147.848
637.8484, 1149.955
638.3306, 1152.478
638.8127, 1157.461
639.2948, 1163.907
639.7769, 1164.251
640.2590, 1155.432
640.7411, 1151.860
641.2233, 1163.038
641.7054, 1175.926
642.1875, 1176.285
642.6696, 1165.093
643.1517, 1153.917
643.6339, 1140.750
644.1160, 1132.865
644.5981, 1137.918
645.0802, 1149.385
645.5623, 1157.294
646.0444, 1159.653
646.5266, 1161.232
647.0087, 1166.711
647.4908, 1174.932
647.9729, 1180.048
648.4550, 1181.025
648.9371, 1183.394
649.4193, 1192.707
649.9014, 1199.294
650.3835, 1188.645
650.8656, 1164.346
651.3477, 1152.472
651.8298, 1168.006
652.3120, 1184.734
652.7941, 1191.890
653.2762, 1192.201
653.7583, 1187.712
654.2404, 1179.903
654.7225, 1172.709
655.2047, 1169.899
655.6868, 1169.329
656.1689, 1162.336
656.6510, 1146.872
657.1331, 1138.026
657.6152, 1141.459
658.0974, 1148.758
658.5795, 1153.016
659.0616, 1154.831
659.5437, 1156.676
660.0258, 1160.047
660.5079, 1161.908
660.9901, 1158.714
661.4722, 1155.105
661.9543, 1158.078
662.4364, 1166.242
662.9185, 1170.652
663.4006, 1164.653
663.8828, 1153.315
664.3649, 1147.021
664.8470, 1145.839
665.3291, 1148.130
665.8112, 1155.396
666.2933, 1161.872
666.7755, 1162.102
667.2576, 1157.952
667.7397, 1157.876
668.2218, 1166.590
668.7039, 1171.695
669.1860, 1167.639
669.6682, 1161.708
670.1503, 1159.664
670.6324, 1160.847
671.1145, 1161.812
671.5966, 1160.868
672.0787, 1158.880
672.5609, 1157.152
673.0430, 1155.526
673.5251, 1151.944
674.0072, 1145.332
674.4893, 1142.274
674.9714, 1148.144
675.4536, 1159.085
675.9357, 1165.006
676.4178, 1163.904
676.8999, 1162.104
677.3820, 1159.373
677.8641, 1156.361
678.3463, 1153.541
678.8284, 1150.651
679.3105, 1146.539
679.7926, 1140.855
680.2747, 1136.871
680.7568, 1139.229
681.2390, 1145.213
681.7211, 1146.975
682.2032, 1144.631
682.6853, 1147.629
683.1674, 1161.738
683.6495, 1177.393
684.1317, 1178.534
684.6138, 1160.792
685.0959, 1151.681
685.5780, 1159.903
686.0601, 1166.288
686.5422, 1165.246
687.0244, 1160.743
687.5065, 1156.022
687.9886, 1151.879
688.4707, 1149.883
688.9528, 1154.736
689.4349, 1159.272
689.9171, 1153.071
690.3992, 1139.746
690.8813, 1130.072
691.3634, 1126.969
691.8455, 1126.528
692.3276, 1125.041
692.8098, 1122.615
693.2919, 1119.833
693.7740, 1114.861
694.2561, 1113.695
694.7382, 1122.358
695.2203, 1130.736
695.7025, 1130.844
696.1846, 1124.626
696.6667, 1119.603
697.1488, 1115.198
697.6309, 1116.009
698.1130, 1131.496
698.5952, 1149.609
699.0773, 1152.794
699.5594, 1142.218
700.0415, 1132.811
700.5236, 1133.967
701.0057, 1140.448
701.4879, 1140.866
701.9700, 1134.796
702.4521, 1131.865
702.9342, 1133.729
703.4163, 1136.762
703.8984, 1139.747
704.3806, 1142.075
704.8627, 1142.071
705.3448, 1138.568
705.8269, 1136.250
706.3090, 1135.147
706.7911, 1135.991
707.2733, 1142.629
707.7554, 1150.368
708.2375, 1149.418
708.7196, 1137.424
709.2017, 1126.848
709.6838, 1132.389
710.1660, 1147.608
710.6481, 1157.278
711.1302, 1161.198
711.6123, 1158.496
712.0944, 1147.351
712.5765, 1135.965
713.0587, 1135.204
713.5408, 1145.735
714.0229, 1152.669
714.5050, 1152.167
714.9871, 1153.241
715.4692, 1163.858
715.9514, 1171.439
716.4335, 1162.262
716.9156, 1139.543
717.3977, 1120.577
717.8798, 1111.606
718.3619, 1109.741
718.8441, 1117.797
719.3262, 1129.392
719.8083, 1132.078
720.2904, 1125.513
720.7725, 1119.956
721.2546, 1122.613
721.7368, 1129.391
722.2189, 1130.021
722.7010, 1123.475
723.1831, 1117.776
723.6652, 1113.318
724.1473, 1110.086
724.6295, 1107.845
725.1116, 1106.992
725.5937, 1108.407
726.0758, 1112.830
726.5579, 1116.921
727.0400, 1123.667
727.5222, 1126.295
728.0043, 1116.035
728.4864, 1100.695
728.9685, 1093.626
729.4506, 1097.931
729.9327, 1104.449
730.4149, 1104.322
730.8970, 1100.768
731.3791, 1101.731
731.8612, 1106.647
732.3433, 1109.990
732.8254, 1110.040
733.3076, 1108.959
733.7897, 1109.066
734.2718, 1110.164
734.7539, 1109.383
735.2360, 1102.695
735.7181, 1100.957
736.2003, 1112.032
736.6824, 1122.072
737.1645, 1121.134
737.6466, 1112.290
738.1287, 1104.538
738.6108, 1099.708
739.0930, 1097.640
739.5751, 1101.375
740.0572, 1105.730
740.5393, 1102.756
741.0214, 1094.580
741.5035, 1089.957
741.9857, 1093.036
742.4678, 1099.511
742.9499, 1104.547
743.4320, 1107.932
743.9141, 1105.704
744.3962, 1096.362
744.8784, 1089.447
745.3605, 1089.037
745.8426, 1092.189
746.3247, 1095.674
746.8068, 1099.834
747.2889, 1100.840
747.7711, 1094.865
748.2532, 1090.879
748.7353, 1090.877
749.2174, 1093.818
749.6995, 1100.903
750.1816, 1110.343
750.6638, 1116.199
751.1459, 1115.701
751.6280, 1110.540
752.1101, 1098.305
752.5922, 1083.903
753.0743, 1077.776
753.5565, 1080.127
754.0386, 1083.164
754.5207, 1082.263
755.0028, 1079.917
755.4849, 1081.088
755.9670, 1086.123
756.4492, 1092.115
756.9313, 1100.813
757.4134, 1105.831
757.8955, 1103.091
758.3776, 1096.153
758.8597, 1089.564
759.3419, 1083.065
759.8240, 1079.330
760.3061, 1079.503
760.7882, 1081.367
761.2703, 1086.050
761.7524, 1090.725
762.2346, 1092.583
762.7167, 1091.401
763.1988, 1087.940
763.6809, 1079.920
764.1630, 1074.659
764.6451, 1086.190
765.1273, 1106.078
765.6094, 1112.111
766.0915, 1102.159
766.5736, 1088.073
767.0557, 1076.450
767.5378, 1068.455
768.0200, 1068.030
768.5021, 1077.217
768.9842, 1080.896
769.4663, 1074.994
769.9484, 1072.123
770.4305, 1082.880
770.9127, 1096.125
771.3948, 1093.025
771.8769, 1071.755
772.3590, 1059.512
772.8411, 1065.021
773.3232, 1073.376
773.8054, 1078.872
774.2875, 1084.310
774.7696, 1095.792
775.2517, 1111.208
775.7338, 1119.498
776.2159, 1112.814
776.6981, 1100.350
777.1802, 1090.162
777.6623, 1082.609
778.1444, 1079.396
778.6265, 1080.232
779.1086, 1081.709
779.5908, 1082.005
780.0729, 1081.277
780.5550, 1079.248
781.0371, 1075.514
781.5192, 1074.824
782.0013, 1078.070
782.4835, 1082.135
782.9656, 1087.080
783.4477, 1091.101
783.9298, 1091.223
784.4119, 1087.350
784.8940, 1084.631
785.3762, 1084.166
785.8583, 1083.739
786.3404, 1081.869
786.8225, 1080.494
787.3046, 1082.587
787.7867, 1086.762
788.2689, 1087.847
788.7510, 1082.528
789.2331, 1077.386
789.7152, 1079.623
790.1973, 1084.772
790.6794, 1085.388
791.1616, 1081.850
791.6437, 1077.788
792.1258, 1074.740
792.6079, 1074.706
793.0900, 1082.024
793.5721, 1095.435
794.0543, 1101.770
794.5364, 1100.079
795.0185, 1097.026
795.5006, 1093.474
795.9827, 1091.451
796.4648, 1093.804
796.9470, 1099.900
797.4291, 1102.837
797.9112, 1097.554
798.3933, 1096.387
798.8754, 1102.396
799.3575, 1110.151
799.8397, 1119.028
800.3218, 1126.684
800.8039, 1127.826
801.2860, 1119.841
801.7681, 1115.394
802.2502, 1126.320
802.7324, 1138.725
803.2145, 1138.525
803.6966, 1130.745
804.1787, 1125.641
804.6608, 1125.839
805.1429, 1127.818
805.6251, 1128.155
806.1072, 1128.943
806.5893, 1134.672
807.0714, 1145.095
807.5535, 1160.405
808.0356, 1181.303
808.5178, 1195.814
808.9999, 1195.008
809.4820, 1184.668
809.9641, 1179.427
810.4462, 1180.985
810.9283, 1181.000
811.4105, 1175.567
811.8926, 1174.997
812.3747, 1186.580
812.8568, 1202.899
813.3389, 1216.422
813.8210, 1227.002
814.3032, 1234.266
814.7853, 1236.907
815.2674, 1237.755
815.7495, 1232.648
816.2316, 1230.149
816.7137, 1244.454
817.1959, 1268.337
817.6780, 1277.420
818.1601, 1258.374
818.6422, 1237.409
819.1243, 1241.104
819.6064, 1254.664
820.0886, 1253.095
820.5707, 1239.801
821.0528, 1233.633
821.5349, 1240.953
822.0170, 1249.928
822.4991, 1247.208
822.9813, 1235.437
823.4634, 1225.292
823.9455, 1216.675
824.4276, 1210.603
824.9097, 1207.797
825.3918, 1205.538
825.8740, 1201.872
826.3561, 1197.112
826.8382, 1192.365
827.3203, 1187.720
827.8024, 1182.862
828.2845, 1176.729
828.7667, 1171.711
829.2488, 1167.184
829.7309, 1165.058
830.2130, 1169.974
830.6951, 1181.996
831.1772, 1187.726
831.6594, 1177.779
832.1415, 1168.485
832.6236, 1168.435
833.1057, 1171.338
833.5878, 1169.729
834.0699, 1164.877
834.5521, 1163.850
835.0342, 1170.513
835.5163, 1177.617
835.9984, 1177.537
836.4805, 1174.030
836.9626, 1172.748
837.4448, 1173.781
837.9269, 1175.130
838.4090, 1176.310
838.8911, 1181.478
839.3732, 1197.589
839.8553, 1218.948
840.3375, 1221.215
840.8196, 1203.857
841.3017, 1196.394
841.7838, 1205.717
842.2659, 1217.092
842.7480, 1220.833
843.2302, 1219.436
843.7123, 1219.436
844.1944, 1222.340
844.6765, 1221.161
845.1586, 1209.067
845.6407, 1203.082
846.1229, 1216.260
846.6050, 1233.094
847.0871, 1237.389
847.5692, 1229.988
848.0513, 1224.675
848.5334, 1227.114
849.0156, 1226.691
849.4977, 1215.175
849.9798, 1204.521
850.4619, 1204.390
850.9440, 1212.418
851.4261, 1222.906
851.9083, 1234.421
852.3904, 1244.023
852.8725, 1250.626
853.3546, 1253.758
853.8367, 1249.040
854.3188, 1241.696
854.8010, 1244.199
855.2831, 1257.334
855.7652, 1268.468
856.2473, 1267.453
856.7294, 1261.769
857.2115, 1266.113
857.6937, 1277.590
858.1758, 1280.959
858.6579, 1275.294
859.1400, 1277.157
859.6221, 1295.273
860.1042, 1317.077
860.5864, 1323.714
861.0685, 1315.901
861.5506, 1314.921
862.0327, 1322.194
862.5148, 1331.654
862.9969, 1345.530
863.4791, 1354.362
863.9612, 1348.503
864.4433, 1332.299
864.9254, 1321.546
865.4075, 1318.374
865.8896, 1316.195
866.3718, 1313.531
866.8539, 1313.560
867.3360, 1320.734
867.8181, 1329.058
868.3002, 1329.832
868.7823, 1323.464
869.2645, 1322.608
869.7466, 1337.971
870.2287, 1349.676
870.7108, 1350.056
871.1929, 1343.568
871.6750, 1329.202
872.1572, 1312.352
872.6393, 1304.318
873.1214, 1309.128
873.6035, 1316.124
874.0856, 1319.476
874.5677, 1319.450
875.0499, 1314.598
875.5320, 1307.140
876.0141, 1302.474
876.4962, 1300.834
876.9783, 1296.910
877.4604, 1286.951
877.9426, 1273.551
878.4247, 1258.995
878.9068, 1244.637
879.3889, 1236.767
879.8710, 1235.233
880.3531, 1233.710
880.8353, 1229.856
881.3174, 1222.213
881.7995, 1208.063
882.2816, 1188.954
882.7637, 1174.874
883.2458, 1166.408
883.7280, 1159.351
884.2101, 1153.780
884.6922, 1146.877
885.1743, 1135.583
885.6564, 1123.392
886.1385, 1118.815
886.6207, 1125.179
887.1028, 1123.807
887.5849, 1107.533
888.0670, 1095.120
888.5491, 1093.268
889.0313, 1095.644
889.5134, 1097.522
889.9955, 1098.984
890.4776, 1100.394
890.9597, 1101.171
891.4418, 1102.979
891.9240, 1110.443
892.4061, 1114.216
892.8882, 1107.374
893.3703, 1094.923
893.8524, 1082.061
894.3345, 1070.086
894.8167, 1063.111
895.2988, 1063.295
895.7809, 1068.305
896.2630, 1082.488
896.7451, 1096.633
897.2272, 1100.618
897.7094, 1096.117
898.1915, 1088.687
898.6736, 1080.266
899.1557, 1074.538
899.6378, 1077.163
900.1199, 1081.996
900.6021, 1080.192
901.0842, 1075.056
901.5663, 1074.531
902.0484, 1079.208
902.5305, 1083.490
903.0126, 1083.894
903.4948, 1082.163
903.9769, 1080.001
904.4590, 1077.897
904.9411, 1077.943
905.4232, 1079.856
905.9053, 1080.848
906.3875, 1080.017
906.8696, 1079.286
907.3517, 1081.226
907.8338, 1083.443
908.3159, 1074.993
908.7980, 1055.720
909.2802, 1051.326
909.7623, 1066.846
910.2444, 1078.765
910.7265, 1074.821
911.2086, 1064.362
911.6907, 1061.121
912.1729, 1064.958
912.6550, 1063.754
913.1371, 1054.726
913.6192, 1049.760
914.1013, 1052.725
914.5834, 1056.649
915.0656, 1057.035
915.5477, 1055.132
916.0298, 1053.261
916.5119, 1049.896
916.9940, 1052.475
917.4761, 1067.812
917.9583, 1079.429
918.4404, 1083.494
918.9225, 1082.528
919.4046, 1076.171
919.8867, 1066.263
920.3688, 1059.422
920.8510, 1057.397
921.3331, 1055.586
921.8152, 1050.507
922.2973, 1048.772
922.7794, 1054.006
923.2615, 1063.853
923.7437, 1079.056
924.2258, 1097.388
924.7079, 1106.039
925.1900, 1093.781
925.6721, 1083.546
926.1542, 1086.155
926.6364, 1093.045
927.1185, 1102.142
927.6006, 1108.638
928.0827, 1101.543
928.5648, 1080.406
929.0469, 1067.385
929.5291, 1082.639
930.0112, 1101.448
930.4933, 1106.867
930.9754, 1104.193
931.4575, 1096.846
931.9396, 1087.878
932.4218, 1083.490
932.9039, 1085.796
933.3860, 1088.297
933.8681, 1083.601
934.3502, 1077.412
934.8323, 1077.978
935.3145, 1082.418
935.7966, 1085.339
936.2787, 1085.775
936.7608, 1083.842
937.2429, 1079.413
937.7250, 1075.659
938.2072, 1078.948
938.6893, 1084.775
939.1714, 1079.863
939.6535, 1067.764
940.1356, 1065.392
940.6177, 1075.285
941.0999, 1082.016
941.5820, 1074.297
942.0641, 1059.453
942.5462, 1050.555
943.0283, 1046.329
943.5104, 1039.104
943.9926, 1029.097
944.4747, 1023.359
944.9568, 1024.112
945.4389, 1028.408
945.9210, 1034.618
946.4031, 1040.012
946.8853, 1034.206
947.3674, 1017.296
947.8495, 1011.340
948.3316, 1018.623
948.8137, 1027.411
949.2958, 1034.078
949.7780, 1035.386
950.2601, 1025.483
950.7422, 1008.578
951.2243, 1010.099
951.7064, 1034.735
952.1885, 1046.715
952.6707, 1040.676
953.1528, 1028.115
953.6349, 1010.926
954.1170, 997.3969
954.5991, 1000.821
955.0812, 1019.948
955.5634, 1026.118
956.0455, 1012.790
956.5276, 1007.266
957.0097, 1017.068
957.4918, 1026.408
957.9739, 1028.078
958.4561, 1022.682
958.9382, 1008.975
959.4203, 985.4763
959.9024, 974.6321
960.3845, 982.3810
960.8666, 991.1790
961.3488, 1001.384
961.8309, 1007.966
962.3130, 1004.553
962.7951, 997.1182
963.2772, 998.5446
963.7593, 1011.796
964.2415, 1018.019
964.7236, 1012.515
965.2057, 1006.809
965.6878, 1000.870
966.1699, 997.1880
966.6520, 999.2285
967.1342, 1004.261
967.6163, 1006.176
968.0984, 1004.526
968.5805, 1000.977
969.0626, 991.4113
969.5447, 985.5653
970.0269, 988.3588
970.5090, 993.4864
970.9911, 995.3276
971.4732, 995.7768
971.9553, 1001.648
972.4374, 1017.913
972.9196, 1023.958
973.4017, 1006.365
973.8838, 991.7154
974.3659, 991.2425
974.8480, 996.0699
975.3301, 999.7148
975.8123, 1001.728
976.2944, 1002.241
976.7765, 1000.640
977.2586, 999.6805
977.7407, 999.9711
978.2228, 1001.034
978.7050, 1003.879
979.1871, 1006.450
979.6692, 1006.743
980.1513, 1004.958
980.6334, 1002.778
981.1155, 1001.859
981.5977, 996.4543
982.0798, 975.8939
982.5619, 960.9335
983.0440, 967.6421
983.5261, 981.4443
984.0082, 984.9241
984.4904, 979.9903
984.9725, 981.2203
985.4546, 996.1531
985.9367, 1006.322
986.4188, 1002.846
986.9009, 995.2969
987.3831, 984.2652
987.8652, 975.7175
988.3473, 979.7317
988.8294, 993.0786
989.3115, 999.4557
989.7936, 991.3532
990.2758, 983.6960
990.7579, 981.9866
991.2400, 983.3645
991.7221, 987.8275
992.2042, 993.0960
992.6863, 996.8300
993.1685, 998.8559
993.6506, 1000.281
994.1327, 1002.208
994.6148, 1001.369
995.0969, 990.4244
995.5790, 982.5387
996.0612, 991.3666
996.5433, 1005.557
997.0254, 1010.239
997.5075, 1005.481
997.9896, 1000.828
998.4717, 999.6686
998.9539, 998.5569
999.4360, 994.5839
999.9181, 991.4996
1000.400, 995.3218
1000.882, 999.4204
1001.364, 993.0106
1001.847, 978.0931
1002.329, 967.2782
1002.811, 964.3129
1003.293, 967.7159
1003.775, 984.0736
1004.257, 998.6880
1004.739, 1000.338
1005.221, 994.8872
1005.703, 987.4595
1006.186, 980.5435
1006.668, 979.5989
1007.150, 989.3532
1007.632, 995.3736
1008.114, 987.0480
1008.596, 977.2924
1009.078, 974.3463
1009.560, 974.8987
1010.043, 974.3880
1010.525, 972.9814
1011.007, 973.8019
1011.489, 978.4974
1011.971, 982.9077
1012.453, 985.8417
1012.935, 987.2998
1013.417, 985.6802
1013.899, 983.7429
1014.382, 985.3874
1014.864, 989.5460
1015.346, 991.9214
1015.828, 991.5439
1016.310, 988.4203
1016.792, 978.3339
1017.274, 970.4783
1017.756, 970.9380
1018.239, 975.2707
1018.721, 981.0468
1019.203, 986.2756
1019.685, 986.7137
1020.167, 980.6058
1020.649, 973.7109
1021.131, 962.3128
1021.613, 957.4554
1022.095, 971.2753
1022.578, 987.9210
1023.060, 992.9029
1023.542, 988.4961
1024.024, 982.9352
1024.506, 977.4683
1024.988, 972.5529
1025.470, 964.6147
1025.952, 962.1178
1026.435, 976.6409
1026.917, 990.1384
1027.399, 981.4183
1027.881, 962.4694
1028.363, 963.0716
1028.845, 990.5503
1029.327, 1006.599
1029.809, 996.5154
1030.292, 984.9829
1030.774, 973.3756
1031.256, 967.6399
1031.738, 976.9970
1032.220, 992.7480
1032.702, 999.1041
1033.184, 994.2946
1033.666, 989.4374
1034.148, 986.3490
1034.630, 982.2618
1035.113, 972.9470
1035.595, 966.6309
1036.077, 971.8694
1036.559, 980.8174
1037.041, 979.8054
1037.523, 968.1764
1038.005, 965.1431
1038.487, 981.7968
1038.970, 989.2538
1039.452, 979.4951
1039.934, 968.5048
1040.416, 961.4838
1040.898, 958.3398
1041.380, 960.3890
1041.862, 966.9158
1042.344, 969.9130
1042.826, 968.1719
1043.309, 965.3204
1043.791, 959.8702
1044.273, 956.3909
1044.755, 957.3660
1045.237, 959.7388
1045.719, 959.8104
1046.201, 958.7771
1046.683, 963.2858
1047.166, 978.3276
1047.648, 980.6306
1048.130, 964.4055
1048.612, 952.0406
1049.094, 950.2426
1049.576, 954.7135
1050.058, 963.5460
1050.540, 973.7313
1051.022, 975.7988
1051.505, 968.1315
1051.987, 970.0768
1052.469, 984.1046
1052.951, 991.7459
1053.433, 988.0311
1053.915, 980.5074
1054.397, 973.6295
1054.879, 967.7842
1055.361, 963.0684
1055.844, 959.8086
1056.326, 963.0161
1056.808, 972.6762
1057.290, 980.8125
1057.772, 986.1294
1058.254, 982.9131
1058.736, 967.4498
1059.218, 950.5630
1059.701, 947.1638
1060.183, 953.4060
1060.665, 957.0792
1061.147, 958.5117
1061.629, 959.2072
1062.111, 959.4250
1062.593, 959.4140
1063.075, 959.2965
1063.557, 959.4651
1064.040, 960.1790
1064.522, 961.6551
1065.004, 963.7859
1065.486, 967.1577
1065.968, 976.8270
1066.450, 989.0365
1066.932, 988.2806
1067.414, 972.4203
1067.896, 957.7642
1068.379, 955.6506
1068.861, 958.4976
1069.343, 958.0071
1069.825, 956.9700
1070.307, 960.5454
1070.789, 966.1308
1071.271, 967.2769
1071.753, 964.3857
1072.236, 964.6970
1072.718, 972.2817
1073.200, 977.5961
1073.682, 970.5932
1074.164, 961.8007
1074.646, 959.5140
1075.128, 960.9496
1075.610, 964.3436
1076.093, 967.7316
1076.575, 966.8110
1077.057, 960.2718
1077.539, 955.3737
1078.021, 954.9608
1078.503, 957.2962
1078.985, 965.4737
1079.467, 972.2687
1079.949, 970.6564
1080.432, 964.5430
1080.914, 959.9995
1081.396, 957.8506
1081.878, 958.3146
1082.360, 962.2833
1082.842, 967.5693
1083.324, 979.6038
1083.806, 985.9790
1084.288, 976.5908
1084.771, 962.0786
1085.253, 953.5364
1085.735, 950.0604
1086.217, 946.6973
1086.699, 941.2413
1087.181, 942.1818
1087.663, 953.5984
1088.145, 963.1666
1088.628, 967.5536
1089.110, 969.7162
1089.592, 972.3505
1090.074, 973.4882
1090.556, 967.7460
1091.038, 954.6335
1091.520, 949.8425
1092.002, 955.0217
1092.484, 957.9948
1092.967, 956.5441
1093.449, 954.4488
1093.931, 953.4568
1094.413, 953.7110
1094.895, 955.8422
1095.377, 958.8177
1095.859, 958.2584
1096.341, 954.7331
1096.823, 952.2706
1097.306, 951.3190
1097.788, 952.7750
1098.270, 956.7602
1098.752, 961.0055
1099.234, 963.9932
1099.716, 965.0004
1100.198, 961.1274
1100.680, 955.4279
1101.163, 955.3622
1101.645, 958.5034
1102.127, 955.6747
1102.609, 948.1541
1103.091, 950.1609
1103.573, 969.0596
1104.055, 985.1838
1104.537, 979.9595
1105.020, 967.0580
1105.502, 954.3307
1105.984, 944.8158
1106.466, 942.3528
1106.948, 945.7545
1107.430, 953.8254
1107.912, 965.6086
1108.394, 972.4762
1108.876, 966.7923
1109.359, 961.8354
1109.841, 964.7269
1110.323, 967.3847
1110.805, 964.0086
1111.287, 958.1964
1111.769, 954.1937
1112.251, 952.0615
1112.733, 950.6073
1113.215, 950.9012
1113.698, 948.9450
1114.180, 942.5934
1114.662, 937.2052
1115.144, 933.3182
1115.626, 931.5456
1116.108, 932.0560
1116.590, 935.3054
1117.072, 943.2804
1117.555, 956.0406
1118.037, 961.2668
1118.519, 958.0536
1119.001, 950.5080
1119.483, 937.1777
1119.965, 934.0776
1120.447, 949.5923
1120.929, 966.3773
1121.411, 966.1268
1121.894, 954.9825
1122.376, 947.5624
1122.858, 943.5707
1123.340, 941.8036
1123.822, 941.9184
1124.304, 942.5673
1124.786, 943.4183
1125.268, 944.7773
1125.750, 946.8555
1126.233, 948.7968
1126.715, 950.3670
1127.197, 950.5703
1127.679, 944.9591
1128.161, 938.9080
1128.643, 943.9808
1129.125, 955.7440
1129.607, 960.0440
1130.090, 953.7370
1130.572, 946.3143
1131.054, 941.9724
1131.536, 938.6219
1132.018, 933.2491
1132.500, 930.5837
1132.982, 936.3650
1133.464, 944.8661
1133.947, 947.7679
1134.429, 946.9087
1134.911, 952.8316
1135.393, 971.3484
1135.875, 980.9236
1136.357, 975.6815
1136.839, 967.1735
1137.321, 954.5704
1137.803, 943.0264
1138.286, 934.6744
1138.768, 930.0718
1139.250, 930.9496
1139.732, 936.4356
1140.214, 937.4659
1140.696, 932.8603
1141.178, 933.9871
1141.660, 942.3071
1142.142, 947.7048
1142.625, 946.7659
1143.107, 945.5331
1143.589, 949.0568
1144.071, 953.1358
1144.553, 948.7683
1145.035, 939.5773
1145.517, 936.0925
1145.999, 937.5001
1146.482, 943.2949
1146.964, 951.1544
1147.446, 952.3891
1147.928, 944.2591
1148.410, 936.7761
1148.892, 938.7474
1149.374, 941.9423
1149.856, 937.4184
1150.339, 932.1481
1150.821, 935.2522
1151.303, 941.0332
1151.785, 937.8426
1152.267, 928.0378
1152.749, 928.4491
1153.231, 948.2720
1153.713, 957.7181
1154.195, 937.2564
1154.677, 923.3165
1155.160, 934.3935
1155.642, 946.8426
1156.124, 944.8589
1156.606, 936.4298
1157.088, 932.4078
1157.570, 932.6634
1158.052, 936.4243
1158.534, 945.5178
1159.017, 948.8192
1159.499, 944.3341
1159.981, 944.3823
1160.463, 953.9843
1160.945, 955.9724
1161.427, 936.1904
1161.909, 910.3110
1162.391, 904.6160
1162.874, 914.4720
1163.356, 928.9794
1163.838, 944.6350
1164.320, 946.5822
1164.802, 937.5878
1165.284, 936.6003
1165.766, 948.3461
1166.248, 955.6024
1166.730, 944.2930
1167.213, 931.5265
1167.695, 930.4636
1168.177, 935.1971
1168.659, 945.6765
1169.141, 954.9909
1169.623, 953.1866
1170.105, 943.3652
1170.587, 936.5961
1171.069, 935.2599
1171.552, 933.1859
1172.034, 924.8600
1172.516, 922.7873
1172.998, 935.5808
1173.480, 944.9197
1173.962, 939.5352
1174.444, 932.5683
1174.926, 939.7958
1175.409, 954.8965
1175.891, 953.8829
1176.373, 934.8793
1176.855, 927.4890
1177.337, 931.9580
1177.819, 936.7961
1178.301, 939.7548
1178.783, 939.0618
1179.266, 933.8508
1179.748, 927.6787
1180.230, 923.7307
1180.712, 922.2469
1181.194, 924.2191
1181.676, 928.5681
1182.158, 936.4059
1182.640, 943.8456
1183.122, 940.5916
1183.604, 928.7289
1184.087, 922.7758
1184.569, 928.5359
1185.051, 936.4913
1185.533, 947.9520
1186.015, 952.9612
1186.497, 940.8356
1186.979, 927.7438
1187.461, 924.1004
1187.944, 926.9154
1188.426, 932.9847
1188.908, 941.2643
1189.390, 945.7770
1189.872, 946.5319
1190.354, 942.7653
1190.836, 932.8016
1191.318, 925.6061
1191.801, 923.1464
1192.283, 924.0456
1192.765, 927.8284
1193.247, 932.3753
1193.729, 935.3896
1194.211, 936.6754
1194.693, 936.2794
1195.175, 933.6008
1195.657, 924.2877
1196.140, 911.8351
1196.622, 906.8773
1197.104, 910.1773
1197.586, 914.1166
1198.068, 915.3372
1198.550, 916.8920
1199.032, 920.8453
1199.514, 925.4854
1199.996, 929.7365
1200.479, 934.4105
1200.961, 942.2551
1201.443, 949.6664
1201.925, 951.6560
1202.407, 948.1218
1202.889, 940.9592
1203.371, 927.4737
1203.853, 919.0343
1204.336, 915.9089
1204.818, 918.1951
1205.300, 928.0093
1205.782, 932.6876
1206.264, 924.4634
1206.746, 914.5850
1207.228, 917.1837
1207.710, 926.4534
1208.193, 926.0107
1208.675, 920.8690
1209.157, 928.3425
1209.639, 943.5676
1210.121, 949.1529
1210.603, 944.5421
1211.085, 942.3960
1211.567, 947.8168
1212.049, 951.9797
1212.531, 948.5814
1213.014, 943.6721
1213.496, 940.3105
1213.978, 936.7171
1214.460, 932.3775
1214.942, 926.5615
1215.424, 914.9568
1215.906, 901.4909
1216.388, 901.3965
1216.871, 918.3038
1217.353, 925.6149
1217.835, 920.8016
1218.317, 916.8683
1218.799, 915.4359
1219.281, 916.5142
1219.763, 920.3082
1220.245, 923.9702
1220.728, 924.8201
1221.210, 924.3882
1221.692, 925.1193
1222.174, 926.6833
1222.656, 930.6106
1223.138, 933.7523
1223.620, 925.8019
1224.102, 911.8204
1224.584, 909.8488
1225.067, 923.3998
1225.549, 934.4988
1226.031, 935.2740
1226.513, 932.8264
1226.995, 925.2138
1227.477, 920.4344
1227.959, 925.1909
1228.441, 930.7201
1228.923, 930.1274
1229.406, 926.3582
1229.888, 923.9060
1230.370, 922.9802
1230.852, 927.2169
1231.334, 937.0209
1231.816, 941.9048
1232.298, 941.2668
1232.780, 935.3846
1233.263, 924.9111
1233.745, 915.2909
1234.227, 909.4772
1234.709, 908.5181
1235.191, 918.3107
1235.673, 927.8952
1236.155, 922.4874
1236.637, 912.6807
1237.120, 909.7130
1237.602, 911.2541
1238.084, 913.0352
1238.566, 914.3328
1239.048, 915.0746
1239.530, 915.0668
1240.012, 915.2117
1240.494, 914.3055
1240.976, 916.6179
1241.458, 925.6965
1241.941, 929.4063
1242.423, 921.0221
1242.905, 911.5634
##END=



