##NAMES=Sulphohalite
##RRUFFID=R050479
##IDEAL CHEMISTRY=Na_6_(S^6+^O_4_)_2_ClF
##LOCALITY=Searles Lake, Trona, San Bernardino County, California, USA
##OWNER=RRUFF
##SOURCE=California Institute of Technology
##DESCRIPTION=A pair of colorless octahedra
##STATUS=The identification of this mineral has been confirmed by X-ray diffraction and chemical analysis
##URL=rruff.info/R050479
##MEASURED CHEMISTRY=Na_6.00_(S_1.00_O_4_)_2_F_1.00_Cl_1.00_
93.78320, 194.5040
94.26532, 192.9249
94.74744, 193.6736
95.22955, 196.2821
95.71167, 199.9582
96.19379, 202.3761
96.67590, 203.7058
97.15802, 204.8808
97.64014, 206.1776
98.12225, 207.3940
98.60437, 208.1945
99.08649, 208.4971
99.56860, 208.4430
100.0507, 208.3509
100.5328, 208.0018
101.0150, 207.1935
101.4971, 205.4472
101.9792, 202.6916
102.4613, 200.6484
102.9434, 200.6801
103.4255, 201.3164
103.9077, 201.5004
104.3898, 200.8550
104.8719, 199.8066
105.3540, 199.2257
105.8361, 199.3531
106.3182, 199.5261
106.8004, 199.6102
107.2825, 199.6286
107.7646, 199.5761
108.2467, 199.4295
108.7288, 199.2004
109.2109, 199.1211
109.6931, 199.5584
110.1752, 199.7680
110.6573, 199.3654
111.1394, 198.5180
111.6215, 197.7052
112.1036, 197.3773
112.5858, 197.6278
113.0679, 197.5856
113.5500, 197.0716
114.0321, 196.4191
114.5142, 195.8641
114.9964, 195.4435
115.4785, 195.0390
115.9606, 194.4159
116.4427, 193.5843
116.9248, 193.0791
117.4069, 193.2772
117.8891, 193.8704
118.3712, 194.2027
118.8533, 194.0459
119.3354, 193.7478
119.8175, 193.5405
120.2996, 193.4299
120.7818, 193.5845
121.2639, 194.3599
121.7460, 195.7953
122.2281, 196.7497
122.7102, 196.7275
123.1923, 196.3177
123.6745, 195.6232
124.1566, 194.7068
124.6387, 193.8476
125.1208, 193.4956
125.6029, 193.9809
126.0850, 194.2902
126.5672, 194.3269
127.0493, 194.2000
127.5314, 193.8936
128.0135, 193.4145
128.4956, 192.9358
128.9777, 192.9464
129.4599, 193.8214
129.9420, 194.8239
130.4241, 196.0372
130.9062, 197.3309
131.3883, 198.6147
131.8705, 199.9092
132.3526, 201.0686
132.8347, 201.2820
133.3168, 200.1218
133.7989, 198.6971
134.2810, 197.2968
134.7632, 195.9594
135.2453, 194.8282
135.7274, 193.9770
136.2095, 193.4429
136.6916, 193.1882
137.1737, 193.3356
137.6559, 193.6867
138.1380, 194.0775
138.6201, 194.5235
139.1022, 194.9357
139.5843, 195.0913
140.0664, 195.1944
140.5486, 195.6070
141.0307, 196.9004
141.5128, 198.5537
141.9949, 198.8817
142.4770, 196.9659
142.9591, 195.0232
143.4413, 194.0556
143.9234, 193.7524
144.4055, 193.5025
144.8876, 192.8026
145.3697, 191.6479
145.8518, 190.9765
146.3340, 191.4067
146.8161, 191.8087
147.2982, 191.7366
147.7803, 191.2985
148.2624, 190.9223
148.7445, 191.0941
149.2267, 192.0890
149.7088, 192.4384
150.1909, 191.7779
150.6730, 190.9205
151.1551, 190.1729
151.6372, 189.6399
152.1194, 189.4292
152.6015, 189.7214
153.0836, 190.8254
153.5657, 191.6095
154.0478, 191.9747
154.5299, 192.0702
155.0121, 191.9664
155.4942, 191.6647
155.9763, 191.3405
156.4584, 191.3526
156.9405, 191.7598
157.4227, 191.9186
157.9048, 191.3723
158.3869, 190.4665
158.8690, 190.0205
159.3511, 190.4796
159.8332, 191.0854
160.3154, 190.6975
160.7975, 189.2683
161.2796, 188.2108
161.7617, 188.8097
162.2438, 190.9064
162.7259, 192.3422
163.2081, 192.1001
163.6902, 191.4102
164.1723, 191.2436
164.6544, 191.6888
165.1365, 192.1782
165.6186, 191.9355
166.1008, 190.6766
166.5829, 189.9905
167.0650, 190.7442
167.5471, 191.7516
168.0292, 192.2773
168.5113, 192.1409
168.9935, 191.6960
169.4756, 191.5210
169.9577, 191.7374
170.4398, 192.0193
170.9219, 192.4482
171.4040, 192.8621
171.8862, 193.0274
172.3683, 192.8763
172.8504, 192.6583
173.3325, 192.9791
173.8146, 194.6385
174.2967, 195.9047
174.7789, 196.7191
175.2610, 197.1263
175.7431, 197.0349
176.2252, 196.3731
176.7073, 195.4322
177.1894, 195.2057
177.6716, 196.3620
178.1537, 197.3242
178.6358, 197.7399
179.1179, 197.7632
179.6000, 197.6750
180.0821, 197.5885
180.5643, 197.5080
181.0464, 197.4297
181.5285, 197.2181
182.0106, 197.1897
182.4927, 197.5970
182.9749, 198.3570
183.4570, 199.0683
183.9391, 199.4223
184.4212, 199.6997
184.9033, 200.5383
185.3854, 202.4317
185.8676, 204.0887
186.3497, 204.1342
186.8318, 202.5144
187.3139, 201.1795
187.7960, 201.0787
188.2781, 201.7321
188.7603, 202.7682
189.2424, 204.2986
189.7245, 205.7955
190.2066, 206.5171
190.6887, 206.2899
191.1708, 205.9003
191.6530, 205.1911
192.1351, 204.6457
192.6172, 204.7807
193.0993, 205.8298
193.5814, 207.4299
194.0635, 208.8522
194.5457, 209.9656
195.0278, 211.1579
195.5099, 212.5553
195.9920, 214.0353
196.4741, 215.4839
196.9562, 216.8503
197.4384, 218.1542
197.9205, 219.4915
198.4026, 221.1931
198.8847, 222.4180
199.3668, 222.9560
199.8489, 223.0378
200.3311, 222.8847
200.8132, 222.6036
201.2953, 222.2150
201.7774, 221.8033
202.2595, 221.8426
202.7416, 221.2980
203.2238, 219.8428
203.7059, 217.7834
204.1880, 215.4465
204.6701, 212.9839
205.1522, 210.4863
205.6344, 208.3941
206.1165, 206.7963
206.5986, 205.4164
207.0807, 204.3542
207.5628, 203.4624
208.0449, 202.4225
208.5271, 201.0175
209.0092, 199.4199
209.4913, 198.3782
209.9734, 198.2286
210.4555, 198.0982
210.9376, 197.6712
211.4198, 197.0232
211.9019, 196.3313
212.3840, 195.6386
212.8661, 195.0167
213.3482, 194.6593
213.8303, 194.7886
214.3125, 194.8156
214.7946, 194.2579
215.2767, 193.2370
215.7588, 192.4698
216.2409, 192.4803
216.7230, 192.7759
217.2052, 192.3941
217.6873, 191.0057
218.1694, 189.6272
218.6515, 189.1230
219.1336, 189.4592
219.6157, 189.7772
220.0979, 189.6548
220.5800, 189.4270
221.0621, 189.5136
221.5442, 190.0333
222.0263, 190.5639
222.5084, 190.7191
222.9906, 190.4853
223.4727, 190.0210
223.9548, 189.1217
224.4369, 188.1535
224.9190, 187.2714
225.4011, 186.4837
225.8833, 186.0665
226.3654, 186.6047
226.8475, 188.4257
227.3296, 189.6014
227.8117, 189.0960
228.2938, 188.2155
228.7760, 187.7601
229.2581, 187.8877
229.7402, 188.1797
230.2223, 188.0597
230.7044, 187.3840
231.1866, 186.7463
231.6687, 186.0199
232.1508, 185.4763
232.6329, 185.4598
233.1150, 185.9638
233.5971, 186.5133
234.0793, 186.3319
234.5614, 184.8597
235.0435, 184.0660
235.5256, 184.5007
236.0077, 185.1479
236.4898, 185.3531
236.9720, 185.0223
237.4541, 184.5368
237.9362, 184.4515
238.4183, 185.0901
238.9004, 185.3274
239.3825, 184.9298
239.8647, 184.3836
240.3468, 183.9390
240.8289, 183.6575
241.3110, 183.5257
241.7931, 183.5637
242.2752, 183.9612
242.7574, 183.9267
243.2395, 182.8332
243.7216, 181.8369
244.2037, 181.9045
244.6858, 183.0275
245.1679, 184.2737
245.6501, 184.5829
246.1322, 183.6493
246.6143, 182.9118
247.0964, 182.1516
247.5785, 181.7194
248.0606, 182.1573
248.5428, 183.3601
249.0249, 184.4055
249.5070, 184.3197
249.9891, 182.8626
250.4712, 181.9211
250.9533, 181.9474
251.4355, 182.1034
251.9176, 181.7833
252.3997, 180.9849
252.8818, 180.1149
253.3639, 179.4459
253.8460, 179.0200
254.3282, 178.9952
254.8103, 179.7565
255.2924, 180.6043
255.7745, 181.1802
256.2566, 181.4439
256.7387, 181.2430
257.2209, 180.2119
257.7030, 178.5847
258.1851, 177.8097
258.6672, 178.7160
259.1493, 179.8026
259.6314, 179.9162
260.1136, 179.1525
260.5957, 178.5107
261.0778, 178.7126
261.5599, 179.4262
262.0420, 179.5581
262.5241, 178.5621
263.0063, 177.6184
263.4884, 177.7808
263.9705, 178.9062
264.4526, 179.7129
264.9347, 179.4299
265.4168, 178.5543
265.8990, 178.0986
266.3811, 178.1868
266.8632, 178.4466
267.3453, 178.7626
267.8275, 179.0949
268.3096, 179.0876
268.7917, 178.4216
269.2738, 177.5102
269.7559, 176.8720
270.2380, 176.5169
270.7202, 176.4256
271.2023, 176.7691
271.6844, 177.4590
272.1665, 177.8548
272.6486, 177.5910
273.1307, 177.1937
273.6129, 177.2290
274.0950, 177.6938
274.5771, 178.1563
275.0592, 178.4244
275.5413, 178.4823
276.0234, 178.1582
276.5056, 177.0305
276.9877, 176.0529
277.4698, 176.1057
277.9519, 176.9968
278.4340, 177.7550
278.9161, 177.6232
279.3983, 176.8262
279.8804, 176.4104
280.3625, 176.6596
280.8446, 176.9491
281.3267, 176.8671
281.8088, 176.5305
282.2910, 176.2031
282.7731, 175.9256
283.2552, 175.7702
283.7373, 176.0801
284.2194, 177.2396
284.7015, 178.1276
285.1837, 178.1606
285.6658, 177.6410
286.1479, 176.9567
286.6300, 176.1749
287.1121, 175.4444
287.5942, 175.1629
288.0764, 175.5259
288.5585, 175.8861
289.0406, 175.9848
289.5227, 175.9677
290.0048, 175.9805
290.4869, 176.0785
290.9691, 176.2165
291.4512, 176.3687
291.9333, 176.6232
292.4154, 176.6067
292.8975, 175.8475
293.3796, 175.0061
293.8618, 174.6651
294.3439, 174.9712
294.8260, 175.4543
295.3081, 175.4349
295.7902, 174.7542
296.2723, 174.3284
296.7545, 174.6664
297.2366, 175.0492
297.7187, 174.9814
298.2008, 174.4595
298.6829, 173.9382
299.1650, 173.9613
299.6472, 174.6049
300.1293, 175.0616
300.6114, 175.2291
301.0935, 175.2304
301.5756, 175.0568
302.0577, 174.7477
302.5399, 174.4021
303.0220, 174.1057
303.5041, 173.8550
303.9862, 173.5367
304.4683, 172.9307
304.9504, 172.5315
305.4326, 172.7174
305.9147, 173.2122
306.3968, 173.4524
306.8789, 172.9635
307.3610, 172.0375
307.8431, 172.0530
308.3253, 173.9724
308.8074, 175.3107
309.2895, 175.1378
309.7716, 174.1745
310.2537, 173.2010
310.7358, 172.5249
311.2180, 172.1589
311.7001, 172.1788
312.1822, 172.7585
312.6643, 173.3503
313.1464, 174.1046
313.6285, 174.6811
314.1107, 174.7245
314.5928, 174.1516
315.0749, 173.3046
315.5570, 172.6171
316.0392, 172.0620
316.5213, 171.7737
317.0034, 172.0560
317.4855, 172.3843
317.9676, 172.4157
318.4497, 172.1599
318.9319, 171.9198
319.4140, 172.0855
319.8961, 172.7296
320.3782, 173.0661
320.8603, 173.0686
321.3424, 172.7418
321.8246, 171.6543
322.3067, 170.2009
322.7888, 169.3208
323.2709, 169.9185
323.7530, 171.7219
324.2351, 172.6367
324.7173, 171.9157
325.1994, 171.3201
325.6815, 171.5804
326.1636, 172.2432
326.6457, 172.6230
327.1278, 172.3299
327.6100, 171.7050
328.0921, 171.6678
328.5742, 172.6912
329.0563, 173.2637
329.5384, 172.7439
330.0205, 171.8398
330.5027, 171.1460
330.9848, 170.8312
331.4669, 170.6620
331.9490, 170.2368
332.4311, 169.4128
332.9132, 168.9655
333.3954, 169.5484
333.8775, 170.1482
334.3596, 170.0925
334.8417, 169.4107
335.3238, 168.7281
335.8059, 168.7222
336.2881, 169.4061
336.7702, 169.8044
337.2523, 169.6003
337.7344, 169.4359
338.2165, 169.6830
338.6986, 170.1983
339.1808, 170.6344
339.6629, 170.7708
340.1450, 170.6667
340.6271, 170.5381
341.1092, 170.3772
341.5913, 170.2047
342.0735, 170.0184
342.5556, 169.8293
343.0377, 169.6351
343.5198, 169.4191
344.0019, 169.2459
344.4840, 169.2400
344.9662, 169.4368
345.4483, 169.6436
345.9304, 169.8735
346.4125, 170.0487
346.8946, 170.1040
347.3767, 170.0299
347.8589, 169.8666
348.3410, 169.5959
348.8231, 169.2222
349.3052, 168.9778
349.7873, 168.9538
350.2694, 169.0068
350.7516, 169.0390
351.2337, 169.0554
351.7158, 169.0873
352.1979, 169.2617
352.6800, 169.4735
353.1621, 169.3021
353.6443, 168.5342
354.1264, 167.8578
354.6085, 167.7337
355.0906, 167.9487
355.5727, 168.2362
356.0548, 168.6700
356.5370, 168.9471
357.0191, 168.4250
357.5012, 166.9956
357.9833, 166.0217
358.4654, 166.4410
358.9475, 167.4086
359.4297, 167.9137
359.9118, 167.8131
360.3939, 167.5309
360.8760, 167.3496
361.3581, 167.2474
361.8402, 167.1074
362.3224, 166.8923
362.8045, 166.6477
363.2866, 166.3500
363.7687, 166.0150
364.2508, 165.8796
364.7329, 166.2337
365.2151, 166.7844
365.6972, 166.9946
366.1793, 166.7711
366.6614, 166.5139
367.1436, 166.6621
367.6257, 167.0164
368.1078, 166.9527
368.5899, 165.8611
369.0720, 164.7634
369.5541, 164.6073
370.0363, 165.2684
370.5184, 165.9500
371.0005, 166.3489
371.4826, 166.4721
371.9647, 166.3393
372.4468, 165.8619
372.9290, 165.3907
373.4111, 165.0722
373.8932, 164.8491
374.3753, 164.5855
374.8574, 164.2253
375.3395, 163.9461
375.8217, 164.0088
376.3038, 164.4496
376.7859, 164.9033
377.2680, 165.5909
377.7501, 166.1038
378.2322, 165.9115
378.7144, 165.0768
379.1965, 164.3250
379.6786, 164.2358
380.1607, 164.7357
380.6428, 164.9215
381.1249, 164.7968
381.6071, 164.4111
382.0892, 163.4221
382.5713, 162.2244
383.0534, 161.6095
383.5355, 161.9411
384.0176, 162.8373
384.4998, 163.4909
384.9819, 163.8817
385.4640, 164.0237
385.9461, 163.6932
386.4282, 163.2520
386.9103, 163.0852
387.3925, 163.2079
387.8746, 163.2490
388.3567, 162.7383
388.8388, 161.5005
389.3209, 161.0171
389.8030, 161.9564
390.2852, 162.8372
390.7673, 163.0455
391.2494, 162.7659
391.7315, 162.4572
392.2136, 162.3930
392.6957, 162.4804
393.1779, 162.3346
393.6600, 161.3734
394.1421, 161.0403
394.6242, 162.1319
395.1063, 163.4810
395.5884, 163.9593
396.0706, 163.3241
396.5527, 162.2398
397.0348, 161.5547
397.5169, 161.3595
397.9990, 161.2151
398.4811, 161.1076
398.9633, 161.0666
399.4454, 161.1306
399.9275, 161.2745
400.4096, 161.4338
400.8917, 161.5526
401.3738, 161.6585
401.8560, 161.9407
402.3381, 162.7354
402.8202, 163.0407
403.3023, 162.1756
403.7844, 160.9150
404.2665, 160.0400
404.7487, 159.7869
405.2308, 159.8575
405.7129, 159.9781
406.1950, 160.1614
406.6771, 160.1573
407.1592, 159.6519
407.6414, 159.2335
408.1235, 159.4384
408.6056, 160.1582
409.0877, 160.7706
409.5698, 160.8880
410.0519, 160.6491
410.5341, 160.3042
411.0162, 159.7871
411.4983, 159.4490
411.9804, 159.7065
412.4625, 160.2395
412.9446, 160.5153
413.4268, 160.3937
413.9089, 160.0933
414.3910, 159.7074
414.8731, 159.2657
415.3553, 158.8960
415.8374, 158.6064
416.3195, 158.4626
416.8016, 158.6421
417.2837, 159.1613
417.7658, 159.5831
418.2480, 159.8066
418.7301, 159.8651
419.2122, 159.8502
419.6943, 159.7601
420.1764, 159.3439
420.6585, 158.2168
421.1407, 156.5220
421.6228, 155.7938
422.1049, 156.7756
422.5870, 157.7947
423.0691, 158.2027
423.5512, 158.1900
424.0334, 158.1338
424.5155, 158.1859
424.9976, 158.2248
425.4797, 158.0027
425.9618, 157.2299
426.4439, 156.7930
426.9261, 157.0945
427.4082, 157.4099
427.8903, 157.0571
428.3724, 156.1477
428.8545, 155.4095
429.3366, 155.4690
429.8188, 156.2876
430.3009, 156.9663
430.7830, 157.4793
431.2651, 157.8700
431.7472, 158.2383
432.2293, 158.4489
432.7115, 158.2423
433.1936, 157.5378
433.6757, 156.6758
434.1578, 156.2347
434.6399, 156.3297
435.1220, 156.4333
435.6042, 156.4564
436.0863, 156.5235
436.5684, 156.8025
437.0505, 157.1991
437.5326, 157.4059
438.0147, 157.1066
438.4969, 156.4854
438.9790, 156.2119
439.4611, 156.3819
439.9432, 156.6608
440.4253, 157.1188
440.9074, 157.5215
441.3896, 157.5170
441.8717, 156.9545
442.3538, 156.4399
442.8359, 156.6866
443.3180, 157.5352
443.8001, 157.9805
444.2823, 157.7128
444.7644, 157.2209
445.2465, 156.8875
445.7286, 156.7039
446.2107, 156.7277
446.6928, 157.1626
447.1750, 157.6846
447.6571, 157.8849
448.1392, 157.8024
448.6213, 157.9087
449.1034, 158.5649
449.5855, 159.4718
450.0677, 159.7138
450.5498, 158.8370
451.0319, 158.3683
451.5140, 158.7980
451.9961, 159.7971
452.4782, 161.1845
452.9604, 162.8604
453.4425, 164.2846
453.9246, 164.8240
454.4067, 164.3487
454.8888, 164.3662
455.3709, 165.1196
455.8531, 166.0038
456.3352, 166.9809
456.8173, 167.9012
457.2994, 168.4464
457.7815, 168.4614
458.2636, 168.3499
458.7458, 169.0007
459.2279, 170.8149
459.7100, 172.5865
460.1921, 174.3379
460.6742, 175.9965
461.1563, 177.3045
461.6385, 178.4328
462.1206, 179.9130
462.6027, 182.1879
463.0848, 185.1473
463.5669, 188.1449
464.0491, 190.7785
464.5312, 194.2643
465.0133, 199.2752
465.4954, 205.1195
465.9775, 211.0476
466.4597, 216.8832
466.9418, 223.3494
467.4239, 231.1968
467.9060, 240.3333
468.3881, 250.4074
468.8702, 261.9099
469.3524, 273.3609
469.8345, 284.5001
470.3166, 294.7975
470.7987, 301.9174
471.2808, 305.8223
471.7629, 305.9166
472.2451, 300.9423
472.7272, 291.3859
473.2093, 279.3404
473.6914, 265.1112
474.1735, 249.8849
474.6556, 235.6864
475.1378, 222.2424
475.6199, 210.4332
476.1020, 200.4411
476.5841, 192.0643
477.0662, 185.3875
477.5483, 180.2679
478.0305, 175.9221
478.5126, 171.7929
478.9947, 167.9191
479.4768, 164.8161
479.9589, 162.7762
480.4410, 161.1325
480.9232, 159.9664
481.4053, 159.0705
481.8874, 158.2758
482.3695, 157.5259
482.8516, 156.8416
483.3337, 156.2947
483.8159, 155.9305
484.2980, 155.3071
484.7801, 154.1082
485.2622, 153.0046
485.7443, 152.2471
486.2264, 151.7336
486.7086, 151.2590
487.1907, 150.7053
487.6728, 150.2768
488.1549, 150.4124
488.6370, 151.1659
489.1191, 151.5833
489.6013, 151.3554
490.0834, 150.8197
490.5655, 150.1441
491.0476, 149.3854
491.5297, 148.9481
492.0118, 149.2710
492.4940, 149.8479
492.9761, 150.0384
493.4582, 149.8410
493.9403, 149.5128
494.4224, 149.1276
494.9045, 148.7465
495.3867, 148.5569
495.8688, 148.6637
496.3509, 148.6633
496.8330, 148.3070
497.3151, 147.8849
497.7972, 147.7956
498.2794, 148.0329
498.7615, 148.1585
499.2436, 147.7326
499.7257, 146.8138
500.2078, 146.4698
500.6899, 147.4404
501.1721, 148.0902
501.6542, 147.9123
502.1363, 147.4063
502.6184, 147.0770
503.1005, 147.0733
503.5826, 147.2883
504.0648, 147.7151
504.5469, 148.4302
505.0290, 148.5775
505.5111, 147.7553
505.9932, 146.8396
506.4753, 145.9814
506.9575, 145.3127
507.4396, 145.0943
507.9217, 145.5175
508.4038, 146.0970
508.8859, 146.2344
509.3680, 145.9493
509.8502, 145.5859
510.3323, 145.1496
510.8144, 144.7629
511.2965, 144.5722
511.7786, 144.5458
512.2607, 144.5276
512.7429, 144.4453
513.2250, 144.3821
513.7071, 144.4995
514.1892, 144.7245
514.6713, 144.7224
515.1534, 144.3089
515.6356, 143.6950
516.1177, 143.2962
516.5998, 143.2099
517.0819, 143.1297
517.5640, 143.1282
518.0461, 143.0664
518.5283, 142.7535
519.0104, 142.2794
519.4925, 141.9548
519.9746, 142.0037
520.4567, 142.2982
520.9388, 142.3199
521.4210, 141.6968
521.9031, 141.5102
522.3852, 142.3544
522.8673, 143.2646
523.3494, 143.4737
523.8315, 143.0099
524.3137, 142.5000
524.7958, 142.5626
525.2779, 142.9390
525.7600, 142.5532
526.2421, 141.0971
526.7242, 140.0444
527.2064, 140.3204
527.6885, 141.2252
528.1706, 141.9224
528.6527, 142.3528
529.1348, 142.5833
529.6169, 142.5500
530.0991, 142.3754
530.5812, 142.2834
531.0633, 142.2992
531.5454, 142.2567
532.0275, 142.0326
532.5096, 141.6445
532.9918, 141.2163
533.4739, 140.5862
533.9560, 140.1301
534.4381, 139.9746
534.9202, 140.0043
535.4023, 140.1177
535.8845, 140.2831
536.3666, 140.5096
536.8487, 140.8511
537.3308, 141.3071
537.8129, 141.3627
538.2951, 140.6392
538.7772, 139.9964
539.2593, 139.5138
539.7415, 139.2642
540.2236, 139.4471
540.7057, 140.0923
541.1878, 140.7019
541.6699, 140.7000
542.1520, 140.1779
542.6342, 139.7360
543.1163, 139.3541
543.5984, 139.2088
544.0805, 139.7014
544.5626, 140.4558
545.0447, 140.7433
545.5269, 140.3060
546.0090, 139.6998
546.4911, 139.0430
546.9732, 138.4849
547.4553, 138.4524
547.9374, 139.0403
548.4196, 139.6123
548.9017, 139.5023
549.3838, 138.6882
549.8659, 138.2547
550.3480, 138.6216
550.8301, 138.7977
551.3123, 138.2863
551.7944, 137.5345
552.2765, 137.0545
552.7586, 136.9986
553.2407, 137.2645
553.7228, 137.8580
554.2050, 138.8267
554.6871, 139.2187
555.1692, 138.6838
555.6513, 138.0444
556.1334, 137.4030
556.6155, 136.9214
557.0977, 136.8532
557.5798, 137.3002
558.0619, 137.8958
558.5440, 138.4869
559.0261, 138.9743
559.5082, 138.8710
559.9904, 137.9756
560.4725, 137.1050
560.9546, 136.9758
561.4367, 137.4218
561.9188, 137.5119
562.4009, 136.7598
562.8831, 136.2534
563.3652, 136.7243
563.8473, 137.5474
564.3294, 137.7982
564.8115, 137.3125
565.2936, 136.6352
565.7758, 136.3048
566.2579, 136.3218
566.7400, 136.3154
567.2221, 136.2947
567.7042, 136.2366
568.1863, 136.0775
568.6685, 135.9128
569.1506, 135.8851
569.6327, 136.0049
570.1148, 136.0768
570.5969, 135.8013
571.0790, 135.2690
571.5612, 135.0965
572.0433, 135.3951
572.5254, 135.7548
573.0075, 135.9991
573.4896, 136.1625
573.9717, 136.3089
574.4539, 136.4599
574.9360, 136.5274
575.4181, 136.4075
575.9002, 136.2088
576.3823, 136.1130
576.8644, 136.1265
577.3466, 136.0712
577.8287, 135.7982
578.3108, 135.3702
578.7929, 135.0959
579.2750, 135.1600
579.7571, 135.1373
580.2393, 134.8486
580.7214, 134.5816
581.2035, 134.6531
581.6856, 135.0005
582.1677, 135.2346
582.6498, 135.0065
583.1320, 134.5002
583.6141, 134.4268
584.0962, 134.9777
584.5783, 135.2914
585.0604, 134.8053
585.5425, 134.2498
586.0247, 134.3762
586.5068, 135.1344
586.9889, 135.6581
587.4710, 135.2366
587.9531, 134.6072
588.4352, 134.7945
588.9174, 135.6494
589.3995, 136.2322
589.8816, 136.1486
590.3637, 135.5446
590.8458, 134.5754
591.3279, 132.8540
591.8101, 131.9378
592.2922, 132.5045
592.7743, 133.1909
593.2564, 133.2390
593.7385, 132.8706
594.2206, 132.6014
594.7028, 132.6670
595.1849, 132.9253
595.6670, 133.1626
596.1491, 133.3812
596.6312, 133.5706
597.1133, 133.8329
597.5955, 133.9224
598.0776, 133.6016
598.5597, 133.0558
599.0418, 132.6574
599.5239, 132.5796
600.0060, 132.4948
600.4882, 131.9675
600.9703, 131.2531
601.4524, 131.0549
601.9345, 131.5247
602.4166, 132.1291
602.8987, 132.4328
603.3809, 132.4473
603.8630, 132.3169
604.3451, 131.6620
604.8272, 131.3656
605.3093, 131.9218
605.7914, 132.7058
606.2736, 133.0976
606.7557, 133.0317
607.2378, 132.8486
607.7199, 132.8206
608.2020, 132.9239
608.6841, 133.0611
609.1663, 133.2771
609.6484, 133.3981
610.1305, 133.3255
610.6126, 133.1679
611.0947, 132.9324
611.5768, 132.6411
612.0590, 132.5837
612.5411, 133.0522
613.0232, 133.7021
613.5053, 134.1489
613.9874, 134.4198
614.4695, 134.6603
614.9517, 134.9008
615.4338, 135.2780
615.9159, 136.0436
616.3980, 137.3305
616.8801, 138.5558
617.3622, 139.4505
617.8444, 140.5863
618.3265, 142.4300
618.8086, 144.6071
619.2907, 146.5269
619.7728, 147.9814
620.2549, 149.1677
620.7371, 150.2602
621.2192, 151.2677
621.7013, 152.3885
622.1834, 153.5099
622.6655, 155.0201
623.1476, 157.4440
623.6298, 160.3113
624.1119, 162.7686
624.5940, 164.5090
625.0761, 166.5754
625.5582, 169.4643
626.0403, 172.9119
626.5225, 176.4677
627.0046, 180.1773
627.4867, 184.3842
627.9688, 189.2790
628.4509, 195.0409
628.9330, 202.3603
629.4152, 211.2971
629.8973, 221.7493
630.3794, 234.2508
630.8615, 247.5942
631.3436, 261.5049
631.8257, 275.7269
632.3079, 290.4102
632.7900, 306.5736
633.2721, 320.8593
633.7542, 329.4865
634.2363, 332.3509
634.7184, 327.6762
635.2006, 314.3096
635.6827, 295.5980
636.1648, 272.7620
636.6469, 246.5342
637.1291, 223.2361
637.6112, 202.7576
638.0933, 185.5197
638.5754, 172.4439
639.0576, 162.4523
639.5397, 154.6640
640.0218, 148.7274
640.5039, 144.1246
640.9860, 140.4451
641.4681, 137.6574
641.9503, 135.5833
642.4324, 134.4239
642.9145, 133.4760
643.3966, 132.7595
643.8787, 132.0756
644.3608, 131.2149
644.8430, 130.2389
645.3251, 129.4710
645.8072, 129.1175
646.2893, 128.9615
646.7714, 128.9097
647.2535, 128.8836
647.7357, 128.5353
648.2178, 127.7399
648.6999, 126.9820
649.1820, 126.9082
649.6641, 127.5871
650.1462, 127.5136
650.6284, 125.5917
651.1105, 124.3231
651.5926, 124.7654
652.0747, 125.7612
652.5568, 126.0981
653.0389, 125.6521
653.5211, 125.2057
654.0032, 125.5538
654.4853, 126.2962
654.9674, 126.2064
655.4495, 125.2052
655.9316, 124.2401
656.4138, 123.5520
656.8959, 123.1352
657.3780, 123.0634
657.8601, 123.3203
658.3422, 123.5983
658.8243, 124.0076
659.3065, 124.2726
659.7886, 124.0886
660.2707, 123.7088
660.7528, 123.5733
661.2349, 123.7976
661.7170, 124.1262
662.1992, 124.2775
662.6813, 124.2579
663.1634, 124.2217
663.6455, 124.2085
664.1276, 124.0978
664.6097, 123.7298
665.0919, 123.3237
665.5740, 123.1401
666.0561, 123.1765
666.5382, 123.0394
667.0203, 122.2513
667.5024, 121.4259
667.9846, 121.3759
668.4667, 121.8819
668.9488, 122.0671
669.4309, 121.5894
669.9130, 121.0059
670.3951, 121.1326
670.8773, 122.1356
671.3594, 122.4986
671.8415, 121.3769
672.3236, 120.6053
672.8057, 120.8354
673.2878, 121.4525
673.7700, 121.8596
674.2521, 121.9394
674.7342, 121.8549
675.2163, 121.6412
675.6984, 121.3775
676.1805, 121.2223
676.6627, 121.1737
677.1448, 121.1886
677.6269, 121.2533
678.1090, 121.3728
678.5911, 121.5973
679.0732, 121.9879
679.5554, 122.0864
680.0375, 121.5874
680.5196, 121.1546
681.0017, 121.1714
681.4838, 121.3318
681.9659, 121.1680
682.4481, 120.6184
682.9302, 120.1277
683.4123, 120.2641
683.8944, 120.7729
684.3765, 120.4294
684.8586, 119.0045
685.3408, 118.1518
685.8229, 118.7355
686.3050, 119.7970
686.7871, 120.0173
687.2692, 119.4285
687.7513, 119.2287
688.2335, 120.0036
688.7156, 120.7773
689.1977, 121.0673
689.6798, 120.9958
690.1619, 120.7065
690.6440, 120.2730
691.1262, 119.8421
691.6083, 119.5355
692.0904, 119.3648
692.5725, 119.4838
693.0546, 120.0925
693.5367, 120.4000
694.0189, 120.0013
694.5010, 119.3697
694.9831, 118.8865
695.4652, 118.5532
695.9473, 118.3154
696.4294, 118.0801
696.9116, 118.0131
697.3937, 118.3909
697.8758, 118.9715
698.3579, 119.2920
698.8400, 119.2569
699.3221, 119.1218
699.8043, 119.1470
700.2864, 119.2816
700.7685, 119.0875
701.2506, 118.2388
701.7327, 117.7525
702.2148, 118.1451
702.6970, 118.7023
703.1791, 119.0429
703.6612, 119.1566
704.1433, 119.1144
704.6254, 118.8722
705.1075, 118.5733
705.5897, 118.2495
706.0718, 117.9750
706.5539, 117.9897
707.0360, 118.3130
707.5181, 118.5762
708.0002, 118.4681
708.4824, 118.0621
708.9645, 117.7171
709.4466, 117.3971
709.9287, 117.2105
710.4108, 117.1778
710.8929, 117.2654
711.3751, 117.6655
711.8572, 118.1613
712.3393, 118.1826
712.8214, 117.3617
713.3035, 116.4484
713.7856, 116.0553
714.2678, 116.0543
714.7499, 116.2101
715.2320, 116.4813
715.7141, 116.8332
716.1962, 117.2692
716.6783, 117.7150
717.1605, 117.9497
717.6426, 117.9578
718.1247, 117.7753
718.6068, 117.3223
719.0889, 116.7760
719.5710, 115.9804
720.0532, 115.2132
720.5353, 115.0019
721.0174, 115.5598
721.4995, 116.1927
721.9816, 116.3186
722.4637, 116.1374
722.9459, 116.0184
723.4280, 115.9875
723.9101, 115.9868
724.3922, 115.9868
724.8743, 116.0061
725.3564, 116.1009
725.8386, 116.3562
726.3207, 116.3756
726.8028, 115.9051
727.2849, 115.4986
727.7670, 115.3578
728.2491, 115.3551
728.7313, 115.3538
729.2134, 115.3210
729.6955, 115.2391
730.1776, 114.9736
730.6597, 114.7172
731.1418, 114.8755
731.6240, 115.3652
732.1061, 115.6750
732.5882, 115.6161
733.0703, 115.4028
733.5524, 115.2893
734.0345, 115.2813
734.5167, 115.2445
734.9988, 115.1485
735.4809, 115.0635
735.9631, 114.9321
736.4452, 114.8669
736.9273, 115.0589
737.4094, 115.4357
737.8915, 115.6482
738.3737, 115.5179
738.8558, 115.1421
739.3379, 114.4486
739.8200, 113.5973
740.3021, 113.1134
740.7842, 113.1002
741.2664, 113.1937
741.7485, 113.0839
742.2306, 112.8535
742.7127, 112.9380
743.1948, 113.7637
743.6769, 114.1189
744.1591, 113.4185
744.6412, 112.7718
745.1233, 112.8431
745.6054, 113.3862
746.0875, 113.8517
746.5696, 114.0668
747.0518, 114.1773
747.5339, 114.2336
748.0160, 114.2821
748.4981, 114.4804
748.9802, 114.7900
749.4623, 114.8692
749.9445, 114.5252
750.4266, 113.9636
750.9087, 113.5424
751.3908, 113.2543
751.8729, 113.1541
752.3550, 113.4743
752.8372, 113.6723
753.3193, 113.5332
753.8014, 113.2190
754.2835, 112.8418
754.7656, 112.4240
755.2477, 112.1675
755.7299, 112.2065
756.2120, 112.4125
756.6941, 112.7685
757.1762, 113.1803
757.6583, 113.4684
758.1404, 113.5748
758.6226, 113.4369
759.1047, 112.9459
759.5868, 112.1778
760.0689, 111.6178
760.5510, 111.2620
761.0331, 111.1475
761.5153, 111.4861
761.9974, 111.8662
762.4795, 111.9624
762.9616, 111.8566
763.4437, 111.8271
763.9258, 112.0187
764.4080, 112.1367
764.8901, 111.9965
765.3722, 111.7346
765.8543, 111.3697
766.3364, 111.0167
766.8185, 111.0928
767.3007, 111.8561
767.7828, 112.7485
768.2649, 112.6424
768.7470, 111.4846
769.2291, 110.7769
769.7112, 110.6325
770.1934, 110.8129
770.6755, 111.5225
771.1576, 112.2813
771.6397, 112.2029
772.1218, 111.1647
772.6039, 110.2563
773.0861, 109.5042
773.5682, 109.0819
774.0503, 109.2597
774.5324, 109.7430
775.0145, 110.1892
775.4966, 110.4927
775.9788, 110.6371
776.4609, 110.6022
776.9430, 110.4071
777.4251, 109.9453
777.9072, 109.2360
778.3893, 109.0897
778.8715, 109.8301
779.3536, 110.6506
779.8357, 110.7925
780.3178, 110.3904
780.7999, 110.3641
781.2820, 111.3996
781.7642, 111.8091
782.2463, 110.8379
782.7284, 109.8486
783.2105, 109.7572
783.6926, 110.2969
784.1747, 110.8558
784.6569, 111.2499
785.1390, 111.3821
785.6211, 110.8962
786.1032, 110.1925
786.5853, 110.2015
787.0674, 110.8541
787.5496, 111.2827
788.0317, 111.1115
788.5138, 110.5484
788.9959, 109.8071
789.4780, 108.8382
789.9601, 108.4201
790.4423, 108.7811
790.9244, 109.3365
791.4065, 110.3812
791.8886, 111.2247
792.3707, 111.2103
792.8528, 110.4372
793.3350, 109.6077
793.8171, 108.5736
794.2992, 108.0340
794.7813, 108.8937
795.2634, 110.2645
795.7455, 110.9890
796.2277, 110.9380
796.7098, 110.3565
797.1919, 109.3350
797.6740, 108.2736
798.1561, 108.0600
798.6382, 108.7349
799.1204, 109.1154
799.6025, 109.0360
800.0846, 108.9667
800.5667, 109.2750
801.0488, 109.6368
801.5309, 109.3218
802.0131, 108.1541
802.4952, 107.5066
802.9773, 108.0405
803.4594, 108.4914
803.9415, 108.1570
804.4236, 107.5325
804.9058, 107.2379
805.3879, 107.3431
805.8700, 107.5024
806.3521, 107.4736
806.8342, 107.3895
807.3163, 107.5043
807.7985, 107.7513
808.2806, 107.8384
808.7627, 107.7127
809.2448, 107.4755
809.7269, 107.1657
810.2090, 106.8494
810.6912, 106.7304
811.1733, 106.8526
811.6554, 107.0708
812.1375, 107.6572
812.6196, 108.0191
813.1017, 107.8392
813.5839, 107.3531
814.0660, 106.8026
814.5481, 106.2126
815.0302, 105.8091
815.5123, 105.6682
815.9944, 105.7709
816.4766, 106.3246
816.9587, 107.0383
817.4408, 107.3119
817.9229, 107.0711
818.4050, 106.8398
818.8871, 107.1081
819.3693, 107.5944
819.8514, 107.4201
820.3335, 106.5435
820.8156, 106.0699
821.2977, 106.2905
821.7798, 106.5514
822.2620, 106.3862
822.7441, 105.9535
823.2262, 105.7109
823.7083, 105.6650
824.1904, 105.7930
824.6725, 106.5009
825.1547, 106.9344
825.6368, 106.3447
826.1189, 105.4299
826.6010, 105.2389
827.0831, 105.9036
827.5652, 106.4524
828.0474, 105.9842
828.5295, 105.2809
829.0116, 105.4361
829.4937, 106.0964
829.9758, 106.2831
830.4579, 105.8186
830.9401, 105.2845
831.4222, 105.1230
831.9043, 105.2388
832.3864, 105.3735
832.8685, 105.5492
833.3506, 105.6122
833.8328, 105.4619
834.3149, 105.3664
834.7971, 105.5463
835.2792, 105.8368
835.7613, 105.9172
836.2434, 105.7323
836.7255, 105.6440
837.2076, 105.8954
837.6898, 106.0452
838.1719, 105.8777
838.6540, 105.4897
839.1361, 104.8493
839.6182, 104.0716
840.1003, 103.6450
840.5825, 104.0665
841.0646, 104.6708
841.5467, 104.4100
842.0288, 103.5754
842.5109, 103.0938
842.9930, 103.0917
843.4752, 103.3140
843.9573, 103.6228
844.4394, 103.9915
844.9215, 104.3987
845.4036, 104.9216
845.8857, 105.0794
846.3679, 104.7281
846.8500, 104.2621
847.3321, 103.6319
847.8142, 103.0933
848.2963, 102.9253
848.7784, 103.1216
849.2606, 103.4586
849.7427, 104.1273
850.2248, 104.6413
850.7069, 104.8450
851.1890, 104.7769
851.6711, 104.3431
852.1533, 103.6757
852.6354, 103.1158
853.1175, 102.8285
853.5996, 102.6965
854.0817, 102.5276
854.5638, 102.4197
855.0460, 102.8464
855.5281, 103.7310
856.0102, 103.9574
856.4923, 103.0110
856.9744, 101.8689
857.4565, 101.8332
857.9387, 102.8545
858.4208, 103.5610
858.9029, 103.9246
859.3850, 104.0247
859.8671, 103.6591
860.3492, 103.2673
860.8314, 103.3996
861.3135, 103.7473
861.7956, 103.3684
862.2777, 101.6431
862.7598, 100.4407
863.2419, 100.4285
863.7241, 100.9138
864.2062, 101.8469
864.6883, 102.7901
865.1704, 102.9480
865.6525, 102.2059
866.1346, 101.5769
866.6168, 102.1531
867.0989, 103.0799
867.5810, 102.7959
868.0631, 101.6937
868.5452, 101.1665
869.0273, 101.4723
869.5095, 101.9890
869.9916, 102.2994
870.4737, 102.3915
870.9558, 102.1652
871.4379, 101.5176
871.9200, 101.1354
872.4022, 101.0965
872.8843, 101.2117
873.3664, 101.5372
873.8485, 101.8680
874.3306, 101.8803
874.8127, 101.5714
875.2949, 101.2166
875.7770, 100.6884
876.2591, 100.3054
876.7412, 100.3239
877.2233, 100.3963
877.7054, 100.1159
878.1876, 99.62450
878.6697, 99.40411
879.1518, 99.68302
879.6339, 100.0999
880.1160, 100.4458
880.5981, 100.7052
881.0803, 100.9088
881.5624, 101.0087
882.0445, 100.7875
882.5266, 100.1950
883.0087, 99.58519
883.4908, 99.32020
883.9730, 99.34546
884.4551, 99.52431
884.9372, 99.87775
885.4193, 99.95373
885.9014, 99.58330
886.3835, 99.24672
886.8657, 99.32853
887.3478, 99.64314
887.8299, 99.65426
888.3120, 99.12225
888.7941, 98.92951
889.2762, 99.35218
889.7584, 99.77579
890.2405, 99.81950
890.7226, 99.91147
891.2047, 100.8802
891.6868, 102.5331
892.1689, 103.0934
892.6511, 100.9230
893.1332, 98.96059
893.6153, 99.03457
894.0974, 99.81412
894.5795, 99.98696
895.0616, 99.54530
895.5438, 98.86219
896.0259, 98.08938
896.5080, 97.57718
896.9901, 97.85770
897.4722, 98.62052
897.9543, 99.30957
898.4365, 99.84672
898.9186, 99.71929
899.4007, 98.77792
899.8828, 97.87866
900.3649, 97.78548
900.8470, 98.29867
901.3292, 98.75436
901.8113, 99.20438
902.2934, 99.28884
902.7755, 98.80254
903.2576, 98.34824
903.7397, 98.25774
904.2219, 98.35124
904.7040, 98.33056
905.1861, 98.16895
905.6682, 98.10600
906.1503, 98.25931
906.6324, 98.36323
907.1146, 98.33745
907.5967, 98.25310
908.0788, 98.14523
908.5609, 98.03132
909.0430, 97.90534
909.5251, 97.70548
910.0073, 97.73243
910.4894, 98.45909
910.9715, 99.24653
911.4536, 99.37862
911.9357, 99.08448
912.4178, 98.89780
912.9000, 98.95157
913.3821, 99.04733
913.8642, 99.04871
914.3463, 98.94938
914.8284, 98.59713
915.3105, 98.11226
915.7927, 98.19251
916.2748, 98.90557
916.7569, 99.33427
917.2390, 98.93659
917.7211, 98.19739
918.2032, 97.93615
918.6854, 98.17715
919.1675, 98.28300
919.6496, 98.20094
920.1317, 98.16114
920.6138, 98.31505
921.0959, 98.38524
921.5781, 98.02708
922.0602, 97.36977
922.5423, 97.06127
923.0244, 97.36890
923.5065, 97.50786
923.9886, 97.25005
924.4708, 97.04201
924.9529, 97.14531
925.4350, 97.37284
925.9171, 97.55916
926.3992, 97.65525
926.8813, 97.48293
927.3635, 96.54353
927.8456, 95.82976
928.3277, 96.15659
928.8098, 96.83237
929.2919, 97.04958
929.7740, 96.90571
930.2562, 96.96168
930.7383, 97.44373
931.2204, 97.94972
931.7025, 98.13110
932.1846, 98.04253
932.6667, 97.58635
933.1489, 96.93567
933.6310, 96.85732
934.1132, 97.47240
934.5953, 97.99930
935.0774, 97.85184
935.5595, 97.24138
936.0416, 96.56113
936.5237, 95.80613
937.0059, 95.38091
937.4880, 95.30959
937.9701, 95.59999
938.4522, 96.41816
938.9343, 97.21128
939.4164, 97.28116
939.8986, 96.67679
940.3807, 96.24880
940.8628, 96.01748
941.3449, 95.92895
941.8270, 96.03846
942.3091, 96.22208
942.7913, 96.55561
943.2734, 96.86048
943.7555, 96.82409
944.2376, 96.39719
944.7197, 95.92635
945.2018, 95.29168
945.6840, 94.84377
946.1661, 94.87032
946.6482, 95.01743
947.1303, 94.96700
947.6124, 94.74388
948.0945, 94.49282
948.5767, 94.22009
949.0588, 94.13645
949.5409, 94.48182
950.0230, 94.98220
950.5051, 95.44784
950.9872, 95.83324
951.4694, 96.13074
951.9515, 96.31190
952.4336, 96.21667
952.9157, 95.65730
953.3978, 94.99789
953.8799, 94.73518
954.3621, 94.79749
954.8442, 95.12655
955.3263, 95.63755
955.8084, 95.83027
956.2905, 95.50611
956.7726, 95.06691
957.2548, 94.99578
957.7369, 95.16906
958.2190, 94.91220
958.7011, 94.17876
959.1832, 94.10951
959.6653, 95.03724
960.1475, 95.77032
960.6296, 95.53947
961.1117, 94.85204
961.5938, 94.63485
962.0759, 94.93059
962.5580, 95.30679
963.0402, 95.97718
963.5223, 96.25288
964.0044, 95.68531
964.4865, 95.04227
964.9686, 95.00076
965.4507, 95.33585
965.9329, 95.30035
966.4150, 94.62425
966.8971, 94.30948
967.3792, 94.71129
967.8613, 95.13173
968.3434, 95.30262
968.8256, 95.38232
969.3077, 95.53490
969.7898, 95.75623
970.2719, 95.97035
970.7540, 96.25689
971.2361, 96.31592
971.7183, 95.61928
972.2004, 95.03757
972.6825, 95.40115
973.1646, 96.28873
973.6467, 97.01047
974.1288, 97.42130
974.6110, 97.75309
975.0931, 98.19192
975.5752, 98.52087
976.0573, 98.41015
976.5394, 98.13698
977.0215, 98.03921
977.5037, 98.17369
977.9858, 98.58733
978.4679, 99.28709
978.9500, 100.1335
979.4321, 101.1018
979.9142, 102.0138
980.3964, 102.3785
980.8785, 102.3680
981.3606, 102.4192
981.8427, 102.6757
982.3248, 103.7614
982.8069, 106.0360
983.2891, 108.9146
983.7712, 111.6777
984.2533, 114.2982
984.7354, 116.5060
985.2175, 118.2762
985.6996, 120.5605
986.1818, 123.6048
986.6639, 126.9850
987.1460, 130.3905
987.6281, 133.9203
988.1102, 137.6672
988.5923, 141.5110
989.0745, 146.6622
989.5566, 153.2301
990.0387, 160.9181
990.5208, 170.0406
991.0029, 179.5157
991.4850, 188.3499
991.9672, 196.6738
992.4493, 205.0309
992.9314, 213.0138
993.4135, 221.9162
993.8956, 230.9129
994.3777, 241.8981
994.8599, 255.6205
995.3420, 271.5056
995.8241, 288.2390
996.3062, 306.4244
996.7883, 329.9204
997.2704, 358.9124
997.7526, 393.3832
998.2347, 430.3101
998.7168, 476.3537
999.1989, 532.3568
999.6810, 601.1890
1000.163, 687.2205
1000.645, 790.2332
1001.127, 902.0502
1001.609, 1036.866
1002.092, 1154.086
1002.574, 1256.507
1003.056, 1317.169
1003.538, 1311.674
1004.020, 1249.461
1004.502, 1136.203
1004.984, 979.7723
1005.466, 820.5671
1005.949, 669.5189
1006.431, 538.7350
1006.913, 439.1685
1007.395, 363.1687
1007.877, 306.7626
1008.359, 265.6821
1008.841, 234.4874
1009.323, 210.9086
1009.805, 192.3205
1010.288, 177.8919
1010.770, 166.3339
1011.252, 156.5416
1011.734, 148.4030
1012.216, 142.1824
1012.698, 137.5009
1013.180, 132.9278
1013.662, 127.9181
1014.145, 123.4010
1014.627, 120.4395
1015.109, 118.5114
1015.591, 116.8712
1016.073, 115.3711
1016.555, 113.3853
1017.037, 110.9388
1017.519, 108.7895
1018.001, 107.3272
1018.484, 106.2298
1018.966, 105.1171
1019.448, 104.0169
1019.930, 102.9371
1020.412, 101.9251
1020.894, 101.5206
1021.376, 101.8038
1021.858, 101.8269
1022.341, 101.0172
1022.823, 99.85532
1023.305, 99.12537
1023.787, 98.76165
1024.269, 98.00072
1024.751, 96.79964
1025.233, 96.07023
1025.715, 96.05312
1026.198, 96.07258
1026.680, 95.68571
1027.162, 95.12964
1027.644, 94.90099
1028.126, 95.01598
1028.608, 94.63579
1029.090, 93.56864
1029.572, 92.98356
1030.054, 93.27504
1030.536, 93.66496
1031.019, 93.62410
1031.501, 93.32494
1031.983, 93.13657
1032.465, 93.08047
1032.947, 92.97857
1033.429, 92.86150
1033.911, 92.59978
1034.393, 92.06666
1034.876, 91.54848
1035.358, 91.21831
1035.840, 91.06719
1036.322, 91.08047
1036.804, 91.27319
1037.286, 91.58577
1037.768, 92.36456
1038.250, 92.61943
1038.733, 91.76041
1039.215, 90.76997
1039.697, 90.26615
1040.179, 90.17847
1040.661, 90.39814
1041.143, 91.11562
1041.625, 91.43583
1042.107, 91.00909
1042.589, 90.66631
1043.072, 90.67446
1043.554, 90.71739
1044.036, 90.45744
1044.518, 90.09117
1045.000, 90.14637
1045.482, 90.79684
1045.964, 91.23107
1046.446, 91.30334
1046.928, 91.27782
1047.411, 91.00080
1047.893, 90.85469
1048.375, 91.34992
1048.857, 92.14232
1049.339, 92.36279
1049.821, 91.80302
1050.303, 91.33707
1050.785, 90.97940
1051.268, 90.88907
1051.750, 91.35762
1052.232, 91.89352
1052.714, 91.98772
1053.196, 91.87659
1053.678, 92.17651
1054.160, 93.05051
1054.642, 93.80484
1055.125, 94.16797
1055.607, 94.52859
1056.089, 95.00668
1056.571, 95.55764
1057.053, 96.25150
1057.535, 96.95483
1058.017, 97.33318
1058.499, 97.27813
1058.981, 97.45936
1059.464, 98.22084
1059.946, 99.07107
1060.428, 100.1258
1060.910, 100.9066
1061.392, 100.9085
1061.874, 100.3699
1062.356, 99.76887
1062.838, 99.19292
1063.320, 98.71420
1063.803, 98.46310
1064.285, 98.17847
1064.767, 97.84515
1065.249, 97.34010
1065.731, 96.40502
1066.213, 95.27694
1066.695, 94.46038
1067.177, 94.04848
1067.660, 93.51174
1068.142, 92.43087
1068.624, 91.45470
1069.106, 91.02002
1069.588, 90.69698
1070.070, 89.97819
1070.552, 89.15958
1071.034, 88.92019
1071.516, 89.33789
1071.999, 89.54454
1072.481, 88.93925
1072.963, 88.36148
1073.445, 88.30676
1073.927, 88.33304
1074.409, 88.01444
1074.891, 87.54604
1075.373, 87.29205
1075.855, 87.30064
1076.338, 87.35107
1076.820, 87.40785
1077.302, 87.40067
1077.784, 87.41399
1078.266, 87.23383
1078.748, 86.42870
1079.230, 85.45738
1079.712, 85.10622
1080.195, 85.37638
1080.677, 85.48818
1081.159, 84.95923
1081.641, 84.63657
1082.123, 85.23222
1082.605, 85.85368
1083.087, 85.69988
1083.569, 85.25991
1084.052, 85.32936
1084.534, 85.84760
1085.016, 86.00964
1085.498, 85.38789
1085.980, 84.84935
1086.462, 84.95507
1086.944, 85.06660
1087.426, 84.52013
1087.908, 83.91622
1088.391, 84.17525
1088.873, 85.07378
1089.355, 85.55282
1089.837, 85.24567
1090.319, 84.80010
1090.801, 84.21944
1091.283, 83.87843
1091.765, 84.28056
1092.248, 84.79248
1092.730, 84.69881
1093.212, 84.16399
1093.694, 83.79522
1094.176, 83.75889
1094.658, 83.66898
1095.140, 83.11033
1095.622, 82.82497
1096.104, 83.41762
1096.587, 84.18330
1097.069, 84.54424
1097.551, 84.58505
1098.033, 84.54107
1098.515, 84.44744
1098.997, 84.44697
1099.479, 84.48531
1099.961, 84.75483
1100.443, 85.76049
1100.926, 86.57719
1101.408, 86.31280
1101.890, 85.53242
1102.372, 85.15496
1102.854, 85.27265
1103.336, 85.44424
1103.818, 85.58118
1104.300, 85.75450
1104.783, 86.03498
1105.265, 86.29300
1105.747, 86.43827
1106.229, 86.53490
1106.711, 86.67827
1107.193, 86.85940
1107.675, 86.96847
1108.157, 86.89476
1108.640, 86.93590
1109.122, 87.23312
1109.604, 87.52115
1110.086, 87.42532
1110.568, 87.49314
1111.050, 88.50709
1111.532, 90.14836
1112.014, 91.13174
1112.496, 91.02778
1112.979, 91.29477
1113.461, 92.09196
1113.943, 93.12521
1114.425, 94.41381
1114.907, 95.82312
1115.389, 97.27798
1115.871, 98.77923
1116.353, 100.3320
1116.835, 101.9344
1117.318, 103.6049
1117.800, 105.4063
1118.282, 107.1398
1118.764, 108.4836
1119.246, 110.1858
1119.728, 112.5568
1120.210, 115.6352
1120.692, 119.5471
1121.175, 124.2922
1121.657, 128.9500
1122.139, 132.7066
1122.621, 138.7850
1123.103, 147.7192
1123.585, 158.2718
1124.067, 169.7768
1124.549, 182.9874
1125.031, 199.1455
1125.514, 217.4206
1125.996, 234.3787
1126.478, 250.6485
1126.960, 262.5184
1127.442, 270.5367
1127.924, 270.6029
1128.406, 260.7900
1128.888, 245.0141
1129.370, 225.4931
1129.853, 203.8469
1130.335, 183.4045
1130.817, 164.1076
1131.299, 148.3874
1131.781, 136.2065
1132.263, 126.3903
1132.745, 118.7114
1133.227, 112.5970
1133.710, 107.7670
1134.192, 103.9440
1134.674, 100.8287
1135.156, 98.37048
1135.638, 96.39823
1136.120, 94.88722
1136.602, 93.70394
1137.084, 92.79342
1137.567, 91.73877
1138.049, 90.38384
1138.531, 89.16624
1139.013, 88.54208
1139.495, 88.22319
1139.977, 87.69087
1140.459, 86.99222
1140.941, 86.12939
1141.423, 85.21944
1141.906, 84.77786
1142.388, 84.84438
1142.870, 84.73933
1143.352, 84.00207
1143.834, 83.15153
1144.316, 82.83248
1144.798, 82.76646
1145.280, 82.45123
1145.762, 82.09238
1146.245, 82.23412
1146.727, 82.77607
1147.209, 83.17606
1147.691, 83.22020
1148.173, 82.87249
1148.655, 81.68712
1149.137, 80.56696
1149.619, 80.45115
1150.102, 80.72190
1150.584, 80.70730
1151.066, 80.49025
1151.548, 80.36440
1152.030, 80.39090
1152.512, 80.49297
1152.994, 80.70656
1153.476, 80.84437
1153.958, 80.70071
1154.441, 80.57505
1154.923, 80.81715
1155.405, 81.08638
1155.887, 80.87141
1156.369, 80.29472
1156.851, 79.93273
1157.333, 79.90707
1157.815, 80.04392
1158.297, 80.53983
1158.780, 80.87572
1159.262, 80.94373
1159.744, 80.73987
1160.226, 79.92382
1160.708, 78.97405
1161.190, 78.87444
1161.672, 79.70712
1162.154, 80.23647
1162.637, 80.29191
1163.119, 80.36731
1163.601, 80.55300
1164.083, 80.65792
1164.565, 80.55714
1165.047, 80.41612
1165.529, 80.44004
1166.011, 80.55312
1166.494, 80.43188
1166.976, 80.01865
1167.458, 79.62833
1167.940, 79.22141
1168.422, 79.02288
1168.904, 79.07415
1169.386, 79.48488
1169.868, 80.43114
1170.350, 81.34251
1170.833, 81.12968
1171.315, 80.06856
1171.797, 79.84646
1172.279, 80.38396
1172.761, 80.90174
1173.243, 81.26598
1173.725, 80.97726
1174.207, 79.86541
1174.689, 78.79504
1175.172, 78.56718
1175.654, 78.79350
1176.136, 78.90257
1176.618, 78.91251
1177.100, 78.73502
1177.582, 78.52028
1178.064, 78.81706
1178.546, 79.57198
1179.029, 79.97331
1179.511, 79.60352
1179.993, 79.17264
1180.475, 79.35944
1180.957, 79.70367
1181.439, 79.84206
1181.921, 79.79834
1182.403, 79.45000
1182.885, 79.00931
1183.368, 78.95451
1183.850, 79.34666
1184.332, 79.66228
1184.814, 79.66679
1185.296, 79.59274
1185.778, 79.53221
1186.260, 79.42269
1186.742, 79.08126
1187.225, 78.78454
1187.707, 79.03564
1188.189, 79.59001
1188.671, 79.45320
1189.153, 78.18096
1189.635, 77.59281
1190.117, 78.21267
1190.599, 78.91804
1191.082, 79.89965
1191.564, 80.40865
1192.046, 79.81221
1192.528, 78.78757
1193.010, 78.22975
1193.492, 78.10017
1193.974, 78.07593
1194.456, 78.17274
1194.938, 78.31878
1195.421, 78.54320
1195.903, 78.59957
1196.385, 78.38973
1196.867, 78.15723
1197.349, 78.07084
1197.831, 78.12646
1198.313, 78.37109
1198.795, 78.74168
1199.277, 78.97144
1199.760, 79.04741
1200.242, 78.73512
1200.724, 78.13054
1201.206, 78.06580
1201.688, 78.79884
1202.170, 79.41869
1202.652, 79.12796
1203.134, 78.47611
1203.617, 77.95102
1204.099, 77.66030
1204.581, 77.99029
1205.063, 78.56542
1205.545, 78.64066
1206.027, 78.24488
1206.509, 77.91886
1206.991, 77.85018
1207.474, 77.94596
1207.956, 78.48462
1208.438, 78.74625
1208.920, 77.94749
1209.402, 77.13638
1209.884, 77.28144
1210.366, 77.89158
1210.848, 78.17247
1211.330, 78.09158
1211.813, 78.04534
1212.295, 78.23683
1212.777, 78.12244
1213.259, 77.34391
1213.741, 76.83817
1214.223, 77.00857
1214.705, 77.24391
1215.187, 77.09898
1215.669, 76.78606
1216.152, 76.70265
1216.634, 76.83169
1217.116, 76.86633
1217.598, 76.78837
1218.080, 76.89929
1218.562, 77.24724
1219.044, 77.34203
1219.526, 77.00552
1220.009, 76.61855
1220.491, 76.47684
1220.973, 76.53215
1221.455, 76.82518
1221.937, 77.19580
1222.419, 77.10410
1222.901, 76.77515
1223.383, 76.98084
1223.865, 77.59010
1224.348, 77.63260
1224.830, 76.83437
1225.312, 76.22844
1225.794, 76.69038
1226.276, 77.24873
1226.758, 77.16490
1227.240, 76.84332
1227.722, 76.43221
1228.204, 76.15067
1228.687, 76.40283
1229.169, 77.00432
1229.651, 77.28902
1230.133, 77.09745
1230.615, 76.79990
1231.097, 76.28104
1231.579, 75.93107
1232.061, 75.90504
1232.544, 75.96669
1233.026, 76.04925
1233.508, 76.12492
1233.990, 76.16025
1234.472, 76.16367
1234.954, 76.17372
1235.436, 76.19906
1235.918, 76.16184
1236.401, 76.05401
1236.883, 75.96762
1237.365, 75.92137
1237.847, 75.89010
1238.329, 75.85593
1238.811, 75.93014
1239.293, 76.30994
1239.775, 76.75974
1240.257, 76.71461
1240.740, 76.39214
1241.222, 76.26002
1241.704, 76.31557
1242.186, 76.52807
1242.668, 76.81731
1243.150, 76.92135
1243.632, 76.71894
1244.114, 76.43000
1244.596, 76.05667
1245.079, 75.82579
1245.561, 75.91650
1246.043, 76.17542
1246.525, 76.64042
1247.007, 77.08389
1247.489, 77.12260
1247.971, 76.80336
1248.453, 76.64370
1248.936, 76.78465
1249.418, 76.85049
1249.900, 76.64158
1250.382, 76.77290
1250.864, 77.59951
1251.346, 78.29875
1251.828, 78.44128
1252.310, 78.10970
1252.792, 77.27071
1253.275, 76.20351
1253.757, 76.25163
1254.239, 77.28714
1254.721, 77.61475
1255.203, 77.25368
1255.685, 77.07133
1256.167, 77.23470
1256.649, 77.33398
1257.131, 77.15453
1257.614, 76.94361
1258.096, 76.94631
1258.578, 77.04500
1259.060, 77.22446
1259.542, 77.31673
1260.024, 76.98380
1260.506, 76.47527
1260.988, 76.23961
1261.471, 76.28510
1261.953, 76.34829
1262.435, 76.38770
1262.917, 76.31381
1263.399, 75.90242
1263.881, 75.66712
1264.363, 75.86533
1264.845, 76.12984
1265.328, 76.28027
1265.810, 76.40086
1266.292, 76.59117
1266.774, 76.83150
1267.256, 77.07361
1267.738, 77.34127
1268.220, 77.31782
1268.702, 76.99406
1269.184, 76.68580
1269.667, 76.44796
1270.149, 76.12039
1270.631, 75.62936
1271.113, 75.10612
1271.595, 74.60755
1272.077, 74.31498
1272.559, 74.69413
1273.041, 75.29990
1273.523, 75.47041
1274.006, 75.36276
1274.488, 75.23840
1274.970, 75.17671
1275.452, 75.28575
1275.934, 75.59440
1276.416, 75.75231
1276.898, 75.46262
1277.380, 75.25780
1277.863, 75.35580
1278.345, 75.47719
1278.827, 75.42284
1279.309, 75.41207
1279.791, 75.69492
1280.273, 76.09718
1280.755, 76.22224
1281.237, 76.07303
1281.719, 75.88248
1282.202, 75.63479
1282.684, 75.61552
1283.166, 75.85082
1283.648, 75.81258
1284.130, 75.35053
1284.612, 75.13087
1285.094, 75.66064
1285.576, 76.18381
1286.059, 75.45397
1286.541, 74.39812
1287.023, 74.08061
1287.505, 74.53201
##END=



