##NAMES=Sulphur
##RRUFFID=R050006
##IDEAL CHEMISTRY=S
##LOCALITY=San Felipe, Mexicali, Baja California Norte, Mexico
##OWNER=RRUFF
##SOURCE=Eugene Schlepp
##DESCRIPTION=Yellow single crystal
##STATUS=The identification of this mineral has been confirmed by X-ray diffraction and chemical analysis
##URL=rruff.info/R050006
##MEASURED CHEMISTRY=S_1.00_
116.3958, 282.9246
116.8779, 287.6111
117.3600, 295.8391
117.8421, 314.5164
118.3242, 333.2079
118.8063, 343.9120
119.2885, 345.2278
119.7706, 349.0165
120.2527, 364.6555
120.7348, 387.9266
121.2169, 411.2241
121.6990, 427.8503
122.1812, 443.7517
122.6633, 465.0152
123.1454, 492.9478
123.6275, 524.8472
124.1096, 556.9263
124.5917, 590.2267
125.0739, 629.0018
125.5560, 678.2697
126.0381, 734.6386
126.5202, 792.3596
127.0023, 849.5383
127.4844, 908.1642
127.9666, 969.1565
128.4487, 1032.588
128.9308, 1104.518
129.4129, 1187.081
129.8950, 1281.721
130.3772, 1391.073
130.8593, 1514.720
131.3414, 1654.343
131.8235, 1814.043
132.3056, 1990.854
132.7877, 2193.822
133.2699, 2436.159
133.7520, 2719.838
134.2341, 3026.388
134.7162, 3349.197
135.1983, 3689.569
135.6804, 4042.623
136.1626, 4398.025
136.6447, 4774.434
137.1268, 5208.449
137.6089, 5701.533
138.0910, 6236.354
138.5731, 6784.682
139.0553, 7340.211
139.5374, 7966.000
140.0195, 8661.048
140.5016, 9429.177
140.9837, 10250.65
141.4658, 11114.90
141.9480, 12061.74
142.4301, 13107.85
142.9122, 14244.84
143.3943, 15486.77
143.8764, 16799.01
144.3585, 18174.62
144.8407, 19880.96
145.3228, 21925.61
145.8049, 24286.01
146.2870, 26955.12
146.7691, 30234.30
147.2512, 33380.14
147.7334, 36152.80
148.2155, 38441.49
148.6976, 40975.46
149.1797, 43785.79
149.6618, 46841.64
150.1439, 50072.36
150.6261, 54359.40
151.1082, 57992.78
151.5903, 60463.05
152.0724, 61432.54
152.5545, 61962.92
153.0366, 62520.66
153.5188, 62665.93
154.0009, 61539.52
154.4830, 58507.63
154.9651, 54547.11
155.4472, 50013.34
155.9293, 44577.66
156.4115, 39154.34
156.8936, 33599.46
157.3757, 28100.64
157.8578, 23214.36
158.3399, 19058.53
158.8221, 15600.86
159.3042, 12777.52
159.7863, 10820.66
160.2684, 9259.513
160.7505, 8021.763
161.2326, 7079.564
161.7148, 6310.185
162.1969, 5724.726
162.6790, 5259.093
163.1611, 4857.842
163.6432, 4522.270
164.1253, 4225.394
164.6075, 3953.530
165.0896, 3706.214
165.5717, 3490.104
166.0538, 3318.406
166.5359, 3178.695
167.0180, 3052.460
167.5002, 2931.466
167.9823, 2820.147
168.4644, 2721.022
168.9465, 2633.978
169.4286, 2561.221
169.9107, 2507.535
170.3929, 2469.759
170.8750, 2439.864
171.3571, 2417.038
171.8392, 2399.007
172.3213, 2381.848
172.8034, 2363.231
173.2856, 2352.154
173.7677, 2357.256
174.2498, 2377.164
174.7319, 2406.872
175.2140, 2443.436
175.6961, 2487.757
176.1783, 2538.626
176.6604, 2589.394
177.1425, 2657.127
177.6246, 2759.455
178.1067, 2895.451
178.5888, 3066.634
179.0710, 3282.855
179.5531, 3532.523
180.0352, 3789.663
180.5173, 4052.136
180.9994, 4312.373
181.4815, 4557.857
181.9637, 4790.336
182.4458, 4996.863
182.9279, 5163.825
183.4100, 5296.148
183.8921, 5419.219
184.3742, 5564.763
184.8564, 5695.280
185.3385, 5726.945
185.8206, 5659.769
186.3027, 5496.903
186.7848, 5206.084
187.2669, 4801.927
187.7491, 4385.841
188.2312, 3966.777
188.7133, 3563.585
189.1954, 3240.559
189.6775, 3003.698
190.1596, 2830.442
190.6418, 2698.691
191.1239, 2608.922
191.6060, 2549.523
192.0881, 2523.830
192.5702, 2528.669
193.0524, 2539.277
193.5345, 2558.263
194.0166, 2576.216
194.4987, 2575.042
194.9808, 2553.386
195.4629, 2533.032
195.9451, 2513.387
196.4272, 2494.881
196.9093, 2519.676
197.3914, 2589.878
197.8735, 2702.155
198.3556, 2849.731
198.8378, 3031.007
199.3199, 3252.734
199.8020, 3510.857
200.2841, 3800.758
200.7662, 4152.955
201.2483, 4552.632
201.7305, 5030.598
202.2126, 5683.126
202.6947, 6539.174
203.1768, 7461.754
203.6589, 8396.880
204.1410, 9347.442
204.6232, 10215.58
205.1053, 10948.23
205.5874, 11611.84
206.0695, 12406.08
206.5516, 13312.96
207.0337, 14397.86
207.5159, 15731.86
207.9980, 17314.57
208.4801, 19015.42
208.9622, 20780.57
209.4443, 22651.37
209.9264, 24774.96
210.4086, 27042.98
210.8907, 29795.80
211.3728, 33162.90
211.8549, 37037.43
212.3370, 42094.50
212.8191, 48971.32
213.3013, 57290.32
213.7834, 64426.80
214.2655, 70320.72
214.7476, 75145.33
215.2297, 78207.31
215.7118, 77610.66
216.1940, 80631.99
216.6761, 88670.47
217.1582, 101637.3
217.6403, 119173.2
218.1224, 147499.2
218.6045, 171844.5
219.0867, 176812.7
219.5688, 156243.1
220.0509, 130182.9
220.5330, 100561.8
221.0151, 66739.06
221.4972, 41705.05
221.9794, 27308.14
222.4615, 19369.97
222.9436, 13657.23
223.4257, 10836.96
223.9078, 8868.317
224.3899, 7437.339
224.8721, 6553.194
225.3542, 5840.293
225.8363, 5325.592
226.3184, 4950.179
226.8005, 4641.779
227.2827, 4411.674
227.7648, 4232.153
228.2469, 4100.014
228.7290, 4017.867
229.2111, 3966.455
229.6932, 3954.519
230.1754, 3966.787
230.6575, 3983.575
231.1396, 4001.474
231.6217, 4030.090
232.1038, 4074.776
232.5859, 4139.659
233.0681, 4198.890
233.5502, 4253.510
234.0323, 4301.560
234.5144, 4341.388
234.9965, 4375.096
235.4786, 4396.400
235.9608, 4402.991
236.4429, 4393.889
236.9250, 4372.731
237.4071, 4327.693
237.8892, 4278.121
238.3713, 4252.417
238.8535, 4245.424
239.3356, 4271.199
239.8177, 4337.889
240.2998, 4454.593
240.7819, 4575.539
241.2640, 4685.186
241.7462, 4809.999
242.2283, 4999.025
242.7104, 5275.510
243.1925, 5579.151
243.6746, 5907.103
244.1567, 6296.969
244.6389, 6588.349
245.1210, 6786.569
245.6031, 6883.744
246.0852, 6850.792
246.5673, 6626.744
247.0494, 6377.022
247.5316, 6173.336
248.0137, 6063.626
248.4958, 5835.529
248.9779, 5476.790
249.4600, 5006.955
249.9421, 4452.286
250.4243, 3734.650
250.9064, 3064.969
251.3885, 2519.571
251.8706, 2113.992
252.3527, 1778.954
252.8348, 1523.959
253.3170, 1333.736
253.7991, 1186.186
254.2812, 1095.413
254.7633, 1023.174
255.2454, 955.7296
255.7275, 891.7208
256.2097, 840.0692
256.6918, 803.1977
257.1739, 777.5782
257.6560, 757.0256
258.1381, 742.6934
258.6202, 730.9911
259.1024, 720.1814
259.5845, 709.6616
260.0666, 703.5293
260.5487, 704.2351
261.0308, 707.4778
261.5129, 704.4535
261.9951, 692.0305
262.4772, 680.8901
262.9593, 675.7268
263.4414, 677.8858
263.9235, 679.4099
264.4056, 680.0293
264.8878, 680.2822
265.3699, 681.5166
265.8520, 684.5992
266.3341, 686.1934
266.8162, 684.1519
267.2983, 677.4498
267.7805, 674.1851
268.2626, 675.6900
268.7447, 679.1896
269.2268, 679.0776
269.7089, 673.6866
270.1910, 670.7426
270.6732, 675.7700
271.1553, 690.5634
271.6374, 693.5756
272.1195, 680.6346
272.6016, 662.0214
273.0837, 656.6394
273.5659, 667.6140
274.0480, 675.6237
274.5301, 671.1771
275.0122, 653.6602
275.4943, 642.2783
275.9764, 638.2467
276.4586, 638.0660
276.9407, 637.2318
277.4228, 635.8495
277.9049, 633.0505
278.3870, 627.8056
278.8691, 620.2823
279.3513, 614.3236
279.8334, 610.0210
280.3155, 607.0483
280.7976, 605.2640
281.2798, 604.7268
281.7619, 604.3969
282.2440, 604.4030
282.7261, 604.4937
283.2082, 602.2458
283.6903, 597.1497
284.1725, 591.5910
284.6546, 588.4761
285.1367, 587.7709
285.6188, 587.8663
286.1009, 587.8121
286.5830, 588.0651
287.0652, 591.5369
287.5473, 598.7676
288.0294, 605.8036
288.5115, 607.8372
288.9936, 605.3483
289.4757, 602.0816
289.9579, 597.1044
290.4400, 592.7605
290.9221, 596.7307
291.4042, 609.4910
291.8863, 624.6292
292.3684, 636.8880
292.8506, 646.3418
293.3327, 653.3314
293.8148, 656.1876
294.2969, 657.7158
294.7790, 665.0459
295.2611, 678.2217
295.7433, 690.0812
296.2254, 690.8132
296.7075, 684.9860
297.1896, 685.9243
297.6717, 702.1459
298.1538, 723.0594
298.6360, 732.2153
299.1181, 730.3435
299.6002, 725.1028
300.0823, 720.1960
300.5644, 716.3135
301.0465, 715.2707
301.5287, 720.2450
302.0108, 724.8546
302.4929, 720.9631
302.9750, 709.6057
303.4571, 696.9475
303.9392, 684.9625
304.4214, 674.7637
304.9035, 668.0365
305.3856, 667.0046
305.8677, 666.8658
306.3498, 662.1065
306.8319, 654.3387
307.3141, 649.1786
307.7962, 652.3438
308.2783, 658.6690
308.7604, 662.7442
309.2425, 661.9527
309.7246, 661.9877
310.2068, 669.3387
310.6889, 680.7255
311.1710, 687.7368
311.6531, 681.3987
312.1352, 672.1387
312.6173, 668.0549
313.0995, 672.0641
313.5816, 676.6413
314.0637, 679.1493
314.5458, 679.7396
315.0279, 678.7417
315.5100, 673.6697
315.9922, 669.0103
316.4743, 667.8360
316.9564, 671.6620
317.4385, 674.1403
317.9206, 672.1693
318.4027, 667.8259
318.8849, 664.0126
319.3670, 663.3436
319.8491, 661.7219
320.3312, 657.5911
320.8133, 650.6082
321.2954, 642.3586
321.7776, 633.2923
322.2597, 623.0142
322.7418, 611.1028
323.2239, 594.2256
323.7060, 578.9747
324.1881, 568.0332
324.6703, 562.0032
325.1524, 553.3353
325.6345, 536.9246
326.1166, 520.2153
326.5987, 509.0990
327.0808, 510.1700
327.5630, 509.1072
328.0451, 503.4800
328.5272, 493.5327
329.0093, 484.7269
329.4914, 480.5050
329.9735, 474.5316
330.4557, 461.7567
330.9378, 432.8084
331.4199, 413.8210
331.9020, 411.1372
332.3841, 420.6169
332.8662, 421.1413
333.3484, 406.6232
333.8305, 392.3746
334.3126, 388.1159
334.7947, 399.3359
335.2768, 403.2600
335.7589, 396.3084
336.2411, 382.7967
336.7232, 373.3112
337.2053, 368.7113
337.6874, 365.8418
338.1695, 363.7823
338.6516, 362.8212
339.1338, 359.9693
339.6159, 354.4961
340.0980, 348.2396
340.5801, 344.5133
341.0622, 343.4799
341.5443, 343.1199
342.0265, 342.3237
342.5086, 341.2905
342.9907, 342.6087
343.4728, 346.9605
343.9549, 350.9402
344.4370, 348.0422
344.9192, 339.3286
345.4013, 335.2240
345.8834, 342.6279
346.3655, 356.4140
346.8476, 361.3189
347.3297, 357.0262
347.8119, 352.6004
348.2940, 359.0944
348.7761, 372.6559
349.2582, 381.1324
349.7403, 378.0328
350.2225, 371.6165
350.7046, 375.0155
351.1867, 387.0735
351.6688, 398.6330
352.1509, 401.5113
352.6331, 400.1022
353.1152, 401.2374
353.5973, 407.5145
354.0794, 414.6482
354.5615, 418.2346
355.0436, 419.4061
355.5258, 421.6088
356.0079, 426.5481
356.4900, 433.4516
356.9721, 442.1610
357.4542, 453.3892
357.9363, 463.9238
358.4185, 471.2289
358.9006, 476.6985
359.3827, 482.7444
359.8648, 490.8482
360.3469, 499.3411
360.8290, 506.1495
361.3112, 510.3102
361.7933, 519.0179
362.2754, 538.1779
362.7575, 561.7527
363.2396, 583.2704
363.7217, 599.3845
364.2039, 614.9022
364.6860, 631.8304
365.1681, 650.2943
365.6502, 665.6076
366.1323, 674.4491
366.6144, 681.7935
367.0966, 691.1342
367.5787, 708.0621
368.0608, 720.0640
368.5429, 723.4332
369.0250, 720.3411
369.5071, 722.0043
369.9893, 731.9993
370.4714, 742.5587
370.9535, 749.2408
371.4356, 747.2972
371.9177, 752.7932
372.3998, 769.9861
372.8820, 792.7147
373.3641, 806.5018
373.8462, 808.3398
374.3283, 808.9144
374.8104, 811.1760
375.2925, 814.7990
375.7747, 824.7607
376.2568, 842.1053
376.7389, 863.8737
377.2210, 888.1788
377.7031, 915.5939
378.1852, 937.0994
378.6674, 949.2067
379.1495, 953.2977
379.6316, 953.5426
380.1137, 949.2119
380.5958, 947.6301
381.0779, 957.9496
381.5601, 977.9328
382.0422, 995.5499
382.5243, 1007.805
383.0064, 1017.291
383.4885, 1029.894
383.9706, 1044.849
384.4528, 1055.664
384.9349, 1053.192
385.4170, 1044.970
385.8991, 1044.426
386.3812, 1055.414
386.8633, 1068.146
387.3455, 1073.741
387.8276, 1074.098
388.3097, 1073.626
388.7918, 1073.647
389.2739, 1074.286
389.7560, 1075.778
390.2382, 1078.191
390.7203, 1080.845
391.2024, 1080.148
391.6845, 1080.557
392.1666, 1087.247
392.6487, 1112.642
393.1309, 1134.610
393.6130, 1140.783
394.0951, 1132.745
394.5772, 1129.572
395.0593, 1137.081
395.5414, 1150.365
396.0236, 1166.324
396.5057, 1186.137
396.9878, 1206.789
397.4699, 1228.380
397.9520, 1250.600
398.4341, 1272.167
398.9163, 1290.489
399.3984, 1310.800
399.8805, 1334.509
400.3626, 1360.683
400.8447, 1393.120
401.3268, 1432.788
401.8090, 1477.980
402.2911, 1527.321
402.7732, 1580.582
403.2553, 1637.255
403.7374, 1697.011
404.2195, 1759.907
404.7017, 1826.423
405.1838, 1896.070
405.6659, 1971.574
406.1480, 2057.446
406.6301, 2154.206
407.1122, 2249.894
407.5944, 2342.349
408.0765, 2432.899
408.5586, 2524.639
409.0407, 2617.848
409.5228, 2706.305
410.0049, 2786.008
410.4871, 2856.932
410.9692, 2916.866
411.4513, 2962.796
411.9334, 3009.688
412.4155, 3077.360
412.8976, 3161.485
413.3798, 3246.536
413.8619, 3315.183
414.3440, 3388.569
414.8261, 3490.452
415.3082, 3621.864
415.7903, 3768.846
416.2725, 3929.538
416.7546, 4098.984
417.2367, 4275.123
417.7188, 4451.099
418.2009, 4635.764
418.6830, 4830.250
419.1652, 5035.906
419.6473, 5250.106
420.1294, 5478.780
420.6115, 5712.557
421.0937, 5949.498
421.5758, 6181.805
422.0579, 6423.611
422.5400, 6679.196
423.0221, 6945.207
423.5042, 7221.625
423.9864, 7498.291
424.4685, 7793.650
424.9506, 8125.246
425.4327, 8493.454
425.9148, 8833.865
426.3969, 9122.737
426.8791, 9410.674
427.3612, 9740.966
427.8433, 10126.35
428.3254, 10512.97
428.8075, 10898.28
429.2896, 11276.79
429.7718, 11624.24
430.2539, 11941.80
430.7360, 12227.20
431.2181, 12478.25
431.7002, 12694.49
432.1823, 12867.04
432.6645, 12993.24
433.1466, 13083.44
433.6287, 13149.43
434.1108, 13190.77
434.5929, 13203.66
435.0750, 13175.89
435.5572, 13122.88
436.0393, 13094.93
436.5214, 13087.94
437.0035, 13014.17
437.4856, 12827.74
437.9677, 12526.41
438.4499, 12105.96
438.9320, 11560.25
439.4141, 10903.79
439.8962, 10107.34
440.3783, 9207.588
440.8604, 8275.417
441.3426, 7268.188
441.8247, 6306.299
442.3068, 5453.967
442.7889, 4718.627
443.2710, 4091.483
443.7531, 3584.191
444.2353, 3180.198
444.7174, 2852.448
445.1995, 2621.016
445.6816, 2445.589
446.1637, 2327.728
446.6458, 2265.266
447.1280, 2230.918
447.6101, 2225.306
448.0922, 2247.326
448.5743, 2295.925
449.0564, 2371.099
449.5385, 2473.668
450.0207, 2600.275
450.5028, 2756.545
450.9849, 2951.206
451.4670, 3181.188
451.9491, 3455.055
452.4312, 3771.322
452.9134, 4132.345
453.3955, 4563.893
453.8776, 5064.097
454.3597, 5634.230
454.8418, 6254.976
455.3239, 6940.529
455.8061, 7716.296
456.2882, 8580.229
456.7703, 9565.575
457.2524, 10726.07
457.7345, 12048.49
458.2166, 13512.61
458.6988, 15109.43
459.1809, 16828.59
459.6630, 18631.87
460.1451, 20531.34
460.6272, 22533.63
461.1093, 24599.46
461.5915, 26775.46
462.0736, 29080.57
462.5557, 31440.17
463.0378, 34011.91
463.5199, 36796.97
464.0020, 39796.96
464.4842, 43133.53
464.9663, 46982.17
465.4484, 51034.14
465.9305, 55184.98
466.4126, 59883.00
466.8947, 63948.45
467.3769, 67002.80
467.8590, 69576.80
468.3411, 72493.72
468.8232, 75506.57
469.3053, 79367.52
469.7874, 84443.60
470.2696, 90675.70
470.7517, 97396.86
471.2338, 105137.2
471.7159, 111696.9
472.1980, 115640.6
472.6801, 116935.3
473.1623, 114159.7
473.6444, 106598.1
474.1265, 95908.23
474.6086, 83818.21
475.0907, 70644.10
475.5728, 58429.68
476.0550, 48073.82
476.5371, 39395.05
477.0192, 32392.97
477.5013, 27034.78
477.9834, 22771.95
478.4655, 19514.32
478.9477, 16984.05
479.4298, 14867.05
479.9119, 13152.60
480.3940, 11683.39
480.8761, 10434.03
481.3582, 9379.778
481.8404, 8467.769
482.3225, 7729.602
482.8046, 7090.654
483.2867, 6514.885
483.7688, 6001.777
484.2509, 5543.866
484.7331, 5154.345
485.2152, 4814.914
485.6973, 4502.111
486.1794, 4219.069
486.6615, 3956.154
487.1436, 3707.348
487.6258, 3476.039
488.1079, 3281.544
488.5900, 3133.600
489.0721, 2998.877
489.5542, 2857.525
490.0363, 2708.712
490.5185, 2578.043
491.0006, 2468.251
491.4827, 2373.373
491.9648, 2291.055
492.4470, 2219.616
492.9291, 2151.782
493.4112, 2089.120
493.8933, 2026.772
494.3754, 1953.748
494.8575, 1872.360
495.3397, 1801.541
495.8218, 1759.850
496.3039, 1731.185
496.7860, 1699.023
497.2681, 1660.027
497.7502, 1618.867
498.2324, 1579.627
498.7145, 1539.061
499.1966, 1491.984
499.6787, 1425.729
500.1608, 1364.438
500.6429, 1316.942
501.1251, 1282.628
501.6072, 1249.333
502.0893, 1218.727
502.5714, 1186.265
503.0535, 1148.739
503.5356, 1100.488
504.0178, 1060.885
504.4999, 1030.946
504.9820, 1009.147
505.4641, 994.9713
505.9462, 990.6965
506.4283, 981.9698
506.9105, 962.1893
507.3926, 935.4550
507.8747, 919.8474
508.3568, 915.9116
508.8389, 912.1351
509.3210, 897.6966
509.8032, 876.6839
510.2853, 859.6525
510.7674, 847.6533
511.2495, 840.8091
511.7316, 842.6055
512.2137, 849.4951
512.6959, 854.2296
513.1780, 857.0703
513.6601, 854.0710
514.1422, 837.6933
514.6243, 810.5345
515.1064, 790.1032
515.5886, 789.9845
516.0707, 793.9675
516.5528, 791.6010
517.0349, 776.0338
517.5170, 765.6471
517.9991, 767.2406
518.4813, 773.0359
518.9634, 773.0176
519.4455, 762.8681
519.9276, 754.5242
520.4097, 751.9500
520.8918, 753.5953
521.3740, 747.8900
521.8561, 732.8901
522.3382, 716.9773
522.8203, 705.8841
523.3024, 699.3728
523.7845, 691.9574
524.2667, 683.3857
524.7488, 673.5123
525.2309, 661.9377
525.7130, 648.6419
526.1951, 633.5004
526.6772, 612.8271
527.1594, 593.5422
527.6415, 586.6331
528.1236, 589.4645
528.6057, 590.2913
529.0878, 580.2847
529.5699, 567.1210
530.0521, 556.7678
530.5342, 550.5436
531.0163, 544.1931
531.4984, 536.1710
531.9805, 527.3422
532.4626, 518.5951
532.9448, 507.8061
533.4269, 499.8094
533.9090, 494.9620
534.3911, 493.2773
534.8732, 495.8936
535.3553, 506.9449
535.8375, 514.4625
536.3196, 510.4875
536.8017, 493.9141
537.2838, 489.4778
537.7659, 499.3132
538.2480, 514.1428
538.7302, 525.7952
539.2123, 534.2551
539.6944, 538.1119
540.1765, 535.6031
540.6586, 531.0603
541.1407, 530.6205
541.6229, 533.3853
542.1050, 536.0984
542.5871, 537.2886
543.0692, 537.4667
543.5513, 536.6900
544.0334, 534.9880
544.5156, 533.6625
544.9977, 534.1181
545.4798, 534.7440
545.9619, 534.2396
546.4440, 531.6213
546.9261, 528.9661
547.4083, 527.1255
547.8904, 525.2850
548.3725, 522.0257
548.8546, 516.8834
549.3367, 510.9897
549.8188, 504.1535
550.3010, 496.5743
550.7831, 491.4938
551.2652, 490.2885
551.7473, 486.9562
552.2294, 475.4228
552.7115, 456.7254
553.1937, 442.2368
553.6758, 433.5179
554.1579, 426.2642
554.6400, 415.1184
555.1221, 401.0566
555.6042, 387.0735
556.0864, 373.8542
556.5685, 361.3432
557.0506, 349.5417
557.5327, 338.4673
558.0148, 328.3878
558.4969, 319.7274
558.9791, 311.8482
559.4612, 304.6246
559.9433, 298.2534
560.4254, 291.5490
560.9075, 285.0788
561.3896, 277.7334
561.8718, 268.2750
562.3539, 253.4509
562.8360, 242.1449
563.3181, 236.0646
563.8002, 233.4913
564.2823, 230.3250
564.7645, 226.4481
565.2466, 222.6003
565.7287, 218.9076
566.2108, 215.4900
566.6929, 213.3644
567.1750, 212.6110
567.6572, 211.7167
568.1393, 209.6388
568.6214, 206.4929
569.1035, 202.0470
569.5856, 195.6388
570.0677, 190.3582
570.5499, 189.2077
571.0320, 190.7337
571.5141, 192.6125
571.9962, 195.5698
572.4783, 197.1520
572.9604, 195.7371
573.4426, 191.8479
573.9247, 188.1654
574.4068, 185.4581
574.8889, 182.7234
575.3710, 179.0297
575.8531, 173.5351
576.3353, 172.0298
576.8174, 176.2375
577.2995, 181.9003
577.7816, 184.9386
578.2637, 185.0850
578.7458, 185.3407
579.2280, 186.3029
579.7101, 187.2572
580.1922, 186.7493
580.6743, 184.9871
581.1564, 183.1442
581.6385, 182.2939
582.1207, 181.3844
582.6028, 178.3767
583.0849, 173.6445
583.5670, 169.9019
584.0491, 169.1966
584.5313, 169.8447
585.0134, 170.7630
585.4955, 172.0868
585.9776, 172.6778
586.4597, 172.1877
586.9418, 170.8222
587.4240, 168.8284
587.9061, 166.5097
588.3882, 162.8895
588.8703, 155.9556
589.3524, 148.1700
589.8345, 147.8119
590.3167, 156.8918
590.7988, 165.7975
591.2809, 171.0535
591.7630, 172.7404
592.2451, 169.3411
592.7272, 160.6226
593.2094, 152.5086
593.6915, 150.6176
594.1736, 152.6970
594.6557, 154.8808
595.1378, 156.8232
595.6199, 157.4743
596.1021, 154.1477
596.5842, 149.5187
597.0663, 147.3960
597.5485, 151.7633
598.0306, 156.0018
598.5127, 158.0266
598.9948, 158.1829
599.4769, 158.1197
599.9590, 158.2764
600.4412, 157.8493
600.9233, 156.3990
601.4054, 153.8235
601.8875, 151.4409
602.3696, 148.7431
602.8517, 147.5447
603.3339, 150.2260
603.8160, 156.4465
604.2981, 161.3622
604.7802, 164.1244
605.2623, 166.4421
605.7444, 170.6133
606.2266, 176.1129
606.7087, 181.3026
607.1908, 185.1450
607.6729, 189.0179
608.1550, 194.8155
608.6371, 201.7066
609.1193, 207.1901
609.6014, 208.8497
610.0835, 210.0328
610.5656, 211.6460
611.0477, 213.4522
611.5298, 218.5119
612.0120, 230.7649
612.4941, 242.3729
612.9762, 247.3893
613.4583, 243.2449
613.9404, 241.7684
614.4225, 243.7014
614.9047, 247.9378
615.3868, 254.0244
615.8689, 261.7312
616.3510, 267.2393
616.8331, 268.9168
617.3152, 268.5147
617.7974, 267.9902
618.2795, 267.5479
618.7616, 267.9374
619.2437, 270.0743
619.7258, 272.8201
620.2079, 276.2652
620.6901, 280.3209
621.1722, 281.6155
621.6543, 277.1538
622.1364, 270.8122
622.6185, 265.1325
623.1006, 260.8284
623.5828, 255.8449
624.0649, 249.8544
624.5470, 243.4849
625.0291, 237.2516
625.5112, 230.9457
625.9933, 225.9397
626.4755, 222.6873
626.9576, 220.6618
627.4397, 219.5946
627.9218, 219.2062
628.4039, 217.3672
628.8860, 212.0989
629.3682, 205.2412
629.8503, 199.5602
630.3324, 194.8155
630.8145, 189.2513
631.2966, 180.3863
631.7787, 171.4219
632.2609, 164.3487
632.7430, 159.2157
633.2251, 156.8190
633.7072, 158.5858
634.1893, 162.4624
634.6714, 167.3552
635.1536, 176.4145
635.6357, 178.7487
636.1178, 170.5469
636.5999, 158.4373
637.0820, 155.6469
637.5641, 162.6191
638.0463, 168.3804
638.5284, 168.5793
639.0105, 166.1175
639.4926, 167.1106
639.9747, 170.9956
640.4568, 174.4658
640.9390, 175.2115
641.4211, 174.8524
641.9032, 173.8451
642.3853, 172.2372
642.8674, 173.8204
643.3495, 183.8338
643.8317, 195.0755
644.3138, 202.5370
644.7959, 203.0949
645.2780, 204.5099
645.7601, 205.9310
646.2422, 208.9311
646.7244, 216.6995
647.2065, 230.9232
647.6886, 240.4935
648.1707, 242.3675
648.6528, 240.0557
649.1349, 240.0568
649.6171, 242.1858
650.0992, 245.0927
650.5813, 248.7421
651.0634, 252.4572
651.5455, 255.6099
652.0276, 258.1766
652.5098, 259.8721
652.9919, 260.1726
653.4740, 259.8513
653.9561, 258.7652
654.4382, 256.3636
654.9203, 256.6602
655.4025, 264.5197
655.8846, 271.6629
656.3667, 271.9680
656.8488, 262.3817
657.3309, 255.2552
657.8130, 251.5999
658.2952, 249.3436
658.7773, 245.5104
659.2594, 240.2274
659.7415, 235.2852
660.2236, 230.8307
660.7057, 227.4486
661.1879, 227.1139
661.6700, 228.6890
662.1521, 229.0003
662.6342, 225.7601
663.1163, 221.4118
663.5984, 216.9893
664.0806, 212.6256
664.5627, 208.9551
665.0448, 205.0164
665.5269, 202.9836
666.0090, 204.9617
666.4911, 212.2334
666.9733, 213.0126
667.4554, 204.3454
667.9375, 195.0421
668.4196, 192.9735
668.9017, 197.8906
669.3839, 202.0254
669.8660, 204.7275
670.3481, 206.3380
670.8302, 207.9336
671.3123, 208.6636
671.7944, 206.2578
672.2766, 197.4780
672.7587, 189.5572
673.2408, 187.3172
673.7229, 189.2875
674.2050, 192.5233
674.6871, 198.0885
675.1693, 202.8211
675.6514, 206.4768
676.1335, 208.8117
676.6156, 207.6127
677.0977, 200.3064
677.5798, 195.3867
678.0620, 197.6778
678.5441, 206.2598
679.0262, 212.1564
679.5083, 215.3566
679.9904, 216.8263
680.4725, 216.3027
680.9547, 214.8988
681.4368, 215.2213
681.9189, 217.9098
682.4010, 218.9949
682.8831, 214.5968
683.3652, 207.8158
683.8474, 201.7648
684.3295, 197.1519
684.8116, 193.2541
685.2937, 188.6781
685.7758, 185.3370
686.2579, 186.6667
686.7401, 195.7457
687.2222, 200.9970
687.7043, 200.0077
688.1864, 194.2940
688.6685, 186.3717
689.1506, 176.4196
689.6328, 167.3317
690.1149, 160.1155
690.5970, 154.6127
691.0791, 151.1995
691.5612, 149.4902
692.0433, 147.6221
692.5255, 143.7097
693.0076, 139.9653
693.4897, 137.6914
693.9718, 137.0312
694.4539, 137.4536
694.9360, 141.3757
695.4182, 144.0282
695.9003, 142.0532
696.3824, 133.3884
696.8645, 129.2942
697.3466, 130.6311
697.8287, 134.2819
698.3109, 136.5827
698.7930, 138.1115
699.2751, 142.8648
699.7572, 152.6637
700.2393, 161.4609
700.7214, 160.9970
701.2036, 155.5769
701.6857, 152.3986
702.1678, 156.0429
702.6499, 160.0058
703.1320, 161.7626
703.6141, 162.0625
704.0963, 162.8317
704.5784, 164.9568
705.0605, 166.2854
705.5426, 165.4942
706.0247, 163.6246
706.5068, 166.3922
706.9890, 174.5848
707.4711, 180.9323
707.9532, 180.6474
708.4353, 175.9623
708.9174, 171.8840
709.3995, 168.4679
709.8817, 166.4867
710.3638, 168.8239
710.8459, 171.3241
711.3280, 169.2872
711.8101, 161.4584
712.2922, 156.1617
712.7744, 159.0255
713.2565, 162.7517
713.7386, 162.1970
714.2207, 154.8214
714.7028, 150.0072
715.1849, 148.8853
715.6671, 148.2774
716.1492, 143.2973
716.6313, 134.5986
717.1134, 130.0495
717.5955, 131.8228
718.0776, 135.5324
718.5598, 137.1039
719.0419, 136.5344
719.5240, 133.7117
720.0061, 125.6768
720.4882, 118.9227
720.9703, 117.3014
721.4525, 119.0367
721.9346, 120.0949
722.4167, 120.5593
722.8988, 119.4280
723.3809, 115.9148
723.8630, 110.7206
724.3452, 106.5944
724.8273, 103.6045
725.3094, 101.2642
725.7915, 99.36780
726.2736, 97.98059
726.7557, 98.13478
727.2379, 99.46217
727.7200, 99.06441
728.2021, 91.98088
728.6842, 84.57721
729.1663, 83.20352
729.6484, 88.60168
730.1306, 91.87266
730.6127, 87.20679
731.0948, 82.45853
731.5769, 82.20056
732.0590, 87.87085
732.5411, 91.99391
733.0233, 94.24672
733.5054, 95.67706
733.9875, 98.61380
734.4696, 102.2344
734.9517, 98.34092
735.4338, 84.46789
735.9160, 72.42535
736.3981, 78.26778
736.8802, 92.41335
737.3623, 100.5501
737.8444, 96.62524
738.3266, 90.57391
738.8087, 84.07064
739.2908, 78.37839
739.7729, 75.43550
740.2551, 75.71040
740.7372, 77.93560
741.2193, 82.77148
741.7014, 88.81094
742.1835, 93.06326
742.6656, 95.49221
743.1478, 97.81297
743.6299, 101.7193
744.1120, 104.4191
744.5941, 99.25398
745.0762, 88.83089
745.5583, 81.08181
746.0405, 81.93913
746.5226, 84.76160
747.0047, 86.47781
747.4868, 87.11428
747.9689, 87.35046
748.4510, 87.05432
748.9332, 86.58546
749.4153, 85.45649
749.8974, 83.96176
750.3795, 86.53464
750.8616, 93.89098
751.3438, 99.71042
751.8259, 98.32784
752.3080, 92.80260
752.7901, 90.82708
753.2722, 92.38767
753.7543, 93.50614
754.2365, 89.82253
754.7186, 85.77547
755.2007, 85.46896
755.6828, 90.17839
756.1649, 93.61926
756.6470, 92.60814
757.1292, 91.96898
757.6113, 95.48152
758.0934, 105.3106
758.5755, 108.9490
759.0576, 105.3228
759.5397, 99.17400
760.0219, 94.44714
760.5040, 91.20405
760.9861, 90.24613
761.4682, 92.10870
761.9503, 94.00247
762.4324, 93.02802
762.9146, 91.13897
763.3967, 90.76836
763.8788, 94.59871
764.3609, 96.52955
764.8430, 93.28757
765.3251, 88.94266
765.8073, 88.21935
766.2894, 91.97687
766.7715, 96.31316
767.2536, 101.3780
767.7357, 105.4719
768.2178, 104.8724
768.7000, 100.5695
769.1821, 96.51949
769.6642, 93.07269
770.1463, 91.79919
770.6284, 97.07172
771.1105, 105.0987
771.5927, 108.5502
772.0748, 97.98287
772.5569, 91.05125
773.0390, 95.51280
773.5211, 105.7601
774.0032, 106.0877
774.4854, 92.53297
774.9675, 84.26028
775.4496, 88.60101
775.9317, 100.4807
776.4138, 108.4207
776.8959, 112.6104
777.3781, 114.4585
777.8602, 113.1368
778.3423, 111.0209
778.8244, 109.8203
779.3065, 109.4914
779.7886, 109.7220
780.2708, 109.1761
780.7529, 110.6594
781.2350, 116.5930
781.7171, 126.0364
782.1992, 128.9813
782.6813, 123.3483
783.1635, 119.4372
783.6456, 124.5373
784.1277, 135.0893
784.6098, 139.0931
785.0919, 137.0427
785.5740, 134.1137
786.0562, 131.2997
786.5383, 130.7326
787.0204, 136.4327
787.5025, 148.5002
787.9846, 155.5377
788.4667, 149.1243
788.9489, 142.5607
789.4310, 141.7365
789.9131, 147.0601
790.3952, 150.4206
790.8773, 151.5041
791.3594, 151.9629
791.8416, 152.2589
792.3237, 152.9602
792.8058, 155.7899
793.2879, 160.8328
793.7700, 166.6852
794.2521, 173.1849
794.7343, 179.5496
795.2164, 184.7544
795.6985, 188.2513
796.1806, 193.0226
796.6627, 200.7905
797.1448, 208.3821
797.6270, 213.5323
798.1091, 215.8892
798.5912, 217.8325
799.0733, 218.8257
799.5554, 222.5639
800.0375, 234.3703
800.5197, 250.9147
801.0018, 266.3535
801.4839, 279.8830
801.9660, 291.6437
802.4481, 299.4370
802.9302, 306.9114
803.4124, 317.6383
803.8945, 335.8204
804.3766, 348.0749
804.8587, 349.6417
805.3408, 351.5536
805.8229, 365.0415
806.3051, 390.0251
806.7872, 414.6712
807.2693, 438.5331
807.7514, 459.0249
808.2335, 469.1823
808.7156, 476.0273
809.1978, 491.4456
809.6799, 521.0617
810.1620, 548.6187
810.6441, 565.1581
811.1262, 577.7302
811.6083, 592.8945
812.0905, 610.8103
812.5726, 632.1858
813.0547, 658.4744
813.5368, 685.0266
814.0189, 706.4299
814.5010, 723.1280
814.9832, 738.0430
815.4653, 751.8466
815.9474, 762.3682
816.4295, 764.4968
816.9116, 763.5814
817.3937, 766.8842
817.8759, 780.8273
818.3580, 789.7611
818.8401, 788.2407
819.3222, 781.6905
819.8043, 773.8732
820.2864, 763.5059
820.7686, 758.8629
821.2507, 762.3400
821.7328, 766.7414
822.2149, 760.9055
822.6970, 748.7640
823.1791, 741.8632
823.6613, 746.2615
824.1434, 744.7232
824.6255, 720.3414
825.1076, 686.2622
825.5897, 657.4908
826.0718, 637.5213
826.5540, 622.0600
827.0361, 613.1163
827.5182, 606.0084
828.0003, 593.3048
828.4824, 575.2390
828.9645, 564.3346
829.4467, 563.5057
829.9288, 565.9849
830.4109, 563.0934
830.8930, 558.7152
831.3751, 559.7321
831.8572, 572.0124
832.3394, 580.3552
832.8215, 573.3194
833.3036, 563.1090
833.7857, 563.6008
834.2678, 579.1516
834.7499, 593.3174
835.2321, 606.1293
835.7142, 614.8529
836.1963, 610.9476
836.6784, 599.3929
837.1605, 600.4297
837.6426, 620.3788
838.1248, 641.7947
838.6069, 651.2788
839.0890, 654.7499
839.5711, 658.4700
840.0532, 663.6538
840.5353, 669.2279
841.0175, 674.8077
841.4996, 681.0518
841.9817, 689.3215
842.4638, 699.8478
842.9459, 706.8735
843.4280, 709.2883
843.9102, 711.1420
844.3923, 716.9542
844.8744, 725.1899
845.3565, 732.8228
845.8386, 738.3383
846.3207, 746.8542
846.8029, 766.3861
847.2850, 785.9314
847.7671, 795.3535
848.2492, 789.2031
848.7313, 787.0578
849.2134, 788.6310
849.6956, 795.0123
850.1777, 809.0514
850.6598, 828.9580
851.1419, 848.5266
851.6240, 867.0379
852.1061, 885.7861
852.5883, 907.8475
853.0704, 929.5432
853.5525, 946.9509
854.0346, 956.3885
854.5167, 970.0853
854.9988, 982.8912
855.4810, 1007.257
855.9631, 1063.375
856.4452, 1152.474
856.9273, 1192.734
857.4094, 1179.434
857.8915, 1155.044
858.3737, 1150.210
858.8558, 1159.663
859.3379, 1181.145
859.8200, 1215.361
860.3021, 1243.153
860.7842, 1253.165
861.2664, 1257.343
861.7485, 1259.801
862.2306, 1259.031
862.7127, 1275.598
863.1948, 1313.941
863.6769, 1350.669
864.1591, 1370.233
864.6412, 1375.787
865.1233, 1371.423
865.6054, 1358.375
866.0875, 1349.741
866.5696, 1358.437
867.0518, 1369.706
867.5339, 1375.696
868.0160, 1375.550
868.4981, 1367.607
868.9802, 1347.317
869.4623, 1328.989
869.9445, 1321.354
870.4266, 1321.170
870.9087, 1313.202
871.3908, 1297.847
871.8729, 1280.642
872.3550, 1264.526
872.8372, 1248.143
873.3193, 1231.201
873.8014, 1213.174
874.2835, 1192.208
874.7656, 1164.135
875.2477, 1137.733
875.7299, 1117.162
876.2120, 1099.568
876.6941, 1071.696
877.1762, 1033.700
877.6583, 995.2784
878.1404, 961.5545
878.6226, 929.1417
879.1047, 892.7441
879.5869, 854.1680
880.0690, 817.1766
880.5511, 783.4261
881.0332, 751.3228
881.5153, 721.5162
881.9974, 692.7475
882.4796, 661.5690
882.9617, 627.4407
883.4438, 593.3853
883.9259, 559.4522
884.4080, 527.9930
884.8901, 503.4744
885.3723, 484.5021
885.8544, 467.7876
886.3365, 452.4019
886.8186, 439.0146
887.3007, 429.9782
887.7828, 422.4437
888.2650, 411.8926
888.7471, 395.2470
889.2292, 384.5365
889.7113, 382.1501
890.1934, 382.7185
890.6755, 378.5701
891.1577, 371.5490
891.6398, 368.3705
892.1219, 371.5064
892.6040, 372.2749
893.0861, 358.2521
893.5682, 342.7716
894.0504, 339.5499
894.5325, 358.0901
895.0146, 369.3522
895.4967, 371.4467
895.9788, 369.7545
896.4609, 367.7464
896.9431, 365.6306
897.4252, 365.3538
897.9073, 367.0471
898.3894, 367.8676
898.8715, 365.7948
899.3536, 361.8369
899.8358, 355.5092
900.3179, 346.3736
900.8000, 342.1230
901.2821, 347.6653
901.7642, 351.9321
902.2463, 349.6823
902.7285, 341.7122
903.2106, 333.4258
903.6927, 324.8422
904.1748, 315.7069
904.6569, 304.2211
905.1390, 293.2197
905.6212, 285.5128
906.1033, 280.8648
906.5854, 277.5290
907.0675, 277.5235
907.5496, 275.8371
908.0317, 271.0987
908.5139, 263.9936
908.9960, 255.8987
909.4781, 246.8401
909.9602, 238.7258
910.4423, 231.8226
910.9244, 226.9701
911.4066, 227.5345
911.8887, 230.4957
912.3708, 230.2818
912.8529, 221.4459
913.3350, 213.7215
913.8171, 207.8491
914.2993, 204.6369
914.7814, 206.2963
915.2635, 213.3365
915.7456, 218.1488
916.2277, 219.2348
916.7098, 219.7611
917.1920, 222.9930
917.6741, 228.1688
918.1562, 233.9551
918.6383, 239.5010
919.1204, 247.5864
919.6025, 261.7013
920.0847, 276.5202
920.5668, 288.6837
921.0489, 298.0737
921.5310, 305.0251
922.0131, 309.0637
922.4952, 314.3469
922.9774, 325.9031
923.4595, 340.0133
923.9416, 350.4639
924.4237, 357.1993
924.9058, 365.6364
925.3879, 379.2779
925.8701, 393.9222
926.3522, 408.9267
926.8343, 423.8118
927.3164, 433.4593
927.7985, 437.3175
928.2806, 441.5947
928.7628, 450.3951
929.2449, 459.9822
929.7270, 464.2770
930.2091, 464.5396
930.6912, 464.3055
931.1733, 464.8778
931.6555, 465.3386
932.1376, 468.2657
932.6197, 469.6726
933.1018, 461.0079
933.5839, 440.3325
934.0660, 423.5497
934.5482, 413.4711
935.0303, 407.8807
935.5124, 407.6318
935.9945, 408.6376
936.4766, 402.7797
936.9587, 384.3317
937.4409, 369.5028
937.9230, 368.0856
938.4051, 368.6795
938.8872, 361.9522
939.3693, 345.8954
939.8514, 334.6758
940.3336, 329.0806
940.8157, 323.4398
941.2978, 311.9545
941.7799, 297.9315
942.2620, 286.0928
942.7441, 276.6967
943.2263, 267.5193
943.7084, 257.9699
944.1905, 248.4629
944.6726, 239.2358
945.1547, 230.2211
945.6368, 221.0829
946.1190, 211.7574
946.6011, 202.1467
947.0832, 192.3404
947.5653, 182.0476
948.0474, 167.5835
948.5295, 152.3894
949.0117, 144.4694
949.4938, 155.8454
949.9759, 162.9079
950.4580, 159.8567
950.9401, 151.4171
951.4222, 144.4827
951.9044, 139.0618
952.3865, 131.9478
952.8686, 121.6359
953.3507, 114.3488
953.8328, 121.7328
954.3149, 133.7086
954.7971, 136.5735
955.2792, 124.6009
955.7613, 115.4002
956.2434, 112.3031
956.7255, 111.8879
957.2076, 112.8721
957.6898, 115.1766
958.1719, 116.3271
958.6540, 116.3118
959.1361, 113.8204
959.6182, 105.1118
960.1003, 95.72618
960.5825, 90.61709
961.0646, 89.47643
961.5467, 89.41351
962.0288, 89.80665
962.5109, 91.61524
962.9930, 96.12394
963.4752, 101.2551
963.9573, 101.4198
964.4394, 97.17645
964.9215, 91.37820
965.4036, 82.68717
965.8857, 77.38588
966.3679, 84.95621
966.8500, 97.06259
967.3321, 102.6265
967.8142, 94.98335
968.2963, 90.12669
968.7784, 88.95865
969.2606, 88.96307
969.7427, 87.57047
970.2248, 85.24152
970.7069, 83.49128
971.1890, 82.44361
971.6711, 82.24559
972.1533, 83.90979
972.6354, 85.70602
973.1175, 86.65566
973.5996, 86.68616
974.0817, 85.15082
974.5638, 81.14021
975.0460, 78.85906
975.5281, 80.60046
976.0102, 84.65485
976.4923, 88.13869
976.9744, 90.89911
977.4565, 92.48749
977.9387, 92.34852
978.4208, 91.42476
978.9029, 89.54028
979.3850, 87.29098
979.8671, 84.95765
980.3492, 81.98833
980.8314, 83.20039
981.3135, 90.10073
981.7956, 96.80976
982.2777, 96.05435
982.7598, 91.41893
983.2419, 87.91552
983.7241, 86.40267
984.2062, 85.03386
984.6883, 81.86520
985.1704, 80.28406
985.6525, 82.51486
986.1346, 88.02780
986.6168, 91.65543
987.0989, 93.37747
987.5810, 92.57055
988.0631, 86.15158
988.5452, 79.31056
989.0273, 77.76009
989.5095, 79.68498
989.9916, 80.35974
990.4737, 75.14237
990.9558, 75.25841
991.4379, 84.87248
991.9200, 96.24902
992.4022, 95.14204
992.8843, 84.77546
993.3664, 79.72228
993.8485, 83.47848
994.3306, 87.72745
994.8127, 87.22729
995.2949, 84.35728
995.7770, 80.28743
996.2591, 74.45934
996.7412, 73.51880
997.2233, 79.10241
997.7054, 83.62056
998.1876, 80.67374
998.6697, 74.15172
999.1518, 73.22101
999.6339, 76.60543
1000.116, 79.15909
1000.598, 77.48986
1001.080, 75.86761
1001.562, 75.79417
1002.044, 76.67757
1002.527, 77.88628
1003.009, 79.54654
1003.491, 79.35184
1003.973, 76.60510
1004.455, 73.12125
1004.937, 70.17184
1005.419, 68.06892
1005.901, 67.62910
1006.384, 69.71495
1006.866, 70.13679
1007.348, 66.38329
1007.830, 64.04353
1008.312, 67.29729
1008.794, 74.80724
1009.276, 78.76019
1009.758, 79.38742
1010.240, 78.82346
1010.723, 76.92980
1011.205, 75.60319
1011.687, 76.14688
1012.169, 78.20972
1012.651, 81.18683
1013.133, 86.99565
1013.615, 87.00620
1014.097, 77.91276
1014.580, 68.02052
1015.062, 71.26883
1015.544, 81.43330
1016.026, 86.40601
1016.508, 83.22317
1016.990, 79.00770
1017.472, 75.26955
1017.954, 72.58404
1018.436, 70.94752
1018.919, 70.43974
1019.401, 74.19855
1019.883, 82.24342
1020.365, 87.14517
1020.847, 80.74595
1021.329, 72.38086
1021.811, 72.78439
1022.293, 78.44513
1022.776, 80.53608
1023.258, 72.10128
1023.740, 69.38221
1024.222, 76.27388
1024.704, 85.51501
1025.186, 86.01338
1025.668, 80.39789
1026.150, 77.64845
1026.632, 79.12628
1027.115, 81.78634
1027.597, 86.01681
1028.079, 88.86093
1028.561, 86.81907
1029.043, 80.31904
1029.525, 81.34579
1030.007, 91.37111
1030.489, 96.32309
1030.972, 86.16370
1031.454, 71.37724
1031.936, 65.50544
1032.418, 66.34264
1032.900, 69.19677
1033.382, 76.13933
1033.864, 79.97971
1034.346, 79.81301
1034.828, 76.80402
1035.311, 70.25179
1035.793, 61.32884
1036.275, 59.05279
1036.757, 64.15428
1037.239, 70.42857
1037.721, 74.97713
1038.203, 77.83874
1038.685, 78.49491
1039.167, 77.16742
1039.650, 75.62570
1040.132, 73.54427
1040.614, 72.91737
1041.096, 75.10241
1041.578, 77.93155
1042.060, 78.73015
1042.542, 77.42728
1043.024, 73.52364
1043.507, 64.11963
1043.989, 57.75892
1044.471, 57.14626
1044.953, 58.50347
1045.435, 58.66634
1045.917, 57.87870
1046.399, 59.95611
1046.881, 64.83882
1047.364, 69.92731
1047.846, 75.10851
1048.328, 78.37551
1048.810, 76.81505
1049.292, 71.88497
1049.774, 70.30474
1050.256, 73.42784
1050.738, 75.33700
1051.220, 74.90298
1051.703, 72.68217
1052.185, 67.23306
1052.667, 61.35170
1053.149, 60.29876
1053.631, 66.08832
1054.113, 72.06631
1054.595, 78.46207
1055.077, 82.21778
1055.559, 80.33298
1056.042, 74.15286
1056.524, 74.04771
1057.006, 79.17072
1057.488, 82.59580
1057.970, 78.54798
1058.452, 73.68209
1058.934, 71.82423
1059.416, 72.12601
1059.899, 73.03529
1060.381, 75.01421
1060.863, 75.20969
1061.345, 72.74460
1061.827, 71.25629
1062.309, 76.03016
1062.791, 83.44210
1063.273, 88.54266
1063.755, 90.89629
1064.238, 90.83035
1064.720, 86.83931
1065.202, 82.38897
1065.684, 78.23885
1066.166, 74.50979
1066.648, 70.83452
1067.130, 67.77979
1067.612, 68.31451
1068.094, 75.71924
1068.577, 81.29168
1069.059, 77.41163
1069.541, 70.78332
1070.023, 68.16854
1070.505, 70.60004
1070.987, 71.15115
1071.469, 69.56587
1071.951, 68.65776
1072.434, 72.22256
1072.916, 76.18662
1073.398, 73.75334
1073.880, 67.35246
1074.362, 65.69947
1074.844, 74.06177
1075.326, 81.98904
1075.808, 89.60018
1076.291, 93.98479
1076.773, 88.50419
1077.255, 76.73923
1077.737, 68.70663
1078.219, 65.93130
1078.701, 66.14481
1079.183, 71.64238
1079.665, 76.44086
1080.147, 77.62008
1080.630, 75.60152
1081.112, 72.31339
1081.594, 67.83127
1082.076, 64.50383
1082.558, 63.40771
1083.040, 63.42622
1083.522, 62.33379
1084.004, 62.29659
1084.486, 67.08702
1084.969, 81.58129
1085.451, 87.48819
1085.933, 83.20277
1086.415, 76.21238
1086.897, 70.96495
1087.379, 67.46075
1087.861, 65.91545
1088.343, 66.16473
1088.826, 67.53294
1089.308, 72.01659
1089.790, 74.43630
1090.272, 73.20870
1090.754, 70.38312
1091.236, 69.17332
1091.718, 69.20921
1092.200, 68.34668
1092.682, 66.10889
1093.165, 65.41164
1093.647, 70.56376
1094.129, 75.56576
1094.611, 76.43939
1095.093, 73.72765
1095.575, 70.71542
1096.057, 67.33832
1096.539, 65.24179
1097.022, 65.04241
1097.504, 66.42740
1097.986, 70.63742
1098.468, 75.59072
1098.950, 78.25490
1099.432, 77.24834
1099.914, 76.35037
1100.396, 75.42094
1100.879, 75.09698
1101.361, 76.74532
1101.843, 78.90678
1102.325, 78.33170
1102.807, 75.66314
1103.289, 73.41718
1103.771, 72.52527
1104.253, 72.14429
1104.735, 71.96410
1105.218, 72.34113
1105.700, 74.69414
1106.182, 78.21414
1106.664, 78.25299
1107.146, 74.24483
1107.628, 70.80785
1108.110, 70.55160
1108.592, 71.90267
1109.074, 74.61631
1109.557, 78.14218
1110.039, 80.48435
1110.521, 81.65920
1111.003, 81.58273
1111.485, 80.09301
1111.967, 77.79227
1112.449, 73.75986
1112.931, 70.12688
1113.414, 69.82767
1113.896, 74.24538
1114.378, 75.76148
1114.860, 73.88187
1115.342, 71.19516
1115.824, 68.15923
1116.306, 66.04330
1116.788, 68.26922
1117.271, 72.83085
1117.753, 75.27856
1118.235, 72.78146
1118.717, 69.96117
1119.199, 66.69536
1119.681, 63.98425
1120.163, 63.05290
1120.645, 63.43776
1121.127, 63.62786
1121.609, 63.66125
1122.092, 64.56906
1122.574, 69.19426
1123.056, 71.77509
1123.538, 69.32320
1124.020, 64.72186
1124.502, 64.14210
1124.984, 67.02654
1125.466, 68.35487
1125.949, 66.98765
1126.431, 65.98653
1126.913, 68.22324
1127.395, 70.98551
1127.877, 71.78155
1128.359, 71.04115
1128.841, 73.39039
1129.323, 79.11759
1129.806, 82.77472
1130.288, 81.94912
1130.770, 79.21674
1131.252, 76.79984
1131.734, 74.21671
1132.216, 70.41371
1132.698, 63.83166
1133.180, 61.98314
1133.662, 65.99126
1134.145, 70.04826
1134.627, 69.98537
1135.109, 68.02612
1135.591, 67.62407
1136.073, 68.18275
1136.555, 68.20298
1137.037, 65.80770
1137.519, 65.25202
1138.001, 67.38228
1138.484, 70.11285
1138.966, 71.89195
1139.448, 72.42031
1139.930, 69.48522
1140.412, 63.65903
1140.894, 60.93845
1141.376, 66.62058
1141.858, 72.28967
1142.341, 76.48160
1142.823, 78.67487
1143.305, 77.42757
1143.787, 73.28591
1144.269, 67.93228
1144.751, 61.31623
1145.233, 57.30022
1145.715, 59.57609
1146.198, 63.71499
1146.680, 67.89401
1147.162, 71.71247
1147.644, 72.13459
1148.126, 69.56813
1148.608, 69.93004
1149.090, 76.69267
1149.572, 82.61188
1150.054, 81.49207
1150.536, 77.40272
1151.019, 73.88386
1151.501, 71.00475
1151.983, 70.19810
1152.465, 71.59706
1152.947, 71.62981
1153.429, 65.83120
1153.911, 60.66322
1154.393, 64.11936
1154.876, 71.95306
1155.358, 76.80356
1155.840, 77.91005
1156.322, 76.14124
1156.804, 70.69661
1157.286, 66.85609
1157.768, 71.34593
1158.250, 78.15359
1158.733, 79.09755
1159.215, 75.58702
1159.697, 73.85999
1160.179, 76.07330
1160.661, 77.69479
1161.143, 78.65273
1161.625, 77.61028
1162.107, 70.12495
1162.589, 60.90901
1163.072, 59.34024
1163.554, 65.50890
1164.036, 68.98376
1164.518, 64.14147
1165.000, 61.91484
1165.482, 66.26601
1165.964, 72.27492
1166.446, 68.86304
1166.928, 60.65110
1167.411, 59.02348
1167.893, 67.30894
1168.375, 72.96802
1168.857, 68.90085
1169.339, 65.38898
1169.821, 67.18130
1170.303, 71.61344
1170.785, 70.04742
1171.268, 64.36126
1171.750, 60.57292
1172.232, 60.51103
1172.714, 62.80889
1173.196, 70.55826
1173.678, 76.90038
1174.160, 76.45807
1174.642, 70.74245
1175.125, 71.09879
1175.607, 76.09451
1176.089, 77.75327
1176.571, 67.68937
1177.053, 59.60553
1177.535, 62.80559
1178.017, 68.32397
1178.499, 67.17524
1178.981, 59.47002
1179.464, 55.64926
1179.946, 55.74868
1180.428, 58.13768
1180.910, 63.84032
1181.392, 69.29798
1181.874, 73.85870
1182.356, 76.34297
1182.838, 73.80657
1183.320, 65.92737
1183.803, 62.83572
1184.285, 65.43738
1184.767, 68.71724
1185.249, 69.47466
1185.731, 69.07307
1186.213, 67.44227
1186.695, 65.53605
1187.177, 66.24639
1187.660, 69.82200
1188.142, 72.40344
1188.624, 73.44524
1189.106, 72.64581
1189.588, 66.90415
1190.070, 61.54187
1190.552, 62.19855
1191.034, 67.85773
1191.516, 69.47123
1191.999, 66.37850
1192.481, 66.23067
1192.963, 71.88473
1193.445, 77.55471
1193.927, 76.87488
1194.409, 73.68526
1194.891, 71.24247
1195.373, 69.81150
1195.855, 71.87247
1196.338, 78.17605
1196.820, 81.22153
1197.302, 76.55853
1197.784, 70.60639
1198.266, 70.82215
1198.748, 73.69296
1199.230, 74.55663
1199.712, 72.32746
1200.195, 72.89300
1200.677, 77.04800
1201.159, 78.19198
1201.641, 70.11179
1202.123, 60.62488
1202.605, 59.65713
1203.087, 63.12856
1203.569, 64.08697
1204.052, 60.22920
1204.534, 58.71445
1205.016, 59.79844
1205.498, 61.62708
1205.980, 63.00976
1206.462, 64.38692
1206.944, 66.58366
1207.426, 69.13090
1207.908, 70.88178
1208.391, 71.81197
1208.873, 71.55323
1209.355, 69.72264
1209.837, 68.67590
1210.319, 72.27016
1210.801, 76.31078
1211.283, 74.74651
1211.765, 69.36075
1212.247, 67.08941
1212.730, 69.58942
1213.212, 71.57387
1213.694, 72.63212
1214.176, 72.46275
1214.658, 69.03742
1215.140, 65.48072
1215.622, 66.25704
1216.104, 70.59745
1216.587, 72.44450
1217.069, 70.07922
1217.551, 70.31533
1218.033, 74.80820
1218.515, 79.74149
1218.997, 80.67359
1219.479, 79.83005
1219.961, 79.93370
1220.443, 80.99970
1220.926, 80.01541
1221.408, 75.91925
1221.890, 74.29412
1222.372, 77.43693
1222.854, 79.94479
1223.336, 71.37325
1223.818, 61.06844
1224.300, 62.20562
1224.782, 76.68794
1225.265, 79.96141
1225.747, 68.83590
1226.229, 61.88175
1226.711, 65.89056
1227.193, 73.29329
1227.675, 76.05937
1228.157, 76.31313
1228.639, 76.59328
1229.122, 77.28996
1229.604, 75.95384
1230.086, 72.20914
1230.568, 68.76412
1231.050, 66.23212
1231.532, 65.35211
1232.014, 69.35901
1232.496, 74.18182
1232.979, 73.92542
1233.461, 67.34035
1233.943, 64.56393
1234.425, 65.90717
1234.907, 68.18615
1235.389, 70.12550
1235.871, 72.01877
1236.353, 74.87214
1236.835, 77.53271
1237.318, 78.16156
1237.800, 76.39671
1238.282, 75.75520
1238.764, 76.31628
1239.246, 76.46336
1239.728, 75.14223
1240.210, 73.25420
1240.692, 70.70681
1241.175, 68.54865
1241.657, 68.47806
1242.139, 71.08486
1242.621, 71.77496
1243.103, 70.53963
1243.585, 68.59422
1244.067, 65.24769
1244.549, 62.97187
1245.031, 64.32242
1245.514, 67.31335
1245.996, 68.66751
1246.478, 68.02926
1246.960, 72.40141
1247.442, 81.45522
1247.924, 85.78979
1248.406, 73.47022
1248.888, 61.18901
1249.370, 59.00052
1249.853, 61.95744
1250.335, 63.52827
1250.817, 63.79833
1251.299, 67.60722
1251.781, 74.68451
1252.263, 78.34026
1252.745, 68.86958
1253.227, 61.72895
1253.710, 67.03772
1254.192, 75.77251
1254.674, 75.14199
1255.156, 67.06602
1255.638, 66.66917
1256.120, 74.10303
1256.602, 79.95654
1257.084, 76.83342
1257.567, 74.16232
1258.049, 75.76888
1258.531, 78.36086
1259.013, 76.35313
1259.495, 71.45940
1259.977, 70.48869
1260.459, 73.59070
1260.941, 76.26495
1261.423, 76.57275
1261.906, 75.82485
1262.388, 73.72299
1262.870, 71.74884
1263.352, 72.82455
1263.834, 75.45110
1264.316, 76.09473
1264.798, 74.54970
1265.280, 72.62748
1265.762, 69.71326
1266.245, 68.35685
1266.727, 69.00014
1267.209, 71.38756
1267.691, 77.66362
1268.173, 84.23531
1268.655, 83.81365
1269.137, 76.33604
1269.619, 72.20243
1270.102, 74.69807
1270.584, 73.76319
1271.066, 65.73586
1271.548, 59.07550
1272.030, 69.00383
1272.512, 83.41048
1272.994, 87.14018
1273.476, 79.47419
1273.958, 73.45652
1274.441, 68.85285
1274.923, 70.25398
1275.405, 80.19312
1275.887, 89.37739
1276.369, 86.81065
1276.851, 79.84604
1277.333, 74.19674
1277.815, 70.49754
1278.297, 70.62875
1278.780, 74.90623
1279.262, 75.52583
1279.744, 69.99242
1280.226, 65.02579
1280.708, 67.21991
1281.190, 70.95557
1281.672, 71.82088
1282.154, 70.88269
1282.637, 72.57292
1283.119, 76.54809
1283.601, 79.70668
1284.083, 81.56430
1284.565, 81.52435
1285.047, 75.93723
1285.529, 72.26654
1286.011, 75.14429
1286.494, 81.56183
1286.976, 83.05595
1287.458, 80.72227
1287.940, 77.75597
1288.422, 74.58048
1288.904, 72.75807
1289.386, 72.88870
1289.868, 74.84441
1290.350, 79.65602
1290.833, 84.78564
1291.315, 83.97996
1291.797, 80.02559
1292.279, 78.65871
1292.761, 81.30227
1293.243, 82.93983
1293.725, 82.56016
1294.207, 82.37683
1294.689, 83.34507
1295.172, 84.30817
1295.654, 82.31435
1296.136, 79.97805
1296.618, 81.63811
1297.100, 88.40923
1297.582, 91.15975
1298.064, 89.49513
1298.546, 85.96503
1299.029, 80.35105
1299.511, 76.41959
1299.993, 80.52157
1300.475, 86.49825
1300.957, 88.81823
1301.439, 87.46682
1301.921, 80.55875
1302.403, 68.46076
1302.885, 63.31736
1303.368, 70.00142
1303.850, 77.34463
1304.332, 76.77673
1304.814, 75.08900
1305.296, 77.26143
1305.778, 81.42250
1306.260, 79.79821
1306.742, 74.12031
1307.224, 71.44842
1307.707, 73.90208
##END=



