##NAMES=Sulphur
##RRUFFID=R050006
##IDEAL CHEMISTRY=S
##LOCALITY=San Felipe, Mexicali, Baja California Norte, Mexico
##OWNER=RRUFF
##SOURCE=Eugene Schlepp
##DESCRIPTION=Yellow single crystal
##STATUS=The identification of this mineral has been confirmed by X-ray diffraction and chemical analysis
##URL=rruff.info/R050006
##MEASURED CHEMISTRY=S_1.00_
104.6274, 29.90431
105.1096, 27.94496
105.5917, 27.66362
106.0738, 28.09054
106.5559, 27.67862
107.0380, 25.73330
107.5201, 23.44088
108.0023, 23.24577
108.4844, 25.30228
108.9665, 27.85883
109.4486, 30.93311
109.9307, 34.12477
110.4128, 36.36340
110.8950, 37.26933
111.3771, 36.95232
111.8592, 35.58669
112.3413, 32.74135
112.8234, 30.22805
113.3055, 29.18991
113.7877, 29.53757
114.2698, 30.56137
114.7519, 32.55441
115.2340, 34.75069
115.7161, 36.24857
116.1982, 36.86258
116.6804, 37.04028
117.1625, 36.98583
117.6446, 36.60922
118.1267, 36.72343
118.6088, 37.38227
119.0909, 38.84316
119.5731, 41.69305
120.0552, 46.37066
120.5373, 51.67048
121.0194, 56.06134
121.5015, 59.83180
121.9836, 61.71646
122.4658, 59.24034
122.9479, 55.74161
123.4300, 54.55638
123.9121, 57.23923
124.3942, 62.30487
124.8763, 66.01263
125.3585, 66.85197
125.8406, 69.05032
126.3227, 73.84297
126.8048, 80.18528
127.2869, 86.61218
127.7690, 92.09757
128.2512, 97.64265
128.7333, 107.2691
129.2154, 124.8644
129.6975, 142.0680
130.1796, 155.5205
130.6617, 167.9613
131.1439, 182.6623
131.6260, 201.4101
132.1081, 224.3623
132.5902, 252.8504
133.0723, 289.1013
133.5544, 329.1830
134.0366, 371.5786
134.5187, 417.3431
135.0008, 468.4930
135.4829, 526.1829
135.9650, 590.2640
136.4471, 659.0245
136.9293, 726.3566
137.4114, 803.6736
137.8935, 898.5683
138.3756, 1006.790
138.8577, 1119.008
139.3398, 1227.875
139.8220, 1333.479
140.3041, 1449.956
140.7862, 1575.134
141.2683, 1710.108
141.7504, 1851.743
142.2325, 2001.940
142.7147, 2166.270
143.1968, 2349.897
143.6789, 2553.442
144.1610, 2773.406
144.6431, 2984.131
145.1252, 3228.914
145.6074, 3534.603
146.0895, 3899.778
146.5716, 4303.136
147.0537, 4723.465
147.5358, 5167.592
148.0179, 5681.604
148.5001, 6294.039
148.9822, 6952.456
149.4643, 7658.048
149.9464, 8407.405
150.4285, 9110.335
150.9106, 9732.144
151.3928, 10244.66
151.8749, 10548.51
152.3570, 10603.70
152.8391, 10466.89
153.3212, 10173.43
153.8033, 9724.572
154.2855, 9150.656
154.7676, 8422.658
155.2497, 7569.475
155.7318, 6727.568
156.2139, 5885.441
156.6960, 5080.354
157.1782, 4350.747
157.6603, 3699.317
158.1424, 3123.444
158.6245, 2642.691
159.1066, 2241.287
159.5887, 1898.651
160.0709, 1620.615
160.5530, 1395.670
161.0351, 1216.388
161.5172, 1088.724
161.9993, 987.0730
162.4814, 900.6892
162.9636, 827.2960
163.4457, 764.4119
163.9278, 713.7205
164.4099, 672.8448
164.8920, 639.2866
165.3741, 614.8879
165.8563, 592.9452
166.3384, 568.5177
166.8205, 543.5969
167.3026, 521.8132
167.7847, 504.9676
168.2668, 492.0013
168.7490, 480.5935
169.2311, 470.5752
169.7132, 462.5544
170.1953, 455.9741
170.6774, 451.4336
171.1595, 450.3725
171.6417, 454.5735
172.1238, 462.2106
172.6059, 469.3565
173.0880, 477.4489
173.5701, 481.8224
174.0522, 477.0062
174.5344, 468.2773
175.0165, 463.4019
175.4986, 466.8065
175.9807, 476.0609
176.4628, 484.7425
176.9449, 492.8510
177.4271, 500.3131
177.9092, 505.5647
178.3913, 510.5801
178.8734, 518.1163
179.3555, 529.8701
179.8376, 544.8055
180.3197, 560.2563
180.8019, 577.1263
181.2840, 592.8083
181.7661, 604.8364
182.2482, 615.9097
182.7303, 629.4180
183.2124, 647.2684
183.6946, 668.1892
184.1767, 689.9484
184.6588, 718.7324
185.1409, 736.2293
185.6230, 736.9293
186.1051, 726.1174
186.5873, 709.7798
187.0694, 690.6736
187.5515, 667.6091
188.0336, 635.3624
188.5157, 585.0800
188.9978, 541.4941
189.4800, 511.9276
189.9621, 489.9870
190.4442, 468.5940
190.9263, 444.7076
191.4084, 420.7255
191.8905, 402.4468
192.3727, 390.9430
192.8548, 383.9070
193.3369, 382.6135
193.8190, 383.8996
194.3011, 384.0756
194.7832, 381.6186
195.2654, 379.2997
195.7475, 382.9671
196.2296, 393.6339
196.7117, 409.2753
197.1938, 427.7760
197.6759, 451.0273
198.1581, 478.6490
198.6402, 510.8385
199.1223, 551.7703
199.6044, 609.3248
200.0865, 686.1936
200.5686, 776.8613
201.0508, 867.5878
201.5329, 976.6489
202.0150, 1122.778
202.4971, 1310.080
202.9792, 1518.314
203.4613, 1717.015
203.9435, 1904.727
204.4256, 2084.185
204.9077, 2254.056
205.3898, 2418.723
205.8719, 2577.221
206.3540, 2731.189
206.8362, 2888.520
207.3183, 3060.466
207.8004, 3245.312
208.2825, 3447.772
208.7646, 3656.903
209.2467, 3889.195
209.7289, 4140.329
210.2110, 4416.716
210.6931, 4744.686
211.1752, 5149.143
211.6573, 5618.060
212.1395, 6207.678
212.6216, 6923.767
213.1037, 7740.385
213.5858, 8630.906
214.0679, 9603.007
214.5500, 10691.00
215.0322, 11908.47
215.5143, 13228.13
215.9964, 14856.60
216.4785, 16908.74
216.9606, 19164.66
217.4427, 22021.20
217.9249, 25100.35
218.4070, 27567.12
218.8891, 28805.43
219.3712, 28819.50
219.8533, 27414.69
220.3354, 23223.20
220.8176, 18854.12
221.2997, 14602.27
221.7818, 10712.33
222.2639, 7482.886
222.7460, 5169.203
223.2281, 3706.504
223.7103, 2596.278
224.1924, 2055.397
224.6745, 1668.011
225.1566, 1401.508
225.6387, 1220.593
226.1208, 1091.435
226.6030, 998.1604
227.0851, 935.6966
227.5672, 883.2108
228.0493, 842.4274
228.5314, 810.6580
229.0135, 788.7868
229.4957, 774.5175
229.9778, 765.6810
230.4599, 761.3527
230.9420, 761.2899
231.4241, 765.2118
231.9062, 775.1238
232.3884, 785.9011
232.8705, 798.2769
233.3526, 810.3043
233.8347, 820.0642
234.3168, 826.9482
234.7989, 832.5520
235.2811, 839.9566
235.7632, 851.2006
236.2453, 859.3103
236.7274, 866.7482
237.2095, 869.3730
237.6916, 860.9808
238.1738, 841.8564
238.6559, 821.8394
239.1380, 814.5005
239.6201, 824.4800
240.1022, 829.9303
240.5843, 816.9016
241.0665, 809.9784
241.5486, 822.1102
242.0307, 853.0552
242.5128, 893.8521
242.9949, 936.9796
243.4770, 982.5027
243.9592, 1030.622
244.4413, 1086.459
244.9234, 1140.518
245.4055, 1190.758
245.8876, 1236.542
246.3697, 1277.569
246.8519, 1317.106
247.3340, 1353.127
247.8161, 1366.293
248.2982, 1357.486
248.7803, 1320.630
249.2624, 1250.895
249.7446, 1155.483
250.2267, 1044.191
250.7088, 917.5394
251.1909, 782.5967
251.6730, 657.1049
252.1551, 535.5104
252.6373, 435.5936
253.1194, 366.4074
253.6015, 317.5474
254.0836, 280.1024
254.5657, 251.9086
255.0478, 230.0409
255.5300, 209.6700
256.0121, 190.2599
256.4942, 174.6822
256.9763, 165.8555
257.4584, 160.1139
257.9406, 155.2151
258.4227, 150.7299
258.9048, 146.8072
259.3869, 143.4903
259.8690, 140.7630
260.3511, 139.0864
260.8333, 140.2669
261.3154, 140.9402
261.7975, 138.1368
262.2796, 131.9863
262.7617, 125.8530
263.2438, 121.6621
263.7260, 119.3748
264.2081, 119.0577
264.6902, 121.7701
265.1723, 124.8881
265.6544, 126.6091
266.1365, 127.1779
266.6187, 127.3015
267.1008, 127.2489
267.5829, 126.9891
268.0650, 126.3612
268.5471, 125.2308
269.0292, 124.1639
269.5114, 123.9595
269.9935, 124.0598
270.4756, 123.4386
270.9577, 121.6767
271.4398, 119.2129
271.9219, 115.7992
272.4041, 111.3554
272.8862, 108.7719
273.3683, 110.4520
273.8504, 114.5550
274.3325, 117.5215
274.8146, 119.4055
275.2968, 119.7530
275.7789, 116.9654
276.2610, 112.0003
276.7431, 109.0321
277.2252, 110.1900
277.7073, 113.1318
278.1895, 114.2212
278.6716, 113.6116
279.1537, 111.3028
279.6358, 105.4978
280.1179, 98.38378
280.6000, 93.56584
281.0822, 91.79335
281.5643, 92.57992
282.0464, 96.63721
282.5285, 104.4604
283.0106, 108.9209
283.4927, 106.5678
283.9749, 102.1851
284.4570, 99.92995
284.9391, 100.1391
285.4212, 101.1478
285.9033, 101.6003
286.3854, 101.5438
286.8676, 102.4325
287.3497, 105.7880
287.8318, 108.5334
288.3139, 108.8903
288.7960, 107.3979
289.2781, 105.5285
289.7603, 104.0371
290.2424, 102.8849
290.7245, 101.9552
291.2066, 100.1488
291.6887, 99.87740
292.1708, 103.1000
292.6530, 107.4939
293.1351, 109.8706
293.6172, 109.1464
294.0993, 107.1123
294.5814, 106.9647
295.0635, 110.0257
295.5457, 112.5881
296.0278, 114.8118
296.5099, 116.4561
296.9920, 116.9848
297.4741, 116.5589
297.9562, 116.1689
298.4384, 117.0245
298.9205, 119.5295
299.4026, 120.4255
299.8847, 117.6429
300.3668, 115.3657
300.8489, 115.4962
301.3311, 117.2621
301.8131, 118.9122
302.2953, 119.3621
302.7774, 118.6961
303.2595, 117.2183
303.7416, 113.7359
304.2237, 111.2449
304.7058, 110.6670
305.1880, 111.1414
305.6701, 112.0166
306.1522, 113.0874
306.6343, 113.7801
307.1164, 112.9595
307.5985, 110.1849
308.0807, 107.5496
308.5628, 104.7647
309.0449, 102.7170
309.5270, 102.3198
310.0091, 103.5304
310.4912, 105.1198
310.9734, 106.1631
311.4555, 106.6849
311.9376, 106.7925
312.4197, 105.8357
312.9018, 105.4566
313.3839, 107.1578
313.8661, 110.2090
314.3482, 112.7016
314.8303, 113.9856
315.3124, 114.0972
315.7945, 112.3593
316.2766, 108.2184
316.7588, 105.5626
317.2409, 108.1793
317.7230, 113.0876
318.2051, 115.2464
318.6872, 113.1076
319.1693, 109.8191
319.6515, 107.2857
320.1336, 105.4746
320.6157, 104.4838
321.0978, 104.9611
321.5799, 105.3152
322.0620, 102.0111
322.5442, 94.09109
323.0263, 88.94096
323.5084, 91.11120
323.9905, 96.15165
324.4726, 98.15653
324.9547, 96.14752
325.4369, 92.92728
325.9190, 91.16483
326.4011, 91.05019
326.8832, 90.07218
327.3653, 86.90449
327.8474, 84.11269
328.3296, 83.87325
328.8117, 85.33389
329.2938, 85.80582
329.7759, 83.63721
330.2580, 79.40054
330.7401, 75.75658
331.2223, 71.97225
331.7044, 69.69027
332.1865, 70.01230
332.6686, 71.49115
333.1507, 72.90899
333.6328, 73.79764
334.1150, 73.85757
334.5971, 72.36599
335.0792, 68.09424
335.5613, 65.67637
336.0434, 66.61260
336.5255, 67.84580
337.0077, 67.74047
337.4898, 66.48222
337.9719, 65.25384
338.4540, 65.12806
338.9361, 65.89335
339.4182, 65.46005
339.9004, 62.08186
340.3825, 60.16476
340.8646, 62.52993
341.3467, 66.36491
341.8288, 67.83193
342.3109, 65.21355
342.7931, 61.13137
343.2752, 59.70385
343.7573, 61.37347
344.2394, 62.52896
344.7215, 61.87024
345.2036, 60.73358
345.6858, 60.05981
346.1679, 59.90825
346.6500, 60.16649
347.1321, 61.00175
347.6142, 62.18833
348.0963, 63.18772
348.5785, 64.03500
349.0606, 64.40243
349.5427, 63.09463
350.0248, 60.97749
350.5069, 60.81789
350.9890, 65.25093
351.4712, 70.11604
351.9533, 71.93462
352.4354, 71.10413
352.9175, 69.58512
353.3996, 67.93225
353.8817, 66.57991
354.3639, 66.89501
354.8460, 69.52951
355.3281, 72.03249
355.8102, 74.05991
356.2923, 75.58262
356.7744, 76.25636
357.2566, 76.08772
357.7387, 76.00327
358.2208, 77.24938
358.7029, 80.41840
359.1850, 81.46381
359.6671, 78.13618
360.1493, 75.23943
360.6314, 75.14028
361.1135, 77.15418
361.5956, 79.47794
362.0777, 81.05289
362.5598, 82.18061
363.0420, 84.03082
363.5241, 87.38296
364.0062, 90.20103
364.4883, 92.41575
364.9704, 93.96559
365.4525, 94.29564
365.9347, 93.49012
366.4168, 93.03266
366.8989, 95.03415
367.3810, 99.72752
367.8631, 103.2776
368.3452, 105.6177
368.8274, 106.5763
369.3095, 105.1069
369.7916, 102.3082
370.2737, 100.8148
370.7558, 102.3832
371.2379, 105.5255
371.7201, 108.2398
372.2022, 110.6635
372.6843, 111.0686
373.1664, 106.2981
373.6485, 100.6212
374.1306, 101.0990
374.6128, 109.9438
375.0949, 117.7138
375.5770, 117.7974
376.0591, 113.6072
376.5412, 112.1951
377.0233, 115.2074
377.5055, 119.3171
377.9876, 120.9697
378.4697, 119.8207
378.9518, 120.2333
379.4339, 124.1768
379.9160, 127.9648
380.3982, 128.8836
380.8803, 127.7556
381.3624, 127.0747
381.8445, 128.1993
382.3266, 130.6551
382.8087, 133.0653
383.2909, 136.4857
383.7730, 138.3271
384.2551, 136.1882
384.7372, 133.9925
385.2193, 135.9796
385.7014, 142.1742
386.1836, 148.2631
386.6657, 149.3605
387.1478, 145.1299
387.6299, 142.3573
388.1120, 142.6841
388.5941, 142.5888
389.0763, 139.6653
389.5584, 135.8754
390.0405, 134.6379
390.5226, 137.8811
391.0047, 142.8533
391.4868, 145.1593
391.9690, 144.5320
392.4511, 143.6736
392.9332, 143.1103
393.4153, 142.7305
393.8974, 142.1009
394.3795, 141.2419
394.8617, 141.4532
395.3438, 145.0381
395.8259, 149.5308
396.3080, 150.0848
396.7901, 146.0615
397.2722, 142.1117
397.7544, 141.5312
398.2365, 143.8087
398.7186, 145.5706
399.2007, 145.6896
399.6828, 146.5381
400.1649, 149.9920
400.6471, 154.5543
401.1292, 157.2633
401.6113, 157.1448
402.0934, 156.5850
402.5755, 159.2305
403.0576, 166.3640
403.5398, 172.9174
404.0219, 179.1535
404.5040, 184.7219
404.9861, 188.9814
405.4682, 192.4308
405.9503, 196.2904
406.4325, 201.4534
406.9146, 207.3275
407.3967, 211.1690
407.8788, 209.9817
408.3609, 213.0704
408.8430, 225.9162
409.3252, 240.9637
409.8073, 252.0877
410.2894, 258.4608
410.7715, 264.0430
411.2536, 272.4165
411.7357, 282.9962
412.2179, 292.6393
412.7000, 301.1909
413.1821, 308.5925
413.6642, 311.6579
414.1463, 313.7397
414.6284, 322.2397
415.1106, 342.2783
415.5927, 364.5718
416.0748, 381.6079
416.5569, 395.2771
417.0390, 411.9622
417.5211, 434.3410
418.0033, 458.3775
418.4854, 477.5750
418.9675, 489.3942
419.4496, 505.0400
419.9317, 526.9912
420.4138, 551.0397
420.8960, 575.9059
421.3781, 600.5956
421.8602, 622.7283
422.3423, 640.4644
422.8244, 655.4482
423.3065, 674.6475
423.7887, 699.2248
424.2708, 726.7130
424.7529, 760.2964
425.2350, 794.1212
425.7171, 821.6684
426.1992, 843.0167
426.6814, 865.2840
427.1635, 897.6771
427.6456, 939.0524
428.1277, 972.0529
428.6098, 993.3397
429.0919, 1012.499
429.5741, 1033.871
430.0562, 1056.629
430.5383, 1080.191
431.0204, 1106.243
431.5025, 1129.147
431.9846, 1139.548
432.4668, 1142.115
432.9489, 1155.350
433.4310, 1186.167
433.9131, 1221.321
434.3952, 1244.576
434.8773, 1254.297
435.3595, 1267.762
435.8416, 1293.718
436.3237, 1316.502
436.8058, 1326.461
437.2879, 1325.357
437.7701, 1321.284
438.2522, 1319.118
438.7343, 1311.397
439.2164, 1278.733
439.6985, 1210.122
440.1806, 1134.789
440.6628, 1051.469
441.1449, 963.6387
441.6270, 869.3729
442.1091, 771.8048
442.5912, 678.8414
443.0733, 596.1727
443.5555, 523.3972
444.0376, 458.1433
444.5197, 398.3637
445.0018, 351.8584
445.4839, 329.7407
445.9660, 318.2896
446.4482, 304.0429
446.9303, 284.6078
447.4124, 269.0230
447.8945, 263.0077
448.3766, 264.7466
448.8587, 270.8860
449.3409, 281.0835
449.8230, 294.7801
450.3051, 311.9112
450.7872, 332.4985
451.2693, 354.9240
451.7514, 375.1175
452.2336, 401.6133
452.7157, 439.1742
453.1978, 483.9690
453.6799, 528.6280
454.1620, 571.5989
454.6441, 620.2147
455.1263, 683.5884
455.6084, 761.9787
456.0905, 853.1350
456.5726, 959.1943
457.0547, 1076.048
457.5368, 1199.386
458.0190, 1333.712
458.5011, 1486.187
458.9832, 1660.401
459.4653, 1852.349
459.9474, 2061.241
460.4295, 2286.492
460.9117, 2514.546
461.3938, 2741.074
461.8759, 2972.391
462.3580, 3212.642
462.8401, 3461.961
463.3222, 3726.869
463.8044, 4002.711
464.2865, 4301.443
464.7686, 4623.467
465.2507, 4974.548
465.7328, 5377.159
466.2149, 5841.639
466.6971, 6359.165
467.1792, 6903.888
467.6613, 7468.882
468.1434, 8086.345
468.6255, 8754.122
469.1076, 9475.534
469.5898, 10280.16
470.0719, 11139.40
470.5540, 11993.85
471.0361, 12828.82
471.5182, 13585.70
472.0003, 14135.37
472.4825, 14529.15
472.9646, 14562.35
473.4467, 14081.41
473.9288, 13284.79
474.4109, 12192.09
474.8930, 10843.67
475.3752, 9458.745
475.8573, 8086.161
476.3394, 6789.239
476.8215, 5665.062
477.3036, 4718.749
477.7857, 3926.556
478.2679, 3290.838
478.7500, 2792.762
479.2321, 2393.592
479.7142, 2111.810
480.1963, 1867.435
480.6784, 1649.524
481.1606, 1459.938
481.6427, 1305.633
482.1248, 1183.106
482.6069, 1078.445
483.0890, 980.9211
483.5711, 891.7059
484.0533, 815.4943
484.5354, 756.2766
485.0175, 704.2975
485.4996, 659.7328
485.9817, 619.6389
486.4638, 582.5317
486.9460, 547.8351
487.4281, 515.1713
487.9102, 483.8619
488.3923, 454.3304
488.8744, 427.6869
489.3565, 403.8799
489.8387, 383.7370
490.3208, 369.6123
490.8029, 358.6435
491.2850, 344.7046
491.7671, 326.7552
492.2492, 308.8611
492.7314, 290.5213
493.2135, 274.1393
493.6956, 263.1232
494.1777, 257.4276
494.6598, 254.2139
495.1419, 251.8684
495.6241, 249.8065
496.1062, 244.0175
496.5883, 230.5392
497.0704, 218.8507
497.5525, 210.1266
498.0346, 203.2493
498.5168, 197.8138
498.9989, 193.4756
499.4810, 189.2933
499.9631, 184.6281
500.4452, 179.4848
500.9273, 173.6525
501.4095, 166.7320
501.8916, 160.8280
502.3737, 157.4190
502.8558, 155.2367
503.3379, 151.9752
503.8200, 147.0466
504.3022, 143.4343
504.7843, 144.3366
505.2664, 145.9602
505.7485, 143.1026
506.2306, 135.9684
506.7127, 129.1691
507.1949, 125.8021
507.6770, 125.1462
508.1591, 124.0428
508.6412, 121.0030
509.1233, 119.7753
509.6054, 122.8795
510.0876, 125.9923
510.5697, 125.4890
511.0518, 121.6704
511.5339, 117.6060
512.0161, 115.4277
512.4982, 114.6332
512.9803, 113.7922
513.4624, 112.8019
513.9445, 112.5552
514.4266, 114.3739
514.9088, 116.1885
515.3909, 114.8984
515.8730, 110.1950
516.3551, 106.4834
516.8372, 105.5909
517.3193, 105.8940
517.8015, 106.0372
518.2836, 105.9928
518.7657, 106.2520
519.2478, 107.1494
519.7299, 108.1616
520.2120, 108.0496
520.6942, 106.5893
521.1763, 104.3571
521.6584, 100.1284
522.1405, 96.36655
522.6226, 94.70099
523.1047, 94.59531
523.5869, 94.52477
524.0690, 93.68211
524.5511, 92.47897
525.0332, 91.45882
525.5153, 90.62334
525.9974, 90.30187
526.4796, 90.81850
526.9617, 91.47906
527.4438, 92.03655
527.9259, 92.39320
528.4080, 90.84692
528.8901, 84.86328
529.3723, 79.17403
529.8544, 76.68266
530.3365, 76.47857
530.8186, 76.77724
531.3007, 76.95456
531.7828, 77.37504
532.2650, 78.71655
532.7471, 81.32384
533.2292, 82.75525
533.7113, 83.46777
534.1934, 82.33020
534.6755, 77.12028
535.1577, 70.61860
535.6398, 66.53277
536.1219, 65.98264
536.6040, 67.21498
537.0861, 68.57618
537.5682, 70.39986
538.0504, 74.65180
538.5325, 82.06347
539.0146, 87.78123
539.4967, 87.64963
539.9788, 82.96757
540.4609, 80.33164
540.9431, 80.42446
541.4252, 81.33154
541.9073, 83.58707
542.3894, 85.89085
542.8715, 87.04830
543.3536, 86.94057
543.8358, 85.99514
544.3179, 84.37868
544.8000, 82.37119
545.2821, 81.27557
545.7642, 81.41605
546.2463, 81.57324
546.7285, 80.95074
547.2106, 80.62605
547.6927, 82.10105
548.1748, 85.12594
548.6569, 86.74303
549.1390, 84.26662
549.6211, 80.71305
550.1032, 79.78574
550.5853, 80.87105
551.0674, 80.79417
551.5496, 78.08642
552.0317, 74.71230
552.5138, 74.09534
552.9959, 77.85482
553.4780, 78.82952
553.9601, 75.00103
554.4423, 70.97225
554.9244, 68.76352
555.4065, 67.51920
555.8886, 65.62502
556.3707, 62.46048
556.8528, 59.09444
557.3350, 56.63276
557.8171, 55.06502
558.2992, 54.57441
558.7813, 55.63294
559.2634, 56.31227
559.7455, 55.08335
560.2277, 52.50702
560.7098, 50.52192
561.1919, 49.42363
561.6740, 48.41450
562.1561, 46.93852
562.6382, 45.61690
563.1204, 45.24386
563.6025, 45.77443
564.0846, 46.45454
564.5667, 46.70144
565.0488, 46.73922
565.5309, 47.68121
566.0131, 50.45751
566.4952, 51.78502
566.9773, 50.28449
567.4594, 47.76395
567.9415, 44.52840
568.4236, 41.04738
568.9058, 39.05742
569.3879, 40.68976
569.8700, 42.86463
570.3521, 41.77950
570.8342, 38.51709
571.3163, 36.97431
571.7985, 38.45045
572.2806, 40.86433
572.7627, 41.72081
573.2448, 40.83799
573.7269, 40.12762
574.2090, 39.68497
574.6912, 39.28243
575.1733, 38.91807
575.6554, 38.53630
576.1375, 38.32738
576.6196, 38.23371
577.1017, 37.43253
577.5839, 34.23293
578.0660, 29.73705
578.5481, 27.89407
579.0302, 28.98496
579.5123, 30.80504
579.9944, 32.68282
580.4766, 34.42315
580.9587, 35.81178
581.4408, 37.23211
581.9229, 37.00518
582.4050, 32.48219
582.8871, 28.42579
583.3693, 28.62678
583.8514, 31.74607
584.3335, 34.64688
584.8156, 35.89106
585.2977, 35.92231
585.7798, 35.02350
586.2620, 33.01055
586.7441, 32.49034
587.2262, 34.86750
587.7083, 36.62215
588.1904, 34.28280
588.6725, 30.39259
589.1547, 29.55426
589.6368, 33.91872
590.1189, 37.23413
590.6010, 34.99008
591.0831, 30.81990
591.5652, 29.42142
592.0474, 30.97739
592.5295, 33.25629
593.0116, 34.89912
593.4937, 35.87532
593.9758, 36.02869
594.4579, 34.96962
594.9401, 34.01303
595.4222, 33.42126
595.9043, 32.81528
596.3864, 31.65856
596.8685, 30.34888
597.3506, 30.00996
597.8328, 31.61706
598.3149, 33.22401
598.7970, 32.74908
599.2791, 30.92990
599.7612, 29.38882
600.2433, 28.43031
600.7255, 28.73952
601.2076, 31.23155
601.6897, 35.48729
602.1718, 38.07601
602.6539, 37.81517
603.1360, 37.41996
603.6182, 36.89346
604.1003, 36.46377
604.5824, 36.46117
605.0645, 36.74741
605.5466, 36.75113
606.0287, 36.04805
606.5109, 35.01635
606.9930, 34.15012
607.4751, 33.44828
607.9572, 32.85151
608.4393, 32.27367
608.9214, 32.06691
609.4036, 32.59495
609.8857, 33.86609
610.3678, 35.49131
610.8499, 38.11846
611.3320, 40.23977
611.8141, 41.62665
612.2963, 42.27026
612.7784, 41.33553
613.2605, 39.31503
613.7426, 38.79185
614.2247, 42.66271
614.7068, 48.62946
615.1890, 50.55122
615.6711, 48.22789
616.1532, 46.49864
616.6353, 47.19490
617.1174, 48.15429
617.5995, 46.29047
618.0817, 41.52977
618.5638, 39.56092
619.0459, 42.98623
619.5280, 46.47773
620.0101, 48.27960
620.4922, 48.84451
620.9744, 48.67101
621.4565, 47.95422
621.9386, 46.87271
622.4207, 45.39689
622.9028, 43.76423
623.3849, 42.88394
623.8671, 42.75625
624.3492, 43.56339
624.8313, 46.35170
625.3134, 48.97325
625.7955, 48.28480
626.2776, 44.50842
626.7598, 41.56819
627.2419, 40.25938
627.7240, 39.63256
628.2061, 39.93147
628.6882, 40.33528
629.1703, 39.44630
629.6525, 37.09366
630.1346, 34.57354
630.6167, 33.07043
631.0988, 32.50862
631.5809, 32.56629
632.0630, 33.44105
632.5452, 34.19293
633.0273, 34.75383
633.5094, 34.85548
633.9915, 33.69543
634.4736, 31.38706
634.9557, 30.52298
635.4379, 33.09588
635.9200, 35.69091
636.4021, 36.52649
636.8842, 36.07786
637.3663, 34.95359
637.8484, 33.40794
638.3306, 31.75029
638.8127, 30.08398
639.2948, 28.61275
639.7769, 28.85202
640.2590, 31.34752
640.7411, 33.61567
641.2233, 34.83426
641.7054, 35.63721
642.1875, 37.00459
642.6696, 38.81815
643.1517, 39.40941
643.6339, 36.44944
644.1160, 34.30385
644.5981, 36.49589
645.0802, 40.60757
645.5623, 43.03927
646.0444, 42.99503
646.5266, 41.65686
647.0087, 39.78757
647.4908, 37.73831
647.9729, 37.50089
648.4550, 39.72118
648.9371, 41.11729
649.4193, 40.30381
649.9014, 38.97654
650.3835, 38.67983
650.8656, 39.31544
651.3477, 40.26965
651.8298, 42.66434
652.3120, 43.97025
652.7941, 41.75569
653.2762, 38.35622
653.7583, 37.01712
654.2404, 38.11361
654.7225, 39.88074
655.2047, 41.12220
655.6868, 41.63845
656.1689, 40.09516
656.6510, 35.77709
657.1331, 34.11314
657.6152, 37.87704
658.0974, 42.23314
658.5795, 42.10456
659.0616, 38.62175
659.5437, 36.82876
660.0258, 39.51282
660.5079, 41.04016
660.9901, 37.43970
661.4722, 33.05225
661.9543, 33.05764
662.4364, 37.18871
662.9185, 41.48933
663.4006, 43.47747
663.8828, 43.60870
664.3649, 42.30181
664.8470, 39.47375
665.3291, 38.13306
665.8112, 39.28105
666.2933, 40.70456
666.7755, 40.94541
667.2576, 40.09409
667.7397, 38.64264
668.2218, 35.18249
668.7039, 33.40891
669.1860, 35.90987
669.6682, 38.81724
670.1503, 38.32497
670.6324, 35.55036
671.1145, 34.68629
671.5966, 38.08887
672.0787, 42.11243
672.5609, 40.40232
673.0430, 34.10363
673.5251, 32.05612
674.0072, 35.78497
674.4893, 39.61211
674.9714, 39.97759
675.4536, 38.31592
675.9357, 38.39650
676.4178, 41.38938
676.8999, 43.57467
677.3820, 44.42767
677.8641, 44.89552
678.3463, 45.81505
678.8284, 46.57165
679.3105, 45.86321
679.7926, 43.28040
680.2747, 40.48630
680.7568, 38.98772
681.2390, 38.46641
681.7211, 38.05299
682.2032, 37.75509
682.6853, 38.65429
683.1674, 41.58432
683.6495, 44.71978
684.1317, 45.07757
684.6138, 41.99709
685.0959, 39.62729
685.5780, 38.24530
686.0601, 37.22664
686.5422, 36.17029
687.0244, 35.56089
687.5065, 36.48660
687.9886, 38.81699
688.4707, 40.07234
688.9528, 37.95597
689.4349, 34.73108
689.9171, 32.70311
690.3992, 31.71834
690.8813, 31.40352
691.3634, 31.63839
691.8455, 32.05589
692.3276, 32.33338
692.8098, 32.45034
693.2919, 32.07691
693.7740, 30.47978
694.2561, 30.04343
694.7382, 32.58326
695.2203, 35.18281
695.7025, 35.41462
696.1846, 33.94447
696.6667, 33.46329
697.1488, 35.85881
697.6309, 37.53874
698.1130, 35.63154
698.5952, 32.47113
699.0773, 30.98191
699.5594, 31.28719
700.0415, 31.89141
700.5236, 31.84212
701.0057, 31.73270
701.4879, 33.27254
701.9700, 36.63649
702.4521, 37.77473
702.9342, 35.47797
703.4163, 33.10529
703.8984, 32.43193
704.3806, 33.12490
704.8627, 34.61263
705.3448, 37.76698
705.8269, 39.18726
706.3090, 37.22723
706.7911, 34.59634
707.2733, 32.34528
707.7554, 30.73791
708.2375, 30.22194
708.7196, 30.86486
709.2017, 31.61004
709.6838, 31.45718
710.1660, 30.64597
710.6481, 29.45378
711.1302, 27.96078
711.6123, 27.43657
712.0944, 28.37762
712.5765, 30.29608
713.0587, 32.75727
713.5408, 35.81976
714.0229, 38.19650
714.5050, 40.62083
714.9871, 41.26036
715.4692, 38.21140
715.9514, 34.57736
716.4335, 33.28508
716.9156, 33.89783
717.3977, 33.41404
717.8798, 29.37965
718.3619, 25.64896
718.8441, 25.54071
719.3262, 27.71917
719.8083, 30.42370
720.2904, 33.14128
720.7725, 35.23129
721.2546, 36.29504
721.7368, 36.26625
722.2189, 34.59184
722.7010, 30.85723
723.1831, 28.44909
723.6652, 28.20609
724.1473, 28.12213
724.6295, 26.60514
725.1116, 24.70333
725.5937, 24.73917
726.0758, 27.53169
726.5579, 29.41007
727.0400, 29.18531
727.5222, 28.40683
728.0043, 27.95306
728.4864, 27.59203
728.9685, 26.37695
729.4506, 24.26102
729.9327, 23.25717
730.4149, 26.77553
730.8970, 32.05811
731.3791, 32.08868
731.8612, 27.44199
732.3433, 23.55324
732.8254, 21.99876
733.3076, 21.55325
733.7897, 20.99744
734.2718, 20.37861
734.7539, 20.28095
735.2360, 20.50578
735.7181, 21.61418
736.2003, 25.14704
736.6824, 28.18687
737.1645, 28.60532
737.6466, 27.08865
738.1287, 25.58881
738.6108, 24.36607
739.0930, 23.86293
739.5751, 25.34181
740.0572, 26.99613
740.5393, 26.08268
741.0214, 23.31473
741.5035, 21.63966
741.9857, 22.45487
742.4678, 24.37274
742.9499, 25.66584
743.4320, 26.33017
743.9141, 26.10595
744.3962, 24.70461
744.8784, 24.16899
745.3605, 25.98973
745.8426, 27.95346
746.3247, 26.52770
746.8068, 21.04563
747.2889, 18.53771
747.7711, 21.35258
748.2532, 23.89413
748.7353, 24.62539
749.2174, 24.70355
749.6995, 25.80490
750.1816, 27.41666
750.6638, 26.79679
751.1459, 21.14952
751.6280, 15.69308
752.1101, 16.58521
752.5922, 20.61369
753.0743, 21.14385
753.5565, 17.97408
754.0386, 15.71575
754.5207, 17.11897
755.0028, 20.61911
755.4849, 23.50671
755.9670, 25.85401
756.4492, 26.54665
756.9313, 24.60331
757.4134, 23.51546
757.8955, 25.60769
758.3776, 28.77887
758.8597, 29.70942
759.3419, 28.23070
759.8240, 26.81248
760.3061, 25.26726
760.7882, 24.26912
761.2703, 24.36866
761.7524, 24.94641
762.2346, 25.28503
762.7167, 25.39036
763.1988, 25.95682
763.6809, 28.00895
764.1630, 29.56240
764.6451, 26.76792
765.1273, 21.96481
765.6094, 22.09061
766.0915, 27.48498
766.5736, 31.34674
767.0557, 29.24679
767.5378, 24.12916
768.0200, 22.54456
768.5021, 25.18995
768.9842, 27.25672
769.4663, 28.76213
769.9484, 29.49224
770.4305, 29.11143
770.9127, 28.05169
771.3948, 26.72822
771.8769, 25.06444
772.3590, 24.14172
772.8411, 24.49737
773.3232, 25.13025
773.8054, 26.16607
774.2875, 26.94793
774.7696, 26.42665
775.2517, 24.87074
775.7338, 23.88603
776.2159, 24.62811
776.6981, 25.71114
777.1802, 25.35927
777.6623, 24.21589
778.1444, 23.68132
778.6265, 23.92621
779.1086, 24.80419
779.5908, 26.30076
780.0729, 27.88657
780.5550, 28.61782
781.0371, 28.46981
781.5192, 27.50186
782.0013, 25.15120
782.4835, 23.49694
782.9656, 23.64184
783.4477, 24.56869
783.9298, 24.94582
784.4119, 24.75142
784.8940, 24.99241
785.3762, 25.74857
785.8583, 26.89586
786.3404, 29.08815
786.8225, 31.11387
787.3046, 31.99850
787.7867, 31.77108
788.2689, 30.73280
788.7510, 28.61377
789.2331, 27.02608
789.7152, 28.02410
790.1973, 30.06803
790.6794, 30.46962
791.1616, 29.45984
791.6437, 29.09428
792.1258, 30.25945
792.6079, 31.72499
793.0900, 31.64795
793.5721, 30.25957
794.0543, 30.09735
794.5364, 31.46527
795.0185, 31.91656
795.5006, 30.07729
795.9827, 28.57440
796.4648, 30.31369
796.9470, 34.92345
797.4291, 38.32859
797.9112, 40.96442
798.3933, 41.68481
798.8754, 38.70016
799.3575, 35.50800
799.8397, 33.62345
800.3218, 33.11797
800.8039, 34.03851
801.2860, 36.55482
801.7681, 39.34979
802.2502, 42.85577
802.7324, 45.38526
803.2145, 44.21666
803.6966, 41.28928
804.1787, 40.34830
804.6608, 42.25645
805.1429, 45.32627
805.6251, 48.42676
806.1072, 51.35591
806.5893, 53.91728
807.0714, 56.00798
807.5535, 56.25414
808.0356, 54.26449
808.5178, 53.16639
808.9999, 55.22588
809.4820, 59.17065
809.9641, 61.64522
810.4462, 61.94281
810.9283, 63.46656
811.4105, 67.19419
811.8926, 70.57396
812.3747, 72.82119
812.8568, 74.07652
813.3389, 74.02296
813.8210, 72.68521
814.3032, 72.44431
814.7853, 74.65790
815.2674, 76.73265
815.7495, 77.62527
816.2316, 78.12009
816.7137, 78.79069
817.1959, 79.74313
817.6780, 81.02667
818.1601, 82.72380
818.6422, 84.46494
819.1243, 86.22379
819.6064, 87.68269
820.0886, 88.22717
820.5707, 88.00436
821.0528, 87.84244
821.5349, 87.98698
822.0170, 87.26470
822.4991, 83.96257
822.9813, 78.93162
823.4634, 76.02142
823.9455, 75.32951
824.4276, 74.14359
824.9097, 71.63103
825.3918, 69.80098
825.8740, 70.76429
826.3561, 73.11435
826.8382, 71.73111
827.3203, 62.77579
827.8024, 59.01731
828.2845, 65.17567
828.7667, 70.77477
829.2488, 71.70301
829.7309, 70.27789
830.2130, 69.20879
830.6951, 68.66840
831.1772, 67.37594
831.6594, 63.59479
832.1415, 60.75227
832.6236, 61.49511
833.1057, 63.03419
833.5878, 61.73112
834.0699, 58.52036
834.5521, 57.49891
835.0342, 60.77002
835.5163, 65.05463
835.9984, 67.58777
836.4805, 69.02336
836.9626, 70.30937
837.4448, 71.50259
837.9269, 72.57597
838.4090, 73.50583
838.8911, 74.14578
839.3732, 74.43822
839.8553, 74.22588
840.3375, 71.96484
840.8196, 67.54448
841.3017, 67.83672
841.7838, 75.24228
842.2659, 81.39516
842.7480, 80.04637
843.2302, 74.32787
843.7123, 72.29145
844.1944, 75.44971
844.6765, 77.18700
845.1586, 76.25201
845.6407, 75.75916
846.1229, 76.57176
846.6050, 78.44284
847.0871, 82.02821
847.5692, 87.00154
848.0513, 89.61098
848.5334, 87.93752
849.0156, 85.76747
849.4977, 83.06177
849.9798, 81.18726
850.4619, 81.25420
850.9440, 82.96587
851.4261, 86.07022
851.9083, 90.68418
852.3904, 93.82927
852.8725, 91.73981
853.3546, 88.76305
853.8367, 90.14280
854.3188, 94.02310
854.8010, 96.03101
855.2831, 95.59306
855.7652, 95.69289
856.2473, 98.65511
856.7294, 102.9657
857.2115, 106.1193
857.6937, 108.2839
858.1758, 110.0059
858.6579, 111.3785
859.1400, 113.4461
859.6221, 116.8351
860.1042, 120.2025
860.5864, 121.6351
861.0685, 121.1718
861.5506, 120.0305
862.0327, 117.9975
862.5148, 116.0040
862.9969, 113.7936
863.4791, 112.5570
863.9612, 113.5409
864.4433, 116.1576
864.9254, 118.3072
865.4075, 120.1920
865.8896, 121.1856
866.3718, 120.0287
866.8539, 119.5271
867.3360, 121.2126
867.8181, 123.7079
868.3002, 125.5464
868.7823, 126.6346
869.2645, 127.4530
869.7466, 129.0430
870.2287, 129.1866
870.7108, 124.9596
871.1929, 120.6463
871.6750, 121.2900
872.1572, 124.8053
872.6393, 125.6691
873.1214, 121.9765
873.6035, 117.2113
874.0856, 112.4932
874.5677, 109.1571
875.0499, 110.4635
875.5320, 113.7716
876.0141, 112.9930
876.4962, 107.5928
876.9783, 102.4317
877.4604, 101.0148
877.9426, 100.6534
878.4247, 96.31622
878.9068, 89.35353
879.3889, 84.93213
879.8710, 83.27570
880.3531, 82.47585
880.8353, 81.83752
881.3174, 80.84559
881.7995, 78.72384
882.2816, 75.76833
882.7637, 74.16985
883.2458, 74.29800
883.7280, 72.78116
884.2101, 68.45284
884.6922, 64.66525
885.1743, 64.24634
885.6564, 65.02895
886.1385, 61.92464
886.6207, 53.55725
887.1028, 47.53681
887.5849, 44.02570
888.0670, 42.67329
888.5491, 45.03792
889.0313, 48.09402
889.5134, 49.49157
889.9955, 49.37711
890.4776, 48.39024
890.9597, 45.67226
891.4418, 43.72315
891.9240, 42.69811
892.4061, 42.71312
892.8882, 44.63836
893.3703, 47.19964
893.8524, 49.15503
894.3345, 50.19378
894.8167, 49.32682
895.2988, 43.81263
895.7809, 39.14986
896.2630, 38.87283
896.7451, 40.44237
897.2272, 42.16222
897.7094, 43.23439
898.1915, 42.13867
898.6736, 38.31097
899.1557, 34.93319
899.6378, 34.77707
900.1199, 36.30791
900.6021, 38.11116
901.0842, 39.97636
901.5663, 41.82758
902.0484, 43.46696
902.5305, 44.14018
903.0126, 43.34975
903.4948, 41.52874
903.9769, 38.18390
904.4590, 34.48810
904.9411, 35.41835
905.4232, 40.29849
905.9053, 42.29661
906.3875, 39.21604
906.8696, 35.52549
907.3517, 35.76107
907.8338, 38.28264
908.3159, 37.16792
908.7980, 32.37747
909.2802, 30.13327
909.7623, 31.38600
910.2444, 32.84736
910.7265, 32.91092
911.2086, 32.48249
911.6907, 33.06001
912.1729, 34.60475
912.6550, 34.05864
913.1371, 30.45441
913.6192, 27.75632
914.1013, 26.41017
914.5834, 26.58366
915.0656, 28.96624
915.5477, 32.59081
916.0298, 35.33270
916.5119, 37.22318
916.9940, 38.10620
917.4761, 37.58366
917.9583, 36.61401
918.4404, 33.98845
918.9225, 32.22348
919.4046, 33.95552
919.8867, 38.26591
920.3688, 41.87321
920.8510, 45.49960
921.3331, 46.28307
921.8152, 40.52967
922.2973, 35.64316
922.7794, 35.02467
923.2615, 37.11582
923.7437, 41.11116
924.2258, 46.26385
924.7079, 49.15048
925.1900, 47.04957
925.6721, 45.35166
926.1542, 47.13588
926.6364, 49.34722
927.1185, 49.23495
927.6006, 47.90414
928.0827, 47.12400
928.5648, 47.43004
929.0469, 49.51208
929.5291, 56.54812
930.0112, 62.26291
930.4933, 60.66653
930.9754, 55.94041
931.4575, 52.75947
931.9396, 51.33696
932.4218, 50.56232
932.9039, 49.99823
933.3860, 49.21065
933.8681, 46.59550
934.3502, 44.53938
934.8323, 48.23402
935.3145, 54.13779
935.7966, 54.02278
936.2787, 47.94960
936.7608, 42.27604
937.2429, 40.35889
937.7250, 40.37002
938.2072, 40.48201
938.6893, 40.69505
939.1714, 40.90743
939.6535, 41.21329
940.1356, 42.29805
940.6177, 44.16153
941.0999, 45.40019
941.5820, 45.07880
942.0641, 43.29119
942.5462, 39.24363
943.0283, 33.73835
943.5104, 31.47169
943.9926, 32.37092
944.4747, 32.71519
944.9568, 31.34914
945.4389, 29.58916
945.9210, 28.51855
946.4031, 28.17143
946.8853, 29.17212
947.3674, 31.50325
947.8495, 31.31769
948.3316, 28.09963
948.8137, 25.59528
949.2958, 25.31002
949.7780, 26.00985
950.2601, 26.46522
950.7422, 26.61645
951.2243, 25.84692
951.7064, 23.77090
952.1885, 23.62117
952.6707, 26.43503
953.1528, 28.36356
953.6349, 27.43512
954.1170, 25.06338
954.5991, 22.83281
955.0812, 20.82996
955.5634, 20.92824
956.0455, 24.11735
956.5276, 26.35404
957.0097, 27.01011
957.4918, 26.98645
957.9739, 26.75126
958.4561, 26.11469
958.9382, 24.50745
959.4203, 21.74090
959.9024, 20.72220
960.3845, 22.58234
960.8666, 23.95362
961.3488, 24.55312
961.8309, 24.23126
962.3130, 21.95491
962.7951, 19.16865
963.2772, 18.84051
963.7593, 21.45025
964.2415, 23.97165
964.7236, 27.54810
965.2057, 29.37115
965.6878, 26.73108
966.1699, 24.38203
966.6520, 27.03446
967.1342, 31.83516
967.6163, 31.64850
968.0984, 24.33732
968.5805, 20.01914
969.0626, 21.83000
969.5447, 23.11422
970.0269, 21.61032
970.5090, 19.52489
970.9911, 18.55394
971.4732, 18.35483
971.9553, 17.55511
972.4374, 15.08137
972.9196, 15.42074
973.4017, 23.51131
973.8838, 28.99398
974.3659, 25.68569
974.8480, 20.35831
975.3301, 19.11313
975.8123, 20.99433
976.2944, 21.95290
976.7765, 21.03510
977.2586, 20.24607
977.7407, 20.19419
978.2228, 20.16224
978.7050, 20.29298
979.1871, 19.94090
979.6692, 17.53245
980.1513, 14.06920
980.6334, 13.36962
981.1155, 17.70422
981.5977, 20.24790
982.0798, 16.57177
982.5619, 13.42816
983.0440, 15.39916
983.5261, 18.88444
984.0082, 19.40307
984.4904, 17.54934
984.9725, 17.32224
985.4546, 20.53350
985.9367, 23.14409
986.4188, 24.35023
986.9009, 23.82423
987.3831, 19.55286
987.8652, 14.69600
988.3473, 12.91976
988.8294, 14.14478
989.3115, 16.26754
989.7936, 19.07923
990.2758, 21.47525
990.7579, 23.68100
991.2400, 24.56894
991.7221, 21.48580
992.2042, 17.94065
992.6863, 19.41475
993.1685, 24.84244
993.6506, 27.11955
994.1327, 22.58297
994.6148, 18.54747
995.0969, 18.90785
995.5790, 20.17324
996.0612, 19.69647
996.5433, 18.89414
997.0254, 20.22417
997.5075, 23.26338
997.9896, 24.88893
998.4717, 23.36708
998.9539, 22.36117
999.4360, 24.69918
999.9181, 26.92608
1000.400, 26.55672
1000.882, 24.68080
1001.364, 22.27016
1001.847, 19.81547
1002.329, 18.22750
1002.811, 17.64697
1003.293, 18.50501
1003.775, 23.37822
1004.257, 27.19645
1004.739, 25.44724
1005.221, 21.22051
1005.703, 17.64096
1006.186, 15.52289
1006.668, 15.84239
1007.150, 19.91500
1007.632, 23.10856
1008.114, 23.00943
1008.596, 21.67279
1009.078, 19.18569
1009.560, 17.07198
1010.043, 17.15604
1010.525, 19.27059
1011.007, 22.36148
1011.489, 26.94202
1011.971, 29.38868
1012.453, 26.43222
1012.935, 22.84870
1013.417, 21.24499
1013.899, 20.82263
1014.382, 20.60764
1014.864, 20.60684
1015.346, 21.64699
1015.828, 24.65797
1016.310, 25.62440
1016.792, 20.60077
1017.274, 15.96949
1017.756, 15.31834
1018.239, 16.70569
1018.721, 18.88749
1019.203, 21.13437
1019.685, 22.05277
1020.167, 21.09287
1020.649, 19.98007
1021.131, 18.59616
1021.613, 18.02358
1022.095, 20.47487
1022.578, 22.50400
1023.060, 19.60011
1023.542, 13.90113
1024.024, 11.45153
1024.506, 13.88315
1024.988, 16.09431
1025.470, 16.23277
1025.952, 16.62651
1026.435, 19.00099
1026.917, 21.16417
1027.399, 20.91555
1027.881, 19.21029
1028.363, 18.18098
1028.845, 18.12545
1029.327, 18.55273
1029.809, 20.46517
1030.292, 21.33675
1030.774, 19.34665
1031.256, 17.25094
1031.738, 16.60129
1032.220, 17.27858
1032.702, 19.52686
1033.184, 23.61281
1033.666, 25.49286
1034.148, 22.67327
1034.630, 20.67080
1035.113, 20.64845
1035.595, 21.36092
1036.077, 22.38296
1036.559, 23.57767
1037.041, 25.19482
1037.523, 27.30078
1038.005, 27.24614
1038.487, 22.68535
1038.970, 19.75527
1039.452, 19.85436
1039.934, 20.24590
1040.416, 19.27267
1040.898, 18.40388
1041.380, 19.87009
1041.862, 23.33450
1042.344, 25.02634
1042.826, 24.24061
1043.309, 23.12679
1043.791, 21.12219
1044.273, 20.02063
1044.755, 20.93285
1045.237, 22.38063
1045.719, 22.92861
1046.201, 22.71812
1046.683, 22.40105
1047.166, 21.97495
1047.648, 21.40552
1048.130, 20.56932
1048.612, 20.02813
1049.094, 20.17698
1049.576, 19.96129
1050.058, 18.06215
1050.540, 15.71898
1051.022, 16.77113
1051.505, 21.82085
1051.987, 24.03147
1052.469, 22.94995
1052.951, 21.75657
1053.433, 21.18791
1053.915, 20.52670
1054.397, 19.13041
1054.879, 17.87462
1055.361, 18.69237
1055.844, 21.29228
1056.326, 22.09358
1056.808, 21.10756
1057.290, 19.77889
1057.772, 18.33993
1058.254, 18.08689
1058.736, 19.82613
1059.218, 21.56053
1059.701, 20.39840
1060.183, 17.31805
1060.665, 15.22891
1061.147, 14.20404
1061.629, 15.17930
1062.111, 17.95012
1062.593, 20.27865
1063.075, 21.28590
1063.557, 21.44606
1064.040, 21.11661
1064.522, 20.40350
1065.004, 19.25777
1065.486, 17.97030
1065.968, 16.96967
1066.450, 16.51896
1066.932, 17.86092
1067.414, 20.92189
1067.896, 22.83082
1068.379, 21.32384
1068.861, 19.02464
1069.343, 18.89771
1069.825, 19.81297
1070.307, 20.19882
1070.789, 20.38198
1071.271, 21.68265
1071.753, 23.74350
1072.236, 24.17887
1072.718, 21.68932
1073.200, 19.06398
1073.682, 18.43162
1074.164, 18.38783
1074.646, 17.03493
1075.128, 16.09968
1075.610, 18.72198
1076.093, 23.48689
1076.575, 26.30689
1077.057, 26.09120
1077.539, 24.60144
1078.021, 20.52579
1078.503, 18.08441
1078.985, 20.93025
1079.467, 24.42268
1079.949, 25.09798
1080.432, 23.86111
1080.914, 22.04314
1081.396, 19.93995
1081.878, 19.38863
1082.360, 22.26649
1082.842, 24.33765
1083.324, 25.19503
1083.806, 24.84126
1084.288, 22.06039
1084.771, 18.96981
1085.253, 18.08411
1085.735, 18.95221
1086.217, 19.28242
1086.699, 18.40909
1087.181, 18.84736
1087.663, 21.50319
1088.145, 23.66867
1088.628, 24.79862
1089.110, 24.90687
1089.592, 23.62113
1090.074, 21.79137
1090.556, 21.47543
1091.038, 22.78772
1091.520, 22.07560
1092.002, 18.87644
1092.484, 16.53762
1092.967, 15.52756
1093.449, 16.14193
1093.931, 18.82201
1094.413, 21.58980
1094.895, 21.79292
1095.377, 20.19565
1095.859, 19.67417
1096.341, 20.03283
1096.823, 19.39307
1097.306, 17.83421
1097.788, 18.12532
1098.270, 20.95701
1098.752, 22.43638
1099.234, 19.04072
1099.716, 14.44974
1100.198, 14.96350
1100.680, 18.03747
1101.163, 18.05149
1101.645, 16.27237
1102.127, 16.95603
1102.609, 20.07345
1103.091, 21.96149
1103.573, 20.87447
1104.055, 18.66405
1104.537, 15.44618
1105.020, 13.30739
1105.502, 15.06134
1105.984, 18.34223
1106.466, 20.87255
1106.948, 22.28960
1107.430, 22.28204
1107.912, 20.89641
1108.394, 19.65909
1108.876, 19.30460
1109.359, 19.03540
1109.841, 18.60265
1110.323, 18.11650
1110.805, 17.49323
1111.287, 16.96149
1111.769, 16.33943
1112.251, 15.96632
1112.733, 17.78361
1113.215, 24.58681
1113.698, 26.93674
1114.180, 20.67340
1114.662, 16.18545
1115.144, 16.52334
1115.626, 18.24300
1116.108, 19.62386
1116.590, 20.25298
1117.072, 19.02582
1117.555, 15.92423
1118.037, 15.10218
1118.519, 17.15543
1119.001, 17.90423
1119.483, 16.56075
1119.965, 16.18051
1120.447, 18.29065
1120.929, 19.96005
1121.411, 17.73420
1121.894, 13.89198
1122.376, 15.25164
1122.858, 20.46328
1123.340, 22.35827
1123.822, 21.15866
1124.304, 19.67953
1124.786, 18.66497
1125.268, 18.00998
1125.750, 17.64918
1126.233, 17.72538
1126.715, 18.67329
1127.197, 19.92403
1127.679, 21.02965
1128.161, 21.68140
1128.643, 20.93131
1129.125, 19.39798
1129.607, 18.90189
1130.090, 19.80115
1130.572, 20.46097
1131.054, 19.86331
1131.536, 19.18585
1132.018, 19.20473
1132.500, 19.17076
1132.982, 18.93776
1133.464, 18.09124
1133.947, 15.49117
1134.429, 11.83163
1134.911, 9.800367
1135.393, 9.818167
1135.875, 11.11814
1136.357, 15.60735
1136.839, 18.41213
1137.321, 17.72436
1137.803, 16.60670
1138.286, 16.74435
1138.768, 17.47545
1139.250, 17.66726
1139.732, 17.51604
1140.214, 19.44479
1140.696, 24.14967
1141.178, 25.06058
1141.660, 21.36255
1142.142, 18.19889
1142.625, 17.18393
1143.107, 17.82809
1143.589, 20.02215
1144.071, 22.27195
1144.553, 21.65231
1145.035, 19.09029
1145.517, 16.53531
1145.999, 14.64668
1146.482, 16.33195
1146.964, 20.79311
1147.446, 23.21025
1147.928, 21.91309
1148.410, 20.51353
1148.892, 22.05827
1149.374, 23.93299
1149.856, 23.48743
1150.339, 22.55375
1150.821, 23.29799
1151.303, 24.59051
1151.785, 24.39490
1152.267, 22.88463
1152.749, 22.05518
1153.231, 22.83368
1153.713, 22.51575
1154.195, 18.79829
1154.677, 16.24117
1155.160, 17.01744
1155.642, 18.48352
1156.124, 19.09467
1156.606, 19.31836
1157.088, 19.77281
1157.570, 20.45802
1158.052, 21.50426
1158.534, 23.23400
1159.017, 23.84544
1159.499, 23.21077
1159.981, 21.26210
1160.463, 17.66308
1160.945, 15.59993
1161.427, 17.64554
1161.909, 21.13466
1162.391, 21.43001
1162.874, 19.53437
1163.356, 18.68287
1163.838, 18.59856
1164.320, 18.41804
1164.802, 18.11526
1165.284, 18.05292
1165.766, 18.35234
1166.248, 18.99239
1166.730, 20.22643
1167.213, 21.10353
1167.695, 20.49403
1168.177, 19.53821
1168.659, 19.11077
1169.141, 19.05406
1169.623, 19.41308
1170.105, 19.84644
1170.587, 19.21906
1171.069, 17.02935
1171.552, 16.37474
1172.034, 19.67759
1172.516, 21.59164
1172.998, 20.12239
1173.480, 18.88068
1173.962, 19.79229
1174.444, 21.01353
1174.926, 20.49622
1175.409, 18.83246
1175.891, 17.99991
1176.373, 18.00834
1176.855, 19.17988
1177.337, 21.58580
1177.819, 21.51343
1178.301, 18.35958
1178.783, 16.39102
1179.266, 17.69149
1179.748, 19.21453
1180.230, 17.33334
1180.712, 14.51473
1181.194, 15.16855
1181.676, 17.41363
1182.158, 18.22466
1182.640, 17.92254
1183.122, 17.44012
1183.604, 17.06883
1184.087, 17.07072
1184.569, 17.60806
1185.051, 18.00094
1185.533, 17.41697
1186.015, 17.33512
1186.497, 18.93012
1186.979, 20.65650
1187.461, 21.41851
1187.944, 21.66975
1188.426, 22.24721
1188.908, 22.99511
1189.390, 22.85358
1189.872, 21.53125
1190.354, 20.24989
1190.836, 18.83475
1191.318, 18.37451
1191.801, 19.27045
1192.283, 19.96370
1192.765, 19.52189
1193.247, 18.82310
1193.729, 18.90903
1194.211, 19.64063
1194.693, 21.60134
1195.175, 23.59644
1195.657, 21.50534
1196.140, 16.76378
1196.622, 13.92541
1197.104, 13.68501
1197.586, 14.10078
1198.068, 14.32264
1198.550, 15.06304
1199.032, 17.63698
1199.514, 19.72905
1199.996, 19.66346
1200.479, 18.97307
1200.961, 19.07342
1201.443, 19.21015
1201.925, 17.72971
1202.407, 14.96099
1202.889, 13.75247
1203.371, 14.27396
1203.853, 16.20463
1204.336, 20.84642
1204.818, 22.25745
1205.300, 18.46245
1205.782, 14.91415
1206.264, 14.50996
1206.746, 15.89795
1207.228, 17.93886
1207.710, 19.67311
1208.193, 17.60334
1208.675, 13.62371
1209.157, 13.57036
1209.639, 16.48718
1210.121, 19.36137
1210.603, 21.30547
1211.085, 21.50993
1211.567, 19.61952
1212.049, 17.94228
1212.531, 18.46899
1213.014, 18.80363
1213.496, 16.16374
1213.978, 14.56263
1214.460, 19.55530
1214.942, 25.18280
1215.424, 22.37392
1215.906, 13.80492
1216.388, 10.06935
1216.871, 11.70662
1217.353, 15.57573
1217.835, 23.15157
1218.317, 26.36468
1218.799, 23.59643
1219.281, 19.50364
1219.763, 15.79596
1220.245, 14.37363
1220.728, 17.45553
1221.210, 21.80976
1221.692, 21.11998
1222.174, 17.91941
1222.656, 17.53344
1223.138, 18.71852
1223.620, 18.24467
1224.102, 16.73487
1224.584, 17.44226
1225.067, 20.97295
1225.549, 23.86960
1226.031, 24.97359
1226.513, 24.57621
1226.995, 20.93670
1227.477, 18.19047
1227.959, 19.23977
1228.441, 20.69664
1228.923, 19.72864
1229.406, 17.80703
1229.888, 17.56116
1230.370, 18.78317
1230.852, 19.14468
1231.334, 18.60301
1231.816, 17.89384
1232.298, 17.15572
1232.780, 19.26297
1233.263, 24.51264
1233.745, 27.48249
1234.227, 25.06094
1234.709, 20.47943
1235.191, 15.15935
1235.673, 11.67478
##END=



