##NAMES=Sulvanite
##RRUFFID=R060853
##IDEAL CHEMISTRY=Cu^2+^_3_V^3+^S^2-^_4_
##LOCALITY=Burra Burra, South Australia, Australia
##OWNER=RRUFF
##SOURCE=Michael Scott
##DESCRIPTION=Brassy metallic massive with black tarnished surfaces
##STATUS=The identification of this mineral is confirmed by single-crystal X-ray diffraction and chemical analysis.
##URL=rruff.info/R060853
##MEASURED CHEMISTRY=Cu_3.00_V_1.00_S_4.00_
134.0581, 1117.174
134.5402, 1134.109
135.0223, 1156.848
135.5044, 1182.880
135.9865, 1204.384
136.4686, 1219.681
136.9508, 1238.748
137.4329, 1271.397
137.9150, 1319.856
138.3971, 1362.164
138.8792, 1395.445
139.3613, 1420.198
139.8434, 1439.167
140.3256, 1450.717
140.8077, 1459.949
141.2898, 1470.273
141.7719, 1479.327
142.2540, 1496.168
142.7361, 1525.472
143.2183, 1568.923
143.7004, 1602.508
144.1825, 1619.719
144.6646, 1632.242
145.1467, 1655.364
145.6288, 1697.726
146.1110, 1738.574
146.5931, 1773.578
147.0752, 1805.728
147.5573, 1824.344
148.0394, 1830.239
148.5215, 1822.474
149.0037, 1798.467
149.4858, 1743.937
149.9679, 1686.332
150.4500, 1634.672
150.9321, 1595.178
151.4142, 1553.875
151.8964, 1505.938
152.3785, 1454.986
152.8606, 1414.436
153.3427, 1389.057
153.8248, 1371.204
154.3069, 1356.956
154.7890, 1352.031
155.2712, 1344.084
155.7533, 1329.938
156.2354, 1310.214
156.7175, 1291.053
157.1996, 1269.228
157.6817, 1250.340
158.1639, 1238.739
158.6460, 1236.958
159.1281, 1241.116
159.6102, 1253.402
160.0923, 1274.496
160.5744, 1290.352
161.0566, 1291.961
161.5387, 1286.764
162.0208, 1283.526
162.5029, 1289.825
162.9850, 1295.281
163.4671, 1293.522
163.9493, 1282.467
164.4314, 1271.493
164.9135, 1264.649
165.3956, 1260.970
165.8777, 1258.761
166.3598, 1256.502
166.8420, 1255.935
167.3241, 1259.445
167.8062, 1269.651
168.2883, 1278.235
168.7704, 1276.554
169.2525, 1268.410
169.7346, 1264.166
170.2168, 1276.641
170.6989, 1293.246
171.1810, 1299.770
171.6631, 1288.239
172.1452, 1273.336
172.6273, 1267.058
173.1095, 1268.515
173.5916, 1272.924
174.0737, 1280.780
174.5558, 1288.913
175.0379, 1291.791
175.5201, 1283.285
176.0022, 1272.794
176.4843, 1272.191
176.9664, 1281.037
177.4485, 1292.965
177.9306, 1309.088
178.4128, 1324.614
178.8949, 1328.726
179.3770, 1309.570
179.8591, 1279.593
180.3412, 1258.886
180.8233, 1247.491
181.3055, 1241.937
181.7876, 1239.245
182.2697, 1239.519
182.7518, 1243.048
183.2339, 1252.146
183.7160, 1264.542
184.1982, 1274.529
184.6803, 1281.967
185.1624, 1287.179
185.6445, 1290.256
186.1266, 1291.279
186.6087, 1291.127
187.0908, 1286.314
187.5730, 1279.695
188.0551, 1284.699
188.5372, 1304.399
189.0193, 1330.191
189.5014, 1347.800
189.9835, 1357.596
190.4657, 1369.682
190.9478, 1393.193
191.4299, 1426.301
191.9120, 1451.918
192.3941, 1467.038
192.8762, 1476.073
193.3584, 1485.944
193.8405, 1496.242
194.3226, 1512.005
194.8047, 1540.956
195.2868, 1582.564
195.7689, 1614.596
196.2511, 1631.612
196.7332, 1639.421
197.2153, 1655.847
197.6974, 1682.236
198.1795, 1710.354
198.6616, 1734.316
199.1438, 1754.234
199.6259, 1771.934
200.1080, 1787.953
200.5901, 1802.046
201.0722, 1813.503
201.5543, 1823.188
202.0364, 1827.663
202.5186, 1822.828
203.0007, 1807.652
203.4828, 1790.275
203.9649, 1774.141
204.4470, 1757.787
204.9291, 1727.625
205.4113, 1679.561
205.8934, 1626.338
206.3755, 1580.556
206.8576, 1542.958
207.3397, 1509.604
207.8218, 1479.792
208.3040, 1453.533
208.7861, 1430.013
209.2682, 1409.137
209.7503, 1391.647
210.2324, 1379.505
210.7145, 1374.657
211.1967, 1369.421
211.6788, 1361.667
212.1609, 1351.266
212.6430, 1340.461
213.1251, 1329.526
213.6072, 1318.090
214.0894, 1304.257
214.5715, 1284.995
215.0536, 1271.046
215.5357, 1268.248
216.0178, 1279.882
216.4999, 1282.612
216.9820, 1271.864
217.4642, 1255.882
217.9463, 1249.284
218.4284, 1256.930
218.9105, 1263.647
219.3926, 1264.203
219.8747, 1258.110
220.3569, 1246.614
220.8390, 1224.847
221.3211, 1200.596
221.8032, 1189.357
222.2853, 1197.125
222.7674, 1207.194
223.2496, 1213.491
223.7317, 1216.492
224.2138, 1214.221
224.6959, 1204.086
225.1780, 1189.801
225.6601, 1179.078
226.1423, 1171.264
226.6244, 1168.248
227.1065, 1172.199
227.5886, 1188.941
228.0707, 1198.702
228.5528, 1199.067
229.0350, 1192.788
229.5171, 1187.602
229.9992, 1182.449
230.4813, 1179.745
230.9634, 1181.353
231.4455, 1191.062
231.9276, 1196.448
232.4098, 1194.424
232.8919, 1187.911
233.3740, 1188.506
233.8561, 1202.547
234.3382, 1214.765
234.8203, 1216.186
235.3025, 1198.204
235.7846, 1187.867
236.2667, 1189.813
236.7488, 1200.567
237.2309, 1204.582
237.7130, 1195.851
238.1952, 1188.281
238.6773, 1191.108
239.1594, 1214.033
239.6415, 1226.526
240.1236, 1221.228
240.6057, 1203.071
241.0879, 1197.262
241.5700, 1211.240
242.0521, 1228.118
242.5342, 1238.603
243.0163, 1243.482
243.4984, 1239.488
243.9806, 1220.787
244.4627, 1191.547
244.9448, 1175.967
245.4269, 1179.091
245.9090, 1189.589
246.3911, 1201.707
246.8732, 1219.876
247.3554, 1230.029
247.8375, 1228.723
248.3196, 1217.626
248.8017, 1207.562
249.2838, 1198.243
249.7659, 1190.490
250.2481, 1184.823
250.7302, 1181.563
251.2123, 1179.966
251.6944, 1181.042
252.1765, 1184.121
252.6586, 1184.183
253.1408, 1178.994
253.6229, 1173.930
254.1050, 1173.200
254.5871, 1179.927
255.0692, 1183.617
255.5513, 1182.339
256.0334, 1176.908
256.5156, 1172.125
256.9977, 1167.285
257.4798, 1164.062
257.9619, 1163.798
258.4440, 1167.339
258.9261, 1171.535
259.4083, 1175.806
259.8904, 1180.365
260.3725, 1187.019
260.8546, 1197.408
261.3367, 1207.329
261.8188, 1213.851
262.3010, 1216.571
262.7831, 1216.871
263.2652, 1213.868
263.7473, 1208.410
264.2294, 1204.547
264.7115, 1200.653
265.1937, 1201.385
265.6758, 1213.796
266.1579, 1244.938
266.6400, 1260.416
267.1221, 1249.664
267.6042, 1219.993
268.0864, 1208.960
268.5685, 1222.230
269.0506, 1241.827
269.5327, 1255.920
270.0148, 1264.110
270.4969, 1267.985
270.9791, 1265.261
271.4612, 1258.899
271.9433, 1263.124
272.4254, 1281.945
272.9075, 1300.327
273.3896, 1305.119
273.8718, 1293.219
274.3539, 1287.668
274.8360, 1291.683
275.3181, 1303.619
275.8002, 1318.991
276.2823, 1338.885
276.7645, 1358.167
277.2466, 1373.251
277.7287, 1383.702
278.2108, 1393.604
278.6929, 1403.327
279.1750, 1412.910
279.6572, 1422.200
280.1393, 1430.973
280.6214, 1440.514
281.1035, 1451.916
281.5856, 1465.187
282.0677, 1478.984
282.5499, 1494.058
283.0320, 1508.561
283.5141, 1517.071
283.9962, 1519.007
284.4783, 1520.576
284.9604, 1527.971
285.4425, 1540.505
285.9247, 1545.477
286.4068, 1540.509
286.8889, 1529.326
287.3710, 1518.184
287.8531, 1507.089
288.3352, 1496.401
288.8174, 1485.152
289.2995, 1473.993
289.7816, 1468.002
290.2637, 1469.346
290.7458, 1472.403
291.2279, 1466.942
291.7101, 1453.522
292.1922, 1440.208
292.6743, 1431.616
293.1564, 1426.924
293.6385, 1424.060
294.1206, 1423.403
294.6028, 1422.944
295.0849, 1419.666
295.5670, 1413.974
296.0491, 1408.066
296.5312, 1400.705
297.0133, 1394.257
297.4955, 1396.718
297.9776, 1410.545
298.4597, 1424.094
298.9418, 1420.370
299.4239, 1403.949
299.9060, 1390.456
300.3882, 1394.294
300.8703, 1404.270
301.3524, 1399.774
301.8345, 1378.188
302.3166, 1354.562
302.7987, 1343.964
303.2809, 1342.371
303.7630, 1339.943
304.2451, 1327.964
304.7272, 1314.627
305.2093, 1312.237
305.6914, 1321.870
306.1736, 1330.023
306.6557, 1321.095
307.1378, 1303.915
307.6199, 1293.703
308.1020, 1305.800
308.5841, 1321.549
309.0663, 1323.201
309.5484, 1310.715
310.0305, 1298.164
310.5126, 1293.487
310.9947, 1294.343
311.4768, 1297.903
311.9590, 1307.614
312.4411, 1316.144
312.9232, 1318.854
313.4053, 1315.960
313.8874, 1310.336
314.3695, 1296.547
314.8517, 1283.657
315.3337, 1280.332
315.8159, 1301.067
316.2980, 1320.116
316.7801, 1325.969
317.2622, 1320.286
317.7443, 1312.779
318.2264, 1304.033
318.7086, 1296.807
319.1907, 1293.238
319.6728, 1297.460
320.1549, 1300.815
320.6370, 1299.916
321.1191, 1296.016
321.6013, 1293.506
322.0834, 1294.758
322.5655, 1296.765
323.0476, 1297.731
323.5297, 1294.640
324.0118, 1294.787
324.4940, 1302.161
324.9761, 1313.636
325.4582, 1321.422
325.9403, 1321.286
326.4224, 1320.077
326.9045, 1320.073
327.3867, 1320.745
327.8688, 1323.836
328.3509, 1330.913
328.8330, 1340.120
329.3151, 1348.486
329.7972, 1356.506
330.2794, 1363.202
330.7615, 1369.203
331.2436, 1376.241
331.7257, 1375.574
332.2078, 1359.685
332.6899, 1340.698
333.1721, 1335.286
333.6542, 1350.919
334.1363, 1367.321
334.6184, 1379.260
335.1005, 1386.124
335.5826, 1398.169
336.0648, 1420.839
336.5469, 1441.853
337.0290, 1446.205
337.5111, 1426.100
337.9932, 1413.616
338.4753, 1417.812
338.9575, 1436.015
339.4396, 1446.528
339.9217, 1446.211
340.4038, 1446.274
340.8859, 1459.137
341.3680, 1486.710
341.8502, 1505.975
342.3323, 1511.498
342.8144, 1506.938
343.2965, 1500.733
343.7786, 1492.205
344.2607, 1487.479
344.7429, 1494.634
345.2250, 1511.908
345.7071, 1520.744
346.1892, 1517.194
346.6713, 1507.808
347.1534, 1500.421
347.6355, 1495.540
348.1176, 1499.266
348.5998, 1521.888
349.0819, 1556.047
349.5640, 1581.397
350.0461, 1596.387
350.5282, 1603.141
351.0103, 1599.202
351.4925, 1588.148
351.9746, 1581.731
352.4567, 1588.737
352.9388, 1602.699
353.4209, 1614.876
353.9030, 1624.865
354.3852, 1634.319
354.8673, 1641.630
355.3494, 1649.764
355.8315, 1663.784
356.3136, 1685.072
356.7957, 1713.571
357.2779, 1751.426
357.7600, 1798.263
358.2421, 1845.914
358.7242, 1875.856
359.2063, 1910.333
359.6884, 1972.095
360.1706, 2073.405
360.6527, 2197.017
361.1348, 2333.634
361.6169, 2485.970
362.0990, 2661.380
362.5811, 2871.579
363.0633, 3101.251
363.5454, 3341.880
364.0275, 3597.482
364.5096, 3854.323
364.9917, 4113.407
365.4738, 4371.426
365.9560, 4622.171
366.4381, 4848.735
366.9202, 5078.226
367.4023, 5320.446
367.8844, 5573.887
368.3665, 5845.707
368.8487, 6137.892
369.3308, 6449.811
369.8129, 6777.323
370.2950, 7118.651
370.7771, 7476.899
371.2592, 7866.925
371.7414, 8292.438
372.2235, 8675.136
372.7056, 9039.707
373.1877, 9337.238
373.6698, 9528.783
374.1519, 9633.625
374.6341, 9579.682
375.1162, 9341.561
375.5983, 8933.434
376.0804, 8423.497
376.5625, 7794.589
377.0446, 7119.397
377.5267, 6433.532
378.0089, 5722.044
378.4910, 5098.315
378.9731, 4582.210
379.4552, 4149.696
379.9373, 3764.174
380.4194, 3422.316
380.9016, 3130.664
381.3837, 2896.345
381.8658, 2715.437
382.3479, 2562.728
382.8300, 2439.229
383.3121, 2336.195
383.7943, 2247.694
384.2764, 2173.045
384.7585, 2107.464
385.2406, 2051.167
385.7227, 2002.118
386.2048, 1960.365
386.6870, 1925.759
387.1691, 1892.670
387.6512, 1854.903
388.1333, 1816.200
388.6154, 1782.257
389.0975, 1756.223
389.5797, 1734.561
390.0618, 1717.317
390.5439, 1702.956
391.0260, 1685.714
391.5081, 1655.366
391.9902, 1624.793
392.4724, 1606.069
392.9545, 1608.937
393.4366, 1609.069
393.9187, 1589.068
394.4008, 1559.352
394.8829, 1540.142
395.3651, 1549.406
395.8472, 1561.129
396.3293, 1564.696
396.8114, 1558.405
397.2935, 1546.995
397.7756, 1524.947
398.2578, 1500.541
398.7399, 1482.716
399.2220, 1474.374
399.7041, 1470.260
400.1862, 1472.949
400.6683, 1482.229
401.1505, 1481.708
401.6326, 1461.356
402.1147, 1441.287
402.5968, 1436.043
403.0789, 1453.696
403.5610, 1467.624
404.0432, 1476.367
404.5253, 1479.791
405.0074, 1476.219
405.4895, 1463.262
405.9716, 1449.997
406.4537, 1440.815
406.9359, 1435.821
407.4180, 1432.112
407.9001, 1429.387
408.3822, 1428.501
408.8643, 1432.152
409.3464, 1440.179
409.8285, 1445.947
410.3106, 1445.347
410.7928, 1440.889
411.2749, 1438.786
411.7570, 1438.985
412.2391, 1443.623
412.7212, 1461.867
413.2033, 1486.269
413.6855, 1496.502
414.1676, 1481.250
414.6497, 1458.869
415.1318, 1448.828
415.6139, 1449.599
416.0960, 1455.466
416.5782, 1466.156
417.0603, 1478.672
417.5424, 1491.926
418.0245, 1508.123
418.5066, 1515.777
418.9887, 1496.546
419.4709, 1466.747
419.9530, 1451.622
420.4351, 1477.855
420.9172, 1505.469
421.3993, 1514.901
421.8814, 1504.399
422.3636, 1497.306
422.8457, 1499.820
423.3278, 1507.365
423.8099, 1516.446
424.2920, 1534.438
424.7741, 1544.924
425.2563, 1540.542
425.7384, 1526.150
426.2205, 1522.399
426.7026, 1534.963
427.1847, 1551.077
427.6668, 1565.411
428.1490, 1577.302
428.6311, 1589.616
429.1132, 1603.455
429.5953, 1616.781
430.0774, 1625.262
430.5595, 1627.285
431.0417, 1631.545
431.5238, 1639.950
432.0059, 1652.694
432.4880, 1672.812
432.9701, 1701.428
433.4522, 1731.116
433.9344, 1751.187
434.4165, 1764.329
434.8986, 1791.294
435.3807, 1839.192
435.8628, 1897.437
436.3449, 1950.137
436.8271, 1998.091
437.3092, 2045.863
437.7913, 2088.747
438.2734, 2135.440
438.7555, 2202.920
439.2376, 2295.733
439.7197, 2386.111
440.2018, 2449.678
440.6840, 2496.928
441.1661, 2544.291
441.6482, 2599.650
442.1303, 2654.993
442.6124, 2698.483
443.0945, 2733.373
443.5767, 2786.698
444.0588, 2883.072
444.5409, 2992.250
445.0230, 3093.558
445.5051, 3169.427
445.9872, 3259.135
446.4694, 3377.431
446.9515, 3512.825
447.4336, 3640.253
447.9157, 3782.458
448.3978, 3892.475
448.8799, 3972.871
449.3621, 4040.411
449.8442, 3966.033
450.3263, 3699.222
450.8084, 3353.222
451.2905, 3026.456
451.7726, 2715.248
452.2548, 2448.356
452.7369, 2228.965
453.2190, 2058.816
453.7011, 1947.154
454.1832, 1900.295
454.6653, 1869.344
455.1475, 1823.011
455.6296, 1765.631
456.1117, 1719.239
456.5938, 1686.058
457.0759, 1662.958
457.5580, 1650.441
458.0402, 1645.984
458.5223, 1641.335
459.0044, 1632.946
459.4865, 1622.646
459.9686, 1610.765
460.4507, 1597.880
460.9329, 1588.412
461.4150, 1588.323
461.8971, 1591.934
462.3792, 1593.204
462.8613, 1588.138
463.3434, 1585.453
463.8256, 1593.577
464.3077, 1606.688
464.7898, 1613.109
465.2719, 1602.760
465.7540, 1590.937
466.2361, 1583.132
466.7183, 1579.965
467.2004, 1578.476
467.6825, 1579.270
468.1646, 1581.117
468.6467, 1583.605
469.1288, 1591.111
469.6110, 1590.784
470.0930, 1575.983
470.5752, 1553.246
471.0573, 1547.494
471.5394, 1565.312
472.0215, 1582.906
472.5036, 1585.588
472.9857, 1572.122
473.4679, 1573.500
473.9500, 1594.589
474.4321, 1615.030
474.9142, 1602.079
475.3963, 1561.147
475.8784, 1532.968
476.3606, 1535.116
476.8427, 1552.898
477.3248, 1561.267
477.8069, 1561.357
478.2890, 1560.448
478.7711, 1563.754
479.2533, 1568.881
479.7354, 1572.458
480.2175, 1573.377
480.6996, 1575.126
481.1817, 1581.905
481.6638, 1590.621
482.1460, 1596.556
482.6281, 1594.897
483.1102, 1592.795
483.5923, 1593.950
484.0744, 1598.144
484.5565, 1599.803
485.0387, 1594.250
485.5208, 1588.172
486.0029, 1585.469
486.4850, 1587.430
486.9671, 1590.760
487.4492, 1595.616
487.9314, 1601.769
488.4135, 1609.758
488.8956, 1622.749
489.3777, 1630.131
489.8598, 1627.336
490.3419, 1615.195
490.8241, 1604.533
491.3062, 1594.795
491.7883, 1588.740
492.2704, 1591.278
492.7525, 1601.148
493.2346, 1606.582
493.7168, 1605.026
494.1989, 1599.750
494.6810, 1593.810
495.1631, 1587.807
495.6452, 1584.097
496.1273, 1584.078
496.6095, 1586.963
497.0916, 1594.390
497.5737, 1606.181
498.0558, 1612.987
498.5379, 1603.190
499.0201, 1587.834
499.5022, 1578.109
499.9843, 1578.300
500.4664, 1582.354
500.9485, 1592.554
501.4306, 1605.192
501.9127, 1611.152
502.3948, 1604.417
502.8770, 1594.829
503.3591, 1583.832
503.8412, 1570.233
504.3233, 1564.117
504.8054, 1570.610
505.2875, 1579.480
505.7697, 1581.914
506.2518, 1575.738
506.7339, 1569.913
507.2160, 1564.964
507.6981, 1561.331
508.1802, 1560.230
508.6624, 1561.734
509.1445, 1564.960
509.6266, 1571.003
510.1087, 1578.655
510.5908, 1581.995
511.0729, 1580.714
511.5551, 1580.050
512.0372, 1587.035
512.5193, 1597.948
513.0014, 1605.044
513.4835, 1604.791
513.9656, 1602.972
514.4478, 1604.901
514.9299, 1609.021
515.4120, 1611.438
515.8941, 1604.844
516.3762, 1600.528
516.8583, 1607.462
517.3405, 1627.798
517.8226, 1642.021
518.3047, 1638.619
518.7868, 1631.584
519.2689, 1632.148
519.7510, 1650.365
520.2332, 1662.166
520.7153, 1663.032
521.1974, 1657.745
521.6795, 1657.922
522.1616, 1665.307
522.6437, 1673.972
523.1259, 1683.059
523.6080, 1692.291
524.0901, 1694.687
524.5722, 1689.238
525.0543, 1681.627
525.5364, 1676.167
526.0186, 1672.740
526.5007, 1671.005
526.9828, 1671.241
527.4649, 1672.335
527.9470, 1672.649
528.4291, 1672.605
528.9113, 1673.471
529.3934, 1677.184
529.8755, 1681.125
530.3576, 1681.772
530.8397, 1679.318
531.3218, 1680.166
531.8040, 1692.619
532.2861, 1706.409
532.7682, 1713.076
533.2503, 1705.284
533.7324, 1700.463
534.2145, 1705.403
534.6967, 1713.751
535.1788, 1713.870
535.6609, 1695.294
536.1430, 1685.160
536.6251, 1694.583
537.1072, 1721.159
537.5894, 1728.879
538.0715, 1712.356
538.5536, 1692.918
539.0357, 1686.535
539.5178, 1692.545
539.9999, 1695.946
540.4821, 1694.674
540.9642, 1693.384
541.4463, 1701.040
541.9284, 1714.452
542.4105, 1722.290
542.8926, 1717.494
543.3748, 1707.458
543.8569, 1699.833
544.3390, 1694.221
544.8211, 1688.427
545.3032, 1681.160
545.7853, 1673.251
546.2675, 1664.601
546.7495, 1654.296
547.2316, 1647.121
547.7137, 1644.284
548.1959, 1645.334
548.6780, 1649.897
549.1601, 1667.469
549.6422, 1675.867
550.1243, 1668.012
550.6064, 1649.693
551.0886, 1641.898
551.5707, 1648.936
552.0528, 1656.070
552.5349, 1656.183
553.0170, 1649.584
553.4991, 1646.878
553.9813, 1648.932
554.4634, 1650.309
554.9455, 1642.865
555.4276, 1629.599
555.9097, 1623.324
556.3918, 1629.043
556.8740, 1636.391
557.3561, 1631.573
557.8382, 1619.065
558.3203, 1609.797
558.8024, 1611.519
559.2845, 1616.221
559.7667, 1617.462
560.2488, 1615.564
560.7309, 1618.245
561.2130, 1635.675
561.6951, 1653.098
562.1772, 1661.087
562.6594, 1651.304
563.1415, 1646.015
563.6236, 1648.416
564.1057, 1653.591
564.5878, 1654.489
565.0699, 1648.304
565.5521, 1645.932
566.0342, 1650.818
566.5163, 1660.661
566.9984, 1667.491
567.4805, 1671.143
567.9626, 1673.406
568.4448, 1674.790
568.9269, 1675.642
569.4090, 1676.498
569.8911, 1677.273
570.3732, 1679.793
570.8553, 1687.438
571.3375, 1697.443
571.8196, 1705.213
572.3017, 1708.246
572.7838, 1711.301
573.2659, 1719.320
573.7480, 1729.061
574.2302, 1734.140
574.7123, 1725.448
575.1944, 1718.886
575.6765, 1722.369
576.1586, 1736.071
576.6407, 1741.885
577.1229, 1735.807
577.6050, 1726.938
578.0871, 1721.101
578.5692, 1720.175
579.0513, 1712.144
579.5334, 1693.407
580.0156, 1674.760
580.4977, 1672.875
580.9798, 1686.327
581.4619, 1698.607
581.9440, 1703.916
582.4261, 1707.225
582.9083, 1719.991
583.3904, 1738.921
583.8725, 1750.712
584.3546, 1742.265
584.8367, 1727.015
585.3188, 1714.065
585.8010, 1704.112
586.2831, 1700.823
586.7652, 1710.894
587.2473, 1725.141
587.7294, 1737.095
588.2115, 1753.060
588.6937, 1755.159
589.1758, 1733.133
589.6579, 1701.577
590.1400, 1683.655
590.6221, 1685.336
591.1042, 1685.068
591.5864, 1674.280
592.0685, 1658.568
592.5506, 1667.429
593.0327, 1703.434
593.5148, 1731.241
593.9969, 1719.524
594.4791, 1682.989
594.9612, 1663.832
595.4433, 1664.407
595.9254, 1669.321
596.4075, 1663.131
596.8896, 1653.937
597.3718, 1653.802
597.8539, 1671.810
598.3360, 1688.159
598.8181, 1691.569
599.3002, 1687.150
599.7823, 1684.334
600.2645, 1692.004
600.7466, 1693.841
601.2287, 1681.106
601.7108, 1656.262
602.1929, 1645.203
602.6750, 1654.358
603.1572, 1665.856
603.6393, 1670.792
604.1214, 1668.797
604.6035, 1664.393
605.0856, 1656.581
605.5677, 1650.301
606.0499, 1652.806
606.5320, 1661.649
607.0141, 1667.502
607.4962, 1667.274
607.9783, 1665.738
608.4604, 1665.785
608.9425, 1668.401
609.4246, 1675.726
609.9067, 1699.128
610.3889, 1718.076
610.8710, 1719.818
611.3531, 1705.807
611.8352, 1691.015
612.3173, 1673.103
612.7994, 1659.743
613.2816, 1655.127
613.7637, 1662.207
614.2458, 1665.963
614.7279, 1664.984
615.2100, 1662.917
615.6921, 1664.437
616.1743, 1669.994
616.6564, 1670.242
617.1385, 1662.050
617.6206, 1652.089
618.1027, 1652.483
618.5848, 1660.819
619.0670, 1667.350
619.5491, 1667.566
620.0312, 1664.190
620.5133, 1652.389
620.9954, 1636.602
621.4775, 1637.382
621.9597, 1692.744
622.4418, 1745.347
622.9239, 1755.377
623.4060, 1707.583
623.8881, 1679.647
624.3702, 1696.169
624.8524, 1722.673
625.3345, 1735.003
625.8166, 1728.413
626.2987, 1719.962
626.7808, 1709.094
627.2629, 1698.758
627.7451, 1693.151
628.2272, 1692.285
628.7093, 1697.125
629.1914, 1711.587
629.6735, 1728.140
630.1556, 1729.951
630.6378, 1720.600
631.1199, 1714.856
631.6020, 1726.903
632.0841, 1742.144
632.5662, 1747.396
633.0483, 1741.900
633.5305, 1737.612
634.0126, 1739.090
634.4947, 1743.316
634.9768, 1748.678
635.4589, 1756.830
635.9410, 1762.478
636.4232, 1765.587
636.9053, 1766.255
637.3874, 1763.404
637.8695, 1755.653
638.3516, 1752.076
638.8337, 1755.151
639.3159, 1761.801
639.7980, 1765.677
640.2801, 1767.283
640.7622, 1770.092
641.2443, 1780.258
641.7264, 1790.028
642.2086, 1784.712
642.6907, 1767.601
643.1728, 1758.614
643.6549, 1779.224
644.1370, 1803.443
644.6191, 1813.666
645.1013, 1805.083
645.5834, 1796.198
646.0655, 1785.330
646.5476, 1778.279
647.0297, 1780.450
647.5118, 1797.717
647.9940, 1808.016
648.4761, 1807.790
648.9582, 1803.540
649.4403, 1806.337
649.9224, 1815.876
650.4045, 1824.434
650.8867, 1831.848
651.3688, 1834.504
651.8509, 1821.155
652.3330, 1796.489
652.8151, 1778.216
653.2972, 1782.136
653.7794, 1791.465
654.2615, 1794.243
654.7436, 1790.358
655.2257, 1786.716
655.7078, 1781.613
656.1899, 1780.407
656.6721, 1788.195
657.1542, 1810.608
657.6363, 1820.960
658.1184, 1812.744
658.6005, 1801.773
659.0826, 1805.341
659.5648, 1824.722
660.0469, 1838.166
660.5290, 1842.234
661.0111, 1841.416
661.4932, 1841.704
661.9753, 1842.611
662.4575, 1842.603
662.9396, 1841.627
663.4217, 1839.039
663.9038, 1831.105
664.3859, 1820.730
664.8680, 1816.485
665.3502, 1828.740
665.8323, 1841.021
666.3144, 1845.824
666.7965, 1842.478
667.2786, 1841.000
667.7607, 1842.769
668.2429, 1844.350
668.7250, 1842.985
669.2071, 1837.815
669.6892, 1838.900
670.1713, 1847.904
670.6534, 1855.685
671.1355, 1851.263
671.6176, 1837.704
672.0997, 1824.659
672.5818, 1813.114
673.0640, 1805.394
673.5461, 1807.014
674.0282, 1813.193
674.5103, 1816.558
674.9924, 1813.927
675.4745, 1808.972
675.9567, 1801.149
676.4388, 1791.904
676.9209, 1785.891
677.4030, 1789.549
677.8851, 1786.380
678.3672, 1767.894
678.8494, 1738.198
679.3315, 1726.730
679.8136, 1735.968
680.2957, 1748.126
680.7778, 1753.750
681.2599, 1753.644
681.7421, 1746.137
682.2242, 1731.263
682.7063, 1723.491
683.1884, 1749.301
683.6705, 1780.340
684.1526, 1780.155
684.6348, 1730.771
685.1169, 1694.370
685.5990, 1705.844
686.0811, 1734.996
686.5632, 1750.617
687.0453, 1741.362
687.5275, 1736.107
688.0096, 1738.797
688.4917, 1744.263
688.9738, 1742.024
689.4559, 1731.101
689.9380, 1725.544
690.4202, 1732.434
690.9023, 1743.012
691.3844, 1736.341
691.8665, 1716.832
692.3486, 1702.936
692.8307, 1710.184
693.3129, 1722.384
693.7950, 1727.379
694.2771, 1725.310
694.7592, 1720.420
695.2413, 1707.845
695.7234, 1698.138
696.2056, 1698.764
696.6877, 1711.994
697.1698, 1716.209
697.6519, 1705.227
698.1340, 1696.285
698.6161, 1706.785
699.0983, 1736.387
699.5804, 1750.206
700.0625, 1744.168
700.5446, 1733.556
701.0267, 1735.460
701.5089, 1744.839
701.9910, 1751.367
702.4731, 1751.151
702.9552, 1750.945
703.4373, 1756.393
703.9194, 1764.210
704.4016, 1769.648
704.8837, 1771.761
705.3658, 1770.852
705.8479, 1762.867
706.3300, 1752.814
706.8121, 1755.833
707.2943, 1779.338
707.7764, 1790.722
708.2585, 1773.405
708.7406, 1739.706
709.2227, 1735.723
709.7048, 1758.719
710.1870, 1777.759
710.6691, 1763.998
711.1512, 1741.755
711.6333, 1742.957
712.1154, 1766.767
712.5975, 1787.504
713.0797, 1789.151
713.5618, 1786.874
714.0439, 1790.714
714.5260, 1804.783
715.0081, 1812.807
715.4902, 1812.305
715.9724, 1808.336
716.4545, 1802.577
716.9366, 1793.822
717.4187, 1796.972
717.9008, 1815.687
718.3829, 1835.877
718.8651, 1839.865
719.3472, 1832.097
719.8293, 1822.531
720.3114, 1809.920
720.7935, 1805.675
721.2756, 1831.214
721.7578, 1867.699
722.2399, 1886.248
722.7220, 1857.367
723.2041, 1834.973
723.6862, 1834.860
724.1683, 1847.581
724.6505, 1851.656
725.1326, 1842.988
725.6147, 1837.755
726.0968, 1841.660
726.5789, 1851.488
727.0610, 1857.930
727.5432, 1861.098
728.0253, 1862.289
728.5074, 1859.525
728.9895, 1856.820
729.4716, 1861.287
729.9537, 1871.692
730.4359, 1878.230
730.9180, 1870.491
731.4001, 1862.708
731.8822, 1863.294
732.3643, 1874.502
732.8464, 1883.488
733.3285, 1889.801
733.8106, 1894.497
734.2927, 1898.631
734.7748, 1902.292
735.2570, 1900.414
735.7391, 1891.620
736.2212, 1885.718
736.7033, 1896.539
737.1854, 1916.322
737.6675, 1927.899
738.1497, 1926.014
738.6318, 1926.878
739.1139, 1945.064
739.5960, 1969.623
740.0781, 1988.832
740.5602, 1990.963
741.0424, 2001.332
741.5245, 2028.335
742.0066, 2059.772
742.4887, 2077.506
742.9708, 2078.751
743.4529, 2080.664
743.9351, 2085.790
744.4172, 2093.734
744.8993, 2102.945
745.3814, 2114.108
745.8635, 2130.405
746.3456, 2157.405
746.8278, 2185.233
747.3099, 2203.703
747.7920, 2216.320
748.2741, 2231.788
748.7562, 2261.765
749.2383, 2285.531
749.7205, 2299.218
750.2026, 2303.702
750.6847, 2327.294
751.1668, 2339.014
751.6489, 2339.500
752.1310, 2295.106
752.6132, 2308.665
753.0953, 2299.000
753.5774, 2288.382
754.0595, 2310.099
754.5416, 2272.233
755.0237, 2256.766
755.5059, 2249.882
755.9880, 2250.726
756.4701, 2237.809
756.9522, 2185.263
757.4343, 2130.658
757.9164, 2096.760
758.3986, 2087.430
758.8807, 2075.176
759.3628, 2060.452
759.8449, 2042.188
760.3270, 2019.806
760.8091, 1993.527
761.2913, 1960.908
761.7734, 1921.374
762.2555, 1886.015
762.7376, 1865.551
763.2197, 1855.223
763.7018, 1848.663
764.1840, 1844.871
764.6661, 1844.169
765.1482, 1854.271
765.6303, 1863.401
766.1124, 1859.151
766.5945, 1830.549
767.0767, 1809.962
767.5588, 1800.835
768.0409, 1795.930
768.5230, 1783.428
769.0051, 1764.375
769.4872, 1755.050
769.9694, 1760.714
770.4515, 1770.112
770.9336, 1768.032
771.4157, 1760.242
771.8978, 1757.650
772.3799, 1773.345
772.8621, 1782.509
773.3442, 1769.067
773.8263, 1744.387
774.3084, 1730.252
774.7905, 1732.774
775.2726, 1735.577
775.7548, 1736.270
776.2369, 1735.680
776.7190, 1735.821
777.2011, 1736.662
777.6832, 1736.943
778.1653, 1736.054
778.6475, 1734.596
779.1296, 1733.175
779.6117, 1731.798
780.0938, 1730.502
780.5759, 1727.156
781.0580, 1726.056
781.5402, 1730.658
782.0223, 1739.513
782.5044, 1745.366
782.9865, 1748.099
783.4686, 1747.545
783.9507, 1742.089
784.4329, 1733.727
784.9150, 1730.290
785.3971, 1731.663
785.8792, 1734.641
786.3613, 1737.404
786.8434, 1740.854
787.3256, 1749.958
787.8077, 1762.307
788.2898, 1765.286
788.7719, 1737.130
789.2540, 1713.039
789.7361, 1714.960
790.2183, 1742.110
790.7004, 1758.816
791.1825, 1764.191
791.6646, 1760.911
792.1467, 1744.127
792.6288, 1718.455
793.1110, 1715.792
793.5930, 1735.530
794.0751, 1757.123
794.5573, 1765.275
795.0394, 1767.467
795.5215, 1773.117
796.0036, 1782.695
796.4857, 1786.092
796.9678, 1768.537
797.4500, 1753.618
797.9321, 1755.816
798.4142, 1778.022
798.8963, 1792.520
799.3784, 1798.186
799.8605, 1799.750
800.3427, 1799.312
800.8248, 1797.572
801.3069, 1797.536
801.7890, 1799.339
802.2711, 1801.705
802.7532, 1803.838
803.2354, 1805.886
803.7175, 1808.611
804.1996, 1812.619
804.6817, 1813.869
805.1638, 1806.972
805.6459, 1800.820
806.1281, 1800.823
806.6102, 1808.271
807.0923, 1814.352
807.5744, 1818.158
808.0565, 1824.697
808.5386, 1843.664
809.0208, 1868.343
809.5029, 1880.090
809.9850, 1876.200
810.4671, 1868.775
810.9492, 1862.340
811.4313, 1858.512
811.9135, 1857.611
812.3956, 1856.298
812.8777, 1869.267
813.3598, 1906.477
813.8419, 1946.452
814.3240, 1971.091
814.8062, 1979.404
815.2883, 1990.243
815.7704, 2005.301
816.2525, 2017.366
816.7346, 2012.727
817.2167, 2002.209
817.6989, 2003.962
818.1810, 2022.375
818.6631, 2046.812
819.1452, 2086.858
819.6273, 2122.093
820.1094, 2131.095
820.5916, 2095.063
821.0737, 2081.688
821.5558, 2099.580
822.0379, 2124.369
822.5200, 2130.415
823.0021, 2120.415
823.4843, 2112.772
823.9664, 2110.343
824.4485, 2104.178
824.9306, 2081.938
825.4127, 2053.132
825.8948, 2029.048
826.3770, 2013.303
826.8591, 1998.314
827.3412, 1985.895
827.8233, 1970.981
828.3054, 1947.553
828.7875, 1910.326
829.2697, 1888.444
829.7518, 1884.878
830.2339, 1888.916
830.7160, 1893.312
831.1981, 1895.835
831.6802, 1889.345
832.1624, 1871.182
832.6445, 1853.913
833.1266, 1846.210
833.6087, 1843.041
834.0908, 1839.877
834.5729, 1835.472
835.0551, 1832.763
835.5372, 1833.299
836.0193, 1833.454
836.5014, 1830.562
836.9835, 1824.547
837.4656, 1811.456
837.9478, 1789.656
838.4299, 1772.792
838.9120, 1779.776
839.3941, 1797.032
839.8762, 1806.752
840.3583, 1804.854
840.8405, 1799.577
841.3226, 1787.827
841.8047, 1778.231
842.2868, 1778.018
842.7689, 1791.605
843.2510, 1797.905
843.7332, 1795.652
844.2153, 1790.130
844.6974, 1783.740
845.1795, 1778.252
845.6616, 1782.016
846.1437, 1796.679
846.6259, 1805.317
847.1080, 1786.307
847.5901, 1762.701
848.0722, 1754.573
848.5543, 1770.266
849.0364, 1783.441
849.5186, 1794.457
850.0007, 1801.283
850.4828, 1800.728
850.9649, 1793.104
851.4470, 1789.464
851.9291, 1790.237
852.4113, 1792.809
852.8934, 1798.755
853.3755, 1803.258
853.8576, 1797.114
854.3397, 1778.509
854.8218, 1768.623
855.3040, 1785.323
855.7860, 1803.157
856.2681, 1807.234
856.7502, 1796.173
857.2324, 1790.569
857.7145, 1791.664
858.1966, 1792.278
858.6787, 1783.492
859.1608, 1771.346
859.6429, 1771.060
860.1251, 1782.353
860.6072, 1795.005
861.0893, 1805.835
861.5714, 1813.708
862.0535, 1817.554
862.5356, 1816.963
863.0178, 1815.264
863.4999, 1811.665
863.9820, 1808.581
864.4641, 1807.530
864.9462, 1807.995
865.4283, 1806.666
865.9105, 1803.882
866.3926, 1803.146
866.8747, 1812.088
867.3568, 1819.958
867.8389, 1811.608
868.3210, 1790.903
868.8032, 1782.356
869.2853, 1804.425
869.7674, 1825.770
870.2495, 1840.238
870.7316, 1847.450
871.2137, 1840.894
871.6959, 1819.767
872.1780, 1809.429
872.6601, 1829.413
873.1422, 1859.300
873.6243, 1871.590
874.1064, 1869.831
874.5886, 1864.856
875.0707, 1858.508
875.5528, 1852.469
876.0349, 1845.872
876.5170, 1840.067
876.9991, 1839.325
877.4813, 1844.893
877.9634, 1849.869
878.4455, 1851.477
878.9276, 1853.142
879.4097, 1863.021
879.8918, 1878.214
880.3740, 1890.674
880.8561, 1896.239
881.3382, 1900.028
881.8203, 1905.224
882.3024, 1910.175
882.7845, 1911.878
883.2667, 1908.823
883.7488, 1905.484
884.2309, 1901.522
884.7130, 1898.720
885.1951, 1899.966
885.6772, 1904.796
886.1594, 1912.431
886.6415, 1924.300
887.1236, 1932.565
887.6057, 1925.184
888.0878, 1913.431
888.5699, 1910.785
889.0521, 1929.726
889.5342, 1938.405
890.0163, 1929.350
890.4984, 1918.460
890.9805, 1922.786
891.4626, 1941.101
891.9448, 1952.498
892.4269, 1955.368
892.9090, 1950.378
893.3911, 1926.432
893.8732, 1901.313
894.3553, 1898.149
894.8375, 1923.772
895.3196, 1943.466
895.8017, 1950.372
896.2838, 1948.519
896.7659, 1937.185
897.2480, 1916.239
897.7302, 1901.808
898.2123, 1894.348
898.6944, 1890.051
899.1765, 1888.707
899.6586, 1887.739
900.1407, 1882.531
900.6229, 1873.757
901.1050, 1867.524
901.5871, 1869.076
902.0692, 1870.588
902.5513, 1868.016
903.0334, 1862.610
903.5156, 1862.156
903.9977, 1867.325
904.4798, 1872.041
904.9619, 1872.244
905.4440, 1871.928
905.9261, 1883.272
906.4083, 1900.063
906.8904, 1905.279
907.3725, 1874.266
907.8546, 1849.273
908.3367, 1852.386
908.8188, 1870.382
909.3010, 1876.174
909.7831, 1866.559
910.2652, 1858.415
910.7473, 1854.950
911.2294, 1854.246
911.7115, 1852.568
912.1937, 1851.390
912.6758, 1855.234
913.1579, 1869.306
913.6400, 1879.120
914.1221, 1873.531
914.6042, 1862.377
915.0864, 1856.174
915.5685, 1855.260
916.0506, 1860.249
916.5327, 1873.551
917.0148, 1885.903
917.4969, 1885.303
917.9790, 1876.929
918.4611, 1874.576
918.9432, 1879.985
919.4254, 1885.585
919.9075, 1887.481
920.3896, 1887.368
920.8717, 1886.713
921.3538, 1885.861
921.8359, 1880.126
922.3181, 1865.886
922.8002, 1857.043
923.2823, 1867.812
923.7644, 1889.340
924.2465, 1888.249
924.7286, 1868.448
925.2108, 1852.172
925.6929, 1852.526
926.1750, 1859.690
926.6571, 1875.834
927.1392, 1895.522
927.6213, 1892.778
928.1035, 1854.096
928.5856, 1829.233
929.0677, 1834.912
929.5498, 1856.560
930.0319, 1865.827
930.5140, 1865.176
930.9962, 1863.063
931.4783, 1862.557
931.9604, 1861.296
932.4425, 1857.752
932.9246, 1852.681
933.4067, 1846.485
933.8889, 1835.241
934.3710, 1833.775
934.8531, 1846.750
935.3352, 1860.771
935.8173, 1854.648
936.2994, 1836.445
936.7816, 1833.792
937.2637, 1852.005
937.7458, 1867.094
938.2279, 1854.316
938.7100, 1838.664
939.1921, 1842.345
939.6743, 1869.963
940.1564, 1891.344
940.6385, 1907.523
941.1206, 1914.137
941.6027, 1902.136
942.0848, 1879.330
942.5670, 1871.706
943.0491, 1877.434
943.5312, 1885.510
944.0133, 1893.995
944.4954, 1899.006
944.9775, 1894.411
945.4597, 1883.860
945.9418, 1884.936
946.4239, 1905.204
946.9060, 1912.986
947.3881, 1896.319
947.8702, 1869.870
948.3524, 1857.792
948.8345, 1858.068
949.3166, 1866.444
949.7987, 1888.272
950.2808, 1905.460
950.7629, 1906.300
951.2451, 1898.899
951.7272, 1892.998
952.2093, 1889.399
952.6914, 1883.436
953.1735, 1872.620
953.6556, 1867.676
954.1378, 1888.260
954.6199, 1919.955
955.1020, 1932.705
955.5841, 1923.439
956.0662, 1912.628
956.5483, 1909.333
957.0305, 1908.229
957.5126, 1906.401
957.9947, 1903.903
958.4768, 1902.567
958.9589, 1902.569
959.4410, 1902.627
959.9232, 1902.695
960.4053, 1901.950
960.8874, 1898.224
961.3695, 1892.426
961.8516, 1887.322
962.3337, 1879.247
962.8159, 1878.050
963.2980, 1893.771
963.7801, 1913.980
964.2622, 1915.178
964.7443, 1894.895
965.2264, 1886.807
965.7086, 1899.485
966.1907, 1914.522
966.6728, 1908.701
967.1549, 1893.239
967.6370, 1885.006
968.1191, 1891.083
968.6013, 1890.483
969.0834, 1869.230
969.5655, 1850.615
970.0476, 1850.313
970.5297, 1867.986
971.0118, 1878.670
971.4940, 1882.326
971.9761, 1885.013
972.4582, 1894.593
972.9403, 1902.314
973.4224, 1896.194
973.9045, 1879.422
974.3867, 1870.951
974.8688, 1878.972
975.3509, 1888.023
975.8330, 1896.119
976.3151, 1902.040
976.7972, 1901.767
977.2794, 1896.204
977.7615, 1889.368
978.2436, 1880.471
978.7257, 1875.625
979.2078, 1882.187
979.6899, 1893.968
980.1720, 1904.061
980.6541, 1912.366
981.1362, 1917.406
981.6183, 1920.067
982.1005, 1917.276
982.5826, 1900.856
983.0647, 1877.410
983.5468, 1867.312
984.0289, 1871.207
984.5110, 1880.097
984.9932, 1896.186
985.4753, 1908.980
985.9574, 1909.546
986.4395, 1900.838
986.9216, 1898.372
987.4037, 1903.761
987.8859, 1906.781
988.3680, 1903.142
988.8501, 1896.523
989.3322, 1891.504
989.8143, 1888.177
990.2964, 1886.739
990.7786, 1887.003
991.2607, 1889.727
991.7428, 1898.437
992.2249, 1906.930
992.7070, 1907.898
993.1891, 1900.709
993.6713, 1899.817
994.1534, 1906.485
994.6355, 1913.262
995.1176, 1911.032
995.5997, 1907.206
996.0818, 1911.255
996.5640, 1923.740
997.0461, 1930.867
997.5282, 1926.296
998.0103, 1923.442
998.4924, 1927.764
998.9745, 1936.508
999.4567, 1941.377
999.9388, 1942.667
1000.421, 1941.602
1000.903, 1937.101
1001.385, 1932.766
1001.867, 1932.489
1002.349, 1933.264
1002.831, 1930.014
1003.314, 1919.240
1003.796, 1913.717
1004.278, 1914.674
1004.760, 1918.577
1005.242, 1923.936
1005.724, 1928.984
1006.206, 1927.894
1006.688, 1920.385
1007.171, 1918.300
1007.653, 1933.973
1008.135, 1949.304
1008.617, 1956.533
1009.099, 1956.400
1009.581, 1951.532
1010.063, 1941.512
1010.545, 1936.334
1011.027, 1943.465
1011.510, 1951.542
1011.992, 1943.519
1012.474, 1927.965
1012.956, 1919.474
1013.438, 1923.430
1013.920, 1933.730
1014.402, 1954.259
1014.884, 1974.001
1015.367, 1982.594
1015.849, 1980.797
1016.331, 1968.951
1016.813, 1947.422
1017.295, 1933.538
1017.777, 1947.124
1018.259, 1965.636
1018.741, 1975.549
1019.223, 1976.694
1019.706, 1973.473
1020.188, 1964.349
1020.670, 1956.621
1021.152, 1951.723
1021.634, 1951.092
1022.116, 1960.561
1022.598, 1975.572
1023.080, 1986.951
1023.563, 1992.908
1024.045, 1992.495
1024.527, 1976.445
1025.009, 1962.160
1025.491, 1969.279
1025.973, 1998.017
1026.455, 2001.135
1026.937, 1977.069
1027.419, 1953.750
1027.901, 1956.097
1028.384, 1965.914
1028.866, 1964.897
1029.348, 1955.405
1029.830, 1960.522
1030.312, 1990.892
1030.794, 2013.130
1031.276, 2017.831
1031.758, 2012.729
1032.241, 2010.474
1032.723, 2010.308
1033.205, 2010.552
1033.687, 2011.627
1034.169, 2010.492
1034.651, 2001.916
1035.133, 1993.691
1035.615, 1992.197
1036.098, 1998.134
1036.580, 2001.921
1037.062, 2003.390
1037.544, 2004.856
1038.026, 2011.276
1038.508, 2015.805
1038.990, 2006.916
1039.472, 1989.223
1039.954, 1980.231
1040.437, 1990.074
1040.919, 1996.976
1041.401, 1996.475
1041.883, 1994.342
1042.365, 2001.556
1042.847, 2014.836
1043.329, 2023.054
1043.811, 2023.907
1044.293, 2022.596
1044.776, 2023.534
1045.258, 2021.955
1045.740, 2012.751
1046.222, 1996.362
1046.704, 1988.139
1047.186, 1988.430
1047.668, 1993.854
1048.150, 2007.801
1048.633, 2020.575
1049.115, 2016.657
1049.597, 2003.011
1050.079, 1993.749
1050.561, 1996.558
1051.043, 1998.084
1051.525, 1996.297
1052.007, 1995.185
1052.490, 2000.676
1052.972, 2010.593
1053.454, 2015.910
1053.936, 2016.017
1054.418, 2017.447
1054.900, 2028.799
1055.382, 2037.832
1055.864, 2035.255
1056.346, 2024.498
1056.828, 2020.837
1057.311, 2025.216
1057.793, 2023.538
1058.275, 2008.177
1058.757, 1992.493
1059.239, 1995.087
1059.721, 2006.013
1060.203, 2011.593
1060.685, 2007.468
1061.168, 2000.761
1061.650, 1989.777
1062.132, 1980.730
1062.614, 1978.549
1063.096, 1981.912
1063.578, 1988.585
1064.060, 1997.313
1064.542, 2001.749
1065.025, 1993.214
1065.507, 1985.684
1065.989, 1983.877
1066.471, 1987.387
1066.953, 1998.817
1067.435, 2019.052
1067.917, 2029.879
1068.399, 2028.122
1068.881, 2021.197
1069.364, 2017.275
1069.846, 2011.000
1070.328, 1992.708
1070.810, 1959.778
1071.292, 1945.283
1071.774, 1955.249
1072.256, 1969.921
1072.738, 1982.707
1073.220, 1993.608
1073.703, 2003.248
1074.185, 2010.651
1074.667, 2012.609
1075.149, 2001.556
1075.631, 1996.240
1076.113, 2007.492
1076.595, 2021.024
1077.077, 2024.520
1077.559, 2018.381
1078.042, 2015.422
1078.524, 2015.770
1079.006, 2015.344
1079.488, 2011.067
1079.970, 2005.370
1080.452, 1997.151
1080.934, 1989.026
1081.416, 1989.422
1081.899, 2001.123
1082.381, 2009.082
1082.863, 2009.166
1083.345, 2009.488
1083.827, 2028.319
1084.309, 2049.843
1084.791, 2047.809
1085.273, 2014.010
1085.755, 1992.460
1086.238, 1995.884
1086.720, 2003.235
1087.202, 2006.277
1087.684, 2006.691
1088.166, 2011.524
1088.648, 2018.760
1089.130, 2020.296
1089.612, 2006.217
1090.094, 1996.917
1090.577, 2007.427
1091.059, 2023.024
1091.541, 2028.172
1092.023, 2021.262
1092.505, 2023.418
1092.987, 2035.190
1093.469, 2045.282
1093.951, 2041.610
1094.434, 2035.893
1094.916, 2039.648
1095.398, 2050.165
1095.880, 2055.461
1096.362, 2053.300
1096.844, 2050.915
1097.326, 2049.548
1097.808, 2047.905
1098.291, 2042.495
1098.773, 2036.377
1099.255, 2034.344
1099.737, 2036.968
1100.219, 2044.830
1100.701, 2068.545
1101.183, 2082.688
1101.665, 2074.998
1102.147, 2053.091
1102.630, 2037.787
1103.112, 2029.323
1103.594, 2029.641
1104.076, 2045.585
1104.558, 2057.497
1105.040, 2052.316
1105.522, 2040.951
1106.004, 2031.968
1106.486, 2025.009
1106.969, 2025.046
1107.451, 2032.044
1107.933, 2040.366
1108.415, 2050.664
1108.897, 2056.684
1109.379, 2047.707
1109.861, 2031.050
1110.343, 2026.106
1110.826, 2037.936
1111.308, 2047.701
1111.790, 2053.641
1112.272, 2056.648
1112.754, 2057.517
1113.236, 2056.180
1113.718, 2049.895
1114.200, 2039.038
1114.682, 2036.686
1115.165, 2051.219
1115.647, 2065.048
1116.129, 2075.125
1116.611, 2079.478
1117.093, 2070.083
1117.575, 2051.823
1118.057, 2038.478
1118.539, 2034.428
1119.021, 2031.609
1119.504, 2021.243
1119.986, 2017.190
1120.468, 2031.381
1120.950, 2060.217
1121.432, 2067.707
1121.914, 2056.683
1122.396, 2052.394
1122.878, 2075.887
1123.361, 2098.481
1123.843, 2103.059
1124.325, 2095.613
1124.807, 2083.802
1125.289, 2065.765
1125.771, 2054.876
1126.253, 2051.648
1126.735, 2053.017
1127.218, 2056.076
1127.700, 2062.914
1128.182, 2080.549
1128.664, 2104.333
1129.146, 2115.628
1129.628, 2108.622
1130.110, 2102.476
1130.592, 2099.913
1131.074, 2098.684
1131.557, 2096.687
1132.039, 2093.838
1132.521, 2089.507
1133.003, 2083.617
1133.485, 2079.566
1133.967, 2079.372
1134.449, 2079.120
1134.931, 2077.885
1135.413, 2075.770
1135.896, 2073.736
1136.378, 2070.986
1136.860, 2064.317
1137.342, 2050.807
1137.824, 2040.771
1138.306, 2038.342
1138.788, 2040.666
1139.270, 2048.028
1139.752, 2059.050
1140.235, 2064.329
1140.717, 2064.478
1141.199, 2063.577
1141.681, 2064.277
1142.163, 2063.282
1142.645, 2053.916
1143.127, 2045.283
1143.609, 2050.005
1144.092, 2070.416
1144.574, 2075.484
1145.056, 2064.646
1145.538, 2051.529
1146.020, 2042.731
1146.502, 2038.414
1146.984, 2042.915
1147.466, 2051.648
1147.948, 2050.844
1148.431, 2035.823
1148.913, 2035.848
1149.395, 2056.985
1149.877, 2077.467
1150.359, 2070.589
1150.841, 2054.769
1151.323, 2049.193
1151.805, 2054.817
1152.287, 2060.587
1152.770, 2065.406
1153.252, 2071.793
1153.734, 2082.261
1154.216, 2089.941
1154.698, 2079.866
1155.180, 2062.274
1155.662, 2053.458
1156.144, 2057.594
1156.627, 2062.302
1157.109, 2066.815
1157.591, 2069.819
1158.073, 2069.251
1158.555, 2068.499
1159.037, 2078.727
1159.519, 2094.431
1160.001, 2102.986
1160.484, 2102.285
1160.966, 2088.274
1161.448, 2043.690
1161.930, 2009.642
1162.412, 2020.814
1162.894, 2064.241
1163.376, 2083.273
1163.858, 2081.245
1164.340, 2072.598
1164.823, 2056.874
1165.305, 2044.950
1165.787, 2038.356
1166.269, 2038.439
1166.751, 2051.770
1167.233, 2075.684
1167.715, 2079.747
1168.197, 2064.582
1168.679, 2054.735
1169.162, 2073.483
1169.644, 2092.080
1170.126, 2095.115
1170.608, 2089.690
1171.090, 2085.700
1171.572, 2083.136
1172.054, 2083.428
1172.536, 2086.965
1173.019, 2088.119
1173.501, 2080.371
1173.983, 2070.826
1174.465, 2062.172
1174.947, 2055.828
1175.429, 2057.234
1175.911, 2066.628
1176.393, 2078.137
1176.875, 2091.228
1177.358, 2101.531
1177.840, 2105.990
1178.322, 2104.988
1178.804, 2094.548
1179.286, 2075.753
1179.768, 2073.146
1180.250, 2088.160
1180.732, 2103.420
1181.214, 2113.552
1181.697, 2119.352
1182.179, 2117.020
1182.661, 2113.406
1183.143, 2119.639
1183.625, 2140.488
1184.107, 2141.989
1184.589, 2120.349
1185.071, 2103.964
1185.554, 2109.917
1186.036, 2125.609
1186.518, 2141.090
1187.000, 2153.795
1187.482, 2158.636
1187.964, 2152.405
1188.446, 2145.363
1188.928, 2136.903
1189.411, 2130.293
1189.893, 2125.983
1190.375, 2126.286
1190.857, 2139.344
1191.339, 2159.128
1191.821, 2169.973
1192.303, 2164.475
1192.785, 2160.597
1193.267, 2159.687
1193.750, 2158.842
1194.232, 2153.377
1194.714, 2147.445
1195.196, 2146.892
1195.678, 2151.449
1196.160, 2159.078
1196.642, 2172.426
1197.124, 2182.538
1197.606, 2188.314
1198.089, 2190.739
1198.571, 2189.174
1199.053, 2185.951
1199.535, 2185.494
1200.017, 2187.753
1200.499, 2187.254
1200.981, 2181.083
1201.463, 2175.870
1201.945, 2172.761
1202.428, 2171.950
1202.910, 2178.288
1203.392, 2185.293
1203.874, 2179.644
1204.356, 2158.795
1204.838, 2142.755
1205.320, 2135.113
1205.802, 2131.548
1206.285, 2130.643
1206.767, 2133.335
1207.249, 2145.708
1207.731, 2161.472
1208.213, 2169.342
1208.695, 2166.861
1209.177, 2154.909
1209.659, 2122.717
1210.141, 2106.233
1210.624, 2128.636
1211.106, 2166.040
1211.588, 2164.358
1212.070, 2140.751
1212.552, 2132.399
1213.034, 2158.599
1213.516, 2169.695
1213.998, 2151.784
1214.480, 2137.234
1214.963, 2149.044
1215.445, 2171.856
1215.927, 2164.425
1216.409, 2139.801
1216.891, 2128.811
1217.373, 2151.474
1217.855, 2166.558
1218.337, 2169.136
1218.820, 2167.636
1219.302, 2168.154
1219.784, 2168.698
1220.266, 2162.457
1220.748, 2152.301
1221.230, 2145.978
1221.712, 2139.500
1222.194, 2151.047
1222.677, 2191.241
1223.159, 2226.892
1223.641, 2224.193
1224.123, 2199.513
1224.605, 2184.391
1225.087, 2177.582
1225.569, 2173.212
1226.051, 2171.942
1226.533, 2168.648
1227.016, 2161.398
1227.498, 2155.741
1227.980, 2161.338
1228.462, 2170.277
1228.944, 2162.699
1229.426, 2143.580
1229.908, 2139.020
1230.390, 2171.885
1230.872, 2189.688
1231.355, 2181.754
1231.837, 2170.756
1232.319, 2190.837
1232.801, 2220.254
1233.283, 2218.149
1233.765, 2187.921
1234.247, 2174.391
1234.729, 2199.429
1235.212, 2207.250
1235.694, 2183.564
1236.176, 2156.776
1236.658, 2167.733
1237.140, 2194.466
1237.622, 2206.731
1238.104, 2202.517
1238.586, 2195.460
1239.068, 2180.496
1239.551, 2185.924
1240.033, 2224.983
1240.515, 2262.272
1240.997, 2243.275
1241.479, 2203.205
1241.961, 2188.656
1242.443, 2203.569
1242.925, 2206.275
1243.407, 2190.152
1243.890, 2182.783
1244.372, 2193.893
1244.854, 2207.293
1245.336, 2196.610
1245.818, 2181.150
1246.300, 2185.269
1246.782, 2211.994
1247.264, 2227.932
1247.747, 2230.777
1248.229, 2237.198
1248.711, 2254.374
1249.193, 2269.817
1249.675, 2267.974
1250.157, 2259.307
1250.639, 2254.660
1251.121, 2254.728
1251.604, 2256.525
1252.086, 2260.821
1252.568, 2255.539
1253.050, 2232.809
1253.532, 2210.904
1254.014, 2206.097
1254.496, 2211.167
1254.978, 2220.243
1255.460, 2232.570
1255.943, 2247.301
1256.425, 2264.263
1256.907, 2276.431
1257.389, 2283.109
1257.871, 2279.993
1258.353, 2249.473
1258.835, 2219.835
1259.317, 2216.276
1259.799, 2236.685
1260.281, 2257.438
1260.764, 2277.671
1261.246, 2289.127
1261.728, 2287.590
1262.210, 2279.054
1262.692, 2257.936
1263.174, 2239.531
1263.656, 2235.265
1264.138, 2243.483
1264.621, 2257.409
1265.103, 2274.597
1265.585, 2282.786
1266.067, 2272.539
1266.549, 2261.581
1267.031, 2254.143
1267.513, 2250.324
1267.995, 2251.094
1268.478, 2255.339
1268.960, 2261.154
1269.442, 2266.736
1269.924, 2265.797
1270.406, 2248.253
1270.888, 2238.370
1271.370, 2239.795
1271.852, 2248.443
1272.334, 2268.783
1272.817, 2290.503
1273.299, 2278.961
1273.781, 2248.426
1274.263, 2234.662
1274.745, 2261.598
1275.227, 2285.117
1275.709, 2305.305
1276.191, 2317.478
1276.673, 2317.076
1277.156, 2307.947
1277.638, 2289.387
1278.120, 2268.600
1278.602, 2260.954
1279.084, 2277.542
1279.566, 2287.648
1280.048, 2291.072
1280.530, 2289.756
1281.013, 2280.283
1281.495, 2270.996
1281.977, 2272.258
1282.459, 2279.381
1282.941, 2283.284
1283.423, 2281.101
##END=



