##NAMES=Suolunite
##RRUFFID=R060917
##IDEAL CHEMISTRY=Ca_2_Si_2_O_5_(OH)_2_&#183;H_2_O
##LOCALITY=Lac d'Amiante mine, Black Lake, Quebec, Canada
##OWNER=RRUFF
##SOURCE=Royal Ontario Museum
##DESCRIPTION=Large white to pale lavender fragment
##STATUS=The identification of this mineral has been confirmed by X-ray diffraction and chemical analysis
##URL=rruff.info/R060917
##MEASURED CHEMISTRY=Ca_2.00_Si_2.00_O_5_(OH)_2_Â·1.8H_2_O; H_2_O estimated by difference
111.3986, 862.7628
111.8807, 977.7758
112.3628, 1123.898
112.8449, 1320.640
113.3271, 1530.580
113.8092, 1751.569
114.2913, 1984.643
114.7734, 2212.045
115.2555, 2433.598
115.7376, 2645.441
116.2198, 2837.542
116.7019, 2977.247
117.1840, 3117.205
117.6661, 3289.311
118.1482, 3508.089
118.6303, 3731.669
119.1124, 3965.628
119.5946, 4191.216
120.0767, 4359.578
120.5588, 4450.515
121.0409, 4470.771
121.5230, 4421.793
122.0051, 4277.812
122.4873, 4096.780
122.9694, 3915.598
123.4515, 3735.006
123.9336, 3565.034
124.4157, 3407.540
124.8979, 3266.051
125.3800, 3146.677
125.8621, 3055.853
126.3442, 2986.378
126.8263, 2929.477
127.3084, 2885.783
127.7905, 2852.893
128.2727, 2832.736
128.7548, 2823.007
129.2369, 2815.707
129.7190, 2813.706
130.2011, 2811.868
130.6832, 2793.498
131.1654, 2755.820
131.6475, 2707.515
132.1296, 2659.940
132.6117, 2612.829
133.0938, 2565.098
133.5759, 2515.164
134.0581, 2463.060
134.5402, 2412.497
135.0223, 2361.967
135.5044, 2314.188
135.9865, 2274.978
136.4686, 2243.317
136.9508, 2225.485
137.4329, 2228.985
137.9150, 2256.000
138.3971, 2287.458
138.8792, 2318.965
139.3613, 2352.014
139.8434, 2398.994
140.3256, 2462.947
140.8077, 2536.265
141.2898, 2611.490
141.7719, 2683.611
142.2540, 2769.147
142.7361, 2869.257
143.2183, 2984.182
143.7004, 3120.808
144.1825, 3276.653
144.6646, 3456.134
145.1467, 3663.158
145.6288, 3910.544
146.1110, 4170.431
146.5931, 4431.623
147.0752, 4686.375
147.5573, 4968.667
148.0394, 5277.381
148.5215, 5611.722
149.0037, 5976.628
149.4858, 6371.789
149.9679, 6792.368
150.4500, 7241.203
150.9321, 7713.496
151.4142, 8214.726
151.8964, 8750.857
152.3785, 9317.658
152.8606, 9896.706
153.3427, 10526.59
153.8248, 11149.20
154.3069, 11734.12
154.7890, 12374.54
155.2712, 12885.56
155.7533, 13266.52
156.2354, 13508.29
156.7175, 13553.58
157.1996, 13355.35
157.6817, 12973.77
158.1639, 12455.85
158.6460, 11717.54
159.1281, 10928.55
159.6102, 10109.80
160.0923, 9259.381
160.5744, 8466.637
161.0566, 7754.473
161.5387, 7118.049
162.0208, 6552.013
162.5029, 6067.727
162.9850, 5643.893
163.4671, 5272.349
163.9493, 4957.941
164.4314, 4686.044
164.9135, 4459.076
165.3956, 4270.101
165.8777, 4107.570
166.3598, 3968.681
166.8420, 3853.335
167.3241, 3760.642
167.8062, 3689.029
168.2883, 3644.597
168.7704, 3633.805
169.2525, 3653.055
169.7346, 3693.564
170.2168, 3755.197
170.6989, 3833.375
171.1810, 3924.522
171.6631, 4031.301
172.1452, 4145.161
172.6273, 4253.587
173.1095, 4360.570
173.5916, 4487.037
174.0737, 4640.411
174.5558, 4823.659
175.0379, 5039.259
175.5201, 5293.541
176.0022, 5577.347
176.4843, 5869.003
176.9664, 6170.356
177.4485, 6511.997
177.9306, 6916.111
178.4128, 7375.715
178.8949, 7888.041
179.3770, 8485.619
179.8591, 9116.558
180.3412, 9746.636
180.8233, 10382.32
181.3055, 10893.74
181.7876, 11191.20
182.2697, 11274.95
182.7518, 11154.16
183.2339, 10787.18
183.7160, 10222.90
184.1982, 9549.326
184.6803, 8754.983
185.1624, 7942.185
185.6445, 7193.575
186.1266, 6515.605
186.6087, 5902.573
187.0908, 5350.921
187.5730, 4863.210
188.0551, 4478.135
188.5372, 4198.876
189.0193, 3997.266
189.5014, 3837.207
189.9835, 3717.052
190.4657, 3631.049
190.9478, 3593.226
191.4299, 3594.923
191.9120, 3578.903
192.3941, 3544.661
192.8762, 3488.214
193.3584, 3397.751
193.8405, 3272.962
194.3226, 3135.203
194.8047, 2992.910
195.2868, 2846.509
195.7689, 2705.875
196.2511, 2569.165
196.7332, 2439.121
197.2153, 2322.269
197.6974, 2218.040
198.1795, 2126.277
198.6616, 2046.432
199.1438, 1977.651
199.6259, 1924.806
200.1080, 1890.191
200.5901, 1870.534
201.0722, 1857.818
201.5543, 1852.775
202.0364, 1851.271
202.5186, 1848.230
203.0007, 1842.040
203.4828, 1848.227
203.9649, 1873.011
204.4470, 1911.081
204.9291, 1936.944
205.4113, 1946.863
205.8934, 1955.139
206.3755, 1970.020
206.8576, 1989.431
207.3397, 2026.711
207.8218, 2089.076
208.3040, 2172.450
208.7861, 2244.469
209.2682, 2296.397
209.7503, 2352.941
210.2324, 2437.214
210.7145, 2552.849
211.1967, 2681.261
211.6788, 2825.243
212.1609, 2983.061
212.6430, 3127.421
213.1251, 3270.080
213.6072, 3379.497
214.0894, 3424.102
214.5715, 3396.441
215.0536, 3322.313
215.5357, 3193.945
216.0178, 3009.417
216.4999, 2852.410
216.9820, 2725.784
217.4642, 2625.056
217.9463, 2544.087
218.4284, 2482.652
218.9105, 2443.484
219.3926, 2429.942
219.8747, 2443.490
220.3569, 2465.294
220.8390, 2496.308
221.3211, 2534.713
221.8032, 2579.196
222.2853, 2628.271
222.7674, 2685.991
223.2496, 2753.717
223.7317, 2833.129
224.2138, 2915.995
224.6959, 3005.612
225.1780, 3096.636
225.6601, 3182.946
226.1423, 3254.934
226.6244, 3339.282
227.1065, 3445.586
227.5886, 3580.649
228.0707, 3709.902
228.5528, 3835.583
229.0350, 3955.533
229.5171, 4063.157
229.9992, 4149.648
230.4813, 4242.409
230.9634, 4353.500
231.4455, 4494.008
231.9276, 4614.517
232.4098, 4715.949
232.8919, 4797.318
233.3740, 4852.938
233.8561, 4876.511
234.3382, 4886.045
234.8203, 4891.430
235.3025, 4903.438
235.7846, 4873.584
236.2667, 4796.351
236.7488, 4680.134
237.2309, 4538.771
237.7130, 4362.886
238.1952, 4179.405
238.6773, 3996.308
239.1594, 3812.087
239.6415, 3633.008
240.1236, 3453.659
240.6057, 3280.432
241.0879, 3123.679
241.5700, 2986.839
242.0521, 2863.670
242.5342, 2752.625
243.0163, 2654.538
243.4984, 2566.010
243.9806, 2486.681
244.4627, 2416.969
244.9448, 2358.605
245.4269, 2316.031
245.9090, 2277.695
246.3911, 2238.377
246.8732, 2194.926
247.3554, 2159.245
247.8375, 2131.495
248.3196, 2111.400
248.8017, 2099.469
249.2838, 2100.951
249.7659, 2102.274
250.2481, 2097.213
250.7302, 2080.671
251.2123, 2072.803
251.6944, 2075.887
252.1765, 2086.690
252.6586, 2099.096
253.1408, 2114.168
253.6229, 2129.313
254.1050, 2143.239
254.5871, 2154.279
255.0692, 2169.155
255.5513, 2188.284
256.0334, 2211.066
256.5156, 2237.451
256.9977, 2270.358
257.4798, 2301.729
257.9619, 2326.970
258.4440, 2342.227
258.9261, 2365.747
259.4083, 2402.231
259.8904, 2444.192
260.3725, 2474.778
260.8546, 2488.217
261.3367, 2502.512
261.8188, 2525.563
262.3010, 2560.767
262.7831, 2590.898
263.2652, 2611.050
263.7473, 2629.986
264.2294, 2664.982
264.7115, 2717.820
265.1937, 2781.828
265.6758, 2856.877
266.1579, 2944.914
266.6400, 3026.704
267.1221, 3095.709
267.6042, 3164.121
268.0864, 3254.071
268.5685, 3372.619
269.0506, 3495.189
269.5327, 3610.485
270.0148, 3715.625
270.4969, 3834.611
270.9791, 3968.648
271.4612, 4114.968
271.9433, 4269.579
272.4254, 4435.375
272.9075, 4596.940
273.3896, 4745.771
273.8718, 4879.402
274.3539, 5017.835
274.8360, 5164.910
275.3181, 5313.258
275.8002, 5451.442
276.2823, 5577.721
276.7645, 5702.717
277.2466, 5836.098
277.7287, 5978.042
278.2108, 6097.747
278.6929, 6194.449
279.1750, 6272.134
279.6572, 6341.533
280.1393, 6405.147
280.6214, 6434.486
281.1035, 6415.003
281.5856, 6349.057
282.0677, 6261.209
282.5499, 6146.295
283.0320, 6024.882
283.5141, 5917.485
283.9962, 5823.953
284.4783, 5752.768
284.9604, 5712.267
285.4425, 5698.052
285.9247, 5686.306
286.4068, 5677.995
286.8889, 5668.168
287.3710, 5646.516
287.8531, 5614.448
288.3352, 5593.679
288.8174, 5600.075
289.2995, 5622.105
289.7816, 5618.504
290.2637, 5588.124
290.7458, 5542.893
291.2279, 5493.621
291.7101, 5439.686
292.1922, 5376.485
292.6743, 5298.396
293.1564, 5212.838
293.6385, 5139.478
294.1206, 5079.041
294.6028, 5019.982
295.0849, 4948.322
295.5670, 4868.469
296.0491, 4795.883
296.5312, 4739.412
297.0133, 4689.866
297.4955, 4628.132
297.9776, 4556.246
298.4597, 4488.756
298.9418, 4436.016
299.4239, 4397.055
299.9060, 4370.657
300.3882, 4358.223
300.8703, 4356.362
301.3524, 4356.478
301.8345, 4360.561
302.3166, 4382.515
302.7987, 4437.068
303.2809, 4514.605
303.7630, 4598.926
304.2451, 4678.876
304.7272, 4776.303
305.2093, 4912.415
305.6914, 5085.910
306.1736, 5281.735
306.6557, 5496.205
307.1378, 5729.682
307.6199, 5983.017
308.1020, 6259.992
308.5841, 6554.767
309.0663, 6856.271
309.5484, 7174.378
310.0305, 7520.912
310.5126, 7889.641
310.9947, 8301.048
311.4768, 8773.692
311.9590, 9316.805
312.4411, 9893.249
312.9232, 10484.41
313.4053, 11091.18
313.8874, 11702.73
314.3695, 12379.27
314.8517, 13026.96
315.3337, 13613.62
315.8159, 14152.32
316.2980, 14537.87
316.7801, 14734.46
317.2622, 14751.36
317.7443, 14603.76
318.2264, 14200.15
318.7086, 13717.55
319.1907, 13204.49
319.6728, 12656.67
320.1549, 12160.63
320.6370, 11720.62
321.1191, 11352.83
321.6013, 11072.74
322.0834, 10900.92
322.5655, 10804.04
323.0476, 10775.59
323.5297, 10815.20
324.0118, 10920.50
324.4940, 11087.98
324.9761, 11322.57
325.4582, 11628.06
325.9403, 12018.55
326.4224, 12465.26
326.9045, 12973.92
327.3867, 13542.45
327.8688, 14143.25
328.3509, 14737.62
328.8330, 15390.77
329.3151, 16145.62
329.7972, 17066.45
330.2794, 18002.75
330.7615, 18958.14
331.2436, 19933.43
331.7257, 20906.21
332.2078, 21876.62
332.6899, 22853.62
333.1721, 23855.81
333.6542, 24936.40
334.1363, 25916.61
334.6184, 26823.36
335.1005, 27622.01
335.5826, 28253.55
336.0648, 28717.63
336.5469, 29017.32
337.0290, 29168.80
337.5111, 29188.47
337.9932, 28958.24
338.4753, 28438.01
338.9575, 27719.35
339.4396, 26921.11
339.9217, 26032.16
340.4038, 25095.59
340.8859, 24099.59
341.3680, 23055.55
341.8502, 22027.77
342.3323, 21033.13
342.8144, 20061.61
343.2965, 19113.43
343.7786, 18180.53
344.2607, 17319.30
344.7429, 16550.43
345.2250, 15858.36
345.7071, 15169.12
346.1892, 14470.47
346.6713, 13814.65
347.1534, 13244.79
347.6355, 12749.58
348.1176, 12261.26
348.5998, 11754.30
349.0819, 11248.36
349.5640, 10774.83
350.0461, 10327.10
350.5282, 9905.432
351.0103, 9500.037
351.4925, 9117.769
351.9746, 8769.253
352.4567, 8464.296
352.9388, 8181.679
353.4209, 7896.709
353.9030, 7613.947
354.3852, 7348.294
354.8673, 7111.428
355.3494, 6895.055
355.8315, 6691.067
356.3136, 6500.018
356.7957, 6318.164
357.2779, 6144.710
357.7600, 5979.680
358.2421, 5825.589
358.7242, 5675.345
359.2063, 5540.522
359.6884, 5433.513
360.1706, 5355.938
360.6527, 5282.179
361.1348, 5190.952
361.6169, 5100.187
362.0990, 5030.303
362.5811, 4997.302
363.0633, 4975.310
363.5454, 4957.229
364.0275, 4942.791
364.5096, 4931.953
364.9917, 4911.302
365.4738, 4902.471
365.9560, 4919.579
366.4381, 4991.698
366.9202, 5058.834
367.4023, 5105.134
367.8844, 5139.386
368.3665, 5195.271
368.8487, 5286.437
369.3308, 5390.218
369.8129, 5499.298
370.2950, 5622.945
370.7771, 5731.986
371.2592, 5819.732
371.7414, 5895.086
372.2235, 5978.422
372.7056, 6088.640
373.1877, 6176.097
373.6698, 6228.069
374.1519, 6245.249
374.6341, 6216.870
375.1162, 6133.727
375.5983, 6017.981
376.0804, 5893.180
376.5625, 5761.083
377.0446, 5616.421
377.5267, 5457.792
378.0089, 5285.616
378.4910, 5106.055
378.9731, 4916.141
379.4552, 4735.308
379.9373, 4586.600
380.4194, 4467.509
380.9016, 4350.227
381.3837, 4227.562
381.8658, 4106.267
382.3479, 4000.734
382.8300, 3910.703
383.3121, 3824.276
383.7943, 3732.198
384.2764, 3639.162
384.7585, 3556.857
385.2406, 3488.297
385.7227, 3424.875
386.2048, 3359.263
386.6870, 3292.390
387.1691, 3226.432
387.6512, 3155.929
388.1333, 3091.059
388.6154, 3043.857
389.0975, 3015.109
389.5797, 2995.044
390.0618, 2981.989
390.5439, 2972.007
391.0260, 2960.362
391.5081, 2941.187
391.9902, 2924.070
392.4724, 2909.530
392.9545, 2899.697
393.4366, 2905.122
393.9187, 2949.159
394.4008, 2998.179
394.8829, 3027.517
395.3651, 3009.477
395.8472, 3010.167
396.3293, 3054.630
396.8114, 3128.974
397.2935, 3203.252
397.7756, 3270.021
398.2578, 3337.962
398.7399, 3407.539
399.2220, 3472.793
399.7041, 3559.457
400.1862, 3678.736
400.6683, 3813.516
401.1505, 3943.788
401.6326, 4053.392
402.1147, 4184.550
402.5968, 4350.412
403.0789, 4549.253
403.5610, 4744.286
404.0432, 4926.579
404.5253, 5119.808
405.0074, 5342.999
405.4895, 5601.732
405.9716, 5870.601
406.4537, 6145.544
406.9359, 6429.369
407.4180, 6727.396
407.9001, 7041.732
408.3822, 7363.049
408.8643, 7698.491
409.3464, 8043.856
409.8285, 8365.363
410.3106, 8659.597
410.7928, 8930.261
411.2749, 9203.594
411.7570, 9468.395
412.2391, 9663.846
412.7212, 9767.101
413.2033, 9788.565
413.6855, 9737.349
414.1676, 9615.104
414.6497, 9441.710
415.1318, 9220.895
415.6139, 8962.226
416.0960, 8682.485
416.5782, 8376.692
417.0603, 8060.862
417.5424, 7732.417
418.0245, 7403.121
418.5066, 7108.394
418.9887, 6861.530
419.4709, 6654.958
419.9530, 6482.738
420.4351, 6348.328
420.9172, 6238.630
421.3993, 6154.388
421.8814, 6092.099
422.3636, 6047.226
422.8457, 6024.446
423.3278, 6013.450
423.8099, 6018.719
424.2920, 6040.961
424.7741, 6049.849
425.2563, 6044.443
425.7384, 6025.108
426.2205, 5992.979
426.7026, 5954.353
427.1847, 5892.472
427.6668, 5809.332
428.1490, 5701.817
428.6311, 5559.613
429.1132, 5373.239
429.5953, 5167.956
430.0774, 4950.571
430.5595, 4718.636
431.0417, 4501.120
431.5238, 4301.226
432.0059, 4111.817
432.4880, 3920.310
432.9701, 3726.630
433.4522, 3552.014
433.9344, 3402.453
434.4165, 3275.215
434.8986, 3158.074
435.3807, 3051.051
435.8628, 2953.019
436.3449, 2867.247
436.8271, 2789.598
437.3092, 2708.590
437.7913, 2620.139
438.2734, 2535.851
438.7555, 2469.693
439.2376, 2417.866
439.7197, 2370.489
440.2018, 2325.099
440.6840, 2280.331
441.1661, 2233.481
441.6482, 2184.478
442.1303, 2139.705
442.6124, 2102.328
443.0945, 2070.829
443.5767, 2044.069
444.0588, 2022.801
444.5409, 2004.728
445.0230, 1989.480
445.5051, 1976.955
445.9872, 1966.952
446.4694, 1962.735
446.9515, 1958.436
447.4336, 1951.479
447.9157, 1941.116
448.3978, 1929.356
448.8799, 1912.064
449.3621, 1895.628
449.8442, 1889.233
450.3263, 1892.541
450.8084, 1906.952
451.2905, 1936.449
451.7726, 1979.296
452.2548, 2014.070
452.7369, 2038.379
453.2190, 2061.406
453.7011, 2089.308
454.1832, 2121.988
454.6653, 2163.013
455.1475, 2213.915
455.6296, 2272.073
456.1117, 2333.335
456.5938, 2397.626
457.0759, 2469.484
457.5580, 2547.402
458.0402, 2634.947
458.5223, 2735.912
459.0044, 2850.948
459.4865, 2986.989
459.9686, 3170.028
460.4507, 3374.479
460.9329, 3563.870
461.4150, 3702.180
461.8971, 3842.775
462.3792, 4026.038
462.8613, 4241.719
463.3434, 4459.352
463.8256, 4698.224
464.3077, 4908.514
464.7898, 5068.391
465.2719, 5181.949
465.7540, 5219.170
466.2361, 5153.177
466.7183, 5015.544
467.2004, 4845.914
467.6825, 4605.322
468.1646, 4381.493
468.6467, 4183.374
469.1288, 4011.268
469.6110, 3866.351
470.0930, 3747.702
470.5752, 3656.052
471.0573, 3593.007
471.5394, 3562.298
472.0215, 3545.733
472.5036, 3541.626
472.9857, 3552.225
473.4679, 3583.430
473.9500, 3635.311
474.4321, 3698.448
474.9142, 3767.721
475.3963, 3845.529
475.8784, 3947.797
476.3606, 4075.385
476.8427, 4197.435
477.3248, 4306.948
477.8069, 4388.418
478.2890, 4406.131
478.7711, 4343.602
479.2533, 4234.151
479.7354, 4101.089
480.2175, 3944.887
480.6996, 3765.939
481.1817, 3532.771
481.6638, 3302.572
482.1460, 3112.825
482.6281, 2969.705
483.1102, 2844.426
483.5923, 2726.891
484.0744, 2623.042
484.5565, 2537.629
485.0387, 2472.631
485.5208, 2426.028
486.0029, 2400.934
486.4850, 2394.053
486.9671, 2396.765
487.4492, 2410.237
487.9314, 2431.528
488.4135, 2457.818
488.8956, 2486.753
489.3777, 2535.647
489.8598, 2605.990
490.3419, 2694.437
490.8241, 2799.302
491.3062, 2921.441
491.7883, 3055.663
492.2704, 3201.232
492.7525, 3359.330
493.2346, 3537.482
493.7168, 3732.677
494.1989, 3945.123
494.6810, 4161.224
495.1631, 4395.987
495.6452, 4686.426
496.1273, 5034.071
496.6095, 5426.078
497.0916, 5874.129
497.5737, 6344.598
498.0558, 6791.992
498.5379, 7244.818
499.0201, 7620.444
499.5022, 7894.265
499.9843, 8057.980
500.4664, 8066.255
500.9485, 7866.377
501.4306, 7536.677
501.9127, 7098.885
502.3948, 6511.813
502.8770, 5943.176
503.3591, 5386.587
503.8412, 4868.721
504.3233, 4413.250
504.8054, 4034.339
505.2875, 3697.683
505.7697, 3397.296
506.2518, 3131.684
506.7339, 2910.330
507.2160, 2739.291
507.6981, 2592.862
508.1802, 2457.436
508.6624, 2333.257
509.1445, 2227.060
509.6266, 2140.387
510.1087, 2066.393
510.5908, 1995.789
511.0729, 1930.504
511.5551, 1878.942
512.0372, 1851.634
512.5193, 1831.276
513.0014, 1794.715
513.4835, 1745.082
513.9656, 1696.528
514.4478, 1653.363
514.9299, 1617.314
515.4120, 1591.883
515.8941, 1579.719
516.3762, 1566.704
516.8583, 1545.443
517.3405, 1521.053
517.8226, 1499.193
518.3047, 1480.468
518.7868, 1464.874
519.2689, 1453.327
519.7510, 1445.181
520.2332, 1437.984
520.7153, 1434.394
521.1974, 1428.178
521.6795, 1414.990
522.1616, 1392.371
522.6437, 1378.844
523.1259, 1377.015
523.6080, 1379.277
524.0901, 1376.894
524.5722, 1369.796
525.0543, 1363.225
525.5364, 1358.029
526.0186, 1354.206
526.5007, 1353.399
526.9828, 1354.857
527.4649, 1353.533
527.9470, 1341.788
528.4291, 1327.567
528.9113, 1323.388
529.3934, 1330.558
529.8755, 1335.598
530.3576, 1325.117
530.8397, 1309.520
531.3218, 1300.403
531.8040, 1310.815
532.2861, 1315.825
532.7682, 1301.635
533.2503, 1275.782
533.7324, 1257.948
534.2145, 1257.323
534.6967, 1258.703
535.1788, 1257.481
535.6609, 1253.165
536.1430, 1251.645
536.6251, 1255.656
537.1072, 1258.711
537.5894, 1254.308
538.0715, 1240.765
538.5536, 1230.628
539.0357, 1225.691
539.5178, 1224.052
539.9999, 1223.538
540.4821, 1223.916
540.9642, 1221.813
541.4463, 1212.666
541.9284, 1201.175
542.4105, 1197.750
542.8926, 1201.795
543.3748, 1205.969
543.8569, 1204.038
544.3390, 1199.640
544.8211, 1197.268
545.3032, 1198.852
545.7853, 1199.104
546.2675, 1191.244
546.7495, 1181.501
547.2316, 1178.769
547.7137, 1197.616
548.1959, 1210.634
548.6780, 1206.323
549.1601, 1187.167
549.6422, 1178.723
550.1243, 1187.619
550.6064, 1198.814
551.0886, 1205.572
551.5707, 1207.273
552.0528, 1207.474
552.5349, 1205.953
553.0170, 1203.407
553.4991, 1201.590
553.9813, 1200.344
554.4634, 1193.880
554.9455, 1177.190
555.4276, 1159.745
555.9097, 1162.119
556.3918, 1180.523
556.8740, 1197.351
557.3561, 1201.289
557.8382, 1199.305
558.3203, 1198.594
558.8024, 1199.591
559.2845, 1200.055
559.7667, 1198.353
560.2488, 1195.792
560.7309, 1193.167
561.2130, 1186.975
561.6951, 1186.366
562.1772, 1199.663
562.6594, 1218.555
563.1415, 1226.590
563.6236, 1213.953
564.1057, 1204.672
564.5878, 1205.888
565.0699, 1216.109
565.5521, 1219.622
566.0342, 1214.574
566.5163, 1208.335
566.9984, 1206.184
567.4805, 1207.738
567.9626, 1206.536
568.4448, 1201.298
568.9269, 1197.693
569.4090, 1205.000
569.8911, 1219.292
570.3732, 1230.030
570.8553, 1231.312
571.3375, 1230.847
571.8196, 1238.252
572.3017, 1250.141
572.7838, 1256.444
573.2659, 1242.750
573.7480, 1230.522
574.2302, 1234.872
574.7123, 1259.375
575.1944, 1274.481
575.6765, 1265.297
576.1586, 1251.994
576.6407, 1247.850
577.1229, 1257.693
577.6050, 1267.443
578.0871, 1277.912
578.5692, 1287.128
579.0513, 1290.197
579.5334, 1285.982
580.0156, 1283.696
580.4977, 1285.824
580.9798, 1292.030
581.4619, 1303.785
581.9440, 1320.495
582.4261, 1334.219
582.9083, 1335.478
583.3904, 1331.645
583.8725, 1335.375
584.3546, 1348.585
584.8367, 1359.664
585.3188, 1356.534
585.8010, 1348.963
586.2831, 1347.710
586.7652, 1359.302
587.2473, 1372.896
587.7294, 1383.729
588.2115, 1394.720
588.6937, 1413.631
589.1758, 1453.334
589.6579, 1483.733
590.1400, 1493.885
590.6221, 1485.355
591.1042, 1486.064
591.5864, 1497.692
592.0685, 1513.573
592.5506, 1529.384
593.0327, 1545.310
593.5148, 1564.330
593.9969, 1587.231
594.4791, 1610.604
594.9612, 1629.061
595.4433, 1645.100
595.9254, 1664.443
596.4075, 1689.317
596.8896, 1717.548
597.3718, 1745.804
597.8539, 1775.746
598.3360, 1811.227
598.8181, 1855.709
599.3002, 1904.575
599.7823, 1952.550
600.2645, 1999.080
600.7466, 2062.176
601.2287, 2156.020
601.7108, 2253.454
602.1929, 2338.292
602.6750, 2400.245
603.1572, 2479.344
603.6393, 2578.628
604.1214, 2691.001
604.6035, 2806.422
605.0856, 2925.654
605.5677, 3062.999
606.0499, 3224.889
606.5320, 3405.005
607.0141, 3589.657
607.4962, 3781.778
607.9783, 3998.022
608.4604, 4251.696
608.9425, 4528.637
609.4246, 4807.853
609.9067, 5092.268
610.3889, 5404.602
610.8710, 5747.141
611.3531, 6126.847
611.8352, 6546.412
612.3173, 7010.166
612.7994, 7513.907
613.2816, 8064.174
613.7637, 8652.591
614.2458, 9269.181
614.7279, 9905.000
615.2100, 10599.25
615.6921, 11362.18
616.1743, 12183.39
616.6564, 13033.52
617.1385, 13912.09
617.6206, 14772.63
618.1027, 15632.42
618.5848, 16450.86
619.0670, 17209.78
619.5491, 17898.67
620.0312, 18411.96
620.5133, 18726.11
620.9954, 18808.24
621.4775, 18623.91
621.9597, 18155.33
622.4418, 17466.13
622.9239, 16468.11
623.4060, 15315.08
623.8881, 14142.82
624.3702, 12908.09
624.8524, 11741.66
625.3345, 10637.96
625.8166, 9608.678
626.2987, 8699.558
626.7808, 7914.703
627.2629, 7211.916
627.7451, 6578.733
628.2272, 6017.035
628.7093, 5543.076
629.1914, 5155.585
629.6735, 4814.200
630.1556, 4506.862
630.6378, 4228.874
631.1199, 3979.566
631.6020, 3759.178
632.0841, 3559.778
632.5662, 3377.271
633.0483, 3212.781
633.5305, 3066.853
634.0126, 2948.623
634.4947, 2839.554
634.9768, 2735.887
635.4589, 2639.649
635.9410, 2555.089
636.4232, 2483.061
636.9053, 2420.743
637.3874, 2371.906
637.8695, 2330.826
638.3516, 2273.887
638.8337, 2198.628
639.3159, 2129.016
639.7980, 2077.981
640.2801, 2041.057
640.7622, 2009.650
641.2443, 1983.135
641.7264, 1953.154
642.2086, 1904.383
642.6907, 1853.344
643.1728, 1820.459
643.6549, 1812.047
644.1370, 1806.419
644.6191, 1801.169
645.1013, 1791.085
645.5834, 1770.670
646.0655, 1721.519
646.5476, 1685.864
647.0297, 1671.885
647.5118, 1669.846
647.9940, 1659.323
648.4761, 1637.433
648.9582, 1618.041
649.4403, 1605.851
649.9224, 1598.682
650.4045, 1588.238
650.8867, 1574.764
651.3688, 1563.851
651.8509, 1564.199
652.3330, 1566.822
652.8151, 1557.410
653.2972, 1535.572
653.7794, 1513.685
654.2615, 1497.722
654.7436, 1485.774
655.2257, 1477.004
655.7078, 1474.119
656.1899, 1467.928
656.6721, 1450.080
657.1542, 1432.337
657.6363, 1428.542
658.1184, 1445.722
658.6005, 1457.398
659.0826, 1460.127
659.5648, 1455.239
660.0469, 1442.220
660.5290, 1421.480
661.0111, 1405.883
661.4932, 1403.161
661.9753, 1407.076
662.4575, 1407.848
662.9396, 1406.126
663.4217, 1405.062
663.9038, 1408.425
664.3859, 1411.801
664.8680, 1411.140
665.3502, 1405.858
665.8323, 1402.091
666.3144, 1402.292
666.7965, 1403.791
667.2786, 1404.839
667.7607, 1404.903
668.2429, 1406.189
668.7250, 1410.465
669.2071, 1413.188
669.6892, 1407.094
670.1713, 1392.225
670.6534, 1381.688
671.1355, 1379.485
671.6176, 1379.070
672.0997, 1367.815
672.5818, 1350.107
673.0640, 1337.818
673.5461, 1343.012
674.0282, 1349.634
674.5103, 1344.036
674.9924, 1330.070
675.4745, 1321.682
675.9567, 1332.180
676.4388, 1340.774
676.9209, 1337.909
677.4030, 1323.533
677.8851, 1310.482
678.3672, 1297.054
678.8494, 1288.321
679.3315, 1289.938
679.8136, 1301.937
680.2957, 1306.652
680.7778, 1302.498
681.2599, 1297.669
681.7421, 1302.331
682.2242, 1312.294
682.7063, 1318.879
683.1884, 1320.445
683.6705, 1317.948
684.1526, 1308.832
684.6348, 1297.151
685.1169, 1288.318
685.5990, 1284.949
686.0811, 1283.475
686.5632, 1285.769
687.0453, 1289.198
687.5275, 1287.125
688.0096, 1275.894
688.4917, 1267.739
688.9738, 1266.171
689.4559, 1270.210
689.9380, 1277.033
690.4202, 1286.579
690.9023, 1294.610
691.3844, 1300.338
691.8665, 1301.983
692.3486, 1292.899
692.8307, 1273.723
693.3129, 1259.847
693.7950, 1266.907
694.2771, 1278.931
694.7592, 1282.986
695.2413, 1274.564
695.7234, 1268.096
696.2056, 1265.836
696.6877, 1266.363
697.1698, 1269.405
697.6519, 1276.801
698.1340, 1280.313
698.6161, 1278.319
699.0983, 1274.516
699.5804, 1273.987
700.0625, 1276.500
700.5446, 1280.857
701.0267, 1288.199
701.5089, 1294.553
701.9910, 1295.052
702.4731, 1290.927
702.9552, 1285.004
703.4373, 1275.579
703.9194, 1267.483
704.4016, 1262.822
704.8837, 1261.310
705.3658, 1261.171
705.8479, 1260.397
706.3300, 1263.458
706.8121, 1273.825
707.2943, 1290.746
707.7764, 1300.037
708.2585, 1301.197
708.7406, 1297.985
709.2227, 1289.086
709.7048, 1278.035
710.1870, 1276.544
710.6691, 1285.349
711.1512, 1296.817
711.6333, 1309.394
712.1154, 1319.514
712.5975, 1322.508
713.0797, 1315.435
713.5618, 1308.446
714.0439, 1304.273
714.5260, 1301.727
715.0081, 1299.644
715.4902, 1298.224
715.9724, 1296.796
716.4545, 1295.234
716.9366, 1293.737
717.4187, 1292.864
717.9008, 1292.557
718.3829, 1291.585
718.8651, 1289.107
719.3472, 1286.697
719.8293, 1285.886
720.3114, 1286.843
720.7935, 1289.977
721.2756, 1299.359
721.7578, 1307.274
722.2399, 1308.489
722.7220, 1304.361
723.2041, 1301.078
723.6862, 1301.777
724.1683, 1300.699
724.6505, 1295.433
725.1326, 1286.492
725.6147, 1279.201
726.0968, 1273.155
726.5789, 1270.935
727.0610, 1279.070
727.5432, 1292.153
728.0253, 1290.033
728.5074, 1272.848
728.9895, 1255.943
729.4716, 1249.696
729.9537, 1250.282
730.4359, 1255.625
730.9180, 1266.947
731.4001, 1274.672
731.8822, 1274.166
732.3643, 1270.329
732.8464, 1266.677
733.3285, 1261.198
733.8106, 1261.842
734.2927, 1271.952
734.7748, 1282.502
735.2570, 1280.964
735.7391, 1268.652
736.2212, 1256.703
736.7033, 1246.003
737.1854, 1240.089
737.6675, 1245.709
738.1497, 1258.605
738.6318, 1271.282
739.1139, 1285.048
739.5960, 1293.416
740.0781, 1286.682
740.5602, 1273.293
741.0424, 1273.874
741.5245, 1301.562
742.0066, 1323.327
742.4887, 1331.777
742.9708, 1329.964
743.4529, 1327.907
743.9351, 1325.739
744.4172, 1319.290
744.8993, 1301.812
745.3814, 1281.646
745.8635, 1275.929
746.3456, 1282.131
746.8278, 1288.900
747.3099, 1288.297
747.7920, 1287.364
748.2741, 1292.122
748.7562, 1302.756
749.2383, 1308.398
749.7205, 1306.683
750.2026, 1300.922
750.6847, 1291.502
751.1668, 1278.084
751.6489, 1265.891
752.1310, 1253.657
752.6132, 1248.898
753.0953, 1262.569
753.5774, 1288.167
754.0595, 1308.321
754.5416, 1322.028
755.0237, 1329.136
755.5059, 1322.000
755.9880, 1312.613
756.4701, 1314.204
756.9522, 1336.824
757.4343, 1348.947
757.9164, 1335.560
758.3986, 1316.714
758.8807, 1308.188
759.3628, 1312.272
759.8449, 1319.140
760.3270, 1330.007
760.8091, 1338.874
761.2913, 1332.466
761.7734, 1316.556
762.2555, 1314.490
762.7376, 1337.258
763.2197, 1360.216
763.7018, 1358.369
764.1840, 1343.620
764.6661, 1333.369
765.1482, 1335.554
765.6303, 1339.827
766.1124, 1345.518
766.5945, 1351.638
767.0767, 1356.256
767.5588, 1358.675
768.0409, 1361.858
768.5230, 1366.967
769.0051, 1372.408
769.4872, 1372.620
769.9694, 1369.293
770.4515, 1371.531
770.9336, 1388.074
771.4157, 1407.179
771.8978, 1417.984
772.3799, 1422.581
772.8621, 1426.842
773.3442, 1433.150
773.8263, 1439.066
774.3084, 1442.318
774.7905, 1444.265
775.2726, 1451.892
775.7548, 1466.699
776.2369, 1482.820
776.7190, 1498.576
777.2011, 1513.600
777.6832, 1525.211
778.1653, 1533.862
778.6475, 1542.881
779.1296, 1552.675
779.6117, 1564.971
780.0938, 1583.011
780.5759, 1606.003
781.0580, 1627.450
781.5402, 1641.106
782.0223, 1656.712
782.5044, 1679.021
782.9865, 1708.010
783.4686, 1736.998
783.9507, 1765.969
784.4329, 1795.434
784.9150, 1826.576
785.3971, 1859.144
785.8792, 1890.707
786.3613, 1921.443
786.8434, 1954.271
787.3256, 1990.469
787.8077, 2030.012
788.2898, 2074.798
788.7719, 2125.591
789.2540, 2173.723
789.7361, 2213.365
790.2183, 2252.348
790.7004, 2294.161
791.1825, 2339.129
791.6646, 2388.277
792.1467, 2443.152
792.6288, 2496.225
793.1110, 2537.640
793.5930, 2571.912
794.0751, 2615.522
794.5573, 2670.607
795.0394, 2726.056
795.5215, 2774.937
796.0036, 2817.567
796.4857, 2853.782
796.9678, 2880.410
797.4500, 2908.630
797.9321, 2956.226
798.4142, 2991.657
798.8963, 2986.827
799.3784, 2936.653
799.8605, 2878.245
800.3427, 2815.427
800.8248, 2737.834
801.3069, 2616.216
801.7890, 2472.131
802.2711, 2355.906
802.7532, 2281.732
803.2354, 2219.358
803.7175, 2146.794
804.1996, 2076.058
804.6817, 2019.642
805.1638, 1991.352
805.6459, 1960.116
806.1281, 1920.732
806.6102, 1883.703
807.0923, 1864.510
807.5744, 1863.210
808.0565, 1859.704
808.5386, 1851.202
809.0208, 1839.642
809.5029, 1825.316
809.9850, 1810.111
810.4671, 1797.344
810.9492, 1786.950
811.4313, 1781.176
811.9135, 1784.538
812.3956, 1791.609
812.8777, 1794.727
813.3598, 1788.539
813.8419, 1789.782
814.3240, 1802.185
814.8062, 1818.843
815.2883, 1826.059
815.7704, 1826.385
816.2525, 1839.750
816.7346, 1873.707
817.2167, 1913.423
817.6989, 1947.569
818.1810, 1976.308
818.6631, 1999.739
819.1452, 1999.693
819.6273, 2018.634
820.1094, 2079.861
820.5916, 2157.915
821.0737, 2220.049
821.5558, 2260.384
822.0379, 2306.259
822.5200, 2360.630
823.0021, 2423.575
823.4843, 2499.013
823.9664, 2583.605
824.4485, 2668.102
824.9306, 2744.375
825.4127, 2830.675
825.8948, 2944.577
826.3770, 3074.748
826.8591, 3206.156
827.3412, 3327.956
827.8233, 3459.655
828.3054, 3599.339
828.7875, 3751.064
829.2697, 3920.594
829.7518, 4110.332
830.2339, 4301.617
830.7160, 4491.810
831.1981, 4688.306
831.6802, 4904.521
832.1624, 5134.879
832.6445, 5365.589
833.1266, 5600.369
833.6087, 5823.163
834.0908, 6035.398
834.5729, 6227.828
835.0551, 6395.923
835.5372, 6551.772
836.0193, 6647.450
836.5014, 6672.683
836.9835, 6644.260
837.4656, 6588.943
837.9478, 6503.740
838.4299, 6370.711
838.9120, 6174.341
839.3941, 5952.805
839.8762, 5731.573
840.3583, 5507.469
840.8405, 5275.184
841.3226, 5016.031
841.8047, 4776.144
842.2868, 4560.911
842.7689, 4363.890
843.2510, 4180.555
843.7332, 4011.073
844.2153, 3852.305
844.6974, 3703.279
845.1795, 3565.777
845.6616, 3446.484
846.1437, 3340.802
846.6259, 3241.255
847.1080, 3144.944
847.5901, 3056.400
848.0722, 2979.350
848.5543, 2910.433
849.0364, 2845.133
849.5186, 2783.506
850.0007, 2723.553
850.4828, 2663.998
850.9649, 2608.651
851.4470, 2563.894
851.9291, 2527.968
852.4113, 2493.359
852.8934, 2459.037
853.3755, 2423.605
853.8576, 2377.887
854.3397, 2334.520
854.8218, 2307.343
855.3040, 2306.371
855.7860, 2308.223
856.2681, 2313.956
856.7502, 2318.605
857.2324, 2316.205
857.7145, 2306.430
858.1966, 2302.141
858.6787, 2305.566
859.1608, 2306.083
859.6429, 2288.143
860.1251, 2262.357
860.6072, 2243.094
861.0893, 2233.141
861.5714, 2227.857
862.0535, 2229.866
862.5356, 2232.562
863.0178, 2230.668
863.4999, 2222.520
863.9820, 2216.324
864.4641, 2211.803
864.9462, 2210.617
865.4283, 2217.935
865.9105, 2229.270
866.3926, 2232.363
866.8747, 2226.208
867.3568, 2218.068
867.8389, 2211.062
868.3210, 2205.359
868.8032, 2200.400
869.2853, 2195.586
869.7674, 2197.180
870.2495, 2210.590
870.7316, 2220.793
871.2137, 2213.960
871.6959, 2193.882
872.1780, 2196.991
872.6601, 2222.368
873.1422, 2242.971
873.6243, 2233.440
874.1064, 2214.574
874.5886, 2205.022
875.0707, 2205.573
875.5528, 2208.308
876.0349, 2212.425
876.5170, 2217.148
876.9991, 2221.593
877.4813, 2226.160
877.9634, 2235.380
878.4455, 2249.489
878.9276, 2263.403
879.4097, 2275.097
879.8918, 2284.312
880.3740, 2289.338
880.8561, 2291.219
881.3382, 2293.884
881.8203, 2297.373
882.3024, 2303.704
882.7845, 2312.228
883.2667, 2324.110
883.7488, 2346.833
884.2309, 2384.237
884.7130, 2413.305
885.1951, 2423.667
885.6772, 2425.434
886.1594, 2438.606
886.6415, 2459.428
887.1236, 2477.511
887.6057, 2475.847
888.0878, 2483.999
888.5699, 2524.730
889.0521, 2582.483
889.5342, 2626.189
890.0163, 2652.301
890.4984, 2669.636
890.9805, 2674.794
891.4626, 2680.536
891.9448, 2710.914
892.4269, 2760.474
892.9090, 2811.483
893.3911, 2862.089
893.8732, 2905.547
894.3553, 2928.870
894.8375, 2945.949
895.3196, 2972.720
895.8017, 3018.036
896.2838, 3063.432
896.7659, 3108.513
897.2480, 3154.719
897.7302, 3203.122
898.2123, 3253.625
898.6944, 3313.875
899.1765, 3385.013
899.6586, 3456.283
900.1407, 3517.268
900.6229, 3573.781
901.1050, 3627.472
901.5871, 3675.404
902.0692, 3741.502
902.5513, 3839.023
903.0334, 3941.803
903.5156, 4032.823
903.9977, 4113.210
904.4798, 4203.158
904.9619, 4302.569
905.4440, 4414.329
905.9261, 4543.404
906.4083, 4683.376
906.8904, 4832.094
907.3725, 4987.850
907.8546, 5142.319
908.3367, 5279.204
908.8188, 5430.751
909.3010, 5605.503
909.7831, 5801.764
910.2652, 6004.542
910.7473, 6213.436
911.2294, 6442.917
911.7115, 6706.785
912.1937, 6991.447
912.6758, 7273.333
913.1579, 7560.785
913.6400, 7882.163
914.1221, 8252.742
914.6042, 8652.540
915.0864, 9069.643
915.5685, 9514.760
916.0506, 10012.64
916.5327, 10568.09
917.0148, 11148.39
917.4969, 11746.37
917.9790, 12379.88
918.4611, 13063.15
918.9432, 13801.40
919.4254, 14602.06
919.9075, 15460.63
920.3896, 16401.06
920.8717, 17442.81
921.3538, 18560.90
921.8359, 19706.75
922.3181, 20868.64
922.8002, 22157.85
923.2823, 23586.71
923.7644, 25111.06
924.2465, 26675.49
924.7286, 28274.79
925.2108, 29892.01
925.6929, 31532.09
926.1750, 33142.14
926.6571, 34756.87
927.1392, 36298.38
927.6213, 37775.46
928.1035, 39166.11
928.5856, 40301.77
929.0677, 41190.21
929.5498, 41792.15
930.0319, 42143.54
930.5140, 42175.66
930.9962, 41741.84
931.4783, 40869.31
931.9604, 39710.73
932.4425, 38213.17
932.9246, 36551.83
933.4067, 34704.36
933.8889, 32750.94
934.3710, 30818.35
934.8531, 28913.60
935.3352, 27066.16
935.8173, 25312.53
936.2994, 23641.79
936.7816, 22073.74
937.2637, 20602.55
937.7458, 19249.36
938.2279, 18033.43
938.7100, 16913.83
939.1921, 15902.44
939.6743, 14986.81
940.1564, 14132.85
940.6385, 13343.44
941.1206, 12629.81
941.6027, 11989.97
942.0848, 11408.17
942.5670, 10864.34
943.0491, 10369.26
943.5312, 9928.612
944.0133, 9547.309
944.4954, 9196.909
944.9775, 8883.398
945.4597, 8582.507
945.9418, 8278.993
946.4239, 7972.286
946.9060, 7706.027
947.3881, 7481.472
947.8702, 7270.513
948.3524, 7052.573
948.8345, 6840.671
949.3166, 6653.604
949.7987, 6488.317
950.2808, 6339.594
950.7629, 6226.686
951.2451, 6106.364
951.7272, 5959.473
952.2093, 5800.829
952.6914, 5665.327
953.1735, 5554.364
953.6556, 5438.366
954.1378, 5307.065
954.6199, 5179.251
955.1020, 5077.190
955.5841, 4992.340
956.0662, 4912.914
956.5483, 4840.647
957.0305, 4763.113
957.5126, 4665.520
957.9947, 4574.202
958.4768, 4516.058
958.9589, 4491.689
959.4410, 4449.051
959.9232, 4385.368
960.4053, 4319.018
960.8874, 4263.731
961.3695, 4213.367
961.8516, 4156.579
962.3337, 4093.748
962.8159, 4054.056
963.2980, 4058.447
963.7801, 4065.282
964.2622, 4061.337
964.7443, 4049.151
965.2264, 4041.718
965.7086, 4037.669
966.1907, 4023.470
966.6728, 3976.268
967.1549, 3937.502
967.6370, 3950.575
968.1191, 3995.269
968.6013, 4033.470
969.0834, 4054.813
969.5655, 4076.360
970.0476, 4099.016
970.5297, 4123.291
971.0118, 4148.432
971.4940, 4175.780
971.9761, 4211.881
972.4582, 4258.582
972.9403, 4310.145
973.4224, 4362.170
973.9045, 4418.972
974.3867, 4483.654
974.8688, 4556.941
975.3509, 4641.103
975.8330, 4739.271
976.3151, 4838.031
976.7972, 4921.082
977.2794, 5000.414
977.7615, 5112.371
978.2436, 5253.337
978.7257, 5408.516
979.2078, 5570.111
979.6899, 5743.697
980.1720, 5932.376
980.6541, 6135.816
981.1362, 6358.527
981.6183, 6601.030
982.1005, 6856.722
982.5826, 7118.301
983.0647, 7408.567
983.5468, 7769.422
984.0289, 8174.684
984.5110, 8571.688
984.9932, 8944.113
985.4753, 9333.681
985.9574, 9739.582
986.4395, 10180.75
986.9216, 10675.93
987.4037, 11227.43
987.8859, 11781.67
988.3680, 12334.52
988.8501, 12881.43
989.3322, 13416.17
989.8143, 13943.54
990.2964, 14491.06
990.7786, 15040.24
991.2607, 15522.77
991.7428, 15930.76
992.2249, 16255.67
992.7070, 16510.79
993.1891, 16665.96
993.6713, 16641.95
994.1534, 16451.91
994.6355, 16161.38
995.1176, 15783.56
995.5997, 15319.08
996.0818, 14740.85
996.5640, 14091.68
997.0461, 13410.10
997.5282, 12684.84
998.0103, 11990.14
998.4924, 11323.29
998.9745, 10687.41
999.4567, 10084.08
999.9388, 9509.738
1000.421, 8976.434
1000.903, 8479.798
1001.385, 8000.571
1001.867, 7517.927
1002.349, 7067.711
1002.831, 6675.561
1003.314, 6330.567
1003.796, 6004.577
1004.278, 5693.545
1004.760, 5418.899
1005.242, 5188.756
1005.724, 4985.651
1006.206, 4781.865
1006.688, 4588.407
1007.171, 4419.590
1007.653, 4287.139
1008.135, 4159.466
1008.617, 4025.816
1009.099, 3901.051
1009.581, 3797.635
1010.063, 3713.543
1010.545, 3639.535
1011.027, 3574.992
1011.510, 3512.411
1011.992, 3445.864
1012.474, 3380.754
1012.956, 3318.967
1013.438, 3261.495
1013.920, 3215.238
1014.402, 3184.604
1014.884, 3153.704
1015.367, 3116.701
1015.849, 3080.356
1016.331, 3055.037
1016.813, 3040.063
1017.295, 3035.697
1017.777, 3048.402
1018.259, 3054.991
1018.741, 3037.565
1019.223, 3016.874
1019.706, 3009.493
1020.188, 3017.398
1020.670, 3024.849
1021.152, 3032.080
1021.634, 3035.853
1022.116, 3027.761
1022.598, 3019.102
1023.080, 3026.301
1023.563, 3045.795
1024.045, 3056.883
1024.527, 3040.526
1025.009, 3037.980
1025.491, 3060.591
1025.973, 3096.860
1026.455, 3126.325
1026.937, 3149.902
1027.419, 3169.027
1027.901, 3179.740
1028.384, 3202.362
1028.866, 3262.839
1029.348, 3332.206
1029.830, 3379.992
1030.312, 3398.140
1030.794, 3446.830
1031.276, 3529.887
1031.758, 3624.112
1032.241, 3716.083
1032.723, 3807.269
1033.205, 3900.463
1033.687, 3995.329
1034.169, 4093.708
1034.651, 4193.373
1035.133, 4300.677
1035.615, 4430.125
1036.098, 4555.364
1036.580, 4637.866
1037.062, 4677.264
1037.544, 4672.117
1038.026, 4621.214
1038.508, 4528.903
1038.990, 4381.991
1039.472, 4205.701
1039.954, 4019.179
1040.437, 3823.677
1040.919, 3620.279
1041.401, 3401.383
1041.883, 3196.176
1042.365, 3013.576
1042.847, 2855.511
1043.329, 2731.634
1043.811, 2634.174
1044.293, 2542.005
1044.776, 2441.109
1045.258, 2352.633
1045.740, 2282.135
1046.222, 2225.493
1046.704, 2180.276
1047.186, 2146.174
1047.668, 2110.960
1048.150, 2073.372
1048.633, 2038.682
1049.115, 2014.228
1049.597, 1992.633
1050.079, 1969.107
1050.561, 1943.048
1051.043, 1910.414
1051.525, 1866.302
1052.007, 1832.557
1052.490, 1820.007
1052.972, 1816.619
1053.454, 1798.064
1053.936, 1771.466
1054.418, 1753.396
1054.900, 1756.839
1055.382, 1753.724
1055.864, 1733.183
1056.346, 1706.448
1056.828, 1677.914
1057.311, 1647.708
1057.793, 1638.353
1058.275, 1649.426
1058.757, 1655.808
1059.239, 1630.362
1059.721, 1602.849
1060.203, 1599.597
1060.685, 1613.927
1061.168, 1615.717
1061.650, 1598.846
1062.132, 1586.204
1062.614, 1582.932
1063.096, 1583.106
1063.578, 1580.588
1064.060, 1575.046
1064.542, 1563.525
1065.025, 1543.090
1065.507, 1531.535
1065.989, 1541.186
1066.471, 1553.803
1066.953, 1562.954
1067.435, 1568.292
1067.917, 1565.744
1068.399, 1556.302
1068.881, 1547.663
1069.364, 1543.227
1069.846, 1541.093
1070.328, 1540.206
1070.810, 1540.833
1071.292, 1544.362
1071.774, 1554.157
1072.256, 1552.794
1072.738, 1537.517
1073.220, 1520.227
1073.703, 1508.659
1074.185, 1504.481
1074.667, 1516.082
1075.149, 1541.530
1075.631, 1554.832
1076.113, 1541.164
1076.595, 1526.720
1077.077, 1517.319
1077.559, 1511.546
1078.042, 1507.050
1078.524, 1503.603
1079.006, 1499.231
1079.488, 1491.600
1079.970, 1489.844
1080.452, 1510.149
1080.934, 1528.819
1081.416, 1524.106
1081.899, 1494.842
1082.381, 1489.901
1082.863, 1510.279
1083.345, 1528.788
1083.827, 1521.237
1084.309, 1510.983
1084.791, 1528.012
1085.273, 1558.428
1085.755, 1568.512
1086.238, 1538.586
1086.720, 1523.198
1087.202, 1530.235
1087.684, 1541.862
1088.166, 1535.009
1088.648, 1519.537
1089.130, 1517.389
1089.612, 1529.726
1090.094, 1540.082
1090.577, 1541.421
1091.059, 1539.729
1091.541, 1534.691
1092.023, 1529.625
1092.505, 1534.660
1092.987, 1548.616
1093.469, 1565.798
1093.951, 1587.795
1094.434, 1602.312
1094.916, 1593.943
1095.398, 1578.661
1095.880, 1571.172
1096.362, 1572.177
1096.844, 1576.920
1097.326, 1585.754
1097.808, 1594.726
1098.291, 1603.306
1098.773, 1609.319
1099.255, 1609.766
1099.737, 1605.613
1100.219, 1598.472
1100.701, 1579.197
1101.183, 1576.321
1101.665, 1598.446
1102.147, 1621.137
1102.630, 1609.225
1103.112, 1580.151
1103.594, 1578.984
1104.076, 1606.356
1104.558, 1622.294
1105.040, 1594.855
1105.522, 1569.808
1106.004, 1561.006
1106.486, 1565.148
1106.969, 1578.354
1107.451, 1598.513
1107.933, 1613.116
1108.415, 1619.649
1108.897, 1617.486
1109.379, 1594.169
1109.861, 1571.346
1110.343, 1570.501
1110.826, 1591.733
1111.308, 1596.865
1111.790, 1584.493
1112.272, 1576.055
1112.754, 1587.082
1113.236, 1601.199
1113.718, 1597.814
1114.200, 1585.541
1114.682, 1579.692
1115.165, 1587.271
1115.647, 1591.092
1116.129, 1589.240
1116.611, 1588.462
1117.093, 1600.276
1117.575, 1614.855
1118.057, 1607.658
1118.539, 1583.169
1119.021, 1570.984
1119.504, 1597.474
1119.986, 1616.414
1120.468, 1617.778
1120.950, 1608.760
1121.432, 1598.205
1121.914, 1587.639
1122.396, 1582.142
1122.878, 1582.507
1123.361, 1588.388
1123.843, 1604.567
1124.325, 1621.489
1124.807, 1635.522
1125.289, 1645.875
1125.771, 1647.346
1126.253, 1640.467
1126.735, 1634.606
1127.218, 1633.263
1127.700, 1633.223
1128.182, 1625.943
1128.664, 1622.128
1129.146, 1638.307
1129.628, 1681.018
1130.110, 1697.103
1130.592, 1683.722
1131.074, 1666.174
1131.557, 1654.086
1132.039, 1651.266
1132.521, 1672.226
1133.003, 1704.637
1133.485, 1719.838
1133.967, 1698.478
1134.449, 1690.864
1134.931, 1703.448
1135.413, 1719.242
1135.896, 1718.390
1136.378, 1709.959
1136.860, 1711.943
1137.342, 1723.667
1137.824, 1731.106
1138.306, 1724.931
1138.788, 1719.689
1139.270, 1717.207
1139.752, 1718.377
1140.235, 1724.915
1140.717, 1736.305
1141.199, 1753.017
1141.681, 1775.838
1142.163, 1794.877
1142.645, 1800.694
1143.127, 1806.320
1143.609, 1819.574
1144.092, 1837.228
1144.574, 1843.079
1145.056, 1839.001
1145.538, 1837.378
1146.020, 1842.856
1146.502, 1851.031
1146.984, 1858.375
1147.466, 1867.831
1147.948, 1883.166
1148.431, 1905.026
1148.913, 1917.626
1149.395, 1920.946
1149.877, 1931.186
1150.359, 1967.842
1150.841, 2005.531
1151.323, 2024.870
1151.805, 2031.188
1152.287, 2032.724
1152.770, 2024.142
1153.252, 2034.342
1153.734, 2066.703
1154.216, 2104.283
1154.698, 2137.442
1155.180, 2163.771
1155.662, 2177.189
1156.144, 2180.367
1156.627, 2186.092
1157.109, 2194.930
1157.591, 2208.485
1158.073, 2228.080
1158.555, 2249.517
1159.037, 2263.491
1159.519, 2278.157
1160.001, 2307.911
1160.484, 2354.338
1160.966, 2401.017
1161.448, 2448.241
1161.930, 2488.836
1162.412, 2518.961
1162.894, 2544.516
1163.376, 2574.691
1163.858, 2609.836
1164.340, 2650.906
1164.823, 2699.750
1165.305, 2748.966
1165.787, 2796.707
1166.269, 2845.084
1166.751, 2893.055
1167.233, 2943.078
1167.715, 3001.946
1168.197, 3069.950
1168.679, 3147.008
1169.162, 3235.053
1169.644, 3328.571
1170.126, 3431.986
1170.608, 3532.873
1171.090, 3617.193
1171.572, 3687.365
1172.054, 3779.233
1172.536, 3891.393
1173.019, 4015.430
1173.501, 4148.061
1173.983, 4291.250
1174.465, 4457.263
1174.947, 4628.386
1175.429, 4782.574
1175.911, 4919.159
1176.393, 5076.922
1176.875, 5255.442
1177.358, 5446.316
1177.840, 5636.800
1178.322, 5841.790
1178.804, 6076.341
1179.286, 6329.822
1179.768, 6577.445
1180.250, 6816.563
1180.732, 7044.308
1181.214, 7257.694
1181.697, 7470.912
1182.179, 7711.855
1182.661, 7946.877
1183.143, 8157.042
1183.625, 8338.007
1184.107, 8468.213
1184.589, 8544.777
1185.071, 8605.323
1185.554, 8662.246
1186.036, 8693.451
1186.518, 8682.163
1187.000, 8629.340
1187.482, 8532.617
1187.964, 8392.481
1188.446, 8219.618
1188.928, 8010.616
1189.411, 7784.357
1189.893, 7545.744
1190.375, 7296.632
1190.857, 7033.202
1191.339, 6766.762
1191.821, 6514.641
1192.303, 6281.673
1192.785, 6046.011
1193.267, 5806.351
1193.750, 5570.358
1194.232, 5335.443
1194.714, 5113.693
1195.196, 4917.592
1195.678, 4742.875
1196.160, 4583.042
1196.642, 4439.714
1197.124, 4303.317
1197.606, 4173.666
1198.089, 4048.188
1198.571, 3920.185
1199.053, 3800.232
1199.535, 3709.116
1200.017, 3638.479
1200.499, 3561.121
1200.981, 3456.361
1201.463, 3382.498
1201.945, 3348.193
1202.428, 3331.103
1202.910, 3321.880
1203.392, 3309.857
1203.874, 3275.547
1204.356, 3222.589
1204.838, 3175.194
1205.320, 3133.299
1205.802, 3105.292
1206.285, 3094.793
1206.767, 3090.714
1207.249, 3084.981
1207.731, 3074.528
1208.213, 3056.611
1208.695, 3030.525
1209.177, 2988.089
1209.659, 2922.242
1210.141, 2856.604
1210.624, 2794.774
1211.106, 2741.087
1211.588, 2709.816
1212.070, 2686.366
1212.552, 2645.415
1213.034, 2582.813
1213.516, 2525.929
1213.998, 2480.068
1214.480, 2434.191
1214.963, 2382.591
1215.445, 2332.419
1215.927, 2297.748
1216.409, 2271.566
1216.891, 2241.458
1217.373, 2203.082
1217.855, 2174.115
1218.337, 2160.394
1218.820, 2142.940
1219.302, 2112.707
1219.784, 2075.197
1220.266, 2031.194
1220.748, 1990.245
1221.230, 1973.131
1221.712, 1998.967
1222.194, 2002.873
1222.677, 1973.395
1223.159, 1947.228
1223.641, 1952.191
1224.123, 1965.496
1224.605, 1942.133
1225.087, 1897.814
1225.569, 1863.751
1226.051, 1856.194
1226.533, 1843.322
1227.016, 1823.161
1227.498, 1802.125
1227.980, 1780.466
1228.462, 1763.470
1228.944, 1766.365
1229.426, 1780.245
1229.908, 1783.563
1230.390, 1756.291
1230.872, 1750.055
1231.355, 1772.397
1231.837, 1793.078
1232.319, 1779.751
1232.801, 1754.197
1233.283, 1749.141
1233.765, 1758.464
1234.247, 1760.859
1234.729, 1748.250
1235.212, 1740.857
1235.694, 1741.353
1236.176, 1741.596
1236.658, 1729.755
1237.140, 1716.174
1237.622, 1715.864
1238.104, 1725.967
1238.586, 1731.700
1239.068, 1730.033
1239.551, 1730.664
1240.033, 1735.645
1240.515, 1738.547
1240.997, 1730.915
1241.479, 1719.320
1241.961, 1711.192
1242.443, 1706.067
1242.925, 1697.808
1243.407, 1684.341
1243.890, 1676.818
1244.372, 1677.673
1244.854, 1681.337
1245.336, 1683.206
1245.818, 1684.045
1246.300, 1683.576
1246.782, 1682.367
1247.264, 1685.630
1247.747, 1695.051
1248.229, 1694.979
1248.711, 1680.501
1249.193, 1664.433
1249.675, 1657.593
1250.157, 1655.628
1250.639, 1657.013
1251.121, 1660.243
1251.604, 1657.541
1252.086, 1648.794
1252.568, 1636.382
1253.050, 1619.660
1253.532, 1606.556
1254.014, 1606.650
1254.496, 1611.224
1254.978, 1614.681
1255.460, 1616.339
1255.943, 1611.294
1256.425, 1600.002
1256.907, 1594.873
1257.389, 1601.194
1257.871, 1606.366
1258.353, 1599.680
1258.835, 1589.922
1259.317, 1583.495
1259.799, 1579.623
1260.281, 1573.488
1260.764, 1565.601
1261.246, 1559.266
1261.728, 1555.427
1262.210, 1553.749
1262.692, 1553.919
1263.174, 1556.763
1263.656, 1563.740
1264.138, 1573.403
1264.621, 1581.706
1265.103, 1587.209
1265.585, 1582.711
1266.067, 1560.246
1266.549, 1542.934
1267.031, 1542.616
1267.513, 1545.200
1267.995, 1543.460
1268.478, 1539.068
1268.960, 1537.970
1269.442, 1538.771
1269.924, 1536.721
1270.406, 1524.056
1270.888, 1524.728
1271.370, 1549.170
1271.852, 1571.548
1272.334, 1573.869
1272.817, 1565.331
1273.299, 1569.965
1273.781, 1580.236
1274.263, 1578.752
1274.745, 1549.418
1275.227, 1532.601
1275.709, 1530.904
1276.191, 1537.924
1276.673, 1555.830
1277.156, 1574.346
1277.638, 1576.476
1278.120, 1567.805
1278.602, 1558.576
1279.084, 1550.317
1279.566, 1541.319
1280.048, 1530.464
1280.530, 1525.458
1281.013, 1538.001
1281.495, 1552.121
1281.977, 1546.331
1282.459, 1532.650
1282.941, 1532.414
1283.423, 1551.703
1283.905, 1556.001
1284.387, 1544.838
1284.870, 1536.050
1285.352, 1545.055
1285.834, 1556.009
1286.316, 1556.818
1286.798, 1554.124
1287.280, 1558.154
1287.762, 1569.527
1288.244, 1569.323
1288.726, 1558.430
1289.208, 1547.609
1289.691, 1541.482
1290.173, 1538.917
1290.655, 1544.924
1291.137, 1549.554
1291.619, 1539.583
##END=



