##NAMES=Suredaite
##RRUFFID=R070191
##IDEAL CHEMISTRY=Pb^2+^Sn^4+^S^2-^_3_
##LOCALITY=Sector Oploco, Niv. 7/1, Mina Pirquitas, Jujuy, Argentina
##OWNER=RRUFF
##SOURCE=Renato and Adriana Pagano
##DESCRIPTION=Sprays of black acicular crystals with iridescent blue highlights
##STATUS=The identification of this mineral has been confirmed by single-crystal X-ray diffraction.
##URL=rruff.info/R070191
179.1634, 1505.581
179.6456, 1519.654
180.1277, 1542.943
180.6098, 1566.257
181.0919, 1592.094
181.5740, 1613.036
182.0561, 1624.931
182.5383, 1632.109
183.0204, 1639.696
183.5025, 1650.181
183.9846, 1662.657
184.4667, 1674.505
184.9488, 1684.932
185.4310, 1696.026
185.9131, 1707.980
186.3952, 1720.830
186.8773, 1734.710
187.3594, 1749.721
187.8415, 1765.679
188.3237, 1783.253
188.8058, 1806.666
189.2879, 1823.569
189.7700, 1826.880
190.2521, 1825.232
190.7342, 1827.574
191.2164, 1837.924
191.6985, 1853.644
192.1806, 1868.646
192.6627, 1883.459
193.1448, 1896.494
193.6269, 1907.948
194.1091, 1917.699
194.5912, 1925.379
195.0733, 1930.819
195.5554, 1934.802
196.0375, 1938.226
196.5196, 1937.451
197.0018, 1943.622
197.4839, 1962.431
197.9660, 1985.195
198.4481, 2004.799
198.9302, 2018.843
199.4123, 2028.963
199.8945, 2038.216
200.3766, 2047.450
200.8587, 2053.825
201.3408, 2053.131
201.8229, 2052.444
202.3050, 2059.133
202.7872, 2074.651
203.2693, 2091.847
203.7514, 2098.945
204.2335, 2091.850
204.7156, 2083.280
205.1977, 2069.570
205.6799, 2057.710
206.1620, 2054.452
206.6441, 2060.219
207.1262, 2068.007
207.6083, 2067.465
208.0904, 2053.683
208.5726, 2044.053
209.0547, 2040.981
209.5368, 2039.728
210.0189, 2037.806
210.5010, 2034.857
210.9831, 2031.909
211.4653, 2030.408
211.9474, 2031.171
212.4295, 2030.361
212.9116, 2028.815
213.3937, 2025.168
213.8758, 2018.169
214.3580, 2008.180
214.8401, 1996.718
215.3222, 1985.225
215.8043, 1973.842
216.2864, 1961.653
216.7685, 1940.457
217.2507, 1925.957
217.7328, 1929.932
218.2149, 1947.016
218.6970, 1961.727
219.1791, 1960.479
219.6612, 1942.760
220.1434, 1927.588
220.6255, 1912.463
221.1076, 1902.651
221.5897, 1903.012
222.0718, 1909.896
222.5539, 1916.578
223.0361, 1918.647
223.5182, 1916.235
224.0003, 1910.526
224.4824, 1894.715
224.9645, 1883.068
225.4466, 1879.951
225.9288, 1882.525
226.4109, 1887.511
226.8930, 1893.707
227.3751, 1899.308
227.8572, 1895.966
228.3393, 1871.195
228.8215, 1854.373
229.3036, 1854.425
229.7857, 1863.092
230.2678, 1872.042
230.7499, 1877.689
231.2320, 1879.607
231.7142, 1876.125
232.1963, 1862.765
232.6784, 1851.588
233.1605, 1839.650
233.6426, 1832.528
234.1247, 1838.667
234.6069, 1860.203
235.0890, 1885.549
235.5711, 1892.539
236.0532, 1868.953
236.5353, 1856.153
237.0174, 1866.469
237.4996, 1881.088
237.9817, 1888.039
238.4638, 1884.881
238.9459, 1876.500
239.4280, 1868.384
239.9101, 1860.516
240.3923, 1852.928
240.8744, 1842.166
241.3565, 1834.511
241.8386, 1834.571
242.3207, 1841.554
242.8028, 1850.342
243.2850, 1857.275
243.7671, 1862.664
244.2492, 1862.226
244.7313, 1845.705
245.2134, 1833.019
245.6955, 1835.453
246.1777, 1848.344
246.6598, 1858.957
247.1419, 1857.707
247.6240, 1845.828
248.1061, 1834.390
248.5882, 1822.350
249.0704, 1812.310
249.5525, 1805.564
250.0346, 1801.071
250.5167, 1797.649
250.9988, 1795.503
251.4809, 1793.053
251.9631, 1784.467
252.4452, 1764.318
252.9273, 1749.214
253.4094, 1747.602
253.8915, 1751.886
254.3736, 1754.393
254.8558, 1752.463
255.3379, 1747.417
255.8200, 1740.232
256.3021, 1729.586
256.7842, 1721.956
257.2664, 1722.362
257.7485, 1724.736
258.2306, 1724.665
258.7127, 1721.184
259.1948, 1716.668
259.6769, 1713.876
260.1591, 1712.929
260.6412, 1710.542
261.1233, 1703.921
261.6054, 1697.615
262.0875, 1695.166
262.5696, 1696.531
263.0518, 1698.659
263.5339, 1700.645
264.0160, 1702.008
264.4981, 1698.616
264.9802, 1684.647
265.4623, 1674.512
265.9445, 1684.930
266.4266, 1708.970
266.9087, 1722.978
267.3908, 1705.169
267.8729, 1671.709
268.3550, 1658.769
268.8372, 1672.133
269.3193, 1689.843
269.8014, 1698.231
270.2835, 1700.529
270.7656, 1701.316
271.2477, 1699.179
271.7299, 1698.122
272.2120, 1705.293
272.6941, 1721.071
273.1762, 1731.630
273.6583, 1724.657
274.1404, 1710.735
274.6226, 1710.695
275.1047, 1731.911
275.5868, 1755.389
276.0689, 1769.802
276.5510, 1776.151
277.0331, 1777.135
277.5153, 1770.263
277.9974, 1763.193
278.4795, 1769.571
278.9616, 1791.147
279.4437, 1813.900
279.9258, 1833.663
280.4080, 1851.134
280.8901, 1867.375
281.3722, 1882.687
281.8543, 1896.605
282.3364, 1907.438
282.8185, 1914.554
283.3007, 1925.993
283.7828, 1942.789
284.2649, 1964.215
284.7470, 1991.212
285.2291, 2023.354
285.7112, 2056.688
286.1934, 2088.445
286.6755, 2118.375
287.1576, 2145.568
287.6397, 2169.022
288.1218, 2191.033
288.6039, 2209.812
289.0861, 2227.814
289.5682, 2251.294
290.0503, 2284.160
290.5324, 2324.383
291.0145, 2362.956
291.4966, 2401.258
291.9788, 2436.446
292.4609, 2463.279
292.9430, 2488.459
293.4251, 2520.463
293.9072, 2562.239
294.3893, 2610.748
294.8715, 2661.189
295.3536, 2721.268
295.8357, 2767.709
296.3178, 2788.282
296.7999, 2804.835
297.2820, 2833.012
297.7642, 2874.178
298.2463, 2919.232
298.7284, 2958.945
299.2105, 2992.342
299.6926, 3027.632
300.1747, 3067.540
300.6569, 3106.540
301.1390, 3147.347
301.6211, 3185.821
302.1032, 3213.094
302.5853, 3221.973
303.0674, 3216.510
303.5495, 3217.645
304.0316, 3230.605
304.5138, 3242.754
304.9959, 3256.392
305.4780, 3265.913
305.9601, 3266.051
306.4422, 3254.915
306.9243, 3232.695
307.4065, 3197.722
307.8886, 3147.001
308.3707, 3095.164
308.8528, 3042.273
309.3349, 2990.853
309.8170, 2947.311
310.2992, 2910.354
310.7813, 2866.447
311.2634, 2796.320
311.7455, 2703.481
312.2276, 2629.708
312.7097, 2588.312
313.1919, 2552.125
313.6740, 2503.495
314.1561, 2446.074
314.6382, 2389.662
315.1203, 2335.198
315.6024, 2285.906
316.0846, 2251.302
316.5667, 2234.656
317.0488, 2213.573
317.5309, 2171.676
318.0130, 2119.212
318.4951, 2072.732
318.9773, 2033.938
319.4594, 2002.220
319.9415, 1980.186
320.4236, 1966.076
320.9057, 1951.919
321.3878, 1935.750
321.8700, 1917.443
322.3521, 1895.195
322.8342, 1867.992
323.3163, 1844.123
323.7984, 1827.569
324.2805, 1814.863
324.7627, 1801.861
325.2448, 1787.802
325.7269, 1773.171
326.2090, 1757.957
326.6911, 1742.049
327.1732, 1728.903
327.6554, 1722.599
328.1375, 1715.164
328.6196, 1700.275
329.1017, 1680.161
329.5838, 1661.566
330.0659, 1648.152
330.5481, 1639.610
331.0302, 1635.027
331.5123, 1642.836
331.9944, 1644.093
332.4765, 1631.973
332.9586, 1614.563
333.4408, 1599.783
333.9229, 1590.278
334.4050, 1584.814
334.8871, 1582.401
335.3692, 1586.363
335.8513, 1584.128
336.3335, 1570.726
336.8156, 1556.313
337.2977, 1545.169
337.7798, 1537.662
338.2619, 1532.971
338.7440, 1531.562
339.2262, 1532.589
339.7083, 1527.833
340.1904, 1511.530
340.6725, 1498.011
341.1546, 1491.129
341.6367, 1489.136
342.1189, 1490.960
342.6010, 1496.989
343.0831, 1502.889
343.5652, 1499.692
344.0473, 1485.090
344.5294, 1478.491
345.0116, 1496.261
345.4937, 1514.097
345.9758, 1508.955
346.4579, 1480.448
346.9400, 1454.124
347.4221, 1449.198
347.9043, 1458.692
348.3864, 1462.763
348.8685, 1457.981
349.3506, 1452.485
349.8327, 1453.328
350.3148, 1458.680
350.7970, 1463.331
351.2791, 1469.002
351.7612, 1471.577
352.2433, 1465.688
352.7254, 1452.858
353.2076, 1440.877
353.6897, 1433.179
354.1718, 1428.853
354.6539, 1426.103
355.1360, 1426.505
355.6181, 1424.950
356.1003, 1416.301
356.5824, 1406.904
357.0645, 1406.121
357.5466, 1415.433
358.0287, 1426.622
358.5108, 1430.876
358.9930, 1427.638
359.4751, 1419.498
359.9572, 1397.924
360.4393, 1380.614
360.9214, 1377.873
361.4035, 1385.540
361.8857, 1394.354
362.3678, 1399.169
362.8499, 1400.157
363.3320, 1397.456
363.8141, 1385.731
364.2962, 1379.103
364.7784, 1385.076
365.2605, 1392.614
365.7426, 1391.228
366.2247, 1379.256
366.7068, 1364.725
367.1889, 1356.305
367.6711, 1354.187
368.1532, 1354.341
368.6353, 1359.901
369.1174, 1363.717
369.5995, 1361.086
370.0816, 1354.075
370.5638, 1347.580
371.0459, 1343.145
371.5280, 1341.135
372.0101, 1344.161
372.4922, 1353.175
372.9743, 1357.794
373.4565, 1350.790
373.9386, 1338.440
374.4207, 1330.600
374.9028, 1328.566
375.3849, 1327.408
375.8670, 1324.120
376.3492, 1320.009
376.8313, 1317.554
377.3134, 1317.235
377.7955, 1318.922
378.2776, 1323.620
378.7597, 1331.784
379.2419, 1335.101
379.7240, 1325.636
380.2061, 1318.336
380.6882, 1327.199
381.1703, 1346.143
381.6524, 1356.809
382.1346, 1348.568
382.6167, 1327.811
383.0988, 1313.688
383.5809, 1310.245
384.0630, 1308.987
384.5451, 1311.911
385.0273, 1315.485
385.5094, 1316.665
385.9915, 1315.104
386.4736, 1312.630
386.9557, 1310.821
387.4378, 1309.617
387.9200, 1310.615
388.4021, 1320.338
388.8842, 1324.363
389.3663, 1311.916
389.8484, 1292.353
390.3305, 1280.698
390.8127, 1284.067
391.2948, 1295.621
391.7769, 1306.939
392.2590, 1318.689
392.7411, 1322.948
393.2232, 1312.584
393.7054, 1298.151
394.1875, 1288.937
394.6696, 1285.082
395.1517, 1284.794
395.6338, 1290.243
396.1159, 1297.653
396.5981, 1299.777
397.0802, 1295.687
397.5623, 1291.991
398.0444, 1294.394
398.5265, 1301.059
399.0086, 1302.348
399.4908, 1294.895
399.9729, 1285.996
400.4550, 1274.403
400.9371, 1264.156
401.4192, 1264.022
401.9013, 1276.960
402.3835, 1293.805
402.8656, 1300.681
403.3477, 1292.604
403.8298, 1289.489
404.3119, 1295.458
404.7940, 1301.811
405.2762, 1304.198
405.7583, 1303.188
406.2404, 1300.848
406.7225, 1298.136
407.2046, 1295.856
407.6867, 1298.023
408.1689, 1310.354
408.6510, 1315.112
409.1331, 1302.353
409.6152, 1285.648
410.0973, 1275.606
410.5794, 1273.783
411.0616, 1274.442
411.5437, 1272.269
412.0258, 1268.204
412.5079, 1268.041
412.9900, 1274.274
413.4721, 1279.283
413.9543, 1274.318
414.4364, 1264.574
414.9185, 1260.893
415.4006, 1269.260
415.8827, 1279.324
416.3648, 1283.880
416.8470, 1284.005
417.3291, 1282.596
417.8112, 1280.325
418.2933, 1277.937
418.7754, 1276.051
419.2575, 1273.597
419.7397, 1276.043
420.2218, 1292.681
420.7039, 1306.786
421.1860, 1304.142
421.6681, 1288.321
422.1502, 1272.761
422.6324, 1265.945
423.1145, 1266.451
423.5966, 1268.247
424.0787, 1272.632
424.5608, 1276.300
425.0429, 1280.486
425.5251, 1282.868
426.0072, 1281.018
426.4893, 1274.886
426.9714, 1267.026
427.4535, 1258.196
427.9356, 1248.821
428.4178, 1245.059
428.8999, 1248.354
429.3820, 1254.603
429.8641, 1265.297
430.3462, 1276.596
430.8283, 1281.728
431.3105, 1276.420
431.7926, 1270.473
432.2747, 1275.286
432.7568, 1286.769
433.2389, 1288.585
433.7210, 1274.527
434.2032, 1256.726
434.6853, 1249.675
435.1674, 1254.612
435.6495, 1258.751
436.1316, 1260.656
436.6137, 1262.303
437.0959, 1265.992
437.5780, 1270.452
438.0601, 1271.615
438.5422, 1267.065
439.0243, 1260.171
439.5064, 1260.150
439.9886, 1275.668
440.4707, 1282.376
440.9528, 1260.958
441.4349, 1275.276
441.9170, 1283.398
442.3991, 1285.658
442.8813, 1264.497
443.3634, 1273.579
443.8455, 1270.541
444.3276, 1267.006
444.8097, 1280.345
445.2918, 1262.591
445.7740, 1275.662
446.2561, 1276.428
446.7382, 1282.826
447.2203, 1277.029
447.7024, 1274.998
448.1845, 1279.672
448.6667, 1280.881
449.1488, 1276.879
449.6309, 1267.123
450.1130, 1258.622
450.5951, 1257.163
451.0772, 1262.188
451.5594, 1266.426
452.0415, 1270.179
452.5236, 1272.870
453.0057, 1274.953
453.4878, 1275.616
453.9699, 1272.139
454.4521, 1264.229
454.9342, 1257.262
455.4163, 1259.245
455.8984, 1272.904
456.3805, 1280.037
456.8626, 1275.168
457.3448, 1268.998
457.8269, 1264.142
458.3090, 1260.219
458.7911, 1255.653
459.2732, 1249.307
459.7553, 1244.400
460.2375, 1248.314
460.7196, 1261.275
461.2017, 1265.219
461.6838, 1249.564
462.1659, 1233.750
462.6480, 1239.079
463.1302, 1261.079
463.6123, 1276.129
464.0944, 1272.242
464.5765, 1263.178
465.0586, 1260.655
465.5407, 1263.607
466.0229, 1267.468
466.5050, 1270.783
466.9871, 1272.046
467.4692, 1267.729
467.9513, 1251.524
468.4334, 1243.379
468.9156, 1250.435
469.3977, 1259.180
469.8798, 1261.399
470.3619, 1257.841
470.8440, 1252.537
471.3261, 1247.487
471.8083, 1243.839
472.2904, 1245.757
472.7725, 1256.026
473.2546, 1264.223
473.7367, 1267.640
474.2188, 1268.514
474.7010, 1266.725
475.1831, 1262.895
475.6652, 1260.827
476.1473, 1264.535
476.6294, 1270.663
477.1115, 1273.885
477.5937, 1274.059
478.0758, 1271.393
478.5579, 1264.904
479.0400, 1256.528
479.5221, 1250.690
480.0042, 1246.803
480.4864, 1246.267
480.9685, 1252.412
481.4506, 1259.973
481.9327, 1263.784
482.4148, 1263.904
482.8969, 1264.135
483.3791, 1267.749
483.8612, 1273.407
484.3433, 1273.401
484.8254, 1263.278
485.3075, 1254.674
485.7896, 1247.848
486.2718, 1243.945
486.7539, 1244.843
487.2360, 1250.242
487.7181, 1256.765
488.2002, 1263.816
488.6823, 1269.883
489.1645, 1267.950
489.6466, 1255.756
490.1287, 1249.013
490.6108, 1260.565
491.0929, 1280.038
491.5750, 1284.780
492.0572, 1268.659
492.5393, 1255.838
493.0214, 1256.413
493.5035, 1263.487
493.9856, 1271.452
494.4677, 1278.659
494.9499, 1282.213
495.4320, 1279.601
495.9141, 1271.622
496.3962, 1263.152
496.8783, 1250.120
497.3604, 1242.697
497.8426, 1245.274
498.3247, 1251.186
498.8068, 1255.177
499.2889, 1256.587
499.7710, 1257.785
500.2531, 1261.717
500.7353, 1266.965
501.2174, 1266.903
501.6995, 1259.689
502.1816, 1255.287
502.6637, 1261.898
503.1458, 1271.474
503.6280, 1269.800
504.1101, 1252.825
504.5922, 1240.828
505.0743, 1244.875
505.5564, 1255.910
506.0385, 1265.909
506.5207, 1273.207
507.0028, 1274.168
507.4849, 1265.013
507.9670, 1249.511
508.4491, 1244.504
508.9312, 1262.734
509.4134, 1272.855
509.8955, 1267.843
510.3776, 1258.688
510.8597, 1251.659
511.3418, 1248.080
511.8239, 1248.295
512.3061, 1254.905
512.7882, 1263.984
513.2703, 1262.314
513.7524, 1247.168
514.2346, 1238.285
514.7167, 1246.090
515.1988, 1260.551
515.6809, 1268.825
516.1630, 1270.665
516.6451, 1270.364
517.1273, 1266.487
517.6094, 1263.060
518.0915, 1265.129
518.5736, 1271.438
519.0557, 1275.958
519.5378, 1275.242
520.0200, 1271.906
520.5021, 1272.640
520.9842, 1283.042
521.4663, 1286.638
521.9484, 1277.802
522.4305, 1268.263
522.9127, 1264.358
523.3948, 1264.982
523.8769, 1265.968
524.3590, 1264.924
524.8411, 1263.579
525.3232, 1266.419
525.8054, 1273.383
526.2875, 1274.013
526.7696, 1262.364
527.2517, 1249.285
527.7338, 1248.431
528.2159, 1258.079
528.6981, 1263.484
529.1802, 1261.525
529.6623, 1255.838
530.1444, 1244.133
530.6265, 1231.086
531.1086, 1226.521
531.5908, 1233.600
532.0729, 1245.589
532.5550, 1253.319
533.0371, 1256.105
533.5192, 1259.072
534.0013, 1263.294
534.4835, 1266.422
534.9656, 1266.716
535.4477, 1265.906
535.9298, 1266.604
536.4119, 1269.718
536.8940, 1272.856
537.3762, 1275.032
537.8583, 1275.494
538.3404, 1269.867
538.8225, 1256.537
539.3046, 1245.880
539.7867, 1246.042
540.2689, 1255.013
540.7510, 1262.481
541.2331, 1271.682
541.7152, 1275.308
542.1973, 1266.140
542.6794, 1254.455
543.1616, 1251.701
543.6437, 1257.579
544.1258, 1262.384
544.6079, 1258.032
545.0900, 1246.722
545.5721, 1236.959
546.0543, 1226.320
546.5364, 1224.006
547.0185, 1241.089
547.5006, 1261.012
547.9827, 1271.539
548.4648, 1272.548
548.9469, 1270.117
549.4290, 1264.078
549.9111, 1257.848
550.3932, 1256.379
550.8754, 1258.432
551.3575, 1257.969
551.8396, 1252.200
552.3217, 1244.725
552.8038, 1241.385
553.2859, 1243.379
553.7681, 1245.544
554.2502, 1247.969
554.7323, 1250.454
555.2144, 1254.147
555.6965, 1257.470
556.1786, 1257.327
556.6608, 1252.473
557.1429, 1247.073
557.6250, 1244.951
558.1071, 1246.321
558.5892, 1255.437
559.0714, 1276.973
559.5535, 1292.333
560.0356, 1284.585
560.5177, 1261.625
560.9998, 1249.832
561.4819, 1254.808
561.9641, 1261.407
562.4462, 1266.338
562.9283, 1269.692
563.4104, 1271.657
563.8925, 1272.197
564.3746, 1270.948
564.8568, 1267.458
565.3389, 1262.267
565.8210, 1256.815
566.3031, 1248.997
566.7852, 1246.271
567.2673, 1255.660
567.7495, 1265.991
568.2316, 1271.164
568.7137, 1271.146
569.1958, 1267.594
569.6779, 1257.125
570.1600, 1247.070
570.6422, 1244.866
571.1243, 1249.307
571.6064, 1257.954
572.0885, 1270.629
572.5706, 1281.343
573.0527, 1281.542
573.5349, 1269.162
574.0170, 1265.957
574.4991, 1287.748
574.9812, 1299.330
575.4633, 1280.796
575.9454, 1253.321
576.4276, 1241.905
576.9097, 1251.393
577.3918, 1265.721
577.8739, 1271.867
578.3560, 1271.183
578.8381, 1266.192
579.3203, 1255.925
579.8024, 1250.985
580.2845, 1259.141
580.7666, 1272.884
581.2487, 1276.598
581.7308, 1267.486
582.2130, 1262.166
582.6951, 1267.584
583.1772, 1273.247
583.6593, 1271.480
584.1414, 1264.488
584.6235, 1257.580
585.1057, 1253.197
585.5878, 1251.177
586.0699, 1251.468
586.5520, 1254.170
587.0341, 1258.650
587.5162, 1268.090
587.9984, 1274.028
588.4805, 1268.309
588.9626, 1256.834
589.4447, 1249.140
589.9268, 1247.326
590.4089, 1247.021
590.8911, 1244.388
591.3732, 1243.018
591.8553, 1249.970
592.3374, 1263.990
592.8195, 1275.819
593.3016, 1279.555
593.7838, 1275.941
594.2659, 1265.755
594.7480, 1242.231
595.2301, 1228.367
595.7122, 1234.008
596.1943, 1242.728
596.6765, 1247.344
597.1586, 1248.546
597.6407, 1249.048
598.1228, 1249.308
598.6049, 1250.229
599.0870, 1254.421
599.5692, 1259.767
600.0513, 1260.105
600.5334, 1254.231
601.0155, 1246.695
601.4976, 1240.700
601.9797, 1236.511
602.4619, 1236.344
602.9440, 1244.120
603.4261, 1250.678
603.9082, 1257.672
604.3903, 1261.400
604.8724, 1256.626
605.3546, 1245.424
605.8367, 1236.601
606.3188, 1236.745
606.8009, 1239.849
607.2830, 1236.174
607.7651, 1226.603
608.2473, 1217.356
608.7294, 1209.003
609.2115, 1205.254
609.6936, 1211.561
610.1757, 1227.982
610.6578, 1237.771
611.1400, 1236.510
611.6221, 1234.869
612.1042, 1235.477
612.5863, 1236.769
613.0684, 1237.636
613.5505, 1237.603
614.0327, 1235.769
614.5148, 1230.359
614.9969, 1223.573
615.4790, 1221.561
615.9611, 1224.574
616.4432, 1226.892
616.9254, 1227.385
617.4075, 1225.652
617.8896, 1220.035
618.3717, 1210.423
618.8538, 1204.149
619.3359, 1203.762
619.8181, 1204.134
620.3002, 1204.734
620.7823, 1204.262
621.2644, 1198.953
621.7465, 1189.497
622.2286, 1184.081
622.7108, 1192.357
623.1929, 1209.589
623.6750, 1216.060
624.1571, 1209.848
624.6392, 1203.926
625.1213, 1201.615
625.6035, 1201.886
626.0856, 1204.652
626.5677, 1209.742
627.0498, 1212.855
627.5319, 1213.614
628.0140, 1212.028
628.4962, 1204.685
628.9783, 1196.366
629.4604, 1195.600
629.9425, 1203.383
630.4246, 1211.333
630.9067, 1210.950
631.3889, 1203.710
631.8710, 1197.541
632.3531, 1192.225
632.8352, 1188.917
633.3173, 1179.346
633.7994, 1192.891
634.2816, 1200.240
634.7637, 1201.727
635.2458, 1179.794
635.7279, 1188.103
636.2100, 1184.292
636.6921, 1179.984
637.1743, 1192.550
637.6564, 1174.023
638.1385, 1186.322
638.6206, 1186.315
639.1027, 1191.940
639.5848, 1185.370
640.0670, 1182.567
640.5491, 1191.962
641.0312, 1194.603
641.5133, 1186.630
641.9954, 1192.613
642.4775, 1173.659
642.9597, 1176.588
643.4418, 1188.958
643.9239, 1181.597
644.4060, 1187.803
644.8881, 1172.188
645.3702, 1168.789
645.8524, 1172.522
646.3345, 1183.628
646.8166, 1192.366
647.2987, 1188.516
647.7808, 1175.411
648.2629, 1168.935
648.7451, 1170.376
649.2272, 1173.577
649.7093, 1177.689
650.1914, 1182.295
650.6735, 1188.720
651.1556, 1196.145
651.6378, 1198.269
652.1199, 1186.615
652.6020, 1177.892
653.0841, 1184.772
653.5662, 1196.882
654.0483, 1199.631
654.5305, 1191.410
655.0126, 1180.772
655.4947, 1174.193
655.9768, 1171.043
656.4589, 1168.611
656.9410, 1166.056
657.4232, 1170.654
657.9053, 1190.165
658.3874, 1208.215
658.8695, 1206.280
659.3516, 1189.124
659.8337, 1177.827
660.3159, 1176.911
660.7980, 1178.794
661.2801, 1183.896
661.7622, 1188.629
662.2443, 1187.090
662.7264, 1180.745
663.2086, 1178.320
663.6907, 1186.652
664.1728, 1199.450
664.6549, 1202.207
665.1370, 1194.559
665.6191, 1189.107
666.1013, 1188.898
666.5834, 1188.283
667.0655, 1181.369
667.5476, 1170.561
668.0297, 1166.337
668.5118, 1175.039
668.9940, 1179.981
669.4761, 1173.520
669.9582, 1165.770
670.4403, 1165.963
670.9224, 1171.919
671.4045, 1175.836
671.8867, 1173.883
672.3688, 1168.173
672.8509, 1159.437
673.3330, 1148.738
673.8151, 1144.442
674.2972, 1148.062
674.7794, 1154.144
675.2615, 1160.909
675.7436, 1166.835
676.2257, 1167.622
676.7078, 1160.365
677.1899, 1154.264
677.6721, 1150.165
678.1542, 1146.632
678.6363, 1140.839
679.1184, 1135.810
679.6005, 1137.509
680.0826, 1147.815
680.5648, 1159.537
681.0469, 1165.971
681.5290, 1168.737
682.0111, 1172.187
682.4932, 1176.296
682.9753, 1176.913
683.4575, 1171.512
683.9396, 1164.172
684.4217, 1161.416
684.9038, 1164.417
685.3859, 1165.835
685.8680, 1163.559
686.3502, 1162.241
686.8323, 1163.069
687.3144, 1165.358
687.7965, 1169.549
688.2786, 1175.184
688.7607, 1178.149
689.2429, 1175.053
689.7250, 1168.912
690.2071, 1160.925
690.6892, 1152.767
691.1713, 1150.545
691.6534, 1155.748
692.1356, 1161.081
692.6177, 1158.335
693.0998, 1149.145
693.5819, 1149.166
694.0640, 1165.520
694.5461, 1175.269
695.0283, 1170.142
695.5104, 1160.645
695.9925, 1151.224
696.4746, 1143.161
696.9567, 1140.550
697.4388, 1146.130
697.9210, 1154.745
698.4031, 1168.835
698.8852, 1181.452
699.3673, 1181.168
699.8494, 1169.615
700.3315, 1159.108
700.8137, 1157.273
701.2958, 1160.505
701.7779, 1162.210
702.2600, 1162.462
702.7421, 1158.971
703.2242, 1149.304
703.7064, 1141.706
704.1885, 1142.398
704.6706, 1147.973
705.1527, 1149.840
705.6348, 1145.827
706.1169, 1144.589
706.5991, 1150.313
707.0812, 1156.128
707.5633, 1158.207
708.0454, 1157.436
708.5275, 1154.870
709.0096, 1151.055
709.4918, 1148.701
709.9739, 1152.026
710.4560, 1158.358
710.9381, 1160.419
711.4202, 1158.369
711.9023, 1156.302
712.3845, 1155.370
712.8666, 1156.386
713.3487, 1161.109
713.8308, 1169.920
714.3129, 1174.273
714.7950, 1171.617
715.2772, 1167.810
715.7593, 1161.915
716.2414, 1156.679
716.7235, 1155.721
717.2056, 1157.863
717.6877, 1157.099
718.1699, 1148.455
718.6520, 1139.792
719.1341, 1137.221
719.6162, 1138.932
720.0983, 1142.796
720.5804, 1147.982
721.0626, 1152.518
721.5447, 1154.911
722.0268, 1156.418
722.5089, 1162.046
722.9910, 1174.025
723.4731, 1172.857
723.9553, 1148.421
724.4374, 1127.884
724.9195, 1129.928
725.4016, 1144.865
725.8837, 1152.559
726.3658, 1151.145
726.8480, 1148.628
727.3301, 1145.928
727.8122, 1143.055
728.2943, 1139.941
728.7764, 1136.666
729.2585, 1132.568
729.7407, 1127.810
730.2228, 1125.318
730.7049, 1130.200
731.1870, 1138.244
731.6691, 1138.187
732.1512, 1131.143
732.6334, 1128.493
733.1155, 1134.126
733.5976, 1141.131
734.0797, 1142.325
734.5618, 1138.192
735.0439, 1135.099
735.5261, 1132.536
736.0082, 1131.910
736.4903, 1132.619
736.9724, 1135.902
737.4545, 1147.116
737.9366, 1161.356
738.4188, 1164.847
738.9009, 1149.787
739.3830, 1133.719
739.8651, 1124.625
740.3472, 1121.029
740.8293, 1123.064
741.3115, 1129.130
741.7936, 1135.257
742.2757, 1139.551
742.7578, 1143.061
743.2399, 1148.202
743.7220, 1154.561
744.2042, 1156.239
744.6863, 1152.721
745.1684, 1146.304
745.6505, 1135.461
746.1326, 1125.658
746.6147, 1124.761
747.0969, 1133.762
747.5790, 1142.921
748.0611, 1157.966
748.5432, 1165.884
749.0253, 1157.923
749.5074, 1145.833
749.9896, 1141.386
750.4717, 1143.315
750.9538, 1141.067
751.4359, 1126.817
751.9180, 1112.130
752.4001, 1107.772
752.8823, 1110.512
753.3644, 1116.504
753.8465, 1124.082
754.3286, 1127.296
754.8107, 1122.150
755.2928, 1114.252
755.7750, 1115.664
756.2571, 1127.828
756.7392, 1135.870
757.2213, 1139.167
757.7034, 1139.082
758.1855, 1134.357
758.6677, 1127.944
759.1498, 1124.823
759.6319, 1125.470
760.1140, 1124.047
760.5961, 1116.097
761.0782, 1110.777
761.5604, 1113.823
762.0425, 1119.717
762.5246, 1123.575
763.0067, 1124.325
763.4888, 1121.669
763.9709, 1113.517
764.4531, 1105.334
764.9352, 1103.122
765.4173, 1105.843
765.8994, 1113.004
766.3815, 1123.597
766.8636, 1129.779
767.3458, 1126.056
767.8279, 1117.952
768.3100, 1118.700
768.7921, 1130.823
769.2742, 1136.236
769.7563, 1132.644
770.2385, 1126.594
770.7206, 1119.447
771.2027, 1112.334
771.6848, 1106.536
772.1669, 1101.962
772.6490, 1099.667
773.1312, 1097.224
773.6133, 1100.199
774.0954, 1119.808
774.5775, 1139.922
775.0596, 1139.725
775.5417, 1121.574
776.0239, 1107.139
776.5060, 1109.905
776.9881, 1117.779
777.4702, 1116.620
777.9523, 1110.359
778.4344, 1108.519
778.9166, 1111.728
779.3987, 1114.383
779.8808, 1113.180
780.3629, 1110.829
780.8450, 1112.711
781.3271, 1119.365
781.8093, 1125.582
782.2914, 1133.515
782.7735, 1134.783
783.2556, 1121.075
783.7377, 1104.013
784.2198, 1099.895
784.7020, 1109.056
785.1841, 1114.236
785.6662, 1111.347
786.1483, 1108.768
786.6304, 1108.543
787.1125, 1109.701
787.5947, 1111.121
788.0768, 1113.088
788.5589, 1117.407
789.0410, 1126.179
789.5231, 1133.098
790.0052, 1130.704
790.4874, 1124.157
790.9695, 1123.102
791.4516, 1126.256
791.9337, 1123.454
792.4158, 1110.277
792.8979, 1097.024
793.3801, 1099.283
793.8622, 1114.996
794.3443, 1123.451
794.8264, 1123.897
795.3085, 1121.600
795.7906, 1117.076
796.2728, 1112.271
796.7549, 1108.481
797.2370, 1105.911
797.7191, 1106.880
798.2012, 1116.930
798.6833, 1122.526
799.1655, 1120.480
799.6476, 1116.413
800.1297, 1111.557
800.6118, 1107.582
801.0939, 1107.154
801.5760, 1111.066
802.0582, 1117.208
802.5403, 1128.985
803.0224, 1138.591
803.5045, 1137.940
803.9866, 1130.104
804.4688, 1119.953
804.9509, 1109.512
805.4330, 1101.363
805.9151, 1097.912
806.3972, 1097.872
806.8793, 1099.460
807.3615, 1102.285
807.8436, 1103.051
808.3257, 1101.093
808.8078, 1098.845
809.2899, 1097.967
809.7720, 1097.781
810.2542, 1096.662
810.7363, 1094.606
811.2184, 1091.098
811.7005, 1081.290
812.1826, 1078.003
812.6647, 1092.568
813.1469, 1111.974
813.6290, 1120.997
814.1111, 1119.508
814.5932, 1117.672
815.0753, 1119.094
815.5574, 1117.643
816.0396, 1108.288
816.5217, 1097.463
817.0038, 1090.349
817.4859, 1087.164
817.9680, 1086.578
818.4501, 1088.510
818.9323, 1090.641
819.4144, 1090.452
819.8965, 1089.518
820.3786, 1090.440
820.8607, 1092.912
821.3428, 1096.131
821.8250, 1099.637
822.3071, 1100.029
822.7892, 1091.633
823.2713, 1078.035
823.7534, 1076.739
824.2355, 1088.599
824.7177, 1094.436
825.1998, 1089.544
825.6819, 1080.186
826.1640, 1068.093
826.6461, 1057.396
827.1282, 1063.792
827.6104, 1103.248
828.0925, 1122.725
828.5746, 1105.789
829.0567, 1088.850
829.5388, 1086.695
830.0209, 1090.542
830.5031, 1088.495
830.9852, 1079.948
831.4673, 1078.102
831.9494, 1095.891
832.4315, 1109.027
832.9136, 1102.890
833.3958, 1090.044
833.8779, 1082.612
834.3600, 1080.680
834.8421, 1078.442
835.3242, 1072.813
835.8063, 1069.088
836.2885, 1073.899
836.7706, 1082.875
837.2527, 1089.310
837.7348, 1093.225
838.2169, 1095.976
838.6990, 1098.151
839.1812, 1101.461
839.6633, 1108.723
840.1454, 1117.666
840.6275, 1120.167
841.1096, 1116.187
841.5917, 1105.782
842.0739, 1086.672
842.5560, 1072.914
843.0381, 1075.639
843.5202, 1088.074
844.0023, 1092.472
844.4844, 1084.180
844.9666, 1084.016
845.4487, 1102.181
845.9308, 1113.261
846.4129, 1101.202
846.8950, 1083.349
847.3771, 1077.512
847.8593, 1082.854
848.3414, 1085.190
848.8235, 1078.921
849.3056, 1074.408
849.7877, 1077.335
850.2698, 1080.486
850.7520, 1077.098
851.2341, 1069.709
851.7162, 1064.500
852.1983, 1063.361
852.6804, 1064.064
853.1625, 1067.786
853.6447, 1070.378
854.1268, 1063.172
854.6089, 1052.729
855.0910, 1053.475
855.5731, 1067.214
856.0552, 1085.082
856.5374, 1102.359
857.0195, 1114.781
857.5016, 1111.424
857.9837, 1096.182
858.4658, 1086.380
858.9479, 1083.599
859.4301, 1082.310
859.9122, 1079.873
860.3943, 1078.368
860.8764, 1081.933
861.3585, 1090.087
861.8406, 1088.114
862.3228, 1071.315
862.8049, 1064.083
863.2870, 1077.709
863.7691, 1090.126
864.2512, 1080.781
864.7333, 1057.323
865.2155, 1047.905
865.6976, 1061.342
866.1797, 1070.412
866.6618, 1074.351
867.1439, 1075.092
867.6260, 1071.380
868.1082, 1066.048
868.5903, 1061.637
869.0724, 1058.466
869.5545, 1057.301
870.0366, 1058.883
870.5187, 1061.803
871.0009, 1069.019
871.4830, 1074.437
871.9651, 1070.148
872.4472, 1060.019
872.9293, 1053.545
873.4114, 1053.935
873.8936, 1056.715
874.3757, 1057.060
874.8578, 1059.412
875.3399, 1073.964
875.8220, 1092.906
876.3041, 1099.368
876.7863, 1091.095
877.2684, 1076.607
877.7505, 1060.371
878.2326, 1046.276
878.7147, 1041.794
879.1968, 1044.900
879.6790, 1048.941
880.1611, 1053.209
880.6432, 1056.048
881.1253, 1056.724
881.6074, 1056.245
882.0895, 1055.300
882.5717, 1054.448
883.0538, 1058.145
883.5359, 1067.348
884.0180, 1074.234
884.5001, 1078.156
884.9822, 1077.007
885.4644, 1067.322
885.9465, 1054.040
886.4286, 1048.018
886.9107, 1050.585
887.3928, 1054.644
887.8749, 1061.857
888.3571, 1067.909
888.8392, 1073.936
889.3213, 1076.324
889.8034, 1068.116
890.2855, 1052.880
890.7676, 1047.469
891.2498, 1063.780
891.7319, 1070.416
892.2140, 1049.666
892.6961, 1032.903
893.1782, 1042.242
893.6603, 1062.644
894.1425, 1073.021
894.6246, 1070.937
895.1067, 1067.658
895.5888, 1065.676
896.0709, 1066.047
896.5530, 1073.518
897.0352, 1080.435
897.5173, 1077.025
897.9994, 1066.253
898.4815, 1057.305
898.9636, 1053.472
899.4457, 1051.172
899.9279, 1045.750
900.4100, 1041.749
900.8921, 1047.454
901.3742, 1058.153
901.8563, 1063.255
902.3384, 1061.689
902.8206, 1059.809
903.3027, 1061.584
903.7848, 1064.844
904.2669, 1068.496
904.7490, 1070.736
905.2311, 1062.457
905.7133, 1045.527
906.1954, 1035.998
906.6775, 1039.080
907.1596, 1049.780
907.6417, 1065.577
908.1238, 1081.477
908.6060, 1078.196
909.0881, 1055.560
909.5702, 1039.642
910.0523, 1033.068
910.5344, 1034.777
911.0165, 1046.008
911.4987, 1060.059
911.9808, 1067.705
912.4629, 1068.942
912.9450, 1064.987
913.4271, 1053.846
913.9092, 1043.146
914.3914, 1030.920
914.8735, 1026.023
915.3556, 1038.745
915.8377, 1060.016
916.3198, 1068.656
916.8019, 1061.120
917.2841, 1054.197
917.7662, 1048.567
918.2483, 1042.601
918.7304, 1032.349
919.2125, 1024.648
919.6946, 1026.858
920.1768, 1036.295
920.6589, 1042.967
921.1410, 1045.784
921.6231, 1046.632
922.1052, 1044.094
922.5873, 1041.586
923.0695, 1040.680
923.5516, 1040.653
924.0337, 1040.642
924.5158, 1040.592
924.9979, 1040.869
925.4800, 1041.545
925.9622, 1042.623
926.4443, 1045.362
926.9264, 1047.322
927.4085, 1045.626
927.8906, 1042.105
928.3727, 1039.791
928.8549, 1039.406
929.3370, 1040.303
929.8191, 1043.937
930.3012, 1046.618
930.7833, 1041.668
931.2654, 1036.836
931.7476, 1046.697
932.2297, 1065.121
932.7118, 1071.441
933.1939, 1058.409
933.6760, 1042.622
934.1581, 1037.424
934.6403, 1038.270
935.1224, 1041.446
935.6045, 1045.471
936.0866, 1047.414
936.5687, 1047.027
937.0508, 1045.472
937.5330, 1043.304
938.0151, 1041.137
938.4972, 1038.783
938.9793, 1037.356
939.4614, 1041.544
939.9435, 1049.152
940.4257, 1050.212
940.9078, 1043.203
941.3899, 1036.903
941.8720, 1037.620
942.3541, 1041.928
942.8362, 1042.820
943.3184, 1041.656
943.8005, 1047.551
944.2826, 1059.973
944.7647, 1067.033
945.2468, 1065.021
945.7289, 1058.756
946.2111, 1052.565
946.6932, 1045.372
947.1753, 1031.064
947.6574, 1009.735
948.1395, 1004.020
948.6216, 1016.636
949.1038, 1030.777
949.5859, 1040.831
950.0680, 1045.292
950.5501, 1041.057
951.0322, 1030.665
951.5143, 1028.675
951.9965, 1036.928
952.4786, 1041.437
952.9607, 1040.234
953.4428, 1037.709
953.9249, 1035.898
954.4070, 1033.573
954.8892, 1028.162
955.3713, 1020.106
955.8534, 1018.938
956.3355, 1026.777
956.8176, 1035.567
957.2997, 1046.997
957.7819, 1053.755
958.2640, 1050.794
958.7461, 1042.010
959.2282, 1033.215
959.7103, 1024.262
960.1924, 1016.872
960.6746, 1010.290
961.1567, 1006.721
961.6388, 1005.771
962.1209, 1009.142
962.6030, 1023.216
963.0851, 1039.549
963.5673, 1039.036
964.0494, 1015.837
964.5315, 1007.198
965.0136, 1029.844
965.4957, 1042.724
965.9778, 1026.762
966.4600, 1010.901
966.9421, 1018.216
967.4242, 1038.177
967.9063, 1046.092
968.3884, 1037.923
968.8705, 1031.686
969.3527, 1030.158
969.8348, 1028.074
970.3169, 1021.732
970.7990, 1016.525
971.2811, 1017.970
971.7632, 1023.628
972.2454, 1026.837
972.7275, 1026.488
973.2096, 1025.477
973.6917, 1021.012
974.1738, 1020.009
974.6559, 1030.018
975.1381, 1040.228
975.6202, 1039.021
976.1023, 1029.968
976.5844, 1025.844
977.0665, 1030.561
977.5486, 1033.842
978.0308, 1032.397
978.5129, 1030.284
978.9950, 1028.440
979.4771, 1027.424
979.9592, 1027.721
980.4413, 1029.262
980.9235, 1032.035
981.4056, 1037.126
981.8877, 1039.988
982.3698, 1036.630
982.8519, 1033.803
983.3340, 1037.110
983.8162, 1041.193
984.2983, 1038.981
984.7804, 1031.827
985.2625, 1027.590
985.7446, 1030.606
986.2267, 1029.819
986.7089, 1014.461
987.1910, 1001.812
987.6731, 1007.757
988.1552, 1018.060
988.6373, 1011.984
989.1194, 993.1829
989.6016, 985.5388
990.0837, 1000.321
990.5658, 1014.594
991.0479, 1019.360
991.5300, 1020.138
992.0121, 1019.838
992.4943, 1018.023
992.9764, 1011.371
993.4585, 1002.025
993.9406, 999.4787
994.4227, 1009.083
994.9048, 1019.265
995.3870, 1025.854
995.8691, 1030.253
996.3512, 1035.358
996.8333, 1037.557
997.3154, 1029.459
997.7975, 1013.438
998.2797, 1002.118
998.7618, 1000.660
999.2439, 1001.734
999.7260, 1002.634
1000.208, 1004.158
1000.690, 1008.603
1001.172, 1012.869
1001.654, 1011.906
1002.137, 1006.703
1002.619, 1003.587
1003.101, 1005.290
1003.583, 1007.528
1004.065, 1009.500
1004.547, 1010.015
1005.029, 1005.118
1005.511, 1000.313
1005.994, 1003.954
1006.476, 1014.593
1006.958, 1023.683
1007.440, 1029.267
1007.922, 1029.840
1008.404, 1020.273
1008.886, 1010.396
1009.368, 1006.701
1009.850, 1006.306
1010.333, 1005.452
1010.815, 1004.141
1011.297, 1004.400
1011.779, 1007.053
1012.261, 1010.567
1012.743, 1014.105
1013.225, 1018.528
1013.707, 1027.787
1014.190, 1035.700
1014.672, 1034.398
1015.154, 1025.305
1015.636, 1015.028
1016.118, 1004.581
1016.600, 996.6213
1017.082, 992.1285
1017.564, 990.4509
1018.046, 992.2081
1018.529, 995.8204
1019.011, 1000.174
1019.493, 1004.939
1019.975, 1010.435
1020.457, 1017.729
1020.939, 1020.613
1021.421, 1012.869
1021.903, 1005.491
1022.385, 1004.955
1022.868, 1005.892
1023.350, 1001.025
1023.832, 993.8179
1024.314, 995.6643
1024.796, 1011.223
1025.278, 1018.697
1025.760, 1004.998
1026.242, 992.0014
1026.725, 985.8072
1027.207, 985.3658
1027.689, 994.9006
1028.171, 1007.858
1028.653, 1009.409
1029.135, 995.7862
1029.617, 987.1265
1030.099, 988.5411
1030.582, 993.3004
1031.064, 1006.409
1031.546, 1015.478
1032.028, 1006.068
1032.510, 989.3326
1032.992, 986.8684
1033.474, 1001.502
1033.956, 1011.500
1034.438, 1013.507
1034.921, 1012.439
1035.403, 1004.516
1035.885, 998.6678
1036.367, 1002.730
1036.849, 1010.377
1037.331, 1011.724
1037.813, 1006.426
1038.295, 1002.602
1038.777, 1002.580
1039.260, 1000.370
1039.742, 993.4911
1040.224, 987.0724
1040.706, 981.9870
1041.188, 979.7247
1041.670, 983.2056
1042.152, 991.7524
1042.634, 997.9520
1043.116, 1001.674
1043.599, 1003.080
1044.081, 1000.697
1044.563, 998.7312
1045.045, 998.7253
1045.527, 999.7266
1046.009, 1000.651
1046.491, 1001.786
1046.973, 1004.886
1047.456, 1011.834
1047.938, 1013.993
1048.420, 1009.534
1048.902, 1005.833
1049.384, 1006.073
1049.866, 1004.819
1050.348, 996.1479
1050.830, 984.3816
1051.313, 981.7937
1051.795, 989.4109
1052.277, 996.6219
1052.759, 1003.909
1053.241, 1007.127
1053.723, 1004.857
1054.205, 1000.545
1054.687, 996.0978
1055.169, 992.2444
1055.651, 990.4390
1056.134, 990.5208
1056.616, 990.4907
1057.098, 990.3514
1057.580, 991.4012
1058.062, 993.8986
1058.544, 993.5781
1059.026, 987.9325
1059.508, 981.6773
1059.991, 981.5274
1060.473, 985.3960
1060.955, 985.7000
1061.437, 983.3917
1061.919, 983.8124
1062.401, 987.3467
1062.883, 993.1274
1063.365, 1000.499
1063.848, 1002.302
1064.330, 989.1316
1064.812, 971.2316
1065.294, 968.7225
1065.776, 975.8123
1066.258, 979.1441
1066.740, 978.5700
1067.222, 977.3001
1067.704, 976.5385
1068.187, 977.5716
1068.669, 981.8633
1069.151, 986.0621
1069.633, 986.4466
1070.115, 984.3475
1070.597, 980.5799
1071.079, 976.2141
1071.561, 972.4700
1072.043, 969.9958
1072.526, 970.3680
1073.008, 974.7885
1073.490, 978.5739
1073.972, 977.2056
1074.454, 975.0020
1074.936, 975.1230
1075.418, 976.8563
1075.900, 980.2814
1076.383, 984.1998
1076.865, 985.6300
1077.347, 983.6934
1077.829, 982.5409
1078.311, 985.9311
1078.793, 987.9063
1079.275, 984.7688
1079.757, 980.1743
1080.240, 974.8960
1080.722, 971.1405
1081.204, 973.8876
1081.686, 983.0576
1082.168, 987.1470
1082.650, 979.9166
1083.132, 973.9110
1083.614, 972.9877
1084.096, 971.3040
1084.578, 962.0754
1085.061, 953.9131
1085.543, 959.2829
1086.025, 974.4907
1086.507, 980.8972
1086.989, 972.5505
1087.471, 971.9327
1087.953, 987.3745
1088.435, 992.6040
1088.918, 973.9608
1089.400, 956.5326
1089.882, 960.6115
1090.364, 976.0148
1090.846, 980.2675
1091.328, 972.8551
1091.810, 968.9055
1092.292, 968.6487
1092.775, 971.1583
1093.257, 976.8785
1093.739, 981.6172
1094.221, 983.4356
1094.703, 982.3466
1095.185, 978.0591
1095.667, 971.2902
1096.149, 963.4279
1096.631, 955.1727
1097.114, 953.1801
1097.596, 957.3032
1098.078, 961.7711
1098.560, 964.4443
1099.042, 962.0462
1099.524, 950.2500
1100.006, 939.3093
1100.488, 949.3852
1100.970, 969.3828
1101.453, 976.8969
1101.935, 974.7911
1102.417, 971.5405
1102.899, 969.1997
1103.381, 967.2437
1103.863, 965.3468
1104.345, 965.6936
1104.827, 975.0634
1105.310, 982.1826
1105.792, 970.3915
1106.274, 955.0886
1106.756, 958.1066
1107.238, 972.4971
1107.720, 978.4999
1108.202, 972.3196
1108.684, 967.8378
1109.167, 975.0836
1109.649, 978.3877
1110.131, 965.8215
1110.613, 954.4070
1111.095, 955.3470
1111.577, 962.8254
1112.059, 972.1025
1112.541, 981.2809
1113.023, 983.2448
1113.505, 972.7342
1113.988, 966.5280
1114.470, 969.3524
1114.952, 969.7322
1115.434, 963.5546
1115.916, 956.1998
1116.398, 949.4647
1116.880, 945.8333
1117.362, 951.1965
1117.845, 965.6324
1118.327, 972.9578
1118.809, 971.4882
1119.291, 973.3322
1119.773, 981.0632
1120.255, 983.5409
1120.737, 975.3003
1121.219, 965.2782
1121.702, 962.4208
1122.184, 965.2346
1122.666, 972.0172
1123.148, 981.1960
1123.630, 984.9249
1124.112, 983.1439
1124.594, 975.2467
1125.076, 962.6299
1125.558, 955.6703
1126.041, 960.5059
1126.523, 969.0569
1127.005, 974.4415
1127.487, 976.2317
1127.969, 972.3196
1128.451, 965.3413
1128.933, 957.1633
1129.415, 950.2156
1129.897, 950.7671
1130.380, 959.4232
1130.862, 965.1584
1131.344, 960.3289
1131.826, 955.0622
1132.308, 952.8639
1132.790, 953.9592
1133.272, 964.8040
1133.754, 974.4437
1134.237, 964.7361
1134.719, 941.7094
1135.201, 933.6921
1135.683, 950.4913
1136.165, 960.1712
1136.647, 951.2121
1137.129, 948.8000
1137.611, 964.4322
1138.094, 976.5471
1138.576, 969.6688
1139.058, 956.3898
1139.540, 956.7042
1140.022, 968.2153
1140.504, 966.5016
1140.986, 948.9149
1141.468, 937.9385
1141.950, 934.9603
1142.432, 940.7596
1142.915, 956.1948
1143.397, 969.9280
1143.879, 972.9730
1144.361, 970.0596
1144.843, 969.6871
1145.325, 970.0047
1145.807, 964.4024
1146.289, 954.7396
1146.772, 944.1880
1147.254, 935.4768
1147.736, 938.2395
1148.218, 955.1011
1148.700, 969.8110
1149.182, 969.5484
1149.664, 963.6673
1150.146, 958.5227
1150.629, 953.5820
1151.111, 947.2496
1151.593, 941.4287
1152.075, 939.2324
1152.557, 940.3406
1153.039, 942.0825
1153.521, 944.6358
1154.003, 944.4861
1154.485, 936.5710
1154.968, 931.7755
1155.450, 936.1307
1155.932, 941.5125
1156.414, 942.0629
1156.896, 941.3469
1157.378, 945.2554
1157.860, 953.0922
1158.342, 956.7158
1158.824, 955.9694
1159.307, 950.1156
1159.789, 936.9905
1160.271, 932.7172
1160.753, 943.1175
1161.235, 954.6697
1161.717, 957.3279
1162.199, 957.0080
1162.681, 966.3792
1163.164, 980.0298
1163.646, 976.2678
1164.128, 961.6511
1164.610, 959.9965
1165.092, 969.3219
1165.574, 968.3525
1166.056, 951.6633
1166.538, 937.1336
1167.021, 936.9672
1167.503, 942.0445
1167.985, 949.1224
1168.467, 953.6563
1168.949, 948.2591
1169.431, 940.2785
1169.913, 939.0480
1170.395, 943.5442
1170.877, 948.4767
1171.359, 953.2416
1171.842, 955.6710
1172.324, 954.7599
1172.806, 952.4559
1173.288, 948.5339
1173.770, 943.9378
1174.252, 937.9951
1174.734, 932.8877
1175.216, 930.2011
1175.699, 930.7275
1176.181, 939.2363
1176.663, 957.0471
1177.145, 963.1392
1177.627, 957.3124
1178.109, 947.8446
1178.591, 936.4995
1179.073, 929.7093
1179.556, 930.5836
1180.038, 936.1630
1180.520, 944.7040
1181.002, 953.4441
1181.484, 959.1025
1181.966, 960.9843
1182.448, 955.4910
1182.930, 946.1515
1183.412, 940.0517
1183.895, 937.7970
1184.377, 935.4205
1184.859, 930.9806
1185.341, 930.3705
1185.823, 941.6387
1186.305, 949.9832
1186.787, 947.2423
1187.269, 941.4965
1187.751, 938.6708
1188.234, 936.0735
1188.716, 927.3380
1189.198, 914.6047
1189.680, 911.9106
1190.162, 923.0244
1190.644, 930.9542
1191.126, 935.4711
1191.608, 937.5898
1192.091, 937.2167
1192.573, 936.7768
1193.055, 937.8082
1193.537, 937.9519
1194.019, 933.4940
1194.501, 927.1349
1194.983, 925.5970
1195.465, 927.4445
1195.948, 929.0752
1196.430, 930.5352
1196.912, 932.3499
1197.394, 935.0280
1197.876, 941.2059
1198.358, 952.8626
1198.840, 959.4138
1199.322, 952.8967
1199.804, 941.0960
1200.286, 919.7911
1200.769, 903.8530
1201.251, 909.6641
1201.733, 925.3256
1202.215, 933.5773
1202.697, 934.2551
1203.179, 935.0130
1203.661, 937.5378
1204.143, 933.6016
1204.626, 918.4637
1205.108, 913.6349
1205.590, 926.0706
1206.072, 936.7360
1206.554, 935.1749
1207.036, 929.1540
1207.518, 928.0157
1208.000, 928.9412
1208.483, 923.2167
1208.965, 914.3021
1209.447, 911.5399
1209.929, 914.8160
1210.411, 926.1625
1210.893, 941.8442
1211.375, 946.6962
1211.857, 934.5596
1212.339, 919.8798
1212.822, 905.5377
1213.304, 899.1428
1213.786, 911.3014
1214.268, 925.5041
1214.750, 930.7771
1215.232, 931.1138
1215.714, 931.6482
1216.196, 932.1569
1216.678, 931.1276
1217.161, 928.7673
1217.643, 922.4406
1218.125, 909.2549
1218.607, 905.0411
1219.089, 912.9755
1219.571, 923.8751
1220.053, 934.3499
1220.535, 941.5939
1221.018, 942.8528
1221.500, 940.3586
1221.982, 937.5221
1222.464, 934.1215
1222.946, 928.3090
1223.428, 922.2491
1223.910, 921.7605
1224.392, 924.9557
1224.875, 924.2294
1225.357, 918.0621
1225.839, 913.5833
1226.321, 913.1693
1226.803, 916.2377
1227.285, 927.9537
1227.767, 936.1822
1228.249, 931.3796
1228.731, 925.5839
1229.214, 928.4576
1229.696, 935.6062
1230.178, 940.1049
1230.660, 941.8285
1231.142, 937.7702
1231.624, 927.4825
1232.106, 923.6435
1232.588, 926.6972
1233.070, 929.1417
1233.553, 928.9028
1234.035, 925.6172
1234.517, 918.9551
1234.999, 912.2370
1235.481, 906.7437
1235.963, 905.4918
1236.445, 918.2583
1236.927, 931.2682
1237.410, 924.0565
1237.892, 908.9868
1238.374, 908.5688
1238.856, 920.8349
1239.338, 926.0775
1239.820, 918.8499
##END=



