##NAMES=Sursassite
##RRUFFID=R060336
##IDEAL CHEMISTRY=Mn^2+^_2_Al_3_(SiO_4_)(Si_2_O_7_)(OH)_3_
##LOCALITY=Strategic Manganese mine, near Woodstock, New Brunswick, Canada
##OWNER=RRUFF
##SOURCE=Michael Scott
##DESCRIPTION=Reddish-brown fibrous or platy crystals in parallel or radiating groups
##STATUS=The identification of this mineral has been confirmed by single-crystal X-ray diffraction.
##URL=rruff.info/R060336
91.53320, 132.4968
92.01532, 135.0399
92.49744, 135.6144
92.97955, 135.1451
93.46167, 133.1422
93.94379, 130.6739
94.42590, 128.8347
94.90802, 127.2618
95.39014, 125.1694
95.87225, 122.4012
96.35437, 119.8208
96.83649, 117.8115
97.31860, 116.2121
97.80072, 114.9328
98.28284, 113.9234
98.76495, 112.9655
99.24707, 111.4911
99.72919, 108.9791
100.2113, 106.5674
100.6934, 104.3386
101.1755, 102.3791
101.6577, 100.8286
102.1398, 99.78239
102.6219, 99.22972
103.1040, 99.23133
103.5861, 100.2400
104.0682, 101.2638
104.5504, 101.7676
105.0325, 101.6678
105.5146, 101.2293
105.9967, 100.7955
106.4788, 100.4294
106.9609, 99.84689
107.4431, 98.63882
107.9252, 97.29707
108.4073, 96.59677
108.8894, 96.92300
109.3715, 97.66328
109.8536, 97.72982
110.3358, 97.05481
110.8179, 96.24368
111.3000, 95.51762
111.7821, 94.88551
112.2642, 94.44646
112.7463, 94.29395
113.2285, 94.34339
113.7106, 94.56513
114.1927, 95.01952
114.6748, 95.46507
115.1569, 95.48313
115.6390, 94.81634
116.1212, 94.38921
116.6033, 94.68604
117.0854, 95.24113
117.5675, 95.58684
118.0496, 95.47363
118.5317, 95.00797
119.0139, 94.70607
119.4960, 94.80807
119.9781, 94.82725
120.4602, 94.52384
120.9423, 94.07664
121.4244, 93.84316
121.9066, 94.14977
122.3887, 95.07617
122.8708, 95.37208
123.3529, 94.65672
123.8350, 93.81423
124.3171, 93.15949
124.7993, 92.74679
125.2814, 92.56576
125.7635, 92.64916
126.2456, 93.07732
126.7277, 93.36582
127.2098, 93.41358
127.6920, 93.35967
128.1741, 93.43226
128.6562, 93.72947
129.1383, 93.88880
129.6204, 93.17028
130.1025, 91.67148
130.5847, 90.55764
131.0668, 90.64916
131.5489, 91.57484
132.0310, 91.99938
132.5131, 91.34820
132.9952, 90.41873
133.4774, 90.04025
133.9595, 90.21841
134.4416, 90.27212
134.9237, 89.32041
135.4058, 87.10745
135.8879, 85.65928
136.3701, 86.11130
136.8522, 86.98018
137.3343, 87.47221
137.8164, 87.38828
138.2985, 87.02168
138.7806, 86.89745
139.2628, 87.29123
139.7449, 87.41295
140.2270, 86.87365
140.7091, 86.21897
141.1912, 86.00149
141.6733, 86.46925
142.1555, 87.37917
142.6376, 87.89140
143.1197, 87.53916
143.6018, 87.27858
144.0839, 87.25156
144.5660, 87.37463
145.0482, 87.53297
145.5303, 87.67906
146.0124, 87.78604
146.4945, 87.65222
146.9766, 86.95600
147.4587, 86.38670
147.9409, 86.37777
148.4230, 86.81516
148.9051, 87.17057
149.3872, 87.11089
149.8693, 86.62115
150.3514, 85.96037
150.8336, 84.91421
151.3157, 83.83202
151.7978, 83.11443
152.2799, 82.82643
152.7620, 82.45690
153.2441, 81.36517
153.7263, 79.92749
154.2084, 78.77441
154.6905, 78.20464
155.1726, 78.05518
155.6547, 78.02612
156.1368, 78.27100
156.6190, 78.34118
157.1011, 77.88290
157.5832, 77.10166
158.0653, 76.39917
158.5474, 76.16129
159.0295, 76.32365
159.5117, 76.01042
159.9938, 74.65185
160.4759, 73.34394
160.9580, 72.48586
161.4401, 72.01537
161.9222, 71.69732
162.4044, 71.32288
162.8865, 70.86290
163.3686, 70.51015
163.8507, 70.37522
164.3328, 70.24204
164.8149, 69.98706
165.2971, 69.62172
165.7792, 69.26833
166.2613, 69.08306
166.7434, 69.18504
167.2255, 69.10151
167.7076, 68.66992
168.1898, 68.19144
168.6719, 67.93047
169.1540, 67.92249
169.6361, 67.93362
170.1182, 67.58473
170.6003, 66.54899
171.0825, 66.03208
171.5646, 66.46230
172.0467, 67.29501
172.5288, 67.90199
173.0109, 68.09151
173.4930, 68.11601
173.9752, 68.39146
174.4573, 68.92452
174.9394, 69.50161
175.4215, 70.24303
175.9036, 70.98516
176.3857, 71.26490
176.8679, 70.72791
177.3500, 70.03482
177.8321, 70.17968
178.3142, 71.24307
178.7963, 72.16763
179.2784, 72.04972
179.7606, 71.05808
180.2427, 70.61375
180.7248, 71.51230
181.2069, 72.75442
181.6890, 73.50368
182.1711, 73.69605
182.6533, 73.55246
183.1354, 73.17978
183.6175, 72.53324
184.0996, 72.01433
184.5817, 71.89967
185.0638, 71.83023
185.5460, 71.58108
186.0281, 71.10696
186.5102, 70.55370
186.9923, 70.11821
187.4744, 69.82543
187.9565, 69.59341
188.4387, 69.29788
188.9208, 69.11337
189.4029, 69.23397
189.8850, 69.70389
190.3671, 70.32400
190.8492, 70.74161
191.3314, 70.98393
191.8135, 70.91658
192.2956, 70.00662
192.7777, 69.07917
193.2598, 69.03200
193.7419, 70.19187
194.2241, 71.96895
194.7062, 72.94038
195.1883, 72.16306
195.6704, 71.59921
196.1525, 71.38652
196.6346, 71.37770
197.1168, 71.39532
197.5989, 71.36112
198.0810, 71.32462
198.5631, 71.43902
199.0452, 71.86897
199.5273, 72.22243
200.0095, 72.33974
200.4916, 72.35335
200.9737, 72.52273
201.4558, 73.00626
201.9379, 73.63033
202.4200, 73.86867
202.9022, 73.52444
203.3843, 73.22874
203.8664, 73.28322
204.3485, 73.56879
204.8306, 73.72018
205.3127, 73.49213
205.7949, 73.14232
206.2770, 73.25542
206.7591, 74.04312
207.2412, 74.79400
207.7233, 75.05708
208.2054, 74.89837
208.6876, 74.70119
209.1697, 74.53941
209.6518, 74.48965
210.1339, 74.68678
210.6160, 75.24104
211.0981, 75.73646
211.5803, 75.83479
212.0624, 75.53625
212.5445, 75.04639
213.0266, 74.09778
213.5087, 73.21358
213.9908, 72.99477
214.4730, 73.62617
214.9551, 74.39854
215.4372, 74.40784
215.9193, 73.48396
216.4014, 72.86032
216.8836, 73.49458
217.3657, 74.21752
217.8478, 74.05784
218.3299, 72.76558
218.8120, 71.25735
219.2941, 70.95203
219.7763, 72.35994
220.2584, 73.27969
220.7405, 73.00851
221.2226, 72.33791
221.7047, 71.76424
222.1868, 71.42579
222.6690, 71.17577
223.1511, 70.73594
223.6332, 69.87861
224.1153, 69.36760
224.5974, 69.37292
225.0795, 69.62401
225.5617, 70.03651
226.0438, 70.55370
226.5259, 71.01081
227.0080, 71.08674
227.4901, 70.46510
227.9722, 70.03085
228.4544, 69.98869
228.9365, 70.01339
229.4186, 69.85622
229.9007, 69.44851
230.3828, 68.88815
230.8649, 68.33725
231.3471, 67.70719
231.8292, 67.24496
232.3113, 66.81792
232.7934, 66.61334
233.2755, 66.96647
233.7576, 67.91411
234.2398, 68.96711
234.7219, 69.28398
235.2040, 68.20378
235.6861, 67.52966
236.1682, 67.61028
236.6503, 67.89793
237.1325, 67.83588
237.6146, 67.29095
238.0967, 66.63158
238.5788, 66.43063
239.0609, 66.99458
239.5430, 67.32455
240.0252, 67.25839
240.5073, 67.00839
240.9894, 66.75548
241.4715, 66.54255
241.9536, 66.36971
242.4357, 66.23261
242.9179, 66.12486
243.4000, 66.09550
243.8821, 66.33616
244.3642, 66.57200
244.8463, 66.46994
245.3284, 65.95435
245.8106, 65.25939
246.2927, 64.59451
246.7748, 63.95084
247.2569, 63.49213
247.7390, 63.26884
248.2211, 63.23111
248.7033, 63.49148
249.1854, 64.13767
249.6675, 64.51619
250.1496, 63.57967
250.6317, 61.56810
251.1138, 60.23893
251.5960, 60.37040
252.0781, 61.19889
252.5602, 61.83238
253.0423, 62.20535
253.5244, 62.29637
254.0065, 61.91284
254.4887, 61.20127
254.9708, 60.53837
255.4529, 59.90308
255.9350, 59.41564
256.4171, 59.30413
256.8992, 59.63381
257.3813, 60.06899
257.8635, 60.56709
258.3456, 60.99596
258.8277, 61.06274
259.3098, 60.44471
259.7919, 59.56014
260.2740, 58.99394
260.7562, 58.78065
261.2383, 58.73597
261.7204, 58.85582
262.2025, 59.05923
262.6846, 59.23979
263.1667, 59.30371
263.6489, 59.40892
264.1310, 59.88153
264.6131, 60.85270
265.0952, 61.61887
265.5773, 61.62520
266.0594, 61.35678
266.5416, 61.25041
267.0237, 61.43606
267.5058, 61.78355
267.9879, 62.18561
268.4700, 62.69415
268.9521, 63.01189
269.4343, 62.94469
269.9164, 62.68797
270.3985, 62.25144
270.8806, 61.60094
271.3627, 61.12781
271.8448, 61.52402
272.3270, 63.05157
272.8091, 64.08529
273.2912, 63.71064
273.7733, 63.03901
274.2554, 62.73500
274.7375, 62.91024
275.2197, 63.24512
275.7018, 63.37643
276.1839, 63.26373
276.6660, 63.20592
277.1481, 63.17461
277.6302, 63.26768
278.1124, 63.62072
278.5945, 64.20553
279.0766, 64.79603
279.5587, 65.12022
280.0408, 65.13187
280.5229, 65.30894
281.0051, 65.97466
281.4872, 66.54898
281.9693, 66.66432
282.4514, 66.43073
282.9335, 66.27453
283.4156, 66.69312
283.8978, 67.71096
284.3799, 68.14452
284.8620, 67.50797
285.3441, 66.72265
285.8262, 66.02315
286.3083, 65.42238
286.7905, 64.88750
287.2726, 64.40229
287.7547, 63.96432
288.2368, 63.56369
288.7189, 63.22923
289.2010, 62.90011
289.6832, 62.59043
290.1653, 62.27143
290.6474, 61.92822
291.1295, 61.57872
291.6116, 61.16040
292.0938, 60.37564
292.5759, 58.76032
293.0580, 57.45510
293.5401, 56.67335
294.0222, 56.28731
294.5043, 56.21710
294.9865, 56.43653
295.4686, 56.81769
295.9507, 57.05952
296.4328, 57.15058
296.9149, 57.10060
297.3970, 57.02485
297.8792, 56.77460
298.3613, 56.07665
298.8434, 54.88615
299.3255, 53.62548
299.8076, 53.05261
300.2897, 53.56751
300.7719, 53.87951
301.2540, 53.78870
301.7361, 53.60921
302.2182, 53.48004
302.7003, 53.45406
303.1824, 53.57717
303.6646, 54.00792
304.1467, 54.99221
304.6288, 55.36103
305.1109, 54.30420
305.5930, 53.37574
306.0751, 53.54066
306.5573, 54.59728
307.0394, 55.58295
307.5215, 55.55623
308.0036, 54.42042
308.4857, 53.68406
308.9678, 53.66071
309.4500, 53.74715
309.9321, 53.85366
310.4142, 53.93840
310.8963, 53.98182
311.3784, 53.99023
311.8605, 53.93635
312.3427, 53.59595
312.8248, 52.39390
313.3069, 51.58248
313.7890, 51.51623
314.2711, 51.92344
314.7532, 52.53139
315.2354, 53.22267
315.7175, 53.86160
316.1996, 54.03064
316.6817, 53.44450
317.1638, 52.80185
317.6459, 52.09843
318.1281, 51.42540
318.6102, 50.82354
319.0923, 50.31649
319.5744, 49.97865
320.0565, 49.95752
320.5386, 50.38126
321.0208, 50.84029
321.5029, 51.45802
321.9850, 51.99662
322.4671, 52.27997
322.9492, 52.30646
323.4313, 52.22077
323.9135, 52.15942
324.3956, 52.10809
324.8777, 52.15893
325.3598, 52.34757
325.8419, 52.60522
326.3240, 52.92579
326.8062, 53.29797
327.2883, 53.71588
327.7704, 54.20244
328.2525, 54.74411
328.7346, 55.11448
329.2167, 55.20620
329.6989, 55.23242
330.1810, 55.06798
330.6631, 54.91117
331.1452, 55.05098
331.6273, 55.65348
332.1094, 56.61527
332.5916, 57.63410
333.0737, 58.77897
333.5558, 59.86040
334.0379, 60.94734
334.5200, 61.91974
335.0021, 62.61020
335.4843, 62.97506
335.9664, 63.18776
336.4485, 63.54517
336.9306, 64.14849
337.4127, 64.59232
337.8948, 64.52877
338.3770, 64.53575
338.8591, 65.02097
339.3412, 65.98196
339.8233, 67.06542
340.3055, 67.89381
340.7876, 68.42252
341.2697, 69.13264
341.7518, 70.65823
342.2339, 71.70924
342.7160, 71.33703
343.1982, 70.06513
343.6803, 69.17778
344.1624, 69.66348
344.6445, 71.21281
345.1266, 72.24618
345.6087, 72.41930
346.0909, 72.61993
346.5730, 73.33963
347.0551, 74.19054
347.5372, 74.65605
348.0193, 74.49676
348.5014, 73.98141
348.9836, 73.51424
349.4657, 73.00623
349.9478, 72.85930
350.4299, 73.55367
350.9120, 74.42088
351.3941, 75.03170
351.8763, 75.29951
352.3584, 75.29256
352.8405, 74.92695
353.3226, 74.18250
353.8047, 73.81242
354.2868, 74.50135
354.7690, 74.95916
355.2511, 74.14605
355.7332, 72.31605
356.2153, 70.62142
356.6974, 69.89516
357.1795, 69.91843
357.6617, 69.85229
358.1438, 69.67458
358.6259, 69.43539
359.1080, 69.35083
359.5901, 69.20242
360.0722, 68.56065
360.5544, 67.03474
361.0365, 65.22774
361.5186, 63.90536
362.0007, 63.08546
362.4828, 62.70311
362.9649, 63.19460
363.4471, 63.85395
363.9292, 63.81254
364.4113, 62.85844
364.8934, 61.76122
365.3755, 61.10019
365.8576, 60.81036
366.3398, 60.55814
366.8219, 60.33082
367.3040, 60.01751
367.7861, 59.38087
368.2682, 58.46456
368.7503, 57.81055
369.2325, 57.91506
369.7146, 58.33487
370.1967, 58.25288
370.6788, 57.53489
371.1609, 56.71832
371.6430, 56.29110
372.1252, 56.10056
372.6073, 55.64284
373.0894, 54.27847
373.5715, 53.08492
374.0536, 53.29456
374.5357, 54.63646
375.0179, 55.40509
375.5000, 54.53650
375.9821, 52.79506
376.4642, 52.02552
376.9463, 52.53889
377.4284, 53.14899
377.9106, 53.56758
378.3927, 53.76782
378.8748, 53.70502
379.3569, 53.36757
379.8390, 52.75452
380.3211, 51.74740
380.8033, 50.21864
381.2854, 49.09235
381.7675, 48.50386
382.2496, 48.29575
382.7317, 48.52741
383.2138, 49.11161
383.6960, 49.58450
384.1781, 49.55090
384.6602, 49.06464
385.1423, 48.94224
385.6244, 49.66223
386.1065, 50.14257
386.5887, 49.78567
387.0708, 48.99261
387.5529, 48.49856
388.0350, 48.63728
388.5171, 49.08635
388.9992, 49.13066
389.4814, 48.32505
389.9635, 47.78482
390.4456, 47.89411
390.9277, 48.01168
391.4098, 47.45699
391.8919, 46.23726
392.3741, 45.01395
392.8562, 44.48575
393.3383, 44.73115
393.8204, 45.07861
394.3025, 45.92746
394.7846, 46.46228
395.2668, 46.13697
395.7489, 45.32115
396.2310, 44.71734
396.7131, 44.74700
397.1952, 45.23077
397.6773, 45.56691
398.1595, 45.83985
398.6416, 45.79199
399.1237, 45.24093
399.6058, 44.49228
400.0879, 43.77275
400.5700, 43.14637
401.0522, 42.58582
401.5343, 42.04354
402.0164, 41.51049
402.4985, 41.06389
402.9806, 40.64574
403.4627, 40.38799
403.9449, 40.46465
404.4270, 40.75704
404.9091, 40.96199
405.3912, 40.84256
405.8733, 40.52444
406.3554, 40.44291
406.8376, 40.74339
407.3197, 40.91320
407.8018, 40.56950
408.2839, 40.07611
408.7660, 39.82985
409.2481, 39.95493
409.7303, 40.15216
410.2124, 40.12710
410.6945, 39.89053
411.1766, 39.59614
411.6587, 39.20317
412.1408, 38.85801
412.6230, 38.70796
413.1051, 38.73183
413.5872, 38.78394
414.0693, 38.83314
414.5514, 38.86201
415.0335, 38.81454
415.5157, 38.67677
415.9978, 38.58059
416.4799, 38.59791
416.9620, 38.73164
417.4441, 38.97404
417.9262, 39.52473
418.4084, 39.91813
418.8905, 39.80931
419.3726, 39.33580
419.8547, 38.84525
420.3368, 38.45461
420.8189, 38.09124
421.3011, 37.56807
421.7832, 36.73274
422.2653, 36.38921
422.7474, 37.19299
423.2295, 38.14031
423.7116, 38.16144
424.1938, 37.31350
424.6759, 36.65559
425.1580, 37.08423
425.6401, 38.51512
426.1222, 39.38198
426.6043, 39.36015
427.0865, 39.24651
427.5686, 39.16213
428.0507, 39.12733
428.5328, 39.17477
429.0149, 39.31427
429.4970, 39.48133
429.9792, 39.56093
430.4613, 39.50882
430.9434, 39.46210
431.4255, 39.42601
431.9076, 39.38967
432.3897, 39.27357
432.8719, 39.13771
433.3540, 39.19048
433.8361, 39.67508
434.3182, 40.47402
434.8003, 40.66935
435.2824, 39.59764
435.7646, 38.94824
436.2467, 39.40695
436.7288, 40.31710
437.2109, 41.04647
437.6930, 41.39982
438.1751, 41.43835
438.6573, 41.11087
439.1394, 40.37365
439.6215, 39.89769
440.1036, 39.89965
440.5857, 40.05440
441.0678, 40.12035
441.5500, 40.13855
442.0321, 40.27813
442.5142, 40.78966
442.9963, 41.41185
443.4784, 41.60413
443.9605, 41.30717
444.4427, 41.06185
444.9248, 41.34354
445.4069, 41.72569
445.8890, 41.41174
446.3711, 40.08464
446.8532, 38.85675
447.3354, 38.31826
447.8175, 38.32582
448.2996, 38.66357
448.7817, 39.33076
449.2638, 40.02298
449.7459, 40.43478
450.2281, 40.54523
450.7102, 40.46383
451.1923, 39.89170
451.6744, 39.39690
452.1565, 39.52444
452.6386, 40.05607
453.1208, 40.25122
453.6029, 39.67748
454.0850, 38.67867
454.5671, 38.21091
455.0492, 38.84789
455.5313, 39.25564
456.0135, 39.36328
456.4956, 39.27446
456.9777, 39.05528
457.4598, 38.72428
457.9419, 38.24786
458.4240, 37.50579
458.9062, 36.48698
459.3883, 36.17496
459.8704, 37.41359
460.3525, 38.43752
460.8346, 38.97738
461.3167, 39.04704
461.7989, 38.51509
462.2810, 37.31482
462.7631, 36.05859
463.2452, 35.81752
463.7273, 36.80560
464.2094, 37.53127
464.6916, 37.57908
465.1737, 37.52971
465.6558, 37.80846
466.1379, 38.30554
466.6200, 38.57795
467.1021, 38.13485
467.5843, 37.42181
468.0664, 37.48996
468.5485, 38.48355
469.0306, 39.19755
469.5127, 38.89764
469.9948, 38.10368
470.4770, 37.62980
470.9591, 37.53804
471.4412, 37.63508
471.9233, 37.94534
472.4054, 38.35040
472.8875, 38.60992
473.3697, 38.67467
473.8518, 38.70866
474.3339, 38.87134
474.8160, 39.15984
475.2981, 39.35698
475.7802, 39.41807
476.2624, 39.43710
476.7445, 39.39640
477.2266, 39.35292
477.7087, 39.45033
478.1908, 39.74967
478.6729, 40.08300
479.1551, 40.12193
479.6372, 39.60139
480.1193, 39.41785
480.6014, 39.69062
481.0835, 40.14314
481.5656, 40.77731
482.0478, 41.46587
482.5299, 41.92480
483.0120, 41.92817
483.4941, 41.63713
483.9762, 41.70282
484.4583, 42.42609
484.9405, 42.88642
485.4226, 42.76673
485.9047, 42.43389
486.3868, 42.10319
486.8689, 41.82612
487.3510, 41.65092
487.8332, 41.68889
488.3153, 41.88216
488.7974, 41.87801
489.2795, 41.49617
489.7616, 41.33408
490.2437, 42.16103
490.7259, 43.35230
491.2080, 43.90745
491.6901, 43.42778
492.1722, 42.71859
492.6543, 42.35204
493.1364, 42.21736
493.6186, 41.96233
494.1007, 41.46275
494.5828, 40.96650
495.0649, 40.79440
495.5470, 40.98819
496.0291, 41.03052
496.5113, 40.60479
496.9934, 40.30279
497.4755, 40.63363
497.9576, 41.36491
498.4397, 41.89594
498.9218, 41.92922
499.4040, 41.67427
499.8861, 41.61050
500.3682, 42.02059
500.8503, 42.08902
501.3324, 41.46485
501.8145, 40.83910
502.2967, 40.62910
502.7788, 40.80614
503.2609, 41.13038
503.7430, 41.45777
504.2251, 41.77900
504.7072, 42.06685
505.1894, 42.36102
505.6715, 42.52962
506.1536, 42.45248
506.6357, 42.29730
507.1178, 42.16646
507.5999, 42.07912
508.0821, 42.05561
508.5642, 42.11476
509.0463, 42.24907
509.5284, 42.47184
510.0105, 42.81935
510.4926, 43.08986
510.9748, 43.06758
511.4569, 42.90279
511.9390, 42.96347
512.4211, 43.40508
512.9032, 43.82158
513.3853, 43.90788
513.8674, 43.86407
514.3495, 44.03554
514.8317, 44.50114
515.3138, 45.15199
515.7959, 45.96450
516.2780, 46.98653
516.7601, 47.36512
517.2422, 46.51443
517.7244, 45.78743
518.2065, 45.59740
518.6886, 45.82847
519.1707, 46.36023
519.6528, 47.12872
520.1349, 47.96026
520.6171, 48.54909
521.0992, 48.78422
521.5813, 49.23254
522.0634, 50.18853
522.5455, 51.07080
523.0276, 51.60186
523.5098, 51.91807
523.9919, 52.26341
524.4740, 52.72206
524.9561, 53.32689
525.4382, 54.28281
525.9203, 55.59694
526.4025, 56.49851
526.8846, 56.67453
527.3667, 56.54543
527.8488, 56.28636
528.3309, 55.97969
528.8130, 56.26595
529.2952, 57.83331
529.7773, 59.68757
530.2594, 61.01673
530.7415, 61.83744
531.2236, 62.26994
531.7057, 62.28337
532.1879, 62.18186
532.6700, 62.57002
533.1521, 63.74636
533.6342, 64.76018
534.1163, 65.63240
534.5984, 66.30228
535.0806, 66.47132
535.5627, 66.38405
536.0448, 66.72228
536.5269, 67.94248
537.0090, 69.71623
537.4911, 71.00890
537.9733, 71.57353
538.4554, 72.21987
538.9375, 73.34192
539.4196, 74.32571
539.9017, 74.51790
540.3839, 74.13033
540.8660, 74.14520
541.3481, 75.33943
541.8302, 77.27832
542.3123, 79.03176
542.7944, 80.58176
543.2766, 82.09758
543.7587, 83.72456
544.2408, 85.26855
544.7229, 86.33949
545.2050, 86.84425
545.6871, 87.70950
546.1693, 89.70390
546.6514, 91.93176
547.1335, 93.32806
547.6156, 93.92577
548.0977, 94.48401
548.5798, 95.44415
549.0620, 96.72779
549.5441, 98.06142
550.0262, 99.63439
550.5083, 100.9922
550.9904, 102.4354
551.4725, 103.4325
551.9547, 103.3350
552.4368, 102.3455
552.9189, 101.3303
553.4010, 100.9777
553.8831, 101.0544
554.3652, 100.5825
554.8474, 99.32168
555.3295, 98.12637
555.8116, 97.55150
556.2937, 96.88102
556.7758, 95.54538
557.2579, 93.54060
557.7401, 91.32980
558.2222, 89.14565
558.7043, 86.95190
559.1864, 84.54549
559.6685, 81.93395
560.1506, 79.58918
560.6328, 77.79678
561.1149, 76.37912
561.5970, 74.94854
562.0791, 73.50929
562.5612, 72.06804
563.0433, 70.54447
563.5255, 69.08449
564.0076, 67.81261
564.4897, 66.71828
564.9718, 65.70615
565.4539, 64.72401
565.9360, 63.75011
566.4182, 62.71482
566.9003, 61.53487
567.3824, 60.43969
567.8645, 59.29981
568.3466, 58.35624
568.8287, 57.87677
569.3109, 57.75539
569.7930, 57.62686
570.2751, 57.27984
570.7572, 56.76389
571.2393, 56.13141
571.7214, 55.36520
572.2036, 54.71552
572.6857, 54.29052
573.1678, 53.99545
573.6499, 53.74127
574.1320, 53.52765
574.6141, 53.26875
575.0963, 52.87952
575.5784, 52.48553
576.0605, 52.17446
576.5426, 51.95138
577.0247, 51.84845
577.5068, 51.89803
577.9890, 51.96289
578.4711, 51.76238
578.9532, 51.08994
579.4353, 50.68406
579.9174, 50.69193
580.3995, 50.78296
580.8817, 50.85720
581.3638, 50.88633
581.8459, 50.82457
582.3280, 50.63912
582.8101, 50.44526
583.2922, 50.45980
583.7744, 50.70123
584.2565, 50.87469
584.7386, 50.90384
585.2207, 50.91380
585.7029, 50.98238
586.1850, 51.10039
586.6671, 51.25117
587.1492, 51.46028
587.6313, 51.66181
588.1135, 51.77461
588.5956, 51.84653
589.0777, 52.03825
589.5598, 52.39576
590.0419, 52.67710
590.5240, 52.56902
591.0062, 52.03906
591.4883, 51.89282
591.9704, 52.42098
592.4525, 52.93141
592.9346, 53.26176
593.4167, 53.48071
593.8989, 53.66629
594.3810, 53.84134
594.8631, 53.99916
595.3452, 54.08296
595.8273, 54.11777
596.3094, 54.47586
596.7916, 55.45319
597.2737, 56.08134
597.7558, 55.42031
598.2379, 54.45671
598.7200, 54.33177
599.2021, 55.25336
599.6843, 56.14177
600.1664, 56.28864
600.6485, 56.15428
601.1306, 56.46690
601.6127, 57.22490
602.0948, 57.86207
602.5770, 58.01175
603.0591, 57.89036
603.5412, 58.10064
604.0233, 58.97004
604.5054, 59.64223
604.9875, 60.03609
605.4697, 60.30999
605.9518, 60.51334
606.4339, 60.68322
606.9160, 60.87509
607.3981, 61.12363
607.8802, 61.39333
608.3624, 61.53760
608.8445, 61.49588
609.3266, 61.84452
609.8087, 62.92647
610.2908, 64.09370
610.7729, 64.97818
611.2551, 65.57725
611.7372, 65.85274
612.2193, 65.59223
612.7014, 65.25900
613.1835, 65.13100
613.6656, 65.18265
614.1478, 65.41723
614.6299, 65.83183
615.1120, 66.21972
615.5941, 66.35252
616.0762, 66.22849
616.5583, 66.22283
617.0405, 66.59726
617.5226, 66.76020
618.0047, 66.37041
618.4868, 65.87442
618.9689, 65.86638
619.4510, 66.33116
619.9332, 66.54947
620.4153, 65.70770
620.8974, 64.18207
621.3795, 63.42867
621.8616, 63.60822
622.3438, 63.70077
622.8259, 63.26067
623.3080, 62.61217
623.7901, 62.24250
624.2722, 62.17525
624.7543, 61.92163
625.2365, 61.12528
625.7186, 60.27925
626.2007, 59.82662
626.6828, 59.67076
627.1649, 59.55017
627.6470, 59.35828
628.1292, 58.99624
628.6113, 58.22450
629.0934, 56.80883
629.5755, 55.95903
630.0576, 56.33700
630.5397, 56.59048
631.0219, 56.22963
631.5040, 55.54509
631.9861, 54.95146
632.4682, 54.56974
632.9503, 54.23537
633.4324, 53.78533
633.9146, 53.26118
634.3967, 52.74123
634.8788, 52.20723
635.3609, 51.97622
635.8430, 52.44078
636.3251, 53.22419
636.8073, 53.15979
637.2894, 51.83950
637.7715, 50.79065
638.2536, 50.18382
638.7357, 49.97464
639.2178, 50.56822
639.7000, 51.54238
640.1821, 51.70380
640.6642, 50.34669
641.1463, 48.32989
641.6284, 47.48017
642.1105, 48.07365
642.5927, 48.35825
643.0748, 47.91978
643.5569, 47.49348
644.0390, 47.60291
644.5211, 47.99648
645.0032, 48.15229
645.4854, 47.87854
645.9675, 47.51917
646.4496, 47.29576
646.9317, 47.14676
647.4138, 46.92363
647.8959, 46.61573
648.3781, 46.40714
648.8602, 46.45327
649.3423, 46.69410
649.8244, 46.84876
650.3065, 46.98574
650.7886, 46.92064
651.2708, 46.44154
651.7529, 45.94567
652.2350, 45.69220
652.7171, 45.65449
653.1992, 45.68325
653.6813, 45.70844
654.1635, 45.73901
654.6456, 45.80989
655.1277, 45.91298
655.6098, 45.92115
656.0919, 45.75975
656.5740, 45.64467
657.0562, 45.78057
657.5383, 46.14148
658.0204, 46.47457
658.5025, 46.94650
658.9846, 47.17959
659.4667, 46.85213
659.9489, 46.35938
660.4310, 46.17102
660.9131, 46.28555
661.3952, 46.31084
661.8773, 45.91417
662.3594, 45.29632
662.8416, 45.17950
663.3237, 45.74800
663.8058, 46.14040
664.2879, 46.17083
664.7700, 46.00985
665.2521, 45.68799
665.7343, 45.27622
666.2164, 45.01863
666.6985, 45.12132
667.1806, 45.21217
667.6627, 44.95679
668.1448, 44.52166
668.6270, 44.18664
669.1091, 44.01884
669.5912, 44.05613
670.0733, 44.37981
670.5554, 44.91937
671.0375, 45.15673
671.5197, 44.80930
672.0018, 44.62016
672.4839, 44.77481
672.9660, 45.00569
673.4481, 45.21890
673.9302, 45.35191
674.4124, 45.25911
674.8945, 44.76019
675.3766, 44.17568
675.8587, 43.92135
676.3408, 43.94013
676.8229, 43.98623
677.3051, 44.01509
677.7872, 44.00550
678.2693, 43.92056
678.7514, 43.77282
679.2335, 43.70870
679.7156, 43.74269
680.1978, 43.83163
680.6799, 43.91578
681.1620, 44.09321
681.6441, 44.52136
682.1262, 45.13595
682.6083, 45.65617
683.0905, 45.85740
683.5726, 45.98772
684.0547, 46.64037
684.5368, 47.81128
685.0189, 48.64539
685.5010, 48.92034
685.9832, 48.94918
686.4653, 48.82981
686.9474, 48.65818
687.4295, 48.88873
687.9116, 49.83083
688.3937, 50.76617
688.8759, 51.44567
689.3580, 52.04799
689.8401, 52.78196
690.3222, 53.62858
690.8043, 54.38891
691.2864, 54.92463
691.7686, 55.33802
692.2507, 55.84679
692.7328, 56.43768
693.2149, 57.24878
693.6970, 58.53632
694.1791, 59.69804
694.6613, 60.08584
695.1434, 60.06469
695.6255, 60.49204
696.1076, 61.73325
696.5897, 62.94128
697.0718, 63.71807
697.5540, 64.26234
698.0361, 64.89544
698.5182, 65.56624
699.0003, 65.84560
699.4824, 65.43611
699.9645, 64.66086
700.4467, 64.30537
700.9288, 64.44908
701.4109, 64.74577
701.8930, 65.52480
702.3751, 66.01697
702.8572, 65.70322
703.3394, 64.91797
703.8215, 64.23112
704.3036, 63.79838
704.7857, 63.31531
705.2678, 62.45306
705.7499, 61.52607
706.2321, 61.05572
706.7142, 60.98746
707.1963, 60.86386
707.6784, 60.45406
708.1605, 59.77966
708.6426, 58.80238
709.1248, 57.27653
709.6069, 56.33939
710.0890, 56.65392
710.5711, 56.77711
711.0532, 56.13219
711.5353, 55.05668
712.0175, 53.94628
712.4996, 52.86789
712.9817, 51.88511
713.4638, 51.13033
713.9459, 50.43171
714.4280, 49.48589
714.9102, 48.35016
715.3923, 47.34864
715.8744, 46.62355
716.3565, 46.10101
716.8386, 45.70724
717.3207, 45.49580
717.8029, 45.04218
718.2850, 44.27984
718.7671, 43.34456
719.2492, 42.01760
719.7313, 40.69487
720.2134, 39.86717
720.6956, 39.53601
721.1777, 39.09337
721.6598, 38.01754
722.1419, 36.74641
722.6240, 35.87368
723.1061, 35.31310
723.5883, 34.67983
724.0704, 33.84893
724.5525, 33.10515
725.0346, 32.79196
725.5167, 32.88968
725.9988, 32.65855
726.4810, 31.67702
726.9631, 30.97442
727.4452, 30.84922
727.9273, 30.88693
728.4094, 30.76968
728.8915, 30.52065
729.3737, 30.35813
729.8558, 30.45457
730.3379, 30.55380
730.8200, 30.34491
731.3021, 29.92363
731.7842, 29.52658
732.2664, 29.19831
732.7485, 28.96348
733.2306, 28.84221
733.7127, 28.83020
734.1948, 28.92961
734.6769, 29.37369
735.1591, 29.49663
735.6412, 29.03156
736.1233, 28.51783
736.6054, 28.20371
737.0875, 28.04431
737.5696, 27.91753
738.0518, 27.77714
738.5339, 27.71429
739.0160, 27.90370
739.4981, 28.18004
739.9802, 28.21622
740.4623, 28.01191
740.9445, 27.75288
741.4266, 27.51307
741.9087, 27.36279
742.3908, 27.47005
742.8729, 27.97121
743.3550, 28.13590
743.8372, 27.48149
744.3193, 27.07019
744.8014, 27.44463
745.2835, 28.05365
745.7656, 28.22444
746.2477, 27.89139
746.7299, 27.65554
747.2120, 28.04178
747.6941, 28.55061
748.1762, 28.50181
748.6583, 28.08118
749.1404, 27.94019
749.6226, 28.25962
750.1047, 28.58941
750.5868, 28.40838
751.0689, 27.80596
751.5510, 27.80999
752.0331, 28.91214
752.5153, 29.67312
752.9974, 29.76552
753.4795, 29.53358
753.9616, 28.95021
754.4437, 28.20530
754.9258, 27.86067
755.4080, 28.28567
755.8901, 28.75750
756.3722, 28.80131
756.8543, 28.57415
757.3364, 28.17929
757.8185, 27.71246
758.3007, 27.52002
758.7828, 27.83633
759.2649, 28.40825
759.7470, 28.64732
760.2291, 28.43013
760.7112, 28.51917
761.1934, 29.24537
761.6755, 29.78992
762.1576, 29.50654
762.6397, 28.94901
763.1218, 28.84869
763.6039, 29.31536
764.0861, 29.76007
764.5682, 30.04580
765.0503, 30.17374
765.5324, 30.03183
766.0145, 29.75959
766.4966, 29.61081
766.9788, 29.65903
767.4609, 29.84162
767.9430, 30.17348
768.4251, 30.55411
768.9072, 30.31771
769.3893, 29.24136
769.8715, 28.75897
770.3536, 29.51458
770.8357, 30.55377
771.3178, 31.03588
771.7999, 31.03491
772.2820, 30.92460
772.7642, 30.49418
773.2463, 30.27021
773.7284, 30.55478
774.2105, 30.98064
774.6926, 31.25552
775.1747, 31.37144
775.6569, 31.39056
776.1390, 31.32950
776.6211, 31.33127
777.1032, 31.76128
777.5853, 32.47798
778.0674, 32.55555
778.5496, 31.84667
779.0317, 31.22109
779.5138, 31.09853
779.9959, 31.30779
780.4780, 31.58347
780.9601, 31.97619
781.4423, 32.22295
781.9244, 32.24026
782.4065, 32.22037
782.8886, 32.14019
783.3707, 32.10529
783.8528, 32.34085
784.3350, 32.79306
784.8171, 32.98675
785.2992, 32.36690
785.7813, 31.63858
786.2634, 31.77911
786.7455, 32.58691
787.2277, 33.54441
787.7098, 34.53260
788.1919, 35.14991
788.6740, 35.03010
789.1561, 34.36285
789.6382, 33.81450
790.1204, 33.32779
790.6025, 33.10429
791.0846, 33.22587
791.5667, 33.54655
792.0488, 34.29769
792.5309, 35.09313
793.0131, 35.24726
793.4952, 34.55262
793.9773, 33.93946
794.4594, 33.96510
794.9415, 34.16008
795.4236, 34.04132
795.9058, 33.74112
796.3879, 33.61120
796.8700, 33.75945
797.3521, 34.07536
797.8342, 34.50098
798.3163, 34.97344
798.7985, 35.08543
799.2806, 34.72753
799.7627, 34.67971
800.2448, 35.29890
800.7269, 35.97662
801.2090, 36.18962
801.6912, 35.99992
802.1733, 35.80854
802.6554, 35.62254
803.1375, 35.42474
803.6196, 34.99937
804.1017, 34.75305
804.5839, 35.17675
805.0660, 35.97380
805.5481, 36.44793
806.0302, 36.34118
806.5123, 36.19831
806.9944, 36.79028
807.4766, 37.69285
807.9587, 37.73794
808.4408, 36.97289
808.9229, 36.38023
809.4050, 36.32608
809.8871, 36.52412
810.3693, 36.64744
810.8514, 36.69717
811.3335, 36.77919
811.8156, 36.90024
812.2977, 37.04348
812.7798, 37.25959
813.2620, 37.44864
813.7441, 37.53350
814.2262, 37.53644
814.7083, 37.51450
815.1904, 37.43575
815.6725, 37.45238
816.1547, 37.76144
816.6368, 38.13391
817.1189, 38.29457
817.6010, 38.27422
818.0831, 38.16730
818.5652, 38.02336
819.0474, 38.09234
819.5295, 38.95811
820.0116, 40.43904
820.4937, 40.69060
820.9758, 39.48092
821.4579, 38.42241
821.9401, 38.02242
822.4222, 37.96388
822.9043, 37.97009
823.3864, 38.03633
823.8685, 38.03986
824.3506, 37.90068
824.8328, 37.81421
825.3149, 37.76653
825.7970, 37.81964
826.2791, 38.30396
826.7612, 38.88048
827.2433, 38.67358
827.7255, 37.26065
828.2076, 35.86407
828.6897, 35.66309
829.1718, 36.07684
829.6539, 36.14912
830.1360, 35.90957
830.6182, 35.79785
831.1003, 35.98176
831.5824, 36.19665
832.0645, 36.12498
832.5466, 35.78507
833.0287, 35.34507
833.5109, 34.63095
833.9930, 34.37256
834.4751, 35.02232
834.9572, 35.80632
835.4393, 36.05439
835.9214, 35.93374
836.4036, 35.93128
836.8857, 36.18039
837.3678, 36.34886
837.8499, 36.35701
838.3320, 36.25549
838.8141, 35.98293
839.2963, 35.65809
839.7784, 35.47246
840.2605, 35.48682
840.7426, 35.63029
841.2247, 35.91128
841.7068, 36.24503
842.1890, 36.51638
842.6711, 36.70277
843.1532, 36.57122
843.6353, 36.04626
844.1174, 35.66791
844.5995, 35.94863
845.0817, 36.73410
845.5638, 37.35168
846.0459, 37.86214
846.5280, 38.00802
847.0101, 37.37768
847.4922, 36.89058
847.9744, 37.24974
848.4565, 37.94710
848.9386, 38.17406
849.4207, 37.79904
849.9028, 37.46926
850.3849, 37.16747
850.8671, 37.16476
851.3492, 37.97792
851.8313, 39.00216
852.3134, 39.31605
852.7955, 38.88734
853.2776, 38.50417
853.7598, 38.69749
854.2419, 39.20675
854.7240, 39.73717
855.2061, 40.24931
855.6882, 40.55001
856.1703, 40.61817
856.6525, 40.60128
857.1346, 40.56684
857.6167, 40.54797
858.0988, 40.61308
858.5809, 40.77588
859.0630, 40.95798
859.5452, 41.38041
860.0273, 41.42281
860.5094, 40.38918
860.9915, 39.30132
861.4736, 39.15447
861.9557, 39.81532
862.4379, 40.39219
862.9200, 40.76891
863.4021, 40.98409
863.8842, 40.98875
864.3663, 40.88841
864.8484, 40.62856
865.3306, 40.36595
865.8127, 40.50880
866.2948, 41.20719
866.7769, 41.86871
867.2590, 41.87440
867.7411, 41.43706
868.2233, 40.87363
868.7054, 40.24887
869.1875, 39.86605
869.6696, 39.81175
870.1517, 39.98148
870.6339, 40.32572
871.1160, 40.75548
871.5981, 40.84555
872.0802, 40.50140
872.5623, 40.12403
873.0444, 39.53428
873.5266, 39.29009
874.0087, 40.09935
874.4908, 41.28120
874.9729, 41.46088
875.4550, 40.38341
875.9371, 39.77230
876.4193, 40.28701
876.9014, 40.79663
877.3835, 40.85084
877.8656, 40.64595
878.3477, 40.25629
878.8298, 39.81562
879.3120, 39.73000
879.7941, 40.37953
880.2762, 40.97736
880.7583, 40.46024
881.2404, 39.50390
881.7225, 39.47480
882.2047, 40.24836
882.6868, 40.66408
883.1689, 40.22108
883.6510, 39.50037
884.1331, 39.21153
884.6152, 39.31310
885.0974, 39.57458
885.5795, 40.05528
886.0616, 40.25793
886.5437, 40.05375
887.0258, 39.54842
887.5079, 38.63997
887.9901, 37.54548
888.4722, 37.15174
888.9543, 38.05628
889.4364, 38.52375
889.9185, 38.08693
890.4006, 37.76295
890.8828, 38.18495
891.3649, 38.80632
891.8470, 38.85795
892.3291, 38.30324
892.8112, 37.93184
893.2933, 38.23946
893.7755, 38.62086
894.2576, 38.71929
894.7397, 38.66167
895.2218, 38.55072
895.7039, 38.43887
896.1860, 38.37091
896.6682, 38.36113
897.1503, 38.55259
897.6324, 39.34103
898.1145, 40.42883
898.5966, 40.86757
899.0787, 40.69504
899.5609, 40.48700
900.0430, 40.40813
900.5251, 40.56783
901.0072, 41.12019
901.4893, 41.95232
901.9714, 42.47907
902.4536, 42.57952
902.9357, 42.80268
903.4178, 43.13154
903.8999, 43.72070
904.3820, 45.01997
904.8641, 46.42196
905.3463, 46.67730
905.8284, 45.56442
906.3105, 45.18031
906.7926, 46.16648
907.2747, 47.26608
907.7568, 48.06744
908.2390, 48.84715
908.7211, 49.93858
909.2032, 51.24018
909.6853, 52.40995
910.1674, 53.32388
910.6495, 54.08646
911.1317, 54.55067
911.6138, 55.07136
912.0959, 56.20568
912.5780, 57.69886
913.0601, 58.84193
913.5422, 59.49411
914.0244, 60.21947
914.5065, 61.54915
914.9886, 63.19522
915.4707, 64.68496
915.9528, 65.97585
916.4349, 66.66447
916.9171, 66.68095
917.3992, 66.87747
917.8813, 67.72452
918.3634, 68.98782
918.8455, 70.36358
919.3276, 71.89070
919.8098, 72.79680
920.2919, 72.76503
920.7740, 72.93154
921.2561, 73.61502
921.7382, 74.51883
922.2203, 75.61926
922.7025, 76.74904
923.1846, 77.28883
923.6667, 77.12319
924.1488, 76.63149
924.6309, 75.55883
925.1130, 74.49744
925.5952, 73.62133
926.0773, 72.96079
926.5594, 72.72434
927.0415, 72.81509
927.5236, 72.49303
928.0057, 71.11692
928.4879, 69.73183
928.9700, 68.97521
929.4521, 68.61362
929.9342, 68.70630
930.4163, 68.90516
930.8984, 68.30171
931.3806, 66.58633
931.8627, 64.68094
932.3448, 63.42775
932.8269, 62.67072
933.3090, 62.33106
933.7911, 62.22941
934.2733, 61.52967
934.7554, 60.09336
935.2375, 58.49847
935.7196, 57.11188
936.2017, 55.92217
936.6838, 54.95242
937.1660, 54.20971
937.6481, 53.53769
938.1302, 52.98589
938.6123, 52.24745
939.0944, 51.11588
939.5765, 49.97713
940.0587, 49.22648
940.5408, 48.81605
941.0229, 48.44599
941.5050, 48.24743
941.9871, 47.84943
942.4692, 47.03056
942.9514, 46.25140
943.4335, 45.88144
943.9156, 45.54942
944.3977, 44.68019
944.8798, 43.25790
945.3619, 42.07909
945.8441, 41.21030
946.3262, 40.74700
946.8083, 40.95231
947.2904, 41.37857
947.7725, 41.85460
948.2546, 42.19451
948.7368, 42.01650
949.2189, 41.19344
949.7010, 40.40284
950.1831, 40.14634
950.6652, 40.07593
951.1473, 39.99538
951.6295, 39.77778
952.1116, 39.07383
952.5937, 37.96693
953.0758, 37.02665
953.5579, 36.57206
954.0400, 36.44038
954.5222, 36.56562
955.0043, 36.80352
955.4864, 36.65638
955.9685, 36.16892
956.4506, 35.82330
956.9327, 35.76262
957.4149, 35.64300
957.8970, 35.13919
958.3791, 34.38314
958.8612, 33.69913
959.3433, 33.06559
959.8254, 32.92250
960.3076, 33.42448
960.7897, 33.84459
961.2718, 33.83270
961.7539, 33.69276
962.2360, 33.87100
962.7181, 34.33382
963.2003, 34.27745
963.6824, 33.49747
964.1645, 32.59631
964.6466, 31.16987
965.1287, 30.20392
965.6108, 30.70433
966.0930, 31.77410
966.5751, 32.07547
967.0572, 31.52242
967.5393, 30.85776
968.0214, 29.96663
968.5035, 29.22788
968.9857, 28.68715
969.4678, 28.38477
969.9499, 28.40913
970.4320, 28.67634
970.9141, 29.07708
971.3962, 29.62649
971.8784, 29.92020
972.3605, 29.59988
972.8426, 29.14355
973.3247, 28.70630
973.8068, 28.43827
974.2889, 28.69127
974.7711, 29.29941
975.2532, 29.58662
975.7353, 29.21253
976.2174, 28.65215
976.6995, 28.23963
977.1816, 27.96701
977.6638, 27.88562
978.1459, 27.92269
978.6280, 27.93923
979.1101, 27.88509
979.5922, 27.66056
980.0743, 27.14576
980.5565, 26.65864
981.0386, 26.88523
981.5207, 27.56824
982.0028, 27.72729
982.4849, 27.36633
982.9670, 27.03639
983.4492, 26.92361
983.9313, 26.87696
984.4134, 26.72972
984.8955, 26.58116
985.3776, 26.83708
985.8597, 27.51900
986.3419, 27.85184
986.8240, 27.72288
987.3061, 27.61227
987.7882, 27.77263
988.2703, 27.88256
988.7524, 27.48426
989.2346, 26.66022
989.7167, 26.34611
990.1988, 26.78146
990.6809, 26.99683
991.1630, 26.86383
991.6451, 26.56467
992.1273, 26.09141
992.6094, 25.58609
993.0915, 25.22072
993.5736, 24.98636
994.0557, 25.05746
994.5378, 25.78624
995.0200, 26.30121
995.5021, 26.43344
995.9842, 26.42583
996.4663, 26.35036
996.9484, 26.24550
997.4305, 26.19849
997.9127, 26.23098
998.3948, 26.10858
998.8769, 25.54141
999.3590, 25.14972
999.8411, 25.32678
1000.323, 25.56178
1000.805, 25.40953
1001.287, 25.02098
1001.770, 24.76994
1002.252, 24.74458
1002.734, 24.70020
1003.216, 24.48418
1003.698, 24.28082
1004.180, 24.12476
1004.662, 24.09307
1005.144, 24.48719
1005.627, 25.05152
1006.109, 25.00283
1006.591, 24.03390
1007.073, 23.20476
1007.555, 23.59518
1008.037, 24.13789
1008.519, 23.58418
1009.001, 22.59136
1009.483, 22.24602
1009.966, 22.57031
1010.448, 23.01557
1010.930, 23.32910
1011.412, 23.57071
1011.894, 23.81066
1012.376, 24.00651
1012.858, 24.13535
1013.340, 24.15719
1013.823, 23.91083
1014.305, 23.42618
1014.787, 22.95648
1015.269, 22.63944
1015.751, 22.53456
1016.233, 22.81722
1016.715, 23.35165
1017.197, 23.82449
1017.679, 24.20167
1018.162, 24.32865
1018.644, 24.18466
1019.126, 23.94449
1019.608, 23.71669
1020.090, 23.52027
1020.572, 23.33331
1021.054, 23.19256
1021.536, 23.44035
1022.018, 24.06008
1022.501, 24.53542
1022.983, 24.74553
1023.465, 24.71570
1023.947, 24.42202
1024.429, 24.06082
1024.911, 24.15828
1025.393, 23.82557
1025.875, 23.57191
1026.358, 23.68722
1026.840, 23.19620
1027.322, 23.58364
1027.804, 23.95328
1028.286, 23.54560
1028.768, 22.74863
1029.250, 22.57718
1029.732, 23.13601
1030.214, 23.51774
1030.697, 23.69723
1031.179, 23.78947
1031.661, 23.84812
1032.143, 23.76352
1032.625, 23.40170
1033.107, 22.87067
1033.589, 22.48057
1034.071, 22.25998
1034.553, 22.03707
1035.036, 21.70159
1035.518, 21.61859
1036.000, 22.04783
1036.482, 22.51449
1036.964, 22.66154
1037.446, 22.55396
1037.928, 22.37221
1038.410, 22.09491
1038.893, 21.81567
1039.375, 21.49259
1039.857, 21.23352
1040.339, 21.03102
1040.821, 20.93740
1041.303, 21.17546
1041.785, 21.52867
1042.267, 21.29988
1042.750, 20.16986
1043.232, 19.52649
1043.714, 19.93635
1044.196, 20.08683
1044.678, 19.12008
1045.160, 18.31780
1045.642, 19.00921
1046.124, 20.50692
1046.606, 20.99724
1047.089, 19.98099
1047.571, 19.64910
1048.053, 21.10154
1048.535, 22.08476
1049.017, 21.80975
1049.499, 21.01406
1049.981, 19.88782
1050.463, 18.77781
1050.945, 18.46338
1051.428, 19.18427
1051.910, 19.68470
1052.392, 19.52186
1052.874, 19.38421
1053.356, 19.58584
1053.838, 19.80612
1054.320, 19.65802
1054.802, 19.38311
1055.285, 19.61513
1055.767, 20.52074
1056.249, 20.94087
1056.731, 20.12310
1057.213, 19.36563
1057.695, 19.07237
1058.177, 19.08531
1058.659, 19.43396
1059.141, 19.93201
1059.624, 20.30184
1060.106, 20.49430
1060.588, 20.51021
1061.070, 20.09414
1061.552, 19.84277
1062.034, 20.26751
1062.516, 20.68232
1062.998, 20.38682
1063.480, 19.76931
1063.963, 19.59630
1064.445, 19.96703
1064.927, 20.21757
1065.409, 19.82623
1065.891, 19.64665
1066.373, 20.39383
1066.855, 21.12380
1067.337, 21.05549
1067.820, 20.49909
1068.302, 19.84685
1068.784, 19.23977
1069.266, 19.07557
1069.748, 19.68736
1070.230, 20.44760
1070.712, 21.15416
1071.194, 21.83402
1071.677, 22.52365
1072.159, 23.19650
1072.641, 23.80759
1073.123, 24.36234
1073.605, 24.91454
1074.087, 25.55854
1074.569, 26.02262
1075.051, 26.15507
1075.533, 26.08833
1076.016, 25.58503
1076.498, 25.15301
1076.980, 25.41260
1077.462, 26.37727
1077.944, 27.83587
1078.426, 30.00753
1078.908, 31.62271
1079.390, 31.44481
1079.873, 31.24941
1080.355, 32.28675
1080.837, 33.89521
1081.319, 35.20724
1081.801, 36.31928
1082.283, 37.87753
1082.765, 40.13544
1083.247, 42.43539
1083.729, 44.76691
1084.212, 46.71029
1084.694, 48.26051
1085.176, 49.10325
1085.658, 48.86961
1086.140, 47.68653
1086.622, 45.80655
1087.104, 43.26328
1087.586, 40.58039
1088.068, 37.89381
1088.551, 35.22635
1089.033, 32.22166
1089.515, 29.57565
1089.997, 28.17263
1090.479, 27.47531
1090.961, 26.33880
1091.443, 24.59548
1091.925, 23.29781
1092.408, 23.02593
1092.890, 23.01821
1093.372, 23.33915
1093.854, 23.43793
1094.336, 22.74452
1094.818, 21.65959
1095.300, 20.81562
1095.782, 20.24743
1096.265, 19.49723
1096.747, 18.10258
1097.229, 17.14837
1097.711, 17.28324
1098.193, 17.63526
1098.675, 17.82779
1099.157, 17.86117
1099.639, 17.63160
1100.121, 17.26280
1100.604, 17.27097
1101.086, 17.96728
1101.568, 18.40594
1102.050, 18.14021
1102.532, 17.81759
1103.014, 17.74656
1103.496, 17.72027
1103.978, 17.48547
1104.460, 17.14339
1104.943, 16.99782
1105.425, 17.12840
1105.907, 17.23051
1106.389, 17.28862
1106.871, 17.25727
1107.353, 17.01436
1107.835, 16.78704
1108.317, 16.81473
1108.800, 16.92808
1109.282, 16.76066
1109.764, 16.26916
1110.246, 16.06412
1110.728, 16.46086
1111.210, 16.75600
1111.692, 16.79551
1112.174, 16.78360
1112.656, 16.83389
1113.139, 16.87696
1113.621, 16.84206
1114.103, 16.72582
1114.585, 16.49803
1115.067, 15.92971
1115.549, 15.67038
1116.031, 16.09857
1116.513, 16.28766
1116.995, 15.62639
1117.478, 14.95945
1117.960, 15.08809
1118.442, 15.78421
1118.924, 16.35320
1119.406, 16.85406
1119.888, 16.96856
1120.370, 16.44364
1120.852, 16.05812
1121.335, 15.98577
1121.817, 16.09032
1122.299, 16.40986
1122.781, 16.70303
1123.263, 16.44137
1123.745, 16.59155
1124.227, 16.62125
1124.709, 16.21684
1125.192, 16.49554
1125.674, 15.88744
1126.156, 15.35540
1126.638, 15.38529
1127.120, 15.57294
1127.602, 15.40852
1128.084, 15.00891
1128.566, 14.98457
1129.048, 15.38837
1129.531, 15.69525
1130.013, 15.87614
1130.495, 16.02905
1130.977, 16.20150
1131.459, 16.21693
1131.941, 15.89680
1132.423, 15.43579
1132.905, 15.25961
1133.387, 15.35438
1133.870, 15.54858
1134.352, 15.83286
1134.834, 15.85450
1135.316, 15.55210
1135.798, 15.43909
1136.280, 15.80971
1136.762, 16.27668
1137.244, 16.39832
1137.727, 16.17018
1138.209, 15.28439
1138.691, 14.03196
1139.173, 13.82914
1139.655, 14.63861
1140.137, 15.34626
1140.619, 15.56651
1141.101, 15.66722
1141.583, 15.97771
1142.066, 16.24415
1142.548, 15.90883
1143.030, 15.33230
1143.512, 15.30708
1143.994, 15.67445
1144.476, 15.94656
1144.958, 16.01845
1145.440, 15.97685
1145.922, 15.86528
1146.405, 15.65349
1146.887, 15.15475
1147.369, 14.69151
1147.851, 14.71636
1148.333, 14.96356
1148.815, 15.07660
1149.297, 15.03941
1149.779, 14.90486
1150.262, 14.70732
1150.744, 14.60916
1151.226, 14.77639
1151.708, 14.94835
1152.190, 14.94566
1152.672, 14.88837
1153.154, 14.91271
1153.636, 14.92882
1154.119, 14.67945
1154.601, 14.26589
1155.083, 14.26801
1155.565, 15.04802
1156.047, 15.52159
1156.529, 14.94379
1157.011, 14.48715
1157.493, 14.93633
1157.975, 15.46715
1158.458, 15.24249
1158.940, 14.61810
1159.422, 14.38945
1159.904, 14.64182
1160.386, 15.00630
1160.868, 15.69218
1161.350, 16.11872
1161.832, 16.18807
1162.314, 16.02978
1162.797, 15.47899
1163.279, 14.93963
1163.761, 14.91370
1164.243, 14.68327
1164.725, 14.67812
1165.207, 14.90623
1165.689, 14.86074
1166.171, 15.43500
1166.654, 15.55986
1167.136, 14.79208
1167.618, 14.09772
1168.100, 14.12166
1168.582, 14.58705
1169.064, 15.07721
1169.546, 15.56639
1170.028, 15.76321
1170.510, 15.65905
1170.993, 15.64520
1171.475, 15.76449
1171.957, 15.93498
1172.439, 16.13391
1172.921, 16.12073
1173.403, 15.63123
1173.885, 14.96743
1174.367, 14.75698
1174.849, 14.87115
1175.332, 14.85045
1175.814, 14.75004
1176.296, 14.95845
1176.778, 15.43791
1177.260, 15.53285
1177.742, 14.93124
1178.224, 14.25935
1178.706, 13.99107
1179.189, 14.12824
1179.671, 15.08212
1180.153, 16.16041
1180.635, 16.19882
1181.117, 15.53343
1181.599, 15.03229
1182.081, 14.88835
1182.563, 14.85946
1183.046, 14.81454
1183.528, 14.92978
1184.010, 15.61685
1184.492, 16.14419
1184.974, 15.89707
1185.456, 15.33174
1185.938, 14.83562
1186.420, 14.46247
1186.902, 14.15307
1187.385, 13.88478
1187.867, 14.01473
1188.349, 15.32279
1188.831, 15.96221
1189.313, 14.91694
1189.795, 13.94025
1190.277, 13.89780
1190.759, 14.31317
1191.241, 14.87501
1191.724, 15.47734
1192.206, 15.69203
1192.688, 15.43431
1193.170, 15.10290
1193.652, 14.52761
1194.134, 14.47455
1194.616, 15.27525
1195.098, 16.00699
1195.581, 16.13658
1196.063, 15.98228
1196.545, 15.98228
1197.027, 16.07352
1197.509, 15.92841
1197.991, 15.57247
1198.473, 15.53578
1198.955, 15.79813
1199.438, 15.55900
1199.920, 14.64412
1200.402, 13.80792
1200.884, 13.55227
1201.366, 13.65837
1201.848, 13.96047
1202.330, 14.33904
1202.812, 14.60208
1203.294, 14.74821
1203.776, 14.70915
1204.259, 14.56324
1204.741, 14.48884
1205.223, 14.55394
1205.705, 14.86139
1206.187, 15.70189
1206.669, 16.18350
1207.151, 15.22680
1207.633, 14.17191
1208.116, 14.14278
1208.598, 14.55793
1209.080, 14.74788
1209.562, 14.73051
1210.044, 14.75788
1210.526, 14.87544
1211.008, 15.00929
1211.490, 15.19172
1211.973, 15.31992
1212.455, 15.52289
1212.937, 15.46896
1213.419, 14.62812
1213.901, 13.88593
1214.383, 14.35177
1214.865, 15.54229
1215.347, 15.75343
1215.829, 14.79204
1216.312, 14.13981
1216.794, 13.77890
1217.276, 13.93438
1217.758, 14.75145
1218.240, 15.37104
1218.722, 15.35155
1219.204, 15.75520
1219.686, 15.33158
1220.168, 15.65119
1220.651, 15.38688
1221.133, 14.76668
1221.615, 14.95732
1222.097, 14.44524
1222.579, 15.39481
1223.061, 14.05551
1223.543, 13.16912
1224.025, 13.44913
1224.508, 14.05567
1224.990, 14.34425
1225.472, 14.49229
1225.954, 14.70423
1226.436, 14.84741
1226.918, 14.71510
1227.400, 14.43201
1227.882, 14.16963
1228.365, 13.97953
1228.847, 13.90901
1229.329, 13.97883
1229.811, 14.13843
1230.293, 14.50293
1230.775, 14.77645
1231.257, 14.98866
1231.739, 14.94266
1232.221, 14.20174
1232.703, 13.35553
1233.186, 13.19870
1233.668, 13.63196
1234.150, 14.01569
1234.632, 14.38163
1235.114, 14.53214
1235.596, 14.39252
1236.078, 14.42281
1236.560, 14.76758
1237.043, 14.99782
1237.525, 14.84697
1238.007, 14.59847
1238.489, 14.65306
1238.971, 14.84142
1239.453, 14.69165
1239.935, 14.27974
1240.417, 13.67003
1240.900, 13.05723
1241.382, 13.19931
1241.864, 14.07757
1242.346, 14.75230
1242.828, 14.76307
1243.310, 14.61896
1243.792, 14.53257
1244.274, 14.68785
1244.756, 15.65681
1245.239, 16.53349
1245.721, 16.27448
1246.203, 15.42311
1246.685, 14.74418
1247.167, 14.36813
1247.649, 14.39699
1248.131, 15.10178
1248.613, 15.36004
1249.095, 14.32126
1249.578, 13.95347
1250.060, 15.17393
1250.542, 16.18788
1251.024, 15.99481
1251.506, 15.30075
1251.988, 14.89205
1252.470, 14.73823
1252.952, 14.82285
1253.435, 15.16371
1253.917, 14.81558
1254.399, 13.80304
1254.881, 13.31974
1255.363, 13.55886
1255.845, 13.90061
1256.327, 14.06027
1256.809, 14.39697
1257.292, 15.41597
1257.774, 16.39186
1258.256, 16.22555
1258.738, 15.46347
1259.220, 14.46188
1259.702, 13.68489
1260.184, 14.13543
1260.666, 15.42459
1261.148, 16.06272
1261.630, 15.64154
1262.113, 15.20785
1262.595, 15.35225
1263.077, 15.22536
1263.559, 14.14002
1264.041, 13.28075
1264.523, 13.32676
1265.005, 13.77089
1265.487, 14.37392
1265.970, 14.90670
1266.452, 14.75399
1266.934, 13.89769
1267.416, 13.60749
1267.898, 13.97360
1268.380, 14.22035
1268.862, 14.27010
1269.344, 14.21641
1269.827, 14.08718
1270.309, 14.27242
1270.791, 15.11913
1271.273, 15.85617
1271.755, 15.06485
1272.237, 13.65935
1272.719, 13.24941
1273.201, 13.50846
1273.683, 14.12444
1274.166, 14.80446
1274.648, 15.00591
1275.130, 14.70405
1275.612, 14.36947
1276.094, 14.14353
1276.576, 14.04189
1277.058, 14.17391
1277.540, 14.28939
1278.022, 14.22079
1278.505, 14.18243
1278.987, 14.44951
1279.469, 14.71534
1279.951, 14.59445
1280.433, 14.17621
1280.915, 13.78831
1281.397, 13.38837
1281.879, 13.47635
1282.362, 14.12646
1282.844, 14.23853
1283.326, 13.62074
1283.808, 13.86196
1284.290, 15.61600
1284.772, 17.36159
1285.254, 17.87093
1285.736, 17.15101
##END=



