##NAMES=Susannite
##RRUFFID=R070704
##IDEAL CHEMISTRY=Pb^2+^_4_(S^6+^O_4_)(CO_3_)_2_(OH)_2_
##LOCALITY=Boarezzo mine (Pradisci prospect; Rio Carpane prospect), Boarezzo, Varese Province, Lombardy, Italy
##OWNER=RRUFF
##SOURCE=Michael Scott
##DESCRIPTION=Array of colorless tabular hexagonal plates
##STATUS=The identification of this mineral has been confirmed by single-crystal X-ray diffraction.
##URL=rruff.info/R070704
138.2885, 9704.687
138.7706, 9738.340
139.2528, 9784.988
139.7349, 9816.619
140.2170, 9824.863
140.6991, 9840.404
141.1812, 9881.562
141.6633, 9942.781
142.1455, 10000.49
142.6276, 10039.31
143.1097, 10071.10
143.5918, 10117.55
144.0739, 10182.84
144.5561, 10259.37
145.0382, 10340.01
145.5203, 10424.53
146.0024, 10515.02
146.4845, 10612.76
146.9666, 10717.12
147.4488, 10829.74
147.9309, 10952.46
148.4130, 11083.03
148.8951, 11216.84
149.3772, 11358.05
149.8593, 11495.54
150.3415, 11619.04
150.8236, 11736.85
151.3057, 11863.59
151.7878, 12009.43
152.2699, 12174.57
152.7520, 12350.05
153.2342, 12557.34
153.7163, 12758.94
154.1984, 12945.51
154.6805, 13116.14
155.1626, 13270.36
155.6447, 13400.24
156.1269, 13485.21
156.6090, 13618.27
157.0911, 13840.97
157.5732, 14071.86
158.0553, 14265.96
158.5374, 14414.55
159.0196, 14537.60
159.5017, 14666.59
159.9838, 14805.45
160.4659, 14945.29
160.9480, 15097.25
161.4301, 15246.46
161.9123, 15379.01
162.3944, 15489.77
162.8765, 15582.28
163.3586, 15665.26
163.8407, 15740.61
164.3228, 15805.84
164.8050, 15858.43
165.2871, 15900.85
165.7692, 15939.92
166.2513, 15982.06
166.7334, 16018.96
167.2155, 16020.45
167.6977, 15953.09
168.1798, 15889.95
168.6619, 15877.27
169.1440, 15905.40
169.6261, 15922.66
170.1082, 15896.33
170.5904, 15832.28
171.0725, 15764.22
171.5546, 15700.64
172.0367, 15629.35
172.5188, 15534.84
173.0009, 15414.46
173.4831, 15292.09
173.9652, 15194.30
174.4473, 15106.97
174.9294, 15000.72
175.4115, 14863.00
175.8936, 14701.53
176.3758, 14528.56
176.8579, 14335.72
177.3400, 14148.39
177.8221, 13983.35
178.3042, 13834.53
178.7864, 13685.47
179.2685, 13534.63
179.7506, 13378.81
180.2327, 13199.19
180.7148, 12968.17
181.1969, 12742.66
181.6791, 12558.94
182.1612, 12408.50
182.6433, 12258.66
183.1254, 12077.37
183.6075, 11859.00
184.0896, 11656.18
184.5718, 11473.54
185.0539, 11305.77
185.5360, 11162.70
186.0181, 11038.93
186.5002, 10912.49
186.9823, 10750.69
187.4645, 10532.43
187.9466, 10342.61
188.4287, 10197.54
188.9108, 10066.74
189.3929, 9937.797
189.8750, 9805.613
190.3572, 9669.757
190.8393, 9526.854
191.3214, 9367.188
191.8035, 9218.722
192.2856, 9083.401
192.7677, 8958.210
193.2499, 8843.265
193.7320, 8738.472
194.2141, 8637.851
194.6962, 8526.977
195.1783, 8385.871
195.6604, 8258.278
196.1426, 8149.173
196.6247, 8052.330
197.1068, 7962.721
197.5889, 7878.645
198.0710, 7796.401
198.5531, 7702.827
199.0353, 7577.623
199.5174, 7465.206
199.9995, 7380.402
200.4816, 7313.785
200.9637, 7249.290
201.4458, 7179.670
201.9280, 7104.737
202.4101, 7020.006
202.8922, 6902.484
203.3743, 6801.364
203.8564, 6749.193
204.3385, 6731.857
204.8207, 6705.173
205.3028, 6639.717
205.7849, 6543.550
206.2670, 6466.083
206.7491, 6417.653
207.2312, 6377.250
207.7134, 6336.889
208.1955, 6295.812
208.6776, 6247.807
209.1597, 6186.331
209.6418, 6114.093
210.1239, 6045.542
210.6061, 5972.897
211.0882, 5909.150
211.5703, 5869.425
212.0524, 5854.796
212.5345, 5845.410
213.0166, 5833.587
213.4988, 5816.247
213.9809, 5785.069
214.4630, 5727.348
214.9451, 5659.716
215.4272, 5603.355
215.9094, 5559.837
216.3915, 5521.292
216.8736, 5486.191
217.3557, 5452.112
217.8378, 5414.177
218.3199, 5367.413
218.8021, 5316.475
219.2842, 5271.024
219.7663, 5233.752
220.2484, 5196.232
220.7305, 5151.437
221.2126, 5102.418
221.6948, 5054.993
222.1769, 5017.084
222.6590, 4983.434
223.1411, 4934.205
223.6232, 4854.997
224.1053, 4784.704
224.5875, 4752.492
225.0696, 4745.464
225.5517, 4733.654
226.0338, 4695.474
226.5159, 4635.762
226.9980, 4583.316
227.4802, 4543.771
227.9623, 4504.531
228.4444, 4458.754
228.9265, 4408.298
229.4086, 4357.730
229.8907, 4305.932
230.3729, 4253.744
230.8550, 4220.546
231.3371, 4228.114
231.8192, 4232.571
232.3013, 4213.960
232.7834, 4175.950
233.2656, 4132.108
233.7477, 4092.416
234.2298, 4057.008
234.7119, 4021.071
235.1940, 3976.517
235.6761, 3939.387
236.1583, 3922.716
236.6404, 3921.040
237.1225, 3916.682
237.6046, 3892.496
238.0867, 3846.135
238.5688, 3802.385
239.0510, 3756.353
239.5331, 3717.433
240.0152, 3694.072
240.4973, 3682.905
240.9794, 3672.335
241.4615, 3648.981
241.9437, 3608.480
242.4258, 3581.478
242.9079, 3578.814
243.3900, 3580.131
243.8721, 3581.503
244.3542, 3580.355
244.8364, 3572.673
245.3185, 3552.285
245.8006, 3514.731
246.2827, 3486.573
246.7648, 3478.448
247.2469, 3469.983
247.7291, 3449.331
248.2112, 3418.122
248.6933, 3387.221
249.1754, 3368.039
249.6575, 3362.818
250.1397, 3360.426
250.6218, 3369.177
251.1039, 3373.520
251.5860, 3361.429
252.0681, 3335.445
252.5502, 3309.695
253.0324, 3300.858
253.5145, 3316.058
253.9966, 3318.038
254.4787, 3299.421
254.9608, 3276.389
255.4429, 3253.493
255.9251, 3233.009
256.4072, 3218.025
256.8893, 3212.910
257.3714, 3221.707
257.8535, 3223.241
258.3356, 3216.208
258.8177, 3204.761
259.2999, 3188.267
259.7820, 3168.347
260.2641, 3149.831
260.7462, 3137.784
261.2283, 3133.446
261.7104, 3130.683
262.1926, 3131.438
262.6747, 3131.812
263.1568, 3132.242
263.6389, 3131.262
264.1210, 3124.399
264.6031, 3106.510
265.0853, 3074.865
265.5674, 3045.440
266.0495, 3011.073
266.5316, 2984.403
267.0138, 2976.066
267.4959, 2983.511
267.9780, 2994.988
268.4601, 3000.413
268.9422, 3000.238
269.4243, 2989.056
269.9065, 2958.972
270.3886, 2927.317
270.8707, 2899.257
271.3528, 2876.709
271.8349, 2862.373
272.3170, 2860.010
272.7992, 2872.028
273.2813, 2875.714
273.7634, 2867.315
274.2455, 2856.096
274.7276, 2845.838
275.2097, 2836.665
275.6919, 2826.640
276.1740, 2813.637
276.6561, 2796.860
277.1382, 2787.643
277.6203, 2791.992
278.1024, 2796.330
278.5846, 2795.887
279.0667, 2790.581
279.5488, 2781.057
280.0309, 2766.668
280.5130, 2747.110
280.9951, 2738.706
281.4773, 2749.519
281.9594, 2761.038
282.4415, 2766.686
282.9236, 2767.378
283.4057, 2765.906
283.8878, 2763.294
284.3700, 2759.984
284.8521, 2766.963
285.3342, 2797.177
285.8163, 2822.411
286.2984, 2829.343
286.7805, 2824.616
287.2627, 2823.923
287.7448, 2838.231
288.2269, 2864.371
288.7090, 2875.563
289.1911, 2859.124
289.6732, 2843.136
290.1554, 2829.926
290.6375, 2822.139
291.1196, 2825.450
291.6017, 2843.984
292.0838, 2873.395
292.5659, 2892.065
293.0481, 2892.390
293.5302, 2890.901
294.0123, 2882.802
294.4944, 2876.105
294.9765, 2885.684
295.4586, 2919.818
295.9408, 2967.146
296.4229, 2990.806
296.9050, 2962.030
297.3871, 2942.097
297.8692, 2936.414
298.3513, 2941.454
298.8335, 2954.923
299.3156, 2975.918
299.7977, 3000.545
300.2798, 3019.917
300.7619, 3026.739
301.2440, 3037.403
301.7262, 3055.811
302.2083, 3076.300
302.6904, 3093.715
303.1725, 3106.302
303.6546, 3115.224
304.1367, 3122.193
304.6189, 3125.599
305.1010, 3129.556
305.5831, 3133.327
306.0652, 3138.053
306.5473, 3145.255
307.0294, 3155.013
307.5116, 3165.423
307.9937, 3173.182
308.4758, 3174.525
308.9579, 3182.708
309.4400, 3208.937
309.9221, 3232.473
310.4043, 3237.194
310.8864, 3223.154
311.3685, 3204.083
311.8506, 3195.196
312.3327, 3198.763
312.8148, 3204.299
313.2970, 3209.395
313.7791, 3218.112
314.2612, 3234.324
314.7433, 3256.567
315.2254, 3280.474
315.7076, 3303.660
316.1897, 3327.372
316.6718, 3335.683
317.1539, 3306.471
317.6360, 3283.301
318.1181, 3285.500
318.6003, 3305.854
319.0824, 3325.259
319.5645, 3328.736
320.0466, 3317.801
320.5287, 3315.826
321.0108, 3339.641
321.4930, 3302.745
321.9751, 3367.251
322.4572, 3403.715
322.9393, 3413.643
323.4214, 3317.560
323.9035, 3358.369
324.3857, 3344.318
324.8678, 3328.017
325.3499, 3388.093
325.8320, 3307.428
326.3141, 3366.293
326.7962, 3369.460
327.2784, 3398.119
327.7605, 3371.578
328.2426, 3362.087
328.7247, 3407.812
329.2068, 3422.964
329.6889, 3390.069
330.1711, 3420.348
330.6532, 3337.756
331.1353, 3354.209
331.6174, 3413.397
332.0995, 3383.278
332.5816, 3414.566
333.0638, 3422.467
333.5459, 3324.082
334.0280, 3410.538
334.5101, 3417.057
334.9922, 3341.497
335.4743, 3421.620
335.9565, 3357.375
336.4386, 3344.661
336.9207, 3370.727
337.4028, 3356.365
337.8849, 3405.742
338.3671, 3393.716
338.8492, 3376.203
339.3313, 3390.743
339.8134, 3408.887
340.2955, 3424.467
340.7776, 3434.425
341.2598, 3441.544
341.7419, 3437.438
342.2240, 3407.782
342.7061, 3362.776
343.1882, 3330.032
343.6703, 3334.467
344.1525, 3357.392
344.6346, 3355.420
345.1167, 3320.715
345.5988, 3286.823
346.0809, 3277.090
346.5630, 3282.133
347.0452, 3289.490
347.5273, 3298.817
348.0094, 3306.637
348.4915, 3310.291
348.9736, 3309.881
349.4557, 3301.254
349.9379, 3273.649
350.4200, 3240.599
350.9021, 3227.742
351.3842, 3244.466
351.8663, 3267.523
352.3484, 3287.111
352.8306, 3301.772
353.3127, 3302.360
353.7948, 3279.808
354.2769, 3248.990
354.7590, 3239.374
355.2411, 3258.544
355.7233, 3269.512
356.2054, 3248.686
356.6875, 3213.139
357.1696, 3193.408
357.6517, 3198.264
358.1339, 3214.724
358.6160, 3228.487
359.0981, 3241.136
359.5802, 3242.516
360.0623, 3216.261
360.5444, 3187.132
361.0266, 3183.854
361.5087, 3208.201
361.9908, 3234.101
362.4729, 3236.833
362.9550, 3213.235
363.4371, 3195.594
363.9193, 3182.712
364.4014, 3176.218
364.8835, 3183.072
365.3656, 3198.288
365.8477, 3206.846
366.3298, 3197.453
366.8120, 3172.810
367.2941, 3157.462
367.7762, 3157.150
368.2583, 3158.768
368.7404, 3160.513
369.2225, 3162.264
369.7047, 3165.114
370.1868, 3169.632
370.6689, 3173.355
371.1510, 3169.324
371.6331, 3146.216
372.1152, 3132.261
372.5974, 3130.642
373.0795, 3136.694
373.5616, 3148.240
374.0437, 3164.093
374.5258, 3181.578
375.0079, 3196.697
375.4901, 3207.324
375.9722, 3222.010
376.4543, 3252.883
376.9364, 3277.302
377.4185, 3278.311
377.9006, 3260.484
378.3828, 3243.443
378.8649, 3244.364
379.3470, 3262.454
379.8291, 3280.642
380.3112, 3304.152
380.7933, 3320.360
381.2755, 3316.221
381.7576, 3303.364
382.2397, 3302.374
382.7218, 3326.301
383.2039, 3365.136
383.6860, 3398.240
384.1682, 3425.396
384.6503, 3448.030
385.1324, 3461.875
385.6145, 3473.689
386.0966, 3491.342
386.5787, 3518.349
387.0609, 3545.123
387.5430, 3557.641
388.0251, 3557.323
388.5072, 3570.218
388.9893, 3610.094
389.4714, 3659.154
389.9536, 3695.326
390.4357, 3717.801
390.9178, 3740.760
391.3999, 3772.001
391.8820, 3808.005
392.3641, 3842.850
392.8463, 3875.913
393.3284, 3905.668
393.8105, 3927.434
394.2926, 3942.113
394.7747, 3964.959
395.2568, 3996.621
395.7390, 4037.963
396.2211, 4098.139
396.7032, 4173.123
397.1853, 4236.866
397.6674, 4267.775
398.1495, 4273.410
398.6317, 4305.872
399.1138, 4387.824
399.5959, 4465.813
400.0780, 4520.537
400.5601, 4560.837
401.0422, 4598.864
401.5244, 4639.022
402.0065, 4686.632
402.4886, 4753.569
402.9707, 4866.514
403.4528, 4958.655
403.9349, 5010.857
404.4171, 5055.785
404.8992, 5117.888
405.3813, 5200.941
405.8634, 5295.840
406.3455, 5392.756
406.8276, 5492.719
407.3098, 5589.828
407.7919, 5686.111
408.2740, 5777.308
408.7561, 5853.284
409.2383, 5922.653
409.7204, 6002.859
410.2025, 6106.764
410.6846, 6227.772
411.1667, 6339.896
411.6488, 6437.569
412.1310, 6535.750
412.6131, 6636.110
413.0952, 6739.908
413.5773, 6849.652
414.0594, 6966.886
414.5415, 7084.170
415.0237, 7193.586
415.5058, 7294.914
415.9879, 7388.669
416.4700, 7469.942
416.9521, 7547.790
417.4342, 7630.893
417.9164, 7718.968
418.3985, 7804.385
418.8806, 7890.795
419.3627, 7969.886
419.8448, 8020.130
420.3269, 8035.779
420.8091, 8039.193
421.2912, 8046.726
421.7733, 8056.321
422.2554, 8058.839
422.7375, 8057.648
423.2196, 8045.467
423.7018, 8005.002
424.1839, 7945.108
424.6660, 7905.056
425.1481, 7909.169
425.6302, 7939.436
426.1123, 7941.261
426.5945, 7897.247
427.0766, 7856.851
427.5587, 7842.094
428.0408, 7829.073
428.5229, 7786.750
429.0050, 7709.140
429.4872, 7616.941
429.9693, 7536.393
430.4514, 7469.839
430.9335, 7406.874
431.4156, 7362.709
431.8977, 7307.232
432.3799, 7217.292
432.8620, 7103.164
433.3441, 6992.300
433.8262, 6905.518
434.3083, 6837.285
434.7904, 6754.213
435.2726, 6638.869
435.7547, 6536.837
436.2368, 6469.599
436.7189, 6413.314
437.2010, 6339.485
437.6831, 6238.421
438.1653, 6134.546
438.6474, 6068.284
439.1295, 6043.622
439.6116, 5991.285
440.0937, 5875.485
440.5758, 5752.930
441.0580, 5669.435
441.5401, 5620.885
442.0222, 5569.375
442.5043, 5484.002
442.9864, 5385.724
443.4685, 5318.560
443.9507, 5289.115
444.4328, 5261.168
444.9149, 5210.958
445.3970, 5143.530
445.8791, 5079.166
446.3612, 5012.475
446.8434, 4956.032
447.3255, 4927.261
447.8076, 4914.592
448.2897, 4885.866
448.7718, 4826.452
449.2539, 4756.494
449.7361, 4714.056
450.2182, 4721.503
450.7003, 4708.348
451.1824, 4654.839
451.6645, 4592.012
452.1466, 4542.309
452.6288, 4508.266
453.1109, 4482.629
453.5930, 4460.901
454.0751, 4443.085
454.5572, 4412.355
455.0393, 4347.803
455.5215, 4292.391
456.0036, 4260.705
456.4857, 4241.540
456.9678, 4220.116
457.4499, 4190.214
457.9320, 4154.245
458.4142, 4115.678
458.8963, 4074.071
459.3784, 4031.260
459.8605, 3987.589
460.3426, 3942.701
460.8247, 3893.372
461.3069, 3840.852
461.7890, 3793.839
462.2711, 3764.891
462.7532, 3745.411
463.2353, 3710.863
463.7174, 3657.613
464.1996, 3597.723
464.6817, 3533.095
465.1638, 3467.859
465.6459, 3412.574
466.1280, 3373.254
466.6101, 3338.353
467.0923, 3299.427
467.5744, 3259.030
468.0565, 3227.408
468.5386, 3210.163
469.0207, 3195.113
469.5028, 3161.648
469.9850, 3102.915
470.4671, 3041.693
470.9492, 2969.918
471.4313, 2902.589
471.9134, 2854.505
472.3955, 2823.490
472.8777, 2795.052
473.3598, 2757.517
473.8419, 2712.094
474.3240, 2672.149
474.8061, 2644.181
475.2882, 2614.199
475.7704, 2578.074
476.2525, 2539.715
476.7346, 2502.690
477.2167, 2468.283
477.6988, 2436.196
478.1809, 2407.760
478.6631, 2384.142
479.1452, 2352.758
479.6273, 2304.224
480.1094, 2256.093
480.5916, 2218.090
481.0737, 2189.776
481.5558, 2168.303
482.0379, 2156.410
482.5200, 2148.816
483.0021, 2137.694
483.4843, 2123.002
483.9664, 2106.388
484.4485, 2089.030
484.9306, 2070.011
485.4127, 2047.153
485.8948, 2017.698
486.3770, 1990.460
486.8591, 1967.383
487.3412, 1948.663
487.8233, 1935.306
488.3054, 1927.451
488.7875, 1923.524
489.2697, 1923.093
489.7518, 1928.014
490.2339, 1922.885
490.7160, 1897.936
491.1981, 1874.989
491.6802, 1863.366
492.1624, 1859.385
492.6445, 1856.263
493.1266, 1850.787
493.6087, 1843.434
494.0908, 1834.665
494.5729, 1822.995
495.0551, 1814.112
495.5372, 1813.961
496.0193, 1812.941
496.5014, 1802.104
496.9835, 1783.042
497.4656, 1768.335
497.9478, 1774.766
498.4299, 1791.405
498.9120, 1784.485
499.3941, 1748.028
499.8762, 1713.448
500.3583, 1700.968
500.8405, 1702.331
501.3226, 1697.554
501.8047, 1679.988
502.2868, 1665.756
502.7689, 1664.889
503.2510, 1672.408
503.7332, 1680.221
504.2153, 1686.275
504.6974, 1689.107
505.1795, 1686.603
505.6616, 1677.525
506.1437, 1668.542
506.6259, 1658.148
507.1080, 1649.324
507.5901, 1644.363
508.0722, 1641.893
508.5543, 1638.927
509.0364, 1633.768
509.5186, 1627.981
510.0007, 1626.864
510.4828, 1635.880
510.9649, 1635.299
511.4470, 1605.960
511.9291, 1578.997
512.4113, 1578.329
512.8934, 1601.858
513.3755, 1624.366
513.8576, 1627.374
514.3397, 1616.706
514.8218, 1606.144
515.3040, 1595.102
515.7861, 1588.961
516.2682, 1595.291
516.7503, 1607.001
517.2324, 1607.247
517.7145, 1589.173
518.1967, 1571.812
518.6788, 1562.566
519.1609, 1559.573
519.6430, 1561.070
520.1251, 1566.517
520.6072, 1573.297
521.0894, 1579.727
521.5715, 1587.097
522.0536, 1583.088
522.5357, 1549.525
523.0178, 1526.081
523.4999, 1536.255
523.9821, 1562.805
524.4642, 1577.325
524.9463, 1567.291
525.4284, 1546.048
525.9105, 1537.097
526.3926, 1543.225
526.8748, 1548.180
527.3569, 1551.830
527.8390, 1551.993
528.3211, 1545.679
528.8032, 1534.468
529.2853, 1524.147
529.7675, 1516.552
530.2496, 1511.989
530.7317, 1512.704
531.2138, 1518.416
531.6959, 1521.300
532.1780, 1516.456
532.6602, 1508.334
533.1423, 1506.952
533.6244, 1514.584
534.1065, 1520.769
534.5886, 1523.214
535.0707, 1523.615
535.5529, 1522.298
536.0350, 1520.094
536.5171, 1520.064
536.9992, 1525.139
537.4813, 1534.330
537.9634, 1539.108
538.4456, 1534.719
538.9277, 1532.459
539.4098, 1535.098
539.8919, 1539.818
540.3740, 1545.714
540.8561, 1551.984
541.3383, 1554.180
541.8204, 1544.957
542.3025, 1526.404
542.7846, 1513.689
543.2667, 1507.787
543.7488, 1507.129
544.2310, 1515.803
544.7131, 1528.392
545.1952, 1533.809
545.6773, 1528.525
546.1594, 1518.828
546.6415, 1503.531
547.1237, 1487.159
547.6058, 1481.003
548.0879, 1488.237
548.5700, 1499.001
549.0521, 1501.474
549.5342, 1493.631
550.0164, 1489.931
550.4985, 1491.771
550.9806, 1495.521
551.4627, 1502.542
551.9448, 1509.835
552.4269, 1512.621
552.9091, 1508.782
553.3912, 1501.627
553.8733, 1495.823
554.3554, 1491.207
554.8375, 1488.888
555.3196, 1487.200
555.8018, 1490.253
556.2839, 1505.172
556.7660, 1527.242
557.2481, 1541.028
557.7302, 1535.976
558.2123, 1524.426
558.6945, 1518.792
559.1766, 1517.953
559.6587, 1516.826
560.1408, 1514.048
560.6229, 1508.526
561.1050, 1497.061
561.5872, 1472.947
562.0693, 1462.749
562.5514, 1478.060
563.0335, 1497.239
563.5156, 1510.426
563.9977, 1516.401
564.4799, 1514.292
564.9620, 1502.623
565.4441, 1487.063
565.9262, 1482.076
566.4083, 1490.940
566.8904, 1500.592
567.3726, 1512.489
567.8547, 1521.664
568.3368, 1523.789
568.8189, 1519.756
569.3010, 1515.162
569.7831, 1513.073
570.2653, 1511.997
570.7474, 1508.385
571.2295, 1502.650
571.7116, 1501.920
572.1937, 1510.831
572.6758, 1524.357
573.1580, 1532.403
573.6401, 1533.624
574.1222, 1533.593
574.6043, 1531.382
575.0864, 1529.250
575.5685, 1527.569
576.0507, 1527.328
576.5328, 1531.130
577.0149, 1541.058
577.4970, 1555.143
577.9791, 1567.112
578.4612, 1576.468
578.9434, 1585.044
579.4255, 1591.019
579.9076, 1597.907
580.3897, 1609.603
580.8718, 1625.333
581.3539, 1638.633
581.8361, 1641.605
582.3182, 1641.979
582.8003, 1654.853
583.2824, 1679.487
583.7645, 1697.589
584.2467, 1698.607
584.7288, 1690.815
585.2109, 1691.714
585.6931, 1702.370
586.1752, 1718.524
586.6573, 1747.162
587.1394, 1775.291
587.6215, 1791.143
588.1036, 1797.486
588.5858, 1805.414
589.0679, 1822.121
589.5500, 1845.115
590.0321, 1867.191
590.5142, 1888.048
590.9963, 1908.943
591.4785, 1931.057
591.9606, 1952.756
592.4427, 1971.796
592.9248, 1988.823
593.4069, 2007.837
593.8890, 2036.628
594.3712, 2065.063
594.8533, 2076.678
595.3354, 2073.990
595.8175, 2076.780
596.2996, 2095.054
596.7817, 2119.429
597.2639, 2131.376
597.7460, 2122.138
598.2281, 2120.124
598.7102, 2135.134
599.1923, 2148.392
599.6744, 2147.574
600.1566, 2135.875
600.6387, 2122.811
601.1208, 2113.634
601.6029, 2105.878
602.0850, 2093.478
602.5671, 2075.037
603.0493, 2061.105
603.5314, 2057.103
604.0135, 2053.850
604.4956, 2043.608
604.9777, 2027.739
605.4598, 2012.514
605.9420, 1998.936
606.4241, 1987.506
606.9062, 1980.252
607.3883, 1975.571
607.8704, 1969.688
608.3525, 1961.426
608.8347, 1949.122
609.3168, 1929.047
609.7989, 1896.567
610.2810, 1875.557
610.7631, 1875.078
611.2452, 1875.257
611.7274, 1867.489
612.2095, 1856.333
612.6916, 1848.704
613.1737, 1847.002
613.6558, 1851.186
614.1379, 1864.414
614.6201, 1885.149
615.1022, 1899.578
615.5843, 1904.634
616.0664, 1906.770
616.5485, 1911.507
617.0306, 1917.249
617.5128, 1917.536
617.9949, 1903.780
618.4770, 1894.463
618.9591, 1899.388
619.4412, 1911.375
619.9233, 1924.056
620.4055, 1934.724
620.8876, 1937.081
621.3697, 1921.974
621.8518, 1891.456
622.3339, 1881.574
622.8160, 1909.883
623.2982, 1929.534
623.7803, 1920.480
624.2624, 1902.823
624.7445, 1896.693
625.2266, 1904.931
625.7087, 1910.776
626.1909, 1900.643
626.6730, 1882.656
627.1551, 1872.235
627.6372, 1869.471
628.1193, 1861.639
628.6014, 1840.121
629.0836, 1811.676
629.5657, 1794.173
630.0478, 1799.872
630.5299, 1796.179
631.0120, 1771.005
631.4941, 1746.897
631.9763, 1743.790
632.4584, 1754.308
632.9405, 1755.109
633.4226, 1730.767
633.9047, 1695.953
634.3868, 1682.346
634.8690, 1691.628
635.3511, 1688.318
635.8332, 1658.571
636.3153, 1624.150
636.7974, 1605.568
637.2795, 1600.200
637.7617, 1596.628
638.2438, 1593.625
638.7259, 1591.483
639.2080, 1565.483
639.6901, 1589.299
640.1722, 1600.653
640.6544, 1600.211
641.1365, 1552.655
641.6186, 1565.939
642.1007, 1554.841
642.5828, 1542.743
643.0649, 1564.590
643.5471, 1523.885
644.0292, 1545.194
644.5113, 1541.749
644.9934, 1549.632
645.4755, 1532.983
645.9576, 1523.912
646.4398, 1539.380
646.9219, 1541.261
647.4040, 1521.787
647.8861, 1518.520
648.3682, 1527.438
648.8503, 1536.932
649.3325, 1543.679
649.8146, 1537.552
650.2967, 1500.096
650.7788, 1480.512
651.2609, 1496.834
651.7430, 1514.008
652.2252, 1506.681
652.7073, 1482.832
653.1894, 1466.763
653.6715, 1472.136
654.1536, 1488.348
654.6357, 1502.780
655.1179, 1514.996
655.6000, 1518.820
656.0821, 1511.735
656.5642, 1499.136
657.0463, 1482.947
657.5284, 1463.988
658.0106, 1454.738
658.4927, 1466.262
658.9748, 1474.427
659.4569, 1465.006
659.9390, 1450.902
660.4211, 1451.285
660.9033, 1467.547
661.3854, 1480.609
661.8675, 1468.938
662.3496, 1438.546
662.8317, 1427.499
663.3138, 1441.758
663.7960, 1456.384
664.2781, 1464.967
664.7602, 1468.098
665.2423, 1465.573
665.7244, 1456.966
666.2065, 1449.827
666.6887, 1446.575
667.1708, 1445.571
667.6529, 1447.419
668.1350, 1450.365
668.6171, 1449.367
669.0992, 1442.234
669.5814, 1433.333
670.0635, 1430.501
670.5456, 1435.778
671.0277, 1436.698
671.5098, 1429.625
671.9919, 1422.828
672.4741, 1420.405
672.9562, 1420.107
673.4383, 1417.293
673.9204, 1409.068
674.4025, 1406.554
674.8846, 1423.109
675.3668, 1447.246
675.8489, 1459.401
676.3310, 1458.671
676.8131, 1456.800
677.2952, 1461.162
677.7773, 1470.155
678.2595, 1479.456
678.7416, 1496.572
679.2237, 1499.515
679.7058, 1475.282
680.1879, 1449.171
680.6700, 1435.039
681.1522, 1430.356
681.6343, 1426.196
682.1164, 1418.970
682.5985, 1410.416
683.0806, 1402.698
683.5627, 1395.205
684.0449, 1385.331
684.5270, 1372.385
685.0091, 1359.081
685.4912, 1347.858
685.9733, 1338.480
686.4554, 1328.289
686.9376, 1311.431
687.4197, 1301.550
687.9018, 1302.791
688.3839, 1309.537
688.8660, 1320.845
689.3481, 1334.077
689.8303, 1341.435
690.3124, 1336.762
690.7945, 1324.354
691.2766, 1308.480
691.7587, 1289.857
692.2408, 1278.266
692.7230, 1277.426
693.2051, 1281.397
693.6872, 1283.958
694.1693, 1284.979
694.6514, 1286.034
695.1335, 1289.053
695.6157, 1289.791
696.0978, 1283.047
696.5799, 1275.564
697.0620, 1277.300
697.5441, 1288.605
698.0262, 1297.574
698.5084, 1291.463
698.9905, 1275.975
699.4726, 1266.366
699.9547, 1262.657
700.4368, 1265.251
700.9189, 1277.021
701.4011, 1290.541
701.8832, 1293.931
702.3653, 1283.868
702.8474, 1279.940
703.3295, 1287.468
703.8116, 1295.600
704.2938, 1301.957
704.7759, 1305.106
705.2580, 1302.382
705.7401, 1293.495
706.2222, 1283.113
706.7043, 1274.548
707.1865, 1268.435
707.6686, 1270.276
708.1507, 1282.081
708.6328, 1286.069
709.1149, 1270.795
709.5970, 1247.234
710.0792, 1235.270
710.5613, 1238.083
711.0434, 1239.223
711.5255, 1234.384
712.0076, 1230.912
712.4897, 1234.002
712.9719, 1240.790
713.4540, 1246.883
713.9361, 1250.692
714.4182, 1251.773
714.9003, 1248.943
715.3824, 1242.784
715.8646, 1235.020
716.3467, 1224.611
716.8288, 1220.231
717.3109, 1229.416
717.7930, 1244.604
718.2751, 1249.467
718.7573, 1239.653
719.2394, 1234.058
719.7215, 1241.219
720.2036, 1246.090
720.6857, 1235.144
721.1678, 1216.951
721.6500, 1208.643
722.1321, 1216.728
722.6142, 1228.878
723.0963, 1228.924
723.5784, 1219.871
724.0605, 1219.713
724.5427, 1231.315
725.0248, 1237.976
725.5070, 1228.338
725.9891, 1210.573
726.4712, 1203.229
726.9533, 1210.863
727.4354, 1216.677
727.9175, 1218.110
728.3997, 1219.262
728.8818, 1223.602
729.3639, 1229.001
729.8460, 1231.216
730.3281, 1228.654
730.8102, 1224.099
731.2924, 1218.268
731.7745, 1212.836
732.2566, 1217.036
732.7387, 1232.610
733.2208, 1242.452
733.7029, 1236.406
734.1851, 1220.464
734.6672, 1206.163
735.1493, 1187.262
735.6314, 1185.949
736.1135, 1226.533
736.5956, 1259.172
737.0778, 1252.110
737.5599, 1223.597
738.0420, 1204.804
738.5241, 1206.124
739.0062, 1215.463
739.4883, 1226.311
739.9705, 1235.692
740.4526, 1233.107
740.9347, 1218.425
741.4168, 1206.822
741.8989, 1205.720
742.3810, 1212.509
742.8632, 1223.448
743.3453, 1245.180
743.8274, 1251.513
744.3095, 1226.815
744.7916, 1205.181
745.2737, 1201.085
745.7559, 1206.849
746.2380, 1211.649
746.7201, 1212.775
747.2022, 1212.748
747.6843, 1210.783
748.1664, 1210.097
748.6486, 1219.603
749.1307, 1237.003
749.6128, 1245.867
750.0949, 1238.121
750.5770, 1223.966
751.0591, 1220.494
751.5413, 1230.517
752.0234, 1235.342
752.5055, 1229.653
752.9876, 1225.682
753.4697, 1231.309
753.9518, 1238.284
754.4340, 1234.093
754.9161, 1216.655
755.3982, 1206.788
755.8803, 1223.423
756.3624, 1245.280
756.8445, 1252.799
757.3267, 1247.630
757.8088, 1234.341
758.2909, 1214.872
758.7730, 1197.253
759.2551, 1191.675
759.7372, 1197.965
760.2194, 1206.978
760.7015, 1220.740
761.1836, 1232.342
761.6657, 1239.778
762.1478, 1243.770
762.6299, 1244.155
763.1121, 1240.939
763.5942, 1239.464
764.0763, 1242.715
764.5584, 1246.124
765.0405, 1245.316
765.5226, 1243.701
766.0048, 1249.179
766.4869, 1261.800
766.9690, 1269.589
767.4511, 1258.441
767.9332, 1236.259
768.4153, 1231.890
768.8975, 1247.120
769.3796, 1258.948
769.8617, 1261.121
770.3438, 1258.451
770.8259, 1254.717
771.3080, 1250.003
771.7902, 1247.609
772.2723, 1248.838
772.7544, 1250.569
773.2365, 1251.833
773.7186, 1253.501
774.2007, 1257.522
774.6829, 1262.975
775.1650, 1265.909
775.6471, 1263.099
776.1292, 1258.317
776.6113, 1255.906
777.0934, 1255.797
777.5756, 1258.554
778.0577, 1264.405
778.5398, 1269.278
779.0219, 1269.270
779.5040, 1266.418
779.9861, 1270.320
780.4683, 1286.664
780.9504, 1298.941
781.4325, 1305.598
781.9146, 1308.688
782.3967, 1307.456
782.8788, 1303.654
783.3610, 1299.986
783.8431, 1295.286
784.3252, 1296.497
784.8073, 1316.966
785.2894, 1340.473
785.7715, 1342.014
786.2537, 1325.028
786.7358, 1312.044
787.2179, 1314.778
787.7000, 1325.461
788.1821, 1330.247
788.6642, 1328.569
789.1464, 1328.861
789.6285, 1329.865
790.1106, 1337.095
790.5927, 1360.991
791.0748, 1388.127
791.5569, 1392.972
792.0391, 1369.909
792.5212, 1353.615
793.0033, 1350.846
793.4854, 1354.329
793.9675, 1364.960
794.4496, 1377.368
794.9318, 1382.774
795.4139, 1379.684
795.8960, 1376.913
796.3781, 1384.661
796.8602, 1397.371
797.3423, 1400.987
797.8245, 1396.514
798.3066, 1395.322
798.7887, 1401.110
799.2708, 1410.178
799.7529, 1419.357
800.2350, 1428.534
800.7172, 1432.007
801.1993, 1422.734
801.6814, 1418.613
802.1635, 1426.265
802.6456, 1436.266
803.1277, 1442.332
803.6099, 1444.524
804.0920, 1445.176
804.5741, 1443.362
805.0562, 1442.775
805.5383, 1446.139
806.0204, 1452.062
806.5026, 1458.616
806.9847, 1465.676
807.4668, 1475.222
807.9489, 1489.327
808.4310, 1502.765
808.9131, 1501.190
809.3953, 1483.873
809.8774, 1478.354
810.3595, 1490.387
810.8416, 1504.671
811.3237, 1512.361
811.8058, 1519.348
812.2880, 1551.416
812.7701, 1571.018
813.2522, 1578.828
813.7343, 1539.521
814.2164, 1561.055
814.6985, 1558.207
815.1807, 1554.360
815.6628, 1584.457
816.1449, 1552.003
816.6270, 1581.563
817.1091, 1554.765
817.5912, 1569.002
818.0734, 1581.276
818.5555, 1591.910
819.0376, 1604.925
819.5197, 1621.669
820.0018, 1635.788
820.4839, 1640.103
820.9661, 1635.413
821.4482, 1629.903
821.9303, 1623.201
822.4124, 1616.674
822.8945, 1609.824
823.3766, 1604.121
823.8588, 1597.013
824.3409, 1591.031
824.8230, 1598.831
825.3051, 1641.101
825.7872, 1671.286
826.2693, 1667.630
826.7515, 1653.098
827.2336, 1642.740
827.7157, 1640.019
828.1978, 1648.213
828.6799, 1670.276
829.1620, 1694.668
829.6442, 1710.608
830.1263, 1717.652
830.6084, 1710.436
831.0905, 1689.641
831.5726, 1673.841
832.0547, 1672.796
832.5369, 1678.120
833.0190, 1674.698
833.5011, 1660.358
833.9832, 1651.185
834.4653, 1650.847
834.9474, 1649.750
835.4296, 1645.177
835.9117, 1637.995
836.3938, 1627.793
836.8759, 1614.702
837.3580, 1603.712
837.8401, 1593.356
838.3223, 1588.410
838.8044, 1593.218
839.2865, 1603.644
839.7686, 1615.355
840.2507, 1627.380
840.7328, 1640.751
841.2150, 1658.034
841.6971, 1672.575
842.1792, 1669.001
842.6613, 1652.623
843.1434, 1648.096
843.6255, 1659.015
844.1077, 1674.606
844.5898, 1685.192
845.0719, 1635.222
845.5540, 1726.859
846.0361, 1781.106
846.5182, 1799.973
847.0004, 1677.492
847.4825, 1737.532
847.9646, 1724.426
848.4467, 1708.321
848.9288, 1794.050
849.4109, 1692.127
849.8931, 1776.244
850.3752, 1786.095
850.8573, 1829.935
851.3394, 1800.177
851.8215, 1793.150
852.3036, 1859.747
852.7858, 1885.579
853.2679, 1847.348
853.7500, 1893.349
854.2321, 1788.854
854.7142, 1816.421
855.1964, 1900.968
855.6785, 1835.839
856.1606, 1849.631
856.6427, 1860.849
857.1248, 1858.505
857.6069, 1848.334
858.0891, 1848.430
858.5712, 1863.218
859.0533, 1872.605
859.5354, 1872.911
860.0175, 1872.073
860.4996, 1874.174
860.9818, 1877.482
861.4639, 1879.962
861.9460, 1882.207
862.4281, 1880.097
862.9102, 1868.107
863.3923, 1856.861
863.8745, 1855.844
864.3566, 1856.580
864.8387, 1844.889
865.3208, 1820.700
865.8029, 1800.872
866.2850, 1799.859
866.7672, 1805.189
867.2493, 1800.293
867.7314, 1788.898
868.2136, 1780.679
868.6957, 1777.233
869.1778, 1774.925
869.6599, 1771.232
870.1420, 1766.901
870.6241, 1764.552
871.1063, 1764.910
871.5884, 1759.602
872.0705, 1744.393
872.5526, 1733.910
873.0347, 1739.977
873.5168, 1751.803
873.9990, 1747.799
874.4811, 1720.671
874.9632, 1704.534
875.4453, 1704.286
875.9274, 1709.065
876.4095, 1721.606
876.8917, 1733.341
877.3738, 1735.574
877.8559, 1727.959
878.3380, 1716.137
878.8201, 1700.901
879.3022, 1684.417
879.7844, 1663.297
880.2665, 1644.486
880.7486, 1642.256
881.2307, 1654.057
881.7128, 1662.290
882.1949, 1656.597
882.6771, 1645.092
883.1592, 1641.502
883.6413, 1643.853
884.1234, 1639.240
884.6055, 1626.569
885.0876, 1615.130
885.5698, 1608.660
886.0519, 1606.989
886.5340, 1611.702
887.0161, 1624.126
887.4982, 1622.625
887.9803, 1594.879
888.4625, 1575.730
888.9446, 1581.583
889.4267, 1591.679
889.9088, 1588.509
890.3909, 1574.682
890.8730, 1563.540
891.3552, 1557.771
891.8373, 1553.289
892.3194, 1547.186
892.8015, 1543.467
893.2836, 1551.219
893.7657, 1562.644
894.2479, 1558.908
894.7300, 1532.771
895.2121, 1505.755
895.6942, 1497.543
896.1763, 1497.569
896.6584, 1490.439
897.1406, 1478.080
897.6227, 1467.284
898.1048, 1460.408
898.5869, 1459.451
899.0690, 1469.237
899.5511, 1483.337
900.0333, 1474.998
900.5154, 1442.985
900.9975, 1424.935
901.4796, 1429.694
901.9617, 1439.972
902.4438, 1445.819
902.9260, 1446.621
903.4081, 1439.828
903.8902, 1419.926
904.3723, 1406.167
904.8544, 1396.905
905.3365, 1396.059
905.8187, 1414.516
906.3008, 1436.249
906.7829, 1441.680
907.2650, 1429.452
907.7471, 1414.793
908.2292, 1392.755
908.7114, 1379.254
909.1935, 1390.609
909.6756, 1407.650
910.1577, 1409.873
910.6398, 1398.066
911.1219, 1384.710
911.6041, 1375.193
912.0862, 1368.041
912.5683, 1363.644
913.0504, 1359.839
913.5325, 1350.415
914.0146, 1337.585
914.4968, 1331.606
914.9789, 1336.508
915.4610, 1347.776
915.9431, 1362.416
916.4252, 1378.464
916.9073, 1385.241
917.3895, 1382.543
917.8716, 1376.804
918.3537, 1368.922
918.8358, 1361.006
919.3179, 1354.463
919.8000, 1349.532
920.2822, 1347.394
920.7643, 1349.237
921.2464, 1350.787
921.7285, 1349.687
922.2106, 1351.236
922.6927, 1359.423
923.1749, 1371.173
923.6570, 1384.267
924.1391, 1400.448
924.6212, 1404.724
925.1033, 1381.119
925.5854, 1362.480
926.0676, 1363.709
926.5497, 1374.250
927.0318, 1385.436
927.5139, 1395.382
927.9960, 1403.016
928.4781, 1406.972
928.9603, 1410.412
929.4424, 1414.853
929.9245, 1420.503
930.4066, 1428.422
930.8887, 1437.778
931.3708, 1446.321
931.8530, 1453.227
932.3351, 1459.455
932.8172, 1464.544
933.2993, 1470.265
933.7814, 1480.519
934.2635, 1495.392
934.7457, 1517.628
935.2278, 1547.885
935.7099, 1575.165
936.1920, 1589.667
936.6741, 1596.563
937.1563, 1612.806
937.6384, 1640.350
938.1205, 1659.594
938.6026, 1664.776
939.0847, 1676.388
939.5668, 1705.274
940.0490, 1744.989
940.5311, 1786.688
941.0132, 1831.344
941.4953, 1869.882
941.9774, 1894.857
942.4595, 1924.856
942.9417, 1963.425
943.4238, 2007.849
943.9059, 2054.775
944.3880, 2105.684
944.8701, 2167.152
945.3522, 2246.510
945.8344, 2322.738
946.3165, 2385.881
946.7986, 2448.708
947.2807, 2520.106
947.7628, 2597.198
948.2449, 2669.966
948.7271, 2738.079
949.2092, 2823.284
949.6913, 2952.344
950.1734, 3089.881
950.6555, 3198.288
951.1376, 3297.464
951.6198, 3416.065
952.1019, 3558.137
952.5840, 3718.260
953.0661, 3894.911
953.5482, 4078.076
954.0303, 4251.122
954.5125, 4422.039
954.9946, 4609.513
955.4767, 4813.445
955.9588, 5028.031
956.4409, 5251.241
956.9230, 5479.856
957.4052, 5711.654
957.8873, 5946.924
958.3694, 6193.362
958.8515, 6451.859
959.3336, 6712.732
959.8157, 6978.553
960.2979, 7237.320
960.7800, 7483.408
961.2621, 7718.925
961.7442, 7949.335
962.2263, 8178.660
962.7084, 8392.742
963.1906, 8605.885
963.6727, 8774.606
964.1548, 8871.950
964.6369, 8935.433
965.1190, 9010.299
965.6011, 9088.224
966.0833, 9102.316
966.5654, 9030.438
967.0475, 8928.475
967.5296, 8802.219
968.0117, 8645.058
968.4938, 8453.205
968.9760, 8227.836
969.4581, 7961.836
969.9402, 7652.129
970.4223, 7351.711
970.9044, 7094.988
971.3865, 6828.856
971.8687, 6509.918
972.3508, 6180.410
972.8329, 5891.486
973.3150, 5637.562
973.7971, 5377.052
974.2792, 5090.550
974.7614, 4811.572
975.2435, 4561.231
975.7256, 4336.996
976.2077, 4148.238
976.6898, 3980.140
977.1719, 3794.127
977.6541, 3585.561
978.1362, 3399.406
978.6183, 3277.539
979.1004, 3186.971
979.5825, 3074.511
980.0646, 2951.228
980.5468, 2847.634
981.0289, 2765.868
981.5110, 2689.703
981.9931, 2611.045
982.4752, 2536.603
982.9573, 2475.335
983.4395, 2426.278
983.9216, 2388.570
984.4037, 2361.928
984.8858, 2324.571
985.3679, 2269.581
985.8500, 2221.390
986.3322, 2200.686
986.8143, 2197.472
987.2964, 2180.718
987.7785, 2146.595
988.2606, 2128.034
988.7427, 2131.000
989.2249, 2132.510
989.7070, 2122.693
990.1891, 2108.993
990.6712, 2100.485
991.1533, 2096.855
991.6354, 2091.619
992.1176, 2081.680
992.5997, 2076.943
993.0818, 2084.000
993.5639, 2089.178
994.0460, 2079.306
994.5281, 2064.487
995.0103, 2066.742
995.4924, 2091.853
995.9745, 2106.082
996.4566, 2100.416
996.9387, 2093.843
997.4208, 2087.049
997.9030, 2084.814
998.3851, 2093.528
998.8672, 2110.145
999.3493, 2123.714
999.8314, 2129.854
1000.314, 2139.051
1000.796, 2158.510
1001.278, 2177.180
1001.760, 2187.772
1002.242, 2194.176
1002.724, 2200.808
1003.206, 2208.818
1003.688, 2219.675
1004.170, 2235.217
1004.653, 2251.911
1005.135, 2274.087
1005.617, 2291.431
1006.099, 2284.533
1006.581, 2266.330
1007.063, 2267.420
1007.545, 2296.382
1008.027, 2330.630
1008.510, 2360.807
1008.992, 2382.054
1009.474, 2383.603
1009.956, 2375.389
1010.438, 2371.168
1010.920, 2373.893
1011.402, 2386.246
1011.884, 2410.610
1012.367, 2432.093
1012.849, 2426.562
1013.331, 2411.254
1013.813, 2423.819
1014.295, 2453.949
1014.777, 2464.417
1015.259, 2448.934
1015.741, 2433.438
1016.223, 2438.162
1016.706, 2449.720
1017.188, 2443.478
1017.670, 2424.542
1018.152, 2412.229
1018.634, 2406.779
1019.116, 2398.985
1019.598, 2385.566
1020.080, 2368.237
1020.563, 2347.332
1021.045, 2326.128
1021.527, 2320.487
1022.009, 2328.297
1022.491, 2313.760
1022.973, 2271.479
1023.455, 2238.278
1023.937, 2234.339
1024.419, 2239.297
1024.901, 2221.686
1025.384, 2184.169
1025.866, 2160.123
1026.348, 2150.763
1026.830, 2144.262
1027.312, 2139.315
1027.794, 2132.573
1028.276, 2122.345
1028.758, 2107.677
1029.241, 2084.549
1029.723, 2050.558
1030.205, 2030.161
1030.687, 2028.072
1031.169, 2023.648
1031.651, 2012.226
1032.133, 1994.609
1032.615, 1969.789
1033.098, 1940.388
1033.580, 1915.733
1034.062, 1892.558
1034.544, 1885.642
1035.026, 1907.381
1035.508, 1919.858
1035.990, 1904.874
1036.472, 1880.397
1036.954, 1863.810
1037.437, 1854.979
1037.919, 1851.594
1038.401, 1853.137
1038.883, 1861.420
1039.365, 1883.505
1039.847, 1902.770
1040.329, 1905.560
1040.811, 1905.708
1041.293, 1921.716
1041.776, 1953.976
1042.258, 1993.260
1042.740, 2033.902
1043.222, 2089.715
1043.704, 2152.478
1044.186, 2240.570
1044.668, 2364.475
1045.150, 2519.552
1045.633, 2698.023
1046.115, 2898.067
1046.597, 3128.785
1047.079, 3378.496
1047.561, 3675.347
1048.043, 4025.366
1048.525, 4425.710
1049.007, 4879.433
1049.490, 5380.135
1049.972, 5916.014
1050.454, 6495.617
1050.936, 7071.136
1051.418, 7617.252
1051.900, 8180.948
1052.382, 8834.875
1052.864, 9467.703
1053.346, 10036.11
1053.828, 10502.24
1054.311, 10805.30
1054.793, 10992.45
1055.275, 10831.05
1055.757, 10145.37
1056.239, 9238.966
1056.721, 8111.537
1057.203, 6947.667
1057.685, 5892.913
1058.168, 4969.608
1058.650, 4203.837
1059.132, 3613.386
1059.614, 3150.861
1060.096, 2835.390
1060.578, 2602.167
1061.060, 2442.415
1061.542, 2327.697
1062.025, 2232.160
1062.507, 2151.734
1062.989, 2089.302
1063.471, 2052.516
1063.953, 2021.584
1064.435, 1986.640
1064.917, 1957.814
1065.399, 1947.405
1065.881, 1944.583
1066.364, 1934.541
1066.846, 1915.229
1067.328, 1891.320
1067.810, 1856.178
1068.292, 1829.460
1068.774, 1824.346
1069.256, 1826.226
1069.738, 1827.373
1070.220, 1825.846
1070.703, 1819.785
1071.185, 1809.061
1071.667, 1796.567
1072.149, 1779.836
1072.631, 1766.301
1073.113, 1759.324
1073.595, 1757.069
1074.077, 1763.345
1074.560, 1771.042
1075.042, 1766.279
1075.524, 1746.725
1076.006, 1729.143
1076.488, 1722.579
1076.970, 1717.553
1077.452, 1709.836
1077.934, 1701.008
1078.417, 1689.350
1078.899, 1678.808
1079.381, 1679.241
1079.863, 1692.811
1080.345, 1700.611
1080.827, 1687.384
1081.309, 1674.865
1081.791, 1679.822
1082.273, 1686.129
1082.756, 1673.735
1083.238, 1651.552
1083.720, 1643.393
1084.202, 1655.437
1084.684, 1663.617
1085.166, 1652.085
1085.648, 1640.569
1086.130, 1639.857
1086.613, 1643.690
1087.095, 1646.882
1087.577, 1649.286
1088.059, 1652.823
1088.541, 1658.266
1089.023, 1660.377
1089.505, 1656.137
1089.987, 1649.093
1090.469, 1638.570
1090.952, 1628.195
1091.434, 1623.410
1091.916, 1621.088
1092.398, 1610.077
1092.880, 1585.301
1093.362, 1575.759
1093.844, 1611.659
1094.326, 1640.815
1094.808, 1631.429
1095.291, 1609.535
1095.773, 1596.739
1096.255, 1592.476
1096.737, 1589.513
1097.219, 1586.012
1097.701, 1586.405
1098.183, 1597.327
1098.665, 1605.780
1099.148, 1603.793
1099.630, 1599.092
1100.112, 1598.750
1100.594, 1601.280
1101.076, 1602.406
1101.558, 1601.840
1102.040, 1596.923
1102.522, 1578.879
1103.005, 1566.990
1103.487, 1575.192
1103.969, 1586.018
1104.451, 1583.820
1104.933, 1573.018
1105.415, 1566.014
1105.897, 1565.099
1106.379, 1563.930
1106.861, 1561.861
1107.344, 1558.752
1107.826, 1554.138
1108.308, 1548.857
1108.790, 1540.382
1109.272, 1532.492
1109.754, 1536.087
1110.236, 1556.549
1110.718, 1564.753
1111.200, 1546.173
1111.683, 1531.598
1112.165, 1530.594
1112.647, 1533.107
1113.129, 1534.680
1113.611, 1534.195
1114.093, 1528.255
1114.575, 1514.521
1115.057, 1506.978
1115.540, 1511.319
1116.022, 1513.094
1116.504, 1509.683
1116.986, 1503.376
1117.468, 1491.377
1117.950, 1479.832
1118.432, 1482.945
1118.914, 1504.075
1119.396, 1511.223
1119.879, 1495.014
1120.361, 1484.574
1120.843, 1484.996
1121.325, 1491.284
1121.807, 1502.835
1122.289, 1516.305
1122.771, 1526.925
1123.253, 1534.960
1123.735, 1532.243
1124.218, 1515.928
1124.700, 1496.700
1125.182, 1471.700
1125.664, 1457.026
1126.146, 1464.078
1126.628, 1480.296
1127.110, 1486.668
1127.592, 1484.241
1128.075, 1490.732
1128.557, 1509.457
1129.039, 1511.830
1129.521, 1490.853
1130.003, 1474.581
1130.485, 1477.741
1130.967, 1485.999
1131.449, 1480.181
1131.932, 1464.167
1132.414, 1460.077
1132.896, 1467.704
1133.378, 1461.338
1133.860, 1438.189
1134.342, 1422.821
1134.824, 1425.491
1135.306, 1437.646
1135.788, 1452.115
1136.271, 1465.742
1136.753, 1467.840
1137.235, 1460.765
1137.717, 1458.827
1138.199, 1462.118
1138.681, 1461.888
1139.163, 1455.267
1139.645, 1445.857
1140.127, 1435.622
1140.610, 1427.511
1141.092, 1428.818
1141.574, 1435.474
1142.056, 1436.096
1142.538, 1432.443
1143.020, 1434.909
1143.502, 1444.752
1143.984, 1450.406
1144.467, 1443.527
1144.949, 1431.359
1145.431, 1419.269
1145.913, 1409.375
1146.395, 1405.323
1146.877, 1405.854
1147.359, 1409.914
1147.841, 1415.768
1148.323, 1417.722
1148.806, 1411.961
1149.288, 1406.698
1149.770, 1410.425
1150.252, 1415.279
1150.734, 1413.936
1151.216, 1409.292
1151.698, 1404.252
1152.180, 1400.212
1152.662, 1400.318
1153.145, 1406.707
1153.627, 1409.292
1154.109, 1399.610
1154.591, 1389.535
1155.073, 1385.106
1155.555, 1383.641
1156.037, 1382.689
1156.519, 1382.493
1157.002, 1384.720
1157.484, 1390.054
1157.966, 1393.604
1158.448, 1391.183
1158.930, 1391.264
1159.412, 1403.410
1159.894, 1411.037
1160.376, 1398.447
1160.859, 1376.713
1161.341, 1364.859
1161.823, 1363.710
1162.305, 1362.411
1162.787, 1359.697
1163.269, 1359.417
1163.751, 1365.117
1164.233, 1367.525
1164.715, 1360.425
1165.198, 1350.839
1165.680, 1346.840
1166.162, 1347.942
1166.644, 1351.596
1167.126, 1359.504
1167.608, 1360.726
1168.090, 1351.984
1168.572, 1351.588
1169.054, 1369.108
1169.537, 1380.424
1170.019, 1361.194
1170.501, 1325.400
1170.983, 1308.745
1171.465, 1310.433
1171.947, 1323.436
1172.429, 1346.252
1172.911, 1354.466
1173.394, 1342.696
1173.876, 1327.538
1174.358, 1319.477
1174.840, 1314.738
1175.322, 1306.667
1175.804, 1298.058
1176.286, 1296.816
1176.768, 1300.930
1177.250, 1307.105
1177.733, 1312.768
1178.215, 1308.834
1178.697, 1291.598
1179.179, 1276.291
1179.661, 1279.570
1180.143, 1288.369
1180.625, 1286.402
1181.107, 1282.377
1181.589, 1293.584
1182.072, 1311.122
1182.554, 1309.263
1183.036, 1284.349
1183.518, 1265.511
1184.000, 1270.770
1184.482, 1279.302
1184.964, 1284.875
1185.446, 1285.484
1185.929, 1273.801
1186.411, 1260.000
1186.893, 1259.656
1187.375, 1271.253
1187.857, 1277.356
1188.339, 1272.709
1188.821, 1267.792
1189.303, 1262.692
1189.786, 1259.180
1190.268, 1258.152
1190.750, 1258.622
1191.232, 1260.202
1191.714, 1262.620
1192.196, 1265.578
1192.678, 1269.766
1193.160, 1270.194
1193.642, 1266.911
1194.125, 1258.519
1194.607, 1241.894
1195.089, 1229.983
1195.571, 1230.570
1196.053, 1237.934
1196.535, 1244.742
1197.017, 1250.419
1197.499, 1251.115
1197.981, 1247.132
1198.464, 1244.781
1198.946, 1244.501
1199.428, 1243.526
1199.910, 1240.785
1200.392, 1233.852
1200.874, 1218.262
1201.356, 1204.488
1201.838, 1216.754
1202.321, 1240.211
1202.803, 1239.642
1203.285, 1223.784
1203.767, 1219.489
1204.249, 1230.195
1204.731, 1243.527
1205.213, 1254.199
1205.695, 1260.224
1206.177, 1259.197
1206.660, 1253.852
1207.142, 1243.340
1207.624, 1232.185
1208.106, 1225.286
1208.588, 1222.119
1209.070, 1219.425
1209.552, 1216.408
1210.034, 1219.251
1210.516, 1239.019
1210.999, 1251.185
1211.481, 1248.632
1211.963, 1238.013
1212.445, 1214.303
1212.927, 1190.662
1213.409, 1183.805
1213.891, 1191.833
1214.373, 1201.822
1214.856, 1216.877
1215.338, 1224.501
1215.820, 1222.020
1216.302, 1219.863
1216.784, 1220.948
1217.266, 1223.683
1217.748, 1227.908
1218.230, 1230.129
1218.713, 1220.334
1219.195, 1201.369
1219.677, 1201.093
1220.159, 1216.928
1220.641, 1223.995
1221.123, 1219.600
1221.605, 1216.630
1222.087, 1220.662
1222.569, 1223.480
1223.052, 1214.530
1223.534, 1204.268
1224.016, 1212.028
1224.498, 1225.972
1224.980, 1225.847
1225.462, 1216.582
1225.944, 1210.430
1226.426, 1210.478
1226.909, 1216.932
1227.391, 1233.435
1227.873, 1244.188
1228.355, 1236.044
1228.837, 1225.665
1229.319, 1222.139
1229.801, 1221.654
1230.283, 1221.509
1230.766, 1220.760
1231.248, 1217.371
1231.730, 1210.455
1232.212, 1205.990
1232.694, 1204.159
1233.176, 1204.607
1233.658, 1206.723
1234.140, 1212.800
1234.622, 1226.582
1235.104, 1239.529
1235.587, 1241.466
1236.069, 1235.066
1236.551, 1229.918
1237.033, 1225.970
1237.515, 1227.860
1237.997, 1235.441
1238.479, 1240.511
1238.961, 1240.928
1239.444, 1234.414
1239.926, 1218.900
1240.408, 1204.333
1240.890, 1203.535
1241.372, 1212.008
1241.854, 1227.891
1242.336, 1244.146
1242.818, 1245.438
1243.301, 1235.744
1243.783, 1228.766
1244.265, 1228.159
1244.747, 1229.683
1245.229, 1232.803
1245.711, 1234.540
1246.193, 1232.641
1246.675, 1229.782
1247.157, 1225.390
1247.640, 1222.676
1248.122, 1227.835
1248.604, 1237.634
1249.086, 1238.178
1249.568, 1224.140
1250.050, 1222.597
1250.532, 1242.949
1251.014, 1253.776
1251.496, 1248.592
1251.979, 1235.843
1252.461, 1216.386
1252.943, 1201.993
1253.425, 1209.125
1253.907, 1230.915
1254.389, 1243.909
1254.871, 1248.250
1255.353, 1241.678
1255.836, 1226.472
1256.318, 1215.782
1256.800, 1213.160
1257.282, 1218.632
1257.764, 1233.091
1258.246, 1246.427
1258.728, 1245.358
1259.210, 1240.589
1259.693, 1246.153
1260.175, 1253.374
1260.657, 1247.577
1261.139, 1235.101
1261.621, 1233.929
1262.103, 1246.160
1262.585, 1251.004
1263.067, 1232.004
1263.549, 1222.484
1264.031, 1239.371
1264.514, 1253.152
1264.996, 1247.845
1265.478, 1240.206
1265.960, 1244.652
1266.442, 1255.921
1266.924, 1261.944
1267.406, 1262.697
1267.888, 1257.931
1268.371, 1246.911
1268.853, 1240.305
1269.335, 1239.595
1269.817, 1238.213
1270.299, 1233.429
1270.781, 1229.786
1271.263, 1231.554
1271.745, 1236.681
1272.228, 1242.887
1272.710, 1249.451
1273.192, 1256.415
1273.674, 1262.086
1274.156, 1262.630
1274.638, 1258.592
1275.120, 1253.209
1275.602, 1247.314
1276.084, 1243.890
1276.567, 1243.882
1277.049, 1247.170
1277.531, 1257.001
1278.013, 1266.449
1278.495, 1270.397
1278.977, 1272.076
1279.459, 1276.169
1279.941, 1281.777
1280.423, 1284.887
1280.906, 1286.207
1281.388, 1280.229
1281.870, 1264.587
1282.352, 1256.786
1282.834, 1260.901
1283.316, 1268.017
1283.798, 1273.586
1284.280, 1276.063
1284.763, 1271.384
1285.245, 1265.742
1285.727, 1275.292
1286.209, 1291.472
1286.691, 1296.629
1287.173, 1293.114
1287.655, 1287.809
1288.137, 1283.240
1288.620, 1282.406
1289.102, 1287.351
##END=



