##NAMES=Susannite
##RRUFFID=R070704
##IDEAL CHEMISTRY=Pb^2+^_4_(S^6+^O_4_)(CO_3_)_2_(OH)_2_
##LOCALITY=Boarezzo mine (Pradisci prospect; Rio Carpane prospect), Boarezzo, Varese Province, Lombardy, Italy
##OWNER=RRUFF
##SOURCE=Michael Scott
##DESCRIPTION=Array of colorless tabular hexagonal plates
##STATUS=The identification of this mineral has been confirmed by single-crystal X-ray diffraction.
##URL=rruff.info/R070704
142.7027, 24908.86
143.1848, 24966.09
143.6669, 25017.17
144.1490, 25048.62
144.6311, 25092.36
145.1133, 25169.22
145.5954, 25305.08
146.0775, 25424.47
146.5596, 25506.54
147.0417, 25553.26
147.5238, 25649.77
148.0060, 25819.49
148.4881, 26022.55
148.9702, 26221.21
149.4523, 26421.65
149.9344, 26613.85
150.4165, 26791.99
150.8987, 26950.67
151.3808, 27120.71
151.8629, 27292.55
152.3450, 27478.34
152.8271, 27693.47
153.3092, 27977.31
153.7914, 28257.45
154.2735, 28506.40
154.7556, 28697.15
155.2377, 28897.20
155.7198, 29128.61
156.2019, 29377.56
156.6841, 29601.85
157.1662, 29763.34
157.6483, 29918.03
158.1304, 30096.36
158.6125, 30330.43
159.0946, 30564.68
159.5768, 30801.11
160.0589, 31037.40
160.5410, 31222.58
161.0231, 31290.11
161.5052, 31320.40
161.9873, 31392.45
162.4695, 31597.68
162.9516, 31796.37
163.4337, 31915.88
163.9158, 31944.46
164.3979, 31957.02
164.8800, 31982.16
165.3622, 32013.49
165.8443, 32040.95
166.3264, 32064.16
166.8085, 32079.51
167.2906, 32088.19
167.7727, 32097.72
168.2549, 32082.83
168.7370, 32020.19
169.2191, 31919.20
169.7012, 31806.05
170.1833, 31707.36
170.6654, 31601.01
171.1476, 31462.18
171.6297, 31274.27
172.1118, 31066.26
172.5939, 30860.69
173.0760, 30658.19
173.5581, 30449.18
174.0403, 30225.92
174.5224, 29992.04
175.0045, 29752.44
175.4866, 29513.46
175.9687, 29270.09
176.4508, 29010.21
176.9330, 28731.57
177.4151, 28453.14
177.8972, 28197.53
178.3793, 27953.26
178.8614, 27694.55
179.3435, 27401.30
179.8257, 27084.85
180.3078, 26762.63
180.7899, 26431.93
181.2720, 26098.59
181.7541, 25759.94
182.2362, 25416.54
182.7184, 25082.45
183.2005, 24761.11
183.6826, 24454.14
184.1647, 24155.14
184.6468, 23870.15
185.1289, 23592.85
185.6111, 23323.63
186.0932, 23060.24
186.5753, 22799.94
187.0574, 22537.04
187.5395, 22274.28
188.0216, 22008.63
188.5037, 21737.98
188.9859, 21471.00
189.4680, 21228.89
189.9501, 21014.64
190.4322, 20813.37
190.9143, 20622.66
191.3964, 20441.07
191.8786, 20239.94
192.3607, 20003.71
192.8428, 19742.14
193.3249, 19498.28
193.8070, 19274.62
194.2891, 19065.17
194.7713, 18861.31
195.2534, 18661.17
195.7355, 18477.44
196.2176, 18323.40
196.6997, 18199.39
197.1818, 18058.22
197.6640, 17894.15
198.1461, 17724.64
198.6282, 17582.20
199.1103, 17469.57
199.5924, 17364.74
200.0745, 17255.14
200.5567, 17141.59
201.0388, 17026.65
201.5209, 16908.19
202.0030, 16789.04
202.4851, 16677.79
202.9672, 16574.71
203.4494, 16476.13
203.9315, 16381.39
204.4136, 16291.15
204.8957, 16195.33
205.3778, 16087.96
205.8599, 15973.87
206.3421, 15876.71
206.8242, 15798.62
207.3063, 15733.69
207.7884, 15684.78
208.2705, 15661.77
208.7526, 15612.65
209.2348, 15515.68
209.7169, 15374.70
210.1990, 15274.54
210.6811, 15233.53
211.1632, 15204.20
211.6453, 15126.92
212.1275, 14981.92
212.6096, 14846.99
213.0917, 14741.08
213.5738, 14666.17
214.0559, 14607.27
214.5380, 14570.89
215.0202, 14543.47
215.5023, 14504.46
215.9844, 14452.52
216.4665, 14392.85
216.9486, 14325.47
217.4307, 14247.23
217.9129, 14177.46
218.3950, 14119.93
218.8771, 14069.12
219.3592, 14009.15
219.8413, 13928.94
220.3234, 13859.97
220.8056, 13823.84
221.2877, 13846.86
221.7698, 13826.47
222.2519, 13743.05
222.7340, 13617.63
223.2161, 13517.43
223.6983, 13453.51
224.1804, 13398.32
224.6625, 13339.46
225.1446, 13282.24
225.6267, 13206.53
226.1088, 13099.04
226.5910, 12968.99
227.0731, 12867.15
227.5552, 12803.46
228.0373, 12756.34
228.5194, 12714.11
229.0015, 12686.14
229.4836, 12644.15
229.9658, 12582.91
230.4479, 12502.85
230.9300, 12419.76
231.4121, 12331.41
231.8942, 12242.82
232.3763, 12157.34
232.8585, 12069.41
233.3406, 11998.08
233.8227, 11952.24
234.3048, 11933.75
234.7869, 11907.70
235.2690, 11873.54
235.7512, 11832.13
236.2333, 11784.52
236.7154, 11731.92
237.1975, 11670.53
237.6796, 11591.59
238.1617, 11488.08
238.6439, 11417.70
239.1260, 11394.72
239.6081, 11394.67
240.0902, 11385.83
240.5723, 11370.23
241.0544, 11341.99
241.5366, 11294.91
242.0187, 11219.69
242.5008, 11161.78
242.9829, 11125.77
243.4650, 11104.44
243.9471, 11087.09
244.4293, 11082.31
244.9114, 11067.54
245.3935, 11032.84
245.8756, 10968.80
246.3577, 10910.82
246.8398, 10861.51
247.3220, 10817.01
247.8041, 10767.60
248.2862, 10704.97
248.7683, 10649.24
249.2504, 10612.12
249.7325, 10605.31
250.2147, 10588.44
250.6968, 10563.63
251.1789, 10528.24
251.6610, 10469.04
252.1431, 10359.35
252.6252, 10265.81
253.1074, 10228.71
253.5895, 10285.42
254.0716, 10305.90
254.5537, 10273.82
255.0358, 10202.51
255.5179, 10141.32
256.0001, 10095.43
256.4822, 10052.12
256.9643, 10001.32
257.4464, 9934.590
257.9285, 9883.672
258.4106, 9855.167
258.8928, 9844.572
259.3749, 9830.953
259.8570, 9818.022
260.3391, 9795.649
260.8212, 9752.341
261.3033, 9674.097
261.7855, 9614.514
262.2676, 9584.324
262.7497, 9578.679
263.2318, 9566.620
263.7139, 9549.944
264.1960, 9523.547
264.6782, 9479.701
265.1603, 9410.002
265.6424, 9349.721
266.1245, 9307.464
266.6066, 9280.248
267.0887, 9238.378
267.5709, 9177.580
268.0530, 9110.767
268.5351, 9046.530
269.0172, 8981.142
269.4993, 8933.355
269.9814, 8911.438
270.4636, 8912.370
270.9457, 8905.150
271.4278, 8887.037
271.9099, 8866.629
272.3920, 8858.084
272.8741, 8868.928
273.3563, 8854.931
273.8384, 8796.393
274.3205, 8699.627
274.8026, 8632.972
275.2847, 8602.815
275.7668, 8587.454
276.2490, 8566.288
276.7311, 8538.841
277.2132, 8507.371
277.6953, 8467.865
278.1774, 8422.588
278.6595, 8403.036
279.1417, 8416.478
279.6238, 8435.322
280.1059, 8427.360
280.5880, 8390.501
281.0701, 8351.167
281.5522, 8312.369
282.0344, 8276.476
282.5165, 8266.061
282.9986, 8286.757
283.4807, 8313.701
283.9628, 8316.504
284.4449, 8294.910
284.9271, 8272.979
285.4092, 8258.339
285.8913, 8249.860
286.3734, 8241.007
286.8555, 8231.543
287.3376, 8222.452
287.8198, 8214.363
288.3019, 8207.275
288.7840, 8201.851
289.2661, 8191.382
289.7482, 8182.091
290.2303, 8208.612
290.7124, 8276.795
291.1945, 8344.782
291.6767, 8351.712
292.1588, 8307.120
292.6409, 8279.956
293.1230, 8315.357
293.6051, 8387.006
294.0872, 8412.517
294.5694, 8388.046
295.0515, 8350.196
295.5336, 8334.559
296.0157, 8338.366
296.4978, 8349.624
296.9799, 8367.044
297.4621, 8388.368
297.9442, 8406.377
298.4263, 8420.819
298.9084, 8439.051
299.3905, 8477.214
299.8727, 8526.779
300.3548, 8562.636
300.8369, 8556.376
301.3190, 8536.025
301.8011, 8546.563
302.2832, 8589.640
302.7654, 8643.146
303.2475, 8693.830
303.7296, 8740.243
304.2117, 8780.642
304.6938, 8814.682
305.1759, 8841.458
305.6581, 8855.434
306.1402, 8856.207
306.6223, 8857.331
307.1044, 8858.366
307.5865, 8868.084
308.0686, 8901.284
308.5508, 9008.965
309.0329, 9115.161
309.5150, 9134.642
309.9971, 9065.133
310.4792, 9007.887
310.9613, 9047.294
311.4435, 9135.901
311.9256, 9208.719
312.4077, 9238.111
312.8898, 9245.918
313.3719, 9233.529
313.8540, 9201.268
314.3362, 9188.111
314.8183, 9233.008
315.3004, 9301.604
315.7825, 9354.814
316.2646, 9357.270
316.7467, 9359.955
317.2289, 9395.206
317.7110, 9463.391
318.1931, 9514.347
318.6752, 9508.777
319.1573, 9485.243
319.6394, 9480.423
320.1216, 9521.545
320.6037, 9566.331
321.0858, 9605.131
321.5679, 9637.194
322.0500, 9658.912
322.5321, 9651.077
323.0143, 9642.028
323.4964, 9654.354
323.9785, 9723.378
324.4606, 9781.342
324.9427, 9812.673
325.4248, 9817.737
325.9070, 9817.473
326.3891, 9804.695
326.8712, 9792.638
327.3533, 9790.305
327.8354, 9812.696
328.3175, 9828.249
328.7997, 9828.751
329.2818, 9815.813
329.7639, 9812.726
330.2460, 9823.478
330.7281, 9840.827
331.2102, 9861.285
331.6924, 9893.611
332.1745, 9915.009
332.6566, 9919.115
333.1387, 9909.341
333.6208, 9908.808
334.1029, 9929.105
334.5851, 9944.239
335.0672, 9935.331
335.5493, 9888.077
336.0314, 9852.257
336.5135, 9830.223
336.9956, 9822.469
337.4778, 9835.295
337.9599, 9880.629
338.4420, 9920.215
338.9241, 9928.549
339.4062, 9898.693
339.8883, 9871.892
340.3705, 9846.304
340.8526, 9829.207
341.3347, 9847.330
341.8168, 9909.821
342.2989, 9964.710
342.7810, 9977.596
343.2632, 9948.616
343.7453, 9921.595
344.2274, 9896.688
344.7095, 9879.147
345.1916, 9881.962
345.6737, 9905.582
346.1559, 9930.691
346.6380, 9953.986
347.1201, 9971.964
347.6022, 9962.643
348.0843, 9917.297
348.5664, 9868.054
349.0486, 9866.673
349.5307, 9905.392
350.0128, 9936.161
350.4949, 9924.750
350.9770, 9891.039
351.4591, 9879.102
351.9413, 9893.460
352.4234, 9911.282
352.9055, 9907.679
353.3876, 9888.869
353.8697, 9871.045
354.3518, 9855.255
354.8340, 9847.317
355.3161, 9859.999
355.7982, 9894.857
356.2803, 9925.259
356.7624, 9921.582
357.2445, 9902.187
357.7267, 9895.396
358.2088, 9925.016
358.6909, 9961.276
359.1730, 9983.191
359.6551, 9990.679
360.1372, 9997.863
360.6194, 9999.010
361.1015, 10008.45
361.5836, 10040.90
362.0657, 10155.27
362.5478, 10241.07
363.0299, 10235.68
363.5121, 10149.82
363.9942, 10083.39
364.4763, 10079.19
364.9584, 10097.89
365.4405, 10112.22
365.9226, 10113.06
366.4048, 10113.59
366.8869, 10112.31
367.3690, 10111.19
367.8511, 10119.80
368.3332, 10157.71
368.8153, 10192.13
369.2975, 10206.96
369.7796, 10174.48
370.2617, 10161.39
370.7438, 10179.06
371.2259, 10215.99
371.7080, 10238.77
372.1902, 10231.90
372.6722, 10230.99
373.1544, 10252.32
373.6365, 10308.05
374.1186, 10352.98
374.6007, 10384.10
375.0828, 10407.29
375.5649, 10431.18
376.0471, 10452.96
376.5292, 10483.36
377.0113, 10529.00
377.4934, 10591.73
377.9755, 10645.94
378.4576, 10690.47
378.9398, 10730.22
379.4219, 10770.81
379.9040, 10812.13
380.3861, 10857.67
380.8682, 10913.51
381.3503, 10974.88
381.8325, 11016.63
382.3146, 11034.85
382.7967, 11056.65
383.2788, 11117.40
383.7609, 11207.78
384.2430, 11287.38
384.7252, 11337.99
385.2073, 11375.36
385.6894, 11421.85
386.1715, 11478.21
386.6536, 11545.80
387.1357, 11630.55
387.6179, 11727.04
388.1000, 11825.80
388.5821, 11929.21
389.0642, 12027.89
389.5463, 12106.70
390.0284, 12170.44
390.5106, 12234.00
390.9927, 12295.32
391.4748, 12366.62
391.9569, 12462.27
392.4390, 12593.00
392.9211, 12726.06
393.4033, 12837.85
393.8854, 12938.48
394.3675, 13050.71
394.8496, 13186.19
395.3317, 13331.04
395.8138, 13481.30
396.2960, 13636.77
396.7781, 13792.19
397.2602, 13955.73
397.7423, 14115.00
398.2244, 14256.71
398.7065, 14325.56
399.1887, 14430.32
399.6708, 14614.00
400.1529, 14888.75
400.6350, 15124.10
401.1171, 15289.94
401.5992, 15439.07
402.0814, 15614.75
402.5635, 15836.42
403.0456, 16050.73
403.5277, 16245.98
404.0098, 16426.44
404.4919, 16620.68
404.9741, 16827.58
405.4562, 17052.48
405.9383, 17301.15
406.4204, 17582.62
406.9025, 17844.06
407.3846, 18075.48
407.8668, 18289.73
408.3489, 18520.17
408.8310, 18766.82
409.3131, 19010.22
409.7952, 19224.85
410.2773, 19420.89
410.7595, 19652.07
411.2416, 19927.21
411.7237, 20219.19
412.2058, 20505.66
412.6879, 20780.53
413.1700, 21029.84
413.6522, 21220.38
414.1343, 21386.81
414.6164, 21593.36
415.0985, 21843.14
415.5806, 22087.65
416.0627, 22287.38
416.5449, 22457.38
417.0270, 22625.80
417.5091, 22813.59
417.9912, 22991.90
418.4733, 23150.93
418.9554, 23287.56
419.4376, 23390.04
419.9197, 23443.77
420.4018, 23465.18
420.8839, 23464.88
421.3660, 23433.19
421.8481, 23398.14
422.3303, 23368.01
422.8124, 23340.05
423.2945, 23306.77
423.7766, 23277.89
424.2587, 23232.89
424.7408, 23160.96
425.2230, 23049.79
425.7051, 22936.79
426.1872, 22834.82
426.6693, 22724.07
427.1514, 22574.73
427.6335, 22357.89
428.1157, 22145.96
428.5978, 21961.79
429.0799, 21807.99
429.5620, 21629.53
430.0441, 21423.94
430.5262, 21204.65
431.0084, 20987.57
431.4905, 20773.78
431.9726, 20542.83
432.4547, 20283.50
432.9368, 20008.78
433.4189, 19763.70
433.9011, 19552.60
434.3832, 19340.87
434.8653, 19094.14
435.3474, 18823.00
435.8295, 18573.33
436.3116, 18355.68
436.7938, 18145.58
437.2759, 17907.18
437.7580, 17648.08
438.2401, 17399.72
438.7222, 17186.19
439.2043, 16988.96
439.6865, 16780.24
440.1686, 16556.42
440.6507, 16349.41
441.1328, 16201.81
441.6149, 16080.35
442.0970, 15937.60
442.5792, 15716.02
443.0613, 15505.30
443.5434, 15361.67
444.0255, 15278.68
444.5076, 15179.92
444.9897, 15019.20
445.4719, 14848.32
445.9540, 14699.84
446.4361, 14596.94
446.9182, 14491.91
447.4003, 14375.01
447.8824, 14252.07
448.3646, 14139.57
448.8467, 14060.36
449.3288, 13966.37
449.8109, 13834.97
450.2930, 13646.59
450.7751, 13500.98
451.2573, 13413.36
451.7394, 13350.02
452.2215, 13270.55
452.7036, 13172.98
453.1857, 13064.07
453.6678, 12940.58
454.1500, 12807.51
454.6321, 12703.86
455.1142, 12632.25
455.5963, 12566.21
456.0784, 12490.46
456.5605, 12402.93
457.0426, 12293.39
457.5247, 12152.71
458.0069, 12003.84
458.4890, 11875.25
458.9711, 11766.20
459.4532, 11667.70
459.9353, 11587.30
460.4174, 11509.91
460.8996, 11418.48
461.3817, 11310.80
461.8638, 11193.18
462.3459, 11052.97
462.8280, 10909.09
463.3102, 10790.20
463.7923, 10745.19
464.2744, 10691.65
464.7565, 10585.52
465.2386, 10431.36
465.7207, 10283.39
466.2029, 10153.97
466.6850, 10038.01
467.1671, 9931.031
467.6492, 9844.174
468.1313, 9753.431
468.6134, 9653.276
469.0956, 9548.753
469.5777, 9457.335
470.0598, 9384.245
470.5419, 9315.149
471.0240, 9247.180
471.5061, 9182.174
471.9883, 9103.604
472.4704, 9006.136
472.9525, 8904.445
473.4346, 8819.190
473.9167, 8750.746
474.3988, 8681.149
474.8810, 8606.358
475.3631, 8526.921
475.8452, 8441.951
476.3273, 8351.600
476.8094, 8263.892
477.2915, 8188.787
477.7737, 8121.153
478.2558, 8050.871
478.7379, 7976.519
479.2200, 7899.274
479.7021, 7810.774
480.1842, 7719.897
480.6664, 7646.746
481.1485, 7619.324
481.6306, 7600.359
482.1127, 7562.880
482.5948, 7504.692
483.0769, 7446.678
483.5591, 7395.869
484.0412, 7349.289
484.5233, 7304.097
485.0054, 7256.908
485.4875, 7214.523
485.9696, 7180.700
486.4518, 7153.291
486.9339, 7121.397
487.4160, 7079.685
487.8981, 7040.216
488.3802, 7010.250
488.8623, 6996.830
489.3445, 6967.170
489.8266, 6913.744
490.3087, 6852.993
490.7908, 6810.742
491.2729, 6789.644
491.7550, 6767.000
492.2372, 6733.116
492.7193, 6692.869
493.2014, 6669.364
493.6835, 6662.813
494.1656, 6659.412
494.6477, 6647.513
495.1299, 6630.114
495.6120, 6615.124
496.0941, 6604.486
496.5762, 6594.989
497.0583, 6584.926
497.5404, 6573.258
498.0226, 6557.640
498.5047, 6527.423
498.9868, 6499.550
499.4689, 6491.446
499.9510, 6505.764
500.4331, 6510.345
500.9153, 6482.879
501.3974, 6444.463
501.8795, 6413.346
502.3616, 6408.656
502.8437, 6394.317
503.3258, 6349.285
503.8080, 6286.810
504.2901, 6260.968
504.7722, 6304.151
505.2543, 6343.179
505.7364, 6345.771
506.2185, 6301.121
506.7007, 6268.623
507.1828, 6246.647
507.6649, 6238.753
508.1470, 6257.466
508.6291, 6306.354
509.1112, 6338.044
509.5934, 6336.062
510.0755, 6311.373
510.5576, 6292.568
511.0397, 6279.494
511.5218, 6270.573
512.0039, 6265.831
512.4860, 6264.129
512.9681, 6265.008
513.4503, 6270.152
513.9324, 6270.525
514.4145, 6254.726
514.8966, 6229.156
515.3787, 6205.368
515.8608, 6189.789
516.3430, 6176.029
516.8251, 6158.696
517.3072, 6138.227
517.7893, 6125.759
518.2714, 6131.349
518.7535, 6141.529
519.2357, 6147.942
519.7178, 6154.305
520.1999, 6149.837
520.6820, 6123.589
521.1641, 6090.367
521.6462, 6081.215
522.1284, 6108.109
522.6105, 6133.287
523.0926, 6144.899
523.5747, 6143.277
524.0568, 6140.071
524.5389, 6135.735
525.0211, 6127.958
525.5032, 6112.385
525.9853, 6090.358
526.4674, 6070.510
526.9495, 6052.965
527.4316, 6041.403
527.9138, 6043.660
528.3959, 6057.303
528.8780, 6073.458
529.3601, 6092.182
529.8422, 6108.093
530.3243, 6115.416
530.8065, 6113.544
531.2886, 6108.273
531.7707, 6098.492
532.2528, 6088.854
532.7349, 6083.484
533.2170, 6089.931
533.6992, 6093.531
534.1813, 6088.969
534.6634, 6079.115
535.1455, 6073.532
535.6276, 6073.905
536.1097, 6077.140
536.5919, 6084.812
537.0740, 6099.440
537.5561, 6098.449
538.0382, 6074.216
538.5203, 6047.983
539.0024, 6044.101
539.4846, 6064.051
539.9667, 6081.488
540.4488, 6092.100
540.9309, 6096.558
541.4130, 6092.813
541.8951, 6082.009
542.3773, 6074.687
542.8594, 6085.064
543.3415, 6099.705
543.8236, 6094.020
544.3057, 6064.831
544.7878, 6039.900
545.2700, 6038.009
545.7521, 6051.553
546.2342, 6071.976
546.7163, 6115.556
547.1984, 6144.887
547.6805, 6138.922
548.1627, 6107.060
548.6448, 6081.744
549.1269, 6067.511
549.6090, 6061.041
550.0911, 6063.416
550.5732, 6078.124
551.0554, 6084.954
551.5375, 6079.814
552.0196, 6072.023
552.5017, 6072.358
552.9838, 6082.889
553.4659, 6087.576
553.9481, 6080.878
554.4302, 6069.867
554.9123, 6074.542
555.3944, 6093.954
555.8765, 6108.641
556.3586, 6102.447
556.8408, 6085.719
557.3229, 6079.530
557.8050, 6085.482
558.2871, 6086.336
558.7692, 6056.128
559.2513, 6017.199
559.7335, 5999.072
560.2156, 6024.275
560.6977, 6052.507
561.1798, 6066.571
561.6619, 6071.701
562.1440, 6081.666
562.6262, 6112.270
563.1083, 6135.530
563.5904, 6136.913
564.0725, 6111.038
564.5546, 6106.634
565.0367, 6137.405
565.5189, 6171.767
566.0010, 6180.070
566.4831, 6156.582
566.9652, 6139.767
567.4473, 6134.748
567.9294, 6137.574
568.4116, 6141.960
568.8937, 6147.794
569.3758, 6153.281
569.8579, 6157.122
570.3400, 6160.431
570.8221, 6164.598
571.3043, 6169.764
571.7864, 6177.561
572.2685, 6194.375
572.7506, 6212.148
573.2327, 6221.109
573.7148, 6213.169
574.1970, 6208.439
574.6791, 6215.846
575.1612, 6231.175
575.6433, 6246.720
576.1254, 6259.229
576.6075, 6274.157
577.0897, 6292.771
577.5718, 6315.047
578.0539, 6339.284
578.5360, 6369.169
579.0181, 6394.153
579.5002, 6401.195
579.9824, 6387.889
580.4645, 6398.696
580.9466, 6442.447
581.4287, 6493.021
581.9108, 6510.514
582.3929, 6501.487
582.8751, 6495.959
583.3572, 6500.203
583.8393, 6517.343
584.3214, 6558.568
584.8035, 6618.937
585.2856, 6675.386
585.7678, 6717.875
586.2499, 6750.125
586.7320, 6771.611
587.2141, 6777.767
587.6962, 6792.437
588.1783, 6824.743
588.6605, 6867.119
589.1426, 6912.265
589.6247, 6963.412
590.1068, 7012.061
590.5889, 7058.726
591.0710, 7102.039
591.5532, 7140.364
592.0353, 7175.525
592.5174, 7198.896
592.9995, 7198.800
593.4816, 7180.608
593.9637, 7185.185
594.4459, 7213.792
594.9280, 7252.276
595.4101, 7297.209
595.8922, 7341.229
596.3743, 7367.922
596.8564, 7370.567
597.3386, 7363.553
597.8207, 7348.165
598.3028, 7332.538
598.7849, 7332.046
599.2670, 7368.272
599.7491, 7405.299
600.2313, 7429.167
600.7134, 7439.867
601.1955, 7450.014
601.6776, 7464.961
602.1597, 7475.102
602.6418, 7474.760
603.1240, 7460.538
603.6061, 7447.497
604.0882, 7436.576
604.5703, 7424.886
605.0524, 7407.987
605.5345, 7386.066
606.0167, 7362.731
606.4988, 7336.210
606.9809, 7312.166
607.4630, 7304.524
607.9451, 7309.524
608.4272, 7308.897
608.9094, 7286.401
609.3915, 7257.096
609.8736, 7233.514
610.3557, 7216.572
610.8378, 7206.914
611.3199, 7210.764
611.8021, 7218.375
612.2842, 7221.864
612.7663, 7213.213
613.2484, 7209.958
613.7305, 7217.252
614.2126, 7228.114
614.6948, 7228.699
615.1769, 7211.792
615.6590, 7204.445
616.1411, 7218.213
616.6232, 7246.489
617.1053, 7258.295
617.5875, 7253.127
618.0696, 7240.370
618.5517, 7219.065
619.0338, 7196.225
619.5159, 7192.248
619.9980, 7211.110
620.4802, 7225.842
620.9623, 7205.238
621.4444, 7171.235
621.9265, 7152.853
622.4086, 7181.577
622.8907, 7198.403
623.3729, 7173.519
623.8550, 7122.563
624.3371, 7085.091
624.8192, 7071.883
625.3013, 7063.841
625.7834, 7055.958
626.2656, 7048.369
626.7477, 7048.694
627.2298, 7061.021
627.7119, 7069.534
628.1940, 7057.645
628.6761, 7027.888
629.1583, 7013.612
629.6404, 7020.478
630.1225, 7027.946
630.6046, 7011.625
631.0867, 6978.461
631.5688, 6943.611
632.0510, 6912.904
632.5331, 6881.454
633.0152, 6841.909
633.4973, 6798.259
633.9794, 6763.368
634.4615, 6744.806
634.9437, 6731.962
635.4258, 6721.680
635.9079, 6713.993
636.3900, 6706.657
636.8721, 6695.092
637.3542, 6689.682
637.8364, 6704.408
638.3185, 6746.220
638.8006, 6752.878
639.2827, 6712.159
639.7648, 6657.879
640.2469, 6640.616
640.7291, 6652.335
641.2112, 6652.464
641.6933, 6618.441
642.1754, 6578.971
642.6575, 6567.982
643.1396, 6579.751
643.6218, 6596.221
644.1039, 6620.889
644.5860, 6637.629
645.0681, 6633.939
645.5502, 6607.562
646.0323, 6584.620
646.5145, 6569.413
646.9966, 6558.560
647.4787, 6551.489
647.9608, 6552.049
648.4429, 6545.046
648.9250, 6527.691
649.4072, 6506.550
649.8893, 6487.920
650.3714, 6471.909
650.8535, 6466.349
651.3356, 6478.158
651.8177, 6494.760
652.2999, 6491.374
652.7820, 6473.872
653.2641, 6464.570
653.7462, 6485.018
654.2283, 6510.594
654.7104, 6525.015
655.1926, 6527.361
655.6747, 6522.837
656.1568, 6505.651
656.6389, 6487.518
657.1210, 6476.048
657.6031, 6473.017
658.0853, 6473.050
658.5674, 6480.291
659.0495, 6485.702
659.5316, 6475.434
660.0137, 6447.644
660.4958, 6424.664
660.9779, 6409.000
661.4600, 6403.279
661.9421, 6416.937
662.4243, 6446.072
662.9064, 6474.169
663.3885, 6499.089
663.8706, 6514.741
664.3527, 6510.047
664.8348, 6487.416
665.3170, 6468.552
665.7991, 6463.403
666.2812, 6463.860
666.7633, 6466.688
667.2454, 6474.808
667.7275, 6474.609
668.2097, 6457.581
668.6918, 6440.849
669.1739, 6446.078
669.6560, 6480.301
670.1381, 6488.460
670.6202, 6456.686
671.1024, 6410.840
671.5845, 6395.110
672.0666, 6404.792
672.5487, 6415.757
673.0308, 6415.962
673.5129, 6415.394
673.9951, 6424.677
674.4772, 6442.336
674.9593, 6462.871
675.4414, 6496.787
675.9235, 6521.920
676.4056, 6520.666
676.8878, 6486.483
677.3699, 6468.813
677.8520, 6476.623
678.3341, 6493.414
678.8162, 6512.521
679.2983, 6539.054
679.7805, 6539.988
680.2626, 6507.194
680.7447, 6465.849
681.2268, 6454.975
681.7089, 6466.453
682.1910, 6460.397
682.6732, 6416.925
683.1553, 6367.344
683.6374, 6347.015
684.1195, 6346.973
684.6016, 6344.368
685.0837, 6323.964
685.5659, 6303.914
686.0480, 6292.039
686.5301, 6288.297
687.0122, 6288.068
687.4943, 6294.574
687.9764, 6300.094
688.4586, 6302.876
688.9407, 6303.687
689.4228, 6290.281
689.9049, 6258.350
690.3870, 6227.843
690.8691, 6219.822
691.3513, 6229.539
691.8334, 6236.853
692.3155, 6236.757
692.7976, 6242.248
693.2797, 6280.475
693.7618, 6329.254
694.2440, 6353.610
694.7261, 6313.052
695.2082, 6276.103
695.6903, 6268.326
696.1724, 6281.564
696.6545, 6293.591
697.1367, 6308.517
697.6188, 6313.238
698.1009, 6297.444
698.5830, 6266.407
699.0651, 6266.873
699.5472, 6303.934
700.0294, 6338.470
700.5115, 6341.783
700.9936, 6324.626
701.4757, 6317.291
701.9578, 6321.323
702.4399, 6322.755
702.9221, 6298.445
703.4042, 6272.203
703.8863, 6272.235
704.3684, 6319.942
704.8505, 6355.817
705.3326, 6357.828
705.8148, 6341.358
706.2969, 6324.877
706.7790, 6305.173
707.2611, 6293.506
707.7432, 6294.871
708.2253, 6301.917
708.7075, 6298.848
709.1896, 6285.719
709.6717, 6267.459
710.1538, 6243.127
710.6359, 6216.886
711.1180, 6195.646
711.6002, 6179.212
712.0823, 6167.622
712.5644, 6158.941
713.0465, 6156.616
713.5286, 6167.166
714.0107, 6192.270
714.4929, 6207.400
714.9750, 6192.678
715.4571, 6179.094
715.9392, 6185.639
716.4213, 6223.636
716.9034, 6235.709
717.3856, 6213.128
717.8677, 6185.161
718.3498, 6189.186
718.8319, 6218.874
719.3140, 6234.673
719.7961, 6225.738
720.2783, 6211.822
720.7604, 6216.037
721.2425, 6230.340
721.7246, 6240.116
722.2067, 6233.592
722.6888, 6228.657
723.1710, 6236.752
723.6531, 6252.231
724.1352, 6256.221
724.6173, 6243.435
725.0994, 6225.895
725.5815, 6202.444
726.0637, 6175.906
726.5458, 6170.750
727.0279, 6188.785
727.5100, 6208.935
727.9921, 6219.674
728.4742, 6222.749
728.9564, 6220.296
729.4385, 6212.564
729.9206, 6205.904
730.4027, 6201.190
730.8848, 6201.809
731.3669, 6214.981
731.8491, 6252.942
732.3312, 6269.363
732.8133, 6236.024
733.2954, 6190.261
733.7775, 6160.975
734.2596, 6150.279
734.7418, 6151.861
735.2239, 6169.267
735.7060, 6191.387
736.1881, 6201.063
736.6702, 6199.732
737.1523, 6194.490
737.6345, 6183.645
738.1166, 6175.718
738.5987, 6184.417
739.0808, 6203.004
739.5629, 6215.548
740.0450, 6216.457
740.5272, 6209.331
741.0093, 6187.067
741.4914, 6153.806
741.9735, 6142.494
742.4556, 6162.948
742.9377, 6187.669
743.4199, 6208.730
743.9020, 6225.541
744.3841, 6231.821
744.8662, 6227.375
745.3483, 6215.430
745.8304, 6195.761
746.3126, 6171.517
746.7947, 6140.308
747.2768, 6100.331
747.7589, 6085.704
748.2410, 6152.377
748.7231, 6230.873
749.2053, 6259.741
749.6874, 6192.514
750.1695, 6152.187
750.6516, 6155.083
751.1337, 6174.498
751.6158, 6182.630
752.0980, 6177.831
752.5801, 6173.308
753.0622, 6169.494
753.5443, 6169.704
754.0264, 6181.832
754.5085, 6202.171
754.9907, 6220.980
755.4728, 6237.748
755.9549, 6247.381
756.4370, 6238.095
756.9191, 6218.778
757.4012, 6211.017
757.8834, 6237.486
758.3655, 6256.108
758.8476, 6255.251
759.3297, 6238.704
759.8118, 6221.853
760.2939, 6202.304
760.7761, 6192.388
761.2582, 6201.853
761.7403, 6224.646
762.2224, 6243.471
762.7045, 6258.053
763.1866, 6265.195
763.6688, 6256.649
764.1509, 6243.499
764.6330, 6233.918
765.1151, 6228.437
765.5972, 6230.747
766.0793, 6251.061
766.5615, 6271.890
767.0436, 6282.383
767.5257, 6278.522
768.0078, 6280.417
768.4899, 6290.975
768.9720, 6300.109
769.4542, 6295.313
769.9363, 6279.815
770.4184, 6268.934
770.9005, 6264.687
771.3826, 6265.341
771.8647, 6269.162
772.3469, 6276.907
772.8290, 6290.015
773.3111, 6315.366
773.7932, 6336.067
774.2753, 6347.998
774.7574, 6352.438
775.2396, 6349.969
775.7217, 6334.829
776.2038, 6327.639
776.6859, 6332.554
777.1680, 6346.161
777.6501, 6366.426
778.1323, 6391.205
778.6144, 6404.824
779.0965, 6391.193
779.5786, 6373.843
780.0607, 6381.293
780.5428, 6406.138
781.0250, 6426.501
781.5071, 6430.076
781.9892, 6432.300
782.4713, 6437.400
782.9534, 6445.667
783.4355, 6461.501
783.9177, 6492.442
784.3998, 6511.313
784.8819, 6498.015
785.3640, 6463.060
785.8461, 6461.525
786.3282, 6491.510
786.8104, 6516.664
787.2925, 6501.083
787.7746, 6474.145
788.2567, 6466.890
788.7388, 6481.749
789.2209, 6499.091
789.7031, 6518.898
790.1852, 6533.464
790.6673, 6535.477
791.1494, 6519.047
791.6315, 6523.809
792.1136, 6557.695
792.5958, 6592.794
793.0779, 6599.170
793.5600, 6583.882
794.0421, 6582.252
794.5242, 6597.934
795.0063, 6622.530
795.4885, 6660.228
795.9706, 6696.840
796.4527, 6712.802
796.9348, 6692.014
797.4169, 6678.786
797.8990, 6693.483
798.3812, 6714.903
798.8633, 6721.441
799.3454, 6707.886
799.8275, 6696.564
800.3096, 6687.763
800.7917, 6685.538
801.2739, 6701.049
801.7560, 6729.079
802.2381, 6750.662
802.7202, 6759.854
803.2023, 6762.605
803.6844, 6755.402
804.1666, 6747.325
804.6487, 6752.778
805.1308, 6795.024
805.6129, 6827.141
806.0950, 6836.287
806.5771, 6833.463
807.0593, 6842.975
807.5414, 6867.798
808.0235, 6885.354
808.5056, 6885.667
808.9877, 6880.001
809.4698, 6892.470
809.9520, 6918.173
810.4341, 6940.353
810.9162, 6941.629
811.3983, 6945.095
811.8804, 6970.994
812.3625, 7012.040
812.8447, 7039.469
813.3268, 7038.246
813.8089, 7037.274
814.2910, 7044.982
814.7731, 7058.658
815.2552, 7065.538
815.7374, 7065.487
816.2195, 7061.588
816.7016, 7047.348
817.1837, 7034.327
817.6658, 7047.017
818.1479, 7080.991
818.6301, 7112.876
819.1122, 7129.684
819.5943, 7142.341
820.0764, 7156.493
820.5585, 7172.549
821.0406, 7186.031
821.5228, 7196.580
822.0049, 7205.101
822.4870, 7209.899
822.9691, 7212.245
823.4512, 7225.298
823.9333, 7248.921
824.4155, 7269.241
824.8976, 7271.985
825.3796, 7268.641
825.8618, 7273.481
826.3439, 7287.574
826.8260, 7298.375
827.3081, 7298.437
827.7902, 7296.706
828.2723, 7296.819
828.7545, 7297.996
829.2366, 7310.290
829.7187, 7338.309
830.2008, 7362.254
830.6829, 7360.556
831.1650, 7342.689
831.6472, 7340.285
832.1293, 7355.435
832.6114, 7371.177
833.0935, 7372.104
833.5756, 7369.794
834.0577, 7376.546
834.5399, 7399.854
835.0220, 7408.780
835.5041, 7395.664
835.9862, 7374.668
836.4683, 7352.506
836.9504, 7328.367
837.4326, 7321.269
837.9147, 7335.092
838.3968, 7345.702
838.8789, 7320.761
839.3610, 7280.137
839.8431, 7252.343
840.3253, 7240.753
840.8074, 7250.293
841.2895, 7299.371
841.7716, 7360.168
842.2537, 7409.715
842.7358, 7446.104
843.2180, 7472.308
843.7001, 7483.920
844.1822, 7494.418
844.6643, 7522.619
845.1464, 7563.264
845.6285, 7588.438
846.1107, 7592.733
846.5928, 7595.614
847.0749, 7613.597
847.5570, 7639.865
848.0391, 7666.808
848.5212, 7693.877
849.0034, 7720.065
849.4855, 7740.972
849.9676, 7765.172
850.4497, 7803.653
850.9318, 7859.497
851.4139, 7902.228
851.8961, 7927.862
852.3782, 7946.748
852.8603, 7972.679
853.3424, 7999.805
853.8245, 8015.614
854.3066, 8013.317
854.7888, 8012.471
855.2709, 8029.812
855.7530, 8049.233
856.2351, 8052.676
856.7172, 8029.627
857.1993, 8015.747
857.6815, 8016.661
858.1636, 8017.863
858.6457, 7996.036
859.1278, 7958.032
859.6099, 7936.809
860.0920, 7940.255
860.5742, 7950.454
861.0563, 7959.532
861.5384, 7963.616
862.0205, 7958.335
862.5026, 7941.318
862.9847, 7916.792
863.4669, 7882.369
863.9490, 7843.671
864.4311, 7802.561
864.9132, 7758.407
865.3953, 7726.391
865.8774, 7709.507
866.3596, 7698.978
866.8417, 7688.047
867.3238, 7675.651
867.8059, 7660.027
868.2880, 7640.668
868.7701, 7618.606
869.2523, 7584.643
869.7344, 7554.154
870.2165, 7542.488
870.6986, 7557.216
871.1807, 7569.416
871.6628, 7578.166
872.1450, 7584.383
872.6271, 7594.858
873.1092, 7603.669
873.5913, 7586.922
874.0734, 7534.659
874.5555, 7490.669
875.0377, 7494.773
875.5198, 7517.899
876.0019, 7532.042
876.4840, 7530.113
876.9661, 7522.535
877.4482, 7503.663
877.9304, 7486.807
878.4125, 7489.435
878.8946, 7509.138
879.3767, 7515.247
879.8588, 7504.453
880.3409, 7486.341
880.8231, 7466.893
881.3052, 7446.723
881.7873, 7425.222
882.2694, 7399.540
882.7515, 7382.934
883.2336, 7385.787
883.7158, 7391.471
884.1979, 7389.597
884.6800, 7379.896
885.1621, 7361.280
885.6442, 7331.077
886.1263, 7307.559
886.6085, 7318.027
887.0906, 7342.024
887.5727, 7345.242
888.0548, 7321.308
888.5369, 7299.357
889.0190, 7291.081
889.5012, 7290.464
889.9833, 7296.968
890.4654, 7315.117
890.9475, 7306.616
891.4296, 7262.240
891.9117, 7224.960
892.3939, 7247.870
892.8760, 7301.061
893.3581, 7297.740
893.8402, 7233.981
894.3223, 7176.218
894.8044, 7170.196
895.2866, 7179.693
895.7687, 7180.014
896.2508, 7167.196
896.7329, 7163.246
897.2150, 7170.154
897.6971, 7181.912
898.1793, 7203.215
898.6614, 7227.626
899.1435, 7212.277
899.6256, 7160.931
900.1077, 7121.451
900.5898, 7142.962
901.0720, 7176.675
901.5541, 7180.608
902.0362, 7154.322
902.5183, 7141.737
903.0004, 7159.835
903.4825, 7171.492
903.9647, 7157.917
904.4468, 7126.354
904.9289, 7120.929
905.4110, 7140.090
905.8931, 7156.873
906.3752, 7151.146
906.8574, 7138.932
907.3395, 7141.509
907.8216, 7152.641
908.3037, 7146.627
908.7858, 7087.419
909.2679, 7045.157
909.7501, 7040.888
910.2322, 7063.910
910.7143, 7079.985
911.1964, 7089.290
911.6785, 7085.855
912.1606, 7057.784
912.6428, 7027.862
913.1249, 7034.480
913.6070, 7062.644
914.0891, 7077.611
914.5712, 7038.125
915.0533, 7020.199
915.5355, 7061.001
916.0176, 7124.822
916.4997, 7138.315
916.9818, 7095.193
917.4639, 7061.381
917.9460, 7050.238
918.4282, 7057.586
918.9103, 7092.942
919.3924, 7139.596
919.8745, 7164.960
920.3566, 7141.340
920.8387, 7122.314
921.3209, 7128.638
921.8030, 7145.450
922.2851, 7153.889
922.7672, 7148.512
923.2493, 7165.835
923.7314, 7214.871
924.2136, 7267.390
924.6957, 7285.145
925.1778, 7282.192
925.6599, 7283.768
926.1420, 7296.285
926.6241, 7307.223
927.1063, 7301.761
927.5884, 7299.550
928.0705, 7317.946
928.5526, 7364.082
929.0347, 7400.190
929.5168, 7425.069
929.9990, 7443.439
930.4811, 7454.655
930.9632, 7463.525
931.4453, 7477.576
931.9274, 7497.600
932.4095, 7531.474
932.8917, 7603.767
933.3738, 7674.013
933.8559, 7714.079
934.3380, 7723.383
934.8201, 7743.644
935.3022, 7774.221
935.7844, 7818.391
936.2665, 7881.800
936.7486, 7958.866
937.2307, 8036.498
937.7128, 8114.437
938.1949, 8194.066
938.6771, 8276.430
939.1592, 8359.334
939.6413, 8434.491
940.1234, 8507.098
940.6055, 8601.049
941.0876, 8722.603
941.5698, 8838.994
942.0519, 8936.280
942.5340, 9030.016
943.0161, 9150.283
943.4982, 9291.591
943.9803, 9440.395
944.4625, 9584.553
944.9446, 9740.993
945.4267, 9912.312
945.9088, 10102.14
946.3909, 10322.39
946.8730, 10584.28
947.3552, 10820.83
947.8373, 11012.85
948.3194, 11205.10
948.8015, 11450.19
949.2836, 11743.68
949.7657, 12084.41
950.2479, 12489.84
950.7300, 12883.04
951.2121, 13217.96
951.6942, 13540.26
952.1763, 13889.40
952.6584, 14262.61
953.1406, 14678.40
953.6227, 15138.57
954.1048, 15620.31
954.5869, 16091.06
955.0690, 16566.74
955.5511, 17079.83
956.0333, 17632.04
956.5154, 18186.56
956.9975, 18726.27
957.4796, 19262.13
957.9617, 19805.19
958.4438, 20346.43
958.9260, 20887.02
959.4081, 21429.14
959.8902, 21956.52
960.3723, 22458.92
960.8544, 22941.68
961.3365, 23447.01
961.8187, 23950.98
962.3008, 24386.79
962.7829, 24681.48
963.2650, 24945.64
963.7471, 25232.28
964.2292, 25508.54
964.7114, 25705.35
965.1935, 25822.78
965.6756, 25858.44
966.1577, 25802.57
966.6398, 25689.28
967.1219, 25582.53
967.6041, 25444.91
968.0862, 25209.75
968.5683, 24837.22
969.0504, 24394.42
969.5325, 23877.91
970.0146, 23315.16
970.4968, 22717.75
970.9789, 22089.51
971.4610, 21450.88
971.9431, 20807.32
972.4252, 20144.89
972.9073, 19425.45
973.3895, 18696.89
973.8716, 18004.23
974.3537, 17358.69
974.8358, 16734.26
975.3179, 16116.09
975.8000, 15518.39
976.2822, 14943.63
976.7643, 14388.11
977.2464, 13886.71
977.7285, 13436.20
978.2106, 13020.41
978.6927, 12629.49
979.1749, 12263.81
979.6570, 11920.74
980.1391, 11601.90
980.6212, 11314.74
981.1033, 11060.22
981.5854, 10835.33
982.0676, 10642.06
982.5497, 10475.56
983.0318, 10328.00
983.5139, 10199.04
983.9960, 10084.49
984.4781, 9987.256
984.9603, 9899.439
985.4424, 9815.899
985.9245, 9738.666
986.4066, 9671.526
986.8887, 9620.725
987.3708, 9561.486
987.8530, 9485.887
988.3351, 9421.175
988.8172, 9405.578
989.2993, 9419.193
989.7814, 9406.844
990.2635, 9363.586
990.7456, 9325.185
991.2277, 9318.986
991.7098, 9316.668
992.1920, 9298.233
992.6741, 9264.797
993.1562, 9247.242
993.6383, 9248.545
994.1204, 9247.901
994.6025, 9230.887
995.0847, 9208.803
995.5668, 9200.403
996.0489, 9203.023
996.5310, 9209.094
997.0131, 9214.573
997.4952, 9225.023
997.9774, 9244.068
998.4595, 9267.118
998.9416, 9286.408
999.4237, 9301.687
999.9058, 9315.013
1000.388, 9324.575
1000.870, 9341.504
1001.352, 9383.754
1001.834, 9437.149
1002.316, 9485.456
1002.799, 9525.128
1003.281, 9560.457
1003.763, 9590.963
1004.245, 9619.381
1004.727, 9648.187
1005.209, 9676.599
1005.691, 9699.094
1006.173, 9716.126
1006.655, 9739.493
1007.138, 9794.324
1007.620, 9842.243
1008.102, 9848.047
1008.584, 9819.095
1009.066, 9818.278
1009.548, 9857.358
1010.030, 9892.005
1010.512, 9906.822
1010.995, 9915.523
1011.477, 9946.660
1011.959, 9992.424
1012.441, 10033.30
1012.923, 10071.60
1013.405, 10089.21
1013.887, 10059.85
1014.369, 10019.14
1014.851, 10005.77
1015.334, 10025.34
1015.816, 10025.91
1016.298, 10002.58
1016.780, 9977.479
1017.262, 9971.012
1017.744, 9974.163
1018.226, 9978.699
1018.708, 9983.622
1019.190, 9981.554
1019.673, 9972.288
1020.155, 9952.737
1020.637, 9915.698
1021.119, 9869.108
1021.601, 9852.571
1022.083, 9861.298
1022.565, 9861.143
1023.047, 9825.793
1023.530, 9789.023
1024.012, 9778.805
1024.494, 9780.937
1024.976, 9768.563
1025.458, 9737.482
1025.940, 9700.250
1026.422, 9655.448
1026.904, 9612.050
1027.386, 9582.523
1027.869, 9561.963
1028.351, 9541.723
1028.833, 9520.995
1029.315, 9496.204
1029.797, 9441.704
1030.279, 9407.615
1030.761, 9429.267
1031.243, 9501.229
1031.726, 9530.923
1032.208, 9517.643
1032.690, 9491.521
1033.172, 9453.437
1033.654, 9424.431
1034.136, 9438.329
1034.618, 9477.321
1035.100, 9495.372
1035.583, 9446.232
1036.065, 9436.309
1036.547, 9481.959
1037.029, 9562.992
1037.511, 9651.274
1037.993, 9749.903
1038.475, 9859.929
1038.957, 9977.859
1039.439, 10140.46
1039.922, 10370.76
1040.404, 10656.12
1040.886, 10982.35
1041.368, 11340.82
1041.850, 11807.35
1042.332, 12376.56
1042.814, 13066.08
1043.296, 13884.55
1043.778, 14819.17
1044.261, 15891.87
1044.743, 17085.19
1045.225, 18352.76
1045.707, 19796.82
1046.189, 21179.66
1046.671, 22463.55
1047.153, 23677.29
1047.635, 24787.93
1048.118, 25827.02
1048.600, 26951.69
1049.082, 28209.84
1049.564, 29491.14
1050.046, 30708.36
1050.528, 31922.37
1051.010, 33198.19
1051.492, 34529.61
1051.974, 35846.62
1052.457, 37142.12
1052.939, 38425.04
1053.421, 39731.07
1053.903, 41008.08
1054.385, 42409.09
1054.867, 43721.15
1055.349, 44320.85
1055.831, 44265.07
1056.313, 43005.45
1056.796, 40343.74
1057.278, 36663.84
1057.760, 32181.88
1058.242, 27059.13
1058.724, 22593.64
1059.206, 19018.84
1059.688, 16223.99
1060.170, 14374.99
1060.653, 13105.81
1061.135, 12173.22
1061.617, 11561.92
1062.099, 11115.96
1062.581, 10859.45
1063.063, 10667.37
1063.545, 10487.72
1064.027, 10322.00
1064.510, 10165.38
1064.992, 10026.31
1065.474, 9929.917
1065.956, 9931.604
1066.438, 9915.405
1066.920, 9854.116
1067.402, 9774.946
1067.884, 9711.184
1068.366, 9662.451
1068.849, 9632.620
1069.331, 9624.353
1069.813, 9611.642
1070.295, 9571.250
1070.777, 9521.945
1071.259, 9474.853
1071.741, 9431.157
1072.223, 9395.983
1072.705, 9368.545
1073.188, 9356.032
1073.670, 9371.340
1074.152, 9392.458
1074.634, 9379.373
1075.116, 9346.182
1075.598, 9322.813
1076.080, 9325.938
1076.562, 9328.929
1077.044, 9327.469
1077.527, 9326.212
1078.009, 9336.197
1078.491, 9352.115
1078.973, 9340.038
1079.455, 9297.629
1079.937, 9258.028
1080.419, 9240.995
1080.901, 9235.799
1081.384, 9243.451
1081.866, 9258.703
1082.348, 9254.956
1082.830, 9230.296
1083.312, 9205.687
1083.794, 9189.715
1084.276, 9173.776
1084.758, 9140.359
1085.240, 9102.494
1085.723, 9080.752
1086.205, 9089.159
1086.687, 9096.417
1087.169, 9101.271
1087.651, 9104.776
1088.133, 9108.780
1088.615, 9111.798
1089.097, 9106.530
1089.579, 9094.392
1090.062, 9087.497
1090.544, 9095.607
1091.026, 9106.418
1091.508, 9120.583
1091.990, 9131.499
1092.472, 9116.993
1092.954, 9078.058
1093.436, 9063.911
1093.919, 9090.989
1094.401, 9120.142
1094.883, 9114.520
1095.365, 9093.505
1095.847, 9074.430
1096.329, 9057.598
1096.811, 9056.062
1097.293, 9074.679
1097.776, 9090.519
1098.258, 9088.004
1098.740, 9076.121
1099.222, 9069.219
1099.704, 9066.790
1100.186, 9067.461
1100.668, 9077.178
1101.150, 9079.591
1101.632, 9065.921
1102.115, 9052.443
1102.597, 9070.326
1103.079, 9108.937
1103.561, 9108.441
1104.043, 9062.145
1104.525, 9019.793
1105.007, 9012.516
1105.489, 9019.100
1105.971, 9033.622
1106.454, 9051.718
1106.936, 9046.214
1107.418, 9016.101
1107.900, 8999.855
1108.382, 9021.267
1108.864, 9041.119
1109.346, 9001.917
1109.828, 8942.313
1110.311, 8917.891
1110.793, 8952.690
1111.275, 8982.945
1111.757, 9009.793
1112.239, 9029.523
1112.721, 9042.367
1113.203, 9044.924
1113.685, 9024.230
1114.167, 8985.167
1114.650, 8949.711
1115.132, 8917.301
1115.614, 8902.835
1116.096, 8913.559
1116.578, 8937.564
1117.060, 8959.144
1117.542, 8976.688
1118.024, 8978.359
1118.506, 8959.354
1118.989, 8949.405
1119.471, 8980.500
1119.953, 9014.420
1120.435, 9029.742
1120.917, 9026.560
1121.399, 8995.532
1121.881, 8936.686
1122.363, 8894.803
1122.846, 8899.845
1123.328, 8915.893
1123.810, 8915.709
1124.292, 8902.565
1124.774, 8879.291
1125.256, 8836.792
1125.738, 8811.576
1126.220, 8805.278
1126.703, 8811.936
1127.185, 8841.886
1127.667, 8872.959
1128.149, 8865.181
1128.631, 8823.399
1129.113, 8786.983
1129.595, 8761.759
1130.077, 8752.681
1130.559, 8768.293
1131.042, 8789.371
1131.524, 8776.397
1132.006, 8741.318
1132.488, 8719.314
1132.970, 8717.469
1133.452, 8723.484
1133.934, 8749.253
1134.416, 8762.643
1134.898, 8738.610
1135.381, 8686.878
1135.863, 8682.137
1136.345, 8717.989
1136.827, 8738.828
1137.309, 8700.942
1137.791, 8666.504
1138.273, 8692.420
1138.755, 8733.881
1139.238, 8728.558
1139.720, 8662.585
1140.202, 8624.550
1140.684, 8618.202
1141.166, 8616.062
1141.648, 8584.902
1142.130, 8556.499
1142.612, 8571.887
1143.094, 8620.471
1143.577, 8640.713
1144.059, 8622.671
1144.541, 8595.370
1145.023, 8560.038
1145.505, 8529.332
1145.987, 8528.553
1146.469, 8540.435
1146.951, 8536.540
1147.433, 8509.227
1147.916, 8491.642
1148.398, 8491.257
1148.880, 8495.072
1149.362, 8499.768
1149.844, 8503.349
1150.326, 8497.429
1150.808, 8485.985
1151.290, 8480.617
1151.773, 8495.069
1152.255, 8498.598
1152.737, 8475.942
1153.219, 8447.868
1153.701, 8430.365
1154.183, 8422.168
1154.665, 8412.295
1155.147, 8401.146
1155.630, 8394.940
1156.112, 8402.383
1156.594, 8410.072
1157.076, 8412.362
1157.558, 8410.314
1158.040, 8405.552
1158.522, 8398.174
1159.004, 8383.796
1159.486, 8360.950
1159.969, 8341.457
1160.451, 8335.958
1160.933, 8337.114
1161.415, 8343.165
1161.897, 8352.010
1162.379, 8348.946
1162.861, 8333.166
1163.343, 8310.593
1163.825, 8278.017
1164.308, 8251.117
1164.790, 8258.187
1165.272, 8276.584
1165.754, 8274.942
1166.236, 8240.168
1166.718, 8220.265
1167.200, 8218.035
1167.682, 8219.449
1168.165, 8220.977
1168.647, 8217.339
1169.129, 8186.919
1169.611, 8146.140
1170.093, 8135.046
1170.575, 8211.338
1171.057, 8236.368
1171.539, 8187.723
1172.021, 8124.998
1172.504, 8114.126
1172.986, 8130.352
1173.468, 8116.318
1173.950, 8074.408
1174.432, 8052.971
1174.914, 8096.305
1175.396, 8124.237
1175.878, 8116.875
1176.360, 8091.231
1176.843, 8075.531
1177.325, 8066.350
1177.807, 8054.156
1178.289, 8037.056
1178.771, 8019.179
1179.253, 7997.117
1179.735, 7981.334
1180.217, 7979.229
1180.700, 7985.440
1181.182, 7980.072
1181.664, 7965.441
1182.146, 7951.983
1182.628, 7944.864
1183.110, 7936.092
1183.592, 7916.727
1184.074, 7898.935
1184.557, 7891.637
1185.039, 7894.657
1185.521, 7904.171
1186.003, 7918.954
1186.485, 7927.120
1186.967, 7910.482
1187.449, 7897.681
1187.931, 7916.985
1188.413, 7941.670
1188.896, 7930.259
1189.378, 7880.220
1189.860, 7844.242
1190.342, 7825.605
1190.824, 7824.186
1191.306, 7853.170
1191.788, 7886.406
1192.270, 7908.927
1192.752, 7919.978
1193.235, 7918.183
1193.717, 7902.596
1194.199, 7884.512
1194.681, 7865.036
1195.163, 7850.144
1195.645, 7852.407
1196.127, 7856.996
1196.609, 7848.770
1197.092, 7827.804
1197.574, 7808.342
1198.056, 7789.214
1198.538, 7784.098
1199.020, 7804.540
1199.502, 7825.607
1199.984, 7807.045
1200.466, 7779.335
1200.948, 7787.594
1201.431, 7850.871
1201.913, 7867.250
1202.395, 7829.440
1202.877, 7788.785
1203.359, 7776.292
1203.841, 7775.308
1204.323, 7765.343
1204.805, 7752.105
1205.287, 7748.388
1205.770, 7763.288
1206.252, 7764.657
1206.734, 7747.323
1207.216, 7737.385
1207.698, 7768.119
1208.180, 7811.373
1208.662, 7834.260
1209.144, 7837.684
1209.627, 7829.149
1210.109, 7805.373
1210.591, 7781.672
1211.073, 7757.875
1211.555, 7740.603
1212.037, 7741.944
1212.519, 7751.439
1213.001, 7753.003
1213.484, 7745.976
1213.966, 7748.784
1214.448, 7767.321
1214.930, 7785.014
1215.412, 7800.866
1215.894, 7807.401
1216.376, 7784.356
1216.858, 7749.204
1217.340, 7726.125
1217.823, 7719.934
1218.305, 7727.529
1218.787, 7757.848
1219.269, 7774.769
1219.751, 7754.855
1220.233, 7724.799
1220.715, 7741.641
1221.197, 7780.208
1221.679, 7793.357
1222.162, 7751.963
1222.644, 7731.769
1223.126, 7741.745
1223.608, 7757.991
1224.090, 7769.157
1224.572, 7774.198
1225.054, 7765.054
1225.536, 7748.737
1226.019, 7741.780
1226.501, 7771.529
1226.983, 7770.101
1227.465, 7722.658
1227.947, 7678.569
1228.429, 7690.879
1228.911, 7729.419
1229.393, 7741.557
1229.875, 7731.208
1230.358, 7721.080
1230.840, 7713.496
1231.322, 7714.241
1231.804, 7727.438
1232.286, 7739.785
1232.768, 7730.354
1233.250, 7712.600
1233.732, 7710.923
1234.214, 7725.387
1234.697, 7731.306
1235.179, 7710.213
1235.661, 7715.687
1236.143, 7769.039
1236.625, 7827.993
1237.107, 7823.591
1237.589, 7789.430
1238.071, 7783.250
1238.553, 7815.069
1239.036, 7823.327
1239.518, 7791.765
1240.000, 7763.897
1240.482, 7752.161
1240.964, 7754.131
1241.446, 7774.482
1241.928, 7802.093
1242.410, 7820.475
1242.893, 7824.887
1243.375, 7824.351
1243.857, 7817.222
1244.339, 7813.089
1244.821, 7818.408
1245.303, 7826.991
1245.785, 7830.849
1246.267, 7830.172
1246.750, 7825.298
1247.232, 7817.907
1247.714, 7797.105
1248.196, 7755.963
1248.678, 7728.490
1249.160, 7749.945
1249.642, 7787.100
1250.124, 7789.153
1250.606, 7772.676
1251.089, 7773.551
1251.571, 7806.411
1252.053, 7833.766
1252.535, 7855.816
1253.017, 7867.021
1253.499, 7856.924
1253.981, 7839.059
1254.463, 7824.964
1254.945, 7815.947
1255.428, 7815.981
1255.910, 7831.320
1256.392, 7830.596
1256.874, 7809.019
1257.356, 7788.516
1257.838, 7789.923
1258.320, 7800.976
1258.802, 7810.296
1259.285, 7819.096
1259.767, 7834.803
1260.249, 7858.479
1260.731, 7883.594
1261.213, 7910.477
1261.695, 7928.495
1262.177, 7920.035
1262.659, 7904.303
1263.141, 7895.974
1263.624, 7894.995
1264.106, 7900.437
1264.588, 7913.203
1265.070, 7909.557
1265.552, 7881.201
1266.034, 7852.742
1266.516, 7838.535
1266.998, 7838.250
1267.480, 7856.835
1267.963, 7889.451
1268.445, 7917.550
1268.927, 7940.985
1269.409, 7950.250
1269.891, 7938.985
1270.373, 7927.075
1270.855, 7932.086
1271.337, 7938.542
1271.820, 7933.368
1272.302, 7919.899
1272.784, 7920.400
1273.266, 7932.951
1273.748, 7944.983
1274.230, 7951.860
1274.712, 7957.331
1275.194, 7959.453
1275.677, 7964.400
1276.159, 7977.548
1276.641, 7996.540
1277.123, 8011.914
1277.605, 8022.674
1278.087, 8024.970
1278.569, 8007.177
1279.051, 7998.588
1279.533, 8009.146
1280.016, 8027.661
1280.498, 8051.105
1280.980, 8075.768
1281.462, 8089.652
1281.944, 8092.628
1282.426, 8084.041
1282.908, 8037.276
1283.390, 8022.911
1283.872, 8060.698
1284.355, 8103.485
1284.837, 8108.770
1285.319, 8091.279
1285.801, 8079.829
1286.283, 8073.610
1286.765, 8067.704
1287.247, 8054.249
1287.729, 8054.493
1288.212, 8073.095
1288.694, 8094.054
1289.176, 8103.376
1289.658, 8105.023
1290.140, 8096.203
1290.622, 8083.396
1291.104, 8094.287
1291.586, 8140.814
1292.068, 8175.216
1292.551, 8192.575
1293.033, 8198.462
1293.515, 8192.976
1293.997, 8183.215
1294.479, 8168.825
1294.961, 8156.632
1295.443, 8172.227
1295.925, 8221.623
1296.407, 8247.089
1296.890, 8239.713
1297.372, 8224.453
1297.854, 8217.396
1298.336, 8214.086
1298.818, 8208.182
1299.300, 8203.934
1299.782, 8216.772
1300.264, 8245.494
1300.747, 8270.931
1301.229, 8289.253
1301.711, 8307.426
1302.193, 8344.155
1302.675, 8363.632
1303.157, 8340.358
1303.639, 8297.815
1304.121, 8286.050
##END=



