##NAMES=Svanbergite
##RRUFFID=R050549
##IDEAL CHEMISTRY=SrAl_3_(S^6+^O_4_)(PO_4_)(OH)_6_
##LOCALITY=Horrsjoberg, Varmland, Sweden
##OWNER=RRUFF
##SOURCE=University of Arizona Mineral Museum
##DESCRIPTION=Orange-brown crystals embedded in a matrix of pyrophyllite, quartz and kyanite
##STATUS=The identification of this mineral has been confirmed by X-ray diffraction and chemical analysis
##URL=rruff.info/R050549
##MEASURED CHEMISTRY=(Sr_0.85_Ca_0.15_)_Σ=1_Al_3.00_[(P_0.56_S_0.44_)_Σ=1_O_4_]_2_((OH)_5.88_(H_2_O)_0.12_)_Σ=6_ ; (OH) and H_2_O estimated by charge balance
92.37695, 297.6416
92.85907, 293.9116
93.34119, 294.8802
93.82330, 298.2728
94.30542, 300.4102
94.78754, 299.9801
95.26965, 297.8608
95.75177, 296.1939
96.23389, 296.5898
96.71600, 297.2946
97.19812, 296.9262
97.68024, 295.3110
98.16235, 293.0496
98.64447, 290.7770
99.12659, 288.3546
99.60870, 285.6503
100.0908, 283.2188
100.5729, 281.3391
101.0551, 280.2725
101.5372, 280.1564
102.0193, 280.7542
102.5014, 281.0244
102.9835, 281.2469
103.4656, 280.7576
103.9478, 278.8339
104.4299, 276.0660
104.9120, 273.5358
105.3941, 272.1091
105.8762, 271.8723
106.3583, 271.7386
106.8405, 271.8492
107.3226, 271.8478
107.8047, 271.4574
108.2868, 270.6754
108.7689, 269.7855
109.2510, 269.0392
109.7332, 268.4234
110.2153, 268.1331
110.6974, 268.4093
111.1795, 268.9686
111.6616, 269.3863
112.1437, 269.5411
112.6259, 269.5966
113.1080, 269.7527
113.5901, 270.0001
114.0722, 270.1998
114.5543, 270.2224
115.0364, 270.0780
115.5185, 269.9964
116.0007, 270.1431
116.4828, 270.2742
116.9649, 270.2745
117.4470, 270.1205
117.9291, 269.7955
118.4112, 269.0633
118.8934, 267.2846
119.3755, 266.7604
119.8576, 269.0233
120.3397, 271.7444
120.8218, 272.9778
121.3039, 271.9486
121.7861, 269.4421
122.2682, 267.7216
122.7503, 268.0534
123.2324, 267.8585
123.7145, 266.7137
124.1966, 264.9666
124.6788, 263.0371
125.1609, 261.0884
125.6430, 259.2104
126.1251, 258.2068
126.6072, 258.8019
127.0893, 259.3235
127.5715, 258.9745
128.0536, 257.8728
128.5357, 256.7188
129.0178, 255.9787
129.4999, 255.6383
129.9821, 255.3611
130.4642, 255.3676
130.9463, 255.3083
131.4284, 254.6962
131.9105, 253.3902
132.3926, 252.1209
132.8748, 251.5324
133.3569, 251.3730
133.8390, 251.2555
134.3211, 250.8788
134.8032, 250.3960
135.2853, 250.4097
135.7674, 251.4262
136.2496, 252.2537
136.7317, 252.3042
137.2138, 251.7161
137.6959, 250.8539
138.1780, 249.8391
138.6601, 248.6050
139.1423, 247.9425
139.6244, 248.6967
140.1065, 249.3415
140.5886, 249.1886
141.0707, 248.2843
141.5528, 247.1616
142.0350, 246.4575
142.5171, 246.3815
142.9992, 246.2058
143.4813, 245.7812
143.9634, 245.3746
144.4455, 245.0472
144.9277, 244.8522
145.4098, 244.9662
145.8919, 245.7202
146.3740, 247.6312
146.8561, 249.2590
147.3382, 250.2060
147.8204, 250.9533
148.3025, 252.2132
148.7846, 254.3212
149.2667, 256.7261
149.7488, 258.1130
150.2309, 258.0943
150.7131, 258.5799
151.1952, 260.1631
151.6773, 262.7875
152.1594, 266.2926
152.6415, 270.7907
153.1236, 276.1118
153.6058, 281.8580
154.0879, 288.1232
154.5700, 294.4484
155.0521, 300.3990
155.5342, 305.9347
156.0163, 311.5114
156.4985, 317.1641
156.9806, 322.9588
157.4627, 329.1553
157.9448, 335.9491
158.4269, 342.5606
158.9090, 347.6191
159.3912, 350.2641
159.8733, 353.4737
160.3554, 358.2563
160.8375, 363.7129
161.3196, 369.0642
161.8017, 373.9315
162.2839, 378.6246
162.7660, 383.9782
163.2481, 389.8695
163.7302, 396.7916
164.2123, 404.9279
164.6944, 414.0247
165.1766, 423.6806
165.6587, 433.7096
166.1408, 444.1674
166.6229, 455.7691
167.1050, 468.7868
167.5871, 482.6515
168.0693, 497.2614
168.5514, 512.6852
169.0335, 528.9900
169.5156, 546.0339
169.9977, 564.0944
170.4798, 584.7776
170.9620, 608.4001
171.4441, 633.6625
171.9262, 660.1346
172.4083, 687.7226
172.8904, 716.7649
173.3725, 748.1798
173.8547, 781.2640
174.3368, 811.4902
174.8189, 842.2876
175.3010, 868.1455
175.7831, 885.7747
176.2652, 895.1779
176.7474, 894.3403
177.2295, 879.3998
177.7116, 852.4514
178.1937, 818.1761
178.6758, 772.4401
179.1579, 721.6075
179.6401, 673.8748
180.1222, 629.2070
180.6043, 588.5775
181.0864, 553.0151
181.5685, 521.5507
182.0506, 493.6332
182.5328, 469.1391
183.0149, 448.0027
183.4970, 430.0409
183.9791, 416.3513
184.4612, 404.6460
184.9433, 393.8980
185.4255, 384.0825
185.9076, 375.1352
186.3897, 367.1744
186.8718, 360.1232
187.3539, 353.3028
187.8360, 346.3756
188.3182, 340.0890
188.8003, 334.6692
189.2824, 330.0453
189.7645, 326.0837
190.2466, 322.7901
190.7287, 320.1877
191.2109, 317.3737
191.6930, 314.4090
192.1751, 311.1599
192.6572, 307.2136
193.1393, 302.8880
193.6214, 298.8781
194.1036, 295.8114
194.5857, 293.7310
195.0678, 292.2613
195.5499, 291.8661
196.0320, 291.5100
196.5141, 290.5782
196.9963, 289.1613
197.4784, 287.8405
197.9605, 287.2050
198.4426, 287.3882
198.9247, 287.2292
199.4068, 286.1416
199.8890, 285.1832
200.3711, 285.2697
200.8532, 286.3958
201.3353, 287.5552
201.8174, 287.6836
202.2995, 286.7160
202.7817, 286.5161
203.2638, 287.7095
203.7459, 289.3781
204.2280, 290.5805
204.7101, 291.1961
205.1922, 291.9152
205.6744, 293.4339
206.1565, 295.6349
206.6386, 297.9919
207.1207, 300.4215
207.6028, 302.9488
208.0849, 305.6186
208.5671, 308.4647
209.0492, 311.3901
209.5313, 314.1540
210.0134, 316.9200
210.4955, 320.1270
210.9776, 324.2756
211.4598, 328.9454
211.9419, 333.2125
212.4240, 336.9262
212.9061, 340.4703
213.3882, 343.5404
213.8703, 346.6174
214.3525, 350.7334
214.8346, 357.0666
215.3167, 364.8386
215.7988, 370.8948
216.2809, 373.8339
216.7630, 377.2300
217.2451, 382.6004
217.7273, 389.3956
218.2094, 396.6910
218.6915, 403.9803
219.1736, 411.3027
219.6557, 418.8373
220.1378, 426.6883
220.6200, 434.6100
221.1021, 442.5201
221.5842, 450.4232
222.0663, 458.3872
222.5484, 466.4178
223.0305, 474.5157
223.5127, 482.6857
223.9948, 490.0411
224.4769, 498.4312
224.9590, 509.0206
225.4411, 520.8799
225.9232, 532.3817
226.4054, 542.4613
226.8875, 551.2204
227.3696, 560.6201
227.8517, 570.8925
228.3338, 581.5323
228.8159, 592.5076
229.2981, 603.7727
229.7802, 615.1116
230.2623, 626.4030
230.7444, 637.7304
231.2265, 649.7863
231.7086, 662.9506
232.1908, 676.3456
232.6729, 690.2838
233.1550, 704.3156
233.6371, 717.7565
234.1192, 730.2230
234.6013, 741.7159
235.0835, 752.0745
235.5656, 761.8060
236.0477, 770.2150
236.5298, 777.3974
237.0119, 783.0938
237.4940, 786.8682
237.9762, 788.4764
238.4583, 787.9137
238.9404, 785.1156
239.4225, 780.7983
239.9046, 774.0900
240.3867, 764.0790
240.8689, 751.4069
241.3510, 737.4843
241.8331, 722.6837
242.3152, 707.3978
242.7973, 692.7252
243.2794, 679.1481
243.7616, 665.3656
244.2437, 650.4180
244.7258, 634.8275
245.2079, 620.2115
245.6900, 607.3785
246.1721, 595.8191
246.6543, 584.2937
247.1364, 572.8004
247.6185, 561.4305
248.1006, 550.0828
248.5827, 538.8876
249.0648, 528.1467
249.5470, 517.9187
250.0291, 508.2096
250.5112, 498.9044
250.9933, 489.9245
251.4754, 481.4882
251.9576, 474.0027
252.4397, 467.2410
252.9218, 459.8115
253.4039, 450.7081
253.8860, 441.7352
254.3681, 435.0489
254.8503, 430.6193
255.3324, 426.3121
255.8145, 420.5692
256.2966, 413.7426
256.7787, 407.6565
257.2608, 402.8586
257.7430, 398.6345
258.2251, 394.3000
258.7072, 389.9073
259.1893, 385.7865
259.6714, 382.0620
260.1535, 378.7630
260.6357, 376.1049
261.1178, 374.6541
261.5999, 373.1399
262.0820, 370.3763
262.5641, 366.8105
263.0462, 363.8233
263.5284, 362.7831
264.0105, 363.2776
264.4926, 362.7542
264.9747, 360.6166
265.4568, 358.2534
265.9389, 356.0126
266.4211, 354.0706
266.9032, 352.8091
267.3853, 352.6450
267.8674, 353.3255
268.3495, 353.7857
268.8316, 354.0872
269.3138, 354.0200
269.7959, 353.1904
270.2780, 352.0647
270.7601, 351.4203
271.2422, 351.8432
271.7243, 352.8509
272.2065, 352.6888
272.6886, 350.2788
273.1707, 348.5331
273.6528, 348.4373
274.1349, 349.2488
274.6170, 350.2144
275.0992, 351.0355
275.5813, 351.6649
276.0634, 352.0429
276.5455, 352.4576
277.0276, 351.9913
277.5097, 350.3886
277.9919, 348.0659
278.4740, 345.5319
278.9561, 342.9504
279.4382, 339.8758
279.9203, 335.2525
280.4024, 328.1114
280.8846, 321.4917
281.3667, 316.2054
281.8488, 311.1593
282.3309, 305.3146
282.8130, 298.5125
283.2951, 291.7345
283.7773, 286.5289
284.2594, 283.5836
284.7415, 280.5601
285.2236, 277.0134
285.7057, 273.6647
286.1878, 270.9587
286.6700, 268.9427
287.1521, 267.3404
287.6342, 265.8026
288.1163, 264.2227
288.5984, 263.2014
289.0805, 263.1893
289.5627, 263.2845
290.0448, 263.1212
290.5269, 262.6871
291.0090, 262.1422
291.4911, 261.6240
291.9732, 261.1362
292.4554, 260.6369
292.9375, 260.6041
293.4196, 260.0861
293.9017, 258.6283
294.3838, 256.4259
294.8659, 253.8318
295.3481, 251.0051
295.8302, 248.0179
296.3123, 246.0054
296.7944, 246.0400
297.2765, 245.9479
297.7586, 245.1849
298.2408, 244.0600
298.7229, 243.0639
299.2050, 242.4697
299.6871, 242.2089
300.1692, 242.0314
300.6513, 242.1964
301.1335, 242.1217
301.6156, 241.4806
302.0977, 240.6932
302.5798, 240.2780
303.0619, 240.4330
303.5440, 240.8475
304.0262, 240.8461
304.5083, 239.9226
304.9904, 239.3397
305.4725, 239.2188
305.9546, 239.3485
306.4367, 239.7010
306.9189, 240.2085
307.4010, 240.5832
307.8831, 240.3245
308.3652, 238.8130
308.8473, 238.3466
309.3294, 239.8758
309.8116, 241.5018
310.2937, 241.9643
310.7758, 241.2835
311.2579, 240.3531
311.7400, 240.1048
312.2221, 240.7113
312.7043, 240.7297
313.1864, 239.4159
313.6685, 238.3280
314.1506, 238.2133
314.6327, 238.8524
315.1148, 239.5806
315.5970, 239.8951
316.0791, 239.8499
316.5612, 240.1874
317.0433, 241.6451
317.5254, 242.6694
318.0075, 242.5554
318.4897, 241.8769
318.9718, 241.5553
319.4539, 242.0788
319.9360, 243.1355
320.4181, 243.7249
320.9002, 243.2850
321.3824, 243.0483
321.8645, 243.0582
322.3466, 243.3033
322.8287, 243.9127
323.3108, 244.8863
323.7929, 245.8745
324.2751, 246.2137
324.7572, 245.2495
325.2393, 244.9059
325.7214, 245.6581
326.2035, 246.5871
326.6856, 247.0405
327.1678, 246.9631
327.6499, 246.7285
328.1320, 246.6778
328.6141, 246.7095
329.0962, 247.4947
329.5783, 249.5677
330.0605, 251.7757
330.5426, 253.8776
331.0247, 255.7258
331.5068, 257.0211
331.9889, 257.4321
332.4710, 257.0612
332.9532, 257.5848
333.4353, 259.9414
333.9174, 262.2327
334.3995, 264.4659
334.8816, 266.3195
335.3637, 267.1553
335.8459, 266.6054
336.3280, 265.3559
336.8101, 265.5371
337.2922, 268.7604
337.7743, 271.0421
338.2564, 271.8194
338.7386, 271.7680
339.2206, 271.1998
339.7028, 270.3057
340.1849, 269.5628
340.6670, 269.8319
341.1491, 271.8389
341.6312, 273.0295
342.1133, 272.9060
342.5955, 272.4919
343.0776, 272.1810
343.5597, 272.0856
344.0418, 272.2529
344.5239, 272.7600
345.0060, 273.6262
345.4882, 274.4946
345.9703, 275.5931
346.4524, 276.4592
346.9345, 276.7769
347.4166, 276.7865
347.8987, 276.8619
348.3809, 277.1856
348.8630, 277.8205
349.3451, 279.0897
349.8272, 281.7236
350.3093, 283.8694
350.7914, 285.0612
351.2736, 285.7157
351.7557, 286.0628
352.2378, 286.1968
352.7199, 286.4920
353.2020, 287.5954
353.6841, 289.6717
354.1663, 292.0736
354.6484, 294.9741
355.1305, 297.9850
355.6126, 300.9438
356.0947, 303.8029
356.5768, 306.5167
357.0590, 308.8037
357.5411, 310.5981
358.0232, 313.3800
358.5053, 318.4769
358.9874, 323.0872
359.4695, 325.6577
359.9517, 326.8948
360.4338, 328.2727
360.9159, 330.6238
361.3980, 333.7356
361.8801, 337.1101
362.3622, 341.0388
362.8444, 344.5316
363.3265, 347.6335
363.8086, 350.0005
364.2907, 350.9662
364.7728, 350.1638
365.2549, 348.8945
365.7371, 349.0838
366.2192, 350.9701
366.7013, 352.0925
367.1834, 351.3018
367.6655, 349.9905
368.1476, 349.4485
368.6298, 349.6406
369.1119, 349.1857
369.5940, 346.3206
370.0761, 341.7352
370.5582, 338.8251
371.0403, 338.2628
371.5225, 338.7405
372.0046, 339.6849
372.4867, 340.9193
372.9688, 342.0400
373.4509, 342.6301
373.9330, 343.1785
374.4152, 344.4177
374.8973, 346.3789
375.3794, 348.7140
375.8615, 351.1486
376.3436, 353.9320
376.8257, 357.4924
377.3079, 362.1085
377.7900, 366.9192
378.2721, 371.5612
378.7542, 375.9473
379.2363, 379.4616
379.7184, 381.3958
380.2006, 383.3304
380.6827, 387.6143
381.1648, 394.1500
381.6469, 400.4911
382.1290, 405.7741
382.6111, 410.4749
383.0933, 415.0051
383.5754, 419.3979
384.0575, 424.3214
384.5396, 430.6055
385.0217, 438.0609
385.5038, 445.0993
385.9860, 451.3118
386.4681, 457.3919
386.9502, 463.6664
387.4323, 470.1246
387.9144, 476.8274
388.3965, 483.8059
388.8787, 490.9859
389.3608, 498.1802
389.8429, 505.4701
390.3250, 512.6879
390.8071, 519.8932
391.2892, 526.9703
391.7714, 534.0889
392.2535, 541.2202
392.7356, 547.4847
393.2177, 551.7137
393.6998, 553.4539
394.1819, 555.0215
394.6641, 557.6341
395.1462, 559.0200
395.6283, 558.0780
396.1104, 554.8093
396.5925, 549.5441
397.0746, 542.4191
397.5568, 533.5658
398.0389, 523.3366
398.5210, 511.3322
399.0031, 498.4555
399.4852, 483.9548
399.9673, 468.9831
400.4495, 454.6420
400.9316, 441.3264
401.4137, 428.6291
401.8958, 415.8702
402.3779, 402.6733
402.8600, 390.5263
403.3422, 379.8285
403.8243, 369.5908
404.3064, 358.9639
404.7885, 348.2828
405.2706, 338.6503
405.7527, 331.0953
406.2349, 325.3260
406.7170, 319.3361
407.1991, 312.4254
407.6812, 306.4068
408.1633, 302.2853
408.6454, 298.9373
409.1276, 295.0420
409.6097, 290.1229
410.0918, 284.9056
410.5739, 280.4441
411.0560, 276.8710
411.5381, 273.4356
412.0203, 269.9167
412.5024, 266.6417
412.9845, 263.9399
413.4666, 261.7307
413.9487, 259.5588
414.4308, 256.9929
414.9130, 254.2063
415.3951, 251.9389
415.8772, 250.4264
416.3593, 248.8535
416.8414, 246.4394
417.3235, 243.7801
417.8057, 241.7741
418.2878, 240.8940
418.7699, 240.1970
419.2520, 238.5868
419.7341, 236.1863
420.2162, 234.1842
420.6984, 232.9686
421.1805, 232.2854
421.6626, 231.9492
422.1447, 231.9657
422.6268, 231.7408
423.1089, 230.8358
423.5911, 229.6654
424.0732, 228.7867
424.5553, 228.2634
425.0374, 227.9054
425.5195, 227.6855
426.0016, 227.5207
426.4838, 226.9533
426.9659, 225.5817
427.4480, 224.2457
427.9301, 223.3039
428.4122, 222.6785
428.8943, 222.2739
429.3765, 222.0782
429.8586, 221.9014
430.3407, 221.3891
430.8228, 220.2734
431.3049, 219.4099
431.7870, 218.7820
432.2692, 218.4309
432.7513, 218.5583
433.2334, 219.0534
433.7155, 219.5005
434.1976, 219.5820
434.6797, 219.3044
435.1619, 218.7427
435.6440, 216.9913
436.1261, 216.0116
436.6082, 216.7050
437.0903, 218.0955
437.5724, 218.9909
438.0546, 218.9878
438.5367, 218.6808
439.0188, 219.0557
439.5009, 220.3897
439.9830, 221.5056
440.4651, 222.5172
440.9473, 223.1793
441.4294, 222.9892
441.9115, 222.3023
442.3936, 222.0970
442.8757, 223.2253
443.3578, 225.1865
443.8400, 226.0599
444.3221, 225.1485
444.8042, 224.9141
445.2863, 227.0654
445.7684, 229.8617
446.2505, 231.5859
446.7327, 231.8324
447.2148, 231.9315
447.6969, 232.9398
448.1790, 234.7775
448.6611, 237.2397
449.1432, 240.8205
449.6254, 243.9690
450.1075, 244.6463
450.5896, 243.6787
451.0717, 243.6479
451.5538, 245.9595
452.0359, 248.9799
452.5181, 251.1171
453.0002, 252.4860
453.4823, 253.8457
453.9644, 255.3949
454.4465, 257.3118
454.9286, 260.1939
455.4108, 264.4072
455.8929, 268.2379
456.3750, 270.7147
456.8571, 272.9247
457.3392, 276.1443
457.8214, 280.5096
458.3035, 285.2719
458.7856, 289.7894
459.2677, 294.0649
459.7498, 298.6618
460.2319, 303.5766
460.7141, 308.7619
461.1962, 314.2367
461.6783, 319.9718
462.1604, 325.9330
462.6425, 332.1045
463.1246, 338.3907
463.6068, 344.6694
464.0889, 350.9879
464.5710, 357.0703
465.0531, 362.4816
465.5352, 368.0591
466.0173, 374.2585
466.4995, 380.9891
466.9816, 387.9550
467.4637, 395.0456
467.9458, 402.1562
468.4279, 408.9833
468.9100, 415.5238
469.3922, 421.8510
469.8743, 427.8942
470.3564, 433.8333
470.8385, 439.7527
471.3206, 445.6700
471.8027, 451.6442
472.2849, 457.2913
472.7670, 462.9789
473.2491, 470.5429
473.7312, 481.0726
474.2133, 490.7734
474.6954, 495.7292
475.1776, 497.8534
475.6597, 501.5211
476.1418, 508.5473
476.6239, 515.8649
477.1060, 521.4832
477.5881, 525.6609
478.0703, 529.2308
478.5524, 532.3932
479.0345, 535.2303
479.5166, 538.1902
479.9987, 541.8787
480.4808, 542.4797
480.9630, 538.3910
481.4451, 532.3130
481.9272, 525.5812
482.4093, 518.4498
482.8914, 511.2612
483.3735, 504.2964
483.8557, 497.0746
484.3378, 487.7910
484.8199, 474.6502
485.3020, 461.9128
485.7841, 450.1743
486.2662, 438.5317
486.7484, 426.1796
487.2305, 413.0736
487.7126, 399.8290
488.1947, 386.6707
488.6768, 373.6686
489.1589, 361.9850
489.6411, 352.2106
490.1232, 342.8327
490.6053, 333.2944
491.0874, 323.8388
491.5695, 314.6635
492.0516, 305.8047
492.5338, 297.5930
493.0159, 290.6835
493.4980, 284.9132
493.9801, 278.9787
494.4622, 272.4457
494.9443, 266.2114
495.4265, 261.2282
495.9086, 257.1496
496.3907, 253.1634
496.8728, 248.9160
497.3549, 244.8206
497.8370, 241.2226
498.3192, 238.0822
498.8013, 235.2401
499.2834, 232.6320
499.7655, 230.3398
500.2476, 228.5191
500.7297, 227.2709
501.2119, 226.1436
501.6940, 225.0144
502.1761, 224.0764
502.6582, 223.4458
503.1403, 223.1246
503.6224, 223.0124
504.1045, 223.0154
504.5866, 223.2866
505.0688, 224.3975
505.5509, 226.8924
506.0330, 229.4290
506.5151, 232.0306
506.9972, 234.5747
507.4793, 236.8240
507.9615, 238.8717
508.4436, 241.2022
508.9257, 244.4412
509.4078, 248.3327
509.8899, 251.0345
510.3720, 251.8719
510.8542, 253.0063
511.3363, 255.6725
511.8184, 258.8091
512.3005, 261.0992
512.7827, 262.1819
513.2648, 263.9095
513.7469, 268.2922
514.2290, 274.4098
514.7111, 279.2484
515.1932, 282.0300
515.6754, 285.5399
516.1575, 292.3069
516.6396, 301.7086
517.1217, 310.3423
517.6038, 316.8349
518.0859, 323.9837
518.5681, 333.4083
519.0502, 344.2362
519.5323, 355.0123
520.0144, 365.3702
520.4965, 375.7187
520.9786, 386.7268
521.4608, 398.7681
521.9429, 409.1960
522.4250, 420.1864
522.9071, 427.6332
523.3892, 430.0731
523.8713, 428.0009
524.3535, 422.1344
524.8356, 412.8264
525.3177, 400.1642
525.7998, 383.8613
526.2819, 363.1993
526.7640, 342.5639
527.2462, 321.3019
527.7283, 301.2682
528.2104, 283.1439
528.6925, 266.9219
529.1746, 252.4140
529.6567, 239.5865
530.1389, 228.3717
530.6210, 218.8615
531.1031, 211.0349
531.5852, 204.6819
532.0673, 200.1877
532.5494, 196.4779
533.0316, 191.9825
533.5137, 186.7837
533.9958, 182.6038
534.4779, 180.1593
534.9600, 178.5598
535.4421, 177.3302
535.9243, 176.3535
536.4064, 175.3634
536.8885, 174.2334
537.3706, 173.0502
537.8527, 172.0186
538.3348, 171.2691
538.8170, 170.3911
539.2991, 169.1462
539.7812, 168.0002
540.2633, 167.0998
540.7454, 166.5245
541.2275, 166.4408
541.7097, 167.0184
542.1918, 167.9299
542.6739, 168.3092
543.1560, 168.0387
543.6381, 167.6106
544.1202, 166.8579
544.6024, 166.1891
545.0845, 165.8487
545.5666, 165.8313
546.0487, 166.0325
546.5308, 166.7105
547.0129, 167.4126
547.4951, 167.2163
547.9772, 166.1516
548.4593, 165.3949
548.9414, 165.4900
549.4235, 166.0904
549.9056, 166.5900
550.3878, 166.9407
550.8699, 167.4538
551.3520, 168.3937
551.8341, 169.3561
552.3162, 169.8017
552.7983, 169.9191
553.2805, 170.5552
553.7626, 172.2833
554.2447, 174.5476
554.7268, 175.6876
555.2089, 174.7675
555.6910, 174.3664
556.1732, 174.8451
556.6553, 175.5421
557.1374, 176.1867
557.6195, 176.6957
558.1016, 176.9277
558.5837, 176.6322
559.0659, 176.2388
559.5480, 176.8660
560.0301, 178.6712
560.5122, 180.5852
560.9943, 182.6752
561.4764, 184.3835
561.9586, 184.9027
562.4407, 184.3390
562.9228, 184.3108
563.4049, 185.9563
563.8870, 188.0538
564.3691, 189.1418
564.8513, 189.4026
565.3334, 190.0567
565.8155, 191.7316
566.2976, 193.8582
566.7797, 195.3336
567.2618, 195.6531
567.7440, 196.4891
568.2261, 198.0257
568.7082, 199.8958
569.1903, 202.1590
569.6724, 204.5652
570.1545, 206.7011
570.6367, 208.3395
571.1188, 209.5361
571.6009, 210.2271
572.0830, 210.1142
572.5651, 210.6661
573.0472, 212.3799
573.5294, 214.4876
574.0115, 216.7690
574.4936, 219.1141
574.9757, 221.1913
575.4578, 222.4246
575.9399, 223.9359
576.4221, 227.6218
576.9042, 232.9849
577.3863, 237.1179
577.8684, 238.9994
578.3505, 239.9417
578.8326, 241.2465
579.3148, 242.9324
579.7969, 245.2170
580.2790, 248.6098
580.7611, 252.0756
581.2432, 255.0688
581.7253, 257.8124
582.2075, 260.8132
582.6896, 264.2078
583.1717, 267.6742
583.6538, 270.7200
584.1359, 273.2704
584.6180, 275.9323
585.1002, 278.9852
585.5823, 281.8411
586.0643, 284.1299
586.5464, 286.1965
587.0286, 288.5207
587.5107, 291.2632
587.9928, 294.0769
588.4749, 296.8101
588.9570, 299.3642
589.4391, 301.1956
589.9213, 302.0853
590.4034, 303.0859
590.8855, 305.2121
591.3676, 307.9751
591.8497, 309.5505
592.3318, 309.1812
592.8140, 308.9593
593.2961, 309.7862
593.7782, 310.9597
594.2603, 311.7940
594.7424, 312.1572
595.2245, 312.0240
595.7067, 311.2471
596.1888, 310.0821
596.6709, 310.0548
597.1530, 312.0266
597.6351, 313.6670
598.1172, 314.3007
598.5994, 314.8257
599.0815, 315.8754
599.5636, 317.4585
600.0457, 319.2410
600.5278, 321.0153
601.0099, 322.8381
601.4921, 324.8121
601.9742, 326.9355
602.4563, 329.2374
602.9384, 331.6452
603.4205, 334.3535
603.9026, 337.8293
604.3848, 342.1194
604.8669, 345.9954
605.3490, 348.5695
605.8311, 351.3893
606.3132, 355.6909
606.7953, 361.0001
607.2775, 366.1002
607.7596, 370.5067
608.2417, 375.0222
608.7238, 380.9521
609.2059, 388.7029
609.6880, 395.8340
610.1702, 401.5092
610.6523, 407.5158
611.1344, 414.6957
611.6165, 422.4290
612.0986, 429.9208
612.5807, 436.9830
613.0629, 443.4553
613.5450, 448.7621
614.0271, 453.3054
614.5092, 458.7697
614.9913, 465.5424
615.4734, 471.6653
615.9556, 476.0981
616.4377, 478.8776
616.9198, 480.2724
617.4019, 480.0959
617.8840, 479.1096
618.3661, 477.3349
618.8483, 474.9072
619.3304, 471.6482
619.8125, 467.8018
620.2946, 464.0467
620.7767, 460.8019
621.2589, 458.0668
621.7410, 455.9701
622.2231, 454.7759
622.7052, 453.4407
623.1873, 451.7789
623.6694, 449.9770
624.1516, 448.1578
624.6337, 446.2966
625.1158, 444.2450
625.5979, 441.5397
626.0800, 439.2221
626.5621, 438.7243
627.0443, 439.5597
627.5264, 440.1928
628.0085, 440.3044
628.4906, 439.7318
628.9727, 438.2444
629.4548, 435.8427
629.9370, 433.1444
630.4191, 429.5641
630.9012, 426.4796
631.3833, 425.5695
631.8654, 424.4645
632.3475, 420.2611
632.8297, 412.8781
633.3118, 404.8577
633.7939, 398.4192
634.2760, 393.1304
634.7581, 387.3339
635.2402, 380.8704
635.7224, 374.5276
636.2045, 368.7151
636.6866, 363.0164
637.1687, 357.0750
637.6508, 350.9138
638.1329, 344.5861
638.6151, 337.4727
639.0972, 330.7381
639.5793, 325.2968
640.0614, 321.0536
640.5435, 317.9800
641.0256, 316.0919
641.5078, 314.2438
641.9899, 310.7762
642.4720, 305.3668
642.9541, 300.9826
643.4362, 297.9375
643.9183, 295.6320
644.4005, 294.2156
644.8826, 293.3433
645.3647, 292.6472
645.8468, 292.0570
646.3289, 291.7623
646.8110, 291.9322
647.2932, 292.5135
647.7753, 293.4449
648.2574, 294.7315
648.7395, 296.0871
649.2216, 297.3704
649.7037, 298.6830
650.1859, 300.4728
650.6680, 303.2657
651.1501, 304.2020
651.6322, 302.0999
652.1143, 299.0285
652.5964, 296.0953
653.0786, 293.0942
653.5607, 289.4699
654.0428, 285.0253
654.5249, 279.9958
655.0070, 274.6663
655.4891, 269.0303
655.9713, 263.2103
656.4534, 256.9784
656.9355, 251.0166
657.4176, 245.7094
657.8997, 240.8582
658.3818, 236.3075
658.8640, 232.0905
659.3461, 227.8181
659.8282, 222.9087
660.3103, 218.1255
660.7924, 214.4729
661.2745, 211.7948
661.7567, 209.1408
662.2388, 206.0442
662.7209, 202.7345
663.2030, 199.6500
663.6851, 196.8790
664.1672, 194.0086
664.6494, 190.6673
665.1315, 187.6128
665.6136, 185.4360
666.0957, 183.5707
666.5778, 181.1010
667.0599, 177.7358
667.5421, 174.4404
668.0242, 172.3018
668.5063, 170.8083
668.9884, 168.6694
669.4705, 165.8000
669.9526, 162.5529
670.4348, 158.8988
670.9169, 155.3264
671.3990, 153.0481
671.8811, 152.9414
672.3632, 151.9459
672.8453, 149.0242
673.3275, 146.1828
673.8096, 144.5042
674.2917, 143.6974
674.7738, 143.1778
675.2559, 142.7204
675.7380, 142.2664
676.2202, 141.8219
676.7023, 141.3558
677.1844, 140.4182
677.6665, 138.7433
678.1486, 137.4535
678.6307, 137.3174
679.1129, 137.8188
679.5950, 137.9933
680.0771, 137.8233
680.5592, 137.4366
681.0413, 136.6421
681.5234, 135.8355
682.0056, 135.3108
682.4877, 135.0266
682.9698, 134.8122
683.4519, 134.5973
683.9340, 134.4954
684.4161, 134.7289
684.8983, 135.3370
685.3804, 135.8267
685.8625, 136.3008
686.3446, 136.4690
686.8267, 135.8700
687.3088, 135.0708
687.7910, 134.7577
688.2731, 135.0432
688.7552, 135.3133
689.2373, 135.4147
689.7194, 135.2847
690.2015, 134.6883
690.6837, 133.7832
691.1658, 132.9619
691.6479, 132.3728
692.1300, 132.3357
692.6121, 133.5097
693.0942, 136.1992
693.5764, 137.8666
694.0585, 137.9303
694.5406, 137.7034
695.0227, 137.5366
695.5048, 137.2942
695.9869, 136.6350
696.4691, 135.5564
696.9512, 134.9250
697.4333, 135.8634
697.9154, 137.1576
698.3975, 136.9580
698.8796, 135.5280
699.3618, 134.3650
699.8439, 134.0262
700.3260, 134.0741
700.8081, 133.9341
701.2902, 133.5622
701.7723, 133.4230
702.2545, 133.5726
702.7366, 133.8977
703.2187, 134.7679
703.7008, 135.5549
704.1829, 135.4530
704.6650, 134.5127
705.1472, 133.7528
705.6293, 134.0734
706.1114, 134.8106
706.5935, 134.9002
707.0756, 134.4191
707.5577, 133.8512
708.0399, 133.3266
708.5220, 132.7946
709.0041, 132.1722
709.4862, 131.4585
709.9683, 130.9417
710.4504, 130.5233
710.9326, 130.4147
711.4147, 131.1003
711.8968, 131.7834
712.3789, 131.6701
712.8610, 130.8433
713.3431, 129.9735
713.8253, 129.3987
714.3074, 129.1118
714.7895, 129.3172
715.2716, 129.8955
715.7537, 129.8185
716.2358, 128.7133
716.7180, 127.7850
717.2001, 128.2743
717.6822, 129.8446
718.1643, 130.2213
718.6464, 128.0690
719.1285, 126.6951
719.6107, 127.1792
720.0928, 127.8962
720.5749, 127.5788
721.0570, 126.4706
721.5391, 125.5473
722.0212, 125.3155
722.5034, 125.2972
722.9855, 124.7567
723.4676, 123.8162
723.9497, 123.2525
724.4318, 123.1825
724.9139, 123.2880
725.3961, 123.4243
725.8782, 123.5654
726.3603, 123.6449
726.8424, 123.7205
727.3245, 123.6052
727.8066, 122.9881
728.2888, 122.4757
728.7709, 122.7169
729.2530, 123.2193
729.7351, 122.9138
730.2172, 121.4645
730.6993, 120.0748
731.1815, 120.3474
731.6636, 121.7636
732.1457, 122.2990
732.6278, 121.8415
733.1099, 121.2729
733.5920, 120.8728
734.0742, 120.7033
734.5563, 120.9540
735.0384, 121.8009
735.5205, 122.1337
736.0026, 121.8567
736.4847, 121.1869
736.9669, 119.5857
737.4490, 117.9790
737.9311, 117.5404
738.4132, 118.3615
738.8953, 119.4374
739.3774, 120.0796
739.8596, 120.4066
740.3417, 120.6946
740.8238, 120.9309
741.3059, 120.8392
741.7880, 120.2671
742.2701, 119.6378
742.7523, 119.3487
743.2344, 119.3811
743.7165, 119.4667
744.1986, 119.9257
744.6807, 119.9920
745.1628, 119.2449
745.6450, 118.3408
746.1271, 117.6073
746.6092, 117.1698
747.0913, 117.2631
747.5734, 118.1319
748.0555, 119.0509
748.5377, 118.9419
749.0198, 118.1075
749.5019, 117.7245
749.9840, 117.9469
750.4661, 118.2432
750.9482, 118.2878
751.4304, 118.2079
751.9125, 118.3484
752.3946, 119.0184
752.8767, 119.1619
753.3588, 118.4174
753.8409, 117.5898
754.3231, 116.6684
754.8052, 116.0192
755.2873, 116.3351
755.7694, 117.7322
756.2515, 118.9829
756.7336, 118.9494
757.2158, 118.2865
757.6979, 118.1528
758.1800, 118.4571
758.6621, 118.4485
759.1442, 117.8313
759.6263, 117.1744
760.1085, 117.1993
760.5906, 117.9091
761.0727, 118.2330
761.5548, 117.7704
762.0369, 117.5181
762.5190, 117.8670
763.0012, 118.2683
763.4833, 118.2958
763.9654, 118.0013
764.4475, 117.7092
764.9296, 117.5866
765.4117, 117.4353
765.8939, 116.9551
766.3760, 116.3763
766.8581, 116.1218
767.3402, 116.2400
767.8223, 116.6182
768.3044, 117.2222
768.7866, 117.8827
769.2687, 118.1813
769.7508, 118.0994
770.2329, 117.6809
770.7150, 116.4297
771.1971, 115.5359
771.6793, 115.8029
772.1614, 116.6051
772.6435, 117.1778
773.1256, 117.4438
773.6077, 117.4136
774.0898, 116.9788
774.5720, 116.3477
775.0541, 115.3870
775.5362, 114.4341
776.0183, 114.2665
776.5004, 115.0432
776.9825, 115.9677
777.4647, 116.1637
777.9468, 116.8593
778.4289, 116.2441
778.9110, 117.5721
779.3931, 118.4265
779.8752, 118.4320
780.3574, 117.9320
780.8395, 117.1039
781.3216, 115.9964
781.8037, 114.8923
782.2858, 113.3553
782.7679, 112.4683
783.2501, 112.9290
783.7322, 113.7818
784.2143, 114.3175
784.6964, 114.5420
785.1785, 114.6784
785.6606, 114.8169
786.1428, 115.0794
786.6249, 115.8524
787.1070, 116.9008
787.5891, 117.1090
788.0712, 116.3824
788.5533, 115.6698
789.0355, 115.3430
789.5176, 115.3825
789.9997, 115.8746
790.4818, 117.0118
790.9639, 117.3888
791.4460, 116.4012
791.9282, 115.4580
792.4103, 114.9004
792.8924, 114.5023
793.3745, 113.8640
793.8566, 113.1084
794.3387, 112.9613
794.8209, 114.0921
795.3030, 115.4902
795.7851, 116.1036
796.2672, 116.2629
796.7493, 116.8220
797.2314, 117.8327
797.7136, 118.4900
798.1957, 118.2574
798.6778, 117.3930
799.1599, 116.4699
799.6420, 115.4200
800.1241, 114.5682
800.6063, 113.8092
801.0884, 113.4175
801.5705, 113.6718
802.0526, 114.2950
802.5347, 115.0629
803.0168, 115.9917
803.4990, 116.6610
803.9811, 116.7249
804.4632, 116.7295
804.9453, 117.1656
805.4274, 117.6968
805.9095, 117.6853
806.3917, 117.1134
806.8738, 116.6670
807.3559, 116.9520
807.8380, 116.7218
808.3201, 116.7607
808.8022, 117.1558
809.2844, 117.1096
809.7665, 117.7731
810.2486, 118.4849
810.7307, 118.8339
811.2128, 118.8568
811.6949, 118.6202
812.1771, 117.7004
812.6592, 117.4044
813.1413, 118.4989
813.6234, 119.3567
814.1055, 118.9127
814.5876, 117.9726
815.0698, 117.6743
815.5519, 118.2242
816.0340, 118.9471
816.5161, 119.5597
816.9982, 120.0192
817.4803, 120.2835
817.9625, 120.3486
818.4446, 120.0368
818.9267, 119.3656
819.4088, 119.0319
819.8909, 119.6963
820.3730, 121.0259
820.8552, 121.8637
821.3373, 122.1794
821.8194, 122.1048
822.3015, 121.4096
822.7836, 120.7300
823.2657, 120.5491
823.7479, 120.6124
824.2300, 120.3213
824.7121, 119.4111
825.1942, 119.1310
825.6763, 120.4823
826.1584, 121.7361
826.6406, 121.8346
827.1227, 121.2315
827.6048, 120.4784
828.0869, 119.7939
828.5690, 119.4641
829.0511, 119.8449
829.5333, 120.5660
830.0154, 121.0235
830.4975, 121.2486
830.9796, 121.3782
831.4617, 121.4362
831.9438, 121.4795
832.4260, 121.5747
832.9081, 121.6412
833.3902, 121.3887
833.8723, 120.5298
834.3544, 120.1043
834.8365, 120.3479
835.3187, 120.7400
835.8008, 121.3097
836.2829, 121.7793
836.7650, 121.8196
837.2471, 121.3959
837.7292, 120.6464
838.2114, 119.0227
838.6935, 117.7191
839.1756, 117.5006
839.6577, 118.0644
840.1398, 119.3457
840.6219, 121.0402
841.1041, 122.0981
841.5862, 121.7153
842.0683, 120.6872
842.5504, 120.4129
843.0325, 120.7807
843.5146, 121.1355
843.9968, 121.4377
844.4789, 121.3096
844.9610, 120.4773
845.4431, 119.2449
845.9252, 118.1153
846.4073, 117.0260
846.8895, 116.3582
847.3716, 116.4871
847.8537, 116.5420
848.3358, 115.8282
848.8179, 115.3446
849.3000, 116.3663
849.7822, 118.5625
850.2643, 120.0011
850.7464, 119.6407
851.2285, 119.0967
851.7106, 119.4419
852.1927, 120.0044
852.6749, 120.0330
853.1570, 119.5360
853.6391, 118.7805
854.1212, 117.8934
854.6033, 117.0238
855.0854, 116.4209
855.5676, 116.0137
856.0497, 115.3477
856.5318, 114.3987
857.0139, 113.9330
857.4960, 114.2519
857.9781, 114.9590
858.4603, 115.7482
858.9424, 116.5677
859.4245, 116.8068
859.9066, 115.8752
860.3887, 115.3777
860.8708, 115.8055
861.3530, 116.3018
861.8351, 116.5505
862.3172, 116.5176
862.7993, 116.0320
863.2814, 114.9176
863.7635, 114.2821
864.2457, 115.2484
864.7278, 116.2439
865.2099, 115.5994
865.6920, 114.2500
866.1741, 113.9940
866.6563, 115.0962
867.1384, 116.3921
867.6205, 117.0614
868.1026, 117.2322
868.5847, 116.9567
869.0668, 116.3388
869.5490, 116.0587
870.0311, 116.2171
870.5132, 116.6100
870.9953, 117.2027
871.4774, 117.7440
871.9595, 117.6262
872.4417, 116.5669
872.9238, 116.4359
873.4059, 118.1299
873.8880, 119.3288
874.3701, 118.8645
874.8522, 117.9909
875.3344, 117.7249
875.8165, 118.0040
876.2986, 118.2765
876.7807, 118.1936
877.2628, 118.4496
877.7449, 119.7880
878.2271, 121.1479
878.7092, 121.4278
879.1913, 120.9823
879.6734, 120.7490
880.1555, 121.0591
880.6376, 121.5993
881.1198, 122.1155
881.6019, 122.6453
882.0840, 123.2667
882.5661, 123.9669
883.0482, 124.7117
883.5303, 125.4889
884.0125, 126.1856
884.4946, 126.6668
884.9767, 127.0772
885.4588, 127.9746
885.9409, 129.5060
886.4230, 130.6591
886.9052, 131.1318
887.3873, 131.7777
887.8694, 133.2556
888.3515, 134.9837
888.8336, 135.9817
889.3157, 136.1505
889.7979, 136.3399
890.2800, 136.2461
890.7621, 136.6001
891.2442, 138.1552
891.7263, 139.7852
892.2084, 140.5152
892.6906, 140.4559
893.1727, 140.1734
893.6548, 139.7903
894.1369, 139.5060
894.6190, 139.5600
895.1011, 139.7090
895.5833, 139.5282
896.0654, 139.2145
896.5475, 139.4544
897.0296, 140.3810
897.5117, 141.1382
897.9938, 140.7770
898.4760, 139.8244
898.9581, 139.9403
899.4402, 140.9746
899.9223, 140.8764
900.4044, 139.1829
900.8865, 137.5870
901.3687, 137.1654
901.8508, 137.5118
902.3329, 137.8158
902.8150, 138.1599
903.2971, 138.0272
903.7792, 137.1175
904.2614, 136.2465
904.7435, 135.6263
905.2256, 135.1680
905.7077, 134.9481
906.1898, 134.8690
906.6719, 134.3898
907.1541, 133.1024
907.6362, 131.9629
908.1183, 131.2582
908.6004, 130.7374
909.0825, 130.2097
909.5646, 129.7478
910.0468, 129.6030
910.5289, 129.8085
911.0110, 129.8130
911.4931, 129.1208
911.9752, 128.1481
912.4573, 127.2270
912.9395, 126.3996
913.4216, 125.7356
913.9037, 125.2464
914.3858, 124.9998
914.8679, 125.0820
915.3500, 125.0280
915.8321, 123.8225
916.3142, 121.6695
916.7963, 120.0749
917.2784, 119.0849
917.7606, 118.8093
918.2427, 119.4583
918.7248, 120.1395
919.2069, 119.8725
919.6890, 118.7832
920.1711, 117.7754
920.6533, 116.5919
921.1354, 116.1432
921.6175, 117.0980
922.0996, 118.0100
922.5817, 118.0745
923.0638, 117.6563
923.5460, 117.2623
924.0281, 116.9163
924.5102, 116.5061
924.9923, 115.7220
925.4744, 115.2396
925.9565, 115.5833
926.4387, 116.1087
926.9208, 116.0890
927.4029, 115.7187
927.8850, 115.7471
928.3671, 116.4911
928.8492, 117.4037
929.3314, 118.2526
929.8135, 118.9595
930.2956, 119.5778
930.7777, 119.9525
931.2598, 119.4048
931.7419, 118.0093
932.2241, 117.3407
932.7062, 118.8376
933.1883, 121.2741
933.6704, 122.4814
934.1525, 122.6514
934.6346, 122.4222
935.1168, 121.9021
935.5989, 121.9844
936.0810, 123.1517
936.5631, 124.5659
937.0452, 124.9835
937.5273, 124.5070
938.0095, 124.8592
938.4916, 126.2001
938.9737, 127.7718
939.4558, 129.6518
939.9379, 131.3308
940.4200, 132.5319
940.9022, 133.2452
941.3843, 133.3215
941.8664, 132.1750
942.3485, 132.2000
942.8306, 134.2588
943.3127, 136.3279
943.7949, 137.7185
944.2770, 139.0200
944.7591, 140.9468
945.2412, 143.2876
945.7233, 145.0274
946.2054, 145.5143
946.6876, 146.3280
947.1697, 148.3303
947.6518, 150.5834
948.1339, 152.4520
948.6160, 154.0525
949.0981, 155.5687
949.5803, 157.0817
950.0624, 158.7907
950.5445, 160.8172
951.0266, 163.0995
951.5087, 165.9181
951.9908, 168.8100
952.4730, 170.7011
952.9551, 171.8738
953.4372, 173.9116
953.9193, 177.4256
954.4014, 180.8470
954.8835, 181.9438
955.3657, 181.7882
955.8478, 183.7099
956.3299, 187.4053
956.8120, 190.6839
957.2941, 193.1123
957.7762, 195.3885
958.2584, 198.0011
958.7405, 200.6429
959.2226, 202.6642
959.7047, 204.0298
960.1868, 205.3450
960.6689, 206.5493
961.1511, 207.9265
961.6332, 209.4294
962.1153, 211.4274
962.5974, 214.3605
963.0795, 218.0336
963.5616, 221.5972
964.0438, 225.1064
964.5259, 228.4267
965.0080, 231.6185
965.4901, 234.5421
965.9722, 236.7727
966.4543, 238.9859
966.9365, 241.8182
967.4186, 245.2746
967.9007, 249.1197
968.3828, 253.1558
968.8649, 257.8400
969.3470, 264.0349
969.8292, 270.0980
970.3113, 274.5403
970.7934, 278.3080
971.2755, 282.9384
971.7576, 288.6634
972.2397, 294.6383
972.7219, 300.4943
973.2040, 306.3952
973.6861, 312.4357
974.1682, 318.6190
974.6503, 325.2429
975.1324, 331.9853
975.6146, 338.0515
976.0967, 343.1846
976.5788, 347.7760
977.0609, 351.7081
977.5430, 355.6457
978.0251, 361.1595
978.5073, 367.2704
978.9894, 371.6060
979.4715, 374.0285
979.9536, 376.1120
980.4357, 378.7365
980.9178, 381.2747
981.4000, 382.6211
981.8821, 384.4551
982.3642, 385.7947
982.8463, 386.4239
983.3284, 387.4615
983.8105, 387.1797
984.2927, 386.6577
984.7748, 386.7051
985.2569, 387.0250
985.7390, 386.7050
986.2211, 385.6502
986.7032, 386.2578
987.1854, 388.9767
987.6675, 390.8728
988.1496, 390.7697
988.6317, 390.3473
989.1138, 391.1277
989.5959, 392.9235
990.0781, 394.9273
990.5602, 397.0617
991.0423, 399.6517
991.5244, 402.8761
992.0065, 406.2129
992.4886, 409.4986
992.9708, 412.7937
993.4529, 416.1807
993.9350, 419.6361
994.4171, 422.9864
994.8992, 426.4320
995.3813, 429.4442
995.8635, 431.3241
996.3456, 433.5394
996.8277, 437.3963
997.3098, 441.5319
997.7919, 444.1020
998.2740, 445.1055
998.7562, 446.3587
999.2383, 448.1393
999.7204, 450.3092
1000.203, 453.5052
1000.685, 456.4208
1001.167, 457.5463
1001.649, 458.0547
1002.131, 459.8954
1002.613, 463.3656
1003.095, 467.1269
1003.577, 470.3221
1004.059, 473.9919
1004.542, 478.5593
1005.024, 483.9864
1005.506, 489.5788
1005.988, 496.1630
1006.470, 505.8847
1006.952, 519.1825
1007.434, 533.3907
1007.916, 546.2348
1008.398, 559.5817
1008.881, 574.6996
1009.363, 591.6609
1009.845, 610.7475
1010.327, 631.7931
1010.809, 654.6523
1011.291, 679.1529
1011.773, 705.2029
1012.255, 732.0742
1012.738, 760.9069
1013.220, 792.9284
1013.702, 828.7316
1014.184, 870.1597
1014.666, 917.0400
1015.148, 967.8140
1015.630, 1021.567
1016.112, 1078.854
1016.594, 1141.314
1017.077, 1207.228
1017.559, 1272.786
1018.041, 1337.967
1018.523, 1405.090
1019.005, 1473.597
1019.487, 1536.299
1019.969, 1589.624
1020.451, 1632.675
1020.934, 1665.605
1021.416, 1687.493
1021.898, 1693.383
1022.380, 1683.326
1022.862, 1659.816
1023.344, 1623.208
1023.826, 1573.276
1024.308, 1508.804
1024.791, 1434.069
1025.273, 1355.646
1025.755, 1273.395
1026.237, 1191.669
1026.719, 1109.992
1027.201, 1032.663
1027.683, 960.8392
1028.165, 892.0399
1028.647, 824.0272
1029.130, 759.1119
1029.612, 703.4138
1030.094, 657.2167
1030.576, 613.9966
1031.058, 573.3094
1031.540, 536.8275
1032.022, 505.1476
1032.504, 477.2293
1032.986, 452.5347
1033.469, 430.7037
1033.951, 410.6647
1034.433, 392.3933
1034.915, 376.4896
1035.397, 363.7780
1035.879, 351.4807
1036.361, 338.2604
1036.843, 326.3518
1037.326, 317.9806
1037.808, 311.7328
1038.290, 304.2262
1038.772, 294.7921
1039.254, 286.9654
1039.736, 280.9857
1040.218, 276.3122
1040.700, 274.3327
1041.182, 272.0727
1041.665, 266.8584
1042.147, 260.0486
1042.629, 254.8981
1043.111, 251.7522
1043.593, 248.6686
1044.075, 245.6897
1044.557, 242.6695
1045.039, 239.4882
1045.521, 236.3481
1046.004, 233.5948
1046.486, 230.9284
1046.968, 227.4619
1047.450, 222.8036
1047.932, 219.3774
1048.414, 218.3661
1048.896, 217.3304
1049.378, 215.7621
1049.861, 213.8293
1050.343, 211.3426
1050.825, 208.6856
1051.307, 206.7970
1051.789, 205.9720
1052.271, 204.2136
1052.753, 199.9846
1053.235, 196.3349
1053.718, 194.4940
1054.200, 193.3435
1054.682, 192.2418
1055.164, 191.1322
1055.646, 190.0538
1056.128, 189.0206
1056.610, 187.8584
1057.092, 186.3493
1057.574, 184.9356
1058.057, 183.4162
1058.539, 182.3819
1059.021, 182.5019
1059.503, 183.3424
1059.985, 184.3269
1060.467, 185.3457
1060.949, 185.5363
1061.431, 183.6779
1061.913, 182.2130
1062.396, 182.6792
1062.878, 183.3249
1063.360, 182.1391
1063.842, 180.4510
1064.324, 181.0143
1064.806, 184.0769
1065.288, 186.3868
1065.770, 186.0990
1066.253, 185.6985
1066.735, 185.9926
1067.217, 186.7704
1067.699, 188.1515
1068.181, 189.7694
1068.663, 191.0652
1069.145, 191.9859
1069.627, 192.9753
1070.109, 194.2467
1070.592, 195.5450
1071.074, 196.5251
1071.556, 197.7257
1072.038, 199.7262
1072.520, 202.1294
1073.002, 204.4924
1073.484, 206.6711
1073.966, 208.4078
1074.448, 209.3288
1074.931, 210.4399
1075.413, 212.3803
1075.895, 214.5046
1076.377, 216.1791
1076.859, 217.8511
1077.341, 220.4265
1077.823, 223.6808
1078.305, 226.1509
1078.788, 227.0732
1079.270, 228.0480
1079.752, 229.8860
1080.234, 231.9593
1080.716, 233.7637
1081.198, 235.6226
1081.680, 238.1076
1082.162, 241.0521
1082.644, 243.7919
1083.127, 246.1122
1083.609, 248.2338
1084.091, 250.3184
1084.573, 252.1930
1085.055, 253.6585
1085.537, 254.9397
1086.019, 256.3231
1086.501, 257.7278
1086.984, 258.8110
1087.466, 259.4482
1087.948, 260.1853
1088.430, 261.3541
1088.912, 262.5517
1089.394, 263.6104
1089.876, 264.5662
1090.358, 265.4037
1090.840, 266.1812
1091.323, 267.0898
1091.805, 268.1668
1092.287, 268.8478
1092.769, 268.3942
1093.251, 268.2143
1093.733, 269.5598
1094.215, 270.7640
1094.697, 270.5058
1095.179, 269.1997
1095.662, 267.3276
1096.144, 265.0926
1096.626, 263.6720
1097.108, 264.1060
1097.590, 264.3488
1098.072, 263.5999
1098.554, 262.6013
1099.036, 261.8325
1099.519, 261.0858
1100.001, 259.9616
1100.483, 258.5274
1100.965, 257.3391
1101.447, 256.6619
1101.929, 255.9498
1102.411, 255.7810
1102.893, 254.6920
1103.375, 251.0419
1103.858, 246.8520
1104.340, 244.1047
1104.822, 242.6577
1105.304, 241.5667
1105.786, 240.8580
1106.268, 239.8984
1106.750, 238.6088
1107.232, 237.0052
1107.714, 234.3096
1108.197, 232.0229
1108.679, 232.2261
1109.161, 233.4889
1109.643, 232.2525
1110.125, 227.7526
1110.607, 224.3528
1111.089, 223.4704
1111.571, 222.2646
1112.054, 219.8421
1112.536, 217.3719
1113.018, 215.4740
1113.500, 213.9498
1113.982, 212.5323
1114.464, 211.2247
1114.946, 209.7995
1115.428, 207.7668
1115.911, 206.4497
1116.393, 206.5841
1116.875, 206.5136
1117.357, 205.4039
1117.839, 203.9357
1118.321, 202.7634
1118.803, 201.8727
1119.285, 201.1930
1119.767, 200.8733
1120.250, 200.3815
1120.732, 199.5739
1121.214, 198.9427
1121.696, 198.9981
1122.178, 198.5782
1122.660, 196.2976
1123.142, 193.2338
1123.624, 192.4555
1124.106, 194.4929
1124.589, 194.5278
1125.071, 191.7225
1125.553, 189.8406
1126.035, 189.7449
1126.517, 190.3202
1126.999, 191.1388
1127.481, 191.7286
1127.963, 191.2524
1128.446, 189.8244
1128.928, 188.6982
1129.410, 187.8347
1129.892, 187.8116
1130.374, 188.8533
1130.856, 189.3309
1131.338, 188.4338
1131.820, 187.5876
1132.302, 188.4608
1132.785, 190.2697
1133.267, 190.5701
1133.749, 189.4311
1134.231, 187.5193
1134.713, 184.9325
1135.195, 183.9840
1135.677, 185.3001
1136.159, 186.3929
1136.641, 185.3898
1137.124, 186.1089
1137.606, 183.8532
1138.088, 185.2574
1138.570, 184.9554
1139.052, 183.4585
1139.534, 183.4767
1140.016, 185.1809
1140.498, 186.4975
1140.981, 186.4535
1141.463, 185.6992
1141.945, 184.6011
1142.427, 183.6307
1142.909, 183.9915
1143.391, 183.2472
1143.873, 184.6143
1144.355, 183.3780
1144.838, 183.1432
1145.320, 184.2565
1145.802, 184.9276
1146.284, 183.7064
1146.766, 182.4125
1147.248, 183.0437
1147.730, 184.5098
1148.212, 185.9883
1148.694, 187.0701
1149.177, 186.7959
1149.659, 185.5564
1150.141, 185.2598
1150.623, 186.7672
1151.105, 187.9459
1151.587, 187.0800
1152.069, 185.9060
1152.551, 185.4114
1153.033, 185.3859
1153.516, 185.6747
1153.998, 186.2120
1154.480, 187.0297
1154.962, 188.0995
1155.444, 188.9398
1155.926, 189.0137
1156.408, 189.3908
1156.890, 190.8317
1157.373, 192.1623
1157.855, 192.6853
1158.337, 192.7600
1158.819, 192.7804
1159.301, 192.7693
1159.783, 192.6905
1160.265, 192.5737
1160.747, 192.2990
1161.229, 191.5540
1161.712, 191.0889
1162.194, 191.4416
1162.676, 191.6770
1163.158, 191.1259
1163.640, 190.0942
1164.122, 189.0392
1164.604, 187.9380
1165.086, 187.4510
1165.568, 187.8127
1166.051, 188.1270
1166.533, 188.4426
1167.015, 188.2545
1167.497, 187.2236
1167.979, 185.9272
1168.461, 184.8486
1168.943, 184.1299
1169.425, 184.5063
1169.908, 186.0380
1170.390, 186.1587
1170.872, 184.7950
1171.354, 183.1488
1171.836, 181.4838
1172.318, 180.2832
1172.800, 179.8495
1173.282, 179.8826
1173.765, 180.1883
1174.247, 180.4482
1174.729, 179.3192
1175.211, 179.3932
1175.693, 176.9225
1176.175, 177.7697
1176.657, 177.4124
1177.139, 175.1839
1177.621, 173.1145
1178.104, 172.7844
1178.586, 172.9395
1179.068, 172.0604
1179.550, 170.7887
1180.032, 170.0635
1180.514, 169.5922
1180.996, 168.6305
1181.478, 167.2948
1181.960, 166.4714
1182.443, 166.5110
1182.925, 166.3073
1183.407, 164.7796
1183.889, 163.3514
1184.371, 163.1432
1184.853, 163.1648
1185.335, 162.7933
1185.817, 161.9125
1186.300, 160.0427
1186.782, 157.4030
1187.264, 155.9404
1187.746, 156.5229
1188.228, 157.2957
1188.710, 158.3375
1189.192, 159.0070
1189.674, 158.8396
1190.156, 158.4263
1190.639, 158.1570
1191.121, 158.0099
1191.603, 157.9069
1192.085, 157.8220
1192.567, 158.1565
1193.049, 159.1735
1193.531, 159.8545
1194.013, 160.0797
1194.495, 159.9574
1194.978, 159.4581
1195.460, 158.8596
1195.942, 158.4284
1196.424, 158.1581
1196.906, 157.9505
1197.388, 157.8293
1197.870, 158.7157
1198.352, 160.4893
1198.835, 160.3884
1199.317, 158.0542
1199.799, 157.0297
1200.281, 159.2056
1200.763, 161.9187
1201.245, 162.1023
1201.727, 160.8482
1202.209, 159.7973
1202.692, 158.9725
1203.174, 158.4032
1203.656, 158.0960
1204.138, 158.1559
1204.620, 158.5211
1205.102, 158.8227
1205.584, 158.8835
1206.066, 158.7857
1206.548, 158.2646
1207.031, 157.9791
1207.513, 158.8311
1207.995, 159.8576
1208.477, 160.0453
1208.959, 159.5767
1209.441, 158.8873
1209.923, 158.0787
1210.405, 157.6094
1210.887, 157.9897
1211.370, 158.0903
1211.852, 157.1960
1212.334, 156.6701
1212.816, 157.6898
1213.298, 158.6902
1213.780, 158.1232
1214.262, 156.6896
1214.744, 156.1548
1215.227, 156.5847
1215.709, 157.2452
1216.191, 158.2577
1216.673, 159.0368
1217.155, 159.5412
1217.637, 159.5193
1218.119, 158.7427
1218.601, 158.1926
1219.083, 158.9759
1219.566, 160.3994
1220.048, 160.7361
1220.530, 160.2147
1221.012, 159.6625
1221.494, 159.2446
1221.976, 159.7719
1222.458, 161.1759
1222.940, 162.2356
1223.422, 162.4190
1223.905, 162.6577
1224.387, 163.8925
1224.869, 165.3754
1225.351, 166.1067
1225.833, 166.7973
1226.315, 169.0366
1226.797, 171.4587
1227.279, 170.9376
1227.762, 168.1624
1228.244, 167.6941
1228.726, 171.5048
1229.208, 174.1467
1229.690, 172.5856
1230.172, 171.2162
1230.654, 171.5309
1231.136, 172.5648
1231.619, 174.4278
1232.101, 176.1053
1232.583, 175.9451
1233.065, 174.3478
1233.547, 174.0246
1234.029, 175.6520
1234.511, 176.2162
1234.993, 175.4532
1235.475, 174.5807
1235.958, 173.8119
1236.440, 173.2785
1236.922, 173.0594
1237.404, 173.0949
1237.886, 173.3141
1238.368, 173.7133
1238.850, 174.5514
1239.332, 175.5424
1239.814, 175.3591
1240.297, 174.1834
1240.779, 173.0463
1241.261, 172.2252
1241.743, 171.6252
1242.225, 171.1932
1242.707, 171.0600
1243.189, 171.5958
1243.671, 172.1922
1244.154, 172.1440
1244.636, 172.0037
1245.118, 172.5437
1245.600, 173.3434
1246.082, 173.6298
1246.564, 173.3607
1247.046, 172.8677
1247.528, 171.7848
1248.010, 171.7784
1248.493, 174.3459
1248.975, 176.2495
1249.457, 176.1447
1249.939, 175.9189
1250.421, 176.7264
1250.903, 177.8203
1251.385, 178.0676
1251.867, 177.7573
1252.349, 178.7952
1252.832, 181.3987
1253.314, 182.2761
1253.796, 181.2766
1254.278, 180.5889
1254.760, 180.7187
1255.242, 181.9508
1255.724, 184.4713
1256.206, 186.7873
1256.689, 187.0612
1257.171, 186.3524
1257.653, 186.0480
1258.135, 186.2180
1258.617, 187.4516
1259.099, 189.0510
1259.581, 189.2131
1260.063, 188.2452
1260.546, 188.7367
1261.028, 191.8203
1261.510, 193.7289
1261.992, 191.7886
1262.474, 189.7280
1262.956, 188.6733
1263.438, 188.3448
1263.920, 189.2702
1264.402, 190.2740
1264.885, 189.7454
1265.367, 188.1755
1265.849, 187.3681
1266.331, 187.4802
1266.813, 187.2706
1267.295, 186.5751
1267.777, 186.4797
1268.259, 187.2743
1268.741, 187.6512
1269.224, 187.0451
1269.706, 185.9041
1270.188, 184.5863
1270.670, 183.2283
1271.152, 182.1616
1271.634, 181.2055
1272.116, 179.4796
1272.598, 177.6856
1273.081, 178.0024
1273.563, 179.7920
1274.045, 180.3536
1274.527, 178.9934
1275.009, 177.3887
1275.491, 176.0035
1275.973, 175.3969
1276.455, 176.5170
1276.938, 177.6356
1277.420, 178.2695
1277.902, 178.0324
1278.384, 175.9718
1278.866, 173.0966
1279.348, 171.4050
1279.830, 170.8595
1280.312, 170.5529
1280.794, 170.6565
1281.276, 170.2368
1281.759, 169.0867
1282.241, 168.4136
1282.723, 168.5681
1283.205, 168.8002
1283.687, 168.6344
1284.169, 168.6195
1284.651, 169.7117
1285.133, 171.0503
1285.616, 171.1323
1286.098, 169.9412
##END=



