##NAMES=Syngenite
##RRUFFID=R061002
##IDEAL CHEMISTRY=K_2_Ca(S^6+^O_4_)_2_&#183;H_2_O
##LOCALITY=Kalush, Ukraine
##OWNER=RRUFF
##SOURCE=Michael Scott
##DESCRIPTION=Colorless transparent tabular crystal
##STATUS=The identification of this mineral has been confirmed by X-ray diffraction and chemical analysis
##URL=rruff.info/R061002
##MEASURED CHEMISTRY=K_2.00_Ca_1.00_(S_1.00_O_4_)_2_·H_2_O ; light inclusions are (K_1.99_Na_0.01_)_Σ=2_S_1.00_O_4_ (arcanite) ; H not measured but estimated by difference
147.5623, 1330.681
148.0445, 1381.063
148.5266, 1428.438
149.0087, 1472.297
149.4908, 1510.544
149.9729, 1545.666
150.4550, 1581.463
150.9371, 1621.127
151.4193, 1663.360
151.9014, 1698.609
152.3835, 1721.574
152.8656, 1742.688
153.3477, 1766.423
153.8298, 1789.642
154.3120, 1806.096
154.7941, 1811.215
155.2762, 1805.699
155.7583, 1801.097
156.2404, 1794.505
156.7225, 1791.625
157.2047, 1796.894
157.6868, 1807.269
158.1689, 1816.338
158.6510, 1819.493
159.1331, 1816.877
159.6152, 1815.370
160.0974, 1810.842
160.5795, 1811.108
161.0616, 1818.986
161.5437, 1833.983
162.0258, 1854.306
162.5079, 1878.758
162.9901, 1907.301
163.4722, 1941.575
163.9543, 1986.132
164.4364, 2030.578
164.9185, 2067.890
165.4007, 2100.351
165.8828, 2135.520
166.3649, 2179.323
166.8470, 2231.593
167.3291, 2284.490
167.8112, 2346.208
168.2934, 2401.038
168.7755, 2438.319
169.2576, 2460.439
169.7397, 2478.564
170.2218, 2501.096
170.7039, 2527.394
171.1861, 2546.426
171.6682, 2549.547
172.1503, 2553.768
172.6324, 2571.246
173.1145, 2600.021
173.5966, 2628.119
174.0788, 2647.633
174.5609, 2658.223
175.0430, 2665.082
175.5251, 2661.759
176.0072, 2660.273
176.4893, 2671.617
176.9714, 2693.848
177.4536, 2712.490
177.9357, 2715.841
178.4178, 2705.629
178.8999, 2702.593
179.3820, 2718.655
179.8641, 2732.094
180.3463, 2729.579
180.8284, 2711.177
181.3105, 2681.137
181.7926, 2638.310
182.2747, 2585.154
182.7568, 2539.068
183.2390, 2507.137
183.7211, 2476.430
184.2032, 2436.240
184.6853, 2387.397
185.1674, 2340.277
185.6495, 2303.105
186.1317, 2272.923
186.6138, 2236.181
187.0959, 2182.735
187.5780, 2130.554
188.0601, 2092.894
188.5422, 2069.091
189.0244, 2050.187
189.5065, 2034.512
189.9886, 2019.134
190.4707, 1996.008
190.9528, 1953.440
191.4349, 1913.655
191.9171, 1895.876
192.3992, 1898.383
192.8813, 1903.073
193.3634, 1902.178
193.8455, 1895.629
194.3276, 1884.944
194.8098, 1865.290
195.2919, 1847.073
195.7740, 1838.552
196.2561, 1839.013
196.7382, 1841.811
197.2203, 1844.981
197.7025, 1847.770
198.1846, 1849.002
198.6667, 1849.238
199.1488, 1847.085
199.6309, 1840.574
200.1130, 1830.133
200.5951, 1819.819
201.0773, 1812.204
201.5594, 1805.078
202.0415, 1794.754
202.5236, 1781.690
203.0057, 1764.516
203.4878, 1739.047
203.9700, 1706.990
204.4521, 1679.210
204.9342, 1662.197
205.4163, 1649.966
205.8984, 1631.348
206.3805, 1603.413
206.8627, 1576.742
207.3448, 1559.566
207.8269, 1549.844
208.3090, 1537.853
208.7911, 1519.538
209.2732, 1498.152
209.7554, 1478.075
210.2375, 1458.707
210.7196, 1442.284
211.2017, 1431.413
211.6838, 1424.800
212.1659, 1418.226
212.6481, 1411.016
213.1302, 1402.655
213.6123, 1391.763
214.0944, 1377.686
214.5765, 1365.935
215.0586, 1361.994
215.5408, 1362.510
216.0229, 1356.606
216.5050, 1338.068
216.9871, 1319.423
217.4692, 1318.653
217.9513, 1335.531
218.4335, 1350.560
218.9156, 1355.431
219.3977, 1353.145
219.8798, 1349.227
220.3619, 1344.002
220.8440, 1339.161
221.3262, 1336.105
221.8083, 1334.632
222.2904, 1335.976
222.7725, 1342.581
223.2546, 1351.672
223.7367, 1358.607
224.2189, 1362.520
224.7010, 1365.472
225.1831, 1370.445
225.6652, 1376.835
226.1473, 1379.732
226.6294, 1374.585
227.1115, 1366.881
227.5937, 1363.449
228.0758, 1365.053
228.5579, 1369.063
229.0400, 1373.005
229.5221, 1377.443
230.0042, 1385.412
230.4864, 1401.969
230.9685, 1419.348
231.4506, 1428.009
231.9327, 1427.712
232.4148, 1429.660
232.8969, 1443.127
233.3791, 1465.945
233.8612, 1485.029
234.3433, 1501.339
234.8254, 1512.621
235.3075, 1512.526
235.7896, 1503.033
236.2718, 1500.075
236.7539, 1515.741
237.2360, 1544.271
237.7181, 1562.986
238.2002, 1566.468
238.6823, 1566.281
239.1645, 1569.505
239.6466, 1574.287
240.1287, 1573.764
240.6108, 1563.659
241.0929, 1547.161
241.5750, 1533.469
242.0572, 1525.774
242.5393, 1515.511
243.0214, 1496.137
243.5035, 1472.207
243.9856, 1454.100
244.4677, 1446.714
244.9499, 1444.294
245.4320, 1434.171
245.9141, 1413.040
246.3962, 1393.865
246.8783, 1380.358
247.3604, 1370.042
247.8426, 1359.684
248.3247, 1348.254
248.8068, 1336.662
249.2889, 1325.907
249.7710, 1315.530
250.2531, 1307.695
250.7352, 1305.504
251.2174, 1304.287
251.6995, 1299.026
252.1816, 1289.007
252.6637, 1277.651
253.1458, 1268.642
253.6279, 1262.390
254.1101, 1257.367
254.5922, 1252.913
255.0743, 1250.102
255.5564, 1251.549
256.0385, 1256.222
256.5207, 1258.718
257.0028, 1253.600
257.4849, 1240.061
257.9670, 1232.743
258.4491, 1236.595
258.9312, 1240.557
259.4134, 1239.345
259.8955, 1234.301
260.3776, 1229.443
260.8597, 1227.263
261.3418, 1227.658
261.8239, 1229.835
262.3060, 1239.477
262.7881, 1244.419
263.2703, 1239.798
263.7524, 1229.407
264.2345, 1217.906
264.7166, 1207.398
265.1987, 1198.846
265.6808, 1195.178
266.1630, 1201.089
266.6451, 1206.139
267.1272, 1211.780
267.6093, 1215.359
268.0914, 1212.544
268.5735, 1202.391
269.0557, 1190.500
269.5378, 1186.989
270.0199, 1198.494
270.5020, 1205.057
270.9841, 1203.646
271.4662, 1200.125
271.9484, 1197.691
272.4305, 1197.068
272.9126, 1197.827
273.3947, 1199.908
273.8768, 1203.899
274.3589, 1206.193
274.8411, 1206.372
275.3232, 1205.130
275.8053, 1202.687
276.2874, 1198.992
276.7695, 1193.562
277.2516, 1184.704
277.7338, 1173.042
278.2159, 1168.204
278.6980, 1177.908
279.1801, 1184.685
279.6622, 1179.743
280.1443, 1168.657
280.6265, 1160.563
281.1086, 1160.484
281.5907, 1166.111
282.0728, 1172.290
282.5549, 1180.737
283.0370, 1185.483
283.5192, 1180.800
284.0013, 1173.330
284.4834, 1170.586
284.9655, 1175.808
285.4476, 1181.959
285.9297, 1178.670
286.4119, 1164.666
286.8940, 1153.439
287.3761, 1151.005
287.8582, 1151.132
288.3403, 1149.073
288.8224, 1144.439
289.3046, 1137.451
289.7867, 1123.112
290.2688, 1104.673
290.7509, 1101.525
291.2330, 1125.089
291.7151, 1152.072
292.1973, 1158.741
292.6794, 1148.064
293.1615, 1139.186
293.6436, 1142.974
294.1257, 1152.378
294.6078, 1154.472
295.0900, 1147.066
295.5721, 1139.194
296.0542, 1139.314
296.5363, 1145.143
297.0184, 1147.104
297.5005, 1138.351
297.9827, 1129.570
298.4648, 1130.106
298.9469, 1139.106
299.4290, 1150.256
299.9111, 1161.907
300.3932, 1172.057
300.8754, 1174.125
301.3575, 1160.990
301.8396, 1150.109
302.3217, 1150.302
302.8038, 1156.907
303.2859, 1160.736
303.7681, 1158.139
304.2502, 1152.842
304.7323, 1152.106
305.2144, 1159.737
305.6965, 1164.109
306.1786, 1161.948
306.6608, 1157.695
307.1429, 1155.135
307.6250, 1155.035
308.1071, 1156.314
308.5892, 1158.004
309.0714, 1160.525
309.5535, 1161.283
310.0356, 1159.364
310.5177, 1156.887
310.9998, 1155.000
311.4819, 1153.440
311.9640, 1150.637
312.4461, 1144.763
312.9283, 1136.896
313.4104, 1136.938
313.8925, 1157.854
314.3746, 1171.814
314.8567, 1169.557
315.3388, 1159.736
315.8210, 1153.405
316.3031, 1155.323
316.7852, 1161.205
317.2673, 1162.654
317.7494, 1158.829
318.2315, 1152.391
318.7137, 1137.857
319.1958, 1125.085
319.6779, 1122.626
320.1600, 1130.906
320.6421, 1141.079
321.1242, 1143.785
321.6064, 1138.926
322.0885, 1135.177
322.5706, 1131.380
323.0527, 1131.045
323.5348, 1138.369
324.0169, 1150.768
324.4991, 1160.645
324.9812, 1161.618
325.4633, 1158.005
325.9454, 1161.426
326.4275, 1175.108
326.9096, 1183.062
327.3918, 1166.797
327.8739, 1141.698
328.3560, 1132.844
328.8381, 1152.733
329.3202, 1176.693
329.8023, 1184.191
330.2845, 1177.470
330.7666, 1168.987
331.2487, 1162.233
331.7308, 1156.996
332.2129, 1152.101
332.6950, 1146.335
333.1772, 1145.282
333.6593, 1156.159
334.1414, 1170.656
334.6235, 1176.327
335.1056, 1170.794
335.5877, 1161.836
336.0699, 1157.310
336.5520, 1158.079
337.0341, 1157.581
337.5162, 1154.642
337.9983, 1151.543
338.4804, 1148.673
338.9626, 1146.630
339.4447, 1147.290
339.9268, 1152.322
340.4089, 1160.422
340.8910, 1164.323
341.3731, 1158.029
341.8553, 1154.531
342.3374, 1156.787
342.8195, 1161.903
343.3016, 1167.149
343.7837, 1171.508
344.2658, 1174.694
344.7480, 1176.306
345.2301, 1176.389
345.7122, 1174.597
346.1943, 1170.177
346.6764, 1164.610
347.1585, 1156.701
347.6407, 1147.823
348.1228, 1142.283
348.6049, 1144.907
349.0870, 1154.323
349.5691, 1159.931
350.0512, 1160.122
350.5334, 1158.953
351.0155, 1158.341
351.4976, 1157.547
351.9797, 1155.067
352.4618, 1149.414
352.9439, 1143.889
353.4261, 1143.846
353.9082, 1149.466
354.3903, 1153.420
354.8724, 1152.154
355.3545, 1149.179
355.8366, 1148.742
356.3188, 1150.997
356.8009, 1154.697
357.2830, 1160.140
357.7651, 1166.429
358.2472, 1172.652
358.7293, 1178.949
359.2115, 1182.758
359.6936, 1180.772
360.1757, 1172.902
360.6578, 1166.935
361.1399, 1164.931
361.6220, 1163.308
362.1041, 1160.491
362.5862, 1156.285
363.0684, 1149.380
363.5505, 1138.202
364.0326, 1125.763
364.5147, 1122.331
364.9968, 1139.672
365.4789, 1151.194
365.9611, 1153.079
366.4432, 1149.497
366.9253, 1141.794
367.4074, 1131.469
367.8895, 1123.830
368.3716, 1126.682
368.8538, 1143.473
369.3359, 1153.954
369.8180, 1151.607
370.3001, 1149.157
370.7822, 1152.123
371.2643, 1158.475
371.7465, 1163.226
372.2286, 1163.151
372.7107, 1159.746
373.1928, 1156.498
373.6749, 1152.026
374.1570, 1151.450
374.6392, 1161.739
375.1213, 1173.760
375.6034, 1178.961
376.0855, 1175.304
376.5676, 1169.820
377.0497, 1168.636
377.5319, 1170.789
378.0140, 1171.836
378.4961, 1171.243
378.9782, 1168.998
379.4603, 1163.644
379.9424, 1156.023
380.4246, 1150.511
380.9067, 1149.243
381.3888, 1149.695
381.8709, 1149.984
382.3530, 1149.990
382.8351, 1149.593
383.3173, 1148.718
383.7994, 1147.410
384.2815, 1145.754
384.7636, 1141.847
385.2457, 1140.240
385.7278, 1143.888
386.2100, 1149.231
386.6921, 1152.524
387.1742, 1152.793
387.6563, 1150.806
388.1384, 1147.006
388.6205, 1140.368
389.1027, 1137.058
389.5848, 1136.932
390.0669, 1140.023
390.5490, 1150.187
391.0311, 1163.285
391.5132, 1171.230
391.9954, 1168.776
392.4775, 1159.664
392.9596, 1154.059
393.4417, 1153.391
393.9238, 1152.336
394.4059, 1146.391
394.8881, 1141.542
395.3702, 1144.050
395.8523, 1154.640
396.3344, 1164.862
396.8165, 1166.939
397.2986, 1163.092
397.7808, 1162.482
398.2629, 1167.586
398.7450, 1171.581
399.2271, 1166.463
399.7092, 1155.475
400.1913, 1149.285
400.6735, 1153.134
401.1556, 1159.238
401.6377, 1164.179
402.1198, 1167.144
402.6019, 1164.402
403.0840, 1153.172
403.5662, 1138.884
404.0483, 1132.913
404.5304, 1139.163
405.0125, 1146.183
405.4946, 1157.574
405.9767, 1166.675
406.4589, 1165.367
406.9410, 1155.145
407.4231, 1145.997
407.9052, 1146.624
408.3873, 1156.519
408.8694, 1165.608
409.3516, 1177.558
409.8336, 1183.661
410.3158, 1177.505
410.7979, 1166.748
411.2800, 1159.881
411.7621, 1159.758
412.2442, 1163.654
412.7263, 1169.407
413.2085, 1177.255
413.6906, 1181.595
414.1727, 1177.429
414.6548, 1174.836
415.1369, 1182.876
415.6190, 1199.046
416.1012, 1212.881
416.5833, 1217.022
417.0654, 1218.360
417.5475, 1226.092
418.0296, 1240.016
418.5117, 1254.200
418.9939, 1265.888
419.4760, 1275.861
419.9581, 1285.591
420.4402, 1293.249
420.9223, 1304.484
421.4044, 1324.965
421.8866, 1347.491
422.3687, 1363.508
422.8508, 1371.998
423.3329, 1377.340
423.8150, 1382.607
424.2971, 1387.309
424.7793, 1402.098
425.2614, 1435.837
425.7435, 1469.771
426.2256, 1499.888
426.7077, 1527.375
427.1898, 1553.605
427.6720, 1578.926
428.1541, 1605.738
428.6362, 1636.691
429.1183, 1671.084
429.6004, 1712.879
430.0826, 1751.259
430.5647, 1810.752
431.0468, 1904.825
431.5289, 2031.675
432.0110, 2182.761
432.4931, 2348.588
432.9753, 2539.063
433.4574, 2770.544
433.9395, 3044.279
434.4216, 3341.536
434.9037, 3650.615
435.3858, 3983.080
435.8680, 4361.344
436.3501, 4771.842
436.8322, 5248.768
437.3143, 5787.183
437.7964, 6403.469
438.2785, 7127.754
438.7607, 7956.935
439.2428, 8884.626
439.7249, 9949.458
440.2070, 11142.60
440.6891, 11965.55
441.1712, 12559.43
441.6534, 12599.06
442.1355, 11786.74
442.6176, 10483.44
443.0997, 9008.199
443.5818, 7473.280
444.0639, 6035.254
444.5461, 4893.546
445.0282, 4055.956
445.5103, 3399.236
445.9924, 2966.831
446.4745, 2657.804
446.9566, 2424.068
447.4388, 2251.873
447.9209, 2108.710
448.4030, 1987.568
448.8851, 1885.260
449.3672, 1801.114
449.8493, 1734.311
450.3315, 1683.442
450.8136, 1650.536
451.2957, 1628.176
451.7778, 1604.724
452.2599, 1579.324
452.7420, 1556.409
453.2242, 1536.770
453.7063, 1519.617
454.1884, 1502.896
454.6705, 1487.782
455.1526, 1478.316
455.6347, 1477.437
456.1169, 1483.643
456.5990, 1490.722
457.0811, 1497.904
457.5632, 1507.467
458.0453, 1521.092
458.5274, 1535.787
459.0095, 1549.278
459.4916, 1561.297
459.9738, 1572.997
460.4559, 1581.502
460.9380, 1589.799
461.4201, 1611.365
461.9022, 1648.212
462.3843, 1692.233
462.8665, 1742.167
463.3486, 1795.740
463.8307, 1848.484
464.3128, 1897.987
464.7949, 1950.963
465.2770, 2009.862
465.7592, 2074.380
466.2413, 2142.952
466.7234, 2215.364
467.2055, 2296.111
467.6876, 2392.394
468.1697, 2505.907
468.6519, 2606.762
469.1340, 2691.288
469.6161, 2769.553
470.0982, 2852.195
470.5803, 2927.523
471.0624, 2982.162
471.5446, 3011.188
472.0267, 3016.258
472.5088, 2995.930
472.9909, 2947.584
473.4730, 2896.828
473.9551, 2851.397
474.4373, 2794.385
474.9194, 2708.842
475.4015, 2606.455
475.8836, 2513.733
476.3657, 2438.927
476.8478, 2377.919
477.3300, 2327.621
477.8121, 2287.734
478.2942, 2257.968
478.7763, 2238.386
479.2584, 2228.352
479.7405, 2227.087
480.2227, 2235.128
480.7048, 2252.788
481.1869, 2275.227
481.6690, 2311.792
482.1511, 2370.834
482.6332, 2447.958
483.1154, 2534.730
483.5975, 2626.778
484.0796, 2722.964
484.5617, 2817.502
485.0438, 2903.438
485.5259, 3008.525
486.0081, 3142.781
486.4902, 3290.887
486.9723, 3450.184
487.4544, 3617.173
487.9365, 3784.778
488.4186, 3948.054
488.9008, 4109.952
489.3829, 4281.085
489.8650, 4460.391
490.3471, 4621.708
490.8292, 4760.014
491.3113, 4870.919
491.7935, 4947.330
492.2756, 4994.066
492.7577, 4997.865
493.2398, 4950.800
493.7219, 4865.056
494.2040, 4742.862
494.6862, 4589.518
495.1683, 4417.345
495.6504, 4232.282
496.1325, 4035.610
496.6146, 3828.245
497.0967, 3598.229
497.5789, 3384.455
498.0610, 3188.983
498.5431, 3010.151
499.0252, 2850.976
499.5073, 2709.978
499.9894, 2582.049
500.4716, 2466.411
500.9537, 2360.601
501.4358, 2258.505
501.9179, 2160.165
502.4000, 2071.113
502.8821, 1992.588
503.3643, 1925.642
503.8464, 1874.227
504.3285, 1841.051
504.8106, 1804.686
505.2927, 1753.900
505.7748, 1704.037
506.2570, 1669.012
506.7391, 1646.939
507.2212, 1629.420
507.7033, 1611.954
508.1854, 1593.402
508.6675, 1568.963
509.1496, 1531.041
509.6317, 1503.795
510.1139, 1497.831
510.5960, 1495.150
511.0781, 1485.344
511.5602, 1469.102
512.0424, 1452.899
512.5245, 1442.007
513.0066, 1432.080
513.4887, 1413.312
513.9708, 1385.799
514.4529, 1364.351
514.9351, 1356.244
515.4172, 1354.031
515.8993, 1345.773
516.3814, 1330.144
516.8635, 1318.014
517.3456, 1310.590
517.8278, 1307.302
518.3099, 1310.029
518.7920, 1316.559
519.2741, 1322.462
519.7562, 1325.670
520.2383, 1324.981
520.7205, 1316.546
521.2026, 1296.336
521.6847, 1280.307
522.1668, 1271.425
522.6489, 1265.698
523.1310, 1262.496
523.6132, 1261.030
524.0953, 1259.646
524.5774, 1258.078
525.0595, 1255.683
525.5416, 1251.775
526.0237, 1246.382
526.5059, 1239.278
526.9880, 1229.855
527.4701, 1220.199
527.9522, 1212.333
528.4343, 1206.243
528.9164, 1203.685
529.3986, 1211.423
529.8807, 1215.650
530.3628, 1208.000
530.8449, 1193.037
531.3270, 1176.722
531.8091, 1161.634
532.2913, 1151.492
532.7734, 1154.489
533.2554, 1172.797
533.7375, 1183.830
534.2197, 1184.237
534.7018, 1180.940
535.1839, 1173.746
535.6660, 1166.364
536.1481, 1166.755
536.6302, 1181.156
537.1124, 1194.082
537.5945, 1191.761
538.0766, 1180.709
538.5587, 1175.047
539.0408, 1177.450
539.5229, 1181.197
540.0051, 1180.264
540.4872, 1174.786
540.9693, 1169.085
541.4514, 1160.730
541.9335, 1155.227
542.4156, 1157.727
542.8978, 1160.988
543.3799, 1156.710
543.8620, 1144.305
544.3441, 1131.301
544.8262, 1122.163
545.3083, 1117.890
545.7905, 1126.707
546.2726, 1153.326
546.7547, 1169.327
547.2368, 1155.059
547.7189, 1127.193
548.2010, 1116.417
548.6832, 1127.417
549.1653, 1135.874
549.6474, 1132.806
550.1295, 1126.284
550.6116, 1122.418
551.0938, 1121.835
551.5759, 1124.633
552.0580, 1131.312
552.5401, 1139.021
553.0222, 1139.344
553.5043, 1128.097
553.9865, 1120.329
554.4686, 1118.299
554.9507, 1119.333
555.4328, 1125.205
555.9149, 1133.360
556.3970, 1136.586
556.8792, 1128.923
557.3613, 1119.101
557.8434, 1117.688
558.3255, 1122.483
558.8076, 1124.165
559.2897, 1119.756
559.7719, 1114.958
560.2540, 1116.985
560.7361, 1127.007
561.2182, 1130.078
561.7003, 1120.169
562.1824, 1111.398
562.6646, 1107.021
563.1467, 1106.356
563.6288, 1110.207
564.1109, 1117.979
564.5930, 1123.768
565.0751, 1120.425
565.5573, 1109.255
566.0394, 1098.565
566.5215, 1087.749
567.0036, 1079.907
567.4857, 1077.646
567.9678, 1078.818
568.4500, 1078.717
568.9321, 1076.102
569.4142, 1076.478
569.8963, 1084.084
570.3784, 1093.405
570.8605, 1099.445
571.3427, 1102.391
571.8248, 1104.962
572.3069, 1108.794
572.7890, 1112.892
573.2711, 1114.064
573.7532, 1110.062
574.2354, 1110.566
574.7175, 1122.918
575.1996, 1133.387
575.6817, 1131.723
576.1638, 1122.284
576.6459, 1117.148
577.1281, 1122.995
577.6102, 1130.353
578.0923, 1128.811
578.5744, 1122.771
579.0565, 1124.294
579.5386, 1136.144
580.0208, 1150.129
580.5029, 1158.884
580.9850, 1162.426
581.4671, 1163.044
581.9492, 1153.038
582.4313, 1149.691
582.9135, 1163.226
583.3956, 1179.187
583.8777, 1181.657
584.3598, 1170.445
584.8419, 1161.209
585.3240, 1165.903
585.8062, 1180.333
586.2883, 1196.850
586.7704, 1215.421
587.2525, 1232.329
587.7346, 1245.531
588.2167, 1257.452
588.6989, 1271.590
589.1810, 1288.469
589.6631, 1305.699
590.1452, 1323.679
590.6273, 1341.551
591.1094, 1359.318
591.5916, 1376.489
592.0737, 1391.200
592.5558, 1402.952
593.0379, 1416.168
593.5200, 1438.586
594.0021, 1469.378
594.4843, 1493.791
594.9664, 1507.971
595.4485, 1524.936
595.9306, 1554.820
596.4127, 1591.278
596.8948, 1619.597
597.3770, 1635.238
597.8591, 1654.174
598.3412, 1678.479
598.8233, 1709.895
599.3054, 1757.005
599.7875, 1813.870
600.2697, 1860.553
600.7518, 1884.774
601.2339, 1896.434
601.7160, 1920.308
602.1981, 1962.576
602.6802, 1987.507
603.1624, 1989.030
603.6445, 1975.007
604.1266, 1948.231
604.6087, 1911.056
605.0908, 1868.082
605.5729, 1814.546
606.0551, 1765.019
606.5372, 1731.320
607.0193, 1705.731
607.5014, 1674.610
607.9835, 1636.913
608.4656, 1602.792
608.9478, 1580.870
609.4299, 1568.835
609.9120, 1554.076
610.3941, 1531.998
610.8762, 1517.032
611.3583, 1517.838
611.8405, 1521.313
612.3226, 1514.819
612.8047, 1502.430
613.2868, 1502.443
613.7689, 1522.022
614.2510, 1557.435
614.7332, 1612.298
615.2153, 1679.725
615.6974, 1737.898
616.1795, 1781.672
616.6616, 1832.352
617.1437, 1913.031
617.6259, 2022.762
618.1080, 2135.941
618.5901, 2254.208
619.0722, 2373.958
619.5543, 2512.607
620.0364, 2639.064
620.5186, 2731.906
621.0007, 2787.757
621.4828, 2807.283
621.9649, 2782.848
622.4470, 2727.768
622.9291, 2643.977
623.4113, 2540.848
623.8934, 2456.844
624.3755, 2404.738
624.8576, 2380.632
625.3397, 2381.048
625.8218, 2406.839
626.3040, 2448.383
626.7861, 2503.606
627.2682, 2577.711
627.7503, 2664.217
628.2324, 2774.544
628.7145, 2923.571
629.1967, 3111.973
629.6788, 3326.424
630.1609, 3557.697
630.6430, 3808.490
631.1251, 4100.868
631.6072, 4425.886
632.0893, 4720.963
632.5714, 4971.183
633.0535, 5139.614
633.5356, 5170.278
634.0178, 5050.327
634.4999, 4852.761
634.9820, 4488.526
635.4641, 4155.053
635.9462, 3885.140
636.4283, 3686.408
636.9105, 3566.145
637.3926, 3524.709
637.8747, 3551.498
638.3568, 3647.235
638.8389, 3802.580
639.3210, 4002.258
639.8032, 4245.081
640.2853, 4548.165
640.7674, 4933.119
641.2495, 5331.158
641.7316, 5646.754
642.2137, 5922.533
642.6959, 5931.486
643.1780, 5558.517
643.6601, 5071.599
644.1422, 4466.932
644.6243, 3838.708
645.1064, 3284.249
645.5886, 2828.401
646.0707, 2458.599
646.5528, 2182.867
647.0349, 1982.384
647.5170, 1831.131
647.9991, 1725.430
648.4813, 1643.686
648.9634, 1576.546
649.4455, 1526.799
649.9276, 1500.345
650.4097, 1501.850
650.8918, 1507.097
651.3740, 1506.126
651.8561, 1520.337
652.3382, 1562.514
652.8203, 1620.564
653.3024, 1677.187
653.7845, 1729.427
654.2667, 1793.590
654.7488, 1884.487
655.2309, 1993.364
655.7130, 2100.030
656.1951, 2207.808
656.6772, 2346.176
657.1594, 2528.622
657.6415, 2737.527
658.1236, 2943.331
658.6057, 3137.612
659.0878, 3374.890
659.5699, 3733.094
660.0521, 4041.979
660.5342, 4317.134
661.0163, 4487.146
661.4984, 4465.562
661.9805, 4239.008
662.4626, 3890.996
662.9448, 3387.739
663.4269, 2847.710
663.9090, 2395.761
664.3911, 2035.860
664.8732, 1759.315
665.3553, 1564.333
665.8375, 1430.255
666.3196, 1334.423
666.8017, 1279.488
667.2838, 1233.036
667.7659, 1195.873
668.2480, 1166.325
668.7302, 1146.678
669.2123, 1132.048
669.6944, 1117.900
670.1765, 1103.839
670.6586, 1092.053
671.1407, 1083.498
671.6229, 1077.593
672.1050, 1075.143
672.5871, 1074.776
673.0692, 1073.402
673.5513, 1070.115
674.0334, 1066.074
674.5156, 1062.293
674.9977, 1058.878
675.4798, 1057.592
675.9619, 1059.893
676.4440, 1060.730
676.9261, 1059.440
677.4083, 1055.376
677.8904, 1044.899
678.3725, 1029.141
678.8546, 1021.771
679.3367, 1036.088
679.8188, 1049.007
680.3010, 1044.014
680.7831, 1030.838
681.2652, 1023.830
681.7473, 1025.517
682.2294, 1029.027
682.7115, 1028.485
683.1937, 1025.273
683.6758, 1024.360
684.1579, 1026.195
684.6400, 1027.068
685.1221, 1026.920
685.6042, 1024.143
686.0864, 1014.808
686.5685, 1000.212
687.0506, 992.7430
687.5327, 998.0233
688.0148, 1003.568
688.4969, 1007.490
688.9791, 1009.354
689.4612, 1008.583
689.9433, 1005.351
690.4254, 999.6284
690.9075, 989.9899
691.3896, 981.5766
691.8718, 984.6824
692.3539, 997.3088
692.8360, 1005.885
693.3181, 1007.948
693.8002, 1007.859
694.2823, 1008.471
694.7645, 1009.603
695.2466, 1010.538
695.7287, 1010.693
696.2108, 1011.528
696.6929, 1013.410
697.1750, 1015.597
697.6572, 1018.499
698.1393, 1021.217
698.6214, 1022.205
699.1035, 1020.961
699.5856, 1017.760
700.0677, 1012.652
700.5499, 1005.819
701.0320, 995.5774
701.5141, 982.9474
701.9962, 975.7547
702.4783, 978.6170
702.9604, 985.7844
703.4426, 985.4009
703.9247, 974.1160
704.4068, 971.1714
704.8889, 982.7000
705.3710, 993.4998
705.8531, 997.4852
706.3353, 997.5045
706.8174, 996.4446
707.2995, 994.4739
707.7816, 992.4968
708.2637, 990.8112
708.7458, 989.2443
709.2280, 986.1861
709.7101, 983.5377
710.1922, 986.6498
710.6743, 996.3358
711.1564, 1004.647
711.6385, 1002.310
712.1207, 991.6349
712.6028, 983.8495
713.0849, 979.1003
713.5670, 975.6432
714.0491, 972.1689
714.5313, 971.2330
715.0134, 976.7365
715.4955, 988.8557
715.9776, 997.9030
716.4597, 1004.791
716.9418, 1007.557
717.4240, 1001.613
717.9061, 994.3649
718.3882, 991.8195
718.8703, 994.3485
719.3524, 1000.266
719.8345, 1010.622
720.3167, 1020.087
720.7988, 1020.512
721.2809, 1015.094
721.7630, 1014.086
722.2451, 1018.871
722.7272, 1021.653
723.2094, 1016.524
723.6915, 1006.563
724.1736, 1000.736
724.6557, 998.7397
725.1378, 1002.182
725.6199, 1018.182
726.1021, 1031.106
726.5842, 1030.315
727.0663, 1022.929
727.5484, 1021.676
728.0305, 1030.192
728.5126, 1036.837
728.9948, 1034.464
729.4769, 1030.651
729.9590, 1033.473
730.4411, 1039.877
730.9232, 1041.118
731.4053, 1034.401
731.8874, 1027.664
732.3695, 1031.576
732.8516, 1043.646
733.3337, 1051.295
733.8159, 1054.294
734.2980, 1055.473
734.7801, 1055.358
735.2622, 1054.666
735.7443, 1053.792
736.2264, 1052.537
736.7086, 1054.375
737.1907, 1063.749
737.6728, 1070.205
738.1549, 1071.840
738.6370, 1069.927
739.1191, 1062.686
739.6013, 1052.418
740.0834, 1047.510
740.5655, 1054.545
741.0476, 1063.322
741.5297, 1064.809
742.0118, 1061.896
742.4940, 1060.715
742.9761, 1061.374
743.4582, 1057.841
743.9403, 1045.543
744.4224, 1030.117
744.9045, 1024.544
745.3867, 1029.990
745.8688, 1035.954
746.3509, 1043.521
746.8330, 1047.554
747.3151, 1043.025
747.7972, 1034.379
748.2794, 1031.146
748.7615, 1035.688
749.2436, 1035.836
749.7257, 1024.478
750.2078, 1014.706
750.6899, 1013.007
751.1721, 1016.744
751.6542, 1024.321
752.1363, 1034.275
752.6184, 1039.788
753.1005, 1031.629
753.5826, 1018.961
754.0648, 1017.437
754.5469, 1023.695
755.0290, 1025.098
755.5111, 1018.538
755.9932, 1008.815
756.4753, 999.2194
756.9575, 990.8890
757.4396, 990.9976
757.9217, 1004.779
758.4038, 1010.068
758.8859, 999.2690
759.3680, 985.5366
759.8502, 976.1358
760.3323, 970.5372
760.8144, 967.8476
761.2965, 968.6334
761.7786, 970.8687
762.2607, 980.9554
762.7429, 985.8831
763.2250, 971.2070
763.7071, 945.8185
764.1892, 926.6191
764.6713, 919.2188
765.1534, 918.1345
765.6356, 922.0068
766.1177, 927.1660
766.5998, 925.0183
767.0819, 916.4957
767.5640, 907.1840
768.0461, 898.6127
768.5283, 894.7666
769.0104, 901.4476
769.4925, 917.2259
769.9746, 924.3454
770.4567, 917.7115
770.9388, 915.5294
771.4210, 926.5657
771.9031, 937.2081
772.3852, 936.3098
772.8673, 926.6545
773.3494, 916.5233
773.8315, 901.5557
774.3137, 895.4125
774.7958, 912.4722
775.2779, 930.3817
775.7600, 927.7618
776.2421, 912.5497
776.7242, 906.5032
777.2064, 917.9144
777.6885, 930.7987
778.1706, 928.4302
778.6527, 917.4100
779.1348, 910.1564
779.6169, 906.9566
780.0991, 906.5488
780.5812, 908.5960
781.0633, 910.6492
781.5454, 909.1713
782.0275, 904.7659
782.5096, 906.6498
782.9918, 918.8866
783.4739, 924.9412
783.9560, 918.0945
784.4381, 907.8797
784.9202, 901.9785
785.4023, 899.4541
785.8845, 896.2061
786.3666, 890.3248
786.8487, 886.4260
787.3308, 886.1229
787.8129, 887.3431
788.2950, 887.4509
788.7772, 888.2493
789.2593, 895.6863
789.7414, 912.3096
790.2235, 924.2632
790.7056, 914.9924
791.1877, 897.5276
791.6699, 891.1265
792.1520, 893.9209
792.6341, 897.4619
793.1162, 898.8749
793.5983, 897.6488
794.0804, 892.3027
794.5626, 884.3492
795.0447, 882.6365
795.5268, 888.5360
796.0089, 890.3619
796.4910, 882.9974
796.9731, 877.7203
797.4553, 885.9814
797.9374, 903.6432
798.4195, 911.4903
798.9016, 904.5660
799.3837, 895.2332
799.8658, 876.8011
800.3480, 863.0277
800.8301, 863.9474
801.3122, 872.7498
801.7943, 878.5927
802.2764, 879.1378
802.7585, 879.1415
803.2407, 880.4902
803.7228, 882.7155
804.2049, 887.4993
804.6870, 892.1337
805.1691, 888.9637
805.6512, 878.3108
806.1334, 873.9584
806.6155, 890.7155
807.0976, 914.2194
807.5797, 908.7603
808.0618, 879.6685
808.5439, 868.4271
809.0261, 882.4296
809.5082, 899.0414
809.9903, 904.0776
810.4724, 900.8170
810.9545, 896.6409
811.4366, 890.5071
811.9188, 887.3683
812.4009, 889.2394
812.8830, 890.8033
813.3651, 887.9223
813.8472, 884.9742
814.3293, 889.2010
814.8115, 900.9811
815.2936, 905.8684
815.7757, 895.3784
816.2578, 885.5977
816.7399, 879.8091
817.2220, 879.3337
817.7042, 890.6298
818.1863, 908.6697
818.6684, 916.0371
819.1505, 901.3101
819.6326, 884.7917
820.1147, 886.8095
820.5969, 897.6674
821.0790, 902.7128
821.5611, 901.5795
822.0432, 898.7472
822.5253, 896.1166
823.0074, 893.0980
823.4896, 888.1804
823.9717, 882.1572
824.4538, 880.1500
824.9359, 882.3926
825.4180, 885.3792
825.9001, 888.6972
826.3823, 890.2996
826.8644, 887.2789
827.3465, 880.9819
827.8286, 880.9269
828.3107, 894.9396
828.7928, 899.2549
829.2749, 881.5521
829.7570, 865.9416
830.2391, 867.1099
830.7213, 877.0296
831.2034, 882.6517
831.6855, 882.5055
832.1676, 879.6182
832.6497, 868.4166
833.1318, 861.6218
833.6140, 872.3591
834.0961, 887.8586
834.5782, 890.5991
835.0603, 879.9727
835.5424, 870.2595
836.0245, 869.1315
836.5067, 873.0692
836.9888, 882.6563
837.4709, 893.1505
837.9530, 894.9823
838.4351, 888.2802
838.9172, 878.3230
839.3994, 867.6008
839.8815, 859.6216
840.3636, 861.6254
840.8457, 871.9623
841.3278, 877.9181
841.8099, 879.1772
842.2921, 881.1036
842.7742, 886.8292
843.2563, 887.5770
843.7384, 870.9648
844.2205, 840.4603
844.7026, 830.8528
845.1848, 856.5148
845.6669, 869.3569
846.1490, 853.7023
846.6311, 836.9616
847.1132, 839.2288
847.5953, 850.9722
848.0775, 852.7150
848.5596, 839.7147
849.0417, 831.2980
849.5238, 830.9372
850.0059, 834.7135
850.4880, 844.1252
850.9702, 854.6777
851.4523, 860.7808
851.9344, 862.4323
852.4165, 864.9806
852.8986, 874.5888
853.3807, 880.5559
853.8629, 871.0740
854.3450, 855.6290
854.8271, 846.5266
855.3092, 843.6423
855.7913, 840.0911
856.2734, 832.6516
856.7556, 828.0051
857.2377, 837.1397
857.7198, 854.2334
858.2019, 864.5815
858.6840, 868.3153
859.1661, 867.5979
859.6483, 863.0148
860.1304, 857.8309
860.6125, 854.7474
861.0946, 854.0004
861.5767, 858.2950
862.0588, 869.3101
862.5410, 871.3204
863.0231, 859.9394
863.5052, 847.6226
863.9873, 839.9160
864.4694, 836.8676
864.9515, 839.3847
865.4337, 849.5622
865.9158, 855.0666
866.3979, 853.1523
866.8800, 850.4285
867.3621, 844.7842
867.8442, 841.9018
868.3264, 849.5789
868.8085, 864.8679
869.2906, 873.6797
869.7727, 870.8934
870.2548, 866.5999
870.7369, 859.8636
871.2191, 855.9498
871.7012, 862.8392
872.1833, 873.5076
872.6654, 874.9713
873.1475, 864.4464
873.6296, 852.8976
874.1118, 843.8820
874.5939, 839.6599
875.0760, 845.7802
875.5581, 856.3643
876.0402, 861.1644
876.5223, 860.1000
877.0045, 861.8538
877.4866, 872.2299
877.9687, 882.5258
878.4508, 879.7693
878.9329, 868.3022
879.4150, 858.3712
879.8972, 850.8382
880.3793, 846.7858
880.8614, 846.5993
881.3435, 848.2427
881.8256, 849.4882
882.3077, 850.7549
882.7899, 854.2395
883.2720, 860.1496
883.7541, 865.4440
884.2362, 869.9284
884.7183, 872.6971
885.2004, 873.4638
885.6826, 871.6710
886.1647, 865.3416
886.6468, 852.4656
887.1289, 845.4171
887.6110, 846.7141
888.0931, 848.9203
888.5753, 850.0718
889.0574, 851.0863
889.5395, 853.3477
890.0216, 856.4968
890.5037, 857.7039
890.9858, 857.6772
891.4680, 854.6043
891.9501, 844.6866
892.4322, 835.6038
892.9143, 832.9442
893.3964, 832.8819
893.8785, 828.5408
894.3607, 818.8305
894.8428, 812.2308
895.3249, 814.3012
895.8070, 816.6964
896.2891, 814.3881
896.7712, 810.8694
897.2534, 810.1660
897.7355, 811.7983
898.2176, 812.4867
898.6997, 810.4823
899.1818, 809.8011
899.6639, 816.1644
900.1461, 823.2901
900.6282, 822.2761
901.1103, 816.6281
901.5924, 815.0181
902.0745, 819.0106
902.5566, 823.1651
903.0388, 823.5318
903.5209, 821.4294
904.0030, 815.8290
904.4851, 809.9522
904.9672, 815.9028
905.4493, 832.3676
905.9315, 842.0123
906.4136, 836.8627
906.8957, 828.3038
907.3778, 832.4758
907.8599, 845.6116
908.3420, 848.0822
908.8242, 840.1849
909.3063, 834.8445
909.7884, 834.9410
910.2705, 835.9240
910.7526, 834.3852
911.2347, 831.8435
911.7169, 832.2266
912.1990, 835.9878
912.6811, 840.2003
913.1632, 846.4187
913.6453, 846.7277
914.1274, 834.8536
914.6096, 823.0385
915.0917, 825.8718
915.5738, 841.2224
916.0559, 849.2817
916.5380, 845.0511
917.0201, 844.4724
917.5023, 853.7183
917.9844, 859.7586
918.4665, 852.9050
918.9486, 840.7782
919.4307, 835.2973
919.9128, 837.1107
920.3950, 839.6996
920.8771, 845.0129
921.3592, 848.0421
921.8413, 845.6519
922.3234, 842.5970
922.8055, 841.5126
923.2877, 842.6317
923.7698, 846.4586
924.2519, 854.1028
924.7340, 860.3246
925.2161, 862.5937
925.6982, 864.3303
926.1804, 868.3807
926.6625, 872.1790
927.1446, 872.4664
927.6267, 869.4061
928.1088, 865.1858
928.5909, 858.5095
929.0730, 855.8003
929.5551, 864.9883
930.0372, 876.0823
930.5193, 877.6472
931.0015, 874.7769
931.4836, 879.6849
931.9657, 893.9223
932.4478, 904.3615
932.9299, 899.4714
933.4120, 891.2488
933.8942, 890.6507
934.3763, 894.7617
934.8584, 901.1703
935.3405, 907.9627
935.8226, 909.8596
936.3047, 904.9773
936.7869, 901.2912
937.2690, 907.9420
937.7511, 920.2071
938.2332, 931.8612
938.7153, 942.0162
939.1974, 948.1809
939.6796, 950.1477
940.1617, 948.6526
940.6438, 943.6414
941.1259, 940.2015
941.6080, 948.0277
942.0901, 963.2675
942.5723, 973.7648
943.0544, 979.2280
943.5365, 977.9559
944.0186, 969.8518
944.5007, 965.4822
944.9828, 974.1924
945.4650, 990.1211
945.9471, 1000.587
946.4292, 1005.695
946.9113, 1004.293
947.3934, 996.1199
947.8755, 995.9032
948.3577, 1010.172
948.8398, 1027.216
949.3219, 1034.614
949.8040, 1033.642
950.2861, 1029.400
950.7682, 1021.427
951.2504, 1013.537
951.7325, 1004.684
952.2146, 1004.651
952.6967, 1020.756
953.1788, 1041.415
953.6609, 1048.367
954.1431, 1042.143
954.6252, 1045.407
955.1073, 1062.554
955.5894, 1071.091
956.0715, 1062.720
956.5536, 1056.525
957.0358, 1064.428
957.5179, 1082.113
958.0000, 1101.033
958.4821, 1120.901
958.9642, 1144.276
959.4464, 1173.929
959.9285, 1200.623
960.4106, 1219.963
960.8927, 1238.988
961.3748, 1260.891
961.8569, 1287.354
962.3391, 1324.518
962.8212, 1377.923
963.3033, 1426.186
963.7854, 1466.739
964.2675, 1505.984
964.7496, 1545.236
965.2318, 1584.500
965.7139, 1625.341
966.1960, 1666.460
966.6781, 1701.933
967.1602, 1728.777
967.6423, 1755.231
968.1245, 1773.069
968.6066, 1800.411
969.0887, 1838.175
969.5708, 1892.360
970.0529, 1965.198
970.5350, 2058.508
971.0172, 2188.270
971.4993, 2338.733
971.9814, 2551.634
972.4635, 2811.395
972.9456, 3156.876
973.4277, 3570.603
973.9099, 4102.242
974.3920, 4801.526
974.8741, 5675.715
975.3562, 6750.202
975.8383, 8016.025
976.3204, 9503.652
976.8026, 11224.91
977.2847, 13177.86
977.7668, 15302.41
978.2489, 17696.02
978.7310, 20473.89
979.2131, 23659.66
979.6953, 27362.02
980.1774, 32278.24
980.6595, 36809.68
981.1416, 41677.99
981.6237, 44804.28
982.1058, 44478.95
982.5880, 41287.63
983.0701, 35996.19
983.5522, 28580.18
984.0343, 21890.73
984.5164, 16616.91
984.9985, 12489.03
985.4807, 9720.711
985.9628, 7788.013
986.4449, 6439.322
986.9270, 5517.374
987.4091, 4818.953
987.8912, 4311.536
988.3734, 3914.461
988.8555, 3625.942
989.3376, 3407.100
989.8197, 3261.076
990.3018, 3156.243
990.7839, 3062.055
991.2661, 2982.500
991.7482, 2937.660
992.2303, 2933.246
992.7124, 2960.982
993.1945, 3018.217
993.6766, 3105.774
994.1588, 3223.003
994.6409, 3371.985
995.1230, 3536.515
995.6051, 3735.001
996.0872, 4016.603
996.5693, 4394.660
997.0515, 4865.961
997.5336, 5394.483
998.0157, 6056.877
998.4978, 6874.223
998.9799, 7874.359
999.4620, 9083.912
999.9442, 10508.46
1000.426, 12151.91
1000.908, 14021.05
1001.391, 16114.63
1001.873, 18393.04
1002.355, 20939.19
1002.837, 23856.26
1003.319, 27041.10
1003.801, 30662.25
1004.283, 34462.12
1004.765, 37663.17
1005.247, 40356.18
1005.730, 41370.28
1006.212, 39891.22
1006.694, 36855.94
1007.176, 32065.75
1007.658, 26624.44
1008.140, 21595.50
1008.622, 17203.51
1009.104, 13611.18
1009.586, 10952.78
1010.069, 8866.992
1010.551, 7370.644
1011.033, 6214.394
1011.515, 5309.205
1011.997, 4593.458
1012.479, 4026.208
1012.961, 3587.009
1013.443, 3233.490
1013.926, 2968.205
1014.408, 2738.913
1014.890, 2526.368
1015.372, 2339.597
1015.854, 2190.813
1016.336, 2067.951
1016.818, 1961.858
1017.300, 1867.948
1017.782, 1777.749
1018.265, 1682.879
1018.747, 1605.920
1019.229, 1573.138
1019.711, 1541.459
1020.193, 1479.276
1020.675, 1407.296
1021.157, 1350.011
1021.639, 1308.754
1022.122, 1273.967
1022.604, 1244.623
1023.086, 1218.383
1023.568, 1196.991
1024.050, 1175.563
1024.532, 1149.997
1025.014, 1123.877
1025.496, 1098.867
1025.978, 1076.782
1026.461, 1064.433
1026.943, 1070.960
1027.425, 1069.200
1027.907, 1043.387
1028.389, 1018.828
1028.871, 1008.104
1029.353, 1004.362
1029.835, 1000.631
1030.318, 996.7737
1030.800, 995.4047
1031.282, 999.5800
1031.764, 999.9860
1032.246, 993.5380
1032.728, 985.0575
1033.210, 975.5781
1033.692, 965.6244
1034.174, 953.0292
1034.656, 940.1030
1035.139, 937.0420
1035.621, 951.5419
1036.103, 959.4926
1036.585, 957.1638
1037.067, 950.5853
1037.549, 937.6784
1038.031, 924.6417
1038.513, 916.8799
1038.996, 913.4860
1039.478, 910.9918
1039.960, 910.8702
1040.442, 907.6763
1040.924, 897.6703
1041.406, 890.1794
1041.888, 888.1189
1042.370, 888.7122
1042.853, 890.4312
1043.335, 892.9642
1043.817, 896.1885
1044.299, 902.8171
1044.781, 898.5858
1045.263, 875.3969
1045.745, 858.6012
1046.227, 855.6520
1046.709, 858.1716
1047.192, 862.5078
1047.674, 865.8956
1048.156, 860.7690
1048.638, 845.2590
1049.120, 836.0494
1049.602, 833.3182
1050.084, 837.6500
1050.566, 852.9028
1051.048, 863.7394
1051.531, 858.2775
1052.013, 846.2888
1052.495, 847.4200
1052.977, 861.5809
1053.459, 863.5917
1053.941, 851.6358
1054.423, 840.6785
1054.905, 832.6353
1055.388, 830.9790
1055.870, 838.7672
1056.352, 849.4454
1056.834, 853.0121
1057.316, 850.5579
1057.798, 849.6796
1058.280, 850.2133
1058.762, 844.0934
1059.245, 830.3007
1059.727, 824.9846
1060.209, 836.3173
1060.691, 849.2695
1061.173, 844.0063
1061.655, 828.7332
1062.137, 827.7435
1062.619, 838.5265
1063.101, 850.5563
1063.583, 862.0681
1064.066, 870.1076
1064.548, 873.6469
1065.030, 873.2585
1065.512, 868.1327
1065.994, 862.2454
1066.476, 863.0407
1066.958, 868.1971
1067.440, 872.3112
1067.923, 875.6127
1068.405, 879.5621
1068.887, 885.0742
1069.369, 895.3163
1069.851, 914.1436
1070.333, 933.7051
1070.815, 942.8336
1071.297, 949.1184
1071.780, 961.5023
1072.262, 979.9474
1072.744, 1006.099
1073.226, 1037.344
1073.708, 1062.531
1074.190, 1074.638
1074.672, 1085.287
1075.154, 1099.260
1075.636, 1119.042
1076.119, 1149.172
1076.601, 1185.120
1077.083, 1222.076
1077.565, 1259.093
1078.047, 1295.325
1078.529, 1330.202
1079.011, 1366.996
1079.493, 1409.923
1079.975, 1451.560
1080.458, 1488.634
1080.940, 1522.375
1081.422, 1561.561
1081.904, 1596.233
1082.386, 1602.267
1082.868, 1573.593
1083.350, 1539.366
1083.832, 1502.750
1084.314, 1463.247
1084.797, 1417.682
1085.279, 1372.393
1085.761, 1332.611
1086.243, 1294.353
1086.725, 1248.995
1087.207, 1196.343
1087.689, 1153.010
1088.171, 1124.267
1088.654, 1092.985
1089.136, 1055.037
1089.618, 1019.505
1090.100, 988.7425
1090.582, 964.2462
1091.064, 948.4604
1091.546, 940.1544
1092.028, 933.4144
1092.510, 928.2924
1092.993, 925.0460
1093.475, 924.6122
1093.957, 918.9794
1094.439, 904.5891
1094.921, 891.9514
1095.403, 890.5940
1095.885, 894.9334
1096.367, 892.4820
1096.849, 884.1076
1097.332, 875.5347
1097.814, 867.1531
1098.296, 861.5782
1098.778, 859.2084
1099.260, 857.6817
1099.742, 855.5394
1100.224, 855.2335
1100.706, 863.7022
1101.189, 873.9731
1101.671, 868.8342
1102.153, 855.0482
1102.635, 846.9113
1103.117, 846.1194
1103.599, 852.3178
1104.081, 864.6777
1104.563, 873.0095
1105.046, 865.1086
1105.528, 855.9378
1106.010, 860.9497
1106.492, 870.9023
1106.974, 873.7036
1107.456, 873.7939
1107.938, 884.1147
1108.420, 904.3257
1108.902, 915.0807
1109.385, 901.3528
1109.867, 892.7809
1110.349, 905.0222
1110.831, 921.9270
1111.313, 935.3364
1111.795, 947.4789
1112.277, 959.3328
1112.759, 972.6561
1113.241, 992.2951
1113.724, 1017.491
1114.206, 1053.306
1114.688, 1113.990
1115.170, 1165.129
1115.652, 1192.425
1116.134, 1218.937
1116.616, 1261.391
1117.098, 1310.805
1117.581, 1351.840
1118.063, 1384.524
1118.545, 1404.953
1119.027, 1413.990
1119.509, 1404.704
1119.991, 1373.416
1120.473, 1338.153
1120.955, 1306.550
1121.438, 1275.341
1121.920, 1239.123
1122.402, 1203.324
1122.884, 1186.291
1123.366, 1185.625
1123.848, 1183.609
1124.330, 1180.372
1124.812, 1184.755
1125.294, 1198.974
1125.776, 1219.731
1126.259, 1245.075
1126.741, 1273.946
1127.223, 1307.832
1127.705, 1342.276
1128.187, 1359.563
1128.669, 1377.098
1129.151, 1431.116
1129.633, 1518.095
1130.116, 1607.271
1130.598, 1688.144
1131.080, 1786.335
1131.562, 1914.473
1132.044, 2069.479
1132.526, 2253.015
1133.008, 2457.546
1133.490, 2669.437
1133.973, 2901.289
1134.455, 3179.635
1134.937, 3504.377
1135.419, 3840.242
1135.901, 4204.284
1136.383, 4535.764
1136.865, 4841.917
1137.347, 5095.202
1137.829, 5289.198
1138.312, 5425.711
1138.794, 5494.688
1139.276, 5513.891
1139.758, 5537.354
1140.240, 5576.923
1140.722, 5516.073
1141.204, 5348.900
1141.686, 5108.772
1142.168, 4795.987
1142.651, 4437.243
1143.133, 4039.566
1143.615, 3631.028
1144.097, 3233.323
1144.579, 2860.646
1145.061, 2553.275
1145.543, 2305.976
1146.025, 2107.201
1146.508, 1951.004
1146.990, 1823.752
1147.472, 1720.087
1147.954, 1633.235
1148.436, 1559.101
1148.918, 1500.824
1149.400, 1465.631
1149.882, 1444.484
1150.365, 1427.040
1150.847, 1416.494
1151.329, 1419.255
1151.811, 1433.537
1152.293, 1452.625
1152.775, 1474.844
1153.257, 1501.862
1153.739, 1530.983
1154.221, 1569.918
1154.703, 1618.903
1155.186, 1681.454
1155.668, 1763.635
1156.150, 1858.116
1156.632, 1954.589
1157.114, 2053.668
1157.596, 2162.395
1158.078, 2275.305
1158.560, 2412.704
1159.043, 2579.067
1159.525, 2756.386
1160.007, 2940.537
1160.489, 3136.047
1160.971, 3345.965
1161.453, 3567.686
1161.935, 3799.716
1162.417, 4037.454
1162.900, 4249.209
1163.382, 4435.182
1163.864, 4599.812
1164.346, 4737.993
1164.828, 4813.588
1165.310, 4814.801
1165.792, 4768.095
1166.274, 4697.619
1166.756, 4579.008
1167.239, 4357.956
1167.721, 4096.171
1168.203, 3863.460
1168.685, 3649.489
1169.167, 3426.298
1169.649, 3198.250
1170.131, 2991.686
1170.613, 2816.383
1171.095, 2652.235
1171.578, 2489.338
1172.060, 2339.515
1172.542, 2200.919
1173.024, 2082.667
1173.506, 2004.113
1173.988, 1940.989
1174.470, 1861.162
1174.952, 1767.961
1175.434, 1687.663
1175.917, 1623.441
1176.399, 1559.053
1176.881, 1492.047
1177.363, 1437.233
1177.845, 1399.855
1178.327, 1366.244
1178.809, 1327.574
1179.291, 1285.976
1179.774, 1242.882
1180.256, 1200.804
1180.738, 1166.088
1181.220, 1138.492
1181.702, 1118.494
1182.184, 1104.306
1182.666, 1089.763
1183.148, 1073.332
1183.630, 1058.786
1184.113, 1049.735
1184.595, 1039.449
1185.077, 1019.562
1185.559, 1000.084
1186.041, 988.4628
1186.523, 981.9464
1187.005, 981.5256
1187.487, 982.2552
1187.969, 969.9409
1188.452, 939.6501
1188.934, 919.8598
1189.416, 920.4100
1189.898, 917.5142
1190.380, 905.2554
1190.862, 897.4302
1191.344, 902.9197
1191.826, 907.5828
1192.309, 895.1857
1192.791, 874.1927
1193.273, 871.1490
1193.755, 884.4571
1194.237, 893.7428
1194.719, 898.3969
1195.201, 892.7682
1195.683, 877.8752
1196.166, 868.6666
1196.648, 871.7126
1197.130, 874.9653
1197.612, 865.7812
1198.094, 854.1935
1198.576, 851.8119
1199.058, 852.2898
1199.540, 846.6533
1200.022, 839.6888
1200.505, 842.0869
1200.987, 851.9022
1201.469, 855.1909
1201.951, 846.9825
1202.433, 839.0016
1202.915, 831.2073
1203.397, 827.2740
1203.879, 829.9455
1204.361, 834.0044
1204.844, 839.4335
1205.326, 840.4883
1205.808, 827.2568
1206.290, 804.9677
1206.772, 799.6370
1207.254, 811.2202
1207.736, 821.9055
1208.218, 830.8496
1208.701, 833.5972
1209.183, 830.1436
1209.665, 832.4267
1210.147, 847.1549
1210.629, 859.5912
1211.111, 850.1687
1211.593, 834.8194
1212.075, 831.8993
1212.557, 834.6245
1213.040, 837.6118
1213.522, 838.3939
1214.004, 833.1339
1214.486, 822.4877
1214.968, 811.9560
1215.450, 800.7558
1215.932, 796.0915
1216.414, 803.5910
1216.896, 811.5194
1217.379, 819.6987
1217.861, 823.9561
1218.343, 821.0784
1218.825, 814.4418
1219.307, 808.0970
1219.789, 802.2601
1220.271, 798.1840
1220.753, 795.7452
1221.236, 792.0317
1221.718, 787.4851
1222.200, 787.7916
1222.682, 793.2781
1223.164, 796.3640
1223.646, 793.0934
1224.128, 788.4615
1224.610, 786.5816
1225.093, 786.0977
1225.575, 785.4265
1226.057, 785.8076
1226.539, 792.8594
1227.021, 799.2797
1227.503, 787.8895
1227.985, 763.3914
1228.467, 759.2750
1228.949, 793.4517
1229.432, 806.6442
1229.914, 784.7759
1230.396, 768.2496
1230.878, 764.5228
1231.360, 765.4402
1231.842, 767.8560
1232.324, 769.7957
1232.806, 768.9007
1233.288, 766.0179
1233.771, 763.9345
1234.253, 761.7433
1234.735, 754.0935
1235.217, 743.4551
1235.699, 740.6196
1236.181, 744.1906
1236.663, 738.9856
1237.145, 719.5219
1237.628, 705.0146
1238.110, 711.3884
1238.592, 720.7330
1239.074, 725.9211
1239.556, 728.5954
1240.038, 727.3752
1240.520, 726.1201
1241.002, 731.0517
1241.484, 738.8653
1241.967, 739.9700
1242.449, 733.5464
1242.931, 730.6620
1243.413, 731.5740
1243.895, 735.7971
1244.377, 743.6916
1244.859, 743.9896
1245.341, 732.5897
1245.823, 721.4083
1246.306, 719.8271
1246.788, 722.7700
1247.270, 725.2327
1247.752, 726.3305
1248.234, 724.3452
1248.716, 720.4881
1249.198, 715.0311
1249.680, 709.7413
1250.163, 708.9401
1250.645, 712.7740
1251.127, 713.6835
1251.609, 706.4744
1252.091, 703.2888
1252.573, 707.9346
1253.055, 712.0341
1253.537, 713.8074
1254.020, 714.7025
1254.502, 716.4445
1254.984, 714.8163
1255.466, 701.6590
1255.948, 683.4819
1256.430, 684.5306
1256.912, 699.1415
1257.394, 706.1765
1257.876, 706.2427
1258.359, 705.6003
1258.841, 705.5076
1259.323, 704.2368
1259.805, 700.9874
1260.287, 699.9702
1260.769, 708.2438
1261.251, 712.6834
1261.733, 701.4918
1262.215, 691.6779
1262.698, 697.0100
1263.180, 705.4943
1263.662, 703.8736
1264.144, 696.8206
1264.626, 696.6089
1265.108, 703.2953
1265.590, 705.8127
1266.072, 704.1911
1266.555, 706.2064
1267.037, 712.1361
1267.519, 715.9008
1268.001, 715.5795
1268.483, 711.6653
1268.965, 703.6707
1269.447, 697.5909
1269.929, 703.6337
1270.411, 708.9500
1270.894, 697.4427
1271.376, 684.3956
1271.858, 681.1287
##END=



