##NAMES=Syngenite
##RRUFFID=R061002
##IDEAL CHEMISTRY=K_2_Ca(S^6+^O_4_)_2_&#183;H_2_O
##LOCALITY=Kalush, Ukraine
##OWNER=RRUFF
##SOURCE=Michael Scott
##DESCRIPTION=Colorless transparent tabular crystal
##STATUS=The identification of this mineral has been confirmed by X-ray diffraction and chemical analysis
##URL=rruff.info/R061002
##MEASURED CHEMISTRY=K_2.00_Ca_1.00_(S_1.00_O_4_)_2_·H_2_O ; light inclusions are (K_1.99_Na_0.01_)_Σ=2_S_1.00_O_4_ (arcanite) ; H not measured but estimated by difference
123.9327, 920.0675
124.4148, 944.2599
124.8969, 963.7919
125.3791, 981.6025
125.8612, 1001.076
126.3433, 1018.761
126.8254, 1029.047
127.3075, 1031.275
127.7896, 1028.771
128.2718, 1021.925
128.7539, 1012.023
129.2360, 1006.083
129.7181, 1006.596
130.2002, 1013.947
130.6823, 1030.479
131.1645, 1058.565
131.6466, 1092.909
132.1287, 1121.834
132.6108, 1144.665
133.0929, 1171.054
133.5750, 1207.449
134.0572, 1254.243
134.5393, 1309.381
135.0214, 1372.417
135.5035, 1443.921
135.9856, 1531.456
136.4677, 1639.205
136.9499, 1748.422
137.4320, 1841.192
137.9141, 1918.284
138.3962, 1971.361
138.8783, 1995.527
139.3604, 1989.123
139.8426, 1970.932
140.3247, 1937.469
140.8068, 1895.452
141.2889, 1855.918
141.7710, 1818.761
142.2531, 1784.980
142.7353, 1755.518
143.2174, 1733.448
143.6995, 1707.880
144.1816, 1675.868
144.6637, 1639.568
145.1458, 1610.728
145.6280, 1590.046
146.1101, 1575.647
146.5922, 1566.648
147.0743, 1566.592
147.5564, 1566.363
148.0385, 1561.233
148.5207, 1550.324
149.0028, 1554.594
149.4849, 1578.780
149.9670, 1616.102
150.4491, 1659.278
150.9312, 1712.394
151.4134, 1767.776
151.8955, 1824.887
152.3776, 1885.095
152.8597, 1942.072
153.3418, 1987.928
153.8239, 2031.617
154.3060, 2086.504
154.7882, 2181.361
155.2703, 2266.088
155.7524, 2321.623
156.2345, 2335.358
156.7166, 2338.459
157.1987, 2333.985
157.6809, 2322.277
158.1630, 2304.383
158.6451, 2271.988
159.1272, 2238.749
159.6093, 2212.338
160.0914, 2198.257
160.5736, 2187.424
161.0557, 2175.643
161.5378, 2163.663
162.0199, 2157.523
162.5020, 2157.320
162.9841, 2164.988
163.4663, 2182.275
163.9484, 2217.847
164.4305, 2256.721
164.9126, 2292.457
165.3947, 2324.842
165.8768, 2354.576
166.3590, 2376.783
166.8411, 2397.486
167.3232, 2425.634
167.8053, 2472.350
168.2874, 2523.521
168.7695, 2568.217
169.2517, 2604.369
169.7338, 2638.958
170.2159, 2681.010
170.6980, 2725.400
171.1801, 2762.088
171.6622, 2780.699
172.1444, 2790.711
172.6265, 2801.522
173.1086, 2813.488
173.5907, 2829.223
174.0728, 2855.255
174.5549, 2889.153
175.0371, 2919.464
175.5192, 2934.468
176.0013, 2941.708
176.4834, 2953.940
176.9655, 2979.297
177.4476, 3005.688
177.9298, 3017.562
178.4119, 3015.319
178.8940, 3006.385
179.3761, 2999.728
179.8582, 2991.322
180.3403, 2970.860
180.8224, 2929.900
181.3046, 2876.625
181.7867, 2824.036
182.2688, 2772.642
182.7509, 2721.199
183.2330, 2665.571
183.7151, 2608.409
184.1973, 2556.536
184.6794, 2518.396
185.1615, 2488.298
185.6436, 2447.612
186.1257, 2392.412
186.6078, 2338.837
187.0900, 2311.934
187.5721, 2309.620
188.0542, 2309.629
188.5363, 2299.565
189.0184, 2281.715
189.5005, 2266.350
189.9827, 2253.870
190.4648, 2245.159
190.9469, 2243.861
191.4290, 2250.243
191.9111, 2255.723
192.3932, 2250.963
192.8754, 2237.505
193.3575, 2235.871
193.8396, 2252.588
194.3217, 2279.122
194.8038, 2290.755
195.2859, 2285.483
195.7681, 2279.182
196.2502, 2284.308
196.7323, 2301.058
197.2144, 2320.963
197.6965, 2346.484
198.1786, 2373.236
198.6608, 2381.490
199.1429, 2368.335
199.6250, 2345.762
200.1071, 2326.538
200.5892, 2312.021
201.0714, 2287.372
201.5535, 2246.937
202.0356, 2191.911
202.5177, 2136.292
202.9998, 2080.938
203.4819, 2022.943
203.9641, 1958.126
204.4462, 1883.668
204.9283, 1814.562
205.4104, 1756.713
205.8925, 1710.449
206.3746, 1663.854
206.8568, 1616.407
207.3389, 1568.790
207.8210, 1521.793
208.3031, 1473.987
208.7852, 1430.988
209.2673, 1395.456
209.7494, 1368.301
210.2316, 1344.566
210.7137, 1326.642
211.1958, 1310.120
211.6779, 1284.241
212.1600, 1243.964
212.6421, 1206.815
213.1243, 1181.139
213.6064, 1169.546
214.0885, 1160.292
214.5706, 1152.377
215.0527, 1146.850
215.5348, 1148.474
216.0170, 1162.060
216.4991, 1173.033
216.9812, 1171.492
217.4633, 1150.938
217.9454, 1137.403
218.4275, 1134.483
218.9097, 1139.862
219.3918, 1144.033
219.8739, 1147.471
220.3560, 1148.923
220.8381, 1146.625
221.3202, 1137.410
221.8024, 1132.871
222.2845, 1135.837
222.7666, 1145.148
223.2487, 1150.751
223.7308, 1147.166
224.2129, 1147.015
224.6951, 1162.278
225.1772, 1204.793
225.6593, 1236.622
226.1414, 1248.232
226.6235, 1240.624
227.1056, 1244.456
227.5878, 1266.243
228.0699, 1292.286
228.5520, 1309.694
229.0341, 1309.995
229.5162, 1318.270
229.9983, 1341.673
230.4805, 1380.911
230.9626, 1415.656
231.4447, 1444.285
231.9268, 1469.689
232.4089, 1494.375
232.8910, 1518.535
233.3732, 1542.440
233.8553, 1566.043
234.3374, 1589.537
234.8195, 1613.369
235.3016, 1639.577
235.7837, 1664.584
236.2658, 1683.513
236.7480, 1693.561
237.2301, 1702.539
237.7122, 1714.230
238.1943, 1731.322
238.6764, 1736.490
239.1585, 1725.838
239.6407, 1705.684
240.1228, 1685.666
240.6049, 1667.526
241.0870, 1646.395
241.5691, 1620.478
242.0512, 1588.735
242.5334, 1555.830
243.0155, 1521.163
243.4976, 1485.569
243.9797, 1450.243
244.4618, 1415.142
244.9439, 1380.859
245.4261, 1347.060
245.9082, 1312.191
246.3903, 1282.801
246.8724, 1260.848
247.3545, 1243.489
247.8366, 1225.250
248.3188, 1206.854
248.8009, 1186.812
249.2830, 1163.689
249.7651, 1134.881
250.2472, 1110.969
250.7293, 1092.025
251.2115, 1078.009
251.6936, 1069.941
252.1757, 1073.126
252.6578, 1073.865
253.1399, 1065.494
253.6220, 1042.655
254.1042, 1024.435
254.5863, 1012.705
255.0684, 1005.072
255.5505, 995.0385
256.0326, 979.4122
256.5147, 966.5895
256.9969, 961.4121
257.4790, 968.9096
257.9611, 970.0253
258.4432, 961.6436
258.9253, 947.2751
259.4074, 937.3757
259.8896, 932.6563
260.3717, 930.9297
260.8538, 931.2507
261.3359, 933.9891
261.8180, 937.8687
262.3001, 943.7068
262.7823, 950.3718
263.2644, 954.0356
263.7465, 952.8259
264.2286, 952.2973
264.7107, 955.9783
265.1928, 965.4498
265.6750, 973.6078
266.1571, 979.8738
266.6392, 984.6741
267.1213, 989.8666
267.6034, 996.3559
268.0855, 1001.140
268.5677, 1002.008
269.0498, 998.0287
269.5319, 994.6055
270.0140, 992.7830
270.4961, 991.4863
270.9782, 986.2307
271.4604, 974.8948
271.9425, 965.3442
272.4246, 963.9824
272.9067, 972.9230
273.3888, 976.6739
273.8709, 971.6253
274.3531, 961.8416
274.8352, 961.5175
275.3173, 974.2043
275.7994, 984.1732
276.2815, 978.7504
276.7636, 956.1342
277.2457, 938.7516
277.7278, 929.9199
278.2100, 927.0747
278.6921, 924.1836
279.1742, 921.6849
279.6563, 916.9148
280.1384, 905.7325
280.6205, 888.0031
281.1027, 876.4053
281.5848, 873.0497
282.0669, 876.0895
282.5490, 884.0356
283.0311, 898.2274
283.5132, 907.0103
283.9954, 898.3968
284.4775, 873.2355
284.9596, 856.4426
285.4417, 852.6343
285.9238, 856.1987
286.4059, 854.1304
286.8881, 846.1205
287.3702, 839.5502
287.8523, 841.6243
288.3344, 850.8005
288.8165, 854.9591
289.2986, 852.0134
289.7808, 844.5945
290.2629, 835.6785
290.7450, 825.4523
291.2271, 818.2972
291.7092, 818.5688
292.1913, 824.7215
292.6735, 830.7073
293.1556, 836.1511
293.6377, 840.1804
294.1198, 840.9614
294.6019, 838.6861
295.0840, 835.1909
295.5662, 830.2576
296.0483, 824.9291
296.5304, 822.4581
297.0125, 823.8168
297.4946, 826.6541
297.9767, 828.3250
298.4589, 828.8663
298.9410, 828.3754
299.4231, 826.8292
299.9052, 824.2610
300.3873, 819.6390
300.8694, 811.4652
301.3516, 805.5154
301.8337, 810.3954
302.3158, 823.5779
302.7979, 835.9709
303.2800, 844.8553
303.7621, 849.0913
304.2443, 845.2201
304.7264, 830.6877
305.2085, 816.5272
305.6906, 813.5302
306.1727, 818.7644
306.6548, 824.8785
307.1370, 829.9406
307.6191, 833.0618
308.1012, 832.8524
308.5833, 828.8348
309.0654, 823.4813
309.5475, 816.4068
310.0297, 809.4329
310.5118, 805.8635
310.9939, 809.7207
311.4760, 816.0361
311.9581, 821.6974
312.4402, 826.5644
312.9224, 829.6510
313.4045, 829.1005
313.8866, 826.6979
314.3687, 825.1019
314.8508, 827.8927
315.3329, 829.8456
315.8151, 826.9866
316.2972, 818.3796
316.7793, 811.2618
317.2614, 808.8561
317.7435, 809.5176
318.2256, 811.2904
318.7078, 815.0347
319.1899, 818.4957
319.6720, 819.5137
320.1541, 817.6530
320.6362, 819.5034
321.1183, 832.9489
321.6005, 848.4294
322.0826, 856.7650
322.5647, 851.2703
323.0468, 843.0914
323.5289, 832.5019
324.0110, 819.4016
324.4932, 812.7008
324.9753, 820.9903
325.4574, 832.4220
325.9395, 837.9543
326.4216, 829.6974
326.9037, 823.2783
327.3859, 821.4960
327.8680, 824.2064
328.3501, 825.9962
328.8322, 824.1155
329.3143, 823.2384
329.7964, 826.6341
330.2786, 842.7098
330.7607, 850.9510
331.2428, 845.6103
331.7249, 829.6727
332.2070, 821.4998
332.6891, 826.2991
333.1712, 832.9735
333.6534, 834.6851
334.1355, 826.8536
334.6176, 824.7415
335.0997, 832.2101
335.5818, 845.4423
336.0639, 851.7664
336.5461, 848.5837
337.0282, 843.4348
337.5103, 839.7310
337.9924, 837.5601
338.4745, 836.6860
338.9566, 837.6288
339.4388, 839.3765
339.9209, 839.1133
340.4030, 835.9543
340.8851, 834.5882
341.3672, 838.5131
341.8493, 848.0214
342.3315, 854.4545
342.8136, 857.6252
343.2957, 858.0749
343.7778, 856.2169
344.2599, 852.0556
344.7420, 847.0015
345.2242, 839.8255
345.7063, 831.6517
346.1884, 830.4500
346.6705, 837.1385
347.1526, 846.0549
347.6347, 850.3204
348.1169, 850.5927
348.5990, 850.7008
349.0811, 853.0790
349.5632, 855.9324
350.0453, 853.8925
350.5274, 846.7550
351.0096, 841.3429
351.4917, 846.9496
351.9738, 859.0464
352.4559, 866.7393
352.9380, 863.2448
353.4201, 856.3667
353.9023, 855.3466
354.3844, 859.7464
354.8665, 865.6106
355.3486, 870.9119
355.8307, 875.8150
356.3128, 880.9655
356.7950, 888.5353
357.2771, 893.4709
357.7592, 890.5463
358.2413, 881.3825
358.7234, 871.9315
359.2055, 861.7831
359.6877, 854.5853
360.1698, 854.0544
360.6519, 864.3348
361.1340, 874.3057
361.6161, 878.2266
362.0982, 878.3868
362.5804, 879.7332
363.0625, 885.6693
363.5446, 891.8256
364.0267, 896.1302
364.5088, 898.1331
364.9909, 898.9399
365.4731, 897.7219
365.9552, 895.7379
366.4373, 894.7751
366.9194, 896.3037
367.4015, 897.7661
367.8836, 899.3414
368.3658, 901.9882
368.8479, 899.9545
369.3300, 885.9834
369.8121, 871.1313
370.2942, 866.6118
370.7763, 882.6301
371.2585, 894.2532
371.7406, 894.3730
372.2227, 883.5470
372.7048, 883.8862
373.1869, 904.7018
373.6690, 924.9073
374.1512, 925.8830
374.6333, 896.3795
375.1154, 881.1328
375.5975, 890.3009
376.0796, 916.3005
376.5617, 928.6204
377.0439, 924.2852
377.5260, 916.1164
378.0081, 911.9337
378.4902, 911.9810
378.9723, 910.3337
379.4544, 905.1193
379.9366, 900.3760
380.4187, 906.0575
380.9008, 922.3946
381.3829, 936.4973
381.8650, 942.1100
382.3471, 940.0970
382.8293, 931.5081
383.3114, 914.7299
383.7935, 899.2667
384.2756, 897.9908
384.7577, 908.1973
385.2398, 918.8552
385.7219, 927.1141
386.2040, 932.4574
386.6862, 931.8721
387.1683, 925.4241
387.6504, 921.3076
388.1325, 930.1736
388.6146, 944.9885
389.0967, 954.1063
389.5789, 949.7451
390.0610, 942.9236
390.5431, 941.8629
391.0252, 945.8080
391.5073, 951.0588
391.9894, 959.0811
392.4716, 965.8419
392.9537, 967.3496
393.4358, 959.5225
393.9179, 952.6072
394.4000, 951.0201
394.8821, 953.1758
395.3643, 955.4236
395.8464, 954.9653
396.3285, 955.7758
396.8106, 960.5114
397.2927, 971.8199
397.7748, 979.5519
398.2570, 979.3912
398.7391, 975.9135
399.2212, 975.1154
399.7033, 978.9371
400.1854, 983.5105
400.6675, 988.9489
401.1497, 995.4402
401.6318, 998.9372
402.1139, 998.9108
402.5960, 996.4525
403.0781, 991.0041
403.5602, 977.6903
404.0424, 974.1275
404.5245, 985.8867
405.0066, 1008.850
405.4887, 1026.479
405.9708, 1038.837
406.4529, 1045.700
406.9351, 1044.366
407.4172, 1034.213
407.8993, 1030.432
408.3814, 1035.728
408.8635, 1045.054
409.3456, 1048.300
409.8278, 1045.780
410.3099, 1045.744
410.7920, 1054.796
411.2741, 1069.587
411.7562, 1079.254
412.2383, 1083.241
412.7205, 1085.162
413.2026, 1086.427
413.6847, 1088.468
414.1668, 1094.934
414.6489, 1108.265
415.1310, 1125.824
415.6132, 1148.633
416.0953, 1175.618
416.5774, 1195.899
417.0595, 1194.987
417.5416, 1187.521
418.0237, 1189.435
418.5059, 1208.767
418.9880, 1230.969
419.4701, 1246.465
419.9522, 1258.846
420.4343, 1276.720
420.9164, 1304.457
421.3986, 1337.450
421.8807, 1375.129
422.3628, 1419.367
422.8449, 1460.602
423.3270, 1487.692
423.8091, 1513.425
424.2913, 1554.514
424.7734, 1610.317
425.2555, 1683.492
425.7376, 1777.807
426.2197, 1893.670
426.7018, 2010.425
427.1840, 2127.464
427.6661, 2247.532
428.1482, 2372.437
428.6303, 2504.299
429.1124, 2637.948
429.5945, 2767.172
430.0767, 2900.634
430.5588, 3069.323
431.0409, 3276.754
431.5230, 3503.015
432.0051, 3731.491
432.4872, 3963.990
432.9694, 4230.483
433.4515, 4530.801
433.9336, 4880.647
434.4157, 5288.959
434.8978, 5760.341
435.3799, 6326.699
435.8621, 6963.416
436.3442, 7721.329
436.8263, 8649.197
437.3084, 9753.427
437.7905, 11137.12
438.2726, 12800.15
438.7548, 14816.04
439.2369, 17383.68
439.7190, 20934.94
440.2011, 24459.63
440.6832, 27804.73
441.1653, 30564.13
441.6474, 31522.95
442.1295, 29166.85
442.6117, 25457.47
443.0938, 21421.25
443.5759, 16953.71
444.0580, 13060.64
444.5401, 10229.02
445.0222, 8165.295
445.5044, 6551.926
445.9865, 5548.923
446.4686, 4764.493
446.9507, 4155.542
447.4328, 3718.829
447.9149, 3359.218
448.3971, 3097.461
448.8792, 2894.892
449.3613, 2726.146
449.8434, 2600.790
450.3255, 2487.940
450.8076, 2386.136
451.2898, 2296.499
451.7719, 2223.262
452.2540, 2167.642
452.7361, 2126.105
453.2182, 2099.839
453.7003, 2088.798
454.1825, 2075.506
454.6646, 2057.753
455.1467, 2046.400
455.6288, 2057.391
456.1109, 2088.128
456.5930, 2121.427
457.0752, 2149.483
457.5573, 2178.663
458.0394, 2217.742
458.5215, 2267.080
459.0036, 2326.779
459.4857, 2394.987
459.9679, 2474.890
460.4500, 2569.811
460.9321, 2684.399
461.4142, 2805.709
461.8963, 2920.441
462.3784, 3036.872
462.8606, 3170.724
463.3427, 3332.770
463.8248, 3512.641
464.3069, 3699.714
464.7890, 3895.006
465.2711, 4116.198
465.7533, 4363.998
466.2354, 4642.145
466.7175, 4951.075
467.1996, 5312.067
467.6817, 5677.168
468.1638, 6042.651
468.6460, 6409.070
469.1281, 6799.791
469.6102, 7244.351
470.0923, 7667.032
470.5744, 8053.103
471.0565, 8413.007
471.5387, 8671.358
472.0208, 8834.231
472.5029, 8884.866
472.9850, 8790.698
473.4671, 8547.689
473.9492, 8229.602
474.4314, 7833.886
474.9135, 7390.194
475.3956, 6974.267
475.8777, 6582.829
476.3598, 6220.350
476.8419, 5891.774
477.3241, 5595.962
477.8062, 5332.244
478.2883, 5102.215
478.7704, 4907.370
479.2525, 4747.081
479.7346, 4623.380
480.2168, 4542.688
480.6989, 4522.155
481.1810, 4532.844
481.6631, 4555.513
482.1452, 4589.569
482.6273, 4647.062
483.1095, 4737.150
483.5916, 4849.853
484.0737, 4975.878
484.5558, 5096.725
485.0379, 5253.213
485.5201, 5458.452
486.0022, 5703.062
486.4843, 5958.892
486.9664, 6222.039
487.4485, 6501.337
487.9306, 6804.056
488.4128, 7130.846
488.8949, 7467.012
489.3770, 7816.508
489.8591, 8174.712
490.3412, 8551.864
490.8233, 8962.083
491.3055, 9295.291
491.7876, 9534.523
492.2697, 9677.793
492.7518, 9719.468
493.2339, 9659.432
493.7160, 9507.399
494.1982, 9255.414
494.6803, 8916.777
495.1624, 8519.939
495.6445, 8057.149
496.1266, 7572.450
496.6087, 7067.787
497.0908, 6566.945
497.5729, 6099.592
498.0551, 5689.306
498.5372, 5310.594
499.0193, 4951.777
499.5014, 4614.263
499.9835, 4304.552
500.4656, 4026.516
500.9478, 3777.093
501.4299, 3552.834
501.9120, 3358.838
502.3941, 3182.052
502.8762, 3023.097
503.3583, 2881.278
503.8405, 2756.166
504.3226, 2656.547
504.8047, 2560.028
505.2868, 2460.953
505.7689, 2361.114
506.2510, 2271.975
506.7332, 2195.010
507.2153, 2126.717
507.6974, 2065.589
508.1795, 2012.444
508.6616, 1962.910
509.1437, 1916.929
509.6259, 1874.962
510.1080, 1838.492
510.5901, 1807.045
511.0722, 1777.665
511.5543, 1750.618
512.0364, 1724.421
512.5186, 1696.230
513.0007, 1666.214
513.4828, 1638.089
513.9649, 1613.928
514.4470, 1593.089
514.9291, 1575.304
515.4113, 1561.391
515.8934, 1548.041
516.3755, 1533.268
516.8576, 1518.025
517.3397, 1503.586
517.8218, 1490.760
518.3040, 1478.302
518.7861, 1465.163
519.2682, 1451.246
519.7503, 1440.593
520.2324, 1436.550
520.7145, 1432.270
521.1967, 1423.625
521.6788, 1408.853
522.1609, 1394.706
522.6430, 1381.445
523.1251, 1368.803
523.6072, 1356.057
524.0894, 1343.086
524.5715, 1331.965
525.0536, 1323.287
525.5357, 1317.066
526.0178, 1314.740
526.4999, 1316.255
526.9821, 1315.757
527.4642, 1306.231
527.9463, 1292.058
528.4284, 1281.515
528.9105, 1276.532
529.3926, 1272.995
529.8748, 1267.557
530.3569, 1261.267
530.8390, 1256.027
531.3211, 1257.949
531.8032, 1256.158
532.2853, 1241.750
532.7675, 1215.941
533.2496, 1197.864
533.7317, 1196.366
534.2138, 1199.908
534.6959, 1202.347
535.1780, 1203.174
535.6602, 1203.697
536.1423, 1204.444
536.6244, 1204.537
537.1065, 1202.661
537.5886, 1198.650
538.0707, 1192.989
538.5529, 1184.573
539.0350, 1174.759
539.5171, 1170.822
539.9992, 1173.249
540.4813, 1174.293
540.9634, 1164.766
541.4456, 1149.441
541.9277, 1144.074
542.4098, 1151.570
542.8919, 1160.853
543.3740, 1160.759
543.8561, 1154.496
544.3383, 1147.708
544.8204, 1142.738
545.3025, 1137.736
545.7846, 1131.794
546.2667, 1124.989
546.7488, 1117.586
547.2310, 1106.469
547.7131, 1097.523
548.1952, 1095.052
548.6773, 1104.284
549.1594, 1105.136
549.6415, 1088.326
550.1237, 1069.236
550.6058, 1064.547
551.0879, 1082.507
551.5700, 1092.604
552.0521, 1086.768
552.5342, 1072.384
553.0164, 1073.786
553.4985, 1092.979
553.9806, 1108.656
554.4627, 1106.484
554.9448, 1091.296
555.4269, 1081.605
555.9091, 1077.649
556.3912, 1076.841
556.8733, 1077.758
557.3554, 1080.034
557.8375, 1083.638
558.3196, 1090.768
558.8018, 1095.109
559.2839, 1088.922
559.7660, 1077.007
560.2481, 1069.277
560.7302, 1071.803
561.2123, 1076.766
561.6945, 1082.339
562.1766, 1088.492
562.6587, 1091.423
563.1408, 1088.674
563.6229, 1084.662
564.1050, 1081.577
564.5872, 1078.950
565.0693, 1078.735
565.5514, 1081.929
566.0335, 1086.383
566.5156, 1088.121
566.9977, 1086.933
567.4799, 1087.064
567.9620, 1091.221
568.4441, 1096.689
568.9262, 1094.895
569.4083, 1086.606
569.8904, 1080.281
570.3726, 1084.351
570.8547, 1092.564
571.3368, 1096.123
571.8189, 1093.446
572.3010, 1091.292
572.7831, 1095.535
573.2653, 1101.967
573.7474, 1105.840
574.2295, 1100.521
574.7116, 1098.541
575.1937, 1105.253
575.6758, 1117.879
576.1580, 1127.040
576.6401, 1130.279
577.1222, 1133.050
577.6042, 1136.666
578.0864, 1141.160
578.5685, 1147.553
579.0506, 1156.401
579.5327, 1165.740
580.0148, 1174.126
580.4969, 1181.556
580.9791, 1188.534
581.4612, 1194.887
581.9433, 1201.443
582.4254, 1208.213
582.9075, 1215.830
583.3896, 1226.181
583.8718, 1241.089
584.3539, 1258.192
584.8360, 1276.525
585.3181, 1295.659
585.8002, 1313.918
586.2823, 1328.305
586.7645, 1343.013
587.2466, 1360.410
587.7287, 1380.984
588.2108, 1403.466
588.6929, 1428.170
589.1750, 1454.495
589.6572, 1481.878
590.1393, 1509.793
590.6214, 1540.453
591.1035, 1575.659
591.5856, 1612.854
592.0677, 1646.860
592.5499, 1677.937
593.0320, 1703.156
593.5141, 1719.284
593.9962, 1728.981
594.4783, 1741.436
594.9604, 1756.536
595.4426, 1767.689
595.9247, 1766.612
596.4068, 1760.029
596.8889, 1755.609
597.3710, 1753.503
597.8531, 1758.306
598.3353, 1775.390
598.8174, 1799.832
599.2995, 1825.628
599.7816, 1850.278
600.2637, 1876.858
600.7458, 1909.253
601.2280, 1944.751
601.7101, 1972.429
602.1922, 1989.200
602.6743, 2003.410
603.1564, 2019.616
603.6385, 2037.907
604.1207, 2042.618
604.6028, 2031.578
605.0849, 2016.389
605.5670, 2008.994
606.0491, 2006.830
606.5313, 1996.461
607.0134, 1973.446
607.4955, 1951.556
607.9776, 1949.409
608.4597, 1958.928
608.9418, 1964.256
609.4240, 1949.974
609.9061, 1937.917
610.3882, 1940.125
610.8703, 1954.711
611.3524, 1974.249
611.8345, 1994.985
612.3167, 2022.117
612.7988, 2054.674
613.2809, 2090.061
613.7630, 2150.715
614.2451, 2241.783
614.7272, 2351.089
615.2094, 2462.517
615.6915, 2570.892
616.1736, 2721.049
616.6557, 2916.123
617.1378, 3154.536
617.6199, 3439.381
618.1021, 3767.446
618.5842, 4124.611
619.0663, 4521.868
619.5484, 4927.919
620.0305, 5359.323
620.5126, 5784.443
620.9948, 6088.872
621.4769, 6201.451
621.9590, 6179.285
622.4411, 6026.995
622.9232, 5730.894
623.4053, 5437.361
623.8875, 5138.561
624.3696, 4877.944
624.8517, 4681.884
625.3338, 4554.427
625.8159, 4486.544
626.2980, 4478.738
626.7802, 4529.651
627.2623, 4637.768
627.7444, 4803.129
628.2265, 5020.955
628.7086, 5278.909
629.1907, 5602.110
629.6729, 6027.279
630.1550, 6556.128
630.6371, 7194.773
631.1192, 7997.739
631.6013, 8871.674
632.0834, 9832.633
632.5656, 10873.30
633.0477, 11595.34
633.5298, 11873.04
634.0119, 11743.96
634.4940, 11194.72
634.9761, 9949.711
635.4583, 8820.122
635.9404, 7783.910
636.4225, 6909.553
636.9046, 6262.549
637.3867, 5860.178
637.8688, 5648.008
638.3510, 5635.756
638.8331, 5791.343
639.3152, 6047.190
639.7973, 6402.408
640.2794, 6879.379
640.7615, 7578.493
641.2437, 8357.460
641.7258, 9142.283
642.2079, 9882.478
642.6900, 10225.74
643.1721, 9838.522
643.6542, 9041.359
644.1364, 7990.575
644.6185, 6635.208
645.1006, 5427.042
645.5827, 4472.629
646.0648, 3724.701
646.5469, 3147.663
647.0291, 2789.614
647.5112, 2502.476
647.9933, 2289.681
648.4754, 2131.470
648.9575, 2002.308
649.4396, 1900.935
649.9218, 1821.859
650.4039, 1767.691
650.8860, 1730.660
651.3681, 1693.895
651.8502, 1659.509
652.3323, 1639.231
652.8145, 1645.805
653.2966, 1665.912
653.7787, 1687.835
654.2608, 1710.773
654.7429, 1740.475
655.2250, 1775.907
655.7072, 1821.222
656.1893, 1877.999
656.6714, 1938.109
657.1535, 2026.204
657.6356, 2140.208
658.1177, 2283.951
658.5999, 2457.133
659.0820, 2656.664
659.5641, 2917.191
660.0462, 3278.173
660.5283, 3650.282
661.0104, 3918.428
661.4926, 4069.967
661.9747, 4035.820
662.4568, 3687.808
662.9389, 3205.261
663.4210, 2741.019
663.9031, 2309.026
664.3853, 1955.270
664.8674, 1730.296
665.3495, 1572.245
665.8316, 1457.589
666.3137, 1389.921
666.7958, 1329.977
667.2780, 1270.617
667.7601, 1221.522
668.2422, 1191.377
668.7243, 1184.820
669.2064, 1177.973
669.6885, 1171.300
670.1707, 1161.275
670.6528, 1137.787
671.1349, 1104.503
671.6170, 1084.459
672.0991, 1088.571
672.5812, 1098.770
673.0634, 1090.741
673.5455, 1072.540
674.0276, 1062.799
674.5097, 1083.307
674.9918, 1101.699
675.4739, 1098.044
675.9561, 1075.789
676.4382, 1061.494
676.9203, 1061.836
677.4024, 1067.499
677.8845, 1078.175
678.3666, 1094.766
678.8488, 1098.191
679.3309, 1084.626
679.8130, 1069.289
680.2951, 1064.595
680.7772, 1068.662
681.2593, 1071.064
681.7415, 1070.745
682.2236, 1069.671
682.7057, 1069.615
683.1878, 1070.177
683.6699, 1070.884
684.1520, 1072.441
684.6342, 1072.679
685.1163, 1070.172
685.5984, 1065.844
686.0805, 1061.196
686.5626, 1054.958
687.0447, 1050.320
687.5268, 1047.247
688.0089, 1046.180
688.4910, 1049.695
688.9731, 1059.218
689.4553, 1067.104
689.9374, 1069.990
690.4195, 1068.714
690.9016, 1065.595
691.3837, 1060.717
691.8658, 1055.354
692.3480, 1047.772
692.8301, 1041.531
693.3122, 1041.668
693.7943, 1049.068
694.2764, 1056.560
694.7585, 1062.395
695.2407, 1066.211
695.7228, 1067.537
696.2049, 1063.134
696.6870, 1062.583
697.1691, 1069.171
697.6512, 1076.462
698.1334, 1075.643
698.6155, 1065.483
699.0976, 1057.828
699.5797, 1054.880
700.0618, 1054.584
700.5439, 1053.555
701.0261, 1052.160
701.5082, 1051.835
701.9903, 1055.958
702.4724, 1058.764
702.9545, 1053.313
703.4366, 1042.195
703.9188, 1033.627
704.4009, 1025.645
704.8830, 1025.356
705.3651, 1041.509
705.8472, 1073.148
706.3293, 1089.921
706.8115, 1088.049
707.2936, 1078.047
707.7757, 1060.796
708.2578, 1036.787
708.7399, 1031.794
709.2220, 1047.737
709.7042, 1064.714
710.1863, 1061.244
710.6684, 1047.068
711.1505, 1039.589
711.6326, 1041.697
712.1147, 1048.807
712.5969, 1064.378
713.0790, 1080.398
713.5611, 1088.328
714.0432, 1077.261
714.5253, 1069.935
715.0074, 1069.238
715.4896, 1072.398
715.9717, 1075.654
716.4538, 1079.175
716.9359, 1081.871
717.4180, 1083.172
717.9001, 1083.932
718.3823, 1085.474
718.8644, 1087.974
719.3465, 1092.598
719.8286, 1103.211
720.3107, 1113.759
720.7928, 1114.769
721.2750, 1109.201
721.7571, 1108.841
722.2392, 1124.563
722.7213, 1141.396
723.2034, 1151.537
723.6855, 1154.306
724.1677, 1159.977
724.6498, 1170.080
725.1319, 1180.526
725.6140, 1189.212
726.0961, 1196.007
726.5782, 1202.422
727.0604, 1208.353
727.5425, 1215.228
728.0246, 1226.481
728.5067, 1239.071
728.9888, 1246.643
729.4709, 1247.283
729.9531, 1247.950
730.4352, 1254.047
730.9173, 1261.923
731.3994, 1267.893
731.8815, 1267.560
732.3636, 1270.714
732.8458, 1280.658
733.3279, 1292.533
733.8100, 1299.602
734.2921, 1301.015
734.7742, 1301.992
735.2563, 1303.599
735.7385, 1304.944
736.2206, 1302.188
736.7027, 1296.991
737.1848, 1297.066
737.6669, 1310.001
738.1490, 1324.950
738.6312, 1334.834
739.1133, 1339.112
739.5954, 1335.977
740.0775, 1312.582
740.5596, 1294.104
741.0417, 1294.699
741.5239, 1310.304
742.0060, 1313.300
742.4881, 1299.483
742.9702, 1282.731
743.4523, 1268.798
743.9344, 1257.247
744.4166, 1245.432
744.8987, 1233.287
745.3808, 1223.444
745.8629, 1218.551
746.3450, 1216.636
746.8271, 1216.093
747.3093, 1216.833
747.7914, 1216.316
748.2735, 1210.907
748.7556, 1205.606
749.2377, 1205.420
749.7198, 1216.307
750.2020, 1215.810
750.6841, 1202.654
751.1662, 1180.186
751.6483, 1142.710
752.1304, 1090.195
752.6125, 1071.183
753.0947, 1094.660
753.5768, 1133.444
754.0589, 1163.888
754.5410, 1185.562
755.0231, 1196.896
755.5052, 1196.990
755.9874, 1187.979
756.4695, 1162.246
756.9516, 1131.076
757.4337, 1110.007
757.9158, 1108.933
758.3979, 1107.920
758.8801, 1104.848
759.3622, 1101.421
759.8443, 1101.636
760.3264, 1105.967
760.8085, 1108.928
761.2906, 1109.640
761.7728, 1107.343
762.2549, 1098.769
762.7370, 1085.717
763.2191, 1073.903
763.7012, 1067.611
764.1833, 1061.952
764.6655, 1052.385
765.1476, 1040.532
765.6297, 1033.310
766.1118, 1033.745
766.5939, 1036.860
767.0760, 1042.825
767.5582, 1050.732
768.0403, 1054.296
768.5224, 1053.301
769.0045, 1049.208
769.4866, 1039.644
769.9688, 1028.270
770.4509, 1026.481
770.9330, 1032.979
771.4151, 1036.361
771.8972, 1024.860
772.3793, 1011.005
772.8615, 1004.118
773.3436, 1005.462
773.8257, 1006.675
774.3078, 1005.961
774.7899, 1005.521
775.2720, 1006.601
775.7542, 1009.394
776.2363, 1011.817
776.7184, 1013.919
777.2005, 1015.451
777.6826, 1017.374
778.1647, 1018.371
778.6469, 1012.716
779.1290, 999.0377
779.6111, 990.7839
780.0932, 1004.736
780.5753, 1023.956
781.0574, 1032.114
781.5396, 1020.714
782.0217, 1013.483
782.5038, 1015.544
782.9859, 1019.404
783.4680, 1017.664
783.9501, 1008.929
784.4323, 1005.415
784.9144, 1008.742
785.3965, 1014.906
785.8786, 1021.677
786.3607, 1027.313
786.8428, 1026.599
787.3250, 1015.654
787.8071, 1006.371
788.2892, 1010.161
788.7713, 1018.400
789.2534, 1020.659
789.7355, 1006.799
790.2177, 997.5900
790.6998, 993.8716
791.1819, 995.1810
791.6640, 1002.780
792.1461, 1017.419
792.6282, 1027.300
793.1104, 1029.573
793.5925, 1027.640
794.0746, 1025.263
794.5567, 1022.661
795.0388, 1020.136
795.5209, 1016.674
796.0031, 1014.920
796.4852, 1018.438
796.9672, 1024.210
797.4493, 1026.172
797.9315, 1019.534
798.4136, 1015.872
798.8957, 1017.780
799.3778, 1022.940
799.8599, 1026.482
800.3420, 1028.401
800.8242, 1028.206
801.3063, 1024.183
801.7884, 1020.035
802.2705, 1022.136
802.7526, 1028.308
803.2347, 1033.343
803.7169, 1034.525
804.1990, 1034.535
804.6811, 1034.178
805.1632, 1033.458
805.6453, 1032.264
806.1274, 1029.927
806.6096, 1028.646
807.0917, 1029.351
807.5738, 1031.244
808.0559, 1032.370
808.5380, 1032.648
809.0201, 1031.166
809.5023, 1024.744
809.9844, 1018.513
810.4665, 1018.870
810.9486, 1024.138
811.4307, 1028.749
811.9128, 1026.947
812.3950, 1028.163
812.8771, 1039.281
813.3592, 1056.779
813.8413, 1063.431
814.3234, 1056.785
814.8055, 1048.479
815.2877, 1042.564
815.7698, 1038.530
816.2519, 1035.694
816.7340, 1033.752
817.2161, 1031.057
817.6982, 1023.696
818.1804, 1017.758
818.6625, 1019.550
819.1446, 1027.675
819.6267, 1033.503
820.1088, 1031.978
820.5909, 1031.640
821.0731, 1035.724
821.5552, 1043.138
822.0373, 1047.006
822.5194, 1047.011
823.0015, 1046.941
823.4836, 1051.321
823.9658, 1055.774
824.4479, 1048.780
824.9300, 1032.983
825.4121, 1022.396
825.8942, 1027.621
826.3763, 1036.509
826.8585, 1043.396
827.3406, 1048.020
827.8227, 1053.168
828.3048, 1060.080
828.7869, 1065.037
829.2690, 1066.384
829.7512, 1064.563
830.2333, 1060.677
830.7154, 1054.880
831.1975, 1049.713
831.6796, 1047.508
832.1617, 1046.163
832.6439, 1042.778
833.1260, 1037.916
833.6081, 1035.275
834.0902, 1041.385
834.5723, 1044.220
835.0544, 1036.677
835.5366, 1020.756
836.0187, 1015.609
836.5008, 1023.127
836.9829, 1032.396
837.4650, 1039.978
837.9471, 1044.690
838.4293, 1040.703
838.9114, 1029.983
839.3935, 1023.288
839.8756, 1032.155
840.3577, 1042.138
840.8398, 1043.407
841.3220, 1036.770
841.8041, 1033.382
842.2862, 1036.989
842.7683, 1038.513
843.2504, 1033.307
843.7325, 1023.774
844.2147, 1022.207
844.6968, 1028.291
845.1789, 1034.904
845.6610, 1038.762
846.1431, 1040.622
846.6252, 1041.251
847.1074, 1040.617
847.5895, 1038.563
848.0716, 1034.437
848.5537, 1029.501
849.0358, 1023.301
849.5179, 1016.604
850.0001, 1012.367
850.4822, 1010.457
850.9643, 1012.083
851.4464, 1019.739
851.9285, 1029.694
852.4106, 1031.812
852.8928, 1028.355
853.3749, 1027.376
853.8570, 1037.390
854.3391, 1046.795
854.8212, 1047.799
855.3033, 1042.485
855.7855, 1039.649
856.2676, 1041.766
856.7497, 1042.263
857.2318, 1037.978
857.7139, 1032.130
858.1960, 1035.284
858.6782, 1046.491
859.1603, 1055.752
859.6424, 1059.014
860.1245, 1058.727
860.6066, 1056.683
861.0887, 1052.990
861.5709, 1047.959
862.0530, 1037.447
862.5351, 1030.840
863.0172, 1029.790
863.4993, 1033.516
863.9814, 1041.950
864.4636, 1055.853
864.9457, 1066.672
865.4278, 1072.898
865.9099, 1073.472
866.3920, 1061.578
866.8741, 1043.316
867.3563, 1031.476
867.8384, 1034.755
868.3205, 1040.185
868.8026, 1043.747
869.2847, 1046.085
869.7668, 1047.839
870.2490, 1046.957
870.7311, 1051.855
871.2132, 1065.255
871.6953, 1081.056
872.1774, 1090.153
872.6595, 1093.621
873.1417, 1094.912
873.6238, 1094.430
874.1059, 1093.229
874.5880, 1091.168
875.0701, 1089.225
875.5522, 1088.542
876.0344, 1090.552
876.5165, 1091.901
876.9986, 1092.168
877.4807, 1092.332
877.9628, 1094.326
878.4449, 1097.762
878.9271, 1097.016
879.4092, 1090.847
879.8913, 1085.583
880.3734, 1087.657
880.8555, 1093.700
881.3376, 1100.483
881.8198, 1108.312
882.3019, 1113.490
882.7840, 1112.862
883.2661, 1111.752
883.7482, 1114.713
884.2303, 1123.021
884.7125, 1122.166
885.1946, 1111.104
885.6767, 1099.350
886.1588, 1096.339
886.6409, 1097.333
887.1230, 1093.912
887.6052, 1085.530
888.0873, 1081.871
888.5694, 1094.089
889.0515, 1105.880
889.5336, 1107.989
890.0157, 1100.312
890.4979, 1092.752
890.9800, 1084.855
891.4621, 1079.399
891.9442, 1080.654
892.4263, 1084.733
892.9084, 1082.292
893.3906, 1074.012
893.8727, 1064.075
894.3548, 1048.876
894.8369, 1038.027
895.3190, 1038.637
895.8011, 1049.250
896.2833, 1058.514
896.7654, 1066.816
897.2475, 1073.215
897.7296, 1078.175
898.2117, 1080.271
898.6938, 1073.249
899.1760, 1059.350
899.6581, 1047.914
900.1402, 1042.664
900.6223, 1041.653
901.1044, 1046.010
901.5865, 1053.431
902.0687, 1058.862
902.5508, 1062.368
903.0329, 1062.699
903.5150, 1058.137
903.9971, 1052.412
904.4792, 1052.649
904.9614, 1057.859
905.4435, 1062.997
905.9256, 1067.345
906.4077, 1069.707
906.8898, 1065.641
907.3719, 1060.566
907.8540, 1061.513
908.3361, 1078.838
908.8182, 1085.383
909.3004, 1074.727
909.7825, 1060.996
910.2646, 1057.997
910.7467, 1064.930
911.2288, 1072.143
911.7109, 1078.762
912.1931, 1087.452
912.6752, 1106.880
913.1573, 1125.702
913.6394, 1130.710
914.1215, 1118.231
914.6036, 1107.588
915.0858, 1099.709
915.5679, 1096.925
916.0500, 1102.781
916.5321, 1116.194
917.0142, 1121.150
917.4963, 1117.739
917.9785, 1114.027
918.4606, 1117.633
918.9427, 1122.044
919.4248, 1116.139
919.9069, 1103.074
920.3890, 1100.405
920.8712, 1126.928
921.3533, 1148.154
921.8354, 1152.719
922.3175, 1146.091
922.7996, 1147.085
923.2817, 1155.703
923.7639, 1163.524
924.2460, 1167.488
924.7281, 1169.320
925.2102, 1169.432
925.6923, 1169.265
926.1744, 1171.530
926.6566, 1183.423
927.1387, 1188.933
927.6208, 1178.681
928.1029, 1166.956
928.5850, 1175.416
929.0671, 1205.148
929.5493, 1227.780
930.0314, 1239.529
930.5135, 1244.621
930.9956, 1243.036
931.4777, 1239.553
931.9598, 1240.803
932.4420, 1249.209
932.9241, 1257.245
933.4062, 1262.547
933.8883, 1267.598
934.3704, 1273.352
934.8525, 1279.653
935.3347, 1291.616
935.8168, 1309.620
936.2989, 1323.706
936.7810, 1319.289
937.2631, 1311.182
937.7452, 1318.969
938.2274, 1341.483
938.7095, 1362.110
939.1916, 1373.768
939.6737, 1384.984
940.1558, 1398.633
940.6379, 1413.649
941.1201, 1425.175
941.6022, 1433.158
942.0843, 1443.578
942.5664, 1460.805
943.0485, 1478.409
943.5306, 1489.116
944.0128, 1494.431
944.4949, 1497.243
944.9770, 1491.348
945.4591, 1493.110
945.9412, 1508.823
946.4233, 1528.546
946.9055, 1537.008
947.3876, 1534.688
947.8697, 1543.234
948.3518, 1567.129
948.8339, 1591.150
949.3160, 1598.014
949.7982, 1597.509
950.2803, 1600.515
950.7624, 1609.202
951.2445, 1619.356
951.7266, 1629.279
952.2087, 1641.888
952.6909, 1661.174
953.1730, 1686.038
953.6551, 1698.642
954.1372, 1699.493
954.6193, 1703.537
955.1014, 1724.435
955.5836, 1749.674
956.0657, 1765.883
956.5478, 1775.763
957.0299, 1795.471
957.5120, 1837.626
957.9941, 1872.144
958.4763, 1886.998
958.9584, 1894.967
959.4405, 1925.341
959.9226, 1976.191
960.4047, 2037.260
960.8868, 2107.528
961.3690, 2180.905
961.8511, 2249.950
962.3332, 2320.852
962.8153, 2402.432
963.2974, 2490.333
963.7795, 2603.356
964.2617, 2753.834
964.7438, 2906.788
965.2259, 3015.237
965.7080, 3095.093
966.1901, 3199.590
966.6722, 3331.811
967.1544, 3482.028
967.6365, 3633.183
968.1186, 3808.026
968.6007, 4007.460
969.0828, 4236.738
969.5649, 4542.704
970.0471, 4931.261
970.5292, 5385.665
971.0113, 5905.122
971.4934, 6485.325
971.9755, 7110.888
972.4576, 7794.601
972.9398, 8597.514
973.4219, 9535.617
973.9040, 10618.01
974.3861, 11820.97
974.8682, 13202.39
975.3503, 14834.56
975.8325, 16743.16
976.3146, 18849.87
976.7967, 21117.14
977.2788, 23735.00
977.7609, 26710.48
978.2430, 30296.31
978.7252, 34740.72
979.2073, 39949.45
979.6894, 46925.60
980.1715, 56590.23
980.6536, 67653.78
981.1357, 81197.25
981.6179, 96745.48
982.1000, 102829.6
982.5821, 99430.51
983.0642, 90242.38
983.5463, 73632.38
984.0284, 55471.84
984.5106, 41321.59
984.9927, 30839.65
985.4748, 22904.14
985.9569, 18431.16
986.4390, 15092.71
986.9211, 12786.99
987.4033, 11232.76
987.8854, 9992.982
988.3675, 9055.118
988.8496, 8357.581
989.3317, 7908.147
989.8138, 7599.469
990.2960, 7371.266
990.7781, 7223.409
991.2602, 7160.786
991.7423, 7183.083
992.2244, 7290.195
992.7065, 7477.655
993.1887, 7761.405
993.6708, 8162.238
994.1529, 8667.176
994.6350, 9234.121
995.1171, 9868.657
995.5992, 10593.64
996.0814, 11375.79
996.5635, 12288.25
997.0456, 13348.94
997.5277, 14577.28
998.0098, 15985.42
998.4919, 17569.86
998.9741, 19420.59
999.4562, 21541.25
999.9383, 23954.44
1000.420, 26571.58
1000.903, 29526.60
1001.385, 33046.24
1001.867, 37072.35
1002.349, 41971.14
1002.831, 47613.31
1003.313, 54403.91
1003.795, 62866.16
1004.277, 73003.85
1004.759, 83599.25
1005.242, 94666.20
1005.724, 101605.5
1006.206, 101387.6
1006.688, 96045.55
1007.170, 85228.95
1007.652, 70387.38
1008.134, 57040.78
1008.616, 45287.14
1009.099, 35647.69
1009.581, 28280.79
1010.063, 22781.04
1010.545, 18587.06
1011.027, 15496.10
1011.509, 13060.35
1011.991, 11243.24
1012.473, 9784.052
1012.955, 8622.791
1013.438, 7691.716
1013.920, 6920.330
1014.402, 6312.690
1014.884, 5789.605
1015.366, 5351.912
1015.848, 4963.728
1016.330, 4597.399
1016.812, 4265.787
1017.294, 4001.746
1017.777, 3793.465
1018.259, 3604.046
1018.741, 3416.698
1019.223, 3251.959
1019.705, 3118.311
1020.187, 3003.653
1020.669, 2884.991
1021.151, 2764.815
1021.633, 2656.389
1022.116, 2561.545
1022.598, 2482.894
1023.080, 2435.334
1023.562, 2396.649
1024.044, 2345.316
1024.526, 2275.406
1025.008, 2208.652
1025.490, 2142.701
1025.973, 2084.926
1026.455, 2041.396
1026.937, 2007.870
1027.419, 1977.696
1027.901, 1948.980
1028.383, 1916.330
1028.865, 1864.738
1029.347, 1823.641
1029.829, 1809.691
1030.312, 1806.804
1030.794, 1794.133
1031.276, 1771.423
1031.758, 1743.087
1032.240, 1708.824
1032.722, 1679.278
1033.204, 1667.990
1033.686, 1664.656
1034.169, 1659.030
1034.651, 1649.676
1035.133, 1640.413
1035.615, 1630.482
1036.097, 1622.805
1036.579, 1620.521
1037.061, 1619.556
1037.543, 1605.398
1038.026, 1582.121
1038.508, 1564.668
1038.990, 1562.961
1039.472, 1562.679
1039.954, 1561.532
1040.436, 1556.191
1040.918, 1540.239
1041.400, 1509.981
1041.882, 1497.202
1042.365, 1505.069
1042.847, 1514.129
1043.329, 1505.149
1043.811, 1489.456
1044.293, 1480.231
1044.775, 1477.450
1045.257, 1471.560
1045.739, 1458.280
1046.221, 1445.943
1046.704, 1435.585
1047.186, 1428.764
1047.668, 1431.063
1048.150, 1439.946
1048.632, 1446.362
1049.114, 1447.008
1049.596, 1446.851
1050.078, 1448.792
1050.561, 1450.967
1051.043, 1452.155
1051.525, 1452.631
1052.007, 1448.280
1052.489, 1438.375
1052.971, 1431.426
1053.453, 1436.766
1053.935, 1445.606
1054.417, 1447.508
1054.900, 1443.997
1055.382, 1440.335
1055.864, 1437.734
1056.346, 1434.921
1056.828, 1431.288
1057.310, 1428.083
1057.792, 1427.140
1058.274, 1428.161
1058.756, 1430.416
1059.239, 1433.938
1059.721, 1437.360
1060.203, 1437.915
1060.685, 1440.110
1061.167, 1447.372
1061.649, 1459.220
1062.131, 1469.204
1062.613, 1477.311
1063.096, 1486.472
1063.578, 1498.835
1064.060, 1511.531
1064.542, 1518.792
1065.024, 1524.870
1065.506, 1536.466
1065.988, 1558.442
1066.470, 1580.737
1066.953, 1602.636
1067.435, 1626.813
1067.917, 1656.645
1068.399, 1690.373
1068.881, 1718.627
1069.363, 1742.972
1069.845, 1779.352
1070.327, 1844.574
1070.809, 1912.796
1071.292, 1973.975
1071.774, 2031.126
1072.256, 2090.702
1072.738, 2152.620
1073.220, 2225.756
1073.702, 2312.626
1074.184, 2406.478
1074.666, 2500.752
1075.148, 2598.118
1075.630, 2701.213
1076.113, 2813.465
1076.595, 2916.259
1077.077, 3003.330
1077.559, 3105.357
1078.041, 3242.108
1078.523, 3397.588
1079.005, 3541.696
1079.487, 3682.176
1079.970, 3838.954
1080.452, 4062.326
1080.934, 4240.706
1081.416, 4353.930
1081.898, 4429.203
1082.380, 4500.270
1082.862, 4559.994
1083.344, 4554.057
1083.827, 4481.013
1084.309, 4365.812
1084.791, 4212.452
1085.273, 4034.267
1085.755, 3827.485
1086.237, 3602.496
1086.719, 3386.036
1087.201, 3177.089
1087.683, 2993.489
1088.166, 2846.312
1088.648, 2711.475
1089.130, 2554.472
1089.612, 2398.721
1090.094, 2275.136
1090.576, 2195.013
1091.058, 2112.385
1091.540, 2019.989
1092.022, 1937.166
1092.505, 1873.859
1092.987, 1826.326
1093.469, 1790.322
1093.951, 1762.474
1094.433, 1732.171
1094.915, 1690.558
1095.397, 1653.383
1095.879, 1626.467
1096.362, 1603.439
1096.844, 1577.270
1097.326, 1548.801
1097.808, 1529.101
1098.290, 1518.405
1098.772, 1513.206
1099.254, 1513.432
1099.736, 1516.037
1100.219, 1520.340
1100.701, 1525.411
1101.183, 1528.720
1101.665, 1530.252
1102.147, 1529.134
1102.629, 1523.993
1103.111, 1521.522
1103.593, 1534.132
1104.075, 1550.799
1104.557, 1556.716
1105.040, 1548.411
1105.522, 1547.240
1106.004, 1553.666
1106.486, 1569.703
1106.968, 1599.464
1107.450, 1635.647
1107.932, 1665.664
1108.414, 1689.704
1108.897, 1707.611
1109.379, 1710.435
1109.861, 1726.104
1110.343, 1769.991
1110.825, 1819.356
1111.307, 1856.171
1111.789, 1882.677
1112.271, 1923.383
1112.754, 1979.037
1113.236, 2054.078
1113.718, 2167.303
1114.200, 2284.791
1114.682, 2378.483
1115.164, 2469.846
1115.646, 2594.618
1116.128, 2756.343
1116.610, 2924.427
1117.093, 3101.187
1117.575, 3252.677
1118.057, 3372.433
1118.539, 3437.824
1119.021, 3418.216
1119.503, 3315.396
1119.985, 3183.765
1120.467, 3016.052
1120.949, 2851.136
1121.432, 2695.068
1121.914, 2551.941
1122.396, 2419.329
1122.878, 2306.941
1123.360, 2233.304
1123.842, 2207.502
1124.324, 2193.455
1124.806, 2185.297
1125.289, 2187.023
1125.771, 2201.216
1126.253, 2226.233
1126.735, 2252.179
1127.217, 2284.492
1127.699, 2340.486
1128.181, 2428.251
1128.663, 2537.431
1129.146, 2674.252
1129.628, 2823.615
1130.110, 2965.708
1130.592, 3103.731
1131.074, 3290.276
1131.556, 3522.500
1132.038, 3779.062
1132.520, 4033.809
1133.002, 4322.703
1133.484, 4661.622
1133.967, 5056.669
1134.449, 5512.043
1134.931, 6031.870
1135.413, 6593.285
1135.895, 7193.489
1136.377, 7814.145
1136.859, 8496.095
1137.341, 9155.437
1137.824, 9698.646
1138.306, 10133.36
1138.788, 10569.20
1139.270, 11008.07
1139.752, 11455.84
1140.234, 11940.71
1140.716, 12339.27
1141.198, 12570.15
1141.681, 12567.67
1142.163, 12216.97
1142.645, 11459.38
1143.127, 10539.19
1143.609, 9400.808
1144.091, 8276.342
1144.573, 7239.915
1145.055, 6305.609
1145.537, 5529.396
1146.020, 4888.594
1146.502, 4364.370
1146.984, 3973.061
1147.466, 3642.464
1147.948, 3362.031
1148.430, 3132.608
1148.912, 2960.208
1149.394, 2838.052
1149.876, 2736.257
1150.359, 2655.615
1150.841, 2594.100
1151.323, 2555.631
1151.805, 2532.074
1152.287, 2523.619
1152.769, 2525.931
1153.251, 2535.036
1153.733, 2551.240
1154.216, 2575.407
1154.698, 2608.013
1155.180, 2654.644
1155.662, 2717.594
1156.144, 2796.893
1156.626, 2893.966
1157.108, 3007.504
1157.590, 3139.379
1158.073, 3289.654
1158.555, 3445.499
1159.037, 3604.302
1159.519, 3776.823
1160.001, 3968.551
1160.483, 4180.238
1160.965, 4421.113
1161.447, 4685.111
1161.929, 4954.630
1162.411, 5231.429
1162.894, 5498.540
1163.376, 5757.349
1163.858, 5985.207
1164.340, 6174.250
1164.822, 6308.852
1165.304, 6379.089
1165.786, 6383.927
1166.268, 6300.235
1166.751, 6117.281
1167.233, 5895.967
1167.715, 5654.126
1168.197, 5395.754
1168.679, 5117.630
1169.161, 4833.516
1169.643, 4561.365
1170.125, 4304.443
1170.608, 4057.966
1171.090, 3817.115
1171.572, 3597.106
1172.054, 3412.167
1172.536, 3253.527
1173.018, 3112.470
1173.500, 2984.925
1173.982, 2862.379
1174.464, 2739.204
1174.947, 2629.679
1175.429, 2537.447
1175.911, 2453.256
1176.393, 2367.082
1176.875, 2283.617
1177.357, 2218.523
1177.839, 2168.235
1178.321, 2114.360
1178.803, 2042.950
1179.286, 1978.424
1179.768, 1923.629
1180.250, 1879.747
1180.732, 1854.382
1181.214, 1839.610
1181.696, 1811.826
1182.178, 1770.748
1182.660, 1736.347
1183.142, 1728.192
1183.625, 1713.029
1184.107, 1680.712
1184.589, 1640.284
1185.071, 1604.074
1185.553, 1573.127
1186.035, 1552.852
1186.517, 1544.369
1186.999, 1539.554
1187.482, 1538.552
1187.964, 1536.002
1188.446, 1529.866
1188.928, 1521.022
1189.410, 1512.013
1189.892, 1502.304
1190.374, 1488.231
1190.856, 1466.483
1191.339, 1452.134
1191.821, 1461.423
1192.303, 1470.526
1192.785, 1466.192
1193.267, 1452.140
1193.749, 1444.153
1194.231, 1441.359
1194.713, 1439.592
1195.195, 1438.263
1195.677, 1435.666
1196.160, 1427.347
1196.642, 1420.999
1197.124, 1423.659
1197.606, 1433.619
1198.088, 1434.635
1198.570, 1427.743
1199.052, 1418.684
1199.534, 1405.308
1200.017, 1397.777
1200.499, 1406.907
1200.981, 1419.409
1201.463, 1422.398
1201.945, 1416.142
1202.427, 1419.101
1202.909, 1430.105
1203.391, 1438.639
1203.874, 1436.699
1204.356, 1432.992
1204.838, 1432.097
1205.320, 1431.331
1205.802, 1426.595
1206.284, 1418.068
1206.766, 1414.728
1207.248, 1416.632
1207.730, 1419.333
1208.213, 1420.278
1208.695, 1420.988
1209.177, 1421.341
1209.659, 1422.515
1210.141, 1427.301
1210.623, 1435.451
1211.105, 1440.334
1211.587, 1441.369
1212.069, 1438.219
1212.552, 1423.900
1213.034, 1412.514
1213.516, 1415.680
1213.998, 1425.322
1214.480, 1425.753
1214.962, 1417.698
1215.444, 1417.756
1215.926, 1428.348
1216.409, 1434.733
1216.891, 1423.206
1217.373, 1407.757
1217.855, 1393.446
1218.337, 1382.325
1218.819, 1381.516
1219.301, 1390.000
1219.783, 1394.093
1220.266, 1391.224
1220.748, 1386.395
1221.230, 1383.089
1221.712, 1378.699
1222.194, 1370.520
1222.676, 1360.416
1223.158, 1355.524
1223.640, 1355.053
1224.122, 1351.266
1224.604, 1341.341
1225.087, 1333.712
1225.569, 1332.979
1226.051, 1337.815
1226.533, 1350.559
1227.015, 1366.880
1227.497, 1366.189
1227.979, 1351.147
1228.461, 1339.290
1228.944, 1336.010
1229.426, 1335.236
1229.908, 1336.191
1230.390, 1335.595
1230.872, 1329.871
1231.354, 1321.286
1231.836, 1322.610
1232.318, 1332.105
1232.801, 1340.740
1233.283, 1346.459
1233.765, 1348.391
1234.247, 1342.543
1234.729, 1336.078
1235.211, 1333.577
1235.693, 1334.123
1236.175, 1331.202
1236.657, 1326.693
1237.140, 1329.549
1237.622, 1349.736
1238.104, 1363.692
1238.586, 1359.272
1239.068, 1349.584
1239.550, 1341.310
1240.032, 1334.472
1240.514, 1329.831
1240.996, 1326.968
1241.479, 1324.292
1241.961, 1319.385
1242.443, 1318.120
1242.925, 1325.656
1243.407, 1331.750
1243.889, 1326.443
1244.371, 1313.968
1244.853, 1312.462
1245.336, 1318.792
1245.818, 1323.138
1246.300, 1318.416
1246.782, 1316.238
1247.264, 1319.163
1247.746, 1322.639
1248.228, 1324.541
1248.710, 1323.757
1249.193, 1314.353
1249.675, 1299.552
1250.157, 1289.412
1250.639, 1287.252
1251.121, 1292.351
1251.603, 1308.721
1252.085, 1322.276
1252.567, 1316.711
1253.049, 1302.267
1253.531, 1297.036
1254.014, 1299.398
1254.496, 1303.283
1254.978, 1313.831
1255.460, 1311.168
1255.942, 1290.662
1256.424, 1269.934
1256.906, 1265.711
1257.388, 1270.176
1257.871, 1273.818
1258.353, 1276.668
1258.835, 1278.404
1259.317, 1269.242
1259.799, 1292.872
1260.281, 1359.862
1260.763, 1415.362
1261.245, 1403.878
1261.728, 1362.472
1262.210, 1318.753
1262.692, 1279.097
1263.174, 1258.734
1263.656, 1261.309
1264.138, 1263.594
1264.620, 1263.735
1265.102, 1264.431
1265.584, 1269.916
1266.067, 1275.007
1266.549, 1275.638
1267.031, 1272.242
1267.513, 1265.451
1267.995, 1254.502
1268.477, 1249.036
1268.959, 1249.795
1269.441, 1255.763
1269.923, 1275.557
1270.406, 1290.558
1270.888, 1283.186
1271.370, 1266.406
1271.852, 1261.470
1272.334, 1267.424
1272.816, 1270.720
1273.298, 1270.346
1273.780, 1271.051
1274.263, 1281.791
1274.745, 1286.388
1275.227, 1274.277
1275.709, 1257.369
1276.191, 1253.476
1276.673, 1260.595
1277.155, 1273.152
1277.637, 1289.820
1278.120, 1301.402
1278.602, 1297.036
1279.084, 1296.882
1279.566, 1308.260
1280.048, 1321.320
1280.530, 1320.321
1281.012, 1311.316
1281.494, 1306.894
1281.976, 1307.987
1282.458, 1313.074
1282.941, 1326.306
1283.423, 1334.692
1283.905, 1335.222
1284.387, 1333.343
1284.869, 1335.209
1285.351, 1339.055
1285.833, 1343.264
1286.315, 1347.376
1286.798, 1349.763
1287.280, 1351.313
1287.762, 1347.541
1288.244, 1337.034
1288.726, 1325.531
1289.208, 1315.569
1289.690, 1310.096
1290.172, 1317.224
1290.654, 1331.594
1291.137, 1330.442
1291.619, 1312.035
1292.101, 1296.288
1292.583, 1285.559
1293.065, 1279.249
1293.547, 1280.128
1294.029, 1282.112
1294.511, 1279.989
1294.994, 1276.245
1295.476, 1276.618
1295.958, 1282.048
1296.440, 1287.096
1296.922, 1287.531
1297.404, 1287.066
1297.886, 1290.424
1298.368, 1291.457
1298.850, 1285.970
1299.333, 1279.841
1299.815, 1280.658
1300.297, 1288.415
1300.779, 0.0000000E+00
##END=



