##NAMES=Szaibelyite
##RRUFFID=R060289
##IDEAL CHEMISTRY=MgBO_2_(OH)
##LOCALITY=Franklin, Sussex County, New Jersey, USA
##OWNER=RRUFF
##SOURCE=Herb Obodda
##DESCRIPTION=Pink massive, associated with rhodochrosite.
##STATUS=The identification of this mineral has been confirmed by X-ray diffraction and chemical analysis
##URL=rruff.info/R060289
##MEASURED CHEMISTRY=(Mg_0.66_Mn^2+^_0.34_)_Σ=1_BO_2_(OH); = gray phase: B and OH assumed by stoichiometry; light rim: (Mn^2+^_0.70_Ca_0.18_Mg_0.12_)_Σ=1_CO_3_ is rhodochrosite; CO_2_ estimated by difference
92.52344, 117.1330
93.00555, 116.1258
93.48767, 116.3417
93.96979, 120.5626
94.45190, 124.5542
94.93402, 127.6232
95.41614, 128.5373
95.89825, 128.1989
96.38037, 127.7925
96.86249, 127.3407
97.34460, 127.0378
97.82672, 127.1585
98.30884, 127.3123
98.79095, 127.3917
99.27307, 127.2972
99.75519, 127.1146
100.2373, 127.3017
100.7194, 127.9218
101.2015, 128.6617
101.6837, 129.6207
102.1658, 130.5605
102.6479, 131.3922
103.1300, 132.1386
103.6121, 132.5654
104.0942, 132.3816
104.5764, 131.7552
105.0585, 130.8411
105.5406, 129.6584
106.0227, 128.2163
106.5048, 126.5412
106.9869, 124.5145
107.4691, 122.3112
107.9512, 119.8246
108.4333, 117.2052
108.9154, 114.8329
109.3975, 113.1169
109.8796, 112.1866
110.3618, 111.0285
110.8439, 109.6185
111.3260, 108.0039
111.8081, 106.2122
112.2902, 104.2442
112.7723, 102.0542
113.2544, 99.57368
113.7366, 96.67046
114.2187, 93.66770
114.7008, 90.48975
115.1829, 87.25123
115.6650, 84.02736
116.1471, 80.83067
116.6293, 77.72749
117.1114, 74.89455
117.5935, 72.32835
118.0756, 69.97548
118.5577, 67.85894
119.0398, 65.94930
119.5220, 64.14015
120.0041, 62.36803
120.4862, 60.71856
120.9683, 59.32690
121.4504, 58.25788
121.9325, 57.32641
122.4147, 56.44207
122.8968, 55.61306
123.3789, 54.72599
123.8610, 53.55714
124.3431, 52.35601
124.8252, 51.40041
125.3074, 50.84647
125.7895, 50.49744
126.2716, 49.89944
126.7537, 48.79269
127.2358, 47.92141
127.7179, 47.59405
128.2001, 47.57890
128.6822, 47.56950
129.1643, 47.37329
129.6464, 47.00921
130.1285, 46.73031
130.6107, 46.77473
131.0928, 46.67654
131.5749, 46.24685
132.0570, 45.57174
132.5391, 44.83949
133.0212, 44.20054
133.5034, 43.63936
133.9855, 43.33072
134.4676, 43.42225
134.9497, 43.59045
135.4318, 43.67856
135.9139, 43.66346
136.3960, 43.58533
136.8782, 43.47404
137.3603, 43.31620
137.8424, 43.20940
138.3245, 43.22008
138.8066, 43.26141
139.2887, 43.22308
139.7709, 43.07116
140.2530, 42.87884
140.7351, 42.75571
141.2172, 42.69656
141.6993, 42.58513
142.1814, 42.31886
142.6636, 41.94793
143.1457, 41.65955
143.6278, 41.52686
144.1099, 41.45992
144.5920, 41.38704
145.0741, 41.30596
145.5563, 41.20613
146.0384, 41.07547
146.5205, 40.91202
147.0026, 40.73791
147.4847, 40.54287
147.9668, 40.34674
148.4490, 40.13189
148.9311, 39.90332
149.4132, 39.72172
149.8953, 39.72343
150.3774, 40.13048
150.8595, 40.24675
151.3417, 39.77871
151.8238, 39.18831
152.3059, 38.87561
152.7880, 38.98534
153.2701, 39.33210
153.7522, 39.44736
154.2344, 39.04021
154.7165, 38.70967
155.1986, 38.50880
155.6807, 38.38610
156.1628, 38.29148
156.6449, 38.20649
157.1271, 38.11154
157.6092, 37.91776
158.0913, 37.45617
158.5734, 37.09914
159.0555, 36.99721
159.5376, 37.08841
160.0198, 37.22086
160.5019, 37.33245
160.9840, 37.40794
161.4661, 37.41351
161.9482, 37.29237
162.4303, 37.16410
162.9125, 37.10707
163.3946, 37.11919
163.8767, 37.15606
164.3588, 37.18279
164.8409, 37.22367
165.3230, 37.32210
165.8052, 37.50896
166.2873, 37.73474
166.7694, 37.94715
167.2515, 38.15946
167.7336, 38.31264
168.2157, 38.33046
168.6979, 38.28963
169.1800, 38.26319
169.6621, 38.24791
170.1442, 38.29223
170.6263, 38.56095
171.1084, 39.23987
171.5906, 39.85204
172.0727, 40.23732
172.5548, 40.47392
173.0369, 40.66649
173.5190, 40.86976
174.0011, 41.08567
174.4833, 41.33080
174.9654, 41.62300
175.4475, 41.93235
175.9296, 42.26353
176.4117, 42.60645
176.8938, 42.94337
177.3760, 43.25542
177.8581, 43.54013
178.3402, 43.89872
178.8223, 44.32946
179.3044, 44.82311
179.7865, 45.41964
180.2687, 46.08628
180.7508, 46.74458
181.2329, 47.33376
181.7150, 47.85293
182.1971, 48.24788
182.6792, 48.26976
183.1614, 48.38686
183.6435, 48.94897
184.1256, 49.93607
184.6077, 50.99666
185.0898, 51.84668
185.5719, 52.45619
186.0541, 52.94588
186.5362, 53.25731
187.0183, 53.48203
187.5004, 53.67994
187.9825, 53.85482
188.4646, 54.04597
188.9468, 54.29139
189.4289, 54.58401
189.9110, 54.91209
190.3931, 55.31910
190.8752, 55.74609
191.3573, 56.10822
191.8395, 56.39724
192.3216, 56.62503
192.8037, 56.73669
193.2858, 56.78911
193.7679, 56.92225
194.2500, 57.24271
194.7322, 57.69648
195.2143, 58.11813
195.6964, 58.50378
196.1785, 58.85188
196.6606, 59.19379
197.1427, 59.50879
197.6249, 59.74405
198.1070, 59.82749
198.5891, 59.77963
199.0712, 59.81164
199.5533, 59.97484
200.0354, 60.16983
200.5176, 60.43623
200.9997, 60.70876
201.4818, 60.85385
201.9639, 60.74746
202.4460, 60.38406
202.9281, 60.01479
203.4103, 59.55024
203.8924, 59.16721
204.3745, 59.10238
204.8566, 59.19477
205.3387, 59.04974
205.8208, 58.27367
206.3030, 56.76277
206.7851, 55.56527
207.2672, 54.89753
207.7493, 54.30026
208.2314, 53.58234
208.7135, 52.77014
209.1957, 52.01413
209.6778, 51.45745
210.1599, 51.13129
210.6420, 50.78679
211.1241, 50.46167
211.6062, 50.09194
212.0884, 49.58473
212.5705, 48.97525
213.0526, 48.42329
213.5347, 48.08728
214.0168, 48.00208
214.4989, 47.81270
214.9811, 47.43593
215.4632, 47.02898
215.9453, 46.70259
216.4274, 46.45879
216.9095, 46.21692
217.3916, 45.89911
217.8737, 45.50374
218.3559, 45.16264
218.8380, 44.89472
219.3201, 44.66846
219.8022, 44.46510
220.2843, 44.28330
220.7664, 44.10674
221.2486, 43.92950
221.7307, 43.74668
222.2128, 43.54559
222.6949, 43.29759
223.1770, 43.04364
223.6591, 42.80525
224.1413, 42.57150
224.6234, 42.43184
225.1055, 42.55857
225.5876, 42.82137
226.0697, 42.98046
226.5518, 42.92226
227.0340, 42.75236
227.5161, 42.61895
227.9982, 42.52779
228.4803, 42.45305
228.9624, 42.34267
229.4445, 42.24648
229.9267, 42.25194
230.4088, 42.45295
230.8909, 42.72231
231.3730, 42.81057
231.8551, 42.67368
232.3372, 42.46008
232.8194, 42.10810
233.3015, 41.75804
233.7836, 41.61632
234.2657, 41.83491
234.7478, 42.20348
235.2299, 42.20443
235.7121, 41.59946
236.1942, 41.10281
236.6763, 40.98867
237.1584, 41.04709
237.6405, 41.06201
238.1227, 40.93893
238.6048, 40.72801
239.0869, 40.56039
239.5690, 40.47813
240.0511, 40.36352
240.5332, 40.17161
241.0154, 39.95192
241.4975, 39.75276
241.9796, 39.59464
242.4617, 39.46819
242.9438, 39.35172
243.4259, 39.23710
243.9081, 39.14810
244.3902, 39.13265
244.8723, 39.12011
245.3544, 39.01882
245.8365, 38.79609
246.3186, 38.53198
246.8008, 38.41545
247.2829, 38.62114
247.7650, 38.72538
248.2471, 38.72899
248.7292, 38.62233
249.2113, 38.31746
249.6935, 37.80296
250.1756, 37.26458
250.6577, 37.07598
251.1398, 37.60770
251.6219, 37.97268
252.1040, 38.07647
252.5862, 38.07010
253.0683, 38.07361
253.5504, 38.12481
254.0325, 38.20229
254.5146, 38.26678
254.9967, 38.25788
255.4789, 38.36344
255.9610, 38.68610
256.4431, 39.06208
256.9252, 39.33743
257.4073, 39.48005
257.8894, 39.58551
258.3716, 39.78919
258.8537, 40.16115
259.3358, 40.44325
259.8179, 40.48204
260.3000, 40.52348
260.7821, 40.83826
261.2643, 41.46008
261.7464, 42.12339
262.2285, 42.52840
262.7106, 42.60153
263.1927, 42.74836
263.6748, 43.00756
264.1570, 43.32084
264.6391, 43.67443
265.1212, 44.05855
265.6033, 44.38664
266.0854, 44.54940
266.5675, 44.53719
267.0497, 44.60769
267.5318, 44.75777
268.0139, 44.99762
268.4960, 45.37958
268.9781, 45.89587
269.4602, 46.40887
269.9424, 46.81995
270.4245, 47.13033
270.9066, 47.41855
271.3887, 47.63119
271.8708, 47.86507
272.3529, 48.22762
272.8351, 48.70742
273.3172, 49.16264
273.7993, 49.55974
274.2814, 49.83966
274.7635, 49.88375
275.2456, 49.41675
275.7278, 49.01783
276.2099, 49.23114
276.6920, 49.97327
277.1741, 50.54436
277.6562, 50.53859
278.1383, 50.19363
278.6205, 50.05722
279.1026, 50.21992
279.5847, 50.39201
280.0668, 50.39921
280.5489, 50.25320
281.0310, 49.99344
281.5132, 49.51593
281.9953, 49.05793
282.4774, 48.96455
282.9595, 49.28997
283.4416, 49.64701
283.9237, 49.82219
284.4059, 49.84050
284.8880, 49.79425
285.3701, 49.66286
285.8522, 49.53109
286.3343, 49.48910
286.8164, 49.53248
287.2986, 49.59633
287.7807, 49.66922
288.2628, 49.73857
288.7449, 49.76139
289.2270, 49.72512
289.7091, 49.65121
290.1913, 49.53988
290.6734, 49.40351
291.1555, 49.28551
291.6376, 49.18185
292.1197, 49.11334
292.6018, 49.18765
293.0840, 49.53326
293.5661, 49.71937
294.0482, 49.28553
294.5303, 48.51427
295.0124, 47.91505
295.4945, 47.79486
295.9767, 47.90717
296.4588, 47.82464
296.9409, 47.52610
297.4230, 47.10225
297.9051, 46.46063
298.3872, 45.75909
298.8694, 45.20750
299.3515, 44.92966
299.8336, 44.71176
300.3157, 44.23955
300.7978, 43.46352
301.2799, 42.71482
301.7621, 42.16629
302.2442, 41.67634
302.7263, 41.09440
303.2084, 40.37297
303.6905, 39.67855
304.1726, 39.24340
304.6548, 39.08533
305.1369, 38.76984
305.6190, 38.06104
306.1011, 37.25479
306.5832, 36.56273
307.0653, 36.00029
307.5475, 35.51109
308.0296, 35.07787
308.5117, 34.69527
308.9938, 34.29094
309.4759, 33.88862
309.9580, 33.41704
310.4402, 32.75819
310.9223, 31.97595
311.4044, 31.30799
311.8865, 30.98364
312.3686, 30.91930
312.8507, 30.74055
313.3329, 30.40681
313.8150, 30.01327
314.2971, 29.53127
314.7792, 29.03633
315.2613, 28.68179
315.7434, 28.61555
316.2256, 28.67929
316.7077, 28.50260
317.1898, 27.98847
317.6719, 27.49795
318.1540, 27.20121
318.6361, 27.00691
319.1183, 26.84498
319.6004, 26.71727
320.0825, 26.54946
320.5646, 26.17986
321.0467, 25.55362
321.5288, 25.07754
322.0110, 25.00249
322.4931, 25.06203
322.9752, 25.07657
323.4573, 25.01938
323.9394, 24.90874
324.4215, 24.71695
324.9037, 24.44846
325.3858, 24.29354
325.8679, 24.40273
326.3500, 24.51635
326.8321, 24.42478
327.3142, 24.15373
327.7964, 23.88680
328.2785, 23.73462
328.7606, 23.68661
329.2427, 23.70126
329.7248, 23.81922
330.2069, 23.92667
330.6891, 23.96878
331.1712, 23.95212
331.6533, 23.88299
332.1354, 23.72924
332.6175, 23.54248
333.0996, 23.41776
333.5818, 23.34899
334.0639, 23.36175
334.5460, 23.60410
335.0281, 23.88908
335.5102, 23.97529
335.9923, 23.74377
336.4745, 23.43035
336.9566, 23.33079
337.4387, 23.46036
337.9208, 23.54618
338.4029, 23.44019
338.8850, 23.29483
339.3671, 23.26051
339.8492, 23.35342
340.3314, 23.48973
340.8135, 23.63514
341.2956, 23.78183
341.7777, 23.86822
342.2598, 23.86166
342.7419, 23.82095
343.2241, 23.77240
343.7062, 23.72527
344.1883, 23.73565
344.6704, 23.90554
345.1525, 24.13958
345.6346, 24.19849
346.1168, 24.01435
346.5989, 23.83554
347.0810, 23.88869
347.5631, 24.06834
348.0452, 24.19454
348.5273, 24.18610
349.0095, 24.13713
349.4916, 24.13109
349.9737, 24.16714
350.4558, 24.29456
350.9379, 24.62308
351.4200, 25.00494
351.9022, 25.19829
352.3843, 25.14428
352.8664, 25.03336
353.3485, 25.00074
353.8306, 25.01862
354.3127, 24.95197
354.7949, 24.70225
355.2770, 24.45941
355.7591, 24.49428
356.2412, 24.79688
356.7233, 25.09653
357.2054, 25.33792
357.6876, 25.50342
358.1697, 25.53924
358.6518, 25.42448
359.1339, 25.27762
359.6160, 25.17679
360.0981, 25.12713
360.5803, 25.15601
361.0624, 25.34991
361.5445, 25.56165
362.0266, 25.66707
362.5087, 25.67376
362.9908, 25.65081
363.4730, 25.61856
363.9551, 25.59474
364.4372, 25.62897
364.9193, 25.74534
365.4014, 25.87294
365.8835, 26.03107
366.3657, 26.17492
366.8478, 26.19399
367.3299, 26.03619
367.8120, 25.80501
368.2941, 25.65664
368.7762, 25.59823
369.2584, 25.58032
369.7405, 25.62378
370.2226, 25.68928
370.7047, 25.79349
371.1868, 25.92219
371.6689, 25.90834
372.1511, 25.54448
372.6332, 24.81123
373.1153, 24.40394
373.5974, 24.51082
374.0795, 24.71854
374.5616, 24.89670
375.0438, 25.01821
375.5259, 25.04196
376.0080, 24.93740
376.4901, 24.73775
376.9722, 24.55898
377.4543, 24.43826
377.9365, 24.29064
378.4186, 24.04438
378.9007, 23.79505
379.3828, 23.67187
379.8649, 23.70362
380.3470, 23.78461
380.8292, 23.76220
381.3113, 23.57767
381.7934, 23.46461
382.2755, 23.47267
382.7576, 23.49889
383.2397, 23.48813
383.7219, 23.44176
384.2040, 23.38827
384.6861, 23.35094
385.1682, 23.32795
385.6503, 23.28909
386.1324, 23.26055
386.6146, 23.18452
387.0967, 23.01383
387.5788, 22.80249
388.0609, 22.59830
388.5430, 22.42321
389.0251, 22.30691
389.5073, 22.33053
389.9894, 22.61979
390.4715, 22.78236
390.9536, 22.78993
391.4357, 22.69117
391.9178, 22.45157
392.4000, 22.10846
392.8821, 21.80407
393.3642, 21.70690
393.8463, 21.82640
394.3284, 21.81843
394.8105, 21.52995
395.2927, 21.28740
395.7748, 21.25458
396.2569, 21.33136
396.7390, 21.33700
397.2211, 21.16407
397.7032, 20.90643
398.1854, 20.78992
398.6675, 20.87158
399.1496, 20.92042
399.6317, 20.77391
400.1138, 20.63002
400.5959, 20.67562
401.0781, 20.93801
401.5602, 21.21858
402.0423, 21.31310
402.5244, 21.24096
403.0065, 21.22967
403.4886, 21.36144
403.9708, 21.47350
404.4529, 21.42223
404.9350, 21.25996
405.4171, 21.13376
405.8992, 21.13558
406.3813, 21.19504
406.8635, 21.18624
407.3456, 21.09766
407.8277, 21.05193
408.3098, 21.16378
408.7919, 21.32896
409.2740, 21.35747
409.7562, 21.18074
410.2383, 21.02093
410.7204, 21.04518
411.2025, 21.19470
411.6846, 21.28101
412.1667, 21.23369
412.6489, 21.18109
413.1310, 21.34646
413.6131, 21.72617
414.0952, 21.91327
414.5773, 21.63270
415.0594, 21.26823
415.5416, 21.19460
416.0237, 21.40728
416.5058, 21.66673
416.9879, 21.83251
417.4700, 21.91065
417.9521, 21.93751
418.4343, 21.83975
418.9164, 21.78682
419.3985, 21.89858
419.8806, 22.06128
420.3627, 22.08844
420.8448, 21.92172
421.3270, 21.67592
421.8091, 21.51433
422.2912, 21.44643
422.7733, 21.45694
423.2554, 21.70613
423.7375, 21.88962
424.2197, 21.75978
424.7018, 21.38696
425.1839, 21.02166
425.6660, 20.83739
426.1481, 20.82213
426.6302, 20.89820
427.1124, 21.20068
427.5945, 21.42912
428.0766, 21.56920
428.5587, 21.60888
429.0408, 21.48077
429.5229, 21.18384
430.0051, 20.88738
430.4872, 20.86236
430.9693, 21.19621
431.4514, 21.43493
431.9335, 21.58366
432.4156, 21.61357
432.8978, 21.41222
433.3799, 21.07419
433.8620, 20.82001
434.3441, 20.79709
434.8262, 20.94472
435.3083, 21.11133
435.7905, 21.32959
436.2726, 21.47357
436.7547, 21.37982
437.2368, 21.25452
437.7189, 21.31386
438.2010, 21.60974
438.6832, 21.91298
439.1653, 21.99759
439.6474, 21.90768
440.1295, 21.89310
440.6116, 22.02446
441.0938, 22.17309
441.5759, 22.22687
442.0580, 22.20824
442.5401, 22.17608
443.0222, 22.14795
443.5043, 22.11248
443.9865, 22.06315
444.4686, 21.99876
444.9507, 21.89453
445.4328, 21.70517
445.9149, 21.50410
446.3970, 21.48356
446.8792, 21.72281
447.3613, 21.88241
447.8434, 21.81414
448.3255, 21.64234
448.8076, 21.51718
449.2897, 21.46376
449.7719, 21.42393
450.2540, 21.33675
450.7361, 21.19747
451.2182, 21.12396
451.7003, 21.13565
452.1824, 21.18048
452.6646, 21.24596
453.1467, 21.33037
453.6288, 21.44412
454.1109, 21.59219
454.5930, 21.74174
455.0751, 21.82673
455.5573, 21.81715
456.0394, 21.79748
456.5215, 21.75386
457.0036, 21.71344
457.4857, 21.70155
457.9678, 21.70957
458.4500, 21.70020
458.9321, 21.63214
459.4142, 21.52736
459.8963, 21.52185
460.3784, 21.67458
460.8605, 21.82383
461.3427, 21.94497
461.8248, 22.03409
462.3069, 22.06440
462.7890, 22.02974
463.2711, 22.01849
463.7532, 22.14121
464.2354, 22.38823
464.7175, 22.62231
465.1996, 22.86296
465.6817, 23.02964
466.1638, 22.98224
466.6459, 22.81782
467.1281, 22.79127
467.6102, 23.07454
468.0923, 23.45198
468.5744, 23.69805
469.0565, 23.82280
469.5386, 23.90131
470.0208, 23.94250
470.5029, 23.97846
470.9850, 24.04604
471.4671, 24.12122
471.9492, 24.32030
472.4313, 24.77106
472.9135, 25.30379
473.3956, 25.77267
473.8777, 26.15104
474.3598, 26.40941
474.8419, 26.50578
475.3240, 26.45909
475.8062, 26.45333
476.2883, 26.44746
476.7704, 26.52619
477.2525, 26.73902
477.7346, 27.03231
478.2167, 27.35193
478.6989, 27.68066
479.1810, 28.01234
479.6631, 28.34365
480.1452, 28.67151
480.6273, 29.00432
481.1094, 29.47288
481.5916, 29.80819
482.0737, 29.78299
482.5558, 29.58710
483.0379, 29.58365
483.5200, 29.97523
484.0021, 30.49764
484.4843, 30.60112
484.9664, 30.17299
485.4485, 29.84821
485.9306, 29.85275
486.4127, 29.90927
486.8948, 29.85469
487.3770, 29.68748
487.8591, 29.45873
488.3412, 29.18655
488.8233, 28.87657
489.3054, 28.52500
489.7875, 28.12769
490.2697, 27.74836
490.7518, 27.40489
491.2339, 27.11491
491.7160, 26.90926
492.1981, 26.83190
492.6802, 26.71335
493.1624, 26.48545
493.6445, 26.17244
494.1266, 25.74794
494.6087, 25.21380
495.0908, 24.79021
495.5729, 24.70256
496.0551, 24.94666
496.5372, 25.05221
497.0193, 24.93534
497.5014, 24.80063
497.9835, 24.65953
498.4656, 24.55585
498.9478, 24.59468
499.4299, 24.79691
499.9120, 24.98951
500.3941, 24.87937
500.8762, 24.31263
501.3583, 24.05616
501.8405, 24.43761
502.3226, 24.79711
502.8047, 24.83953
503.2868, 24.69926
503.7689, 24.64363
504.2510, 24.80776
504.7331, 25.10004
505.2152, 25.37925
505.6974, 25.65844
506.1795, 25.84765
506.6616, 25.89926
507.1437, 25.87557
507.6258, 25.81068
508.1079, 25.71099
508.5901, 25.60355
509.0722, 25.48001
509.5543, 25.36697
510.0364, 25.30710
510.5185, 25.30015
511.0006, 25.31498
511.4828, 25.34888
511.9649, 25.38536
512.4470, 25.40138
512.9291, 25.42165
513.4113, 25.35130
513.8934, 25.13161
514.3755, 24.83022
514.8576, 24.49284
515.3397, 24.13535
515.8218, 23.80392
516.3040, 23.53664
516.7861, 23.32086
517.2682, 23.06924
517.7503, 22.79783
518.2324, 22.46777
518.7145, 21.96893
519.1967, 21.47073
519.6788, 21.16802
520.1609, 21.06939
520.6430, 20.99114
521.1251, 20.74011
521.6072, 20.32087
522.0894, 19.95060
522.5715, 19.64474
523.0536, 19.36434
523.5357, 19.07153
524.0178, 18.80359
524.4999, 18.61416
524.9821, 18.52118
525.4642, 18.45713
525.9463, 18.37670
526.4284, 18.27628
526.9105, 18.11941
527.3926, 17.87524
527.8748, 17.65599
528.3569, 17.57838
528.8390, 17.60032
529.3211, 17.57257
529.8032, 17.42142
530.2853, 17.28561
530.7675, 17.25976
531.2496, 17.29969
531.7317, 17.33088
532.2138, 17.33217
532.6959, 17.28667
533.1780, 17.16335
533.6602, 16.93940
534.1423, 16.77976
534.6244, 16.70924
535.1065, 16.66355
535.5886, 16.63348
536.0707, 16.60821
536.5529, 16.56508
537.0350, 16.49673
537.5171, 16.43899
537.9992, 16.48104
538.4813, 16.67106
538.9634, 16.70663
539.4456, 16.41007
539.9277, 16.13762
540.4098, 16.09534
540.8919, 16.19064
541.3740, 16.22744
541.8561, 16.11178
542.3383, 15.94505
542.8204, 15.83919
543.3025, 15.79163
543.7846, 15.78538
544.2667, 15.83334
544.7488, 15.88737
545.2310, 15.86068
545.7131, 15.76820
546.1952, 15.54667
546.6773, 15.84168
547.1594, 16.00617
547.6415, 16.04714
548.1237, 15.59467
548.6058, 15.77938
549.0879, 15.70874
549.5700, 15.62762
550.0521, 15.90201
550.5342, 15.52131
551.0164, 15.79006
551.4985, 15.79957
551.9806, 15.92772
552.4627, 15.79895
552.9448, 15.74953
553.4269, 15.95712
553.9091, 16.02241
554.3912, 15.86406
554.8733, 15.99975
555.3554, 15.61008
555.8375, 15.68142
556.3196, 15.95168
556.8018, 15.80625
557.2839, 15.94664
557.7660, 15.97818
558.2481, 15.51499
558.7302, 15.91218
559.2123, 15.93728
559.6945, 15.58033
560.1766, 15.84303
560.6587, 15.93123
561.1408, 15.91842
561.6229, 15.86121
562.1050, 15.82754
562.5872, 15.82267
563.0693, 15.80585
563.5514, 15.73967
564.0335, 15.69884
564.5156, 15.74794
564.9977, 15.84400
565.4799, 15.89827
565.9620, 15.87658
566.4441, 15.83913
566.9262, 15.89514
567.4083, 16.08824
567.8904, 16.19730
568.3726, 16.17875
568.8547, 16.11489
569.3368, 15.98280
569.8189, 15.83637
570.3010, 15.76188
570.7831, 15.79494
571.2653, 15.88363
571.7474, 16.00426
572.2295, 16.14287
572.7116, 16.17859
573.1937, 16.06855
573.6758, 15.90974
574.1580, 15.72435
574.6401, 15.54883
575.1222, 15.52965
575.6043, 15.78423
576.0864, 16.07989
576.5685, 16.33652
577.0507, 16.54761
577.5328, 16.70589
578.0149, 16.80872
578.4970, 16.84371
578.9791, 16.78588
579.4612, 16.62954
579.9434, 16.52497
580.4255, 16.51650
580.9076, 16.50933
581.3897, 16.45069
581.8718, 16.40320
582.3539, 16.44719
582.8361, 16.59519
583.3182, 16.77427
583.8003, 16.90501
584.2824, 16.99890
584.7645, 17.14468
585.2466, 17.36035
585.7288, 17.57916
586.2108, 17.76496
586.6929, 17.93649
587.1750, 18.12340
587.6572, 18.33702
588.1393, 18.52474
588.6214, 18.62884
589.1035, 18.71042
589.5856, 18.84336
590.0677, 19.03580
590.5499, 19.27203
591.0320, 19.54305
591.5141, 19.84987
591.9962, 20.19441
592.4783, 20.68572
592.9604, 21.05389
593.4426, 21.18420
593.9247, 21.28466
594.4068, 21.49956
594.8889, 21.81884
595.3710, 22.15788
595.8531, 22.46293
596.3353, 22.74742
596.8174, 23.04624
597.2995, 23.35913
597.7816, 23.67581
598.2637, 23.94436
598.7458, 24.27327
599.2280, 24.78895
599.7101, 25.45530
600.1922, 26.08078
600.6743, 26.59031
601.1564, 27.04729
601.6385, 27.47866
602.1207, 27.90090
602.6028, 28.36799
603.0849, 28.89701
603.5670, 29.46072
604.0491, 30.02714
604.5313, 30.59964
605.0134, 31.15176
605.4955, 31.70746
605.9776, 32.22013
606.4597, 32.71150
606.9418, 33.13718
607.4240, 33.43212
607.9061, 33.58009
608.3882, 33.62321
608.8703, 33.52784
609.3524, 33.31979
609.8345, 33.37872
610.3167, 33.80510
610.7988, 34.26245
611.2809, 34.66977
611.7630, 34.96928
612.2451, 35.00646
612.7272, 34.67008
613.2094, 34.53625
613.6915, 35.00428
614.1736, 35.74323
614.6557, 36.34422
615.1378, 36.79120
615.6199, 37.24987
616.1021, 37.82481
616.5842, 38.46385
617.0663, 39.01040
617.5484, 39.43132
618.0305, 39.81727
618.5126, 40.17160
618.9948, 40.49096
619.4769, 40.74355
619.9590, 40.96067
620.4411, 41.21947
620.9232, 41.57468
621.4053, 41.93211
621.8875, 42.15429
622.3696, 42.24174
622.8517, 42.21595
623.3338, 42.04781
623.8159, 41.82941
624.2980, 41.64061
624.7802, 41.46443
625.2623, 41.24413
625.7444, 41.04012
626.2265, 40.70612
626.7086, 40.06855
627.1907, 39.30391
627.6729, 38.67397
628.1550, 38.21796
628.6371, 37.78666
629.1192, 37.23445
629.6013, 36.59199
630.0834, 36.13930
630.5656, 36.01890
631.0477, 35.85128
631.5298, 35.69307
632.0119, 35.39067
632.4940, 34.66192
632.9761, 33.62037
633.4583, 32.83496
633.9404, 32.82944
634.4225, 33.11728
634.9046, 32.87093
635.3867, 32.13248
635.8688, 31.43695
636.3510, 30.90934
636.8331, 30.59003
637.3152, 30.60317
637.7973, 30.99829
638.2794, 31.14375
638.7615, 30.82937
639.2437, 30.49089
639.7258, 30.31778
640.2079, 30.22643
640.6900, 30.10753
641.1721, 29.92500
641.6542, 29.67571
642.1364, 29.32199
642.6185, 28.88230
643.1006, 28.62275
643.5827, 28.60887
644.0648, 28.63257
644.5469, 28.71665
645.0291, 28.74502
645.5112, 28.55875
645.9933, 28.15138
646.4754, 27.80575
646.9575, 27.73172
647.4396, 27.72422
647.9218, 27.53127
648.4039, 27.19504
648.8860, 26.94215
649.3681, 26.87295
649.8502, 26.84004
650.3323, 26.58996
650.8145, 26.01519
651.2966, 25.72184
651.7787, 26.03491
652.2608, 26.24303
652.7429, 26.02732
653.2250, 25.63230
653.7072, 25.39683
654.1893, 25.39941
654.6714, 25.40872
655.1535, 25.14158
655.6356, 24.70737
656.1177, 24.53619
656.5999, 24.68500
657.0820, 24.69708
657.5641, 24.29880
658.0462, 23.70151
658.5283, 23.26952
659.0104, 22.99133
659.4926, 22.87051
659.9747, 23.12279
660.4568, 23.33101
660.9389, 23.18984
661.4210, 22.80819
661.9031, 22.42005
662.3853, 22.11882
662.8674, 21.87749
663.3495, 21.65642
663.8316, 21.45386
664.3137, 21.30165
664.7958, 21.24218
665.2780, 21.15589
665.7601, 20.96395
666.2422, 20.72793
666.7243, 20.48365
667.2064, 20.21911
667.6885, 20.09907
668.1707, 20.34955
668.6528, 20.68587
669.1349, 20.75210
669.6170, 20.58813
670.0991, 20.45537
670.5812, 20.47895
671.0634, 20.56388
671.5455, 20.54435
672.0276, 20.39705
672.5097, 20.23428
672.9918, 19.98398
673.4739, 19.79966
673.9561, 19.83437
674.4382, 19.91640
674.9203, 19.77472
675.4024, 19.34404
675.8845, 18.95231
676.3666, 18.93271
676.8488, 19.12352
677.3309, 19.19050
677.8130, 19.11712
678.2951, 18.92903
678.7772, 18.58546
679.2593, 18.23209
679.7415, 18.15899
680.2236, 18.52701
680.7057, 18.67586
681.1878, 18.45990
681.6699, 18.18698
682.1520, 17.91918
682.6342, 17.71258
683.1163, 17.64338
683.5984, 17.72994
684.0805, 17.90101
684.5626, 18.15181
685.0447, 18.43801
685.5269, 18.47008
686.0090, 18.18439
686.4911, 17.98256
686.9732, 18.07376
687.4553, 18.31106
687.9374, 18.46508
688.4196, 18.53137
688.9017, 18.58371
689.3838, 18.59076
689.8659, 18.62885
690.3480, 18.82799
690.8301, 19.06541
691.3123, 19.05230
691.7944, 18.72723
692.2765, 18.45541
692.7586, 18.70012
693.2407, 19.41999
693.7228, 20.03670
694.2050, 20.58215
694.6871, 20.94054
695.1692, 20.86092
695.6513, 20.73373
696.1334, 21.04559
696.6155, 21.79608
697.0977, 22.40205
697.5798, 22.56760
698.0619, 22.64796
698.5440, 22.98923
699.0261, 23.42556
699.5082, 23.61739
699.9904, 23.46565
700.4725, 23.05638
700.9546, 22.43755
701.4367, 21.63445
701.9188, 21.02255
702.4009, 20.66817
702.8831, 20.37717
703.3652, 20.17246
703.8473, 19.95873
704.3294, 19.64104
704.8115, 19.23593
705.2936, 18.86622
705.7758, 18.60898
706.2579, 18.38015
706.7400, 18.06835
707.2221, 17.73757
707.7042, 17.55281
708.1863, 17.54568
708.6685, 17.56667
709.1506, 17.48499
709.6327, 17.30759
710.1148, 17.06669
710.5969, 16.59646
711.0790, 16.37445
711.5612, 16.70909
712.0433, 17.08079
712.5254, 17.13243
713.0075, 16.93652
713.4896, 16.77978
713.9717, 16.79256
714.4539, 16.84194
714.9360, 16.82538
715.4181, 16.75328
715.9002, 16.62106
716.3823, 16.43499
716.8644, 16.30682
717.3466, 16.33250
717.8287, 16.45789
718.3108, 16.47723
718.7929, 16.29926
719.2750, 16.18827
719.7571, 16.17697
720.2393, 16.20485
720.7214, 16.25387
721.2035, 16.31786
721.6856, 16.40243
722.1677, 16.52035
722.6498, 16.59762
723.1320, 16.54313
723.6141, 16.41267
724.0962, 16.30420
724.5783, 16.22918
725.0604, 16.21925
725.5425, 16.30508
726.0247, 16.42496
726.5068, 16.44978
726.9889, 16.34328
727.4710, 16.25150
727.9531, 16.14713
728.4352, 16.08856
728.9174, 16.10208
729.3995, 16.16994
729.8816, 16.31307
730.3637, 16.52763
730.8458, 16.63836
731.3279, 16.39505
731.8101, 16.03543
732.2922, 15.97330
732.7743, 16.17643
733.2564, 16.38924
733.7385, 16.52236
734.2206, 16.61068
734.7028, 16.70696
735.1849, 16.81916
735.6670, 16.81795
736.1491, 16.58350
736.6312, 16.38719
737.1133, 16.23080
737.5955, 16.15837
738.0776, 16.27521
738.5597, 16.53507
739.0418, 16.69339
739.5239, 16.53889
740.0060, 16.33097
740.4882, 16.40814
740.9703, 16.68004
741.4524, 16.88426
741.9345, 16.96553
742.4166, 16.93887
742.8987, 16.79621
743.3809, 16.57127
743.8630, 16.42918
744.3451, 16.35613
744.8272, 16.39544
745.3093, 16.70215
745.7914, 16.96469
746.2736, 16.96877
746.7557, 16.81331
747.2378, 16.71218
747.7199, 16.73501
748.2020, 16.81067
748.6841, 16.93296
749.1663, 17.05169
749.6484, 17.06563
750.1305, 16.97998
750.6126, 16.85724
751.0947, 16.71498
751.5768, 16.64632
752.0590, 16.87006
752.5411, 17.52866
753.0232, 17.79389
753.5053, 17.33057
753.9874, 16.91703
754.4695, 16.77739
754.9517, 16.80864
755.4338, 16.94255
755.9159, 17.16176
756.3980, 17.34827
756.8801, 17.41316
757.3622, 17.44971
757.8444, 17.54956
758.3265, 17.69198
758.8086, 17.86009
759.2907, 18.03710
759.7728, 18.09743
760.2549, 17.88965
760.7371, 17.47635
761.2192, 17.26497
761.7013, 17.33872
762.1834, 17.38870
762.6655, 17.34017
763.1476, 17.27740
763.6298, 17.24916
764.1119, 17.25190
764.5940, 17.27440
765.0761, 17.31667
765.5582, 17.37412
766.0403, 17.48206
766.5225, 17.57914
767.0046, 17.54039
767.4867, 17.41680
767.9688, 17.43634
768.4509, 17.72024
768.9330, 18.07409
769.4152, 18.14579
769.8973, 17.92197
770.3794, 17.78187
770.8615, 17.73474
771.3436, 17.77296
771.8257, 17.98516
772.3079, 18.21380
772.7900, 18.19129
773.2721, 17.89252
773.7542, 17.68859
774.2363, 17.61819
774.7184, 17.67669
775.2006, 18.00027
775.6827, 18.38211
776.1648, 18.54017
776.6469, 18.44232
777.1290, 18.24619
777.6111, 18.01622
778.0933, 17.85398
778.5754, 18.12249
779.0575, 18.79530
779.5396, 19.04034
780.0217, 18.58541
780.5038, 18.09865
780.9860, 18.11933
781.4681, 18.52594
781.9502, 18.78792
782.4323, 18.78799
782.9144, 18.84113
783.3965, 18.99516
783.8787, 19.17025
784.3608, 19.38421
784.8429, 19.56819
785.3250, 19.57142
785.8071, 19.34508
786.2892, 19.14353
786.7714, 19.26385
787.2535, 19.52055
787.7356, 19.48363
788.2177, 19.20761
788.6998, 19.18879
789.1819, 19.62743
789.6641, 20.20518
790.1462, 20.54169
790.6283, 20.63786
791.1104, 20.68092
791.5925, 20.55132
792.0746, 20.57268
792.5568, 20.91575
793.0389, 21.32338
793.5210, 21.62686
794.0031, 21.84207
794.4852, 22.04837
794.9673, 22.25498
795.4495, 22.48792
795.9316, 22.77639
796.4137, 23.09148
796.8958, 23.38314
797.3779, 23.66193
797.8600, 23.98839
798.3422, 24.39394
798.8243, 24.85741
799.3064, 25.33459
799.7885, 25.82458
800.2706, 26.40943
800.7527, 27.09863
801.2349, 27.84667
801.7170, 28.63806
802.1991, 29.47618
802.6812, 30.35681
803.1633, 31.27233
803.6454, 32.29840
804.1276, 33.46749
804.6097, 34.71193
805.0918, 35.88451
805.5739, 37.19030
806.0560, 38.92603
806.5381, 41.02678
807.0203, 43.12748
807.5024, 44.95216
807.9845, 46.85171
808.4666, 49.35172
808.9487, 52.34899
809.4308, 55.46793
809.9130, 58.67659
810.3951, 61.91085
810.8772, 65.12003
811.3593, 68.38451
811.8414, 71.90100
812.3235, 75.74977
812.8057, 79.62186
813.2878, 83.51871
813.7699, 87.45554
814.2520, 91.53047
814.7341, 95.59692
815.2162, 99.34761
815.6984, 102.8368
816.1805, 106.7871
816.6626, 111.8055
817.1447, 117.0909
817.6268, 122.1500
818.1089, 127.0266
818.5911, 131.6954
819.0732, 136.2232
819.5553, 140.9046
820.0374, 145.9762
820.5195, 151.2122
821.0016, 156.2063
821.4838, 160.9595
821.9659, 165.5510
822.4480, 170.2116
822.9301, 173.9586
823.4122, 176.2258
823.8943, 177.3487
824.3765, 177.9783
824.8586, 178.2557
825.3407, 177.2577
825.8228, 174.9866
826.3049, 171.3981
826.7870, 165.9304
827.2692, 159.4822
827.7513, 153.0657
828.2334, 146.6689
828.7155, 139.4860
829.1976, 130.7697
829.6797, 121.6110
830.1619, 113.1281
830.6440, 105.1892
831.1261, 97.50466
831.6082, 90.04483
832.0903, 83.06025
832.5724, 76.65740
833.0546, 70.82693
833.5367, 65.56776
834.0188, 60.87174
834.5009, 56.72685
834.9830, 53.17097
835.4651, 50.09677
835.9473, 47.72953
836.4294, 45.65504
836.9115, 43.29435
837.3936, 40.68958
837.8757, 38.51414
838.3578, 37.06316
838.8400, 35.80999
839.3221, 34.52643
839.8042, 33.36117
840.2863, 32.50636
840.7684, 31.91244
841.2505, 31.40254
841.7327, 30.90228
842.2148, 30.35366
842.6969, 29.65588
843.1790, 28.85975
843.6611, 28.06337
844.1432, 27.28331
844.6254, 26.63933
845.1075, 26.18546
845.5896, 25.86849
846.0717, 25.64270
846.5538, 25.51067
847.0359, 25.19424
847.5181, 24.54164
848.0002, 24.00803
848.4823, 23.82023
848.9644, 23.64802
849.4465, 23.20111
849.9286, 22.58592
850.4108, 22.13430
850.8929, 21.96825
851.3750, 21.81209
851.8571, 21.58869
852.3392, 21.31774
852.8214, 20.97268
853.3035, 20.60385
853.7856, 20.29844
854.2677, 20.08503
854.7498, 19.93946
855.2319, 19.86885
855.7141, 19.83459
856.1962, 19.74543
856.6783, 19.60789
857.1604, 19.45697
857.6425, 19.30033
858.1246, 19.15881
858.6068, 19.05265
859.0889, 18.97321
859.5710, 18.88648
860.0531, 18.78554
860.5352, 18.69507
861.0173, 18.61558
861.4995, 18.54747
861.9816, 18.48906
862.4637, 18.44224
862.9458, 18.41202
863.4279, 18.39965
863.9100, 18.38856
864.3922, 18.37206
864.8743, 18.35847
865.3564, 18.37588
865.8385, 18.38402
866.3206, 18.30896
866.8027, 18.17000
867.2849, 18.08914
867.7670, 18.16134
868.2491, 18.22059
868.7312, 17.98581
869.2133, 17.57499
869.6954, 17.31998
870.1776, 17.24320
870.6597, 17.26086
871.1418, 17.34238
871.6239, 17.44661
872.1060, 17.52376
872.5881, 17.57337
873.0703, 17.55755
873.5524, 17.46911
874.0345, 17.32747
874.5166, 17.05623
874.9987, 16.82353
875.4808, 16.80568
875.9630, 16.93356
876.4451, 17.00419
876.9272, 16.97723
877.4093, 16.95446
877.8914, 16.97519
878.3735, 16.98620
878.8557, 16.99645
879.3378, 16.95686
879.8199, 16.74589
880.3020, 16.36375
880.7841, 16.05817
881.2662, 16.03263
881.7484, 16.13771
882.2305, 16.25843
882.7126, 16.34962
883.1947, 16.24518
883.6768, 15.95497
884.1589, 15.75979
884.6411, 15.85503
885.1232, 16.05769
885.6053, 15.96255
886.0874, 15.55783
886.5695, 15.35544
887.0516, 15.43222
887.5338, 15.42612
888.0159, 15.14009
888.4980, 14.80813
888.9801, 14.70534
889.4622, 14.83157
889.9443, 15.01830
890.4265, 15.48020
890.9086, 15.69274
891.3907, 15.41342
891.8728, 15.06010
892.3549, 14.84902
892.8370, 14.76534
893.3192, 14.77437
893.8013, 14.88593
894.2834, 14.93670
894.7655, 14.74363
895.2476, 14.55532
895.7297, 14.62997
896.2119, 14.83687
896.6940, 14.95640
897.1761, 14.94420
897.6582, 14.86323
898.1403, 14.74857
898.6224, 14.61462
899.1046, 14.42248
899.5867, 14.22376
900.0688, 14.32552
900.5509, 14.74363
901.0330, 14.98700
901.5151, 14.80446
901.9973, 14.44888
902.4794, 14.30479
902.9615, 14.37262
903.4436, 14.25281
903.9257, 13.80254
904.4078, 13.55207
904.8900, 13.77880
905.3721, 14.01749
905.8542, 13.84238
906.3363, 13.40250
906.8184, 13.16369
907.3005, 13.21037
907.7827, 13.27018
908.2648, 13.27969
908.7469, 13.32928
909.2290, 13.54568
909.7111, 13.77877
910.1932, 13.82603
910.6754, 13.68044
911.1575, 13.51370
911.6396, 13.39684
912.1217, 13.30695
912.6038, 13.19970
913.0859, 13.12240
913.5681, 13.20784
914.0502, 13.39359
914.5323, 13.42183
915.0144, 13.18286
915.4965, 12.88719
915.9786, 12.78747
916.4607, 12.83673
916.9428, 12.89224
917.4249, 12.94929
917.9070, 12.92076
918.3892, 12.77721
918.8713, 12.64009
919.3534, 12.60706
919.8355, 12.65094
920.3176, 12.68859
920.7997, 12.71136
921.2819, 12.76715
921.7640, 12.89216
922.2461, 12.98232
922.7282, 13.01582
923.2103, 12.97837
923.6924, 12.79366
924.1746, 12.47552
924.6567, 12.32064
925.1388, 12.49392
925.6209, 12.61559
926.1030, 12.60482
926.5851, 12.53393
927.0673, 12.42258
927.5494, 12.29745
928.0315, 12.20696
928.5136, 12.16511
928.9957, 12.09036
929.4778, 11.82458
929.9600, 11.62474
930.4421, 11.79186
930.9242, 12.11812
931.4063, 12.27966
931.8884, 12.25087
932.3705, 12.18530
932.8527, 12.16797
933.3348, 12.15643
933.8169, 12.04162
934.2990, 11.90122
934.7811, 12.03449
935.2632, 12.39182
935.7454, 12.50926
936.2275, 12.23324
936.7096, 11.91011
937.1917, 11.88506
937.6738, 12.07791
938.1559, 12.19609
938.6381, 12.24016
939.1202, 12.16470
939.6023, 11.89152
940.0844, 11.76142
940.5665, 12.03292
941.0486, 12.42705
941.5308, 12.47204
942.0129, 12.11858
942.4950, 11.96431
942.9771, 12.19628
943.4592, 12.34443
943.9413, 12.25860
944.4235, 12.15558
944.9056, 12.21012
945.3877, 12.33781
945.8698, 12.32965
946.3519, 12.11395
946.8340, 11.97371
947.3162, 12.03817
947.7983, 12.12990
948.2804, 12.17034
948.7625, 12.17875
949.2446, 12.17524
949.7267, 12.16673
950.2089, 12.15085
950.6910, 12.10518
951.1731, 12.12385
951.6552, 12.39624
952.1373, 12.69065
952.6194, 12.65678
953.1016, 12.40787
953.5837, 12.25061
954.0658, 12.27359
954.5479, 12.39611
955.0300, 12.58499
955.5121, 12.76986
955.9943, 12.75283
956.4764, 12.61536
956.9585, 12.71817
957.4406, 13.08307
957.9227, 13.47075
958.4048, 13.78175
958.8870, 13.93448
959.3691, 13.77977
959.8512, 13.36974
960.3333, 13.12876
960.8154, 13.07446
961.2975, 13.07039
961.7797, 13.10190
962.2618, 13.15127
962.7439, 13.20865
963.2260, 13.27430
963.7081, 13.35067
964.1902, 13.44274
964.6724, 13.52023
965.1545, 13.58217
965.6366, 13.62970
966.1187, 13.60944
966.6008, 13.62639
967.0829, 13.81602
967.5651, 14.10494
968.0472, 14.26623
968.5293, 14.26104
969.0114, 14.19964
969.4935, 14.00249
969.9756, 13.86311
970.4578, 13.90245
970.9399, 14.01834
971.4220, 14.10795
971.9041, 14.16329
972.3862, 14.22166
972.8683, 14.32929
973.3505, 14.36508
973.8326, 14.21803
974.3147, 14.01642
974.7968, 13.82748
975.2789, 13.68822
975.7610, 13.67106
976.2432, 13.77160
976.7253, 13.86766
977.2074, 13.89898
977.6895, 13.85740
978.1716, 13.66473
978.6537, 13.42832
979.1359, 13.36621
979.6180, 13.44031
980.1001, 13.41998
980.5822, 13.22876
981.0643, 13.06532
981.5464, 13.16035
982.0286, 13.39207
982.5107, 13.50657
982.9928, 13.50488
983.4749, 13.33717
983.9570, 13.01382
984.4391, 12.79433
984.9213, 12.82294
985.4034, 12.94414
985.8855, 12.93820
986.3676, 12.81629
986.8497, 12.66036
987.3318, 12.46345
987.8140, 12.31301
988.2961, 12.22486
988.7782, 12.19912
989.2603, 12.25923
989.7424, 12.33890
990.2245, 12.28933
990.7067, 12.08580
991.1888, 11.94896
991.6709, 11.86381
992.1530, 11.88935
992.6351, 12.11110
993.1172, 12.34346
993.5994, 12.46994
994.0815, 12.49019
994.5636, 12.38612
995.0457, 12.06656
995.5278, 11.88053
996.0099, 11.95897
996.4921, 11.99766
996.9742, 11.81643
997.4563, 11.65208
997.9384, 11.78969
998.4205, 12.11800
998.9026, 12.21058
999.3848, 11.87395
999.8669, 11.66906
1000.349, 11.84147
1000.831, 12.00838
1001.313, 11.91074
1001.795, 11.76501
1002.277, 11.89098
1002.760, 12.22101
1003.242, 12.34729
1003.724, 12.08684
1004.206, 11.74491
1004.688, 11.28369
1005.170, 10.97127
1005.652, 11.15995
1006.134, 11.55841
1006.617, 11.70309
1007.099, 11.56172
1007.581, 11.45312
1008.063, 11.55494
1008.545, 11.68756
1009.027, 11.72406
1009.509, 11.69914
1009.991, 11.63047
1010.473, 11.54102
1010.956, 11.46631
1011.438, 11.41684
1011.920, 11.39484
1012.402, 11.41128
1012.884, 11.43175
1013.366, 11.41400
1013.848, 11.36978
1014.330, 11.35309
1014.813, 11.33178
1015.295, 11.11995
1015.777, 10.69443
1016.259, 10.42988
1016.741, 10.71488
1017.223, 11.20657
1017.705, 11.27493
1018.187, 11.00830
1018.669, 10.60503
1019.152, 10.13874
1019.634, 9.994951
1020.116, 10.30984
1020.598, 10.74320
1021.080, 10.96613
1021.562, 11.01062
1022.044, 10.90900
1022.526, 10.68469
1023.008, 10.61678
1023.491, 10.73287
1023.973, 10.78883
1024.455, 10.67598
1024.937, 10.52388
1025.419, 10.47732
1025.901, 10.52190
1026.383, 10.61693
1026.865, 10.77301
1027.348, 10.79991
1027.830, 10.65828
1028.312, 10.50771
1028.794, 10.40967
1029.276, 10.36570
1029.758, 10.37264
1030.240, 10.43623
1030.722, 10.63891
1031.204, 11.05808
1031.687, 11.24553
1032.169, 11.09144
1032.651, 10.89999
1033.133, 10.80785
1033.615, 10.75165
1034.097, 10.62884
1034.579, 10.45365
1035.061, 10.47777
1035.544, 10.86389
1036.026, 11.00932
1036.508, 10.72688
1036.990, 10.45127
1037.472, 10.33483
1037.954, 10.38736
1038.436, 10.70539
1038.918, 11.26936
1039.401, 11.49431
1039.883, 11.18191
1040.365, 10.89415
1040.847, 10.60054
1041.329, 10.42239
1041.811, 10.49940
1042.293, 10.66113
1042.775, 10.67469
1043.257, 10.54519
1043.740, 10.47680
1044.222, 10.52693
1044.704, 10.54948
1045.186, 10.53721
1045.668, 10.49596
1046.150, 10.34427
1046.632, 10.21841
1047.114, 10.32819
1047.596, 10.65547
1048.079, 10.88602
1048.561, 10.97779
1049.043, 10.99401
1049.525, 10.86310
1050.007, 10.74763
1050.489, 10.71490
1050.971, 10.74666
1051.453, 10.85646
1051.936, 11.02339
1052.418, 11.09446
1052.900, 10.95909
1053.382, 10.87546
1053.864, 10.95675
1054.346, 11.02824
1054.828, 10.99379
1055.310, 10.90280
1055.792, 10.77963
1056.275, 10.65070
1056.757, 10.63460
1057.239, 10.82307
1057.721, 10.98876
1058.203, 11.05513
1058.685, 11.09973
1059.167, 11.14239
1059.649, 11.20181
1060.131, 11.31693
1060.614, 11.47016
1061.096, 11.57998
1061.578, 11.62411
1062.060, 11.62423
1062.542, 11.55703
1063.024, 11.48265
1063.506, 11.41947
1063.988, 11.37883
1064.471, 11.39782
1064.953, 11.45075
1065.435, 11.43743
1065.917, 11.30694
1066.399, 11.19539
1066.881, 11.16474
1067.363, 11.15877
1067.845, 11.16491
1068.328, 11.16346
1068.810, 11.11589
1069.292, 11.04419
1069.774, 11.02889
1070.256, 11.10800
1070.738, 11.15129
1071.220, 11.07813
1071.702, 10.98189
1072.184, 10.91687
1072.667, 10.85635
1073.149, 10.73416
1073.631, 10.59727
1074.113, 10.59194
1074.595, 10.77030
1075.077, 10.90444
1075.559, 10.82796
1076.041, 10.75631
1076.523, 10.84724
1077.006, 10.96929
1077.488, 10.99472
1077.970, 10.94374
1078.452, 10.88965
1078.934, 10.84977
1079.416, 10.78917
1079.898, 10.60558
1080.380, 10.50697
1080.862, 10.67514
1081.345, 10.90941
1081.827, 11.06600
1082.309, 11.13608
1082.791, 11.11055
1083.273, 10.99760
1083.755, 10.90542
1084.237, 10.84554
1084.719, 10.86380
1085.202, 11.04807
1085.684, 11.25500
1086.166, 11.42411
1086.648, 11.50858
1087.130, 11.41786
1087.612, 11.16517
1088.094, 10.92656
1088.576, 10.76410
1089.058, 10.63392
1089.541, 10.50059
1090.023, 10.40971
1090.505, 10.43990
1090.987, 10.50253
1091.469, 10.47058
1091.951, 10.35189
1092.433, 10.25589
1092.915, 10.22319
1093.397, 10.19531
1093.880, 10.13993
1094.362, 10.09396
1094.844, 10.12035
1095.326, 10.13699
1095.808, 10.00911
1096.290, 9.793611
1096.772, 9.692155
1097.254, 9.775270
1097.737, 9.861416
1098.219, 9.916688
1098.701, 9.927441
1099.183, 9.854030
1099.665, 9.762775
1100.147, 9.687443
1100.629, 9.648435
1101.111, 9.712943
1101.594, 9.909621
1102.076, 9.962373
1102.558, 9.645327
1103.040, 9.385478
1103.522, 9.339600
1104.004, 9.379642
1104.486, 9.459919
1104.968, 9.542440
1105.450, 9.558911
1105.932, 9.507261
1106.415, 9.514267
1106.897, 9.681244
1107.379, 9.792636
1107.861, 9.764384
1108.343, 9.719761
1108.825, 9.709168
1109.307, 9.726185
1109.789, 9.777394
1110.272, 9.851840
1110.754, 9.883013
1111.236, 9.863020
1111.718, 9.801957
1112.200, 9.623316
1112.682, 9.502784
1113.164, 9.562441
1113.646, 9.652951
1114.129, 9.609036
1114.611, 9.485428
1115.093, 9.489811
1115.575, 9.718874
1116.057, 9.778054
1116.539, 9.476040
1117.021, 9.295089
1117.503, 9.399426
1117.985, 9.567272
1118.468, 9.678488
1118.950, 9.744814
1119.432, 9.804114
1119.914, 9.868255
1120.396, 9.760714
1120.878, 9.278758
1121.360, 9.079219
1121.842, 9.402749
1122.324, 9.713802
1122.807, 9.742781
1123.289, 9.638057
1123.771, 9.568826
1124.253, 9.538537
1124.735, 9.591611
1125.217, 9.793216
1125.699, 9.835101
1126.181, 9.647366
1126.664, 9.470757
1127.146, 9.381123
1127.628, 9.350032
1128.110, 9.360739
1128.592, 9.398839
1129.074, 9.412143
1129.556, 9.390413
1130.038, 9.476634
1130.521, 9.700032
1131.003, 9.803818
1131.485, 9.711143
1131.967, 9.614703
1132.449, 9.635244
1132.931, 9.738568
1133.413, 9.904656
1133.895, 10.09801
1134.377, 10.00041
1134.859, 9.627469
1135.342, 9.517770
1135.824, 9.738342
1136.306, 9.954230
1136.788, 10.01992
1137.270, 10.02263
1137.752, 10.06090
1138.234, 10.08761
1138.716, 9.959108
1139.199, 9.716113
1139.681, 9.489772
1140.163, 9.314122
1140.645, 9.358266
1141.127, 9.642217
1141.609, 9.912533
1142.091, 9.998051
1142.573, 9.963397
1143.056, 9.859747
1143.538, 9.722737
1144.020, 9.601584
1144.502, 9.514338
1144.984, 9.500965
1145.466, 9.563798
1145.948, 9.705411
1146.430, 9.923959
1146.912, 10.10540
1147.395, 10.13605
1147.877, 10.09398
1148.359, 10.01038
1148.841, 9.949677
1149.323, 10.03580
1149.805, 10.21163
1150.287, 10.36192
1150.769, 10.44519
1151.251, 10.40523
1151.734, 10.13310
1152.216, 9.934202
1152.698, 10.14861
1153.180, 10.37662
1153.662, 10.18404
1154.144, 9.871857
1154.626, 9.860168
1155.108, 10.11670
1155.591, 10.39412
1156.073, 10.65318
1156.555, 10.75657
1157.037, 10.43886
1157.519, 10.24504
1158.001, 10.53617
1158.483, 10.89914
1158.965, 11.05489
1159.448, 11.04348
1159.930, 10.88615
1160.412, 10.59433
1160.894, 10.57022
1161.376, 11.08508
1161.858, 11.51005
1162.340, 11.78305
1162.822, 11.96811
1163.304, 12.01986
1163.786, 12.06073
1164.269, 12.23861
1164.751, 12.49019
1165.233, 12.57663
1165.715, 12.41040
1166.197, 12.49371
1166.679, 12.98002
1167.161, 13.26075
1167.643, 13.12256
1168.126, 13.02063
1168.608, 13.24879
1169.090, 13.60412
1169.572, 13.77309
1170.054, 13.79420
1170.536, 13.95252
1171.018, 14.25261
1171.500, 14.63153
1171.983, 15.09140
1172.465, 15.40454
1172.947, 15.48385
1173.429, 15.60411
1173.911, 16.00933
1174.393, 16.53730
1174.875, 16.88210
1175.357, 17.08996
1175.839, 17.34949
1176.322, 17.64257
1176.804, 17.85519
1177.286, 17.99098
1177.768, 18.19656
1178.250, 18.53632
1178.732, 18.86614
1179.214, 19.05698
1179.696, 19.15319
1180.178, 19.09970
1180.661, 19.07050
1181.143, 19.42606
1181.625, 20.00464
1182.107, 20.43950
1182.589, 20.64421
1183.071, 20.63824
1183.553, 20.32878
1184.035, 20.22534
1184.518, 20.90886
1185.000, 21.61373
1185.482, 21.85066
1185.964, 21.78473
1186.446, 21.42671
1186.928, 20.98384
1187.410, 20.92439
1187.892, 21.33891
1188.375, 21.52717
1188.857, 21.06249
1189.339, 20.75172
1189.821, 21.01974
1190.303, 21.17070
1190.785, 20.73633
1191.267, 20.11771
1191.749, 19.70557
1192.231, 19.48279
1192.714, 19.40689
1193.196, 19.58328
1193.678, 19.47302
1194.160, 18.92503
1194.642, 18.51465
1195.124, 18.40078
1195.606, 18.30773
1196.088, 18.08323
1196.570, 17.78280
1197.053, 17.47471
1197.535, 17.16618
1198.017, 16.89037
1198.499, 16.64705
1198.981, 16.42379
1199.463, 16.21878
1199.945, 16.03906
1200.427, 15.88339
1200.910, 15.71486
1201.392, 15.50759
1201.874, 15.26728
1202.356, 14.96290
1202.838, 14.65201
1203.320, 14.49538
1203.802, 14.41805
1204.284, 14.22425
1204.766, 13.94163
1205.249, 13.76651
1205.731, 13.73992
1206.213, 13.64315
1206.695, 13.27444
1207.177, 12.95204
1207.659, 12.99304
1208.141, 13.11247
1208.623, 13.02924
1209.105, 12.89574
1209.588, 12.96788
1210.070, 13.17246
1210.552, 13.23622
1211.034, 13.09804
1211.516, 12.86545
1211.998, 12.41601
1212.480, 12.08978
1212.962, 12.03871
1213.445, 12.04841
1213.927, 12.02243
1214.409, 11.98771
1214.891, 11.99992
1215.373, 12.02727
1215.855, 11.90397
1216.337, 11.54386
1216.819, 11.44002
1217.302, 11.68311
1217.784, 11.82486
1218.266, 11.75922
1218.748, 11.65602
1219.230, 11.61225
1219.712, 11.55221
1220.194, 11.35753
1220.676, 11.09751
1221.158, 11.04322
1221.641, 11.13201
1222.123, 10.95605
1222.605, 10.57821
1223.087, 10.48399
1223.569, 10.74548
1224.051, 10.98795
1224.533, 11.00240
1225.015, 10.93079
1225.497, 10.88070
1225.980, 10.85748
1226.462, 10.90873
1226.944, 10.95885
1227.426, 10.84553
1227.908, 10.67651
1228.390, 10.71696
1228.872, 10.97077
1229.354, 11.15198
1229.837, 11.15862
1230.319, 11.09846
1230.801, 10.91859
1231.283, 10.79641
1231.765, 10.86678
1232.247, 10.96540
1232.729, 10.95894
1233.211, 10.89337
1233.693, 10.83074
1234.176, 10.77591
1234.658, 10.89135
1235.140, 11.29766
1235.622, 11.49763
1236.104, 11.42122
1236.586, 11.30865
1237.068, 11.21997
1237.550, 11.14464
1238.032, 11.06087
1238.515, 11.05522
1238.997, 11.32972
1239.479, 11.77229
1239.961, 11.87633
1240.443, 11.73429
1240.925, 11.80165
1241.407, 12.05691
1241.889, 12.15774
1242.372, 12.03143
1242.854, 11.91784
1243.336, 11.95341
1243.818, 12.12010
1244.300, 12.48035
1244.782, 12.88113
1245.264, 13.19465
1245.746, 13.44501
1246.229, 13.63259
1246.711, 13.79712
1247.193, 14.02399
1247.675, 14.31336
1248.157, 14.52323
1248.639, 14.52791
1249.121, 14.63596
1249.603, 14.99532
1250.085, 15.33463
1250.568, 15.56759
1251.050, 15.75044
1251.532, 15.88480
1252.014, 16.02921
1252.496, 16.27918
1252.978, 16.63209
1253.460, 17.08179
1253.942, 17.64700
1254.424, 18.11846
1254.907, 18.48224
1255.389, 18.75553
1255.871, 18.94379
1256.353, 19.17661
1256.835, 19.53638
1257.317, 19.97969
1257.799, 20.48166
1258.281, 21.00300
1258.764, 21.53563
1259.246, 21.99818
1259.728, 22.15440
1260.210, 22.15012
1260.692, 22.39786
1261.174, 22.89347
1261.656, 23.19544
1262.138, 23.09658
1262.620, 22.96981
1263.103, 23.02183
1263.585, 23.03665
1264.067, 22.89609
1264.549, 22.70793
1265.031, 22.53773
1265.513, 22.37246
1265.995, 22.18882
1266.477, 21.99011
1266.959, 21.80309
1267.442, 21.67013
1267.924, 21.31915
1268.406, 20.63727
1268.888, 20.31621
1269.370, 20.54845
1269.852, 20.63735
1270.334, 20.22245
1270.816, 19.66674
1271.299, 19.33947
1271.781, 19.18226
1272.263, 19.10645
1272.745, 19.09222
1273.227, 19.10738
1273.709, 19.13632
1274.191, 19.15704
1274.673, 19.15899
1275.156, 19.12836
1275.638, 19.06032
1276.120, 18.95018
1276.602, 18.71929
1277.084, 18.57931
1277.566, 18.77123
1278.048, 18.92334
1278.530, 18.76293
1279.012, 18.49805
1279.495, 18.27289
1279.977, 18.13575
1280.459, 18.19296
1280.941, 18.44795
1281.423, 18.62331
1281.905, 18.75636
1282.387, 18.63147
1282.869, 18.16754
1283.351, 17.84856
1283.834, 17.82633
1284.316, 17.90350
1284.798, 17.96402
1285.280, 17.89683
1285.762, 17.56960
1286.244, 16.98839
##END=



