##NAMES=Szenicsite
##RRUFFID=R050146
##IDEAL CHEMISTRY=Cu^2+^_3_Mo^6+^O_4_(OH)_4_
##LOCALITY=Jardinera mine, Inca del Oro, Chile
##OWNER=RRUFF
##SOURCE=Jim McGlasson
##DESCRIPTION=Green lamellar crystals
##STATUS=The identification of this mineral is confirmed by single-crystal X-ray diffraction and chemical analysis.
##URL=rruff.info/R050146
##MEASURED CHEMISTRY=Cu_3.00_Mo_1.00_O_4_(OH)_4_
93.74609, 165.6966
94.22821, 164.8790
94.71033, 163.0648
95.19244, 161.6078
95.67456, 165.3929
96.15668, 175.8368
96.63879, 192.9873
97.12091, 219.0948
97.60303, 255.9287
98.08514, 295.5598
98.56726, 326.6926
99.04938, 349.3643
99.53149, 368.4581
100.0136, 381.3652
100.4957, 387.6727
100.9778, 409.5763
101.4600, 449.9181
101.9421, 504.1872
102.4242, 562.0435
102.9063, 625.3757
103.3884, 688.3525
103.8705, 745.6779
104.3527, 794.7297
104.8348, 848.8959
105.3169, 914.2156
105.7990, 987.2442
106.2811, 1048.572
106.7632, 1100.916
107.2454, 1138.102
107.7275, 1153.743
108.2096, 1133.151
108.6917, 1111.811
109.1738, 1095.452
109.6559, 1085.016
110.1381, 1069.401
110.6202, 1039.501
111.1023, 1008.010
111.5844, 987.2041
112.0665, 984.6153
112.5486, 985.5605
113.0308, 984.2343
113.5129, 976.0366
113.9950, 982.1557
114.4771, 1013.288
114.9592, 1058.810
115.4413, 1103.891
115.9235, 1150.264
116.4056, 1191.427
116.8877, 1223.477
117.3698, 1244.700
117.8519, 1261.099
118.3340, 1270.715
118.8162, 1276.658
119.2983, 1286.308
119.7804, 1309.835
120.2625, 1334.761
120.7446, 1349.603
121.2267, 1341.154
121.7089, 1337.251
122.1910, 1357.322
122.6731, 1397.980
123.1552, 1443.406
123.6373, 1480.005
124.1194, 1516.627
124.6016, 1565.592
125.0837, 1637.638
125.5658, 1717.578
126.0479, 1793.223
126.5300, 1864.375
127.0121, 1926.629
127.4943, 1981.779
127.9764, 2025.382
128.4585, 2048.488
128.9406, 2038.704
129.4227, 2007.919
129.9048, 1978.501
130.3869, 1951.330
130.8691, 1918.491
131.3512, 1866.557
131.8333, 1792.665
132.3154, 1711.464
132.7975, 1639.446
133.2796, 1576.868
133.7618, 1514.612
134.2439, 1448.281
134.7260, 1391.851
135.2081, 1375.510
135.6902, 1399.945
136.1723, 1424.502
136.6545, 1422.567
137.1366, 1394.313
137.6187, 1384.159
138.1008, 1397.980
138.5829, 1426.741
139.0650, 1450.679
139.5472, 1469.246
140.0293, 1485.325
140.5114, 1500.586
140.9935, 1515.085
141.4756, 1527.686
141.9577, 1534.780
142.4399, 1540.087
142.9220, 1562.924
143.4041, 1610.390
143.8862, 1663.374
144.3683, 1708.163
144.8504, 1738.470
145.3326, 1774.900
145.8147, 1823.733
146.2968, 1884.405
146.7789, 1929.446
147.2610, 1951.352
147.7431, 1965.172
148.2253, 1984.422
148.7074, 2018.611
149.1895, 2044.976
149.6716, 2058.124
150.1537, 2056.898
150.6358, 2054.542
151.1180, 2045.343
151.6001, 2037.435
152.0822, 2039.422
152.5643, 2064.976
153.0464, 2086.594
153.5285, 2096.991
154.0107, 2092.129
154.4928, 2091.370
154.9749, 2095.576
155.4570, 2104.406
155.9391, 2117.364
156.4212, 2133.811
156.9034, 2154.939
157.3855, 2182.591
157.8676, 2219.646
158.3497, 2254.133
158.8318, 2285.974
159.3139, 2313.948
159.7961, 2336.207
160.2782, 2339.349
160.7603, 2346.422
161.2424, 2369.734
161.7245, 2417.505
162.2066, 2466.857
162.6888, 2514.122
163.1709, 2557.710
163.6530, 2594.052
164.1351, 2628.117
164.6172, 2650.626
165.0993, 2654.260
165.5815, 2631.306
166.0636, 2600.299
166.5457, 2571.977
167.0278, 2543.206
167.5099, 2504.317
167.9920, 2444.496
168.4742, 2375.198
168.9563, 2306.135
169.4384, 2237.457
169.9205, 2172.355
170.4026, 2116.358
170.8847, 2066.997
171.3669, 2014.733
171.8490, 1945.725
172.3311, 1873.224
172.8132, 1813.326
173.2953, 1774.938
173.7774, 1746.226
174.2596, 1717.212
174.7417, 1688.120
175.2238, 1661.405
175.7059, 1643.524
176.1880, 1628.724
176.6701, 1607.419
177.1523, 1569.607
177.6344, 1528.604
178.1165, 1499.517
178.5986, 1481.898
179.0807, 1472.927
179.5628, 1473.595
180.0450, 1481.131
180.5271, 1489.228
181.0092, 1498.579
181.4913, 1505.891
181.9734, 1503.863
182.4555, 1492.254
182.9377, 1478.571
183.4198, 1468.700
183.9019, 1462.282
184.3840, 1458.304
184.8661, 1457.581
185.3482, 1458.746
185.8304, 1457.541
186.3125, 1453.499
186.7946, 1451.076
187.2767, 1457.003
187.7588, 1469.911
188.2409, 1481.445
188.7231, 1488.915
189.2052, 1492.522
189.6873, 1490.079
190.1694, 1479.619
190.6515, 1472.534
191.1336, 1488.117
191.6158, 1524.608
192.0979, 1556.769
192.5800, 1571.673
193.0621, 1572.016
193.5442, 1574.922
194.0263, 1579.894
194.5085, 1589.071
194.9906, 1607.002
195.4727, 1633.669
195.9548, 1661.300
196.4369, 1685.926
196.9190, 1707.802
197.4012, 1731.825
197.8833, 1758.532
198.3654, 1786.103
198.8475, 1811.416
199.3296, 1834.681
199.8117, 1854.778
200.2939, 1868.055
200.7760, 1874.212
201.2581, 1891.316
201.7402, 1922.759
202.2223, 1959.805
202.7044, 1985.692
203.1866, 1997.896
203.6687, 2011.846
204.1508, 2036.432
204.6329, 2073.137
205.1150, 2102.509
205.5971, 2120.560
206.0793, 2135.918
206.5614, 2168.359
207.0435, 2222.640
207.5256, 2274.232
208.0077, 2308.590
208.4898, 2321.107
208.9720, 2347.011
209.4541, 2391.272
209.9362, 2444.751
210.4183, 2488.433
210.9004, 2519.999
211.3825, 2547.478
211.8647, 2575.531
212.3468, 2606.032
212.8289, 2628.509
213.3110, 2642.857
213.7931, 2649.096
214.2752, 2646.201
214.7574, 2631.745
215.2395, 2613.996
215.7216, 2594.346
216.2037, 2569.563
216.6858, 2557.163
217.1679, 2563.577
217.6500, 2578.798
218.1322, 2577.068
218.6143, 2549.125
219.0964, 2523.461
219.5785, 2517.128
220.0606, 2543.070
220.5427, 2545.284
221.0249, 2514.103
221.5070, 2463.531
221.9891, 2429.282
222.4712, 2421.268
222.9533, 2410.359
223.4354, 2381.990
223.9176, 2325.700
224.3997, 2280.637
224.8818, 2247.325
225.3639, 2224.706
225.8460, 2211.966
226.3281, 2218.267
226.8103, 2218.833
227.2924, 2199.823
227.7745, 2146.334
228.2566, 2113.243
228.7387, 2105.505
229.2208, 2116.009
229.7030, 2130.288
230.1851, 2155.035
230.6672, 2172.958
231.1493, 2174.531
231.6314, 2149.105
232.1135, 2136.531
232.5957, 2140.349
233.0778, 2155.455
233.5599, 2171.556
234.0420, 2191.156
234.5241, 2207.650
235.0062, 2217.457
235.4884, 2217.000
235.9705, 2220.402
236.4526, 2231.632
236.9347, 2244.962
237.4168, 2247.868
237.8989, 2234.421
238.3811, 2219.939
238.8632, 2209.505
239.3453, 2202.529
239.8274, 2202.988
240.3095, 2220.846
240.7916, 2241.035
241.2738, 2232.478
241.7559, 2176.824
242.2380, 2122.611
242.7201, 2087.797
243.2022, 2077.932
243.6843, 2068.399
244.1665, 2056.710
244.6486, 2046.756
245.1307, 2046.586
245.6128, 2064.118
246.0949, 2077.969
246.5770, 2078.115
247.0592, 2056.754
247.5413, 2053.904
248.0234, 2077.844
248.5055, 2114.679
248.9876, 2141.977
249.4697, 2153.693
249.9519, 2167.240
250.4340, 2188.348
250.9161, 2218.757
251.3982, 2247.438
251.8803, 2272.179
252.3624, 2296.824
252.8446, 2325.900
253.3267, 2359.522
253.8088, 2397.874
254.2909, 2442.563
254.7730, 2495.150
255.2551, 2543.073
255.7373, 2584.071
256.2194, 2622.722
256.7015, 2663.803
257.1836, 2708.477
257.6657, 2753.319
258.1478, 2796.490
258.6299, 2837.081
259.1121, 2883.640
259.5942, 2935.094
260.0763, 2993.765
260.5584, 3065.667
261.0405, 3155.612
261.5226, 3245.064
262.0048, 3333.509
262.4869, 3419.954
262.9690, 3486.189
263.4511, 3520.031
263.9332, 3550.899
264.4153, 3608.729
264.8975, 3704.344
265.3796, 3795.314
265.8617, 3871.830
266.3438, 3935.583
266.8259, 4013.883
267.3080, 4112.776
267.7902, 4214.506
268.2723, 4298.250
268.7544, 4357.576
269.2365, 4428.775
269.7186, 4518.303
270.2007, 4624.659
270.6829, 4736.861
271.1650, 4857.654
271.6471, 4977.519
272.1292, 5083.517
272.6113, 5171.440
273.0934, 5271.713
273.5756, 5394.608
274.0577, 5528.662
274.5398, 5632.519
275.0219, 5697.532
275.5040, 5757.104
275.9861, 5833.803
276.4683, 5929.897
276.9504, 6023.571
277.4325, 6114.471
277.9146, 6200.282
278.3967, 6275.089
278.8788, 6338.226
279.3610, 6393.107
279.8431, 6441.396
280.3252, 6482.880
280.8073, 6517.651
281.2894, 6547.863
281.7715, 6568.559
282.2537, 6571.417
282.7358, 6556.710
283.2179, 6522.897
283.7000, 6461.936
284.1821, 6374.978
284.6642, 6295.039
285.1464, 6222.080
285.6285, 6156.824
286.1106, 6102.915
286.5927, 6060.287
287.0748, 6018.377
287.5569, 5969.393
288.0391, 5915.402
288.5212, 5872.931
289.0033, 5842.404
289.4854, 5820.050
289.9675, 5799.618
290.4496, 5781.787
290.9318, 5774.589
291.4139, 5778.212
291.8960, 5794.967
292.3781, 5833.181
292.8602, 5893.831
293.3423, 5969.790
293.8245, 6052.426
294.3066, 6143.904
294.7887, 6256.034
295.2708, 6398.848
295.7529, 6559.554
296.2350, 6706.881
296.7172, 6840.411
297.1993, 6982.567
297.6814, 7159.938
298.1635, 7363.246
298.6456, 7561.677
299.1277, 7745.455
299.6099, 7927.676
300.0920, 8119.714
300.5741, 8324.167
301.0562, 8540.599
301.5383, 8773.957
302.0204, 9021.516
302.5026, 9274.767
302.9847, 9535.868
303.4668, 9799.948
303.9489, 10064.51
304.4310, 10327.37
304.9131, 10600.31
305.3953, 10870.40
305.8774, 11159.08
306.3595, 11495.38
306.8416, 11888.43
307.3237, 12303.49
307.8058, 12710.74
308.2880, 13113.14
308.7701, 13515.88
309.2522, 13934.62
309.7343, 14351.71
310.2164, 14753.57
310.6985, 15143.34
311.1807, 15514.13
311.6628, 15892.47
312.1449, 16247.66
312.6270, 16521.36
313.1091, 16702.03
313.5912, 16789.93
314.0734, 16792.39
314.5555, 16708.77
315.0376, 16516.64
315.5197, 16182.18
316.0018, 15739.36
316.4839, 15232.59
316.9661, 14671.08
317.4482, 14047.87
317.9303, 13333.07
318.4124, 12542.92
318.8945, 11754.99
319.3766, 10978.87
319.8588, 10231.41
320.3409, 9532.622
320.8230, 8872.737
321.3051, 8270.828
321.7872, 7745.357
322.2693, 7284.206
322.7515, 6850.203
323.2336, 6426.557
323.7157, 6034.045
324.1978, 5681.127
324.6799, 5374.166
325.1620, 5104.228
325.6442, 4881.305
326.1263, 4693.411
326.6084, 4519.291
327.0905, 4356.637
327.5726, 4207.633
328.0547, 4072.365
328.5369, 3952.207
329.0190, 3845.600
329.5011, 3753.118
329.9832, 3674.427
330.4653, 3609.494
330.9474, 3556.021
331.4296, 3519.305
331.9117, 3503.606
332.3938, 3509.959
332.8759, 3518.468
333.3580, 3530.632
333.8401, 3543.706
334.3223, 3554.426
334.8044, 3557.294
335.2865, 3569.792
335.7686, 3598.948
336.2507, 3640.376
336.7328, 3665.317
337.2150, 3661.185
337.6971, 3663.368
338.1792, 3696.438
338.6613, 3769.096
339.1434, 3836.035
339.6255, 3893.146
340.1077, 3944.279
340.5898, 4000.233
341.0719, 4060.955
341.5540, 4122.489
342.0361, 4183.661
342.5182, 4245.014
343.0003, 4297.906
343.4825, 4338.548
343.9646, 4378.771
344.4467, 4436.627
344.9288, 4511.502
345.4109, 4589.086
345.8930, 4671.233
346.3752, 4751.939
346.8573, 4798.161
347.3394, 4807.710
347.8215, 4804.824
348.3036, 4824.910
348.7857, 4857.733
349.2679, 4850.501
349.7500, 4776.530
350.2321, 4669.216
350.7142, 4594.734
351.1963, 4549.486
351.6784, 4494.877
352.1606, 4399.006
352.6427, 4275.390
353.1248, 4147.561
353.6069, 4016.918
354.0890, 3886.065
354.5711, 3752.988
355.0533, 3621.329
355.5354, 3498.869
356.0175, 3400.152
356.4996, 3309.245
356.9817, 3204.384
357.4638, 3081.812
357.9460, 2964.968
358.4281, 2876.505
358.9102, 2802.699
359.3923, 2725.071
359.8744, 2626.465
360.3565, 2529.052
360.8387, 2447.309
361.3208, 2380.458
361.8029, 2320.403
362.2850, 2267.976
362.7671, 2218.390
363.2492, 2167.630
363.7314, 2112.388
364.2135, 2058.408
364.6956, 2004.248
365.1777, 1952.318
365.6598, 1910.954
366.1419, 1891.851
366.6241, 1876.266
367.1062, 1855.653
367.5883, 1827.668
368.0704, 1797.729
368.5525, 1761.973
369.0346, 1725.639
369.5168, 1696.252
369.9989, 1682.754
370.4810, 1667.107
370.9631, 1642.796
371.4452, 1607.443
371.9273, 1582.255
372.4095, 1573.793
372.8916, 1570.201
373.3737, 1561.329
373.8558, 1544.866
374.3379, 1527.254
374.8200, 1506.929
375.3022, 1485.619
375.7843, 1473.836
376.2664, 1473.450
376.7485, 1478.442
377.2306, 1488.649
377.7127, 1507.291
378.1949, 1510.767
378.6770, 1494.666
379.1591, 1467.242
379.6412, 1441.889
380.1233, 1417.901
380.6054, 1400.827
381.0876, 1395.953
381.5697, 1401.168
382.0518, 1400.302
382.5339, 1391.968
383.0160, 1385.450
383.4981, 1395.253
383.9803, 1417.820
384.4624, 1432.787
384.9445, 1429.871
385.4266, 1420.229
385.9087, 1424.542
386.3908, 1441.758
386.8730, 1461.080
387.3551, 1473.918
387.8372, 1483.971
388.3193, 1499.153
388.8014, 1523.128
389.2835, 1545.314
389.7657, 1553.325
390.2478, 1551.836
390.7299, 1551.530
391.2120, 1553.000
391.6941, 1560.935
392.1762, 1581.314
392.6584, 1614.830
393.1405, 1650.509
393.6226, 1683.573
394.1047, 1715.381
394.5868, 1746.943
395.0689, 1773.225
395.5511, 1804.666
396.0332, 1849.141
396.5153, 1903.796
396.9974, 1953.240
397.4795, 1977.874
397.9616, 2007.533
398.4438, 2059.834
398.9259, 2153.317
399.4080, 2239.941
399.8901, 2305.501
400.3722, 2363.380
400.8543, 2437.001
401.3365, 2529.494
401.8186, 2634.876
402.3007, 2755.486
402.7828, 2893.934
403.2649, 3023.578
403.7470, 3135.218
404.2292, 3248.503
404.7113, 3379.835
405.1934, 3533.340
405.6755, 3696.439
406.1576, 3869.636
406.6397, 4049.255
407.1219, 4217.294
407.6040, 4369.982
408.0861, 4525.540
408.5682, 4693.935
409.0503, 4872.303
409.5324, 5065.018
410.0146, 5273.717
410.4967, 5492.170
410.9788, 5710.674
411.4609, 5928.489
411.9430, 6157.213
412.4251, 6402.693
412.9073, 6660.005
413.3894, 6932.849
413.8715, 7222.153
414.3536, 7514.035
414.8357, 7792.459
415.3178, 8070.459
415.8000, 8371.495
416.2821, 8715.260
416.7642, 9062.402
417.2463, 9388.126
417.7284, 9691.303
418.2105, 9958.925
418.6927, 10178.93
419.1748, 10367.75
419.6569, 10559.82
420.1390, 10769.10
420.6211, 10887.03
421.1032, 10849.00
421.5854, 10702.06
422.0675, 10498.58
422.5496, 10233.76
423.0317, 9932.508
423.5138, 9602.908
423.9959, 9244.785
424.4781, 8835.458
424.9602, 8323.604
425.4423, 7805.768
425.9244, 7324.199
426.4065, 6895.907
426.8886, 6478.991
427.3708, 6056.060
427.8529, 5648.636
428.3350, 5289.192
428.8171, 4993.062
429.2992, 4716.710
429.7813, 4447.204
430.2635, 4186.190
430.7456, 3956.339
431.2277, 3764.275
431.7098, 3592.367
432.1919, 3425.436
432.6740, 3262.440
433.1562, 3118.726
433.6383, 2998.393
434.1204, 2895.024
434.6025, 2797.689
435.0846, 2706.343
435.5667, 2619.360
436.0489, 2532.779
436.5310, 2449.050
437.0131, 2377.387
437.4952, 2317.999
437.9773, 2264.631
438.4594, 2212.797
438.9416, 2162.439
439.4236, 2113.146
439.9058, 2062.867
440.3879, 2016.006
440.8700, 1975.259
441.3521, 1940.735
441.8342, 1912.813
442.3163, 1893.627
442.7985, 1879.888
443.2806, 1871.359
443.7627, 1870.538
444.2448, 1863.460
444.7269, 1838.112
445.2090, 1805.495
445.6912, 1778.741
446.1733, 1754.189
446.6554, 1742.786
447.1375, 1757.496
447.6196, 1794.804
448.1017, 1814.193
448.5839, 1792.823
449.0660, 1769.645
449.5481, 1763.551
450.0302, 1785.819
450.5123, 1801.372
450.9944, 1805.870
451.4766, 1806.498
451.9587, 1815.729
452.4408, 1837.406
452.9229, 1857.351
453.4050, 1872.025
453.8871, 1881.707
454.3693, 1886.240
454.8514, 1882.653
455.3335, 1887.075
455.8156, 1917.806
456.2977, 1971.774
456.7798, 2021.420
457.2620, 2064.318
457.7441, 2099.780
458.2262, 2119.635
458.7083, 2128.670
459.1904, 2149.729
459.6725, 2203.914
460.1547, 2272.228
460.6368, 2326.172
461.1189, 2366.417
461.6010, 2409.007
462.0831, 2465.298
462.5652, 2530.571
463.0474, 2598.672
463.5295, 2669.327
464.0116, 2742.162
464.4937, 2817.391
464.9758, 2894.668
465.4579, 2971.009
465.9401, 3037.543
466.4222, 3110.221
466.9043, 3194.766
467.3864, 3291.970
467.8685, 3398.338
468.3506, 3523.264
468.8328, 3651.162
469.3149, 3770.041
469.7970, 3867.709
470.2791, 3976.137
470.7612, 4098.814
471.2433, 4232.473
471.7255, 4371.640
472.2076, 4524.480
472.6897, 4662.316
473.1718, 4774.872
473.6539, 4861.572
474.1360, 4943.088
474.6182, 5022.558
475.1003, 5085.585
475.5824, 5118.007
476.0645, 5120.604
476.5466, 5099.152
477.0287, 5052.949
477.5109, 4986.802
477.9930, 4907.382
478.4751, 4814.578
478.9572, 4707.764
479.4393, 4582.896
479.9214, 4444.934
480.4036, 4298.245
480.8857, 4142.209
481.3678, 3988.936
481.8499, 3840.958
482.3320, 3701.828
482.8141, 3577.429
483.2963, 3471.198
483.7784, 3375.280
484.2605, 3293.448
484.7426, 3220.451
485.2247, 3143.836
485.7068, 3049.550
486.1890, 2962.360
486.6711, 2895.536
487.1532, 2856.689
487.6353, 2802.663
488.1174, 2724.321
488.5995, 2640.054
489.0817, 2564.392
489.5638, 2500.323
490.0459, 2439.191
490.5280, 2379.480
491.0101, 2322.770
491.4922, 2271.292
491.9744, 2224.544
492.4565, 2184.215
492.9386, 2152.992
493.4207, 2128.900
493.9028, 2097.352
494.3849, 2056.954
494.8671, 2020.338
495.3492, 2004.164
495.8313, 2001.162
496.3134, 1987.802
496.7955, 1953.188
497.2776, 1920.807
497.7598, 1923.564
498.2419, 1949.711
498.7240, 1969.653
499.2061, 1964.402
499.6882, 1951.215
500.1703, 1940.327
500.6525, 1932.365
501.1346, 1928.888
501.6167, 1937.346
502.0988, 1946.274
502.5809, 1947.553
503.0630, 1940.537
503.5452, 1924.727
504.0273, 1894.935
504.5094, 1857.247
504.9915, 1822.893
505.4736, 1794.019
505.9557, 1765.354
506.4379, 1736.162
506.9200, 1706.392
507.4021, 1676.005
507.8842, 1645.882
508.3663, 1612.096
508.8484, 1569.384
509.3306, 1517.473
509.8127, 1470.091
510.2948, 1428.662
510.7769, 1390.842
511.2590, 1353.689
511.7411, 1317.476
512.2233, 1284.416
512.7054, 1251.828
513.1875, 1225.272
513.6696, 1220.536
514.1517, 1232.954
514.6339, 1236.709
515.1160, 1206.475
515.5981, 1165.045
516.0802, 1132.709
516.5623, 1112.707
517.0444, 1099.050
517.5266, 1095.678
518.0087, 1094.475
518.4908, 1086.590
518.9729, 1060.939
519.4550, 1038.464
519.9371, 1024.798
520.4193, 1018.162
520.9014, 1011.050
521.3835, 1004.047
521.8656, 995.7888
522.3477, 985.9841
522.8298, 974.7589
523.3120, 959.2233
523.7941, 935.7991
524.2762, 915.9315
524.7583, 915.0049
525.2404, 934.0087
525.7225, 942.1105
526.2047, 932.0198
526.6868, 914.2180
527.1689, 908.1902
527.6510, 912.1298
528.1331, 914.4175
528.6152, 907.8007
529.0974, 896.9815
529.5795, 886.9495
530.0616, 877.9871
530.5437, 873.1122
531.0258, 881.2309
531.5079, 890.5854
531.9901, 888.0545
532.4722, 864.8279
532.9543, 847.3901
533.4364, 854.6913
533.9185, 871.0995
534.4006, 875.5331
534.8828, 846.2731
535.3649, 824.1823
535.8470, 821.2704
536.3291, 833.7078
536.8112, 841.1937
537.2933, 844.7299
537.7755, 841.5747
538.2576, 826.4240
538.7397, 795.4126
539.2218, 786.3165
539.7039, 805.5844
540.1860, 829.3192
540.6682, 827.8610
541.1503, 803.8207
541.6324, 785.6857
542.1145, 779.3556
542.5966, 781.3917
543.0787, 791.8428
543.5609, 807.4855
544.0430, 816.2852
544.5251, 807.7111
545.0072, 792.1097
545.4893, 778.2054
545.9714, 766.3527
546.4536, 757.4370
546.9357, 752.6072
547.4178, 750.4670
547.8999, 749.9649
548.3820, 750.7714
548.8641, 753.5445
549.3463, 761.2255
549.8284, 769.9271
550.3105, 774.5953
550.7926, 774.1157
551.2747, 770.7766
551.7568, 761.5698
552.2390, 749.7307
552.7211, 751.8320
553.2032, 774.3135
553.6853, 790.6818
554.1674, 782.4150
554.6495, 752.0947
555.1317, 742.6979
555.6138, 756.5477
556.0959, 774.3896
556.5780, 777.7292
557.0601, 770.6138
557.5422, 764.0085
558.0244, 760.4183
558.5065, 756.9684
558.9886, 748.3401
559.4707, 737.8737
559.9528, 732.4465
560.4349, 742.2876
560.9171, 751.2021
561.3992, 748.2722
561.8813, 735.2735
562.3634, 725.7769
562.8455, 723.4547
563.3276, 725.2650
563.8098, 730.2636
564.2919, 739.1465
564.7740, 748.8369
565.2561, 763.8849
565.7382, 775.1605
566.2203, 771.0092
566.7025, 744.9258
567.1846, 731.2651
567.6667, 737.8918
568.1488, 754.0596
568.6309, 756.2014
569.1130, 744.9976
569.5952, 735.4585
570.0773, 736.7266
570.5594, 742.5771
571.0415, 738.7878
571.5236, 726.6631
572.0057, 718.2849
572.4879, 726.2906
572.9700, 739.7939
573.4521, 747.8767
573.9342, 748.7625
574.4163, 746.2214
574.8984, 737.0914
575.3806, 727.6715
575.8627, 724.2788
576.3448, 739.4247
576.8269, 746.9517
577.3090, 735.6517
577.7911, 715.9445
578.2733, 712.8868
578.7554, 735.9022
579.2375, 757.1144
579.7196, 769.2490
580.2017, 772.5983
580.6838, 766.5679
581.1660, 749.5327
581.6481, 733.2193
582.1302, 725.4979
582.6123, 725.6501
583.0944, 734.2163
583.5765, 752.7360
584.0587, 766.4551
584.5408, 754.4135
585.0229, 728.4783
585.5050, 708.8629
585.9871, 702.7065
586.4692, 702.5471
586.9514, 707.1522
587.4335, 714.2042
587.9155, 718.7952
588.3976, 711.2299
588.8798, 709.0651
589.3619, 723.8499
589.8440, 755.2692
590.3261, 770.8001
590.8082, 761.7338
591.2903, 747.9133
591.7725, 738.8474
592.2546, 735.4568
592.7367, 730.7828
593.2188, 723.6940
593.7009, 718.2498
594.1830, 721.2197
594.6652, 731.1462
595.1473, 736.4031
595.6294, 733.4175
596.1115, 728.2930
596.5936, 730.1107
597.0757, 736.4817
597.5579, 741.1000
598.0400, 739.6016
598.5221, 736.3843
599.0042, 733.4440
599.4863, 731.1265
599.9684, 730.9265
600.4506, 738.4029
600.9327, 743.9641
601.4148, 741.2591
601.8969, 726.5200
602.3790, 718.0710
602.8611, 718.4736
603.3433, 722.7081
603.8254, 727.6533
604.3075, 734.2234
604.7896, 737.6440
605.2717, 736.6020
605.7538, 734.2030
606.2360, 735.4172
606.7181, 740.0272
607.2002, 745.7434
607.6823, 752.8721
608.1644, 759.5991
608.6465, 763.1839
609.1287, 763.8682
609.6108, 762.4155
610.0929, 756.0143
610.5750, 750.0804
611.0571, 751.2292
611.5392, 759.2982
612.0214, 761.5627
612.5035, 745.4904
612.9856, 728.1436
613.4677, 720.0742
613.9498, 725.9871
614.4319, 732.8864
614.9141, 742.7219
615.3962, 751.8240
615.8783, 756.5137
616.3604, 756.6380
616.8425, 752.4207
617.3246, 742.1968
617.8068, 730.2610
618.2889, 724.1989
618.7710, 723.9437
619.2531, 729.8990
619.7352, 749.2098
620.2173, 769.6785
620.6995, 771.6271
621.1816, 757.7233
621.6637, 741.3068
622.1458, 723.7051
622.6279, 710.6649
623.1100, 707.6005
623.5922, 715.6143
624.0743, 724.7432
624.5564, 734.7494
625.0385, 743.3230
625.5206, 748.9573
626.0027, 752.0077
626.4849, 750.6923
626.9670, 740.6901
627.4491, 730.9929
627.9312, 736.1126
628.4133, 758.4805
628.8954, 773.0532
629.3776, 773.4279
629.8597, 765.4753
630.3418, 758.3210
630.8239, 751.9604
631.3060, 746.3848
631.7881, 739.4865
632.2703, 734.7552
632.7524, 737.8280
633.2345, 747.2510
633.7166, 755.6407
634.1987, 759.4883
634.6808, 761.0564
635.1630, 762.2941
635.6451, 764.0696
636.1272, 760.6880
636.6093, 744.5134
637.0914, 729.1085
637.5735, 723.5298
638.0557, 731.0823
638.5378, 738.7439
639.0199, 747.2772
639.5020, 754.1069
639.9841, 754.9796
640.4662, 750.2416
640.9484, 744.7134
641.4305, 738.4118
641.9126, 734.0369
642.3947, 736.9098
642.8768, 744.9564
643.3589, 752.5143
643.8411, 757.1792
644.3232, 760.1825
644.8053, 761.3721
645.2874, 761.3040
645.7695, 762.6834
646.2516, 769.4421
646.7338, 775.0010
647.2159, 776.1367
647.6980, 772.5910
648.1801, 768.1913
648.6622, 761.9377
649.1443, 756.3225
649.6265, 752.1536
650.1086, 749.1788
650.5907, 752.7815
651.0728, 764.6918
651.5549, 776.8399
652.0370, 780.8740
652.5192, 777.7877
653.0013, 769.7661
653.4834, 756.0936
653.9655, 741.0136
654.4476, 723.9852
654.9297, 709.1642
655.4119, 703.3453
655.8940, 714.1521
656.3761, 729.1852
656.8582, 750.0351
657.3403, 772.5818
657.8224, 781.8369
658.3046, 768.9310
658.7867, 754.5139
659.2688, 741.9777
659.7509, 732.1415
660.2330, 736.9983
660.7151, 760.1649
661.1973, 779.1479
661.6794, 773.5603
662.1615, 751.6617
662.6436, 746.4523
663.1257, 759.1735
663.6078, 773.4407
664.0900, 775.7863
664.5721, 771.7437
665.0542, 768.3519
665.5363, 767.7377
666.0184, 764.5756
666.5005, 750.2405
666.9827, 735.1551
667.4648, 730.1403
667.9469, 747.6851
668.4290, 760.8660
668.9111, 766.6822
669.3932, 769.0115
669.8754, 774.5904
670.3575, 783.9167
670.8396, 794.5892
671.3217, 808.0641
671.8038, 820.3704
672.2859, 818.1638
672.7681, 803.9918
673.2502, 794.2847
673.7323, 802.5110
674.2144, 816.6036
674.6965, 822.3237
675.1786, 821.0790
675.6608, 821.4201
676.1429, 830.9526
676.6250, 840.3302
677.1071, 842.9186
677.5892, 836.3676
678.0714, 836.0375
678.5535, 846.1437
679.0356, 858.4488
679.5177, 868.4237
679.9998, 876.3559
680.4819, 879.8657
680.9641, 877.5441
681.4462, 875.6345
681.9283, 883.5103
682.4104, 898.1692
682.8925, 906.2295
683.3746, 903.6921
683.8568, 900.0663
684.3389, 906.4110
684.8210, 917.4138
685.3031, 924.8947
685.7852, 926.4564
686.2673, 923.4026
686.7495, 910.5145
687.2316, 893.7003
687.7137, 886.8925
688.1958, 897.6201
688.6779, 907.0666
689.1600, 910.0979
689.6422, 909.2703
690.1243, 917.6159
690.6064, 937.2914
691.0885, 949.4931
691.5706, 941.4956
692.0527, 921.0450
692.5349, 906.4648
693.0170, 897.4174
693.4991, 890.2371
693.9812, 882.5049
694.4633, 875.5428
694.9454, 871.2672
695.4276, 869.9560
695.9097, 867.7878
696.3918, 859.9675
696.8739, 853.6045
697.3560, 853.5891
697.8381, 862.1632
698.3203, 870.6328
698.8024, 881.7263
699.2845, 888.4600
699.7666, 882.0722
700.2487, 862.6749
700.7308, 844.4622
701.2130, 828.3584
701.6951, 816.1945
702.1772, 811.1406
702.6593, 811.6382
703.1414, 814.9884
703.6235, 823.1052
704.1057, 828.5852
704.5878, 825.2968
705.0699, 816.5999
705.5520, 807.9070
706.0341, 794.6766
706.5162, 788.8287
706.9984, 793.9865
707.4805, 807.1689
707.9626, 822.9118
708.4447, 844.3085
708.9268, 857.6931
709.4089, 858.2905
709.8911, 848.0990
710.3732, 826.9824
710.8553, 796.6765
711.3374, 776.0541
711.8195, 783.8819
712.3016, 802.0180
712.7838, 809.6079
713.2659, 807.6607
713.7480, 807.0487
714.2301, 815.2034
714.7122, 824.0644
715.1943, 829.8924
715.6765, 832.2938
716.1586, 831.1926
716.6407, 823.4968
717.1228, 816.6271
717.6049, 815.1154
718.0870, 819.3683
718.5692, 824.9612
719.0513, 832.2429
719.5334, 838.7244
720.0155, 842.5768
720.4976, 843.8373
720.9797, 841.0562
721.4619, 832.9705
721.9440, 828.3303
722.4261, 838.3319
722.9082, 852.7928
723.3903, 861.1034
723.8724, 856.1844
724.3546, 853.2106
724.8367, 856.6650
725.3188, 861.6723
725.8009, 862.9768
726.2830, 859.9149
726.7651, 854.0250
727.2473, 842.7261
727.7294, 833.4034
728.2115, 842.3018
728.6936, 866.0587
729.1757, 885.7344
729.6578, 894.8054
730.1400, 897.9963
730.6221, 897.6827
731.1042, 895.5455
731.5863, 895.0934
732.0684, 901.5426
732.5505, 905.8063
733.0327, 901.3157
733.5148, 891.5599
733.9969, 890.0321
734.4790, 899.1345
734.9611, 912.0065
735.4432, 927.6255
735.9254, 945.3076
736.4075, 965.0841
736.8896, 986.9207
737.3717, 999.5923
737.8538, 985.3573
738.3359, 963.5627
738.8181, 969.5803
739.3002, 998.5220
739.7823, 1020.217
740.2644, 1010.999
740.7465, 995.6307
741.2286, 989.3447
741.7108, 993.8629
742.1929, 993.7828
742.6750, 980.5014
743.1571, 972.6360
743.6392, 982.1354
744.1213, 1009.963
744.6035, 1024.845
745.0856, 1025.223
745.5677, 1022.970
746.0498, 1028.430
746.5319, 1038.272
747.0140, 1046.651
747.4962, 1053.241
747.9783, 1054.230
748.4604, 1038.193
748.9425, 1020.836
749.4246, 1016.808
749.9067, 1032.133
750.3889, 1049.179
750.8710, 1071.859
751.3531, 1090.239
751.8352, 1094.150
752.3173, 1077.584
752.7994, 1075.730
753.2816, 1093.178
753.7637, 1115.932
754.2458, 1124.449
754.7279, 1125.093
755.2100, 1140.395
755.6921, 1177.915
756.1743, 1215.787
756.6564, 1235.842
757.1385, 1245.564
757.6206, 1253.575
758.1027, 1255.525
758.5848, 1265.991
759.0670, 1298.003
759.5491, 1333.816
760.0312, 1349.245
760.5133, 1333.739
760.9954, 1338.234
761.4775, 1374.372
761.9597, 1423.569
762.4418, 1456.040
762.9239, 1475.308
763.4060, 1494.510
763.8881, 1517.337
764.3702, 1542.225
764.8524, 1569.139
765.3345, 1596.360
765.8166, 1620.637
766.2987, 1636.431
766.7808, 1654.802
767.2629, 1681.041
767.7451, 1710.614
768.2272, 1734.999
768.7093, 1752.508
769.1914, 1769.378
769.6735, 1787.460
770.1556, 1805.238
770.6378, 1821.637
771.1199, 1835.543
771.6020, 1840.863
772.0841, 1828.014
772.5662, 1812.711
773.0483, 1812.683
773.5305, 1821.554
774.0126, 1822.967
774.4947, 1805.348
774.9768, 1786.261
775.4589, 1769.758
775.9410, 1755.666
776.4232, 1744.873
776.9053, 1739.663
777.3874, 1728.917
777.8695, 1706.147
778.3516, 1677.028
778.8337, 1657.613
779.3159, 1646.612
779.7980, 1636.349
780.2801, 1619.198
780.7622, 1603.806
781.2443, 1601.427
781.7264, 1608.414
782.2086, 1609.567
782.6907, 1591.392
783.1728, 1576.166
783.6549, 1570.653
784.1370, 1574.134
784.6191, 1584.959
785.1012, 1606.299
785.5833, 1620.444
786.0654, 1613.024
786.5475, 1594.997
787.0297, 1603.195
787.5118, 1633.656
787.9939, 1659.130
788.4760, 1651.640
788.9581, 1642.960
789.4402, 1660.147
789.9224, 1701.107
790.4045, 1740.838
790.8866, 1778.212
791.3687, 1808.350
791.8508, 1823.938
792.3329, 1827.993
792.8151, 1854.515
793.2972, 1907.334
793.7793, 1960.442
794.2614, 1993.927
794.7435, 2019.302
795.2256, 2070.286
795.7078, 2142.828
796.1899, 2208.015
796.6720, 2240.302
797.1541, 2267.387
797.6362, 2307.672
798.1183, 2361.991
798.6005, 2416.723
799.0826, 2459.915
799.5647, 2517.852
800.0468, 2607.164
800.5289, 2722.878
801.0110, 2813.992
801.4932, 2878.813
801.9753, 2937.040
802.4574, 3001.106
802.9395, 3066.497
803.4216, 3125.104
803.9037, 3177.468
804.3859, 3228.344
804.8680, 3286.246
805.3501, 3337.727
805.8322, 3375.932
806.3143, 3399.597
806.7964, 3414.744
807.2786, 3417.226
807.7607, 3418.802
808.2428, 3424.821
808.7249, 3434.353
809.2070, 3442.807
809.6891, 3450.096
810.1713, 3453.369
810.6534, 3445.539
811.1355, 3436.154
811.6176, 3437.212
812.0997, 3447.744
812.5818, 3457.980
813.0640, 3459.534
813.5461, 3464.845
814.0282, 3487.919
814.5103, 3525.301
814.9924, 3526.364
815.4745, 3480.557
815.9567, 3433.643
816.4388, 3403.686
816.9209, 3390.078
817.4030, 3394.737
817.8851, 3416.004
818.3672, 3441.622
818.8494, 3459.708
819.3315, 3482.661
819.8136, 3521.883
820.2957, 3575.970
820.7778, 3630.875
821.2599, 3672.814
821.7421, 3730.025
822.2242, 3817.324
822.7063, 3927.083
823.1884, 4003.491
823.6705, 4042.369
824.1526, 4097.121
824.6348, 4203.720
825.1169, 4336.969
825.5990, 4456.602
826.0811, 4564.901
826.5632, 4678.686
827.0453, 4804.035
827.5275, 4938.483
828.0096, 5086.912
828.4917, 5245.421
828.9738, 5397.976
829.4559, 5535.917
829.9380, 5684.871
830.4202, 5855.843
830.9023, 6040.124
831.3844, 6215.921
831.8665, 6382.718
832.3486, 6548.545
832.8307, 6714.231
833.3129, 6881.346
833.7950, 7059.163
834.2771, 7239.756
834.7592, 7402.009
835.2413, 7516.902
835.7234, 7643.479
836.2056, 7813.180
836.6877, 7998.386
837.1698, 8123.675
837.6519, 8184.442
838.1340, 8211.214
838.6161, 8210.933
839.0983, 8183.708
839.5804, 8126.345
840.0625, 8042.226
840.5446, 7941.036
841.0267, 7834.377
841.5089, 7700.462
841.9910, 7521.986
842.4731, 7309.540
842.9552, 7081.372
843.4373, 6828.603
843.9194, 6583.221
844.4016, 6351.528
844.8837, 6125.356
845.3658, 5893.038
845.8479, 5655.216
846.3300, 5420.156
846.8121, 5188.552
847.2943, 4964.466
847.7764, 4743.799
848.2585, 4535.088
848.7406, 4353.501
849.2227, 4216.549
849.7048, 4083.910
850.1870, 3950.722
850.6691, 3818.731
851.1512, 3688.257
851.6333, 3558.101
852.1154, 3436.356
852.5975, 3322.765
853.0797, 3225.478
853.5618, 3163.007
854.0439, 3119.964
854.5260, 3066.686
855.0081, 2994.314
855.4902, 2927.625
855.9724, 2878.083
856.4545, 2839.814
856.9366, 2808.604
857.4187, 2786.546
857.9008, 2761.668
858.3829, 2731.945
858.8651, 2705.274
859.3472, 2689.151
859.8293, 2682.134
860.3114, 2678.860
860.7935, 2678.976
861.2756, 2680.402
861.7578, 2677.250
862.2399, 2677.875
862.7220, 2691.246
863.2041, 2719.893
863.6862, 2745.076
864.1683, 2763.079
864.6505, 2779.781
865.1326, 2795.943
865.6147, 2812.365
866.0968, 2838.931
866.5789, 2875.819
867.0610, 2914.993
867.5432, 2946.480
868.0253, 2980.915
868.5074, 3036.670
868.9895, 3110.044
869.4716, 3175.279
869.9537, 3213.404
870.4359, 3253.568
870.9180, 3305.496
871.4001, 3367.758
871.8822, 3433.596
872.3643, 3502.795
872.8464, 3577.364
873.3286, 3660.923
873.8107, 3748.369
874.2928, 3823.039
874.7749, 3894.176
875.2570, 3985.870
875.7391, 4120.163
876.2213, 4266.672
876.7034, 4413.681
877.1855, 4564.871
877.6676, 4725.171
878.1497, 4888.800
878.6318, 5076.211
879.1140, 5290.586
879.5961, 5529.042
880.0782, 5783.736
880.5603, 6061.106
881.0424, 6381.183
881.5245, 6747.343
882.0067, 7162.638
882.4888, 7616.656
882.9709, 8126.155
883.4530, 8716.885
883.9351, 9397.630
884.4172, 10158.05
884.8994, 11016.35
885.3815, 11928.80
885.8636, 12849.75
886.3457, 13781.54
886.8278, 14716.47
887.3099, 15645.69
887.7921, 16584.88
888.2742, 17509.59
888.7563, 18474.95
889.2384, 19513.78
889.7205, 20631.38
890.2026, 21860.72
890.6848, 23152.08
891.1669, 24606.05
891.6490, 26250.23
892.1311, 28089.83
892.6132, 30120.39
893.0953, 32325.54
893.5775, 34750.71
894.0596, 37507.72
894.5417, 40432.12
895.0238, 43476.02
895.5059, 46616.30
895.9880, 49681.02
896.4702, 52860.98
896.9523, 55712.70
897.4344, 58316.53
897.9165, 60510.52
898.3986, 61774.37
898.8807, 62145.09
899.3629, 61286.71
899.8450, 58983.85
900.3271, 55578.66
900.8092, 51076.08
901.2913, 45864.08
901.7734, 40692.45
902.2556, 35558.34
902.7377, 30855.91
903.2198, 26716.33
903.7019, 23121.35
904.1840, 20074.48
904.6661, 17635.55
905.1483, 15538.38
905.6304, 13750.67
906.1125, 12232.10
906.5946, 10940.57
907.0767, 9843.610
907.5588, 8925.336
908.0410, 8197.270
908.5231, 7554.515
909.0052, 6972.138
909.4873, 6453.258
909.9694, 5990.788
910.4515, 5585.845
910.9337, 5236.146
911.4158, 4948.813
911.8979, 4694.063
912.3800, 4459.284
912.8621, 4239.264
913.3442, 4022.193
913.8264, 3808.633
914.3085, 3619.047
914.7906, 3474.272
915.2727, 3345.497
915.7548, 3219.640
916.2369, 3098.041
916.7191, 2989.154
917.2012, 2895.642
917.6833, 2808.445
918.1654, 2724.995
918.6475, 2646.502
919.1296, 2575.433
919.6118, 2511.220
920.0939, 2452.623
920.5760, 2401.750
921.0581, 2352.156
921.5402, 2297.514
922.0223, 2243.530
922.5045, 2197.091
922.9866, 2160.358
923.4687, 2126.053
923.9508, 2095.441
924.4329, 2062.032
924.9150, 2012.239
925.3972, 1955.648
925.8793, 1919.437
926.3614, 1907.935
926.8435, 1896.391
927.3256, 1869.702
927.8077, 1838.183
928.2899, 1807.557
928.7720, 1777.842
929.2541, 1757.273
929.7362, 1750.029
930.2183, 1737.516
930.7004, 1705.284
931.1826, 1662.198
931.6647, 1632.253
932.1468, 1613.012
932.6289, 1594.133
933.1110, 1576.640
933.5931, 1551.480
934.0753, 1504.792
934.5574, 1447.632
935.0395, 1411.882
935.5216, 1403.985
936.0037, 1395.768
936.4858, 1381.833
936.9680, 1365.375
937.4501, 1355.257
937.9322, 1345.953
938.4143, 1321.979
938.8964, 1272.924
939.3785, 1229.892
939.8607, 1212.652
940.3428, 1206.209
940.8249, 1197.971
941.3070, 1187.622
941.7891, 1174.417
942.2712, 1156.822
942.7534, 1142.999
943.2355, 1146.758
943.7176, 1156.343
944.1997, 1142.699
944.6818, 1108.144
945.1639, 1079.360
945.6461, 1075.051
946.1282, 1074.728
946.6103, 1069.362
947.0924, 1059.932
947.5745, 1050.497
948.0566, 1041.163
948.5388, 1030.804
949.0209, 1017.898
949.5030, 1005.815
949.9851, 1001.768
950.4672, 1002.366
950.9493, 1000.774
951.4315, 996.8665
951.9136, 987.0016
952.3957, 961.2629
952.8778, 935.0076
953.3599, 923.9664
953.8420, 930.7319
954.3242, 934.2755
954.8063, 933.3734
955.2884, 930.8525
955.7705, 928.1127
956.2526, 925.9540
956.7347, 925.6960
957.2169, 927.4029
957.6990, 929.4569
958.1811, 929.0323
958.6632, 931.7213
959.1453, 941.8535
959.6274, 956.7913
960.1096, 959.8328
960.5917, 951.0385
961.0738, 948.1665
961.5559, 962.6292
962.0380, 981.0192
962.5201, 991.5713
963.0023, 994.6970
963.4844, 991.3834
963.9665, 967.3954
964.4486, 958.7271
964.9307, 976.8140
965.4128, 1000.190
965.8950, 996.4487
966.3771, 970.3552
966.8592, 974.0275
967.3413, 1013.825
967.8234, 1059.139
968.3055, 1088.821
968.7877, 1109.072
969.2698, 1123.200
969.7519, 1131.169
970.2340, 1140.354
970.7161, 1152.324
971.1982, 1163.828
971.6804, 1176.696
972.1625, 1186.478
972.6446, 1174.877
973.1267, 1146.182
973.6088, 1120.030
974.0909, 1110.574
974.5731, 1100.011
975.0552, 1075.728
975.5373, 1044.744
976.0194, 1019.455
976.5015, 1006.369
976.9836, 980.3959
977.4658, 936.3120
977.9479, 890.6054
978.4300, 864.2416
978.9121, 850.5560
979.3942, 834.8736
979.8763, 815.4376
980.3585, 798.8957
980.8406, 789.1149
981.3227, 783.0635
981.8048, 780.3272
982.2869, 780.2765
982.7690, 775.5978
983.2511, 765.6381
983.7332, 757.7875
984.2153, 756.5813
984.6974, 757.6108
985.1796, 754.4928
985.6617, 748.9326
986.1438, 744.4510
986.6259, 744.5178
987.1080, 742.7112
987.5901, 738.9372
988.0723, 732.3329
988.5544, 719.2117
989.0365, 700.1949
989.5186, 692.6391
990.0007, 698.5319
990.4828, 705.6713
990.9650, 703.3649
991.4471, 698.0529
991.9292, 694.6677
992.4113, 693.7528
992.8934, 696.2548
993.3755, 705.6583
993.8577, 710.9445
994.3398, 707.0020
994.8219, 697.4623
995.3040, 689.7396
995.7861, 684.4507
996.2682, 684.1210
996.7504, 694.0189
997.2325, 701.8354
997.7146, 700.0171
998.1967, 692.9805
998.6788, 685.4416
999.1609, 674.9370
999.6431, 674.9374
1000.125, 688.1258
1000.607, 700.4074
1001.089, 696.0107
1001.572, 683.6419
1002.054, 677.8664
1002.536, 678.8040
1003.018, 678.0002
1003.500, 669.2555
1003.982, 661.7545
1004.464, 659.4676
1004.946, 660.1212
1005.428, 655.5524
1005.911, 646.0914
1006.393, 640.7394
1006.875, 642.4846
1007.357, 648.1550
1007.839, 659.1138
1008.321, 670.0732
1008.803, 674.3779
1009.285, 667.3717
1009.768, 661.1225
1010.250, 655.3647
1010.732, 651.0363
1011.214, 649.2431
1011.696, 649.4212
1012.178, 651.1422
1012.660, 653.6549
1013.142, 652.3422
1013.624, 636.2731
1014.107, 624.3782
1014.589, 630.4513
1015.071, 646.8002
1015.553, 655.6182
1016.035, 655.2915
1016.517, 657.8211
1016.999, 666.3461
1017.481, 674.4233
1017.964, 672.3339
1018.446, 665.4379
1018.928, 661.8403
1019.410, 663.7866
1019.892, 663.3148
1020.374, 656.1758
1020.856, 649.7712
1021.338, 648.5743
1021.820, 651.0002
1022.303, 646.4698
1022.785, 636.2325
1023.267, 629.3568
1023.749, 632.6157
1024.231, 638.2408
1024.713, 643.4606
1025.195, 646.8300
1025.677, 645.0287
1026.160, 633.9758
1026.642, 630.3145
1027.124, 636.7709
1027.606, 644.8256
1028.088, 647.8024
1028.570, 645.2532
1029.052, 631.4812
1029.534, 607.4443
1030.016, 594.2639
1030.499, 611.2732
1030.981, 628.8849
1031.463, 635.5694
1031.945, 634.9883
1032.427, 642.6299
1032.909, 657.4086
1033.391, 659.2678
1033.873, 637.0092
1034.355, 613.1697
1034.838, 607.5361
1035.320, 612.0384
1035.802, 618.0781
1036.284, 626.9307
1036.766, 629.3420
1037.248, 624.1194
1037.730, 615.8953
1038.212, 606.5042
1038.695, 596.9617
1039.177, 588.4308
1039.659, 581.8505
1040.141, 581.3862
1040.623, 598.6504
1041.105, 610.5161
1041.587, 606.3242
1042.069, 594.8212
1042.552, 588.9214
1043.034, 588.7167
1043.516, 588.1962
1043.998, 586.2556
1044.480, 586.5908
1044.962, 597.9269
1045.444, 609.3518
1045.926, 608.1985
1046.408, 592.5770
1046.891, 584.2839
1047.373, 586.8338
1047.855, 589.7004
1048.337, 588.8429
1048.819, 586.1897
1049.301, 585.4046
1049.783, 586.1616
1050.265, 588.0720
1050.747, 593.7662
1051.230, 595.1447
1051.712, 584.0938
1052.194, 571.8935
1052.676, 566.6712
1053.158, 568.5881
1053.640, 574.6973
1054.122, 584.9332
1054.604, 593.5581
1055.087, 595.6847
1055.569, 595.3862
1056.051, 597.1448
1056.533, 599.2886
1057.015, 594.8342
1057.497, 575.9496
1057.979, 572.3388
1058.461, 592.8394
1058.943, 617.0739
1059.426, 616.2946
1059.908, 600.6664
1060.390, 588.3707
1060.872, 581.8529
1061.354, 580.1824
1061.836, 585.8284
1062.318, 593.6707
1062.800, 603.4929
1063.282, 613.3880
1063.765, 614.8808
1064.247, 608.6676
1064.729, 601.0280
1065.211, 593.7237
1065.693, 586.5707
1066.175, 575.8804
1066.657, 567.2539
1067.139, 568.5994
1067.622, 584.1614
1068.104, 591.0434
1068.586, 587.4108
1069.068, 584.2704
1069.550, 594.3208
1070.032, 606.8470
1070.514, 601.4182
1070.996, 583.6858
1071.479, 572.4089
1071.961, 578.1930
1072.443, 585.1459
1072.925, 592.6991
1073.407, 598.2653
1073.889, 596.4791
1074.371, 589.5543
1074.853, 586.6314
1075.335, 588.7556
1075.818, 592.6417
1076.300, 601.3755
1076.782, 606.2641
1077.264, 599.2348
1077.746, 583.8661
1078.228, 575.5475
1078.710, 574.4354
1079.192, 575.7921
1079.674, 578.8210
1080.157, 582.1591
1080.639, 580.9237
1081.121, 580.9435
1081.603, 592.1896
1082.085, 625.0087
1082.567, 634.5343
1083.049, 612.8861
1083.531, 589.0930
1084.013, 578.9383
1084.496, 578.4075
1084.978, 580.1490
1085.460, 583.4882
1085.942, 586.5394
1086.424, 586.5283
1086.906, 589.1584
1087.388, 597.5329
1087.870, 606.6949
1088.353, 611.9810
1088.835, 613.4828
1089.317, 611.7825
1089.799, 606.9755
1090.281, 600.2623
1090.763, 585.7775
1091.245, 576.1429
1091.727, 582.4814
1092.209, 599.6737
1092.692, 613.6410
1093.174, 624.8657
1093.656, 628.6372
1094.138, 622.9448
1094.620, 615.1032
1095.102, 613.6120
1095.584, 614.0510
1096.066, 610.3215
1096.548, 601.1993
1097.031, 597.7266
1097.513, 603.9202
1097.995, 607.1911
1098.477, 602.5955
1098.959, 592.6193
1099.441, 579.0096
1099.923, 564.6357
1100.405, 555.2381
1100.888, 552.2874
1101.370, 555.3389
1101.852, 570.0196
1102.334, 584.0466
1102.816, 590.4314
1103.298, 589.3514
1103.780, 579.0392
1104.262, 561.2502
1104.745, 548.2055
1105.227, 548.5073
1105.709, 552.8340
1106.191, 557.7991
1106.673, 563.3548
1107.155, 570.3956
1107.637, 579.9059
1108.119, 581.6588
1108.601, 574.6586
1109.083, 566.6493
1109.566, 561.6760
1110.048, 560.4492
1110.530, 566.1157
1111.012, 576.7254
1111.494, 582.4030
1111.976, 581.2560
1112.458, 579.5624
1112.940, 578.3353
1113.423, 577.1202
1113.905, 574.9686
1114.387, 572.5533
1114.869, 570.7498
1115.351, 569.6110
1115.833, 570.2400
1116.315, 577.9854
1116.797, 578.3176
1117.280, 561.8774
1117.762, 539.6514
1118.244, 540.6185
1118.726, 558.1646
1119.208, 574.3529
1119.690, 586.1233
1120.172, 589.3222
1120.654, 570.7800
1121.136, 554.1145
1121.619, 556.1569
1122.101, 574.0755
1122.583, 577.8015
1123.065, 568.8610
1123.547, 560.5580
1124.029, 556.9350
1124.511, 559.2256
1124.993, 577.4816
1125.475, 596.8459
1125.958, 596.2909
1126.440, 569.7559
1126.922, 559.0684
1127.404, 565.5009
1127.886, 574.9528
1128.368, 577.8631
1128.850, 578.3085
1129.332, 579.7508
1129.815, 581.8958
1130.297, 583.8665
1130.779, 586.5252
1131.261, 585.3250
1131.743, 578.3137
1132.225, 573.3425
1132.707, 586.1062
1133.189, 602.0025
1133.672, 596.0413
1134.154, 569.5708
1134.636, 553.3813
1135.118, 561.0549
1135.600, 565.6543
1136.082, 560.5883
1136.564, 551.6341
1137.046, 546.4630
1137.528, 545.0782
1138.010, 549.0270
1138.493, 559.2943
1138.975, 565.7814
1139.457, 558.9782
1139.939, 554.6539
1140.421, 560.4139
1140.903, 571.4042
1141.385, 570.4564
1141.867, 561.6728
1142.350, 563.8202
1142.832, 589.2949
1143.314, 604.7059
1143.796, 579.2224
1144.278, 550.2307
1144.760, 544.3098
1145.242, 558.9514
1145.724, 565.6100
1146.207, 564.8886
1146.689, 562.6842
1147.171, 562.7907
1147.653, 560.5811
1148.135, 547.7022
1148.617, 534.3414
1149.099, 533.6685
1149.581, 549.3917
1150.063, 551.8891
1150.546, 540.8489
1151.028, 529.5898
1151.510, 526.2390
1151.992, 527.4354
1152.474, 532.1172
1152.956, 538.9601
1153.438, 545.9919
1153.920, 555.5004
1154.402, 554.3546
1154.885, 539.9863
1155.367, 527.3317
1155.849, 535.3865
1156.331, 548.3898
1156.813, 546.1239
1157.295, 532.0707
1157.777, 526.4620
1158.259, 536.8168
1158.742, 538.4092
1159.224, 524.7245
1159.706, 512.0718
1160.188, 525.1022
1160.670, 548.4697
1161.152, 558.7561
1161.634, 554.8194
1162.116, 553.2537
1162.599, 557.4376
1163.081, 564.1973
1163.563, 575.0120
1164.045, 583.7611
1164.527, 577.8887
1165.009, 563.6036
1165.491, 553.0192
1165.973, 548.3867
1166.455, 542.8530
1166.938, 531.7241
1167.420, 523.8081
1167.902, 522.1290
1168.384, 525.3049
1168.866, 531.4733
1169.348, 539.7606
1169.830, 549.3087
1170.312, 562.4344
1170.794, 566.3185
1171.277, 548.6528
1171.759, 529.4752
1172.241, 515.5547
1172.723, 508.0852
1173.205, 515.8930
1173.687, 534.3328
1174.169, 546.5092
1174.651, 543.9788
1175.134, 539.9601
1175.616, 539.9614
1176.098, 539.8976
1176.580, 536.6458
1177.062, 530.8538
1177.544, 527.1275
1178.026, 525.4953
1178.508, 526.1346
1178.990, 530.1876
1179.473, 535.0789
1179.955, 541.7343
1180.437, 547.0992
1180.919, 548.3527
1181.401, 545.5026
1181.883, 538.5851
1182.365, 528.4953
1182.847, 524.8246
1183.329, 538.1123
1183.812, 553.6708
1184.294, 571.0446
1184.776, 581.5998
1185.258, 570.5749
1185.740, 537.2067
1186.222, 521.3940
1186.704, 524.3439
1187.186, 527.6851
1187.669, 512.9318
1188.151, 500.8611
1188.633, 505.9729
1189.115, 522.2255
1189.597, 542.8515
1190.079, 568.8285
1190.561, 570.7005
1191.043, 545.0630
1191.526, 522.2780
1192.008, 533.5734
1192.490, 549.2061
1192.972, 546.2280
1193.454, 531.6647
1193.936, 525.1394
1194.418, 527.0476
1194.900, 532.1407
1195.382, 540.1192
1195.865, 545.7380
1196.347, 542.2641
1196.829, 536.6573
1197.311, 533.9565
1197.793, 533.8264
1198.275, 533.6563
1198.757, 533.2552
1199.239, 536.8733
1199.721, 546.4777
1200.204, 553.0561
1200.686, 545.7662
1201.168, 534.2441
1201.650, 524.7043
1202.132, 518.1205
1202.614, 519.6993
1203.096, 530.2186
1203.578, 536.3196
1204.061, 533.1084
1204.543, 530.3933
1205.025, 538.9010
1205.507, 551.3378
1205.989, 563.3822
1206.471, 574.0578
1206.953, 570.0248
1207.435, 550.1569
1207.917, 533.9172
1208.400, 527.9978
1208.882, 526.7644
1209.364, 523.0634
1209.846, 522.5588
1210.328, 536.1680
1210.810, 563.3268
1211.292, 569.3691
1211.774, 553.2315
1212.256, 535.1586
1212.739, 519.4013
1213.221, 512.1437
1213.703, 528.9792
1214.185, 551.0535
1214.667, 555.2761
1215.149, 540.4670
1215.631, 534.6478
1216.113, 538.1030
1216.596, 541.8192
1217.078, 541.7691
1217.560, 540.5081
1218.042, 540.2983
1218.524, 540.0764
1219.006, 538.2657
1219.488, 534.6094
1219.970, 533.5803
1220.453, 535.2737
1220.935, 534.7244
1221.417, 526.7219
1221.899, 519.6543
1222.381, 523.5818
1222.863, 530.0854
1223.345, 527.7580
1223.827, 514.8951
1224.309, 510.3966
1224.792, 514.2358
1225.274, 518.8284
1225.756, 519.5246
1226.238, 520.1020
1226.720, 522.0546
1227.202, 526.2992
1227.684, 536.0988
1228.166, 553.6850
1228.648, 549.5525
1229.131, 524.8290
1229.613, 504.6889
1230.095, 507.6546
1230.577, 515.9173
1231.059, 521.4980
1231.541, 524.5369
1232.023, 524.8544
1232.505, 522.2148
1232.988, 522.2451
1233.470, 524.6970
1233.952, 525.4238
1234.434, 520.9673
1234.916, 515.1822
1235.398, 507.0182
1235.880, 500.9449
1236.362, 502.9409
1236.844, 512.7975
1237.327, 522.6224
1237.809, 531.5990
1238.291, 533.4852
1238.773, 515.0829
1239.255, 500.1132
1239.737, 504.4182
1240.219, 513.3339
1240.701, 508.4349
1241.183, 492.7044
1241.666, 495.4029
1242.148, 515.1758
1242.630, 531.8131
1243.112, 532.9120
1243.594, 530.4733
1244.076, 527.0849
1244.558, 523.6151
1245.040, 520.6058
1245.523, 518.2750
1246.005, 518.0195
1246.487, 519.5868
1246.969, 520.8287
1247.451, 522.4083
1247.933, 520.8260
1248.415, 513.8360
1248.897, 506.0711
1249.380, 502.2686
1249.862, 502.0533
1250.344, 506.2019
1250.826, 513.5438
1251.308, 518.0102
1251.790, 515.4418
1252.272, 511.6079
1252.754, 506.1985
1253.236, 502.3232
1253.719, 504.0606
1254.201, 509.7269
1254.683, 518.1328
1255.165, 527.7663
1255.647, 532.2294
1256.129, 526.6237
1256.611, 519.9195
1257.093, 511.2060
1257.575, 506.9433
1258.058, 521.2393
1258.540, 539.8826
1259.022, 538.7637
1259.504, 521.7134
1259.986, 511.5524
1260.468, 513.4843
1260.950, 516.5750
1261.432, 520.7696
1261.915, 520.4974
1262.397, 502.3207
1262.879, 482.9750
1263.361, 482.9445
1263.843, 498.5104
1264.325, 512.6508
1264.807, 525.7175
1265.289, 531.1202
1265.771, 527.6887
1266.254, 521.9467
1266.736, 521.4325
1267.218, 519.4670
1267.700, 507.6910
1268.182, 490.4611
1268.664, 479.5175
1269.146, 474.9024
1269.628, 477.7494
1270.110, 488.3798
1270.593, 498.0881
1271.075, 500.3587
1271.557, 499.8934
1272.039, 498.5823
1272.521, 496.9318
1273.003, 494.6983
1273.485, 492.2285
1273.967, 495.1311
1274.450, 503.5206
1274.932, 510.0385
1275.414, 509.5930
1275.896, 507.1331
1276.378, 503.7670
1276.860, 500.4182
1277.342, 499.1642
1277.824, 498.9728
1278.307, 495.2274
1278.789, 487.9862
1279.271, 480.5993
1279.753, 469.7732
1280.235, 466.7446
1280.717, 475.9478
1281.199, 488.7175
1281.681, 497.4229
1282.163, 501.1144
1282.646, 493.5948
1283.128, 477.8610
1283.610, 470.8789
1284.092, 482.3299
1284.574, 493.2896
1285.056, 502.9469
1285.538, 507.9686
1286.020, 501.1268
1286.502, 490.3639
1286.984, 486.3568
1287.467, 487.7503
1287.949, 488.4118
1288.431, 489.1833
1288.913, 481.9203
1289.395, 464.3733
1289.877, 452.6849
1290.359, 468.9577
1290.841, 489.2400
1291.324, 491.3258
1291.806, 482.5352
1292.288, 482.2341
1292.770, 491.7029
1293.252, 490.5031
1293.734, 477.7448
1294.216, 468.9183
1294.698, 480.2835
1295.181, 491.8873
1295.663, 492.1801
1296.145, 487.0573
1296.627, 480.2003
1297.109, 472.9173
1297.591, 479.3392
1298.073, 497.5228
1298.555, 510.9738
1299.037, 509.1328
1299.520, 504.1357
1300.002, 497.5235
1300.484, 491.5703
1300.966, 486.4603
1301.448, 483.9949
1301.930, 494.0479
1302.412, 511.8262
1302.894, 519.8199
1303.376, 502.2282
1303.859, 490.5214
1304.341, 486.8184
1304.823, 485.9402
1305.305, 483.8675
1305.787, 480.7539
##END=



