##NAMES=Takeuchiite
##RRUFFID=R100047
##IDEAL CHEMISTRY=Mg_2_Mn^3+^O_2_BO_3_
##LOCALITY=Langban, Filipstad, Varmland, Sweden
##OWNER=RRUFF
##SOURCE=William W Pinch (Large sample), Don Doell (Small sample)
##DESCRIPTION=Black thin blades embedded in calcite
##STATUS=The identification of this mineral has been confirmed by single-crystal X-ray diffraction.
##URL=rruff.info/R100047
90.49219, 8.900503
90.97430, 9.328816
91.45642, 9.481428
91.93854, 8.996333
92.42065, 8.341943
92.90277, 8.327098
93.38489, 9.117507
93.86700, 10.02051
94.34912, 10.19031
94.83124, 9.707824
95.31335, 9.024065
95.79547, 8.147515
96.27759, 7.225781
96.75970, 6.910540
97.24182, 7.460421
97.72394, 8.455645
98.20605, 9.030825
98.68817, 9.165128
99.17029, 9.051501
99.65240, 8.733130
100.1345, 8.182913
100.6166, 7.840428
101.0988, 7.881140
101.5809, 8.234073
102.0630, 8.269546
102.5451, 7.893064
103.0272, 7.368114
103.5093, 6.964314
103.9915, 6.696384
104.4736, 6.521339
104.9557, 6.433993
105.4378, 6.437963
105.9199, 6.520026
106.4020, 6.749383
106.8842, 7.023391
107.3663, 7.172643
107.8484, 7.206021
108.3305, 7.101973
108.8126, 6.845853
109.2947, 6.366493
109.7769, 5.851188
110.2590, 5.062270
110.7411, 4.193886
111.2232, 3.870117
111.7053, 4.693277
112.1874, 5.646487
112.6696, 6.267730
113.1517, 6.083421
113.6338, 6.028258
114.1159, 6.422987
114.5980, 7.166214
115.0801, 7.536535
115.5623, 7.102415
116.0444, 6.353256
116.5265, 5.670348
117.0086, 5.174007
117.4907, 4.733719
117.9728, 4.212074
118.4550, 3.597752
118.9371, 3.251732
119.4192, 3.512429
119.9013, 4.094638
120.3834, 4.631363
120.8655, 5.115016
121.3477, 5.411232
121.8298, 5.329678
122.3119, 4.786361
122.7940, 4.265725
123.2761, 4.090109
123.7582, 4.192745
124.2404, 4.424904
124.7225, 4.876199
125.2046, 5.355945
125.6867, 5.616766
126.1688, 5.599813
126.6509, 5.422048
127.1331, 5.017370
127.6152, 4.471882
128.0973, 4.213439
128.5794, 4.934408
129.0615, 6.171624
129.5436, 6.754052
130.0258, 6.182294
130.5079, 5.108988
130.9900, 4.673637
131.4721, 4.879534
131.9542, 5.316435
132.4363, 5.710489
132.9185, 6.058020
133.4006, 6.335289
133.8827, 6.545206
134.3648, 6.676790
134.8469, 6.638542
135.3290, 6.381948
135.8112, 6.168390
136.2933, 6.361496
136.7754, 6.990061
137.2575, 7.578479
137.7396, 7.942381
138.2217, 8.083823
138.7039, 8.345380
139.1860, 8.792660
139.6681, 9.257097
140.1502, 9.431075
140.6323, 9.198587
141.1144, 9.058402
141.5966, 9.287930
142.0787, 10.05087
142.5608, 10.40164
143.0429, 10.15416
143.5250, 9.599932
144.0071, 9.427447
144.4893, 9.830770
144.9714, 10.30347
145.4535, 10.56290
145.9356, 10.24310
146.4177, 10.48175
146.8998, 11.62464
147.3820, 13.37997
147.8641, 14.57002
148.3462, 14.81898
148.8283, 14.84187
149.3104, 15.01187
149.7925, 15.33963
150.2747, 15.80380
150.7568, 16.49124
151.2389, 17.37323
151.7210, 18.09348
152.2031, 18.37195
152.6852, 18.65129
153.1674, 19.21027
153.6495, 20.65492
154.1316, 21.75262
154.6137, 22.21880
155.0958, 22.03942
155.5779, 21.87449
156.0601, 21.77035
156.5422, 21.72585
157.0243, 21.74173
157.5064, 21.96557
157.9885, 22.11283
158.4706, 22.01594
158.9528, 21.61821
159.4349, 21.43090
159.9170, 21.71145
160.3991, 22.23435
160.8812, 22.73899
161.3633, 23.11606
161.8455, 23.48660
162.3276, 23.87597
162.8097, 24.25964
163.2918, 24.77334
163.7739, 25.71006
164.2560, 26.74964
164.7382, 27.26567
165.2203, 26.78832
165.7024, 26.23474
166.1845, 26.21162
166.6666, 26.97004
167.1487, 27.66288
167.6309, 27.69801
168.1130, 27.33357
168.5951, 27.11306
169.0772, 27.53119
169.5593, 28.07174
170.0414, 28.26761
170.5236, 27.93706
171.0057, 27.50012
171.4878, 27.17341
171.9699, 26.96522
172.4520, 26.91060
172.9341, 27.21426
173.4163, 27.61124
173.8984, 27.76014
174.3805, 27.46700
174.8626, 27.10902
175.3447, 27.05726
175.8268, 27.26190
176.3090, 27.49760
176.7911, 27.75780
177.2732, 27.92405
177.7553, 27.76063
178.2374, 27.01975
178.7195, 26.13720
179.2017, 25.65076
179.6838, 25.53377
180.1659, 25.59896
180.6480, 25.71462
181.1301, 25.89921
181.6122, 26.23584
182.0944, 26.97206
182.5765, 27.70943
183.0586, 27.63030
183.5407, 26.74694
184.0228, 25.77245
184.5049, 25.27500
184.9871, 25.20107
185.4692, 25.41318
185.9513, 26.12107
186.4334, 26.99066
186.9155, 27.11538
187.3976, 26.44080
187.8798, 25.65400
188.3619, 25.50670
188.8440, 25.90818
189.3261, 26.28570
189.8082, 26.38688
190.2903, 26.31784
190.7725, 26.55576
191.2546, 27.17339
191.7367, 27.73125
192.2188, 27.63954
192.7009, 26.93134
193.1830, 26.22881
193.6652, 25.70617
194.1473, 25.36370
194.6294, 25.27846
195.1115, 25.48688
195.5936, 25.82728
196.0757, 26.18692
196.5579, 26.57673
197.0400, 26.69719
197.5221, 26.27206
198.0042, 25.35735
198.4863, 24.81771
198.9684, 24.71856
199.4506, 24.85645
199.9327, 24.97199
200.4148, 25.07055
200.8969, 25.10858
201.3790, 25.07618
201.8611, 24.97408
202.3433, 24.72775
202.8254, 24.24794
203.3075, 23.76351
203.7896, 23.72289
204.2717, 24.20506
204.7538, 24.71811
205.2360, 25.04906
205.7181, 25.17671
206.2002, 25.33838
206.6823, 25.58558
207.1644, 25.80567
207.6465, 25.72345
208.1287, 25.22971
208.6108, 24.82063
209.0929, 24.78425
209.5750, 25.23433
210.0571, 25.41589
210.5392, 25.22791
211.0214, 24.86341
211.5035, 24.73690
211.9856, 24.91907
212.4677, 25.14594
212.9498, 25.33550
213.4319, 25.52345
213.9140, 25.49512
214.3962, 25.15474
214.8783, 24.65697
215.3604, 24.37769
215.8425, 24.38797
216.3246, 24.44869
216.8067, 24.44000
217.2889, 24.31619
217.7710, 24.29705
218.2531, 24.46680
218.7352, 24.70068
219.2173, 24.65779
219.6994, 24.15672
220.1816, 23.72421
220.6637, 23.59011
221.1458, 23.81018
221.6279, 24.20291
222.1100, 24.91935
222.5921, 25.74893
223.0743, 26.13439
223.5564, 25.91918
224.0385, 25.53188
224.5206, 25.14072
225.0027, 24.67276
225.4848, 24.38791
225.9670, 24.33729
226.4491, 24.45819
226.9312, 24.59421
227.4133, 24.74664
227.8954, 24.91089
228.3775, 25.10718
228.8597, 25.44024
229.3418, 25.53166
229.8239, 25.23196
230.3060, 24.72518
230.7881, 24.55516
231.2702, 24.91932
231.7524, 25.31732
232.2345, 25.51092
232.7166, 25.39263
233.1987, 25.32516
233.6808, 25.31143
234.1629, 25.34886
234.6451, 25.45040
235.1272, 25.70936
235.6093, 25.89350
236.0914, 25.87426
236.5735, 25.49356
237.0556, 25.27399
237.5378, 25.24662
238.0199, 25.37166
238.5020, 25.57021
238.9841, 25.95195
239.4662, 26.24959
239.9483, 26.32071
240.4305, 25.99711
240.9126, 25.85163
241.3947, 25.97998
241.8768, 26.25584
242.3589, 26.35180
242.8410, 26.13218
243.3232, 25.94010
243.8053, 25.96209
244.2874, 26.42139
244.7695, 26.51105
245.2516, 25.94556
245.7337, 25.12211
246.2159, 25.01743
246.6980, 26.23165
247.1801, 27.21904
247.6622, 27.26345
248.1443, 25.79001
248.6264, 25.03332
249.1086, 25.32846
249.5907, 26.16992
250.0728, 26.47139
250.5549, 25.85848
251.0370, 25.33804
251.5191, 25.35507
252.0013, 26.16208
252.4834, 26.64618
252.9655, 26.67753
253.4476, 26.45996
253.9297, 26.36556
254.4118, 26.44385
254.8940, 26.55603
255.3761, 26.69333
255.8582, 26.92448
256.3403, 26.85978
256.8224, 26.29545
257.3046, 25.59158
257.7867, 25.39828
258.2688, 25.94552
258.7509, 26.51779
259.2330, 26.89571
259.7151, 27.07047
260.1973, 27.12366
260.6794, 27.05568
261.1615, 26.86632
261.6436, 26.51060
262.1257, 25.85963
262.6078, 25.35085
263.0900, 25.14831
263.5721, 25.28280
264.0542, 25.42393
264.5363, 25.63106
265.0184, 25.77495
265.5005, 25.60849
265.9827, 24.93142
266.4648, 24.54537
266.9469, 24.80487
267.4290, 25.73071
267.9111, 26.20732
268.3932, 26.07381
268.8754, 25.73361
269.3575, 25.64465
269.8396, 25.86544
270.3217, 26.13388
270.8038, 26.45698
271.2859, 26.81900
271.7681, 26.77343
272.2502, 26.15380
272.7323, 25.47220
273.2144, 25.37532
273.6965, 26.02722
274.1786, 26.35034
274.6608, 25.99784
275.1429, 25.09279
275.6250, 24.51565
276.1071, 24.30413
276.5892, 24.31126
277.0714, 24.47418
277.5535, 24.82212
278.0356, 25.06151
278.5177, 25.12251
278.9998, 25.03834
279.4819, 24.89377
279.9641, 24.64614
280.4462, 24.51145
280.9283, 24.69440
281.4104, 25.20175
281.8925, 25.79772
282.3746, 26.55030
282.8568, 27.29032
283.3389, 27.43808
283.8210, 26.92704
284.3031, 26.33778
284.7852, 26.02804
285.2673, 25.99486
285.7495, 26.18390
286.2316, 26.65802
286.7137, 27.25086
287.1958, 27.63442
287.6779, 27.80588
288.1600, 27.84071
288.6422, 27.73274
289.1243, 27.50289
289.6064, 27.29039
290.0885, 27.07877
290.5706, 26.94905
291.0527, 27.17536
291.5349, 27.72132
292.0170, 28.04754
292.4991, 27.61479
292.9812, 26.68285
293.4633, 26.21894
293.9454, 26.30374
294.4276, 26.70918
294.9097, 27.28779
295.3918, 27.98821
295.8739, 28.52461
296.3560, 28.67910
296.8381, 28.57639
297.3203, 28.48897
297.8024, 28.42335
298.2845, 28.36713
298.7666, 28.35241
299.2487, 28.34548
299.7308, 28.23936
300.2130, 27.72444
300.6951, 27.18331
301.1772, 27.34266
301.6593, 28.19814
302.1414, 29.18686
302.6235, 29.94617
303.1057, 30.47424
303.5878, 30.73545
304.0699, 30.55229
304.5520, 30.23527
305.0341, 30.10758
305.5162, 30.16309
305.9984, 30.35279
306.4805, 30.89404
306.9626, 31.48207
307.4447, 31.63782
307.9268, 30.95293
308.4089, 30.17266
308.8911, 29.98957
309.3732, 30.29213
309.8553, 30.62226
310.3374, 30.62893
310.8195, 30.56751
311.3016, 30.72163
311.7838, 31.25623
312.2659, 31.78630
312.7480, 32.05539
313.2301, 32.12235
313.7122, 32.14021
314.1943, 32.04964
314.6765, 32.02021
315.1586, 32.25949
315.6407, 32.93979
316.1228, 33.37938
316.6049, 32.99982
317.0870, 32.19453
317.5692, 31.61710
318.0513, 31.73285
318.5334, 31.93628
319.0155, 31.86067
319.4976, 31.40575
319.9797, 31.18394
320.4619, 31.67552
320.9440, 32.40918
321.4261, 32.85166
321.9082, 32.60921
322.3903, 32.31892
322.8724, 32.16348
323.3546, 32.15239
323.8367, 32.17445
324.3188, 32.38185
324.8009, 32.52196
325.2830, 32.40101
325.7651, 31.40425
326.2473, 30.80263
326.7294, 31.05150
327.2115, 32.00976
327.6936, 32.55246
328.1757, 32.21612
328.6578, 31.73742
329.1400, 31.48526
329.6221, 31.91662
330.1042, 31.95109
330.5863, 31.25879
331.0684, 30.15320
331.5505, 29.57847
332.0327, 29.87169
332.5148, 30.29306
332.9969, 30.60196
333.4790, 30.86685
333.9611, 30.77973
334.4432, 30.07447
334.9254, 29.16907
335.4075, 28.84236
335.8896, 29.43882
336.3717, 29.91141
336.8538, 29.89482
337.3359, 29.33498
337.8180, 28.84311
338.3001, 28.37274
338.7823, 28.04147
339.2644, 28.09120
339.7465, 28.67170
340.2286, 28.97448
340.7107, 28.76824
341.1928, 28.10898
341.6750, 27.30750
342.1571, 26.24103
342.6392, 25.44026
343.1213, 25.53529
343.6034, 26.54253
344.0855, 27.24134
344.5677, 27.40015
345.0498, 27.16176
345.5319, 26.77194
346.0140, 26.22213
346.4961, 25.76324
346.9782, 25.59356
347.4604, 25.66475
347.9425, 25.77826
348.4246, 25.94445
348.9067, 26.06643
349.3888, 25.95341
349.8709, 25.64616
350.3531, 25.36950
350.8352, 25.22757
351.3173, 25.19553
351.7994, 25.24941
352.2815, 25.39478
352.7636, 25.54978
353.2458, 25.65549
353.7279, 25.71187
354.2100, 25.71897
354.6921, 25.68185
355.1742, 25.59205
355.6563, 25.39402
356.1385, 25.10240
356.6206, 24.86220
357.1027, 24.72733
357.5848, 24.71647
358.0669, 24.89358
358.5490, 25.53555
359.0312, 25.97998
359.5133, 25.59114
359.9954, 24.61854
360.4775, 23.83441
360.9596, 23.68418
361.4417, 23.80102
361.9239, 23.94402
362.4060, 24.07193
362.8881, 24.23613
363.3702, 24.49891
363.8523, 24.80190
364.3344, 25.05560
364.8166, 25.31952
365.2987, 25.45539
365.7808, 25.33643
366.2629, 24.91343
366.7450, 24.63292
367.2271, 24.67103
367.7093, 24.82960
368.1914, 24.93449
368.6735, 24.88764
369.1556, 24.87902
369.6377, 24.92026
370.1198, 25.01358
370.6020, 25.19936
371.0841, 25.73146
371.5662, 26.12077
372.0483, 26.07596
372.5304, 25.27177
373.0125, 24.63933
373.4947, 24.20314
373.9768, 23.95205
374.4589, 23.87889
374.9410, 24.05519
375.4231, 24.26237
375.9052, 24.40772
376.3874, 24.47394
376.8695, 24.66450
377.3516, 25.08719
377.8337, 25.45624
378.3158, 25.33450
378.7979, 24.63987
379.2801, 24.06894
379.7622, 23.82965
380.2443, 23.85853
380.7264, 23.86274
381.2085, 23.83500
381.6906, 23.83424
382.1728, 23.95354
382.6549, 24.16479
383.1370, 24.28379
383.6191, 24.27891
384.1012, 24.17127
384.5833, 23.88511
385.0655, 23.46402
385.5476, 23.22834
386.0297, 23.56296
386.5118, 24.15687
386.9939, 24.44452
387.4760, 24.36133
387.9582, 24.09323
388.4403, 23.57942
388.9224, 23.01365
389.4045, 22.79621
389.8866, 23.49718
390.3687, 24.33281
390.8509, 24.56889
391.3330, 24.24796
391.8151, 23.90605
392.2972, 23.99641
392.7793, 24.15692
393.2614, 24.01901
393.7436, 23.25974
394.2257, 22.51735
394.7078, 21.86556
395.1899, 21.41984
395.6720, 21.48379
396.1541, 22.96250
396.6363, 24.32862
397.1184, 24.77245
397.6005, 23.89312
398.0826, 23.09655
398.5647, 22.56921
399.0468, 22.24406
399.5290, 22.03989
400.0111, 22.04549
400.4932, 22.07053
400.9753, 22.06096
401.4574, 22.01762
401.9395, 22.09183
402.4217, 22.38167
402.9038, 22.68590
403.3859, 22.87979
403.8680, 22.96814
404.3501, 22.91983
404.8322, 22.67292
405.3144, 22.31583
405.7965, 22.09851
406.2786, 22.05347
406.7607, 22.03586
407.2428, 21.99907
407.7249, 21.94406
408.2071, 21.81072
408.6892, 21.58537
409.1713, 21.32036
409.6534, 20.99691
410.1355, 20.63160
410.6176, 20.52299
411.0998, 20.80522
411.5819, 21.36834
412.0640, 22.08028
412.5461, 22.92200
413.0282, 23.55805
413.5103, 23.68826
413.9925, 23.42617
414.4746, 22.93566
414.9567, 22.14817
415.4388, 21.41980
415.9209, 21.10566
416.4030, 21.13507
416.8852, 21.32451
417.3673, 21.85117
417.8494, 22.32128
418.3315, 22.31474
418.8136, 21.80197
419.2957, 21.33376
419.7779, 21.22412
420.2600, 21.31188
420.7421, 21.43735
421.2242, 21.58561
421.7063, 21.73212
422.1884, 21.89874
422.6706, 22.06563
423.1527, 22.16428
423.6348, 22.18146
424.1169, 22.12402
424.5990, 21.94772
425.0811, 21.45239
425.5633, 21.30293
426.0454, 21.80472
426.5275, 22.54043
427.0096, 22.98565
427.4917, 22.97552
427.9738, 22.91579
428.4560, 22.86853
428.9381, 22.83454
429.4202, 22.85848
429.9023, 22.99307
430.3844, 23.08792
430.8665, 23.02700
431.3487, 22.79291
431.8308, 22.47850
432.3129, 22.03001
432.7950, 21.58553
433.2771, 21.49579
433.7592, 21.77544
434.2414, 22.05090
434.7235, 22.18278
435.2056, 22.17392
435.6877, 21.95068
436.1698, 21.48954
436.6519, 21.11092
437.1341, 21.23566
437.6162, 21.70193
438.0983, 22.09385
438.5804, 22.29774
439.0625, 22.38189
439.5446, 22.35996
440.0268, 22.26704
440.5089, 22.23089
440.9910, 22.46753
441.4731, 22.71119
441.9552, 22.69477
442.4373, 22.34593
442.9195, 21.97501
443.4016, 21.58753
443.8837, 21.31646
444.3658, 21.32346
444.8479, 21.97232
445.3300, 22.58840
445.8122, 23.00022
446.2943, 23.20352
446.7764, 23.24302
447.2585, 22.96387
447.7406, 22.64565
448.2227, 22.41639
448.7049, 22.24351
449.1870, 22.23646
449.6691, 22.51031
450.1512, 22.89294
450.6333, 23.08910
451.1154, 22.97945
451.5976, 22.95316
452.0797, 23.18320
452.5618, 23.63480
453.0439, 23.72326
453.5260, 23.34952
454.0081, 22.91745
454.4903, 22.79092
454.9724, 22.96502
455.4545, 22.99118
455.9366, 22.77368
456.4187, 22.47459
456.9008, 22.35818
457.3830, 22.41265
457.8651, 22.55251
458.3472, 22.90767
458.8293, 23.26896
459.3114, 23.19914
459.7935, 22.69959
460.2757, 22.11331
460.7578, 21.52115
461.2399, 21.07567
461.7220, 21.04672
462.2041, 21.78848
462.6862, 22.47305
463.1684, 22.45924
463.6505, 21.97701
464.1326, 21.55801
464.6147, 21.40062
465.0968, 21.37062
465.5789, 21.39808
466.0611, 21.46784
466.5432, 21.66055
467.0253, 22.19527
467.5074, 22.74971
467.9895, 23.05321
468.4716, 23.09434
468.9538, 22.86167
469.4359, 22.05696
469.9180, 20.98521
470.4001, 20.70582
470.8822, 21.69952
471.3643, 22.63559
471.8465, 22.93396
472.3286, 22.52273
472.8107, 22.26011
473.2928, 22.21136
473.7749, 22.16070
474.2570, 21.77353
474.7392, 21.05416
475.2213, 20.58047
475.7034, 20.48433
476.1855, 20.69628
476.6676, 21.30200
477.1497, 22.23080
477.6319, 22.79854
478.1140, 22.23104
478.5961, 21.15621
479.0782, 20.68542
479.5603, 20.92688
480.0424, 21.26983
480.5246, 21.11764
481.0067, 20.78276
481.4888, 20.72034
481.9709, 21.39786
482.4530, 22.01126
482.9352, 22.07612
483.4173, 21.72924
483.8994, 21.40309
484.3815, 21.17354
484.8636, 21.05462
485.3457, 21.12555
485.8279, 21.51787
486.3100, 21.61055
486.7921, 21.03820
487.2742, 20.31561
487.7563, 19.89482
488.2384, 19.96752
488.7206, 20.00139
489.2027, 19.85597
489.6848, 19.64094
490.1669, 19.84388
490.6490, 20.66045
491.1311, 21.29403
491.6133, 21.24234
492.0954, 20.52090
492.5775, 20.09648
493.0596, 20.00137
493.5417, 20.07971
494.0238, 20.18152
494.5060, 20.31364
494.9881, 20.55118
495.4702, 21.03510
495.9523, 21.43460
496.4344, 21.02447
496.9165, 20.04062
497.3987, 19.37147
497.8808, 19.80343
498.3629, 20.60608
498.8450, 21.06287
499.3271, 21.10953
499.8092, 21.15228
500.2914, 21.49764
500.7735, 21.90030
501.2556, 22.13478
501.7377, 21.99197
502.2198, 21.85628
502.7019, 21.78311
503.1841, 21.77529
503.6662, 21.84035
504.1483, 22.18990
504.6304, 22.38658
505.1125, 22.25449
505.5946, 21.75883
506.0768, 21.40317
506.5589, 21.25053
507.0410, 21.14896
507.5231, 20.93518
508.0052, 20.56189
508.4873, 20.39911
508.9695, 20.51193
509.4516, 20.81870
509.9337, 21.25341
510.4158, 21.80278
510.8979, 22.20944
511.3800, 22.26125
511.8622, 22.12719
512.3443, 22.27673
512.8264, 22.68619
513.3085, 22.93952
513.7906, 22.45946
514.2728, 21.73164
514.7549, 21.44764
515.2370, 21.88179
515.7191, 22.33035
516.2012, 22.23484
516.6833, 21.89357
517.1655, 21.76356
517.6476, 22.37306
518.1297, 22.83972
518.6118, 22.72012
519.0939, 22.07638
519.5760, 21.67939
520.0582, 21.81236
520.5403, 22.05004
521.0224, 22.21613
521.5045, 22.27512
521.9866, 22.36296
522.4688, 22.45996
522.9509, 22.60740
523.4330, 22.86945
523.9151, 23.26287
524.3972, 23.70199
524.8793, 24.23483
525.3615, 24.74102
525.8436, 24.84412
526.3257, 24.54926
526.8078, 24.22022
527.2899, 24.06736
527.7720, 24.03143
528.2542, 23.93345
528.7363, 23.75939
529.2184, 23.72871
529.7005, 24.21089
530.1826, 24.89229
530.6647, 25.32675
531.1469, 25.23722
531.6290, 25.12635
532.1111, 25.26177
532.5932, 25.57561
533.0753, 25.92817
533.5574, 26.49773
534.0396, 26.89139
534.5217, 26.84031
535.0038, 26.29902
535.4859, 26.12135
535.9680, 26.63528
536.4501, 27.21307
536.9323, 27.47886
537.4144, 27.28588
537.8965, 27.19704
538.3786, 27.23830
538.8607, 27.36370
539.3428, 27.52064
539.8250, 27.71450
540.3071, 27.88173
540.7892, 27.97885
541.2713, 28.05673
541.7534, 28.24486
542.2355, 28.53638
542.7177, 28.85621
543.1998, 29.18403
543.6819, 29.50408
544.1640, 29.78649
544.6461, 30.02858
545.1282, 30.25586
545.6104, 30.56202
546.0925, 30.82911
546.5746, 30.91434
547.0567, 30.61620
547.5388, 30.35795
548.0209, 30.19144
548.5031, 30.17057
548.9852, 30.40859
549.4673, 31.24695
549.9494, 32.00970
550.4315, 32.59676
550.9136, 33.00753
551.3958, 32.96038
551.8779, 32.10649
552.3600, 31.38212
552.8421, 31.46782
553.3242, 32.46589
553.8063, 33.34056
554.2885, 34.08504
554.7706, 34.60381
555.2527, 34.61768
555.7348, 34.21980
556.2169, 34.00934
556.6990, 34.25440
557.1812, 34.66132
557.6633, 34.80891
558.1454, 34.75352
558.6275, 34.70711
559.1096, 34.66554
559.5917, 34.76929
560.0739, 35.27849
560.5560, 36.22050
561.0381, 36.88142
561.5202, 36.68233
562.0023, 36.26068
562.4844, 36.09241
562.9666, 36.50092
563.4487, 36.77497
563.9308, 36.72654
564.4129, 36.58638
564.8950, 36.74120
565.3771, 37.38999
565.8593, 37.87096
566.3414, 37.97733
566.8235, 37.80871
567.3056, 37.84401
567.7877, 38.11110
568.2698, 38.37657
568.7520, 38.53652
569.2341, 38.58525
569.7162, 38.38380
570.1983, 37.90144
570.6804, 37.62752
571.1625, 38.32455
571.6447, 39.46112
572.1268, 40.14415
572.6089, 39.99937
573.0910, 39.72390
573.5731, 39.73016
574.0552, 39.91975
574.5374, 40.12089
575.0195, 40.43512
575.5016, 40.59303
575.9837, 40.36857
576.4658, 39.81337
576.9479, 39.56604
577.4301, 39.84535
577.9122, 40.19289
578.3943, 40.43116
578.8764, 40.55323
579.3585, 40.50407
579.8406, 40.09809
580.3228, 39.93349
580.8049, 40.96026
581.2870, 43.07433
581.7691, 44.39129
582.2512, 44.41471
582.7333, 43.90752
583.2155, 44.03535
583.6975, 44.59312
584.1796, 44.94275
584.6617, 44.43425
585.1439, 43.84040
585.6260, 43.97857
586.1081, 44.70817
586.5902, 45.31279
587.0723, 45.30599
587.5544, 45.19539
588.0366, 45.24904
588.5187, 45.49743
589.0008, 45.90575
589.4829, 46.75121
589.9650, 47.56584
590.4471, 47.98475
590.9293, 47.83660
591.4114, 47.67003
591.8935, 47.46159
592.3756, 47.31184
592.8577, 47.42590
593.3398, 47.81365
593.8220, 48.28762
594.3041, 48.84092
594.7862, 49.40075
595.2683, 49.81973
595.7504, 50.09468
596.2325, 50.22817
596.7147, 50.03677
597.1968, 49.80297
597.6789, 49.89365
598.1610, 50.33973
598.6431, 50.80441
599.1252, 51.26416
599.6074, 51.56287
600.0895, 51.54477
600.5716, 50.89873
601.0537, 50.43171
601.5358, 50.34249
602.0179, 50.46855
602.5001, 50.62000
602.9822, 50.83339
603.4643, 50.98362
603.9464, 50.99129
604.4285, 50.94447
604.9106, 51.22692
605.3928, 51.89159
605.8749, 52.37508
606.3570, 52.23857
606.8391, 51.71589
607.3212, 51.63003
607.8033, 51.96370
608.2855, 52.30880
608.7676, 52.31813
609.2497, 52.16542
609.7318, 52.06935
610.2139, 52.07122
610.6960, 52.08612
611.1782, 52.01976
611.6603, 51.96294
612.1424, 52.01202
612.6245, 52.40159
613.1066, 52.64044
613.5887, 52.57886
614.0709, 52.34464
614.5530, 52.17623
615.0351, 52.06294
615.5172, 52.05669
615.9993, 52.23822
616.4814, 52.53883
616.9636, 52.53550
617.4457, 52.20101
617.9278, 51.88031
618.4099, 51.80865
618.8920, 51.91869
619.3741, 52.05176
619.8563, 52.20426
620.3384, 52.31269
620.8205, 52.27770
621.3026, 52.18918
621.7847, 52.14784
622.2668, 52.16291
622.7490, 52.25808
623.2311, 52.53996
623.7132, 52.87394
624.1953, 53.08803
624.6774, 52.93652
625.1595, 52.93654
625.6417, 53.25788
626.1238, 53.75410
626.6059, 54.00177
627.0880, 53.94805
627.5701, 53.80611
628.0522, 53.60978
628.5344, 53.38806
629.0165, 53.29964
629.4986, 53.34667
629.9807, 53.43513
630.4628, 53.53921
630.9449, 53.62645
631.4271, 53.60488
631.9092, 53.46206
632.3913, 53.35964
632.8734, 53.60001
633.3555, 53.84915
633.8376, 53.70856
634.3198, 52.74617
634.8019, 52.07888
635.2840, 52.17363
635.7661, 52.67321
636.2482, 53.07943
636.7303, 53.37535
637.2125, 53.58463
637.6946, 53.70998
638.1767, 53.75075
638.6588, 53.67468
639.1409, 53.45714
639.6230, 53.29767
640.1052, 53.31443
640.5873, 53.43394
641.0694, 53.40358
641.5515, 53.23969
642.0336, 53.12225
642.5157, 53.11641
642.9979, 53.25579
643.4800, 53.71020
643.9621, 54.51978
644.4442, 55.04683
644.9263, 54.79904
645.4084, 54.24938
645.8906, 53.76434
646.3727, 53.37144
646.8548, 53.09895
647.3369, 52.93853
647.8190, 52.89580
648.3011, 53.00998
648.7833, 53.35745
649.2654, 53.61204
649.7475, 53.73882
650.2296, 53.72992
650.7117, 53.46381
651.1938, 52.97387
651.6760, 52.69634
652.1581, 52.93388
652.6402, 53.38658
653.1223, 53.70674
653.6044, 53.87007
654.0865, 53.78749
654.5687, 53.05664
655.0508, 52.34208
655.5329, 52.09277
656.0150, 52.35482
656.4971, 52.72532
656.9792, 53.28149
657.4614, 53.78582
657.9435, 54.13556
658.4256, 54.36811
658.9077, 54.26639
659.3898, 53.68338
659.8719, 53.02367
660.3541, 52.70834
660.8362, 52.72929
661.3183, 52.84022
661.8004, 53.02557
662.2825, 53.22408
662.7646, 53.42100
663.2468, 53.56752
663.7289, 53.54045
664.2110, 53.24664
664.6931, 52.82794
665.1752, 52.27411
665.6573, 51.67457
666.1395, 51.22713
666.6216, 50.89956
667.1037, 50.82824
667.5858, 51.27356
668.0679, 52.11420
668.5500, 52.48436
669.0322, 52.24633
669.5143, 51.81049
669.9964, 51.30127
670.4785, 50.72834
670.9606, 50.25363
671.4427, 49.87724
671.9249, 49.58092
672.4070, 49.39868
672.8891, 49.27087
673.3712, 49.03506
673.8533, 48.65686
674.3354, 48.36436
674.8176, 48.55266
675.2997, 48.79822
675.7818, 48.61745
676.2639, 47.57713
676.7460, 46.72078
677.2281, 46.50729
677.7103, 46.51720
678.1924, 46.21788
678.6745, 45.35664
679.1566, 44.76457
679.6387, 44.63053
680.1208, 44.74883
680.6030, 44.69527
681.0851, 44.47116
681.5672, 44.12892
682.0493, 43.67408
682.5314, 43.12703
683.0135, 42.40021
683.4957, 41.57785
683.9778, 41.02124
684.4599, 41.13913
684.9420, 41.41221
685.4241, 41.47733
685.9063, 41.33614
686.3884, 41.23845
686.8705, 41.19900
687.3526, 41.27161
687.8347, 41.61845
688.3168, 42.38617
688.7990, 42.24906
689.2811, 40.84306
689.7632, 39.34229
690.2453, 38.70676
690.7274, 38.86828
691.2095, 39.04986
691.6917, 39.21294
692.1738, 39.30506
692.6559, 39.30502
693.1380, 39.18451
693.6201, 38.86631
694.1022, 38.26700
694.5844, 37.65571
695.0665, 37.08549
695.5486, 36.63417
696.0307, 36.40086
696.5128, 36.56697
696.9949, 36.76632
697.4771, 37.07427
697.9592, 37.34665
698.4413, 37.24279
698.9234, 36.65244
699.4055, 36.13031
699.8876, 35.83849
700.3698, 35.69074
700.8519, 35.51678
701.3340, 35.30782
701.8161, 35.00525
702.2982, 34.48046
702.7803, 33.91264
703.2625, 33.44984
703.7446, 33.10238
704.2267, 32.92184
704.7088, 33.20881
705.1909, 33.42080
705.6730, 33.20329
706.1552, 32.49218
706.6373, 31.99996
707.1194, 31.85019
707.6015, 31.75094
708.0836, 31.57326
708.5657, 31.32108
709.0479, 30.89500
709.5300, 30.27068
710.0121, 29.61782
710.4942, 29.07314
710.9763, 28.62097
711.4584, 28.22460
711.9406, 27.88815
712.4227, 27.55662
712.9048, 27.23584
713.3869, 26.87343
713.8690, 26.39371
714.3511, 25.62715
714.8333, 25.02990
715.3154, 24.80110
715.7975, 24.73068
716.2796, 24.62618
716.7617, 24.54274
717.2438, 24.23254
717.7260, 23.57714
718.2081, 22.82717
718.6902, 22.47616
719.1723, 22.47343
719.6544, 22.44834
720.1365, 22.27618
720.6187, 22.04348
721.1008, 21.84483
721.5829, 21.66475
722.0650, 21.46182
722.5471, 21.11174
723.0292, 20.84342
723.5114, 20.89922
723.9935, 21.15686
724.4756, 21.06947
724.9577, 20.38160
725.4398, 19.71784
725.9219, 19.20930
726.4041, 18.87328
726.8862, 18.88988
727.3683, 19.29345
727.8504, 19.66041
728.3325, 19.74121
728.8146, 19.62548
729.2968, 19.43177
729.7789, 19.18045
730.2610, 19.03580
730.7431, 19.25746
731.2252, 19.50836
731.7073, 19.51394
732.1895, 19.22923
732.6716, 18.98257
733.1537, 18.80223
733.6358, 18.70330
734.1179, 18.70067
734.6000, 18.80508
735.0822, 19.00257
735.5643, 19.36962
736.0464, 19.57371
736.5285, 19.07196
737.0106, 18.12544
737.4927, 17.82101
737.9749, 18.32013
738.4570, 18.92355
738.9391, 19.03088
739.4212, 18.89342
739.9033, 18.79877
740.3854, 18.85287
740.8676, 18.84102
741.3497, 18.65265
741.8318, 18.39711
742.3139, 18.18284
742.7960, 18.01836
743.2781, 17.89072
743.7603, 17.83076
744.2424, 17.75405
744.7245, 17.43132
745.2066, 16.92206
745.6887, 16.75445
746.1708, 17.16077
746.6530, 17.66809
747.1351, 17.70680
747.6172, 17.46530
748.0993, 17.27337
748.5814, 17.35169
749.0635, 17.38342
749.5457, 17.12594
750.0278, 16.76807
750.5099, 16.72232
750.9920, 17.16446
751.4741, 17.60192
751.9562, 17.98257
752.4384, 18.27666
752.9205, 18.42382
753.4026, 18.42397
753.8847, 18.17859
754.3668, 17.49719
754.8489, 16.72400
755.3311, 16.30600
755.8132, 16.20541
756.2953, 16.32443
756.7774, 16.87931
757.2595, 17.38475
757.7416, 17.57251
758.2238, 17.48910
758.7059, 17.45281
759.1880, 17.48493
759.6701, 17.56033
760.1522, 17.69242
760.6343, 17.86163
761.1165, 17.98705
761.5986, 18.07009
762.0807, 18.05709
762.5628, 17.81205
763.0449, 17.49844
763.5270, 17.47933
764.0092, 17.68856
764.4913, 17.76838
764.9734, 17.25312
765.4555, 16.77583
765.9376, 16.82169
766.4197, 17.40930
766.9019, 17.71338
767.3840, 17.49047
767.8661, 17.27085
768.3482, 17.31582
768.8303, 17.60929
769.3124, 17.68994
769.7946, 17.53578
770.2767, 17.43142
770.7588, 17.64185
771.2409, 18.01449
771.7230, 18.32382
772.2051, 18.55356
772.6873, 18.63039
773.1694, 18.48511
773.6515, 18.19115
774.1336, 17.72335
774.6157, 17.01351
775.0978, 16.57591
775.5800, 16.44799
776.0621, 16.56092
776.5442, 17.00147
777.0263, 17.80560
777.5084, 18.06030
777.9905, 17.72207
778.4727, 17.27593
778.9548, 17.08018
779.4369, 17.07837
779.9190, 17.25748
780.4011, 17.62770
780.8832, 17.82967
781.3654, 17.45765
781.8475, 16.97651
782.3296, 16.74694
782.8117, 16.92680
783.2938, 16.99910
783.7759, 16.92207
784.2581, 16.79574
784.7402, 16.66349
785.2223, 16.52529
785.7044, 16.60509
786.1865, 16.95154
786.6686, 17.14568
787.1508, 16.45780
787.6329, 15.47954
788.1150, 15.21190
788.5971, 15.91252
789.0792, 16.58994
789.5613, 16.74209
790.0435, 16.69262
790.5256, 16.72340
791.0077, 16.98641
791.4898, 16.92931
791.9719, 16.37950
792.4540, 15.79827
792.9362, 15.67541
793.4183, 15.96407
793.9004, 16.11918
794.3825, 16.08896
794.8646, 16.02221
795.3467, 16.09427
795.8289, 16.20411
796.3110, 16.20934
796.7931, 16.06933
797.2752, 15.89823
797.7573, 15.67769
798.2394, 15.48195
798.7216, 15.35852
799.2037, 15.26365
799.6858, 15.38477
800.1679, 15.79902
800.6500, 16.25475
801.1321, 16.55271
801.6143, 16.68718
802.0964, 16.56441
802.5785, 16.14060
803.0606, 15.79033
803.5427, 15.92015
804.0248, 16.26806
804.5070, 16.58745
804.9891, 16.90665
805.4712, 16.96440
805.9533, 16.44125
806.4354, 15.83029
806.9175, 15.48066
807.3997, 15.43857
807.8818, 15.48735
808.3639, 15.65120
808.8460, 15.79630
809.3281, 15.72562
809.8102, 15.53311
810.2924, 15.49833
810.7745, 15.68203
811.2566, 15.79987
811.7387, 15.58684
812.2208, 15.25548
812.7029, 14.96035
813.1851, 14.63043
813.6672, 14.63721
814.1493, 15.22108
814.6314, 15.86413
815.1135, 16.14461
815.5956, 16.05094
816.0778, 15.89834
816.5599, 15.69125
817.0420, 15.49087
817.5241, 15.32097
818.0062, 15.21024
818.4883, 15.24540
818.9705, 15.46403
819.4526, 15.58789
819.9347, 15.27438
820.4168, 14.96921
820.8989, 15.07310
821.3810, 15.77255
821.8632, 16.10064
822.3453, 15.97851
822.8274, 15.65611
823.3095, 15.20127
823.7916, 14.68657
824.2737, 14.65905
824.7559, 15.14874
825.2380, 15.57846
825.7201, 15.32971
826.2022, 14.88004
826.6843, 14.69661
827.1664, 14.85462
827.6486, 15.08842
828.1307, 15.57456
828.6128, 15.89440
829.0949, 15.76422
829.5770, 15.13574
830.0591, 14.86036
830.5413, 14.98734
831.0234, 15.17788
831.5055, 15.13434
831.9876, 14.99214
832.4697, 15.05728
832.9518, 15.32447
833.4340, 15.55005
833.9161, 15.61579
834.3982, 15.57184
834.8803, 15.41751
835.3624, 15.14444
835.8445, 14.90991
836.3267, 14.68271
836.8088, 14.56003
837.2909, 14.64269
837.7730, 14.87789
838.2551, 14.96156
838.7372, 14.89708
839.2194, 14.73545
839.7015, 14.24233
840.1836, 13.86168
840.6657, 14.29089
841.1478, 15.35579
841.6299, 15.93056
842.1121, 15.06210
842.5942, 14.29217
843.0763, 14.17407
843.5584, 14.58865
844.0405, 14.88511
844.5226, 15.05583
845.0048, 15.15631
845.4869, 15.17569
845.9690, 15.16865
846.4511, 15.26973
846.9332, 15.44118
847.4153, 15.55782
847.8975, 15.70501
848.3796, 15.63359
848.8617, 14.96018
849.3438, 13.95335
849.8259, 13.52239
850.3080, 13.92340
850.7902, 14.37787
851.2723, 14.75925
851.7544, 15.04501
852.2365, 15.14197
852.7186, 15.07721
853.2007, 15.01385
853.6829, 15.04418
854.1650, 15.04262
854.6471, 14.76486
855.1292, 14.41027
855.6113, 14.31430
856.0934, 14.95446
856.5756, 15.34650
857.0577, 15.33482
857.5398, 15.06866
858.0219, 14.73321
858.5040, 14.32311
858.9861, 13.86594
859.4683, 13.30723
859.9504, 12.90652
860.4325, 13.09709
860.9146, 13.64054
861.3967, 14.14952
861.8788, 14.54648
862.3610, 14.84861
862.8431, 15.12703
863.3252, 15.25927
863.8073, 15.10818
864.2894, 14.49813
864.7715, 14.17827
865.2537, 14.23038
865.7358, 14.34628
866.2179, 14.14281
866.7000, 13.76730
867.1821, 13.64769
867.6642, 13.83425
868.1464, 14.06829
868.6285, 14.19462
869.1106, 14.29077
869.5927, 14.44909
870.0748, 14.72447
870.5569, 14.78840
871.0391, 14.59335
871.5212, 14.26947
872.0033, 13.74956
872.4854, 13.12046
872.9675, 13.21675
873.4496, 13.98604
873.9318, 14.60836
874.4139, 14.32698
874.8960, 13.80270
875.3781, 13.59814
875.8602, 13.70221
876.3423, 13.84331
876.8245, 13.96892
877.3066, 14.11725
877.7887, 14.34778
878.2708, 14.60063
878.7529, 14.59454
879.2350, 14.33012
879.7172, 14.03221
880.1993, 13.79695
880.6814, 13.58467
881.1635, 13.33601
881.6456, 13.07115
882.1277, 12.83697
882.6099, 12.57076
883.0920, 12.43468
883.5741, 12.53772
884.0562, 12.76705
884.5383, 12.98317
885.0204, 13.20844
885.5026, 13.23755
885.9847, 12.96945
886.4668, 12.68405
886.9489, 12.85404
887.4310, 13.27794
887.9131, 13.53789
888.3953, 13.48834
888.8774, 13.38282
889.3595, 13.25005
889.8416, 13.16458
890.3237, 13.20534
890.8058, 13.43367
891.2880, 13.61981
891.7701, 13.77828
892.2522, 13.84417
892.7343, 13.70339
893.2164, 13.43106
893.6985, 13.18470
894.1807, 12.98081
894.6628, 12.93810
895.1449, 13.37884
895.6270, 13.80914
896.1091, 13.86284
896.5912, 13.48627
897.0734, 13.15948
897.5555, 12.86046
898.0376, 12.67347
898.5197, 12.67420
899.0018, 12.80901
899.4839, 12.92405
899.9661, 13.01037
900.4482, 13.01574
900.9303, 12.84946
901.4124, 12.65140
901.8945, 12.47580
902.3766, 12.34029
902.8588, 12.29935
903.3409, 12.41676
903.8230, 12.50790
904.3051, 12.51387
904.7872, 12.50829
905.2693, 12.70347
905.7515, 13.04820
906.2336, 13.23564
906.7157, 13.17230
907.1978, 12.95552
907.6799, 12.58084
908.1620, 12.14189
908.6442, 11.74196
909.1263, 11.34357
909.6084, 11.09941
910.0905, 10.98749
910.5726, 11.06136
911.0547, 11.44656
911.5369, 12.10848
912.0190, 12.69133
912.5011, 13.17793
912.9832, 13.46881
913.4653, 13.36453
913.9474, 13.10531
914.4296, 12.92047
914.9117, 12.83671
915.3938, 12.68664
915.8759, 12.28332
916.3580, 12.03997
916.8401, 12.18364
917.3223, 12.62886
917.8044, 12.87475
918.2865, 12.92919
918.7686, 12.95777
919.2507, 13.12558
919.7328, 13.24125
920.2150, 12.95734
920.6971, 12.47842
921.1792, 12.30560
921.6613, 12.98302
922.1434, 13.43704
922.6255, 13.49314
923.1077, 13.27959
923.5898, 12.87871
924.0719, 12.32376
924.5540, 12.23972
925.0361, 12.86135
925.5182, 13.52188
926.0004, 13.46131
926.4825, 13.09991
926.9646, 12.96762
927.4467, 13.29254
927.9288, 13.47398
928.4109, 13.34834
928.8931, 13.18949
929.3752, 13.19493
929.8573, 13.36063
930.3394, 13.51847
930.8215, 13.66736
931.3036, 13.69241
931.7858, 13.26673
932.2679, 12.85366
932.7500, 13.02556
933.2321, 13.70542
933.7142, 14.18068
934.1964, 14.33374
934.6785, 14.17590
935.1606, 13.54567
935.6427, 12.69117
936.1248, 12.43611
936.6069, 12.73275
937.0891, 13.00531
937.5712, 13.01347
938.0533, 13.01838
938.5354, 13.41429
939.0175, 13.92600
939.4996, 14.14253
939.9818, 13.68989
940.4639, 13.33015
940.9460, 13.06572
941.4281, 12.94483
941.9102, 13.14067
942.3923, 13.59053
942.8745, 13.59044
943.3566, 13.07216
943.8387, 12.68429
944.3208, 13.16586
944.8029, 13.85684
945.2850, 14.23017
945.7672, 14.22679
946.2493, 14.02928
946.7314, 13.47648
947.2135, 13.07868
947.6956, 13.08523
948.1777, 13.37138
948.6599, 13.49040
949.1420, 13.46768
949.6241, 13.44243
950.1062, 13.47840
950.5883, 13.53540
951.0704, 13.64497
951.5526, 13.74330
952.0347, 13.69105
952.5168, 13.32917
952.9989, 13.14320
953.4810, 13.21957
953.9631, 13.38008
954.4453, 13.34993
954.9274, 13.21425
955.4095, 13.35444
955.8916, 13.84968
956.3737, 14.17644
956.8558, 13.76399
957.3380, 13.22255
957.8201, 13.02253
958.3022, 13.20912
958.7843, 13.38114
959.2664, 13.58615
959.7485, 13.61231
960.2307, 13.22783
960.7128, 12.67832
961.1949, 12.61699
961.6770, 12.91687
962.1591, 13.13058
962.6412, 12.98484
963.1234, 12.78548
963.6055, 12.69626
964.0876, 12.61434
964.5697, 12.29800
965.0518, 11.61380
965.5339, 11.38170
966.0161, 11.77284
966.4982, 12.37532
966.9803, 12.83097
967.4624, 13.11395
967.9445, 13.11712
968.4266, 12.78936
968.9088, 12.50339
969.3909, 12.43076
969.8730, 12.40964
970.3551, 12.41488
970.8372, 12.42935
971.3193, 11.95751
971.8015, 10.97332
972.2836, 10.37784
972.7657, 10.98888
973.2478, 11.97928
973.7299, 12.41920
974.2120, 12.45578
974.6942, 12.46205
975.1763, 12.75856
975.6584, 12.70414
976.1405, 11.99326
976.6226, 11.14697
977.1047, 10.94132
977.5869, 11.32563
978.0690, 11.86833
978.5511, 12.55315
979.0332, 12.95356
979.5153, 12.44307
979.9974, 11.66250
980.4796, 11.17837
980.9617, 11.08589
981.4438, 11.13225
981.9259, 11.40789
982.4080, 11.60272
982.8901, 11.54532
983.3723, 11.31924
983.8544, 11.10770
984.3365, 10.94494
984.8186, 10.97306
985.3007, 11.57977
985.7828, 12.04279
986.2650, 11.80576
986.7471, 11.28050
987.2292, 11.20219
987.7113, 11.77785
988.1934, 12.01567
988.6755, 11.76270
989.1577, 11.43234
989.6398, 11.50207
990.1219, 11.80212
990.6040, 12.11056
991.0861, 12.40374
991.5682, 12.48417
992.0504, 12.12985
992.5325, 11.67540
993.0146, 11.14621
993.4967, 10.64217
993.9788, 10.82389
994.4609, 11.68866
994.9431, 12.40377
995.4252, 12.62086
995.9073, 12.54857
996.3894, 12.28127
996.8715, 11.92406
997.3536, 11.64428
997.8358, 11.51413
998.3179, 11.42177
998.8000, 11.32620
999.2821, 11.32527
999.7642, 11.64790
1000.246, 12.18194
1000.728, 12.18634
1001.211, 11.65042
1001.693, 11.24091
1002.175, 11.62457
1002.657, 12.07554
1003.139, 12.02750
1003.621, 11.56514
1004.103, 11.46617
1004.585, 11.86792
1005.068, 12.10276
1005.550, 11.94855
1006.032, 11.61587
1006.514, 11.36419
1006.996, 11.20547
1007.478, 11.17443
1007.960, 11.34283
1008.442, 11.48255
1008.924, 11.39342
1009.407, 11.37034
1009.889, 11.72147
1010.371, 12.47633
1010.853, 12.57052
1011.335, 11.99814
1011.817, 11.34603
1012.299, 10.80420
1012.781, 10.52814
1013.263, 10.89665
1013.746, 11.67640
1014.228, 12.03008
1014.710, 11.42053
1015.192, 11.19026
1015.674, 11.66764
1016.156, 12.37974
1016.638, 12.62089
1017.120, 12.50408
1017.603, 12.36036
1018.085, 12.23877
1018.567, 12.14550
1019.049, 12.06985
1019.531, 12.03829
1020.013, 12.11814
1020.495, 12.29768
1020.977, 12.21014
1021.459, 11.81868
1021.942, 11.48310
1022.424, 11.37181
1022.906, 11.40726
1023.388, 11.59097
1023.870, 11.81948
1024.352, 11.89028
1024.834, 11.59742
1025.316, 11.32999
1025.799, 11.03315
1026.281, 10.88752
1026.763, 11.23095
1027.245, 11.94109
1027.727, 12.17410
1028.209, 11.90052
1028.691, 11.61423
1029.173, 11.67325
1029.656, 11.81502
1030.138, 11.79769
1030.620, 11.69191
1031.102, 11.95032
1031.584, 12.74991
1032.066, 13.16289
1032.548, 12.87024
1033.030, 12.31926
1033.512, 12.09980
1033.995, 12.11283
1034.477, 12.24122
1034.959, 12.54639
1035.441, 12.62600
1035.923, 12.17347
1036.405, 11.70741
1036.887, 11.49952
1037.369, 11.52756
1037.851, 11.63641
1038.334, 11.80705
1038.816, 11.87521
1039.298, 11.52497
1039.780, 11.26537
1040.262, 11.64119
1040.744, 12.29555
1041.226, 12.48668
1041.708, 11.97180
1042.191, 11.68044
1042.673, 11.73033
1043.155, 11.79908
1043.637, 11.35223
1044.119, 10.77775
1044.601, 10.88436
1045.083, 11.69004
1045.565, 12.24514
1046.047, 11.97220
1046.530, 11.66699
1047.012, 11.54412
1047.494, 11.58126
1047.976, 11.81770
1048.458, 12.20673
1048.940, 12.30653
1049.422, 11.89364
1049.904, 11.50225
1050.386, 11.56993
1050.869, 11.83902
1051.351, 12.06829
1051.833, 12.24620
1052.315, 12.35039
1052.797, 12.37308
1053.279, 12.35740
1053.761, 12.32944
1054.243, 12.27885
1054.726, 12.12448
1055.208, 11.93328
1055.690, 11.88249
1056.172, 12.33221
1056.654, 12.49237
1057.136, 12.12502
1057.618, 11.61764
1058.100, 11.42824
1058.583, 11.51270
1059.065, 11.58011
1059.547, 11.60971
1060.029, 11.68795
1060.511, 11.99123
1060.993, 12.25046
1061.475, 12.20422
1061.957, 12.41409
1062.439, 12.00983
1062.922, 12.44195
1063.404, 12.64676
1063.886, 12.40616
1064.368, 12.08077
1064.850, 12.20663
1065.332, 12.48282
1065.814, 12.45506
1066.296, 11.92789
1066.778, 11.62384
1067.261, 11.73586
1067.743, 11.83889
1068.225, 11.69445
1068.707, 11.38782
1069.189, 11.12602
1069.671, 10.94350
1070.153, 10.97961
1070.635, 11.55992
1071.118, 12.01318
1071.600, 11.98697
1072.082, 11.74305
1072.564, 11.50389
1073.046, 11.26373
1073.528, 11.13052
1074.010, 11.11000
1074.492, 11.14880
1074.974, 11.26625
1075.457, 11.37485
1075.939, 11.30672
1076.421, 11.14961
1076.903, 11.30779
1077.385, 12.04860
1077.867, 12.38220
1078.349, 12.05169
1078.831, 11.51935
1079.313, 11.43339
1079.796, 11.56556
1080.278, 11.43208
1080.760, 10.94130
1081.242, 10.71749
1081.724, 11.28587
1082.206, 11.78803
1082.688, 11.87144
1083.170, 11.69696
1083.652, 11.80660
1084.135, 12.14074
1084.617, 12.39629
1085.099, 12.48141
1085.581, 12.45048
1086.063, 12.26211
1086.545, 12.02455
1087.027, 11.80452
1087.509, 11.58523
1087.992, 11.68157
1088.474, 12.12872
1088.956, 12.35089
1089.438, 11.63879
1089.920, 10.83676
1090.402, 10.98956
1090.884, 11.69296
1091.366, 12.07851
1091.849, 11.74769
1092.331, 11.62193
1092.813, 11.77621
1093.295, 12.05435
1093.777, 12.43239
1094.259, 12.77195
1094.741, 12.72670
1095.223, 12.33120
1095.705, 11.95577
1096.188, 11.61257
1096.670, 11.51910
1097.152, 11.85505
1097.634, 12.32907
1098.116, 12.35712
1098.598, 12.02682
1099.080, 11.80920
1099.562, 11.78028
1100.044, 11.86942
1100.527, 12.19940
1101.009, 12.47886
1101.491, 12.49984
1101.973, 12.29717
1102.455, 11.97362
1102.937, 11.51267
1103.419, 11.42347
1103.901, 12.05759
1104.384, 12.67138
1104.866, 12.33976
1105.348, 11.62062
1105.830, 11.15112
1106.312, 11.03534
1106.794, 11.19497
1107.276, 11.76195
1107.758, 12.12608
1108.240, 11.73228
1108.723, 11.09095
1109.205, 11.18438
1109.687, 11.73304
1110.169, 12.09202
1110.651, 11.82223
1111.133, 11.71327
1111.615, 11.93497
1112.097, 12.14691
1112.579, 11.93215
1113.062, 11.45337
1113.544, 11.37395
1114.026, 11.64851
1114.508, 11.86164
1114.990, 11.64717
1115.472, 11.51780
1115.954, 11.68196
1116.436, 12.01501
1116.919, 12.38346
1117.401, 12.78034
1117.883, 13.07195
1118.365, 13.24657
1118.847, 13.22235
1119.329, 12.58978
1119.811, 12.05102
1120.293, 12.35639
1120.776, 13.20438
1121.258, 13.24254
1121.740, 12.35365
1122.222, 11.76849
1122.704, 11.80899
1123.186, 12.07658
1123.668, 12.35322
1124.150, 12.50166
1124.632, 12.27319
1125.115, 11.57111
1125.597, 11.26936
1126.079, 11.46025
1126.561, 11.80309
1127.043, 12.27902
1127.525, 12.65240
1128.007, 12.38879
1128.489, 11.79647
1128.971, 11.40584
1129.454, 11.39832
1129.936, 11.45751
1130.418, 11.55788
1130.900, 11.69264
1131.382, 11.86138
1131.864, 12.06059
1132.346, 12.37667
1132.828, 12.72535
1133.311, 12.83634
1133.793, 12.25410
1134.275, 11.91731
1134.757, 12.18369
1135.239, 12.58445
1135.721, 12.72521
1136.203, 12.63307
1136.685, 12.48243
1137.167, 12.29496
1137.650, 12.22723
1138.132, 12.57375
1138.614, 12.83019
1139.096, 12.65507
1139.578, 12.30890
1140.060, 12.12782
1140.542, 12.11155
1141.024, 12.21229
1141.506, 12.42835
1141.989, 12.62349
1142.471, 12.67853
1142.953, 12.69330
1143.435, 12.71082
1143.917, 12.74948
1144.399, 12.85728
1144.881, 13.03848
1145.363, 13.31723
1145.846, 13.74544
1146.328, 13.94573
1146.810, 13.13356
1147.292, 12.19646
1147.774, 12.12818
1148.256, 12.97593
1148.738, 13.37948
1149.220, 13.22467
1149.703, 12.97872
1150.185, 12.73305
1150.667, 12.54855
1151.149, 12.49114
1151.631, 12.55090
1152.113, 12.76154
1152.595, 13.16878
1153.077, 13.37141
1153.559, 13.25670
1154.042, 13.19232
1154.524, 13.37948
1155.006, 13.62122
1155.488, 13.39230
1155.970, 12.98727
1156.452, 13.05390
1156.934, 14.04000
1157.416, 14.58654
1157.898, 14.45128
1158.381, 14.05422
1158.863, 13.50726
1159.345, 12.93657
1159.827, 12.74331
1160.309, 12.83485
1160.791, 12.96271
1161.273, 13.02373
1161.755, 13.14750
1162.238, 13.43660
1162.720, 13.69168
1163.202, 13.75022
1163.684, 13.64596
1164.166, 13.50525
1164.648, 13.35528
1165.130, 13.32100
1165.612, 13.68116
1166.094, 13.87616
1166.577, 13.49192
1167.059, 13.10044
1167.541, 13.38226
1168.023, 14.23308
1168.505, 14.66163
1168.987, 14.67577
1169.469, 14.60521
1169.951, 14.60638
1170.433, 14.60471
1170.916, 14.51637
1171.398, 14.43877
1171.880, 14.54774
1172.362, 14.82748
1172.844, 14.93897
1173.326, 14.85793
1173.808, 14.67271
1174.290, 14.27224
1174.773, 13.96328
1175.255, 13.98531
1175.737, 14.20490
1176.219, 14.42630
1176.701, 14.65210
1177.183, 14.64216
1177.665, 14.34654
1178.147, 14.16684
1178.630, 14.63088
1179.112, 15.12911
1179.594, 15.18134
1180.076, 14.91149
1180.558, 14.70993
1181.040, 14.57023
1181.522, 14.65972
1182.004, 15.05713
1182.486, 15.35598
1182.969, 14.98321
1183.451, 14.53236
1183.933, 14.59254
1184.415, 15.07255
1184.897, 15.18631
1185.379, 14.89783
1185.861, 14.64002
1186.343, 14.51670
1186.825, 14.49290
1187.308, 14.60957
1187.790, 14.75648
1188.272, 14.78174
1188.754, 14.69101
1189.236, 14.87455
1189.718, 15.38602
1190.200, 15.62537
1190.682, 15.30907
1191.165, 14.91632
1191.647, 14.94947
1192.129, 15.18455
1192.611, 15.39885
1193.093, 15.56719
1193.575, 15.77018
1194.057, 16.04750
1194.539, 16.01940
1195.021, 15.35544
1195.504, 14.69965
1195.986, 14.96338
1196.468, 15.57405
1196.950, 15.72307
1197.432, 15.20200
1197.914, 15.26170
1198.396, 16.02047
1198.878, 16.54523
1199.360, 16.25504
1199.843, 15.72217
1200.325, 15.63279
1200.807, 15.72505
1201.289, 15.60837
1201.771, 15.17258
1202.253, 14.85341
1202.735, 14.65779
1203.217, 14.53499
1203.700, 14.45976
1204.182, 14.44148
1204.664, 14.40943
1205.146, 14.47237
1205.628, 14.87092
1206.110, 15.85799
1206.592, 16.31906
1207.074, 16.18650
1207.557, 15.97973
1208.039, 16.00371
1208.521, 16.15198
1209.003, 16.55150
1209.485, 16.91741
1209.967, 16.63775
1210.449, 15.24237
1210.931, 14.53356
1211.413, 14.58241
1211.896, 14.84753
1212.378, 14.96730
1212.860, 15.09065
1213.342, 15.43645
1213.824, 15.88847
1214.306, 16.21211
1214.788, 16.43854
1215.270, 16.31074
1215.752, 15.75799
1216.235, 15.39208
1216.717, 15.94719
1217.199, 16.66444
1217.681, 16.70285
1218.163, 16.91238
1218.645, 16.94858
1219.127, 16.61506
1219.609, 16.56153
1220.092, 15.99821
1220.574, 15.48310
1221.056, 15.49465
1221.538, 15.72142
1222.020, 15.94212
1222.502, 16.13957
1222.984, 16.30589
1223.466, 16.44237
1223.948, 16.55106
1224.431, 16.63588
1224.913, 16.64183
1225.395, 16.47940
1225.877, 16.26157
1226.359, 15.97624
1226.841, 15.73921
1227.323, 15.84803
1227.805, 16.40083
1228.287, 16.55359
1228.770, 16.22682
1229.252, 15.90703
1229.734, 16.04257
1230.216, 16.27383
1230.698, 16.30260
1231.180, 16.24092
1231.662, 16.37117
1232.144, 16.71267
1232.627, 17.00651
1233.109, 17.23392
1233.591, 17.32106
1234.073, 17.10846
1234.555, 16.84570
1235.037, 16.59296
1235.519, 16.45012
1236.001, 16.71798
1236.484, 17.39471
1236.966, 17.48325
1237.448, 16.89803
1237.930, 16.42351
1238.412, 16.72931
1238.894, 17.15450
1239.376, 17.33031
1239.858, 17.37931
1240.340, 17.59223
1240.823, 17.91666
1241.305, 17.59609
1241.787, 16.59402
1242.269, 15.90214
1242.751, 16.47000
1243.233, 17.11808
1243.715, 17.39795
1244.197, 17.40092
1244.679, 17.14955
1245.162, 16.72237
1245.644, 16.60854
1246.126, 16.82833
1246.608, 16.97936
1247.090, 16.71932
1247.572, 16.53064
1248.054, 16.60653
1248.536, 16.76898
1249.019, 16.77736
1249.501, 16.64380
1249.983, 16.29132
1250.465, 15.75780
1250.947, 15.51327
1251.429, 16.06659
1251.911, 16.51162
1252.393, 16.63879
1252.875, 16.62247
1253.358, 16.66338
1253.840, 16.75361
1254.322, 16.91214
1254.804, 17.12276
1255.286, 17.23653
1255.768, 17.18654
1256.250, 17.07213
1256.732, 16.89082
1257.214, 16.69349
1257.697, 16.53361
1258.179, 16.40377
1258.661, 16.24998
1259.143, 16.09767
1259.625, 16.15765
1260.107, 16.56838
1260.589, 16.86152
1261.071, 16.96043
1261.554, 16.97365
1262.036, 17.03675
1262.518, 17.06455
1263.000, 16.91084
1263.482, 16.62071
1263.964, 16.43012
1264.446, 16.34847
1264.928, 16.38769
1265.411, 16.56693
1265.893, 16.72385
1266.375, 16.55713
1266.857, 16.44404
1267.339, 16.98151
1267.821, 16.63941
1268.303, 17.66932
1268.785, 16.48608
1269.267, 15.82017
1269.750, 15.85013
1270.232, 16.08982
1270.714, 16.29333
1271.196, 16.46759
1271.678, 16.66637
1272.160, 16.80902
1272.642, 16.70797
1273.124, 16.38649
1273.606, 16.19187
1274.089, 16.14507
1274.571, 16.08685
1275.053, 15.78448
1275.535, 15.64167
1276.017, 15.93500
1276.499, 16.30881
1276.981, 16.25761
1277.463, 15.88261
1277.946, 15.40680
1278.428, 14.92450
1278.910, 14.91731
1279.392, 16.22470
1279.874, 17.13595
1280.356, 17.31708
1280.838, 17.10934
1281.320, 16.75630
1281.802, 16.35364
1282.285, 16.02538
1282.767, 15.81639
1283.249, 15.91371
1283.731, 16.72381
1284.213, 17.12118
1284.695, 16.97221
1285.177, 16.58344
1285.659, 16.10809
1286.141, 15.65168
1286.624, 15.31415
1287.106, 15.11874
1287.588, 15.12200
1288.070, 15.31990
1288.552, 15.77687
1289.034, 16.53985
1289.516, 17.02188
1289.998, 16.45999
1290.481, 15.74879
1290.963, 15.57975
1291.445, 15.77337
1291.927, 16.02354
1292.409, 16.34879
1292.891, 16.33321
1293.373, 15.99063
1293.855, 15.66429
1294.338, 15.51637
1294.820, 15.48782
1295.302, 15.82254
1295.784, 16.02660
1296.266, 15.40814
1296.748, 14.19532
1297.230, 14.16058
1297.712, 15.04384
1298.194, 15.66176
1298.677, 15.13553
1299.159, 14.80284
1299.641, 14.93892
1300.123, 15.15460
1300.605, 15.18707
1301.087, 15.06997
1301.569, 14.71925
1302.051, 14.30960
1302.533, 14.22497
1303.016, 14.56072
##END=



