##NAMES=Talc
##RRUFFID=R040137
##IDEAL CHEMISTRY=Mg_3_Si_4_O_10_(OH)_2_
##LOCALITY=Murphy, North Carolina, USA
##OWNER=RRUFF
##SOURCE=University of Arizona Mineral Museum
##DESCRIPTION=Colorless massive
##STATUS=The identification of this mineral has been confirmed by X-ray diffraction and chemical analysis
##URL=rruff.info/R040137
##MEASURED CHEMISTRY=(Mg_0.97_Fe_0.01_Al_0.01_)_3_Si_4.03_O_10_((OH)_0.99_F_0.01_)_2_
172.6059, 20890.84
173.0880, 20913.25
173.5701, 20940.02
174.0522, 20992.67
174.5344, 21062.44
175.0165, 21137.32
175.4986, 21213.38
175.9807, 21289.97
176.4628, 21366.04
176.9449, 21440.51
177.4271, 21516.71
177.9092, 21597.62
178.3913, 21680.21
178.8734, 21761.51
179.3555, 21843.66
179.8376, 21921.34
180.3197, 21976.20
180.8019, 21988.97
181.2840, 22013.23
181.7661, 22062.62
182.2482, 22131.95
182.7303, 22216.36
183.2124, 22315.39
183.6946, 22425.00
184.1767, 22535.13
184.6588, 22649.70
185.1409, 22755.94
185.6230, 22844.58
186.1051, 22926.09
186.5873, 23007.48
187.0694, 23088.19
187.5515, 23181.39
188.0336, 23326.48
188.5157, 23540.62
188.9978, 23781.12
189.4800, 24009.89
189.9621, 24263.96
190.4442, 24579.63
190.9263, 24969.68
191.4084, 25437.08
191.8905, 25998.59
192.3727, 26720.03
192.8548, 27426.57
193.3369, 28272.36
193.8190, 29012.90
194.3011, 29423.32
194.7832, 29414.31
195.2654, 29044.66
195.7475, 28405.71
196.2296, 27301.20
196.7117, 26277.84
197.1938, 25328.59
197.6759, 24513.55
198.1581, 23904.51
198.6402, 23520.62
199.1223, 23301.62
199.6044, 23146.84
200.0865, 23085.67
200.5686, 23034.36
201.0508, 22977.78
201.5329, 22930.00
202.0150, 22909.77
202.4971, 22919.85
202.9792, 22937.51
203.4613, 22920.52
203.9435, 22836.19
204.4256, 22792.43
204.9077, 22825.50
205.3898, 22872.31
205.8719, 22887.72
206.3540, 22864.10
206.8362, 22827.87
207.3183, 22816.96
207.8004, 22846.65
208.2825, 22863.08
208.7646, 22874.40
209.2467, 22868.20
209.7289, 22821.14
210.2110, 22739.58
210.6931, 22662.46
211.1752, 22635.70
211.6573, 22668.81
212.1395, 22720.03
212.6216, 22830.21
213.1037, 22922.62
213.5858, 22944.06
214.0679, 22904.47
214.5500, 22859.29
215.0322, 22868.80
215.5143, 22946.95
215.9964, 22986.16
216.4785, 22934.20
216.9606, 22892.41
217.4427, 22907.10
217.9249, 22967.53
218.4070, 23033.99
218.8891, 23073.99
219.3712, 23086.88
219.8533, 23096.96
220.3354, 23092.45
220.8176, 23096.79
221.2997, 23119.02
221.7818, 23155.19
222.2639, 23199.34
222.7460, 23250.49
223.2281, 23305.83
223.7103, 23330.64
224.1924, 23280.30
224.6745, 23247.02
225.1566, 23262.86
225.6387, 23305.18
226.1208, 23337.86
226.6030, 23338.60
227.0851, 23317.41
227.5672, 23317.91
228.0493, 23370.96
228.5314, 23403.81
229.0135, 23392.67
229.4957, 23360.36
229.9778, 23334.10
230.4599, 23326.42
230.9420, 23327.29
231.4241, 23307.81
231.9062, 23235.59
232.3884, 23201.34
232.8705, 23252.04
233.3526, 23320.53
233.8347, 23341.07
234.3168, 23293.39
234.7989, 23219.84
235.2811, 23197.24
235.7632, 23255.26
236.2453, 23294.18
236.7274, 23289.68
237.2095, 23277.07
237.6916, 23280.98
238.1738, 23305.48
238.6559, 23336.24
239.1380, 23356.01
239.6201, 23362.62
240.1022, 23366.04
240.5843, 23356.92
241.0665, 23352.60
241.5486, 23365.02
242.0307, 23392.39
242.5128, 23422.01
242.9949, 23441.87
243.4770, 23451.27
243.9592, 23459.46
244.4413, 23464.48
244.9234, 23470.21
245.4055, 23480.98
245.8876, 23494.01
246.3697, 23502.45
246.8519, 23501.25
247.3340, 23491.00
247.8161, 23475.92
248.2982, 23444.34
248.7803, 23424.40
249.2624, 23435.09
249.7446, 23461.09
250.2267, 23478.31
250.7088, 23474.41
251.1909, 23452.88
251.6730, 23419.99
252.1551, 23362.17
252.6373, 23321.28
253.1194, 23318.67
253.6015, 23334.50
254.0836, 23347.93
254.5657, 23351.01
255.0478, 23350.88
255.5300, 23363.39
256.0121, 23396.41
256.4942, 23411.83
256.9763, 23363.94
257.4584, 23314.28
257.9406, 23315.92
258.4227, 23381.41
258.9048, 23460.19
259.3869, 23498.55
259.8690, 23494.79
260.3511, 23490.91
260.8333, 23490.10
261.3154, 23496.11
261.7975, 23520.82
262.2796, 23561.68
262.7617, 23586.47
263.2438, 23555.73
263.7260, 23482.27
264.2081, 23443.02
264.6902, 23457.43
265.1723, 23490.64
265.6544, 23528.83
266.1365, 23566.40
266.6187, 23582.13
267.1008, 23542.67
267.5829, 23478.84
268.0650, 23466.81
268.5471, 23527.53
269.0292, 23577.43
269.5114, 23525.77
269.9935, 23426.25
270.4756, 23372.62
270.9577, 23415.69
271.4398, 23492.61
271.9219, 23538.40
272.4041, 23552.71
272.8862, 23546.87
273.3683, 23511.46
273.8504, 23466.16
274.3325, 23449.84
274.8146, 23478.91
275.2968, 23510.40
275.7789, 23507.54
276.2610, 23480.39
276.7431, 23474.66
277.2252, 23517.08
277.7073, 23573.51
278.1895, 23579.92
278.6716, 23523.79
279.1537, 23486.24
279.6358, 23500.82
280.1179, 23552.06
280.6000, 23623.90
281.0822, 23718.13
281.5643, 23800.80
282.0464, 23821.94
282.5285, 23775.20
283.0106, 23747.14
283.4927, 23751.30
283.9749, 23775.71
284.4570, 23808.61
284.9391, 23849.48
285.4212, 23910.13
285.9033, 24010.28
286.3854, 24146.88
286.8676, 24226.90
287.3497, 24200.77
287.8318, 24171.72
288.3139, 24197.19
288.7960, 24261.26
289.2781, 24318.90
289.7603, 24346.86
290.2424, 24346.93
290.7245, 24324.36
291.2066, 24270.95
291.6887, 24207.00
292.1708, 24123.92
292.6530, 24035.95
293.1351, 23962.18
293.6172, 23909.13
294.0993, 23866.61
294.5814, 23816.19
295.0635, 23744.51
295.5457, 23691.17
296.0278, 23666.86
296.5099, 23651.96
296.9920, 23633.19
297.4741, 23608.99
297.9562, 23586.06
298.4384, 23572.29
298.9205, 23570.13
299.4026, 23559.78
299.8847, 23520.49
300.3668, 23493.89
300.8489, 23504.91
301.3310, 23539.91
301.8131, 23569.02
302.2953, 23572.18
302.7774, 23554.12
303.2595, 23538.73
303.7416, 23525.01
304.2237, 23515.96
304.7058, 23509.31
305.1880, 23508.21
305.6701, 23520.14
306.1522, 23548.50
306.6343, 23578.33
307.1164, 23582.16
307.5985, 23551.80
308.0807, 23525.93
308.5628, 23515.94
309.0449, 23509.33
309.5270, 23500.39
310.0091, 23488.08
310.4912, 23472.51
310.9734, 23451.83
311.4555, 23426.71
311.9376, 23404.73
312.4197, 23384.62
312.9018, 23370.96
313.3839, 23366.06
313.8661, 23368.85
314.3482, 23377.07
314.8303, 23394.99
315.3124, 23415.44
315.7945, 23426.63
316.2766, 23428.54
316.7588, 23420.63
317.2409, 23388.64
317.7230, 23351.51
318.2051, 23343.24
318.6872, 23382.70
319.1693, 23425.47
319.6515, 23434.74
320.1336, 23417.60
320.6157, 23407.39
321.0978, 23418.71
321.5799, 23436.46
322.0620, 23431.02
322.5442, 23396.06
323.0263, 23379.45
323.5084, 23419.20
323.9905, 23474.41
324.4726, 23482.41
324.9547, 23433.00
325.4369, 23381.09
325.9190, 23379.99
326.4011, 23435.84
326.8832, 23488.51
327.3653, 23540.84
327.8474, 23587.83
328.3296, 23629.60
328.8117, 23664.17
329.2938, 23684.86
329.7759, 23686.56
330.2580, 23673.77
330.7401, 23666.83
331.2223, 23667.33
331.7044, 23671.82
332.1865, 23682.87
332.6686, 23696.44
333.1507, 23711.44
333.6328, 23726.54
334.1150, 23735.21
334.5971, 23729.05
335.0792, 23711.88
335.5613, 23667.47
336.0434, 23568.96
336.5255, 23470.38
337.0077, 23390.09
337.4898, 23333.80
337.9719, 23308.56
338.4540, 23329.91
338.9361, 23389.04
339.4182, 23402.00
339.9004, 23320.68
340.3825, 23264.46
340.8646, 23290.58
341.3467, 23350.73
341.8288, 23378.46
342.3109, 23343.82
342.7931, 23293.08
343.2752, 23303.00
343.7573, 23384.44
344.2394, 23448.93
344.7215, 23462.06
345.2036, 23461.04
345.6858, 23473.82
346.1679, 23501.95
346.6500, 23536.35
347.1321, 23573.31
347.6142, 23612.12
348.0963, 23651.53
348.5785, 23692.17
349.0606, 23731.18
349.5427, 23761.43
350.0248, 23787.64
350.5069, 23824.81
350.9890, 23881.54
351.4712, 23945.61
351.9533, 24005.88
352.4354, 24064.19
352.9175, 24130.97
353.3996, 24212.32
353.8817, 24303.81
354.3639, 24393.32
354.8460, 24471.29
355.3281, 24565.73
355.8102, 24677.52
356.2923, 24811.31
356.7744, 24977.01
357.2566, 25175.85
357.7387, 25388.37
358.2208, 25594.44
358.7029, 25794.93
359.1850, 25985.02
359.6671, 26175.60
360.1493, 26346.36
360.6314, 26500.59
361.1135, 26627.40
361.5956, 26710.91
362.0777, 26743.88
362.5598, 26720.53
363.0420, 26619.25
363.5241, 26419.37
364.0062, 26166.18
364.4883, 25835.64
364.9704, 25479.78
365.4525, 25127.65
365.9347, 24792.07
366.4168, 24489.97
366.8989, 24247.81
367.3810, 24066.17
367.8631, 23905.20
368.3452, 23767.28
368.8274, 23646.77
369.3095, 23535.13
369.7916, 23436.19
370.2737, 23360.54
370.7558, 23319.64
371.2379, 23299.38
371.7201, 23274.46
372.2022, 23243.02
372.6843, 23226.59
373.1664, 23248.14
373.6485, 23281.63
374.1306, 23287.22
374.6128, 23258.30
375.0949, 23221.10
375.5770, 23180.84
376.0591, 23143.45
376.5412, 23122.13
377.0233, 23120.25
377.5055, 23129.28
377.9876, 23142.17
378.4697, 23159.38
378.9518, 23176.44
379.4339, 23196.87
379.9160, 23213.87
380.3982, 23233.74
380.8803, 23247.60
381.3624, 23226.15
381.8445, 23149.28
382.3266, 23041.49
382.8087, 22976.49
383.2909, 23011.59
383.7730, 23016.11
384.2551, 22967.24
384.7372, 22900.30
385.2193, 22838.98
385.7014, 22789.78
386.1836, 22751.51
386.6657, 22724.15
387.1478, 22708.27
387.6299, 22694.59
388.1120, 22687.37
388.5941, 22677.13
389.0763, 22650.38
389.5584, 22621.13
390.0405, 22615.45
390.5226, 22650.25
391.0047, 22695.87
391.4868, 22701.44
391.9690, 22662.29
392.4511, 22627.74
392.9332, 22616.20
393.4153, 22609.07
393.8974, 22584.62
394.3795, 22542.93
394.8617, 22511.03
395.3438, 22510.37
395.8259, 22525.14
396.3080, 22527.77
396.7901, 22515.29
397.2722, 22501.90
397.7544, 22495.54
398.2365, 22496.88
398.7186, 22505.73
399.2007, 22538.50
399.6828, 22560.29
400.1649, 22555.29
400.6471, 22530.97
401.1292, 22494.55
401.6113, 22448.06
402.0934, 22404.77
402.5755, 22384.01
403.0576, 22391.33
403.5398, 22406.83
404.0219, 22451.00
404.5040, 22483.47
404.9861, 22477.35
405.4682, 22441.88
405.9503, 22402.15
406.4325, 22373.44
406.9146, 22353.63
407.3967, 22337.03
407.8788, 22328.72
408.3609, 22312.94
408.8430, 22267.71
409.3252, 22226.67
409.8073, 22224.25
410.2894, 22263.11
410.7715, 22303.12
411.2536, 22302.95
411.7357, 22272.10
412.2179, 22262.41
412.7000, 22285.94
413.1821, 22309.65
413.6642, 22306.36
414.1463, 22287.15
414.6284, 22273.17
415.1106, 22269.74
415.5927, 22270.70
416.0748, 22271.10
416.5569, 22272.14
417.0390, 22280.70
417.5211, 22301.82
418.0033, 22320.72
418.4854, 22310.75
418.9675, 22254.85
419.4496, 22230.20
419.9317, 22266.06
420.4138, 22312.27
420.8960, 22337.29
421.3781, 22342.31
421.8602, 22341.16
422.3423, 22342.06
422.8244, 22345.29
423.3065, 22352.36
423.7887, 22369.48
424.2708, 22380.51
424.7529, 22375.39
425.2350, 22369.70
425.7171, 22375.71
426.1992, 22395.27
426.6814, 22422.58
427.1635, 22455.04
427.6456, 22492.10
428.1277, 22521.53
428.6098, 22533.81
429.0919, 22556.98
429.5741, 22620.02
430.0562, 22699.22
430.5383, 22758.37
431.0204, 22784.51
431.5025, 22798.71
431.9846, 22833.98
432.4668, 22874.50
432.9489, 22853.41
433.4310, 22741.86
433.9131, 22604.91
434.3952, 22522.65
434.8773, 22502.98
435.3595, 22458.65
435.8416, 22369.04
436.3237, 22268.26
436.8058, 22160.58
437.2879, 22058.63
437.7701, 21990.44
438.2522, 21971.87
438.7343, 21986.67
439.2164, 21994.67
439.6985, 21995.29
440.1806, 21989.43
440.6628, 21974.96
441.1449, 21956.71
441.6270, 21936.95
442.1091, 21916.25
442.5912, 21893.41
443.0733, 21862.65
443.5555, 21831.13
444.0376, 21832.88
444.5197, 21884.54
445.0018, 21922.91
445.4839, 21916.97
445.9660, 21888.94
446.4482, 21852.59
446.9303, 21806.65
447.4124, 21776.94
447.8945, 21789.08
448.3766, 21826.79
448.8587, 21857.00
449.3409, 21875.28
449.8230, 21889.13
450.3051, 21905.63
450.7872, 21923.26
451.2693, 21929.58
451.7514, 21928.96
452.2336, 21913.13
452.7157, 21859.52
453.1978, 21796.18
453.6799, 21767.99
454.1620, 21785.96
454.6441, 21817.32
455.1263, 21819.59
455.6084, 21787.71
456.0905, 21755.42
456.5726, 21722.17
457.0547, 21689.30
457.5368, 21652.45
458.0190, 21617.41
458.5011, 21593.90
458.9832, 21586.86
459.4653, 21588.62
459.9474, 21584.57
460.4295, 21574.37
460.9117, 21585.98
461.3938, 21642.67
461.8759, 21698.00
462.3580, 21699.70
462.8401, 21659.36
463.3222, 21638.75
463.8044, 21669.76
464.2865, 21715.54
464.7686, 21746.69
465.2507, 21764.49
465.7328, 21774.17
466.2149, 21775.57
466.6971, 21778.73
467.1792, 21804.85
467.6613, 21876.29
468.1434, 21923.02
468.6255, 21957.81
469.1076, 21957.74
469.5898, 21886.80
470.0719, 21766.59
470.5540, 21655.15
471.0361, 21588.82
471.5182, 21555.30
472.0003, 21519.34
472.4825, 21482.60
472.9646, 21439.41
473.4467, 21373.07
473.9288, 21311.43
474.4109, 21276.21
474.8930, 21266.47
475.3752, 21260.41
475.8573, 21249.77
476.3394, 21233.29
476.8215, 21204.41
477.3036, 21162.94
477.7857, 21127.32
478.2679, 21105.68
478.7500, 21096.67
479.2321, 21100.29
479.7142, 21127.24
480.1963, 21138.76
480.6784, 21123.66
481.1606, 21092.58
481.6427, 21048.82
482.1248, 20996.73
482.6069, 20946.81
483.0890, 20904.76
483.5711, 20873.35
484.0533, 20870.02
484.5354, 20926.00
485.0175, 20958.32
485.4996, 20931.64
485.9817, 20896.18
486.4638, 20894.67
486.9460, 20929.71
487.4281, 20970.54
487.9102, 21003.16
488.3923, 21022.71
488.8744, 21006.24
489.3565, 20946.20
489.8387, 20893.45
490.3208, 20874.70
490.8029, 20879.62
491.2850, 20884.75
491.7671, 20890.29
492.2492, 20895.55
492.7314, 20896.49
493.2135, 20899.12
493.6956, 20919.67
494.1777, 20954.23
494.6598, 20969.85
495.1419, 20938.46
495.6241, 20868.50
496.1062, 20813.16
496.5883, 20770.08
497.0704, 20747.38
497.5525, 20760.25
498.0346, 20782.65
498.5168, 20798.46
498.9989, 20802.96
499.4810, 20792.27
499.9631, 20752.09
500.4452, 20694.47
500.9273, 20667.54
501.4095, 20676.06
501.8916, 20696.39
502.3737, 20731.46
502.8558, 20764.41
503.3379, 20766.96
503.8200, 20730.97
504.3022, 20696.92
504.7843, 20678.73
505.2664, 20671.16
505.7485, 20674.56
506.2306, 20685.63
506.7127, 20685.50
507.1949, 20657.85
507.6770, 20614.21
508.1591, 20606.42
508.6412, 20683.01
509.1233, 20724.20
509.6054, 20701.55
510.0876, 20660.16
510.5697, 20631.68
511.0518, 20617.34
511.5339, 20600.13
512.0161, 20562.96
512.4982, 20517.34
512.9803, 20495.26
513.4624, 20499.09
513.9445, 20515.20
514.4266, 20554.75
514.9088, 20590.24
515.3909, 20579.12
515.8730, 20516.57
516.3551, 20471.44
516.8372, 20479.98
517.3193, 20503.53
517.8015, 20509.69
518.2836, 20498.03
518.7657, 20475.57
519.2478, 20444.76
519.7299, 20411.59
520.2120, 20392.22
520.6942, 20406.07
521.1763, 20395.79
521.6584, 20336.72
522.1405, 20279.56
522.6226, 20251.29
523.1047, 20247.56
523.5869, 20254.44
524.0690, 20269.52
524.5511, 20280.59
525.0332, 20258.13
525.5153, 20202.50
525.9974, 20174.47
526.4796, 20203.24
526.9617, 20239.73
527.4438, 20224.78
527.9259, 20165.24
528.4080, 20117.74
528.8901, 20097.75
529.3723, 20084.30
529.8544, 20062.48
530.3365, 20038.64
530.8186, 20027.45
531.3007, 20033.59
531.7828, 20047.19
532.2650, 20055.41
532.7471, 20058.32
533.2292, 20055.61
533.7113, 20043.71
534.1934, 20029.94
534.6755, 20018.14
535.1577, 20005.24
535.6398, 19983.73
536.1219, 19949.90
536.6040, 19921.83
537.0861, 19917.88
537.5682, 19933.25
538.0504, 19961.50
538.5325, 20006.67
539.0146, 20024.30
539.4967, 19966.29
539.9788, 19855.44
540.4609, 19806.63
540.9431, 19871.54
541.4252, 19919.66
541.9073, 19917.90
542.3894, 19892.12
542.8715, 19860.88
543.3536, 19829.85
543.8358, 19802.17
544.3179, 19778.88
544.8000, 19762.35
545.2821, 19768.31
545.7642, 19812.63
546.2463, 19835.61
546.7285, 19797.46
547.2106, 19750.52
547.6926, 19739.95
548.1747, 19763.79
548.6569, 19779.26
549.1390, 19760.89
549.6211, 19729.75
550.1032, 19709.39
550.5853, 19697.19
551.0674, 19677.81
551.5496, 19643.40
552.0317, 19607.20
552.5138, 19591.91
552.9959, 19607.27
553.4780, 19610.44
553.9601, 19585.44
554.4423, 19567.14
554.9244, 19573.37
555.4065, 19594.37
555.8886, 19616.58
556.3707, 19635.41
556.8528, 19645.82
557.3350, 19633.37
557.8171, 19602.85
558.2992, 19598.93
558.7813, 19636.19
559.2634, 19666.57
559.7455, 19654.49
560.2277, 19611.07
560.7098, 19575.52
561.1919, 19551.18
561.6740, 19529.27
562.1561, 19499.70
562.6382, 19475.69
563.1204, 19478.27
563.6025, 19503.87
564.0846, 19525.92
564.5667, 19525.34
565.0488, 19505.73
565.5309, 19478.32
566.0131, 19433.01
566.4952, 19405.53
566.9773, 19421.90
567.4594, 19442.16
567.9415, 19441.13
568.4236, 19421.10
568.9058, 19398.38
569.3879, 19373.01
569.8700, 19353.97
570.3521, 19359.67
570.8342, 19380.42
571.3163, 19377.16
571.7985, 19335.44
572.2806, 19293.00
572.7627, 19300.51
573.2448, 19367.48
573.7269, 19393.89
574.2090, 19355.27
574.6912, 19307.73
575.1733, 19252.76
575.6554, 19202.64
576.1375, 19167.82
576.6196, 19151.24
577.1017, 19153.24
577.5839, 19190.54
578.0660, 19246.45
578.5481, 19255.99
579.0302, 19211.91
579.5123, 19179.01
579.9944, 19193.22
580.4766, 19230.15
580.9587, 19240.48
581.4408, 19216.71
581.9229, 19203.25
582.4050, 19229.99
582.8871, 19247.28
583.3693, 19203.51
583.8514, 19126.34
584.3335, 19080.64
584.8156, 19096.63
585.2977, 19141.18
585.7798, 19162.06
586.2620, 19156.81
586.7441, 19156.51
587.2262, 19165.90
587.7083, 19174.95
588.1904, 19190.40
588.6725, 19198.54
589.1547, 19170.43
589.6368, 19086.25
590.1189, 19007.99
590.6010, 18967.29
591.0831, 18948.19
591.5652, 18930.89
592.0474, 18914.14
592.5295, 18908.61
593.0116, 18923.29
593.4937, 18948.82
593.9758, 18955.91
594.4579, 18938.27
594.9401, 18917.11
595.4222, 18892.50
595.9043, 18866.17
596.3864, 18831.06
596.8685, 18795.17
597.3506, 18780.06
597.8328, 18803.43
598.3149, 18831.02
598.7970, 18832.46
599.2791, 18813.95
599.7612, 18786.47
600.2433, 18751.97
600.7255, 18727.27
601.2076, 18729.48
601.6897, 18753.99
602.1718, 18762.89
602.6539, 18733.63
603.1360, 18719.63
603.6182, 18740.53
604.1003, 18765.50
604.5824, 18767.00
605.0645, 18749.36
605.5466, 18740.52
606.0287, 18764.69
606.5109, 18795.24
606.9930, 18786.03
607.4751, 18742.53
607.9572, 18711.14
608.4393, 18706.40
608.9214, 18703.09
609.4036, 18671.26
609.8857, 18610.77
610.3678, 18579.90
610.8499, 18600.25
611.3320, 18619.87
611.8141, 18629.77
612.2963, 18631.39
612.7784, 18630.32
613.2605, 18624.54
613.7426, 18599.88
614.2247, 18534.25
614.7068, 18451.59
615.1890, 18411.62
615.6711, 18415.49
616.1532, 18441.53
616.6353, 18497.34
617.1174, 18548.21
617.5995, 18548.36
618.0817, 18496.51
618.5638, 18459.73
619.0459, 18456.94
619.5280, 18450.73
620.0101, 18418.63
620.4922, 18378.98
620.9744, 18356.12
621.4565, 18353.74
621.9386, 18357.44
622.4207, 18354.91
622.9028, 18347.78
623.3849, 18342.00
623.8671, 18337.39
624.3492, 18335.58
624.8313, 18339.77
625.3134, 18343.84
625.7955, 18339.83
626.2776, 18328.24
626.7598, 18315.88
627.2419, 18296.08
627.7240, 18283.97
628.2061, 18297.26
628.6882, 18319.13
629.1703, 18320.00
629.6525, 18296.01
630.1346, 18274.92
630.6167, 18288.61
631.0988, 18327.85
631.5809, 18338.16
632.0630, 18311.62
632.5452, 18287.40
633.0273, 18280.78
633.5094, 18277.88
633.9915, 18257.43
634.4736, 18221.00
634.9557, 18203.94
635.4379, 18247.69
635.9200, 18276.52
636.4021, 18225.38
636.8842, 18139.79
637.3663, 18093.95
637.8484, 18103.76
638.3306, 18130.79
638.8127, 18138.53
639.2948, 18129.88
639.7769, 18119.96
640.2590, 18104.81
640.7411, 18103.59
641.2233, 18135.56
641.7054, 18170.35
642.1875, 18174.76
642.6696, 18151.11
643.1517, 18126.93
643.6339, 18107.97
644.1160, 18089.74
644.5981, 18062.88
645.0802, 18037.88
645.5623, 18037.45
646.0444, 18062.53
646.5266, 18082.85
647.0087, 18064.97
647.4908, 18021.85
647.9729, 18022.03
648.4550, 18081.63
648.9371, 18117.77
649.4193, 18089.45
649.9014, 18052.15
650.3835, 18071.36
650.8656, 18136.23
651.3477, 18168.36
651.8298, 18120.08
652.3120, 18075.77
652.7941, 18074.17
653.2762, 18100.46
653.7583, 18145.78
654.2404, 18201.27
654.7225, 18240.32
655.2047, 18238.94
655.6868, 18208.16
656.1689, 18174.29
656.6510, 18128.80
657.1331, 18138.57
657.6152, 18246.75
658.0974, 18371.71
658.5795, 18436.66
659.0616, 18454.23
659.5437, 18477.68
660.0258, 18498.00
660.5079, 18542.14
660.9901, 18638.58
661.4722, 18751.02
661.9543, 18834.89
662.4364, 18893.48
662.9185, 18968.04
663.4006, 19089.02
663.8828, 19234.21
664.3649, 19348.79
664.8470, 19430.83
665.3291, 19548.44
665.8112, 19721.13
666.2933, 19910.71
666.7755, 20089.16
667.2576, 20261.24
667.7397, 20448.81
668.2218, 20643.45
668.7039, 20865.57
669.1860, 21136.60
669.6682, 21421.65
670.1503, 21695.26
670.6324, 21960.83
671.1145, 22238.21
671.5966, 22540.94
672.0787, 22843.08
672.5609, 23113.94
673.0430, 23354.55
673.5251, 23571.11
674.0072, 23767.37
674.4893, 23927.18
674.9714, 24045.15
675.4536, 24117.69
675.9357, 24136.87
676.4178, 24124.27
676.8999, 24006.62
677.3820, 23725.75
677.8641, 23396.15
678.3463, 23078.50
678.8284, 22755.37
679.3105, 22377.83
679.7926, 21931.18
680.2747, 21490.46
680.7568, 21135.60
681.2390, 20840.58
681.7211, 20547.50
682.2032, 20255.26
682.6853, 19968.41
683.1674, 19683.97
683.6495, 19422.69
684.1317, 19220.06
684.6138, 19092.04
685.0959, 18941.36
685.5780, 18730.19
686.0601, 18539.70
686.5422, 18386.75
687.0244, 18265.49
687.5065, 18182.20
687.9886, 18131.58
688.4707, 18068.56
688.9528, 17947.29
689.4349, 17815.98
689.9171, 17725.09
690.3992, 17670.02
690.8813, 17642.93
691.3634, 17640.79
691.8455, 17640.69
692.3276, 17618.72
692.8098, 17578.00
693.2919, 17547.33
693.7740, 17532.72
694.2561, 17514.88
694.7382, 17493.05
695.2203, 17464.07
695.7025, 17421.26
696.1846, 17368.71
696.6667, 17321.33
697.1488, 17277.75
697.6309, 17247.69
698.1130, 17253.10
698.5952, 17265.64
699.0773, 17240.39
699.5594, 17182.76
700.0415, 17140.06
700.5236, 17142.87
701.0057, 17169.00
701.4879, 17172.58
701.9700, 17152.53
702.4521, 17134.86
702.9342, 17126.06
703.4163, 17107.73
703.8984, 17056.86
704.3806, 16993.91
704.8627, 16970.18
705.3448, 17001.37
705.8269, 17023.46
706.3090, 17032.53
706.7911, 17025.44
707.2733, 16992.68
707.7554, 16945.06
708.2375, 16894.91
708.7196, 16847.09
709.2017, 16814.46
709.6838, 16823.28
710.1660, 16853.07
710.6481, 16846.56
711.1302, 16805.32
711.6123, 16769.34
712.0944, 16752.66
712.5765, 16747.54
713.0587, 16747.59
713.5408, 16753.95
714.0229, 16740.21
714.5050, 16675.85
714.9871, 16633.53
715.4692, 16640.79
715.9514, 16661.13
716.4335, 16663.92
716.9156, 16651.40
717.3977, 16646.12
717.8798, 16663.80
718.3619, 16682.12
718.8441, 16682.12
719.3262, 16671.13
719.8083, 16659.72
720.2904, 16650.23
720.7725, 16645.58
721.2546, 16649.35
721.7368, 16652.63
722.2189, 16630.62
722.7010, 16578.57
723.1831, 16532.07
723.6652, 16486.80
724.1473, 16461.89
724.6295, 16490.87
725.1116, 16538.60
725.5937, 16526.83
726.0758, 16428.91
726.5579, 16364.53
727.0400, 16375.07
727.5222, 16404.75
728.0043, 16435.41
728.4864, 16456.87
728.9685, 16449.15
729.4506, 16410.62
729.9327, 16378.36
730.4149, 16404.56
730.8970, 16453.33
731.3791, 16429.07
731.8612, 16341.11
732.3433, 16281.58
732.8254, 16279.76
733.3076, 16295.65
733.7897, 16288.54
734.2718, 16260.63
734.7539, 16241.09
735.2360, 16239.38
735.7181, 16229.94
736.2003, 16199.35
736.6824, 16170.16
737.1645, 16157.78
737.6466, 16157.96
738.1287, 16157.79
738.6108, 16153.57
739.0930, 16149.08
739.5751, 16147.48
740.0572, 16146.04
740.5393, 16142.87
741.0214, 16136.97
741.5035, 16123.32
741.9857, 16099.54
742.4678, 16079.00
742.9499, 16085.64
743.4320, 16116.81
743.9141, 16134.99
744.3962, 16138.59
744.8784, 16135.95
745.3605, 16130.59
745.8426, 16119.93
746.3247, 16099.24
746.8068, 16067.02
747.2889, 16037.78
747.7711, 15996.58
748.2532, 15977.02
748.7353, 16010.79
749.2174, 16051.66
749.6995, 16053.41
750.1816, 16021.12
750.6638, 15994.81
751.1459, 15996.99
751.6280, 16004.81
752.1101, 15999.49
752.5922, 15984.01
753.0743, 15956.30
753.5565, 15920.93
754.0386, 15906.48
754.5207, 15932.00
755.0028, 15971.89
755.4849, 15970.78
755.9670, 15921.86
756.4492, 15900.88
756.9313, 15927.64
757.4134, 15933.08
757.8955, 15859.51
758.3776, 15768.75
758.8597, 15769.98
759.3419, 15874.73
759.8240, 15934.41
760.3061, 15913.65
760.7882, 15874.12
761.2703, 15826.07
761.7524, 15779.39
762.2346, 15740.18
762.7167, 15711.02
763.1988, 15696.32
763.6809, 15702.33
764.1630, 15717.19
764.6451, 15736.53
765.1273, 15752.38
765.6094, 15737.55
766.0915, 15692.12
766.5736, 15650.20
767.0557, 15631.57
767.5378, 15635.42
768.0200, 15670.52
768.5021, 15750.32
768.9842, 15773.83
769.4663, 15711.50
769.9484, 15653.06
770.4305, 15643.27
770.9127, 15654.37
771.3948, 15642.95
771.8769, 15606.25
772.3590, 15585.25
772.8411, 15601.42
773.3232, 15614.03
773.8054, 15598.64
774.2875, 15577.61
774.7696, 15579.52
775.2517, 15601.79
775.7338, 15615.74
776.2159, 15600.86
776.6981, 15581.58
777.1802, 15587.04
777.6623, 15608.61
778.1444, 15631.11
778.6265, 15650.66
779.1086, 15654.98
779.5908, 15635.74
780.0729, 15607.56
780.5550, 15598.40
781.0371, 15610.42
781.5192, 15621.44
782.0013, 15633.95
782.4835, 15637.45
782.9656, 15614.39
783.4477, 15593.29
783.9298, 15621.67
784.4119, 15701.33
784.8940, 15746.06
785.3762, 15733.18
785.8583, 15709.53
786.3404, 15673.77
786.8225, 15643.31
787.3046, 15641.47
787.7867, 15658.43
788.2689, 15657.69
788.7510, 15617.98
789.2331, 15576.37
789.7152, 15563.83
790.1973, 15569.57
790.6794, 15581.47
791.1616, 15595.54
791.6437, 15604.74
792.1258, 15606.08
792.6079, 15596.40
793.0900, 15568.49
793.5721, 15524.58
794.0543, 15485.97
794.5364, 15452.28
795.0185, 15427.40
795.5006, 15418.46
795.9827, 15405.30
796.4648, 15363.43
796.9470, 15296.89
797.4291, 15250.66
797.9112, 15234.03
798.3933, 15225.21
798.8754, 15228.00
799.3575, 15233.72
799.8397, 15243.76
800.3218, 15251.34
800.8039, 15242.66
801.2860, 15212.36
801.7681, 15182.12
802.2502, 15163.22
802.7324, 15148.79
803.2145, 15134.38
803.6966, 15119.15
804.1787, 15104.64
804.6608, 15089.83
805.1429, 15064.50
805.6251, 15012.75
806.1072, 14954.71
806.5893, 14940.15
807.0714, 14962.78
807.5535, 14976.95
808.0356, 14975.06
808.5178, 14961.93
808.9999, 14939.99
809.4820, 14910.40
809.9641, 14873.01
810.4462, 14816.68
810.9283, 14795.20
811.4105, 14833.73
811.8926, 14865.76
812.3747, 14847.61
812.8568, 14822.18
813.3389, 14848.71
813.8210, 14927.10
814.3032, 14975.56
814.7853, 14956.97
815.2674, 14938.65
815.7495, 14954.35
816.2316, 14971.79
816.7137, 14959.41
817.1959, 14921.40
817.6780, 14878.47
818.1601, 14837.28
818.6422, 14802.71
819.1243, 14781.92
819.6064, 14768.27
820.0886, 14748.61
820.5707, 14726.23
821.0528, 14717.77
821.5349, 14728.47
822.0170, 14742.30
822.4991, 14740.82
822.9813, 14728.13
823.4634, 14721.96
823.9455, 14722.55
824.4276, 14726.47
824.9097, 14737.03
825.3918, 14732.62
825.8740, 14689.33
826.3561, 14624.32
826.8382, 14598.08
827.3203, 14637.27
827.8024, 14653.36
828.2845, 14620.44
828.7667, 14596.18
829.2488, 14614.48
829.7309, 14644.62
830.2130, 14649.30
830.6951, 14626.37
831.1772, 14600.53
831.6594, 14576.59
832.1415, 14552.20
832.6236, 14526.92
833.1057, 14500.18
833.5878, 14459.54
834.0699, 14416.67
834.5521, 14411.07
835.0342, 14467.01
835.5163, 14526.20
835.9984, 14533.23
836.4805, 14509.24
836.9626, 14482.19
837.4448, 14456.13
837.9269, 14432.52
838.4090, 14412.82
838.8911, 14412.53
839.3732, 14456.98
839.8553, 14526.29
840.3375, 14540.73
840.8196, 14499.02
841.3017, 14469.77
841.7838, 14467.65
842.2659, 14464.95
842.7480, 14440.22
843.2302, 14405.52
843.7123, 14394.02
844.1944, 14421.08
844.6765, 14417.61
845.1586, 14345.20
845.6407, 14299.51
846.1229, 14336.27
846.6050, 14398.20
847.0871, 14441.11
847.5692, 14462.24
848.0513, 14444.23
848.5334, 14331.62
849.0156, 14251.41
849.4977, 14265.58
849.9798, 14300.19
850.4619, 14298.65
850.9440, 14271.18
851.4261, 14251.13
851.9083, 14249.09
852.3904, 14247.59
852.8725, 14236.79
853.3546, 14219.34
853.8367, 14188.82
854.3188, 14156.57
854.8010, 14148.53
855.2831, 14166.65
855.7652, 14188.38
856.2473, 14198.98
856.7294, 14198.59
857.2115, 14180.78
857.6937, 14151.40
858.1758, 14141.08
858.6579, 14151.70
859.1400, 14150.22
859.6221, 14119.25
860.1042, 14084.20
860.5864, 14085.09
861.0685, 14119.79
861.5506, 14126.60
862.0327, 14097.86
862.5148, 14068.47
862.9969, 14035.79
863.4791, 14025.93
863.9612, 14079.32
864.4433, 14166.64
864.9254, 14177.19
865.4075, 14043.01
865.8896, 13974.27
866.3718, 14032.82
866.8539, 14079.77
867.3360, 14044.13
867.8181, 13986.17
868.3002, 13984.54
868.7823, 14038.51
869.2645, 14063.55
869.7466, 14003.50
870.2287, 13955.74
870.7108, 13977.65
871.1929, 14010.90
871.6750, 13998.08
872.1572, 13953.99
872.6393, 13924.31
873.1214, 13924.70
873.6035, 13927.77
874.0856, 13914.65
874.5677, 13893.09
875.0499, 13864.00
875.5320, 13835.50
876.0141, 13825.86
876.4962, 13836.37
876.9783, 13852.71
877.4604, 13866.20
877.9426, 13876.24
878.4247, 13879.95
878.9068, 13879.30
879.3889, 13885.79
879.8710, 13898.35
880.3531, 13893.54
880.8353, 13861.10
881.3174, 13820.39
881.7995, 13793.24
882.2816, 13778.66
882.7637, 13772.78
883.2458, 13777.70
883.7280, 13774.64
884.2101, 13757.69
884.6922, 13741.79
885.1743, 13735.87
885.6564, 13738.45
886.1385, 13749.11
886.6207, 13775.35
887.1028, 13773.51
887.5849, 13710.86
888.0670, 13673.49
888.5491, 13710.91
889.0313, 13758.69
889.5134, 13757.15
889.9955, 13717.11
890.4776, 13688.25
890.9597, 13677.24
891.4418, 13671.54
891.9240, 13673.33
892.4061, 13675.76
892.8882, 13677.31
893.3703, 13676.14
893.8524, 13667.02
894.3345, 13650.61
894.8167, 13641.93
895.2988, 13661.03
895.7809, 13672.32
896.2630, 13648.09
896.7451, 13613.19
897.2272, 13590.98
897.7094, 13581.52
898.1915, 13576.36
898.6736, 13572.45
899.1557, 13575.37
899.6378, 13606.33
900.1199, 13633.21
900.6021, 13603.08
901.0842, 13541.90
901.5663, 13507.25
902.0484, 13505.84
902.5305, 13506.66
903.0126, 13490.32
903.4948, 13467.60
903.9769, 13452.79
904.4590, 13444.71
904.9411, 13437.93
905.4232, 13433.62
905.9053, 13445.32
906.3875, 13477.19
906.8696, 13511.46
907.3517, 13533.68
907.8338, 13540.55
908.3159, 13513.67
908.7980, 13452.70
909.2802, 13412.62
909.7623, 13401.01
910.2444, 13397.10
910.7265, 13392.26
911.2086, 13385.56
911.6907, 13372.88
912.1729, 13354.65
912.6550, 13364.86
913.1371, 13420.52
913.6192, 13449.28
914.1013, 13428.88
914.5834, 13397.89
915.0656, 13379.85
915.5477, 13369.79
916.0298, 13356.27
916.5119, 13338.47
916.9940, 13319.82
917.4761, 13289.02
917.9583, 13273.45
918.4404, 13299.63
918.9225, 13325.86
919.4046, 13312.10
919.8867, 13270.22
920.3688, 13245.36
920.8510, 13245.22
921.3331, 13252.35
921.8152, 13278.88
922.2973, 13295.29
922.7794, 13275.81
923.2615, 13246.76
923.7437, 13239.06
924.2258, 13253.55
924.7079, 13272.42
925.1900, 13302.10
925.6721, 13315.96
926.1542, 13293.69
926.6364, 13260.21
927.1185, 13212.31
927.6006, 13210.28
928.0827, 13206.81
928.5648, 13201.88
929.0469, 13195.55
929.5291, 13183.67
930.0112, 13178.97
930.4933, 13171.39
930.9754, 13163.69
931.4575, 13159.99
931.9396, 13148.92
932.4218, 13145.16
932.9039, 13142.44
933.3860, 13169.04
933.8681, 13140.14
934.3502, 13093.63
934.8323, 13073.58
935.3145, 13075.19
935.7966, 13097.91
936.2787, 13133.57
936.7608, 13153.31
937.2429, 13141.36
937.7250, 13114.52
938.2072, 13084.79
938.6893, 13058.77
939.1714, 13057.67
939.6535, 13074.55
940.1356, 13080.31
940.6177, 13069.25
941.0999, 13056.71
941.5820, 13053.80
942.0641, 13054.00
942.5462, 13043.46
943.0283, 13025.20
943.5104, 13016.20
943.9926, 13016.41
944.4747, 13017.07
944.9568, 13015.66
945.4389, 13005.62
945.9210, 12978.89
946.4031, 12944.31
946.8853, 12927.86
947.3674, 12929.43
947.8495, 12930.49
948.3316, 12930.26
948.8137, 12922.57
949.2958, 12902.69
949.7780, 12887.67
950.2601, 12901.06
950.7422, 12932.77
951.2243, 12919.89
951.7064, 12848.87
952.1885, 12828.71
952.6707, 12886.37
953.1528, 12930.87
953.6349, 12915.57
954.1170, 12875.81
954.5991, 12860.73
955.0812, 12868.36
955.5634, 12849.61
956.0455, 12787.19
956.5276, 12753.47
957.0097, 12767.89
957.4918, 12790.23
957.9739, 12804.57
958.4561, 12807.47
958.9382, 12788.45
959.4203, 12744.02
959.9024, 12728.72
960.3845, 12766.30
960.8666, 12783.97
961.3488, 12747.53
961.8309, 12722.18
962.3130, 12768.21
962.7951, 12841.47
963.2772, 12849.48
963.7593, 12774.78
964.2415, 12728.31
964.7236, 12730.23
965.2057, 12731.11
965.6878, 12717.34
966.1699, 12705.26
966.6520, 12717.66
967.1342, 12736.64
967.6163, 12711.35
968.0984, 12614.25
968.5805, 12579.63
969.0626, 12680.51
969.5447, 12755.15
970.0269, 12747.71
970.5090, 12713.57
970.9911, 12690.63
971.4732, 12675.59
971.9553, 12653.92
972.4374, 12618.78
972.9196, 12596.80
973.4017, 12604.20
973.8838, 12609.01
974.3659, 12593.11
974.8480, 12575.73
975.3301, 12575.09
975.8123, 12587.64
976.2944, 12600.19
976.7765, 12612.06
977.2586, 12619.17
977.7407, 12612.39
978.2228, 12610.59
978.7050, 12634.24
979.1871, 12657.30
979.6692, 12649.87
980.1513, 12618.47
980.6334, 12591.57
981.1155, 12574.44
981.5977, 12564.79
982.0798, 12565.50
982.5619, 12569.39
983.0440, 12577.38
983.5261, 12583.26
984.0082, 12580.07
984.4904, 12568.66
984.9725, 12553.96
985.4546, 12534.86
985.9367, 12519.74
986.4188, 12511.33
986.9009, 12507.95
987.3831, 12516.53
987.8652, 12524.15
988.3473, 12508.14
988.8294, 12552.94
989.3115, 12539.33
989.7936, 12522.70
990.2758, 12503.38
990.7579, 12462.91
991.2400, 12457.76
991.7221, 12396.43
992.2042, 12415.12
992.6863, 12430.19
993.1685, 12441.74
993.6506, 12445.59
994.1327, 12454.47
994.6148, 12458.33
995.0969, 12459.94
995.5790, 12463.40
996.0612, 12457.35
996.5433, 12456.47
997.0254, 12450.53
997.5075, 12443.78
997.9896, 12432.00
998.4717, 12418.97
998.9539, 12406.69
999.4360, 12390.67
999.9181, 12370.00
1000.400, 12350.49
1000.882, 12345.42
1001.364, 12335.62
1001.847, 12360.29
1002.329, 12378.44
1002.811, 12373.75
1003.293, 12368.28
1003.775, 12371.98
1004.257, 12378.88
1004.739, 12393.88
1005.221, 12403.76
1005.703, 12384.23
1006.186, 12343.00
1006.668, 12316.73
1007.150, 12319.02
1007.632, 12333.06
1008.114, 12368.79
1008.596, 12394.28
1009.078, 12378.00
1009.560, 12346.81
1010.043, 12333.23
1010.525, 12336.95
1011.007, 12339.42
1011.489, 12332.85
1011.971, 12332.53
1012.453, 12349.43
1012.935, 12369.57
1013.417, 12397.21
1013.899, 12414.08
1014.382, 12388.80
1014.864, 12334.40
1015.346, 12298.32
1015.828, 12295.18
1016.310, 12304.23
1016.792, 12322.49
1017.274, 12345.13
1017.756, 12393.96
1018.239, 12426.75
1018.721, 12380.65
1019.203, 12282.25
1019.685, 12220.93
1020.167, 12225.48
1020.649, 12225.17
1021.131, 12178.03
1021.613, 12144.37
1022.095, 12167.71
1022.578, 12203.75
1023.060, 12213.24
1023.542, 12200.49
1024.024, 12182.28
1024.506, 12159.08
1024.988, 12147.57
1025.470, 12171.49
1025.952, 12182.42
1026.435, 12149.42
1026.917, 12108.30
1027.399, 12086.29
1027.881, 12079.13
1028.363, 12075.23
1028.845, 12074.01
1029.327, 12068.47
1029.809, 12045.63
1030.292, 12034.55
1030.774, 12068.45
1031.256, 12091.02
1031.738, 12033.21
1032.220, 11950.20
1032.702, 11957.73
1033.184, 12074.28
1033.666, 12129.37
1034.148, 12043.13
1034.630, 11986.11
1035.113, 12018.78
1035.595, 12051.51
1036.077, 12016.83
1036.559, 11961.09
1037.041, 11964.67
1037.523, 12031.30
1038.005, 12053.97
1038.487, 11981.22
1038.970, 11947.11
1039.452, 12002.07
1039.934, 12040.62
1040.416, 12000.63
1040.898, 11934.00
1041.380, 11895.13
1041.862, 11884.59
1042.344, 11912.74
1042.826, 12016.44
1043.309, 12075.89
1043.791, 12068.67
1044.273, 12050.88
1044.755, 12039.22
1045.237, 12030.31
1045.719, 12018.82
1046.201, 12007.48
1046.683, 12009.99
1047.166, 12032.18
1047.648, 12047.56
1048.130, 12052.07
1048.612, 12062.61
1049.094, 12088.52
1049.576, 12110.47
1050.058, 12110.27
1050.540, 12096.33
1051.022, 12092.19
1051.505, 12099.51
1051.987, 12099.89
1052.469, 12092.64
1052.951, 12085.17
1053.433, 12081.99
1053.915, 12060.86
1054.397, 12002.61
1054.879, 11930.08
1055.361, 11883.23
1055.844, 11861.13
1056.326, 11857.66
1056.808, 11872.63
1057.290, 11862.70
1057.772, 11820.05
1058.254, 11793.38
1058.736, 11809.39
1059.218, 11839.99
1059.701, 11851.59
1060.183, 11845.07
1060.665, 11818.27
1061.147, 11775.07
1061.629, 11732.19
1062.111, 11693.92
1062.593, 11680.32
1063.075, 11697.82
1063.557, 11712.13
1064.040, 11685.32
1064.522, 11644.91
1065.004, 11646.89
1065.486, 11672.96
1065.968, 11674.91
1066.450, 11658.29
1066.932, 11657.65
1067.414, 11680.00
1067.896, 11702.73
1068.379, 11712.13
1068.861, 11709.02
1069.343, 11685.38
1069.825, 11656.57
1070.307, 11643.33
1070.789, 11642.07
1071.271, 11646.46
1071.753, 11653.09
1072.236, 11657.19
1072.718, 11657.33
1073.200, 11649.26
1073.682, 11617.28
1074.164, 11589.33
1074.646, 11591.06
1075.128, 11608.75
1075.610, 11642.09
1076.093, 11672.44
1076.575, 11645.81
1077.057, 11545.03
1077.539, 11485.97
1078.021, 11573.15
1078.503, 11641.49
1078.985, 11580.39
1079.467, 11507.22
1079.949, 11527.91
1080.432, 11592.79
1080.914, 11609.78
1081.396, 11570.63
1081.878, 11536.29
1082.360, 11518.06
1082.842, 11504.51
1083.324, 11496.64
1083.806, 11489.97
1084.288, 11474.80
1084.771, 11465.70
1085.253, 11487.88
1085.735, 11531.58
1086.217, 11548.28
1086.699, 11527.35
1087.181, 11507.45
1087.663, 11490.37
1088.145, 11469.36
1088.628, 11433.99
1089.110, 11411.19
1089.592, 11425.07
1090.074, 11459.86
1090.556, 11482.61
1091.038, 11493.19
1091.520, 11494.41
1092.002, 11485.44
1092.484, 11471.13
1092.967, 11451.16
1093.449, 11433.12
1093.931, 11420.76
1094.413, 11411.61
1094.895, 11401.50
1095.377, 11393.06
1095.859, 11402.33
1096.341, 11424.74
1096.823, 11415.57
1097.306, 11376.75
1097.788, 11368.27
1098.270, 11406.77
1098.752, 11435.71
1099.234, 11407.52
1099.716, 11356.65
1100.198, 11327.51
1100.680, 11318.68
1101.163, 11337.22
1101.645, 11370.90
1102.127, 11392.98
1102.609, 11398.05
1103.091, 11388.02
1103.573, 11362.99
1104.055, 11337.06
1104.537, 11323.93
1105.020, 11313.10
1105.502, 11291.58
1105.984, 11269.28
1106.466, 11259.55
1106.948, 11258.87
1107.430, 11256.79
1107.912, 11251.23
1108.394, 11248.85
1108.876, 11255.44
1109.359, 11261.04
1109.841, 11263.53
1110.323, 11262.14
1110.805, 11258.20
1111.287, 11248.82
1111.769, 11218.01
1112.251, 11175.92
1112.733, 11178.11
1113.215, 11265.26
1113.698, 11307.08
1114.180, 11268.70
1114.662, 11234.42
1115.144, 11223.85
1115.626, 11220.34
1116.108, 11209.53
1116.590, 11202.26
1117.072, 11223.82
1117.555, 11274.50
1118.037, 11288.92
1118.519, 11259.56
1119.001, 11235.67
1119.483, 11223.02
1119.965, 11216.16
1120.447, 11213.42
1120.929, 11212.12
1121.411, 11210.59
1121.894, 11205.88
1122.376, 11184.28
1122.858, 11152.08
1123.340, 11145.09
1123.822, 11160.10
1124.304, 11172.40
1124.786, 11176.10
1125.268, 11176.84
1125.750, 11178.06
1126.233, 11173.54
1126.715, 11152.81
1127.197, 11125.19
1127.679, 11094.43
1128.161, 11071.36
1128.643, 11079.77
1129.125, 11109.77
1129.607, 11136.77
1130.090, 11152.38
1130.572, 11146.72
1131.054, 11098.95
1131.536, 11057.14
1132.018, 11041.01
1132.500, 11044.97
1132.982, 11081.95
1133.464, 11124.52
1133.947, 11143.52
1134.429, 11138.82
1134.911, 11119.29
1135.393, 11078.51
1135.875, 11048.72
1136.357, 11026.43
1136.839, 11026.38
1137.321, 11076.44
1137.803, 11111.34
1138.286, 11085.16
1138.768, 11032.87
1139.250, 11003.48
1139.732, 10996.11
1140.214, 11005.14
1140.696, 11034.42
1141.178, 11053.10
1141.660, 11060.32
1142.142, 11037.15
1142.625, 10974.93
1143.107, 10929.03
1143.589, 10945.43
1144.071, 10988.29
1144.553, 10998.28
1145.035, 10982.95
1145.517, 10955.47
1145.999, 10924.16
1146.482, 10913.85
1146.964, 10925.57
1147.446, 10953.66
1147.928, 10993.60
1148.410, 11015.90
1148.892, 10984.00
1149.374, 10951.03
1149.856, 10979.76
1150.339, 11015.63
1150.821, 10997.39
1151.303, 10953.38
1151.785, 10926.88
1152.267, 10921.54
1152.749, 10924.91
1153.231, 10941.38
1153.713, 10936.89
1154.195, 10869.59
1154.677, 10827.63
1155.160, 10868.19
1155.642, 10907.54
1156.124, 10881.35
1156.606, 10833.74
1157.088, 10831.58
1157.570, 10870.01
1158.052, 10892.56
1158.534, 10898.72
1159.017, 10885.98
1159.499, 10847.13
1159.981, 10837.54
1160.463, 10878.54
1160.945, 10909.33
1161.427, 10883.11
1161.909, 10835.49
1162.391, 10831.75
1162.874, 10853.95
1163.356, 10830.15
1163.838, 10781.75
1164.320, 10786.63
1164.802, 10838.43
1165.284, 10880.10
1165.766, 10891.23
1166.248, 10871.25
1166.730, 10805.42
1167.213, 10745.66
1167.695, 10741.86
1168.177, 10755.76
1168.659, 10756.01
1169.141, 10751.54
1169.623, 10759.60
1170.105, 10774.53
1170.587, 10772.72
1171.069, 10745.95
1171.552, 10737.43
1172.034, 10780.06
1172.516, 10801.61
1172.998, 10780.92
1173.480, 10751.53
1173.962, 10720.11
1174.444, 10696.35
1174.926, 10691.10
1175.409, 10701.06
1175.891, 10719.32
1176.373, 10748.31
1176.855, 10743.46
1177.337, 10703.50
1177.819, 10691.54
1178.301, 10718.36
1178.783, 10734.54
1179.266, 10715.99
1179.748, 10685.57
1180.230, 10662.33
1180.712, 10651.54
1181.194, 10669.40
1181.676, 10700.78
1182.158, 10729.32
1182.640, 10746.01
1183.122, 10728.79
1183.604, 10684.37
1184.087, 10646.01
1184.569, 10622.69
1185.051, 10631.09
1185.533, 10732.92
1186.015, 10794.16
1186.497, 10706.11
1186.979, 10613.82
1187.461, 10640.47
1187.944, 10710.10
1188.426, 10706.14
1188.908, 10641.61
1189.390, 10600.45
1189.872, 10586.31
1190.354, 10584.42
1190.836, 10599.17
1191.318, 10605.18
1191.801, 10595.20
1192.283, 10588.86
1192.765, 10598.06
1193.247, 10610.31
1193.729, 10609.86
1194.211, 10601.03
1194.693, 10593.10
1195.175, 10585.81
1195.657, 10581.73
1196.140, 10576.84
1196.622, 10551.17
1197.104, 10510.32
1197.586, 10498.16
1198.068, 10536.79
1198.550, 10576.15
1199.032, 10589.74
1199.514, 10588.79
1199.996, 10571.27
1200.479, 10550.53
1200.961, 10534.21
1201.443, 10522.92
1201.925, 10522.61
1202.407, 10529.20
1202.889, 10511.45
1203.371, 10451.24
1203.853, 10425.86
1204.336, 10442.88
1204.818, 10475.52
1205.300, 10527.31
1205.782, 10549.54
1206.264, 10511.55
1206.746, 10462.30
1207.228, 10463.20
1207.710, 10489.06
1208.193, 10467.51
1208.675, 10422.04
1209.157, 10427.05
1209.639, 10468.24
1210.121, 10501.08
1210.603, 10514.15
1211.085, 10500.88
1211.567, 10458.08
1212.049, 10418.83
1212.531, 10402.03
1213.014, 10395.91
1213.496, 10398.18
1213.978, 10404.52
1214.460, 10414.37
1214.942, 10424.90
1215.424, 10439.62
1215.906, 10451.50
1216.388, 10431.72
1216.871, 10369.12
1217.353, 10348.21
1217.835, 10382.77
1218.317, 10399.80
1218.799, 10387.69
1219.281, 10364.81
1219.763, 10337.02
1220.245, 10324.09
1220.728, 10346.16
1221.210, 10384.77
1221.692, 10415.76
1222.174, 10434.22
1222.656, 10421.21
1223.138, 10391.98
1223.620, 10380.30
1224.102, 10381.68
1224.584, 10366.78
1225.067, 10330.43
1225.549, 10307.88
1226.031, 10325.15
1226.513, 10336.94
1226.995, 10321.56
1227.477, 10306.10
1227.959, 10306.13
1228.441, 10306.41
1228.923, 10291.93
1229.406, 10273.68
1229.888, 10272.33
1230.370, 10285.43
1230.852, 10283.18
1231.334, 10264.34
1231.816, 10267.75
1232.298, 10293.92
1232.780, 10296.92
1233.263, 10266.92
1233.745, 10232.46
1234.227, 10209.19
1234.709, 10199.72
1235.191, 10217.77
1235.673, 10238.16
1236.155, 10227.10
1236.637, 10208.56
1237.120, 10206.13
1237.602, 10217.50
1238.084, 10243.18
1238.566, 10276.08
1239.048, 10290.12
1239.530, 10274.82
1240.012, 10268.32
1240.494, 10291.26
1240.976, 10284.19
1241.458, 10227.11
1241.941, 10172.02
1242.423, 10139.21
1242.905, 10119.63
##END=



