##NAMES=Talc
##RRUFFID=R050058
##IDEAL CHEMISTRY=Mg_3_Si_4_O_10_(OH)_2_
##LOCALITY=Murphy, North Carolina, USA
##OWNER=RRUFF
##SOURCE=Rock Currier
##DESCRIPTION=Fine-grained massive fragment
##STATUS=The identification of this mineral has been confirmed by X-ray diffraction and chemical analysis
##URL=rruff.info/R050058
##MEASURED CHEMISTRY=(Mg_.994_Fe_.006_)_3_(Si_.996_Al_.004_)_4_O_10_(OH)_2_
171.6417, 22693.76
172.1238, 22762.06
172.6059, 22858.47
173.0880, 23009.09
173.5701, 23133.91
174.0522, 23176.61
174.5344, 23178.86
175.0165, 23199.66
175.4986, 23271.31
175.9807, 23377.88
176.4628, 23474.32
176.9449, 23546.79
177.4271, 23636.12
177.9092, 23768.21
178.3913, 23921.19
178.8734, 24064.00
179.3555, 24179.23
179.8376, 24278.54
180.3197, 24401.04
180.8019, 24567.55
181.2840, 24719.91
181.7661, 24825.55
182.2482, 24913.27
182.7303, 25019.33
183.2124, 25164.06
183.6946, 25333.93
184.1767, 25489.82
184.6588, 25620.61
185.1409, 25754.87
185.6230, 25888.30
186.1051, 26031.82
186.5873, 26195.11
187.0694, 26380.52
187.5515, 26594.30
188.0336, 26857.71
188.5157, 27171.06
188.9978, 27538.99
189.4800, 27884.98
189.9621, 28301.56
190.4442, 28893.10
190.9263, 29705.07
191.4084, 30698.38
191.8905, 31792.63
192.3727, 33066.51
192.8548, 34312.14
193.3369, 35836.98
193.8190, 37174.95
194.3011, 37891.66
194.7832, 37814.15
195.2654, 37068.93
195.7475, 35862.87
196.2296, 33838.84
196.7117, 31995.95
197.1938, 30356.68
197.6759, 28970.43
198.1581, 27917.50
198.6402, 27215.81
199.1223, 26770.83
199.6044, 26419.05
200.0865, 26178.28
200.5686, 26006.18
201.0508, 25912.93
201.5329, 25862.40
202.0150, 25844.51
202.4971, 25851.34
202.9792, 25854.57
203.4613, 25798.25
203.9435, 25627.89
204.4256, 25523.29
204.9077, 25525.61
205.3898, 25561.92
205.8719, 25587.94
206.3540, 25592.95
206.8362, 25589.21
207.3183, 25595.06
207.8004, 25619.59
208.2825, 25629.73
208.7646, 25620.70
209.2467, 25602.93
209.7289, 25574.19
210.2110, 25538.81
210.6931, 25511.79
211.1752, 25513.71
211.6573, 25554.83
212.1395, 25587.42
212.6216, 25600.09
213.1037, 25614.39
213.5858, 25646.35
214.0679, 25692.23
214.5500, 25733.47
215.0322, 25748.80
215.5143, 25732.15
215.9964, 25729.92
216.4785, 25740.15
216.9606, 25766.30
217.4427, 25823.59
217.9249, 25900.83
218.4070, 25968.84
218.8891, 25999.47
219.3712, 25991.04
219.8533, 26005.97
220.3354, 26077.81
220.8176, 26141.35
221.2997, 26182.73
221.7818, 26202.02
222.2639, 26199.97
222.7460, 26172.71
223.2281, 26124.58
223.7103, 26104.72
224.1924, 26136.26
224.6745, 26173.62
225.1566, 26212.67
225.6387, 26250.54
226.1208, 26283.11
226.6030, 26306.92
227.0851, 26325.72
227.5672, 26357.41
228.0493, 26434.88
228.5314, 26478.77
229.0135, 26461.59
229.4957, 26411.30
229.9778, 26356.36
230.4599, 26309.09
230.9420, 26269.88
231.4241, 26241.07
231.9062, 26234.60
232.3884, 26217.88
232.8705, 26177.48
233.3526, 26131.78
233.8347, 26090.51
234.3168, 26058.06
234.7989, 26043.76
235.2811, 26069.36
235.7632, 26159.42
236.2453, 26231.42
236.7274, 26281.42
237.2095, 26312.31
237.6916, 26316.97
238.1738, 26297.83
238.6559, 26276.57
239.1380, 26284.79
239.6201, 26335.70
240.1022, 26366.89
240.5843, 26359.26
241.0665, 26345.38
241.5486, 26334.99
242.0307, 26331.60
242.5128, 26339.69
242.9949, 26374.00
243.4770, 26440.16
243.9592, 26463.66
244.4413, 26386.43
244.9234, 26319.96
245.4055, 26313.71
245.8876, 26353.61
246.3697, 26397.05
246.8519, 26413.17
247.3340, 26405.38
247.8161, 26405.04
248.2982, 26426.27
248.7803, 26435.27
249.2624, 26412.78
249.7446, 26372.85
250.2267, 26336.54
250.7088, 26311.89
251.1909, 26301.46
251.6730, 26315.45
252.1551, 26366.64
252.6373, 26417.03
253.1194, 26463.67
253.6015, 26499.70
254.0836, 26515.46
254.5657, 26505.87
255.0478, 26481.03
255.5300, 26451.49
256.0121, 26411.36
256.4942, 26389.63
256.9763, 26418.36
257.4584, 26455.28
257.9406, 26462.75
258.4227, 26431.77
258.9048, 26403.25
259.3869, 26433.11
259.8690, 26525.28
260.3511, 26583.07
260.8333, 26558.40
261.3154, 26519.54
261.7975, 26517.30
262.2796, 26552.04
262.7617, 26591.54
263.2438, 26616.69
263.7260, 26628.21
264.2081, 26627.89
264.6902, 26607.26
265.1723, 26588.17
265.6544, 26594.00
266.1365, 26616.14
266.6187, 26625.27
267.1008, 26597.02
267.5829, 26548.31
268.0650, 26511.16
268.5471, 26483.78
269.0292, 26476.42
269.5114, 26521.93
269.9935, 26590.66
270.4756, 26630.04
270.9577, 26609.49
271.4398, 26568.02
271.9219, 26547.80
272.4041, 26549.29
272.8862, 26556.84
273.3683, 26563.20
273.8504, 26571.15
274.3325, 26588.13
274.8146, 26626.67
275.2968, 26651.96
275.7789, 26622.36
276.2610, 26554.34
276.7431, 26517.53
277.2252, 26542.59
277.7073, 26602.46
278.1895, 26656.48
278.6716, 26707.87
279.1537, 26743.03
279.6358, 26744.44
280.1179, 26729.09
280.6000, 26724.88
281.0822, 26737.83
281.5643, 26762.94
282.0464, 26796.22
282.5285, 26837.72
283.0106, 26884.60
283.4927, 26940.39
283.9749, 26999.00
284.4570, 27052.34
284.9391, 27100.77
285.4212, 27155.43
285.9033, 27224.99
286.3854, 27309.91
286.8676, 27402.25
287.3497, 27532.03
287.8318, 27639.88
288.3139, 27683.90
288.7960, 27681.46
289.2781, 27683.96
289.7603, 27724.00
290.2424, 27783.81
290.7245, 27786.04
291.2066, 27687.90
291.6887, 27589.64
292.1708, 27505.68
292.6530, 27429.73
293.1351, 27353.39
293.6172, 27273.73
294.0993, 27194.04
294.5814, 27120.92
295.0635, 27058.88
295.5457, 26994.86
296.0278, 26907.70
296.5099, 26834.04
296.9920, 26819.86
297.4741, 26857.79
297.9562, 26884.44
298.4384, 26824.48
298.9205, 26655.24
299.4026, 26557.91
299.8847, 26588.53
300.3668, 26632.62
300.8489, 26653.91
301.3311, 26658.01
301.8131, 26667.11
302.2953, 26698.61
302.7774, 26743.96
303.2595, 26757.78
303.7416, 26716.60
304.2237, 26676.78
304.7058, 26648.84
305.1880, 26628.61
305.6701, 26610.20
306.1522, 26591.24
306.6343, 26577.26
307.1164, 26579.79
307.5985, 26604.05
308.0807, 26625.26
308.5628, 26640.80
309.0449, 26650.54
309.5270, 26652.28
310.0091, 26646.45
310.4912, 26637.82
310.9734, 26628.31
311.4555, 26618.45
311.9376, 26617.08
312.4197, 26640.14
312.9018, 26648.41
313.3839, 26600.02
313.8661, 26517.77
314.3482, 26462.87
314.8303, 26484.80
315.3124, 26541.23
315.7945, 26554.80
316.2766, 26519.27
316.7588, 26476.89
317.2409, 26439.57
317.7230, 26414.07
318.2051, 26414.69
318.6872, 26458.46
319.1693, 26501.67
319.6515, 26512.95
320.1336, 26496.00
320.6157, 26464.24
321.0978, 26415.42
321.5799, 26364.52
322.0620, 26334.58
322.5442, 26325.06
323.0263, 26328.86
323.5084, 26349.92
323.9905, 26380.70
324.4726, 26414.77
324.9547, 26451.08
325.4369, 26481.42
325.9190, 26495.43
326.4011, 26490.96
326.8832, 26498.16
327.3653, 26514.68
327.8474, 26544.36
328.3296, 26599.42
328.8117, 26671.03
329.2938, 26734.20
329.7759, 26774.21
330.2580, 26795.33
330.7401, 26815.61
331.2223, 26857.96
331.7044, 26870.84
332.1865, 26821.75
332.6686, 26752.96
333.1507, 26712.38
333.6328, 26713.71
334.1150, 26732.09
334.5971, 26728.87
335.0792, 26689.57
335.5613, 26668.34
336.0434, 26697.03
336.5255, 26713.77
337.0077, 26676.46
337.4898, 26595.98
337.9719, 26513.76
338.4540, 26461.71
338.9361, 26437.35
339.4182, 26419.57
339.9004, 26415.93
340.3825, 26407.75
340.8646, 26380.03
341.3467, 26348.44
341.8288, 26334.05
342.3109, 26346.10
342.7931, 26371.17
343.2752, 26386.31
343.7573, 26387.93
344.2394, 26406.44
344.7215, 26466.78
345.2036, 26532.88
345.6858, 26570.47
346.1679, 26579.07
346.6500, 26596.04
347.1321, 26653.22
347.6142, 26736.55
348.0963, 26805.27
348.5785, 26850.70
349.0606, 26896.52
349.5427, 26959.54
350.0248, 27037.81
350.5069, 27127.85
350.9890, 27243.69
351.4712, 27360.00
351.9533, 27451.34
352.4354, 27522.91
352.9175, 27598.76
353.3996, 27684.25
353.8817, 27787.80
354.3639, 27941.49
354.8460, 28175.86
355.3281, 28384.00
355.8102, 28500.84
356.2923, 28597.40
356.7744, 28754.20
357.2566, 28989.18
357.7387, 29273.61
358.2208, 29578.85
358.7029, 29909.41
359.1850, 30241.09
359.6671, 30592.22
360.1493, 30925.21
360.6314, 31264.58
361.1135, 31571.11
361.5956, 31774.02
362.0777, 31833.32
362.5598, 31755.29
363.0420, 31560.16
363.5241, 31205.83
364.0062, 30790.75
364.4883, 30303.10
364.9704, 29783.01
365.4525, 29239.48
365.9347, 28685.81
366.4168, 28170.78
366.8989, 27753.64
367.3810, 27433.72
367.8631, 27172.97
368.3452, 26983.35
368.8274, 26841.70
369.3095, 26750.10
369.7916, 26692.15
370.2737, 26629.87
370.7558, 26536.81
371.2379, 26436.25
371.7201, 26375.49
372.2022, 26359.77
372.6843, 26332.65
373.1664, 26253.66
373.6485, 26160.78
374.1306, 26110.16
374.6128, 26109.37
375.0949, 26129.63
375.5770, 26169.81
376.0591, 26218.29
376.5412, 26251.26
377.0233, 26263.35
377.5055, 26263.93
377.9876, 26261.84
378.4697, 26256.87
378.9518, 26245.84
379.4339, 26220.14
379.9160, 26196.10
380.3982, 26190.93
380.8803, 26196.32
381.3624, 26187.93
381.8445, 26151.73
382.3266, 26096.04
382.8087, 26045.41
383.2909, 26018.48
383.7730, 25971.50
384.2551, 25876.16
384.7372, 25778.63
385.2193, 25721.73
385.7014, 25708.78
386.1836, 25706.84
386.6657, 25680.11
387.1478, 25626.81
387.6299, 25585.05
388.1120, 25557.28
388.5941, 25539.24
389.0763, 25544.45
389.5584, 25554.66
390.0405, 25532.08
390.5226, 25447.25
391.0047, 25362.02
391.4868, 25402.35
391.9690, 25588.33
392.4511, 25702.74
392.9332, 25639.55
393.4153, 25524.55
393.8974, 25485.17
394.3795, 25522.07
394.8617, 25546.89
395.3438, 25500.74
395.8259, 25420.38
396.3080, 25366.63
396.7901, 25345.61
397.2722, 25335.40
397.7544, 25320.24
398.2365, 25303.79
398.7186, 25302.13
399.2007, 25333.31
399.6828, 25358.77
400.1649, 25356.11
400.6471, 25339.65
401.1292, 25339.42
401.6113, 25365.41
402.0934, 25389.29
402.5755, 25364.88
403.0576, 25262.77
403.5398, 25203.33
404.0219, 25221.02
404.5040, 25242.62
404.9861, 25227.39
405.4682, 25184.08
405.9503, 25144.17
406.4325, 25129.22
406.9146, 25128.67
407.3967, 25099.07
407.8788, 25005.35
408.3609, 24956.25
408.8430, 25015.33
409.3252, 25095.19
409.8073, 25123.77
410.2894, 25091.61
410.7715, 25047.45
411.2536, 25031.06
411.7357, 25038.13
412.2179, 25051.32
412.7000, 25077.29
413.1821, 25090.53
413.6642, 25052.91
414.1463, 24991.10
414.6284, 24961.11
415.1106, 24993.89
415.5927, 25035.82
416.0748, 25044.21
416.5569, 25029.29
417.0390, 25024.04
417.5211, 25041.16
418.0033, 25066.22
418.4854, 25075.47
418.9675, 25058.56
419.4496, 25062.68
419.9317, 25106.55
420.4138, 25157.90
420.8960, 25205.44
421.3781, 25242.39
421.8602, 25253.21
422.3423, 25224.74
422.8244, 25169.23
423.3065, 25140.15
423.7887, 25154.71
424.2708, 25170.10
424.7529, 25170.53
425.2350, 25177.29
425.7171, 25214.38
426.1992, 25281.68
426.6814, 25350.53
427.1635, 25386.25
427.6456, 25393.63
428.1277, 25427.07
428.6098, 25491.10
429.0919, 25573.00
429.5741, 25692.81
430.0562, 25819.32
430.5383, 25899.58
431.0204, 25905.38
431.5025, 25896.96
431.9846, 25939.56
432.4668, 26012.06
432.9489, 26038.95
433.4310, 25999.86
433.9131, 25913.35
434.3952, 25791.27
434.8773, 25629.90
435.3595, 25476.00
435.8416, 25322.23
436.3237, 25185.96
436.8058, 25081.73
437.2879, 25003.55
437.7701, 24935.91
438.2522, 24871.47
438.7343, 24809.29
439.2164, 24746.08
439.6985, 24668.96
440.1806, 24615.44
440.6628, 24600.12
441.1449, 24593.52
441.6270, 24570.00
442.1091, 24535.16
442.5912, 24517.81
443.0733, 24545.62
443.5555, 24605.58
444.0376, 24647.21
444.5197, 24666.01
445.0018, 24679.09
445.4839, 24698.09
445.9660, 24711.53
446.4482, 24702.74
446.9303, 24666.44
447.4124, 24634.09
447.8945, 24632.36
448.3766, 24646.75
448.8587, 24640.95
449.3409, 24608.03
449.8230, 24586.48
450.3051, 24613.77
450.7872, 24682.87
451.2693, 24719.81
451.7514, 24700.66
452.2336, 24679.90
452.7157, 24680.04
453.1978, 24687.57
453.6799, 24684.30
454.1620, 24664.75
454.6441, 24633.12
455.1263, 24592.70
455.6084, 24540.27
456.0905, 24497.65
456.5726, 24478.67
457.0547, 24455.96
457.5368, 24419.62
458.0190, 24374.43
458.5011, 24322.95
458.9832, 24261.88
459.4653, 24215.90
459.9474, 24232.60
460.4295, 24313.11
460.9117, 24372.41
461.3938, 24385.17
461.8759, 24384.49
462.3580, 24399.16
462.8401, 24426.59
463.3222, 24454.22
463.8044, 24475.04
464.2865, 24497.60
464.7686, 24531.79
465.2507, 24574.92
465.7328, 24615.32
466.2149, 24647.18
466.6971, 24676.58
467.1792, 24717.18
467.6613, 24793.34
468.1434, 24826.09
468.6255, 24799.35
469.1076, 24744.34
469.5898, 24672.75
470.0719, 24589.59
470.5540, 24499.31
471.0361, 24402.38
471.5182, 24305.21
472.0003, 24224.89
472.4825, 24165.25
472.9646, 24113.51
473.4467, 24091.50
473.9288, 24058.78
474.4109, 23970.17
474.8930, 23833.01
475.3752, 23722.35
475.8573, 23697.72
476.3394, 23720.39
476.8215, 23731.80
477.3036, 23730.55
477.7857, 23705.52
478.2679, 23639.46
478.7500, 23555.70
479.2321, 23512.88
479.7142, 23523.85
480.1963, 23536.19
480.6784, 23545.69
481.1606, 23548.52
481.6427, 23539.67
482.1248, 23519.93
482.6069, 23494.14
483.0890, 23464.57
483.5711, 23433.21
484.0533, 23410.80
484.5354, 23402.22
485.0175, 23394.91
485.4996, 23386.28
485.9817, 23378.55
486.4638, 23373.44
486.9460, 23371.14
487.4281, 23371.01
487.9102, 23375.40
488.3923, 23381.46
488.8744, 23378.37
489.3565, 23364.00
489.8387, 23352.30
490.3208, 23348.49
490.8029, 23353.25
491.2850, 23370.93
491.7671, 23414.98
492.2492, 23433.58
492.7314, 23386.72
493.2135, 23317.79
493.6956, 23271.87
494.1777, 23254.86
494.6598, 23258.12
495.1419, 23279.00
495.6241, 23311.98
496.1062, 23321.12
496.5883, 23283.73
497.0704, 23253.46
497.5525, 23242.72
498.0346, 23235.86
498.5168, 23216.99
498.9989, 23186.32
499.4810, 23159.46
499.9631, 23151.39
500.4452, 23157.33
500.9273, 23160.69
501.4095, 23162.11
501.8916, 23158.09
502.3737, 23146.92
502.8558, 23129.07
503.3379, 23102.97
503.8200, 23063.90
504.3022, 23036.99
504.7843, 23047.00
505.2664, 23065.39
505.7485, 23049.63
506.2306, 23002.97
506.7127, 22972.86
507.1949, 22994.32
507.6770, 23052.79
508.1591, 23084.24
508.6412, 23069.33
509.1233, 23054.43
509.6054, 23037.02
510.0876, 23024.32
510.5697, 23032.11
511.0518, 23053.00
511.5339, 23053.21
512.0161, 22991.80
512.4982, 22902.94
512.9803, 22896.79
513.4624, 22993.06
513.9445, 23050.43
514.4266, 22998.55
514.9088, 22901.33
515.3909, 22837.78
515.8730, 22808.15
516.3551, 22802.65
516.8372, 22844.61
517.3193, 22889.92
517.8015, 22894.15
518.2836, 22862.70
518.7657, 22826.85
519.2478, 22802.81
519.7299, 22786.23
520.2120, 22767.58
520.6942, 22752.03
521.1763, 22723.73
521.6584, 22681.27
522.1405, 22629.24
522.6226, 22548.38
523.1047, 22460.03
523.5869, 22419.26
524.0690, 22467.09
524.5511, 22548.92
525.0332, 22575.74
525.5153, 22547.87
525.9974, 22509.56
526.4796, 22464.08
526.9617, 22422.86
527.4438, 22398.25
527.9259, 22388.82
528.4080, 22390.10
528.8901, 22417.30
529.3723, 22439.48
529.8544, 22434.46
530.3365, 22411.94
530.8186, 22390.66
531.3007, 22377.03
531.7828, 22366.89
532.2650, 22354.37
532.7471, 22338.62
533.2292, 22325.31
533.7113, 22312.86
534.1934, 22304.94
534.6755, 22306.71
535.1577, 22312.00
535.6398, 22310.36
536.1219, 22297.66
536.6040, 22288.66
537.0861, 22308.90
537.5682, 22344.34
538.0504, 22345.38
538.5325, 22303.28
539.0146, 22248.82
539.4967, 22198.03
539.9788, 22153.34
540.4609, 22126.71
540.9431, 22122.50
541.4252, 22127.70
541.9073, 22151.93
542.3894, 22176.49
542.8715, 22181.25
543.3536, 22166.29
543.8358, 22146.36
544.3179, 22132.03
544.8000, 22123.37
545.2821, 22125.06
545.7642, 22149.82
546.2463, 22149.75
546.7285, 22086.49
547.2106, 22013.10
547.6927, 21971.20
548.1748, 21960.29
548.6569, 21951.76
549.1390, 21935.47
549.6211, 21913.97
550.1032, 21881.59
550.5853, 21844.27
551.0674, 21832.53
551.5496, 21862.15
552.0317, 21902.93
552.5138, 21902.69
552.9959, 21838.69
553.4780, 21811.26
553.9601, 21858.90
554.4423, 21896.39
554.9244, 21878.83
555.4065, 21831.87
555.8886, 21796.82
556.3707, 21788.70
556.8528, 21795.47
557.3350, 21810.94
557.8171, 21831.97
558.2992, 21828.52
558.7813, 21789.59
559.2634, 21752.48
559.7455, 21744.73
560.2277, 21757.45
560.7098, 21760.52
561.1919, 21749.85
561.6740, 21736.29
562.1561, 21722.34
562.6382, 21707.72
563.1204, 21696.02
563.6025, 21684.71
564.0846, 21660.61
564.5667, 21611.05
565.0488, 21545.93
565.5309, 21502.55
566.0131, 21481.71
566.4952, 21480.70
566.9773, 21526.35
567.4594, 21569.88
567.9415, 21580.24
568.4236, 21560.28
568.9058, 21530.30
569.3879, 21490.73
569.8700, 21451.99
570.3521, 21422.16
570.8342, 21401.58
571.3163, 21393.09
571.7985, 21398.19
572.2806, 21409.83
572.7627, 21420.96
573.2448, 21432.57
573.7269, 21434.10
574.2090, 21429.85
574.6912, 21410.89
575.1733, 21353.70
575.6554, 21291.76
576.1375, 21267.67
576.6196, 21288.21
577.1017, 21314.88
577.5839, 21309.54
578.0660, 21282.44
578.5481, 21269.49
579.0302, 21272.83
579.5123, 21275.72
579.9944, 21269.52
580.4766, 21259.40
580.9587, 21255.27
581.4408, 21257.40
581.9229, 21262.43
582.4050, 21277.98
582.8871, 21288.99
583.3693, 21284.20
583.8514, 21267.02
584.3335, 21243.73
584.8156, 21217.19
585.2977, 21193.35
585.7798, 21185.45
586.2620, 21195.99
586.7441, 21191.54
587.2262, 21160.54
587.7083, 21130.72
588.1904, 21125.76
588.6725, 21130.24
589.1547, 21116.17
589.6368, 21070.09
590.1189, 21031.09
590.6010, 21026.68
591.0831, 21035.16
591.5652, 21028.45
592.0474, 21005.49
592.5295, 20980.06
593.0116, 20960.87
593.4937, 20947.02
593.9758, 20936.97
594.4579, 20937.11
594.9401, 20925.93
595.4222, 20882.23
595.9043, 20844.73
596.3864, 20837.94
596.8685, 20852.89
597.3506, 20865.58
597.8328, 20867.86
598.3149, 20863.82
598.7970, 20853.22
599.2791, 20839.52
599.7612, 20830.59
600.2433, 20827.90
600.7255, 20834.53
601.2076, 20857.97
601.6897, 20892.73
602.1718, 20893.42
602.6539, 20817.42
603.1360, 20765.21
603.6182, 20763.47
604.1003, 20772.66
604.5824, 20761.08
605.0645, 20731.35
605.5466, 20708.31
606.0287, 20711.39
606.5109, 20721.75
606.9930, 20709.92
607.4751, 20678.13
607.9572, 20640.36
608.4393, 20595.18
608.9214, 20564.55
609.4036, 20579.13
609.8857, 20639.10
610.3678, 20657.79
610.8499, 20591.07
611.3320, 20543.00
611.8141, 20558.44
612.2963, 20590.81
612.7784, 20590.83
613.2605, 20555.38
613.7426, 20515.85
614.2247, 20494.34
614.7068, 20486.82
615.1890, 20483.08
615.6711, 20482.89
616.1532, 20495.67
616.6353, 20536.13
617.1174, 20568.65
617.5995, 20543.92
618.0817, 20460.44
618.5638, 20401.08
619.0459, 20366.88
619.5280, 20359.74
620.0101, 20412.31
620.4922, 20476.62
620.9744, 20485.70
621.4565, 20432.46
621.9386, 20370.98
622.4207, 20351.87
622.9028, 20362.49
623.3849, 20350.28
623.8671, 20309.59
624.3492, 20280.04
624.8313, 20279.62
625.3134, 20288.46
625.7955, 20277.24
626.2776, 20247.40
626.7598, 20239.75
627.2419, 20284.96
627.7240, 20326.51
628.2061, 20333.78
628.6882, 20320.06
629.1703, 20304.03
629.6525, 20290.89
630.1346, 20277.20
630.6167, 20258.20
631.0988, 20236.01
631.5809, 20223.43
632.0630, 20223.02
632.5452, 20222.38
633.0273, 20220.18
633.5094, 20213.71
633.9915, 20195.29
634.4736, 20166.01
634.9557, 20149.85
635.4379, 20166.50
635.9200, 20181.90
636.4021, 20176.58
636.8842, 20157.61
637.3663, 20132.05
637.8484, 20103.94
638.3306, 20084.72
638.8127, 20089.93
639.2948, 20113.29
639.7769, 20114.85
640.2590, 20089.22
640.7411, 20060.37
641.2233, 20030.73
641.7054, 20005.01
642.1875, 19985.32
642.6696, 19972.00
643.1517, 19971.92
643.6339, 20008.07
644.1160, 20034.79
644.5981, 20010.15
645.0802, 19966.54
645.5623, 19958.14
646.0444, 19993.40
646.5266, 20034.82
647.0087, 20047.01
647.4908, 20036.52
647.9729, 20031.29
648.4550, 20028.23
648.9371, 20046.33
649.4193, 20117.41
649.9014, 20181.79
650.3835, 20166.79
650.8656, 20085.90
651.3477, 20034.76
651.8298, 20045.19
652.3120, 20070.47
652.7941, 20098.15
653.2762, 20123.01
653.7583, 20134.02
654.2404, 20132.58
654.7225, 20135.78
655.2047, 20157.90
655.6868, 20194.47
656.1689, 20231.40
656.6510, 20268.87
657.1331, 20304.68
657.6152, 20333.67
658.0974, 20367.27
658.5795, 20415.81
659.0616, 20477.78
659.5437, 20547.33
660.0258, 20610.57
660.5079, 20698.19
660.9901, 20843.98
661.4722, 21004.37
661.9543, 21123.59
662.4364, 21207.38
662.9185, 21309.50
663.4006, 21466.17
663.8828, 21662.10
664.3649, 21868.05
664.8470, 22084.10
665.3291, 22303.39
665.8112, 22515.94
666.2933, 22756.01
666.7755, 23057.33
667.2576, 23408.11
667.7397, 23755.33
668.2218, 24084.98
668.7039, 24431.75
669.1860, 24804.98
669.6682, 25194.78
670.1503, 25596.18
670.6324, 26010.73
671.1145, 26449.78
671.5966, 26925.28
672.0787, 27397.64
672.5609, 27818.81
673.0430, 28191.13
673.5251, 28528.89
674.0072, 28837.70
674.4893, 29098.04
674.9714, 29309.71
675.4536, 29457.43
675.9357, 29502.16
676.4178, 29463.18
676.8999, 29272.21
677.3820, 28845.92
677.8641, 28349.28
678.3463, 27857.75
678.8284, 27362.29
679.3105, 26828.97
679.7926, 26248.08
680.2747, 25665.93
680.7568, 25129.67
681.2390, 24629.00
681.7211, 24136.00
682.2032, 23652.91
682.6853, 23207.73
683.1674, 22812.98
683.6495, 22460.70
684.1317, 22136.30
684.6138, 21841.42
685.0959, 21571.00
685.5780, 21328.69
686.0601, 21103.43
686.5422, 20892.34
687.0244, 20697.13
687.5065, 20519.64
687.9886, 20359.53
688.4707, 20217.52
688.9528, 20100.79
689.4349, 19996.94
689.9171, 19887.85
690.3992, 19779.89
690.8813, 19694.22
691.3634, 19636.30
691.8455, 19592.19
692.3276, 19551.59
692.8098, 19511.77
693.2919, 19443.38
693.7740, 19316.21
694.2561, 19227.89
694.7382, 19230.88
695.2203, 19247.37
695.7025, 19221.61
696.1846, 19163.38
696.6667, 19113.24
697.1488, 19078.73
697.6309, 19058.07
698.1130, 19069.43
698.5952, 19083.43
699.0773, 19055.73
699.5594, 18990.32
700.0415, 18927.24
700.5236, 18890.91
701.0057, 18871.19
701.4879, 18843.98
701.9700, 18807.79
702.4521, 18801.32
702.9342, 18848.18
703.4163, 18871.31
703.8984, 18805.44
704.3806, 18692.52
704.8627, 18637.28
705.3448, 18666.39
705.8269, 18672.14
706.3090, 18613.21
706.7911, 18553.54
707.2733, 18534.62
707.7554, 18540.31
708.2375, 18541.15
708.7196, 18527.94
709.2017, 18509.90
709.6838, 18494.16
710.1660, 18480.60
710.6481, 18469.52
711.1302, 18460.75
711.6123, 18453.52
712.0944, 18449.46
712.5765, 18438.30
713.0587, 18404.92
713.5408, 18347.80
714.0229, 18300.58
714.5050, 18256.04
714.9871, 18232.58
715.4692, 18249.13
715.9514, 18274.73
716.4335, 18290.79
716.9156, 18293.61
717.3977, 18277.73
717.8798, 18226.64
718.3619, 18176.68
718.8441, 18162.00
719.3262, 18166.02
719.8083, 18159.83
720.2904, 18140.77
720.7725, 18122.44
721.2546, 18113.69
721.7368, 18113.14
722.2189, 18122.02
722.7010, 18144.85
723.1831, 18143.35
723.6652, 18101.92
724.1473, 18060.96
724.6295, 18043.66
725.1116, 18042.00
725.5937, 18039.75
726.0758, 18038.16
726.5579, 18031.46
727.0400, 18009.56
727.5222, 17991.42
728.0043, 17998.53
728.4864, 18013.17
728.9685, 18001.72
729.4506, 17957.62
729.9327, 17913.31
730.4149, 17902.78
730.8970, 17911.14
731.3791, 17900.63
731.8612, 17874.29
732.3433, 17865.63
732.8254, 17887.62
733.3076, 17907.89
733.7897, 17891.64
734.2718, 17841.97
734.7539, 17797.95
735.2360, 17748.35
735.7181, 17723.55
736.2003, 17746.76
736.6824, 17776.20
737.1645, 17791.78
737.6466, 17792.45
738.1287, 17777.51
738.6108, 17739.47
739.0930, 17703.72
739.5751, 17689.12
740.0572, 17681.32
740.5393, 17661.82
741.0214, 17633.35
741.5035, 17606.51
741.9857, 17586.35
742.4678, 17581.12
742.9499, 17619.87
743.4320, 17695.64
743.9141, 17698.75
744.3962, 17610.72
744.8784, 17547.63
745.3605, 17565.54
745.8426, 17611.91
746.3247, 17613.15
746.8068, 17562.01
747.2889, 17533.58
747.7711, 17538.71
748.2532, 17550.75
748.7353, 17585.22
749.2174, 17607.80
749.6995, 17572.02
750.1816, 17492.03
750.6638, 17436.69
751.1459, 17450.30
751.6280, 17477.51
752.1101, 17468.52
752.5922, 17436.37
753.0743, 17401.93
753.5565, 17369.25
754.0386, 17342.91
754.5207, 17326.83
755.0028, 17310.87
755.4849, 17265.30
755.9670, 17181.81
756.4492, 17152.88
756.9313, 17198.58
757.4134, 17253.89
757.8955, 17305.43
758.3776, 17340.58
758.8597, 17331.48
759.3419, 17273.14
759.8240, 17231.92
760.3061, 17221.81
760.7882, 17219.19
761.2703, 17229.91
761.7524, 17234.05
762.2346, 17198.99
762.7167, 17132.36
763.1988, 17085.23
763.6809, 17095.77
764.1630, 17121.91
764.6451, 17109.55
765.1273, 17075.90
765.6094, 17069.64
766.0915, 17094.05
766.5736, 17107.55
767.0557, 17082.40
767.5378, 17040.41
768.0200, 17034.60
768.5021, 17076.03
768.9842, 17083.54
769.4663, 17037.58
769.9484, 16997.73
770.4305, 17001.03
770.9127, 17016.73
771.3948, 16992.91
771.8769, 16924.65
772.3590, 16884.86
772.8411, 16901.27
773.3232, 16924.49
773.8054, 16946.43
774.2875, 16958.41
774.7696, 16943.11
775.2517, 16907.26
775.7338, 16884.73
776.2159, 16899.90
776.6981, 16923.54
777.1802, 16917.71
777.6623, 16896.58
778.1444, 16892.57
778.6265, 16908.74
779.1086, 16936.61
779.5908, 16973.18
780.0729, 17005.43
780.5550, 17003.58
781.0371, 16962.20
781.5192, 16942.23
782.0013, 16948.99
782.4835, 16963.64
782.9656, 16985.31
783.4477, 17005.58
783.9298, 17014.26
784.4119, 17011.39
784.8940, 16999.34
785.3762, 16961.68
785.8583, 16936.28
786.3404, 16943.82
786.8225, 16959.44
787.3046, 16964.36
787.7867, 16957.41
788.2689, 16941.29
788.7510, 16911.91
789.2331, 16890.81
789.7152, 16908.31
790.1973, 16939.50
790.6794, 16944.39
791.1616, 16923.92
791.6437, 16893.99
792.1258, 16861.24
792.6079, 16837.15
793.0900, 16844.29
793.5721, 16876.91
794.0543, 16877.40
794.5364, 16843.34
795.0185, 16788.28
795.5006, 16705.60
795.9827, 16625.25
796.4648, 16577.77
796.9470, 16560.24
797.4291, 16542.96
797.9112, 16535.83
798.3933, 16514.53
798.8754, 16450.96
799.3575, 16399.72
799.8397, 16409.47
800.3218, 16449.15
800.8039, 16458.05
801.2860, 16419.85
801.7681, 16368.77
802.2502, 16301.18
802.7324, 16246.54
803.2145, 16245.85
803.6966, 16273.79
804.1787, 16277.94
804.6608, 16247.78
805.1429, 16216.28
805.6251, 16212.25
806.1072, 16223.78
806.5893, 16226.07
807.0714, 16220.17
807.5535, 16214.02
808.0356, 16208.94
808.5178, 16204.29
808.9999, 16201.10
809.4820, 16194.98
809.9641, 16173.17
810.4462, 16128.01
810.9283, 16094.70
811.4105, 16074.13
811.8926, 16064.08
812.3747, 16081.72
812.8568, 16097.59
813.3389, 16068.52
813.8210, 15994.75
814.3032, 15945.81
814.7853, 15932.79
815.2674, 15945.09
815.7495, 16010.36
816.2316, 16074.98
816.7137, 16089.78
817.1959, 16059.50
817.6780, 16010.66
818.1601, 15948.77
818.6422, 15897.51
819.1243, 15887.15
819.6064, 15894.04
820.0886, 15879.46
820.5707, 15847.70
821.0528, 15820.41
821.5349, 15805.67
822.0170, 15807.36
822.4991, 15838.37
822.9813, 15884.64
823.4634, 15879.74
823.9455, 15820.80
824.4276, 15767.52
824.9097, 15731.13
825.3918, 15705.91
825.8740, 15686.42
826.3561, 15675.68
826.8382, 15685.09
827.3203, 15724.53
827.8024, 15762.03
828.2845, 15830.81
828.7667, 15855.81
829.2488, 15764.49
829.7309, 15642.80
830.2130, 15599.11
830.6951, 15639.33
831.1772, 15673.52
831.6594, 15674.00
832.1415, 15671.94
832.6236, 15691.97
833.1057, 15707.91
833.5878, 15684.71
834.0699, 15632.08
834.5521, 15588.90
835.0342, 15572.98
835.5163, 15567.69
835.9984, 15558.34
836.4805, 15549.12
836.9626, 15547.74
837.4448, 15552.97
837.9269, 15564.96
838.4090, 15582.17
838.8911, 15580.65
839.3732, 15527.67
839.8553, 15442.12
840.3375, 15393.43
840.8196, 15382.12
841.3017, 15383.26
841.7838, 15394.54
842.2659, 15407.57
842.7480, 15415.90
843.2302, 15423.27
843.7123, 15441.04
844.1944, 15477.97
844.6765, 15496.26
845.1586, 15497.20
845.6407, 15477.56
846.1229, 15407.32
846.6050, 15335.84
847.0871, 15320.81
847.5692, 15357.28
848.0513, 15374.94
848.5334, 15342.89
849.0156, 15319.89
849.4977, 15335.16
849.9798, 15353.49
850.4619, 15341.89
850.9440, 15312.70
851.4261, 15298.06
851.9083, 15308.55
852.3904, 15320.81
852.8725, 15321.34
853.3546, 15314.45
853.8367, 15304.67
854.3188, 15291.07
854.8010, 15267.41
855.2831, 15235.19
855.7652, 15209.63
856.2473, 15202.61
856.7294, 15206.56
857.2115, 15212.82
857.6937, 15218.87
858.1758, 15207.88
858.6579, 15179.37
859.1400, 15166.79
859.6221, 15188.44
860.1042, 15212.50
860.5864, 15188.04
861.0685, 15118.06
861.5506, 15086.25
862.0327, 15103.40
862.5148, 15115.28
862.9969, 15103.78
863.4791, 15098.61
863.9612, 15138.90
864.4433, 15199.99
864.9254, 15188.51
865.4075, 15043.34
865.8896, 14953.29
866.3718, 14941.44
866.8539, 14954.15
867.3360, 14994.05
867.8181, 15035.30
868.3002, 15044.90
868.7823, 15023.35
869.2645, 15008.13
869.7466, 15026.90
870.2287, 15030.14
870.7108, 14977.68
871.1929, 14919.29
871.6750, 14898.55
872.1572, 14909.33
872.6393, 14933.57
873.1214, 14966.40
873.6035, 14984.86
874.0856, 14958.54
874.5677, 14920.77
875.0499, 14914.82
875.5320, 14924.91
876.0141, 14909.80
876.4962, 14867.48
876.9783, 14839.29
877.4604, 14856.30
877.9426, 14889.08
878.4247, 14889.96
878.9068, 14866.13
879.3889, 14843.36
879.8710, 14823.47
880.3531, 14800.18
880.8353, 14770.50
881.3174, 14747.63
881.7995, 14750.34
882.2816, 14772.75
882.7637, 14775.39
883.2458, 14754.89
883.7280, 14739.33
884.2101, 14732.88
884.6922, 14734.10
885.1743, 14745.83
885.6564, 14760.26
886.1385, 14758.68
886.6207, 14734.67
887.1028, 14724.62
887.5849, 14746.85
888.0670, 14753.21
888.5491, 14716.37
889.0313, 14671.70
889.5134, 14652.54
889.9955, 14652.54
890.4776, 14641.47
890.9597, 14600.69
891.4418, 14579.10
891.9240, 14610.97
892.4061, 14633.39
892.8882, 14595.08
893.3703, 14536.79
893.8524, 14521.44
894.3345, 14553.60
894.8167, 14573.80
895.2988, 14540.39
895.7809, 14510.84
896.2630, 14529.17
896.7451, 14556.51
897.2272, 14545.11
897.7094, 14507.79
898.1915, 14491.16
898.6736, 14512.07
899.1557, 14528.68
899.6378, 14488.75
900.1199, 14441.03
900.6021, 14465.08
901.0842, 14522.50
901.5663, 14523.34
902.0484, 14460.47
902.5305, 14393.22
903.0126, 14357.05
903.4948, 14344.72
903.9769, 14355.72
904.4590, 14380.67
904.9411, 14388.27
905.4232, 14379.35
905.9053, 14370.44
906.3875, 14366.99
906.8696, 14367.94
907.3517, 14373.69
907.8338, 14380.64
908.3159, 14375.88
908.7980, 14359.33
909.2802, 14342.18
909.7623, 14324.42
910.2444, 14318.32
910.7265, 14335.10
911.2086, 14349.47
911.6907, 14319.28
912.1729, 14245.56
912.6550, 14212.27
913.1371, 14234.28
913.6192, 14249.54
914.1013, 14246.85
914.5834, 14236.48
915.0656, 14221.94
915.5477, 14206.41
916.0298, 14198.28
916.5119, 14202.24
916.9940, 14195.73
917.4761, 14170.45
917.9583, 14146.46
918.4404, 14118.58
918.9225, 14101.99
919.4046, 14119.78
919.8867, 14159.79
920.3688, 14175.65
920.8510, 14147.86
921.3331, 14131.80
921.8152, 14155.35
922.2973, 14169.14
922.7794, 14136.75
923.2615, 14091.05
923.7437, 14072.11
924.2258, 14080.35
924.7079, 14089.22
925.1900, 14099.86
925.6721, 14094.81
926.1542, 14051.86
926.6364, 14004.60
927.1185, 13979.39
927.6006, 13969.73
928.0827, 13962.12
928.5648, 13953.25
929.0469, 13944.51
929.5291, 13934.83
930.0112, 13927.73
930.4933, 13928.68
930.9754, 13931.75
931.4575, 13927.82
931.9396, 13919.27
932.4218, 13915.03
932.9039, 13918.25
933.3860, 13924.12
933.8681, 13932.83
934.3502, 13938.35
934.8323, 13928.12
935.3145, 13910.32
935.7966, 13903.17
936.2787, 13907.17
936.7608, 13911.12
937.2429, 13909.33
937.7250, 13901.45
938.2072, 13882.72
938.6893, 13859.29
939.1714, 13847.34
939.6535, 13843.84
940.1356, 13835.67
940.6177, 13820.12
941.0999, 13803.37
941.5820, 13789.96
942.0641, 13776.76
942.5462, 13754.95
943.0283, 13727.79
943.5104, 13711.38
943.9926, 13706.44
944.4747, 13717.04
944.9568, 13745.01
945.4389, 13766.17
945.9210, 13757.26
946.4031, 13728.85
946.8853, 13709.64
947.3674, 13699.54
947.8495, 13692.24
948.3316, 13688.11
948.8137, 13674.77
949.2958, 13644.75
949.7780, 13617.50
950.2601, 13615.64
950.7422, 13635.02
951.2243, 13655.86
951.7064, 13679.97
952.1885, 13694.25
952.6707, 13697.96
953.1528, 13687.55
953.6349, 13655.37
954.1170, 13621.04
954.5991, 13612.84
955.0812, 13629.22
955.5634, 13635.28
956.0455, 13630.93
956.5276, 13614.27
957.0097, 13573.72
957.4918, 13545.12
957.9739, 13555.24
958.4561, 13580.41
958.9382, 13580.39
959.4203, 13552.56
959.9024, 13536.58
960.3845, 13535.42
960.8666, 13540.69
961.3488, 13557.67
961.8309, 13572.38
962.3130, 13584.60
962.7951, 13584.29
963.2772, 13540.94
963.7593, 13434.38
964.2415, 13393.46
964.7236, 13486.53
965.2057, 13545.83
965.6878, 13522.46
966.1699, 13477.35
966.6520, 13440.06
967.1342, 13411.58
967.6163, 13394.98
968.0984, 13392.81
968.5805, 13392.47
969.0626, 13388.34
969.5447, 13392.66
970.0269, 13431.45
970.5090, 13458.99
970.9911, 13421.51
971.4732, 13347.71
971.9553, 13319.06
972.4374, 13360.34
972.9196, 13384.53
973.4017, 13369.79
973.8838, 13348.92
974.3659, 13329.00
974.8480, 13311.51
975.3301, 13297.58
975.8123, 13286.89
976.2944, 13278.38
976.7765, 13271.02
977.2586, 13268.68
977.7407, 13274.94
978.2228, 13283.12
978.7050, 13292.57
979.1871, 13300.77
979.6692, 13312.67
980.1513, 13321.40
980.6334, 13299.53
981.1155, 13221.33
981.5977, 13175.25
982.0798, 13222.10
982.5619, 13267.03
983.0440, 13246.39
983.5261, 13209.50
984.0082, 13220.66
984.4904, 13269.07
984.9725, 13291.63
985.4546, 13264.67
985.9367, 13232.24
986.4188, 13200.89
986.9009, 13178.90
987.3831, 13174.70
987.8652, 13179.99
988.3473, 13191.73
988.8294, 13204.27
989.3115, 13198.53
989.7936, 13158.35
990.2758, 13130.53
990.7579, 13150.41
991.2400, 13171.32
991.7221, 13164.43
992.2042, 13140.48
992.6863, 13103.98
993.1685, 13063.92
993.6506, 13050.00
994.1327, 13085.02
994.6148, 13109.06
995.0969, 13084.45
995.5790, 13051.67
996.0612, 13036.14
996.5433, 13030.20
997.0254, 13020.85
997.5075, 13009.07
997.9896, 13007.83
998.4717, 13026.88
998.9539, 13040.77
999.4360, 13037.59
999.9181, 13025.38
1000.400, 12999.14
1000.882, 12974.10
1001.364, 12974.91
1001.847, 12996.31
1002.329, 13006.08
1002.811, 12990.18
1003.293, 12970.93
1003.775, 12949.24
1004.257, 12938.02
1004.739, 12956.53
1005.221, 12984.12
1005.703, 12993.89
1006.186, 12986.78
1006.668, 12980.66
1007.150, 12981.22
1007.632, 12984.24
1008.114, 12985.93
1008.596, 12991.51
1009.078, 13009.59
1009.560, 13030.00
1010.043, 13041.84
1010.525, 13044.23
1011.007, 13035.96
1011.489, 13006.64
1011.971, 13004.21
1012.453, 13082.63
1012.935, 13156.05
1013.417, 13167.75
1013.899, 13149.03
1014.382, 13124.20
1014.864, 13104.05
1015.346, 13112.81
1015.828, 13171.09
1016.310, 13197.41
1016.792, 13125.65
1017.274, 13054.98
1017.756, 13050.95
1018.239, 13065.97
1018.721, 13043.81
1019.203, 12996.02
1019.685, 12975.68
1020.167, 13004.55
1020.649, 13011.97
1021.131, 12955.02
1021.613, 12896.23
1022.095, 12865.74
1022.578, 12845.33
1023.060, 12817.07
1023.542, 12784.19
1024.024, 12757.70
1024.506, 12739.41
1024.988, 12729.37
1025.470, 12735.72
1025.952, 12739.78
1026.435, 12739.05
1026.917, 12729.24
1027.399, 12706.91
1027.881, 12673.07
1028.363, 12621.90
1028.845, 12546.59
1029.327, 12508.67
1029.809, 12550.98
1030.292, 12587.96
1030.774, 12589.74
1031.256, 12585.99
1031.738, 12604.73
1032.220, 12629.05
1032.702, 12620.40
1033.184, 12571.90
1033.666, 12552.16
1034.148, 12601.05
1034.630, 12630.92
1035.113, 12605.13
1035.595, 12581.35
1036.077, 12604.41
1036.559, 12642.33
1037.041, 12643.56
1037.523, 12606.13
1038.005, 12579.59
1038.487, 12563.66
1038.970, 12560.06
1039.452, 12582.15
1039.934, 12599.22
1040.416, 12592.60
1040.898, 12578.49
1041.380, 12576.27
1041.862, 12584.90
1042.344, 12592.41
1042.826, 12591.74
1043.309, 12606.65
1043.791, 12650.82
1044.273, 12685.60
1044.755, 12688.87
1045.237, 12689.13
1045.719, 12719.51
1046.201, 12770.72
1046.683, 12797.27
1047.166, 12785.95
1047.648, 12796.43
1048.130, 12834.24
1048.612, 12880.91
1049.094, 12937.14
1049.576, 12985.43
1050.058, 13012.28
1050.540, 13018.13
1051.022, 13000.93
1051.505, 12957.68
1051.987, 12923.71
1052.469, 12902.64
1052.951, 12869.11
1053.433, 12816.58
1053.915, 12751.29
1054.397, 12672.96
1054.879, 12596.95
1055.361, 12553.27
1055.844, 12539.03
1056.326, 12517.36
1056.808, 12488.18
1057.290, 12473.74
1057.772, 12478.15
1058.254, 12461.25
1058.736, 12400.01
1059.218, 12331.57
1059.701, 12306.98
1060.183, 12313.35
1060.665, 12309.95
1061.147, 12297.65
1061.629, 12277.18
1062.111, 12250.90
1062.593, 12238.81
1063.075, 12247.75
1063.557, 12251.73
1064.040, 12222.84
1064.522, 12179.58
1065.004, 12152.04
1065.486, 12138.26
1065.968, 12137.38
1066.450, 12145.82
1066.932, 12151.59
1067.414, 12152.63
1067.896, 12161.49
1068.379, 12190.62
1068.861, 12216.06
1069.343, 12209.42
1069.825, 12183.33
1070.307, 12143.86
1070.789, 12103.55
1071.271, 12088.83
1071.753, 12097.62
1072.236, 12102.10
1072.718, 12089.39
1073.200, 12073.24
1073.682, 12053.54
1074.164, 12045.36
1074.646, 12078.26
1075.128, 12117.60
1075.610, 12116.17
1076.093, 12084.17
1076.575, 12060.26
1077.057, 12054.74
1077.539, 12051.95
1078.021, 12046.43
1078.503, 12040.43
1078.985, 12036.39
1079.467, 12030.85
1079.949, 12016.74
1080.432, 12001.34
1080.914, 11997.33
1081.396, 12005.67
1081.878, 12015.05
1082.360, 12036.11
1082.842, 12038.68
1083.324, 12000.21
1083.806, 11963.88
1084.288, 11942.76
1084.771, 11938.38
1085.253, 11962.97
1085.735, 12007.28
1086.217, 12025.97
1086.699, 12008.93
1087.181, 11993.12
1087.663, 11981.30
1088.145, 11964.34
1088.628, 11934.21
1089.110, 11909.38
1089.592, 11905.94
1090.074, 11914.00
1090.556, 11912.76
1091.038, 11902.11
1091.520, 11883.32
1092.002, 11853.53
1092.484, 11834.80
1092.967, 11830.98
1093.449, 11838.49
1093.931, 11857.72
1094.413, 11875.60
1094.895, 11875.53
1095.377, 11860.61
1095.859, 11832.44
1096.341, 11796.77
1096.823, 11811.91
1097.306, 11874.66
1097.788, 11908.74
1098.270, 11890.61
1098.752, 11856.49
1099.234, 11833.54
1099.716, 11816.88
1100.198, 11796.03
1100.680, 11777.59
1101.163, 11780.10
1101.645, 11795.30
1102.127, 11804.96
1102.609, 11803.93
1103.091, 11786.04
1103.573, 11747.24
1104.055, 11713.98
1104.537, 11713.85
1105.020, 11723.15
1105.502, 11726.54
1105.984, 11721.76
1106.466, 11699.65
1106.948, 11669.73
1107.430, 11649.54
1107.912, 11643.51
1108.394, 11653.96
1108.876, 11706.71
1109.359, 11738.34
1109.841, 11702.46
1110.323, 11663.79
1110.805, 11665.91
1111.287, 11684.87
1111.769, 11695.75
1112.251, 11695.25
1112.733, 11676.36
1113.215, 11623.86
1113.698, 11589.38
1114.180, 11577.28
1114.662, 11579.13
1115.144, 11602.03
1115.626, 11626.20
1116.108, 11641.41
1116.590, 11645.85
1117.072, 11632.67
1117.555, 11601.69
1118.037, 11595.02
1118.519, 11621.45
1119.001, 11616.52
1119.483, 11565.29
1119.965, 11535.23
1120.447, 11557.99
1120.929, 11589.34
1121.411, 11583.53
1121.894, 11553.12
1122.376, 11522.80
1122.858, 11496.76
1123.340, 11502.36
1123.822, 11534.47
1124.304, 11561.13
1124.786, 11575.05
1125.268, 11585.68
1125.750, 11598.59
1126.233, 11606.11
1126.715, 11591.14
1127.197, 11572.79
1127.679, 11591.48
1128.161, 11616.67
1128.643, 11590.72
1129.125, 11528.57
1129.607, 11479.88
1130.090, 11458.11
1130.572, 11451.78
1131.054, 11466.44
1131.536, 11474.74
1132.018, 11450.15
1132.500, 11427.97
1132.982, 11444.74
1133.464, 11468.70
1133.947, 11454.33
1134.429, 11410.79
1134.911, 11386.40
1135.393, 11391.32
1135.875, 11400.24
1136.357, 11422.38
1136.839, 11431.68
1137.321, 11421.68
1137.803, 11399.48
1138.286, 11357.27
1138.768, 11319.95
1139.250, 11330.46
1139.732, 11380.95
1140.214, 11393.48
1140.696, 11361.40
1141.178, 11343.33
1141.660, 11343.92
1142.142, 11350.67
1142.625, 11360.45
1143.107, 11361.43
1143.589, 11343.79
1144.071, 11315.31
1144.553, 11282.36
1145.035, 11251.91
1145.517, 11251.72
1145.999, 11271.58
1146.482, 11275.49
1146.964, 11265.07
1147.446, 11275.40
1147.928, 11317.10
1148.410, 11344.97
1148.892, 11317.77
1149.374, 11276.64
1149.856, 11253.24
1150.339, 11238.35
1150.821, 11218.53
1151.303, 11203.65
1151.785, 11218.57
1152.267, 11254.56
1152.749, 11263.98
1153.231, 11224.43
1153.713, 11201.75
1154.195, 11240.19
1154.677, 11256.60
1155.160, 11193.68
1155.642, 11137.58
1156.124, 11157.75
1156.606, 11202.44
1157.088, 11191.68
1157.570, 11132.14
1158.052, 11103.79
1158.534, 11112.79
1159.017, 11127.09
1159.499, 11147.53
1159.981, 11159.39
1160.463, 11158.35
1160.945, 11145.96
1161.427, 11122.10
1161.909, 11093.33
1162.391, 11063.75
1162.874, 11040.75
1163.356, 11058.94
1163.838, 11103.33
1164.320, 11126.89
1164.802, 11127.00
1165.284, 11117.51
1165.766, 11104.25
1166.248, 11092.76
1166.730, 11085.54
1167.213, 11084.47
1167.695, 11107.30
1168.177, 11120.21
1168.659, 11072.93
1169.141, 11012.28
1169.623, 11002.02
1170.105, 11030.92
1170.587, 11050.32
1171.069, 11051.26
1171.552, 11046.32
1172.034, 11029.88
1172.516, 11019.89
1172.998, 11031.96
1173.480, 11031.77
1173.962, 10997.35
1174.444, 10954.14
1174.926, 10926.20
1175.409, 10912.89
1175.891, 10915.86
1176.373, 10937.21
1176.855, 10942.89
1177.337, 10932.52
1177.819, 10923.87
1178.301, 10920.33
1178.783, 10920.08
1179.266, 10922.16
1179.748, 10931.70
1180.230, 10958.45
1180.712, 10987.48
1181.194, 10993.38
1181.676, 10985.26
1182.158, 10972.07
1182.640, 10960.13
1183.122, 10971.23
1183.604, 10995.44
1184.087, 10978.01
1184.569, 10891.47
1185.051, 10821.94
1185.533, 10813.37
1186.015, 10823.81
1186.497, 10854.48
1186.979, 10877.83
1187.461, 10870.11
1187.944, 10846.79
1188.426, 10830.50
1188.908, 10819.53
1189.390, 10800.15
1189.872, 10759.70
1190.354, 10760.57
1190.836, 10815.66
1191.318, 10855.36
1191.801, 10864.24
1192.283, 10855.09
1192.765, 10833.14
1193.247, 10812.66
1193.729, 10813.63
1194.211, 10825.88
1194.693, 10822.14
1195.175, 10810.25
1195.657, 10819.53
1196.140, 10837.80
1196.622, 10816.66
1197.104, 10759.03
1197.586, 10724.08
1198.068, 10738.88
1198.550, 10768.03
1199.032, 10811.04
1199.514, 10833.87
1199.996, 10797.89
1200.479, 10754.11
1200.961, 10736.77
1201.443, 10740.99
1201.925, 10766.34
1202.407, 10806.19
1202.889, 10817.48
1203.371, 10791.38
1203.853, 10762.96
1204.336, 10727.94
1204.818, 10706.80
1205.300, 10707.76
1205.782, 10700.91
1206.264, 10667.56
1206.746, 10636.97
1207.228, 10645.60
1207.710, 10679.24
1208.193, 10710.42
1208.675, 10734.38
1209.157, 10726.45
1209.639, 10700.95
1210.121, 10709.84
1210.603, 10748.97
1211.085, 10758.21
1211.567, 10713.08
1212.049, 10669.18
1212.531, 10661.90
1213.014, 10663.17
1213.496, 10660.26
1213.978, 10658.32
1214.460, 10662.18
1214.942, 10668.25
1215.424, 10675.16
1215.906, 10680.02
1216.388, 10672.82
1216.871, 10651.30
1217.353, 10629.79
1217.835, 10604.45
1218.317, 10598.46
1218.799, 10618.75
1219.281, 10629.38
1219.763, 10614.10
1220.245, 10604.66
1220.728, 10633.44
1221.210, 10671.18
1221.692, 10659.91
1222.174, 10623.82
1222.656, 10618.11
1223.138, 10624.37
1223.620, 10591.75
1224.102, 10535.00
1224.584, 10515.38
1225.067, 10545.53
1225.549, 10570.90
1226.031, 10565.76
1226.513, 10557.33
1226.995, 10549.32
1227.477, 10546.84
1227.959, 10558.44
1228.441, 10569.90
1228.923, 10572.39
1229.406, 10566.21
1229.888, 10549.05
1230.370, 10523.11
1230.852, 10518.95
1231.334, 10538.44
1231.816, 10527.94
1232.298, 10485.87
1232.780, 10450.32
1233.263, 10430.97
1233.745, 10416.48
##END=



