##NAMES=Talc
##RRUFFID=R050087
##IDEAL CHEMISTRY=Mg_3_Si_4_O_10_(OH)_2_
##LOCALITY=St. Lawrence County, New York, USA
##OWNER=RRUFF
##SOURCE=University of Arizona Mineral Museum
##DESCRIPTION=An aggregate of colorless foliated coarse single crystals
##STATUS=The identification of this mineral has been confirmed by X-ray diffraction and chemical analysis
##URL=rruff.info/R050087
##MEASURED CHEMISTRY=(Mg_.998_Fe_.002_)_3_(Si_.997_Al_.003_)_4_O_10_(OH_.966_F_.034_)_2_
135.4927, 1861.413
135.9748, 1866.388
136.4569, 1873.242
136.9390, 1883.356
137.4211, 1893.707
137.9033, 1902.049
138.3854, 1909.759
138.8675, 1921.310
139.3496, 1941.364
139.8317, 1970.129
140.3138, 1983.227
140.7960, 1960.131
141.2781, 1944.373
141.7602, 1958.049
142.2423, 1997.152
142.7244, 2042.987
143.2065, 2081.413
143.6887, 2112.218
144.1708, 2152.025
144.6529, 2196.566
145.1350, 2252.099
145.6171, 2325.124
146.0992, 2414.247
146.5814, 2510.117
147.0635, 2605.774
147.5456, 2701.553
148.0277, 2801.928
148.5098, 2911.801
148.9919, 3022.442
149.4741, 3131.473
149.9562, 3238.681
150.4383, 3335.738
150.9204, 3415.071
151.4025, 3476.477
151.8846, 3533.560
152.3668, 3606.443
152.8489, 3663.418
153.3310, 3673.132
153.8131, 3632.670
154.2952, 3564.979
154.7773, 3477.165
155.2595, 3373.671
155.7416, 3275.060
156.2237, 3179.518
156.7058, 3092.828
157.1879, 3024.805
157.6700, 2978.021
158.1522, 2936.114
158.6343, 2882.800
159.1164, 2824.554
159.5985, 2778.734
160.0806, 2750.633
160.5627, 2737.181
161.0449, 2737.466
161.5270, 2754.419
162.0091, 2774.026
162.4912, 2785.034
162.9733, 2791.477
163.4554, 2801.001
163.9376, 2817.143
164.4197, 2837.668
164.9018, 2858.855
165.3839, 2881.000
165.8660, 2902.839
166.3481, 2922.787
166.8303, 2941.950
167.3124, 2962.497
167.7945, 2988.191
168.2766, 3014.999
168.7587, 3032.815
169.2408, 3037.383
169.7230, 3042.738
170.2051, 3060.429
170.6872, 3083.247
171.1693, 3099.704
171.6514, 3103.730
172.1335, 3098.377
172.6157, 3089.531
173.0978, 3072.708
173.5799, 3061.848
174.0620, 3065.286
174.5441, 3077.325
175.0262, 3089.215
175.5084, 3093.489
175.9905, 3096.837
176.4726, 3119.461
176.9547, 3170.538
177.4368, 3225.054
177.9189, 3274.182
178.4010, 3320.014
178.8832, 3365.056
179.3653, 3410.811
179.8474, 3456.945
180.3295, 3502.342
180.8116, 3543.935
181.2937, 3590.697
181.7759, 3649.873
182.2580, 3713.721
182.7401, 3772.131
183.2222, 3819.752
183.7043, 3859.697
184.1864, 3898.370
184.6686, 3923.964
185.1507, 3970.522
185.6328, 4041.913
186.1149, 4136.319
186.5970, 4252.599
187.0791, 4390.890
187.5613, 4548.956
188.0434, 4720.115
188.5255, 4878.917
189.0076, 5100.084
189.4897, 5373.656
189.9718, 5713.187
190.4540, 6134.139
190.9361, 6640.394
191.4182, 7234.337
191.9003, 7945.648
192.3824, 8923.033
192.8645, 9749.989
193.3467, 10561.28
193.8288, 11130.62
194.3109, 11208.28
194.7930, 10691.74
195.2751, 9747.346
195.7572, 8698.012
196.2394, 7379.286
196.7215, 6261.689
197.2036, 5384.412
197.6857, 4702.180
198.1678, 4203.922
198.6499, 3880.007
199.1321, 3683.347
199.6142, 3533.909
200.0963, 3447.829
200.5784, 3380.958
201.0605, 3329.643
201.5426, 3291.139
202.0248, 3267.835
202.5069, 3259.045
202.9890, 3256.119
203.4711, 3243.766
203.9532, 3213.093
204.4353, 3193.509
204.9175, 3194.570
205.3996, 3199.595
205.8817, 3197.030
206.3638, 3184.759
206.8459, 3168.876
207.3280, 3157.670
207.8102, 3153.339
208.2923, 3148.458
208.7744, 3147.466
209.2565, 3142.666
209.7386, 3125.331
210.2207, 3096.915
210.7029, 3069.245
211.1850, 3057.331
211.6671, 3066.631
212.1492, 3072.029
212.6313, 3065.448
213.1134, 3062.009
213.5956, 3073.152
214.0777, 3096.225
214.5598, 3118.230
215.0419, 3125.533
215.5240, 3115.535
216.0061, 3107.773
216.4883, 3097.313
216.9704, 3093.541
217.4525, 3106.289
217.9346, 3130.116
218.4167, 3149.939
218.8988, 3151.734
219.3810, 3134.789
219.8631, 3125.741
220.3452, 3135.753
220.8273, 3143.137
221.3094, 3137.226
221.7915, 3124.169
222.2737, 3116.909
222.7558, 3125.079
223.2379, 3147.285
223.7200, 3167.746
224.2021, 3186.222
224.6842, 3203.020
225.1664, 3220.919
225.6485, 3236.741
226.1306, 3243.684
226.6127, 3236.226
227.0948, 3220.551
227.5770, 3224.079
228.0591, 3272.666
228.5412, 3305.591
229.0233, 3301.168
229.5054, 3280.793
229.9875, 3273.082
230.4697, 3291.718
230.9518, 3318.997
231.4339, 3307.468
231.9160, 3221.879
232.3981, 3157.784
232.8802, 3136.837
233.3624, 3134.116
233.8445, 3128.034
234.3266, 3111.526
234.8087, 3091.771
235.2908, 3081.463
235.7729, 3084.252
236.2551, 3088.159
236.7372, 3091.375
237.2193, 3095.729
237.7014, 3104.750
238.1835, 3118.111
238.6656, 3129.551
239.1478, 3130.449
239.6299, 3117.865
240.1120, 3105.441
240.5941, 3083.380
241.0762, 3069.960
241.5583, 3082.413
242.0405, 3116.217
242.5226, 3147.352
243.0047, 3149.966
243.4868, 3121.060
243.9689, 3099.495
244.4510, 3088.922
244.9332, 3082.851
245.4153, 3080.098
245.8974, 3080.000
246.3795, 3081.583
246.8616, 3084.295
247.3437, 3088.123
247.8259, 3093.171
248.3080, 3103.244
248.7901, 3109.118
249.2722, 3106.831
249.7543, 3098.856
250.2364, 3089.120
250.7186, 3079.467
251.2007, 3069.623
251.6828, 3057.922
252.1649, 3041.114
252.6470, 3029.291
253.1291, 3028.011
253.6113, 3031.786
254.0934, 3034.654
254.5755, 3034.173
255.0576, 3033.168
255.5397, 3037.044
256.0219, 3047.634
256.5040, 3056.086
256.9861, 3060.949
257.4682, 3061.985
257.9503, 3054.789
258.4324, 3037.932
258.9146, 3026.100
259.3967, 3042.600
259.8788, 3089.499
260.3609, 3115.993
260.8430, 3097.793
261.3251, 3068.427
261.8073, 3050.339
262.2894, 3044.466
262.7715, 3043.844
263.2536, 3044.271
263.7357, 3045.930
264.2178, 3050.184
264.7000, 3058.536
265.1821, 3067.466
265.6642, 3075.333
266.1463, 3081.915
266.6284, 3086.103
267.1105, 3090.094
267.5927, 3090.859
268.0748, 3077.910
268.5569, 3045.115
269.0390, 3017.944
269.5211, 3020.826
270.0032, 3040.966
270.4854, 3057.800
270.9675, 3063.183
271.4496, 3065.457
271.9317, 3073.961
272.4138, 3088.854
272.8959, 3105.455
273.3781, 3121.592
273.8602, 3138.076
274.3423, 3156.615
274.8244, 3179.341
275.3065, 3200.445
275.7886, 3214.044
276.2708, 3222.124
276.7529, 3233.978
277.2350, 3255.327
277.7171, 3278.490
278.1992, 3286.533
278.6813, 3273.194
279.1635, 3274.994
279.6456, 3318.694
280.1277, 3383.088
280.6098, 3429.929
281.0919, 3449.481
281.5740, 3459.916
282.0562, 3480.743
282.5383, 3511.990
283.0204, 3551.856
283.5025, 3603.437
283.9846, 3661.520
284.4667, 3715.057
284.9489, 3765.414
285.4310, 3835.451
285.9131, 3946.033
286.3952, 4097.449
286.8773, 4249.795
287.3594, 4403.828
287.8416, 4558.131
288.3237, 4739.416
288.8058, 4923.687
289.2879, 5052.082
289.7700, 5094.277
290.2521, 5052.993
290.7343, 4933.249
291.2164, 4679.021
291.6985, 4421.690
292.1806, 4163.053
292.6627, 3918.042
293.1448, 3702.295
293.6270, 3521.517
294.1091, 3375.663
294.5912, 3266.802
295.0733, 3210.241
295.5554, 3165.723
296.0375, 3137.909
296.5197, 3117.986
297.0018, 3100.611
297.4839, 3084.791
297.9660, 3072.269
298.4481, 3065.076
298.9302, 3063.910
299.4124, 3063.329
299.8945, 3057.304
300.3766, 3057.797
300.8587, 3074.907
301.3408, 3101.833
301.8229, 3124.530
302.3050, 3133.768
302.7871, 3131.375
303.2693, 3126.436
303.7514, 3117.609
304.2335, 3107.997
304.7156, 3102.360
305.1977, 3094.655
305.6798, 3074.878
306.1620, 3038.778
306.6441, 3000.484
307.1262, 2986.902
307.6083, 3007.402
308.0904, 3017.831
308.5725, 2997.822
309.0547, 2974.066
309.5368, 2962.862
310.0189, 2965.340
310.5010, 2971.071
310.9831, 2969.768
311.4652, 2962.514
311.9474, 2962.233
312.4295, 2974.923
312.9116, 2987.322
313.3937, 2989.371
313.8758, 2984.577
314.3579, 2982.050
314.8401, 2986.972
315.3222, 2996.193
315.8043, 3003.804
316.2864, 3009.205
316.7685, 3016.470
317.2506, 3028.295
317.7328, 3043.280
318.2149, 3059.780
318.6970, 3080.272
319.1791, 3097.394
319.6612, 3102.646
320.1433, 3098.729
320.6255, 3095.846
321.1076, 3093.401
321.5897, 3099.941
322.0718, 3138.480
322.5539, 3217.098
323.0360, 3272.639
323.5182, 3259.183
324.0003, 3224.800
324.4824, 3239.749
324.9645, 3315.632
325.4466, 3399.127
325.9287, 3436.412
326.4109, 3421.538
326.8930, 3430.148
327.3751, 3473.348
327.8572, 3528.752
328.3393, 3585.127
328.8214, 3643.369
329.3036, 3710.719
329.7857, 3793.708
330.2678, 3885.858
330.7499, 3955.048
331.2320, 4000.137
331.7141, 4023.605
332.1963, 4018.341
332.6784, 3994.942
333.1605, 3961.484
333.6426, 3921.387
334.1247, 3878.757
334.6068, 3840.205
335.0890, 3810.336
335.5711, 3772.119
336.0532, 3718.142
336.5353, 3663.493
337.0174, 3612.745
337.4995, 3568.065
337.9817, 3531.968
338.4638, 3507.415
338.9459, 3493.554
339.4280, 3482.840
339.9101, 3475.877
340.3922, 3471.625
340.8744, 3460.703
341.3565, 3454.984
341.8386, 3472.403
342.3207, 3522.253
342.8028, 3585.120
343.2849, 3627.509
343.7671, 3644.062
344.2492, 3678.986
344.7313, 3746.908
345.2134, 3835.599
345.6955, 3940.541
346.1776, 4060.870
346.6598, 4179.852
347.1419, 4290.689
347.6240, 4392.030
348.1061, 4477.919
348.5882, 4543.685
349.0703, 4606.958
349.5525, 4678.779
350.0346, 4758.988
350.5167, 4848.564
350.9988, 4941.913
351.4809, 5049.775
351.9630, 5181.126
352.4452, 5335.257
352.9273, 5509.344
353.4094, 5704.222
353.8915, 5915.710
354.3736, 6133.469
354.8557, 6346.147
355.3379, 6583.389
355.8200, 6855.054
356.3021, 7152.975
356.7842, 7465.499
357.2663, 7791.202
357.7484, 8130.122
358.2306, 8486.291
358.7127, 8868.835
359.1948, 9219.477
359.6769, 9559.469
360.1590, 9851.378
360.6411, 10095.89
361.1233, 10278.51
361.6054, 10378.99
362.0875, 10388.04
362.5696, 10298.23
363.0517, 10078.28
363.5338, 9666.776
364.0160, 9213.309
364.4981, 8722.278
364.9802, 8211.354
365.4623, 7678.780
365.9444, 7132.402
366.4265, 6606.944
366.9087, 6143.312
367.3908, 5738.867
367.8729, 5382.643
368.3550, 5078.657
368.8371, 4821.540
369.3192, 4614.745
369.8014, 4446.869
370.2835, 4292.133
370.7656, 4133.083
371.2477, 3984.368
371.7298, 3875.828
372.2119, 3810.497
372.6941, 3757.646
373.1762, 3706.723
373.6583, 3661.048
374.1404, 3622.735
374.6225, 3589.828
375.1046, 3571.727
375.5868, 3583.302
376.0689, 3611.644
376.5510, 3631.622
377.0331, 3638.035
377.5152, 3636.906
377.9973, 3634.707
378.4795, 3631.475
378.9616, 3619.325
379.4437, 3594.593
379.9258, 3564.144
380.4079, 3528.227
380.8900, 3489.723
381.3722, 3456.858
381.8543, 3434.812
382.3364, 3418.821
382.8185, 3393.764
383.3006, 3343.825
383.7827, 3305.969
384.2649, 3294.001
384.7470, 3285.858
385.2291, 3260.940
385.7112, 3217.684
386.1933, 3171.432
386.6754, 3138.780
387.1576, 3120.729
387.6397, 3099.247
388.1218, 3068.386
388.6039, 3040.905
389.0860, 3021.955
389.5681, 3008.751
390.0503, 2996.898
390.5324, 2984.214
391.0145, 2972.560
391.4966, 2966.356
391.9787, 2966.630
392.4608, 2962.562
392.9430, 2948.925
393.4251, 2931.832
393.9072, 2915.646
394.3893, 2900.507
394.8714, 2890.281
395.3535, 2889.841
395.8357, 2894.491
396.3178, 2895.478
396.7999, 2891.743
397.2820, 2890.598
397.7641, 2899.930
398.2462, 2916.145
398.7284, 2921.018
399.2105, 2905.692
399.6926, 2889.229
400.1747, 2878.742
400.6568, 2872.023
401.1389, 2865.309
401.6211, 2857.321
402.1032, 2849.155
402.5853, 2841.704
403.0674, 2832.455
403.5495, 2832.629
404.0316, 2853.642
404.5138, 2872.164
404.9959, 2873.794
405.4780, 2862.750
405.9601, 2852.072
406.4422, 2850.560
406.9243, 2854.297
407.4065, 2848.455
407.8886, 2826.330
408.3707, 2808.421
408.8528, 2798.938
409.3349, 2794.556
409.8170, 2793.461
410.2992, 2795.174
410.7813, 2798.782
411.2634, 2805.382
411.7455, 2813.784
412.2276, 2817.645
412.7097, 2816.284
413.1919, 2810.948
413.6740, 2791.770
414.1561, 2769.904
414.6382, 2771.239
415.1203, 2817.426
415.6024, 2867.435
416.0846, 2888.167
416.5667, 2887.868
417.0488, 2891.172
417.5309, 2905.978
418.0130, 2929.110
418.4951, 2957.272
418.9773, 2993.433
419.4594, 3023.943
419.9415, 3044.053
420.4236, 3061.658
420.9057, 3082.802
421.3878, 3106.470
421.8700, 3126.972
422.3521, 3139.949
422.8342, 3148.715
423.3163, 3167.516
423.7984, 3200.708
424.2805, 3238.028
424.7627, 3274.017
425.2448, 3316.121
425.7269, 3371.660
426.2090, 3441.067
426.6911, 3516.773
427.1732, 3588.995
427.6554, 3659.642
428.1375, 3745.259
428.6196, 3848.851
429.1017, 3961.778
429.5838, 4086.317
430.0659, 4215.895
430.5481, 4342.833
431.0302, 4472.219
431.5123, 4583.828
431.9944, 4672.887
432.4765, 4732.316
432.9586, 4735.320
433.4408, 4673.090
433.9229, 4558.395
434.4050, 4393.161
434.8871, 4171.682
435.3692, 3966.874
435.8513, 3780.547
436.3335, 3614.494
436.8156, 3470.175
437.2977, 3346.624
437.7798, 3240.280
438.2619, 3149.598
438.7440, 3074.122
439.2262, 3014.193
439.7083, 2979.913
440.1904, 2943.988
440.6725, 2894.936
441.1546, 2852.666
441.6367, 2834.823
442.1189, 2837.257
442.6010, 2839.753
443.0831, 2825.436
443.5652, 2800.061
444.0473, 2786.825
444.5294, 2789.599
445.0116, 2793.641
445.4937, 2790.266
445.9758, 2787.147
446.4579, 2794.992
446.9400, 2817.156
447.4221, 2833.627
447.9043, 2825.496
448.3864, 2804.271
448.8685, 2793.599
449.3506, 2796.779
449.8327, 2807.911
450.3148, 2825.630
450.7970, 2848.283
451.2791, 2860.586
451.7612, 2855.491
452.2433, 2849.129
452.7254, 2843.184
453.2076, 2840.424
453.6897, 2847.575
454.1718, 2865.625
454.6539, 2883.927
455.1360, 2888.138
455.6181, 2875.634
456.1003, 2863.922
456.5824, 2849.338
457.0645, 2839.642
457.5466, 2838.359
458.0287, 2843.350
458.5108, 2850.435
458.9930, 2857.367
459.4751, 2868.288
459.9572, 2892.401
460.4393, 2929.896
460.9214, 2960.496
461.4035, 2975.038
461.8857, 2988.911
462.3678, 3013.497
462.8499, 3048.353
463.3320, 3093.969
463.8141, 3160.969
464.2962, 3230.815
464.7784, 3282.823
465.2605, 3321.979
465.7426, 3371.706
466.2247, 3444.495
466.7068, 3524.967
467.1889, 3583.577
467.6711, 3622.461
468.1532, 3630.261
468.6353, 3599.491
469.1174, 3544.992
469.5995, 3465.786
470.0816, 3370.385
470.5638, 3277.107
471.0459, 3196.900
471.5280, 3126.859
472.0101, 3055.978
472.4922, 2981.614
472.9743, 2914.930
473.4565, 2859.319
473.9386, 2812.167
474.4207, 2772.406
474.9028, 2740.084
475.3849, 2715.571
475.8670, 2701.428
476.3492, 2694.321
476.8313, 2690.680
477.3134, 2690.461
477.7955, 2686.233
478.2776, 2673.143
478.7597, 2654.648
479.2419, 2638.543
479.7240, 2624.218
480.2061, 2613.358
480.6882, 2607.289
481.1703, 2604.156
481.6524, 2603.823
482.1346, 2605.236
482.6167, 2605.170
483.0988, 2601.219
483.5809, 2593.760
484.0630, 2584.287
484.5451, 2568.018
485.0273, 2557.887
485.5094, 2559.029
485.9915, 2563.869
486.4736, 2564.764
486.9557, 2561.828
487.4378, 2563.405
487.9200, 2583.965
488.4021, 2613.703
488.8842, 2617.080
489.3663, 2587.869
489.8484, 2567.793
490.3305, 2585.281
490.8127, 2621.501
491.2948, 2636.071
491.7769, 2622.287
492.2590, 2606.894
492.7411, 2592.569
493.2232, 2584.892
493.7054, 2595.633
494.1875, 2622.764
494.6696, 2645.560
495.1517, 2645.633
495.6338, 2629.549
496.1159, 2641.357
496.5981, 2722.387
497.0802, 2772.732
497.5623, 2762.087
498.0444, 2732.732
498.5265, 2717.655
499.0086, 2721.256
499.4908, 2729.972
499.9729, 2731.748
500.4550, 2729.735
500.9371, 2736.026
501.4192, 2751.547
501.9013, 2771.721
502.3835, 2795.853
502.8656, 2823.106
503.3477, 2852.336
503.8298, 2884.341
504.3119, 2914.387
504.7940, 2947.089
505.2762, 2973.153
505.7583, 2978.339
506.2404, 2963.715
506.7225, 2942.727
507.2046, 2923.064
507.6867, 2905.880
508.1689, 2896.969
508.6510, 2913.670
509.1331, 2912.548
509.6152, 2880.117
510.0973, 2838.650
510.5794, 2799.590
511.0616, 2766.564
511.5437, 2743.169
512.0258, 2733.772
512.5079, 2734.732
512.9901, 2736.732
513.4722, 2739.847
513.9543, 2743.514
514.4364, 2747.739
514.9185, 2752.275
515.4006, 2757.747
515.8828, 2764.556
516.3649, 2767.542
516.8470, 2764.614
517.3291, 2757.609
517.8112, 2746.228
518.2933, 2731.900
518.7755, 2720.274
519.2576, 2715.107
519.7397, 2711.163
520.2218, 2695.543
520.7039, 2661.047
521.1860, 2628.189
521.6682, 2594.549
522.1503, 2564.626
522.6324, 2541.222
523.1145, 2523.462
523.5966, 2509.349
524.0787, 2498.114
524.5609, 2489.096
525.0430, 2483.416
525.5251, 2481.012
526.0072, 2470.643
526.4893, 2445.271
526.9714, 2418.208
527.4536, 2404.174
527.9357, 2401.708
528.4178, 2401.687
528.8999, 2401.329
529.3820, 2404.615
529.8641, 2422.077
530.3463, 2443.358
530.8284, 2445.374
531.3105, 2420.761
531.7926, 2387.728
532.2747, 2372.121
532.7568, 2377.587
533.2390, 2377.302
533.7211, 2362.612
534.2032, 2352.120
534.6853, 2354.287
535.1674, 2362.836
535.6495, 2370.649
536.1317, 2376.255
536.6138, 2375.747
537.0959, 2359.868
537.5780, 2334.761
538.0601, 2322.627
538.5422, 2327.729
539.0244, 2332.972
539.5065, 2325.005
539.9886, 2307.316
540.4707, 2297.620
540.9528, 2303.692
541.4349, 2306.054
541.9171, 2296.796
542.3992, 2284.664
542.8813, 2277.782
543.3634, 2276.899
543.8455, 2278.462
544.3276, 2279.956
544.8098, 2281.288
545.2919, 2282.220
545.7740, 2283.214
546.2561, 2282.553
546.7382, 2279.482
547.2203, 2274.733
547.7025, 2265.923
548.1846, 2254.124
548.6666, 2249.686
549.1487, 2265.882
549.6309, 2285.571
550.1130, 2289.810
550.5951, 2280.524
551.0772, 2265.812
551.5593, 2247.611
552.0414, 2231.578
552.5236, 2227.386
553.0057, 2239.343
553.4878, 2248.765
553.9699, 2260.216
554.4520, 2264.748
554.9341, 2249.519
555.4163, 2227.864
555.8984, 2222.245
556.3805, 2241.245
556.8626, 2267.302
557.3447, 2281.074
557.8268, 2283.294
558.3090, 2277.602
558.7911, 2260.466
559.2732, 2247.833
559.7553, 2253.155
560.2374, 2270.907
560.7195, 2282.673
561.2017, 2288.940
561.6838, 2288.200
562.1659, 2271.881
562.6480, 2253.244
563.1301, 2247.611
563.6122, 2255.098
564.0944, 2266.063
564.5765, 2274.610
565.0586, 2279.225
565.5407, 2272.099
566.0228, 2244.985
566.5049, 2227.015
566.9871, 2231.451
567.4692, 2240.043
567.9513, 2242.073
568.4334, 2238.079
568.9155, 2233.379
569.3976, 2228.658
569.8798, 2225.581
570.3619, 2227.067
570.8440, 2231.744
571.3261, 2235.008
571.8082, 2235.439
572.2903, 2234.223
572.7725, 2232.700
573.2546, 2230.872
573.7367, 2228.629
574.2188, 2222.922
574.7009, 2220.424
575.1830, 2224.182
575.6652, 2231.291
576.1473, 2241.167
576.6294, 2252.643
577.1115, 2258.077
577.5936, 2242.767
578.0757, 2215.955
578.5579, 2213.002
579.0400, 2237.541
579.5221, 2257.861
580.0042, 2258.514
580.4863, 2247.427
580.9684, 2238.505
581.4506, 2230.960
581.9327, 2227.706
582.4148, 2230.696
582.8969, 2236.747
583.3790, 2248.175
583.8611, 2260.413
584.3433, 2262.197
584.8254, 2248.195
585.3075, 2231.107
585.7896, 2234.345
586.2717, 2260.595
586.7538, 2275.351
587.2360, 2274.325
587.7181, 2266.116
588.2002, 2247.707
588.6823, 2227.451
589.1644, 2221.566
589.6465, 2239.463
590.1287, 2252.339
590.6108, 2237.819
591.0929, 2215.093
591.5750, 2210.104
592.0571, 2223.152
592.5392, 2238.409
593.0214, 2245.446
593.5035, 2247.116
593.9856, 2254.048
594.4677, 2275.429
594.9498, 2280.120
595.4319, 2235.042
595.9141, 2200.696
596.3962, 2222.831
596.8783, 2279.713
597.3604, 2313.025
597.8425, 2292.666
598.3246, 2258.811
598.8068, 2244.268
599.2889, 2244.808
599.7710, 2252.496
600.2531, 2265.867
600.7352, 2275.317
601.2173, 2271.732
601.6995, 2257.043
602.1816, 2246.959
602.6637, 2240.830
603.1458, 2240.704
603.6279, 2251.915
604.1100, 2264.995
604.5922, 2273.741
605.0743, 2277.722
605.5564, 2278.649
606.0385, 2276.233
606.5206, 2273.064
607.0027, 2274.134
607.4849, 2278.661
607.9670, 2279.567
608.4491, 2274.075
608.9312, 2268.779
609.4133, 2271.478
609.8954, 2282.207
610.3776, 2286.027
610.8597, 2274.273
611.3418, 2267.243
611.8239, 2275.749
612.3060, 2287.366
612.7881, 2289.909
613.2703, 2282.008
613.7524, 2268.521
614.2345, 2248.769
614.7166, 2229.621
615.1987, 2232.366
615.6808, 2258.268
616.1630, 2277.238
616.6451, 2279.148
617.1272, 2273.582
617.6093, 2269.212
618.0914, 2266.066
618.5735, 2268.174
619.0557, 2283.461
619.5378, 2295.042
620.0199, 2293.607
620.5020, 2286.176
620.9841, 2281.799
621.4662, 2282.052
621.9484, 2281.949
622.4305, 2274.938
622.9126, 2264.859
623.3947, 2270.008
623.8768, 2294.282
624.3589, 2310.298
624.8411, 2305.185
625.3232, 2293.607
625.8053, 2292.636
626.2874, 2301.587
626.7695, 2312.721
627.2516, 2331.299
627.7338, 2344.983
628.2159, 2344.441
628.6980, 2336.207
629.1801, 2328.227
629.6622, 2323.192
630.1443, 2322.635
630.6265, 2329.864
631.1086, 2342.594
631.5907, 2346.827
632.0728, 2339.694
632.5549, 2335.553
633.0370, 2341.305
633.5192, 2349.391
634.0013, 2348.318
634.4834, 2338.895
634.9655, 2340.028
635.4476, 2373.505
635.9297, 2399.460
636.4119, 2384.191
636.8940, 2350.898
637.3761, 2337.377
637.8582, 2351.762
638.3403, 2374.699
638.8224, 2387.779
639.3046, 2392.476
639.7867, 2397.051
640.2688, 2401.115
640.7509, 2406.462
641.2330, 2413.534
641.7151, 2422.184
642.1973, 2433.413
642.6794, 2446.855
643.1615, 2457.403
643.6436, 2463.203
644.1257, 2466.714
644.6078, 2464.901
645.0900, 2463.406
645.5721, 2472.411
646.0542, 2492.991
646.5363, 2515.837
647.0184, 2532.819
647.5005, 2544.428
647.9827, 2551.097
648.4648, 2549.775
648.9469, 2555.709
649.4290, 2574.184
649.9111, 2599.826
650.3932, 2630.101
650.8754, 2663.980
651.3575, 2694.763
651.8396, 2718.769
652.3217, 2742.499
652.8038, 2771.757
653.2859, 2801.383
653.7681, 2818.874
654.2502, 2826.056
654.7323, 2843.553
655.2144, 2889.283
655.6965, 2956.268
656.1786, 3021.837
656.6608, 3085.774
657.1429, 3148.552
657.6250, 3203.941
658.1071, 3266.716
658.5892, 3354.301
659.0714, 3461.765
659.5535, 3566.645
660.0356, 3653.826
660.5177, 3754.859
660.9998, 3883.805
661.4819, 4029.684
661.9641, 4177.666
662.4462, 4329.897
662.9283, 4503.845
663.4104, 4711.210
663.8925, 4947.807
664.3746, 5207.306
664.8568, 5489.930
665.3389, 5786.337
665.8210, 6092.853
666.3031, 6421.388
666.7852, 6778.349
667.2673, 7165.291
667.7495, 7587.278
668.2316, 8046.734
668.7137, 8534.012
669.1958, 9061.188
669.6779, 9603.032
670.1600, 10137.64
670.6422, 10674.25
671.1243, 11245.55
671.6064, 11874.61
672.0885, 12516.40
672.5706, 13109.89
673.0527, 13662.11
673.5349, 14236.29
674.0170, 14860.75
674.4991, 15390.86
674.9812, 15747.34
675.4633, 15948.25
675.9454, 16041.64
676.4276, 16084.36
676.9097, 15885.72
677.3918, 15311.38
677.8739, 14625.14
678.3560, 13947.02
678.8381, 13262.55
679.3203, 12520.39
679.8024, 11705.69
680.2845, 10879.30
680.7666, 10089.49
681.2487, 9340.279
681.7308, 8640.682
682.2130, 7994.171
682.6951, 7408.204
683.1772, 6886.608
683.6593, 6425.806
684.1414, 6018.130
684.6235, 5668.565
685.1057, 5352.567
685.5878, 5071.567
686.0699, 4819.153
686.5520, 4605.540
687.0341, 4412.615
687.5162, 4217.473
687.9984, 4018.882
688.4805, 3845.252
688.9626, 3720.385
689.4447, 3622.533
689.9268, 3532.393
690.4089, 3448.588
690.8911, 3367.942
691.3732, 3289.578
691.8553, 3213.833
692.3374, 3140.935
692.8195, 3071.279
693.3016, 3011.105
693.7838, 2968.423
694.2659, 2917.020
694.7480, 2834.078
695.2301, 2757.170
695.7122, 2714.235
696.1943, 2699.250
696.6765, 2688.807
697.1586, 2684.684
697.6407, 2672.572
698.1228, 2638.798
698.6049, 2596.216
699.0870, 2559.895
699.5692, 2531.274
700.0513, 2505.342
700.5334, 2478.815
701.0155, 2453.444
701.4976, 2434.642
701.9797, 2422.966
702.4619, 2404.812
702.9440, 2376.957
703.4261, 2347.257
703.9082, 2315.134
704.3903, 2286.520
704.8724, 2277.729
705.3546, 2299.947
705.8367, 2308.491
706.3188, 2287.034
706.8009, 2260.513
707.2830, 2238.245
707.7651, 2223.125
708.2473, 2221.131
708.7294, 2233.168
709.2115, 2244.782
709.6936, 2241.548
710.1757, 2227.677
710.6578, 2211.727
711.1400, 2194.180
711.6221, 2181.579
712.1042, 2177.157
712.5863, 2174.465
713.0684, 2164.598
713.5505, 2146.865
714.0327, 2136.771
714.5148, 2141.720
714.9969, 2144.350
715.4790, 2141.613
715.9611, 2135.867
716.4432, 2128.882
716.9254, 2120.720
717.4075, 2110.056
717.8896, 2089.973
718.3717, 2076.447
718.8538, 2091.044
719.3359, 2117.386
719.8181, 2126.195
720.3002, 2115.207
720.7823, 2100.795
721.2644, 2093.881
721.7465, 2090.997
722.2286, 2081.876
722.7108, 2064.034
723.1929, 2059.353
723.6750, 2079.720
724.1571, 2092.722
724.6392, 2069.950
725.1213, 2031.662
725.6035, 2021.274
726.0856, 2048.982
726.5677, 2069.519
727.0498, 2073.049
727.5319, 2068.936
728.0140, 2058.320
728.4962, 2045.551
728.9783, 2036.687
729.4604, 2033.274
729.9425, 2032.197
730.4246, 2032.391
730.9067, 2032.246
731.3889, 2025.972
731.8710, 2014.641
732.3531, 2009.490
732.8352, 2014.534
733.3173, 2021.527
733.7994, 2021.807
734.2816, 2016.012
734.7637, 2012.859
735.2458, 2016.960
735.7279, 2015.865
736.2100, 2002.720
736.6921, 1989.217
737.1743, 1983.987
737.6564, 1984.154
738.1385, 1980.339
738.6206, 1966.416
739.1027, 1957.056
739.5848, 1965.459
740.0670, 1979.515
740.5491, 1984.135
741.0312, 1980.996
741.5133, 1981.193
741.9954, 1989.955
742.4775, 1999.654
742.9597, 1997.535
743.4418, 1984.785
743.9239, 1978.032
744.4060, 1977.854
744.8881, 1982.207
745.3702, 1992.897
745.8524, 2003.954
746.3345, 2007.147
746.8166, 2001.714
747.2987, 1995.003
747.7808, 1980.571
748.2629, 1973.166
748.7451, 1982.544
749.2272, 1995.680
749.7093, 2000.759
750.1914, 1998.178
750.6735, 1995.512
751.1556, 1997.271
751.6378, 1998.374
752.1199, 1992.986
752.6020, 1984.014
753.0841, 1976.624
753.5662, 1971.466
754.0483, 1968.043
754.5305, 1966.383
755.0126, 1964.197
755.4947, 1955.677
755.9768, 1939.606
756.4589, 1928.464
756.9410, 1922.114
757.4232, 1922.050
757.9053, 1933.985
758.3874, 1948.810
758.8695, 1951.552
759.3516, 1941.195
759.8337, 1932.212
760.3159, 1925.547
760.7980, 1920.667
761.2801, 1916.936
761.7622, 1915.167
762.2443, 1916.704
762.7264, 1921.248
763.2086, 1927.066
763.6907, 1934.328
764.1728, 1940.364
764.6549, 1940.725
765.1370, 1937.707
765.6191, 1938.674
766.1013, 1943.790
766.5834, 1942.802
767.0655, 1928.006
767.5476, 1909.616
768.0297, 1913.345
768.5118, 1945.479
768.9940, 1959.738
769.4761, 1945.117
769.9582, 1934.703
770.4403, 1944.282
770.9224, 1964.928
771.4045, 1986.186
771.8867, 2008.748
772.3688, 2022.934
772.8509, 2018.061
773.3330, 2015.941
773.8151, 2029.224
774.2972, 2046.673
774.7794, 2051.974
775.2615, 2047.891
775.7436, 2054.932
776.2257, 2088.077
776.7078, 2128.934
777.1899, 2154.305
777.6721, 2172.269
778.1542, 2202.979
778.6363, 2247.381
779.1184, 2292.179
779.6005, 2329.385
780.0826, 2365.046
780.5648, 2410.242
781.0469, 2465.439
781.5290, 2525.914
782.0111, 2595.396
782.4932, 2660.467
782.9753, 2713.016
783.4575, 2761.346
783.9396, 2819.393
784.4217, 2887.708
784.9038, 2940.064
785.3859, 2971.331
785.8680, 2991.464
786.3502, 3001.073
786.8323, 3002.230
787.3144, 2994.755
787.7965, 2980.381
788.2786, 2961.508
788.7607, 2935.226
789.2429, 2917.459
789.7250, 2931.950
790.2071, 2958.222
790.6892, 2960.979
791.1713, 2942.936
791.6534, 2932.107
792.1356, 2940.504
792.6177, 2943.725
793.0998, 2904.753
793.5819, 2828.474
794.0640, 2764.669
794.5461, 2715.526
795.0283, 2663.791
795.5104, 2604.872
795.9925, 2540.564
796.4746, 2469.157
796.9567, 2392.332
797.4388, 2330.860
797.9210, 2303.458
798.4031, 2264.938
798.8852, 2199.078
799.3673, 2135.767
799.8494, 2091.808
800.3315, 2062.918
800.8137, 2040.103
801.2958, 2022.285
801.7779, 2004.580
802.2600, 1981.684
802.7421, 1960.360
803.2242, 1946.921
803.7064, 1939.614
804.1885, 1936.110
804.6706, 1934.951
805.1527, 1932.287
805.6348, 1925.598
806.1169, 1914.283
806.5991, 1892.800
807.0812, 1863.585
807.5633, 1847.889
808.0454, 1850.060
808.5275, 1852.422
809.0096, 1842.054
809.4918, 1826.427
809.9739, 1826.373
810.4560, 1850.069
810.9381, 1858.963
811.4202, 1846.089
811.9023, 1829.673
812.3845, 1811.420
812.8666, 1796.669
813.3487, 1793.528
813.8308, 1801.956
814.3129, 1808.077
814.7950, 1804.567
815.2772, 1805.220
815.7593, 1822.850
816.2414, 1840.340
816.7235, 1841.235
817.2056, 1827.676
817.6877, 1809.366
818.1699, 1788.053
818.6520, 1774.003
819.1341, 1783.953
819.6162, 1802.096
820.0983, 1801.503
820.5804, 1786.032
821.0626, 1775.504
821.5447, 1776.801
822.0268, 1781.222
822.5089, 1778.648
822.9910, 1771.440
823.4731, 1770.849
823.9553, 1777.353
824.4374, 1780.106
824.9195, 1776.296
825.4016, 1770.612
825.8837, 1766.229
826.3658, 1762.940
826.8480, 1760.082
827.3301, 1757.351
827.8122, 1755.666
828.2943, 1750.796
828.7764, 1752.326
829.2585, 1771.078
829.7407, 1793.593
830.2228, 1805.657
830.7049, 1806.275
831.1870, 1795.443
831.6691, 1755.207
832.1512, 1725.464
832.6334, 1729.007
833.1155, 1747.260
833.5976, 1768.605
834.0797, 1786.594
834.5618, 1788.378
835.0439, 1765.094
835.5261, 1742.255
836.0082, 1749.963
836.4903, 1769.970
836.9724, 1769.930
837.4545, 1753.923
837.9366, 1745.194
838.4188, 1751.112
838.9009, 1756.545
839.3830, 1743.421
839.8651, 1718.934
840.3472, 1711.278
840.8293, 1720.831
841.3115, 1727.667
841.7936, 1728.202
842.2757, 1725.607
842.7578, 1720.513
843.2399, 1715.793
843.7220, 1719.930
844.2042, 1739.071
844.6863, 1746.106
845.1684, 1732.856
845.6505, 1719.696
846.1326, 1710.305
846.6147, 1706.308
847.0969, 1710.722
847.5790, 1722.995
848.0611, 1736.217
848.5432, 1758.979
849.0253, 1769.749
849.5074, 1753.932
849.9896, 1731.796
850.4717, 1713.693
850.9538, 1703.038
851.4359, 1706.198
851.9180, 1726.111
852.4001, 1744.068
852.8823, 1748.134
853.3644, 1743.956
853.8465, 1734.896
854.3286, 1723.095
854.8107, 1710.118
855.2928, 1697.634
855.7750, 1692.181
856.2571, 1700.050
856.7392, 1713.335
857.2213, 1718.729
857.7034, 1717.332
858.1855, 1712.883
858.6677, 1705.943
859.1498, 1699.598
859.6319, 1694.770
860.1140, 1695.098
860.5961, 1708.656
861.0782, 1734.298
861.5604, 1739.424
862.0425, 1716.726
862.5246, 1703.199
863.0067, 1712.301
863.4888, 1721.376
863.9709, 1709.064
864.4531, 1683.528
864.9352, 1675.016
865.4173, 1695.145
865.8994, 1708.033
866.3815, 1712.824
866.8636, 1711.809
867.3458, 1697.704
867.8279, 1683.326
868.3100, 1688.225
868.7921, 1711.178
869.2742, 1720.556
869.7563, 1691.339
870.2385, 1669.166
870.7206, 1678.762
871.2027, 1696.777
871.6848, 1702.469
872.1669, 1699.042
872.6490, 1699.143
873.1312, 1707.153
873.6133, 1714.482
874.0954, 1715.310
874.5775, 1711.927
875.0596, 1704.885
875.5417, 1696.248
876.0239, 1688.634
876.5060, 1683.441
876.9881, 1684.969
877.4702, 1697.637
877.9523, 1712.276
878.4344, 1710.801
878.9166, 1698.638
879.3987, 1698.833
879.8808, 1711.482
880.3629, 1717.644
880.8450, 1709.488
881.3271, 1694.813
881.8093, 1682.015
882.2914, 1671.239
882.7735, 1663.391
883.2556, 1658.506
883.7377, 1656.964
884.2198, 1659.852
884.7020, 1662.712
885.1841, 1662.460
885.6662, 1660.556
886.1483, 1660.285
886.6304, 1662.207
887.1125, 1663.084
887.5947, 1660.513
888.0768, 1660.834
888.5589, 1668.392
889.0410, 1677.130
889.5231, 1682.164
890.0052, 1683.937
890.4874, 1684.573
890.9695, 1684.600
891.4516, 1682.775
891.9337, 1680.447
892.4158, 1674.556
892.8979, 1657.445
893.3801, 1639.000
893.8622, 1634.422
894.3443, 1644.606
894.8264, 1653.282
895.3085, 1651.524
895.7906, 1649.574
896.2728, 1655.323
896.7549, 1661.778
897.2370, 1661.193
897.7191, 1654.896
898.2012, 1647.205
898.6833, 1639.631
899.1655, 1635.044
899.6476, 1639.355
900.1297, 1645.085
900.6118, 1642.203
901.0939, 1633.769
901.5760, 1625.411
902.0582, 1618.801
902.5403, 1615.292
903.0224, 1615.945
903.5045, 1618.805
903.9866, 1622.769
904.4688, 1626.353
904.9509, 1622.663
905.4330, 1612.889
905.9151, 1608.390
906.3972, 1612.815
906.8793, 1618.588
907.3615, 1618.212
907.8436, 1613.952
908.3257, 1613.210
908.8078, 1616.007
909.2899, 1620.222
909.7720, 1626.549
910.2542, 1625.711
910.7363, 1610.544
911.2184, 1594.518
911.7005, 1599.067
912.1826, 1623.785
912.6647, 1635.201
913.1469, 1629.690
913.6290, 1622.224
914.1111, 1614.366
914.5932, 1606.490
915.0753, 1596.407
915.5574, 1588.069
916.0396, 1592.722
916.5217, 1618.652
917.0038, 1626.058
917.4859, 1594.785
917.9680, 1573.544
918.4501, 1580.399
918.9323, 1595.474
919.4144, 1607.161
919.8965, 1614.239
920.3786, 1612.807
920.8607, 1598.382
921.3428, 1584.813
921.8250, 1572.952
922.3071, 1563.640
922.7892, 1556.585
923.2713, 1552.650
923.7534, 1555.562
924.2355, 1563.738
924.7177, 1565.708
925.1998, 1549.405
925.6819, 1540.637
926.1640, 1559.894
926.6461, 1581.441
927.1282, 1583.586
927.6104, 1573.532
928.0925, 1564.137
928.5746, 1558.911
929.0567, 1559.314
929.5388, 1571.689
930.0209, 1583.579
930.5031, 1585.219
930.9852, 1581.347
931.4673, 1576.112
931.9494, 1571.034
932.4315, 1568.398
932.9136, 1568.944
933.3958, 1569.277
933.8779, 1566.752
934.3600, 1562.158
934.8421, 1554.387
935.3242, 1546.066
935.8063, 1543.040
936.2885, 1545.469
936.7706, 1550.016
937.2527, 1555.062
937.7348, 1559.141
938.2169, 1561.198
938.6990, 1560.670
939.1812, 1554.065
939.6633, 1543.538
940.1454, 1538.354
940.6275, 1540.068
941.1096, 1541.354
941.5917, 1536.536
942.0739, 1531.044
942.5560, 1537.144
943.0381, 1551.693
943.5202, 1558.169
944.0023, 1556.248
944.4844, 1548.881
944.9666, 1536.676
945.4487, 1531.841
945.9308, 1547.395
946.4129, 1573.635
946.8950, 1582.002
947.3771, 1572.601
947.8593, 1568.203
948.3414, 1571.227
948.8235, 1565.203
949.3056, 1541.049
949.7877, 1520.017
950.2698, 1528.451
950.7520, 1558.912
951.2341, 1570.147
951.7162, 1558.481
952.1983, 1552.513
952.6804, 1557.657
953.1625, 1557.676
953.6447, 1543.386
954.1268, 1523.469
954.6089, 1508.406
955.0910, 1498.392
955.5731, 1496.326
956.0552, 1504.100
956.5374, 1514.214
957.0195, 1526.602
957.5016, 1539.823
957.9837, 1553.817
958.4658, 1567.568
958.9479, 1580.386
959.4301, 1592.883
959.9122, 1595.636
960.3943, 1582.142
960.8764, 1572.194
961.3585, 1573.271
961.8406, 1572.015
962.3228, 1556.056
962.8049, 1534.490
963.2870, 1525.732
963.7691, 1532.354
964.2512, 1538.039
964.7333, 1541.712
965.2155, 1546.013
965.6976, 1556.266
966.1797, 1562.542
966.6618, 1553.964
967.1439, 1537.771
967.6260, 1531.349
968.1082, 1538.485
968.5903, 1541.720
969.0724, 1531.337
969.5545, 1528.868
970.0366, 1553.567
970.5187, 1575.541
971.0009, 1565.092
971.4830, 1534.757
971.9651, 1520.265
972.4472, 1530.823
972.9293, 1535.864
973.4114, 1526.365
973.8936, 1516.886
974.3757, 1511.026
974.8578, 1508.615
975.3399, 1509.861
975.8220, 1514.288
976.3041, 1520.873
976.7863, 1530.197
977.2684, 1539.154
977.7505, 1547.808
978.2326, 1554.995
978.7147, 1561.940
979.1968, 1565.781
979.6790, 1562.873
980.1611, 1554.351
980.6432, 1544.404
981.1253, 1533.158
981.6074, 1523.002
982.0895, 1511.117
982.5717, 1504.635
983.0538, 1508.733
983.5359, 1518.967
984.0180, 1532.266
984.5001, 1547.092
984.9822, 1561.431
985.4644, 1578.833
985.9465, 1583.462
986.4286, 1555.974
986.9107, 1529.525
987.3928, 1526.372
987.8749, 1533.059
988.3571, 1532.608
988.8392, 1525.692
989.3213, 1524.726
989.8034, 1537.077
990.2855, 1544.825
990.7676, 1534.488
991.2498, 1523.872
991.7319, 1527.480
992.2140, 1535.410
992.6961, 1533.218
993.1782, 1522.389
993.6603, 1516.542
994.1425, 1520.839
994.6246, 1528.611
995.1067, 1542.030
995.5888, 1552.427
996.0709, 1547.478
996.5530, 1540.103
997.0352, 1552.645
997.5173, 1580.215
997.9994, 1590.641
998.4815, 1565.511
998.9636, 1544.813
999.4457, 1554.088
999.9279, 1566.574
1000.410, 1562.324
1000.892, 1550.994
1001.374, 1546.090
1001.856, 1547.597
1002.338, 1546.703
1002.821, 1538.399
1003.303, 1533.634
1003.785, 1540.113
1004.267, 1549.085
1004.749, 1557.223
1005.231, 1562.512
1005.713, 1560.067
1006.195, 1552.463
1006.677, 1550.707
1007.160, 1560.229
1007.642, 1569.931
1008.124, 1575.722
1008.606, 1578.956
1009.088, 1580.820
1009.570, 1580.397
1010.052, 1573.694
1010.534, 1563.437
1011.017, 1559.417
1011.499, 1564.816
1011.981, 1575.932
1012.463, 1600.795
1012.945, 1619.978
1013.427, 1615.381
1013.909, 1603.179
1014.391, 1603.453
1014.873, 1613.380
1015.356, 1613.357
1015.838, 1591.395
1016.320, 1588.337
1016.802, 1648.229
1017.284, 1697.587
1017.766, 1683.733
1018.248, 1649.325
1018.730, 1641.102
1019.213, 1652.297
1019.695, 1648.285
1020.177, 1617.697
1020.659, 1589.315
1021.141, 1571.740
1021.623, 1559.238
1022.105, 1549.873
1022.587, 1543.622
1023.069, 1542.252
1023.552, 1543.744
1024.034, 1543.183
1024.516, 1539.328
1024.998, 1535.733
1025.480, 1534.060
1025.962, 1531.839
1026.444, 1528.529
1026.926, 1523.997
1027.409, 1512.568
1027.891, 1501.526
1028.373, 1510.878
1028.855, 1547.804
1029.337, 1564.175
1029.819, 1530.884
1030.301, 1504.328
1030.783, 1506.010
1031.266, 1512.727
1031.748, 1506.970
1032.230, 1495.807
1032.712, 1494.556
1033.194, 1505.450
1033.676, 1509.399
1034.158, 1496.080
1034.640, 1488.013
1035.122, 1495.433
1035.604, 1501.809
1036.087, 1493.322
1036.569, 1480.617
1037.051, 1481.572
1037.533, 1496.960
1038.015, 1505.533
1038.497, 1501.044
1038.979, 1499.568
1039.461, 1504.046
1039.944, 1509.049
1040.426, 1512.160
1040.908, 1514.532
1041.390, 1515.933
1041.872, 1517.094
1042.354, 1527.149
1042.836, 1555.203
1043.318, 1571.740
1043.800, 1572.223
1044.283, 1567.071
1044.765, 1554.672
1045.247, 1546.093
1045.729, 1555.150
1046.211, 1576.942
1046.693, 1587.751
1047.175, 1581.783
1047.657, 1586.337
1048.140, 1607.840
1048.622, 1620.134
1049.104, 1611.376
1049.586, 1601.704
1050.068, 1609.325
1050.550, 1626.973
1051.032, 1635.239
1051.514, 1633.573
1051.996, 1627.049
1052.479, 1614.689
1052.961, 1603.351
1053.443, 1594.130
1053.925, 1590.041
1054.407, 1594.733
1054.889, 1600.198
1055.371, 1590.156
1055.853, 1566.311
1056.335, 1548.265
1056.818, 1535.896
1057.300, 1529.903
1057.782, 1530.515
1058.264, 1524.852
1058.746, 1505.280
1059.228, 1486.890
1059.710, 1491.270
1060.192, 1511.575
1060.675, 1528.171
1061.157, 1539.958
1061.639, 1537.796
1062.121, 1522.513
1062.603, 1506.855
1063.085, 1496.095
1063.567, 1493.726
1064.049, 1506.059
1064.531, 1522.956
1065.014, 1526.530
1065.496, 1519.777
1065.978, 1505.185
1066.460, 1487.287
1066.942, 1481.534
1067.424, 1490.023
1067.906, 1495.561
1068.388, 1484.824
1068.870, 1472.532
1069.353, 1479.089
1069.835, 1491.528
1070.317, 1490.584
1070.799, 1481.746
1071.281, 1475.338
1071.763, 1474.356
1072.245, 1481.929
1072.727, 1501.205
1073.210, 1516.752
1073.692, 1517.268
1074.174, 1509.598
1074.656, 1489.177
1075.138, 1471.450
1075.620, 1482.557
1076.102, 1511.343
1076.584, 1523.135
1077.067, 1508.327
1077.549, 1492.951
1078.031, 1484.980
1078.513, 1483.299
1078.995, 1492.565
1079.477, 1502.831
1079.959, 1505.721
1080.441, 1504.677
1080.923, 1507.500
1081.406, 1514.527
1081.888, 1515.068
1082.370, 1498.938
1082.852, 1488.895
1083.334, 1492.200
1083.816, 1497.688
1084.298, 1503.103
1084.780, 1506.136
1085.262, 1502.640
1085.745, 1494.353
1086.227, 1489.465
1086.709, 1487.147
1087.191, 1491.133
1087.673, 1507.665
1088.155, 1517.422
1088.637, 1512.606
1089.119, 1504.986
1089.602, 1503.168
1090.084, 1504.333
1090.566, 1502.046
1091.048, 1496.088
1091.530, 1493.448
1092.012, 1494.866
1092.494, 1494.526
1092.976, 1491.007
1093.458, 1489.256
1093.941, 1492.073
1094.423, 1496.131
1094.905, 1497.041
1095.387, 1495.905
1095.869, 1497.786
1096.351, 1501.807
1096.833, 1499.627
1097.315, 1491.512
1097.797, 1485.880
1098.280, 1485.590
1098.762, 1491.182
1099.244, 1504.572
1099.726, 1517.740
1100.208, 1515.427
1100.690, 1505.523
1101.172, 1506.501
1101.654, 1513.102
1102.137, 1507.373
1102.619, 1490.266
1103.101, 1481.182
1103.583, 1489.716
1104.065, 1499.202
1104.547, 1495.172
1105.029, 1486.646
1105.511, 1475.920
1105.994, 1470.101
1106.476, 1483.752
1106.958, 1507.374
1107.440, 1518.447
1107.922, 1512.703
1108.404, 1506.258
1108.886, 1504.585
1109.368, 1505.027
1109.850, 1509.880
1110.333, 1512.880
1110.815, 1506.961
1111.297, 1499.239
1111.779, 1499.149
1112.261, 1505.661
1112.743, 1510.931
1113.225, 1515.691
1113.707, 1515.543
1114.189, 1506.266
1114.672, 1498.705
1115.154, 1495.959
1115.636, 1494.666
1116.118, 1493.704
1116.600, 1491.373
1117.082, 1482.734
1117.564, 1467.700
1118.046, 1466.247
1118.529, 1479.407
1119.011, 1505.907
1119.493, 1551.426
1119.975, 1567.130
1120.457, 1528.197
1120.939, 1481.724
1121.421, 1477.522
1121.903, 1498.623
1122.385, 1499.012
1122.868, 1484.708
1123.350, 1492.027
1123.832, 1516.636
1124.314, 1525.548
1124.796, 1512.915
1125.278, 1496.549
1125.760, 1486.146
1126.242, 1483.239
1126.724, 1495.042
1127.207, 1510.820
1127.689, 1517.502
1128.171, 1516.717
1128.653, 1506.732
1129.135, 1492.867
1129.617, 1489.080
1130.099, 1497.712
1130.581, 1502.618
1131.064, 1491.360
1131.546, 1482.216
1132.028, 1490.149
1132.510, 1497.369
1132.992, 1487.724
1133.474, 1473.281
1133.956, 1469.653
1134.438, 1475.164
1134.921, 1477.699
1135.403, 1473.740
1135.885, 1473.936
1136.367, 1483.357
1136.849, 1490.836
1137.331, 1496.441
1137.813, 1496.401
1138.295, 1484.740
1138.777, 1470.834
1139.260, 1469.261
1139.742, 1478.496
1140.224, 1484.153
1140.706, 1485.947
1141.188, 1486.611
1141.670, 1486.414
1142.152, 1483.709
1142.634, 1477.843
1143.116, 1470.893
1143.599, 1463.726
1144.081, 1460.340
1144.563, 1471.489
1145.045, 1490.781
1145.527, 1499.843
1146.009, 1499.848
1146.491, 1491.401
1146.973, 1478.124
1147.456, 1473.150
1147.938, 1480.789
1148.420, 1487.979
1148.902, 1482.953
1149.384, 1477.204
1149.866, 1484.101
1150.348, 1492.226
1150.830, 1490.333
1151.313, 1481.830
1151.795, 1467.727
1152.277, 1452.776
1152.759, 1454.037
1153.241, 1482.085
1153.723, 1500.471
1154.205, 1491.213
1154.687, 1484.819
1155.169, 1494.617
1155.651, 1505.523
1156.134, 1513.073
1156.616, 1511.943
1157.098, 1489.039
1157.580, 1447.974
1158.062, 1433.958
1158.544, 1455.182
1159.026, 1465.418
1159.508, 1460.741
1159.991, 1454.620
1160.473, 1450.712
1160.955, 1449.813
1161.437, 1453.332
1161.919, 1455.526
1162.401, 1440.793
1162.883, 1419.017
1163.365, 1430.145
1163.848, 1461.831
1164.330, 1473.932
1164.812, 1465.675
1165.294, 1453.791
1165.776, 1444.658
1166.258, 1440.447
1166.740, 1442.795
1167.222, 1449.997
1167.704, 1469.869
1168.187, 1484.394
1168.669, 1469.119
1169.151, 1444.869
1169.633, 1439.133
1170.115, 1448.190
1170.597, 1452.015
1171.079, 1445.597
1171.561, 1446.825
1172.043, 1473.721
1172.526, 1485.036
1173.008, 1463.001
1173.490, 1440.763
1173.972, 1429.435
1174.454, 1428.643
1174.936, 1441.913
1175.418, 1462.347
1175.900, 1463.375
1176.383, 1442.750
1176.865, 1436.119
1177.347, 1443.808
1177.829, 1450.675
1178.311, 1453.820
1178.793, 1453.115
1179.275, 1448.495
1179.757, 1443.792
1180.240, 1444.141
1180.722, 1444.855
1181.204, 1435.612
1181.686, 1423.221
1182.168, 1418.954
1182.650, 1421.336
1183.132, 1425.919
1183.614, 1431.985
1184.096, 1442.587
1184.578, 1460.536
1185.061, 1469.511
1185.543, 1453.741
1186.025, 1438.794
1186.507, 1435.379
1186.989, 1436.542
1187.471, 1438.862
1187.953, 1441.746
1188.435, 1444.478
1188.918, 1447.279
1189.400, 1452.384
1189.882, 1464.226
1190.364, 1460.139
1190.846, 1433.829
1191.328, 1420.675
1191.810, 1429.976
1192.292, 1442.843
1192.775, 1448.912
1193.257, 1450.652
1193.739, 1450.584
1194.221, 1449.403
1194.703, 1449.416
1195.185, 1449.475
1195.667, 1442.899
1196.149, 1434.355
1196.631, 1441.597
1197.114, 1463.104
1197.596, 1474.238
1198.078, 1462.932
1198.560, 1453.100
1199.042, 1463.640
1199.524, 1474.852
1200.006, 1474.574
1200.488, 1471.516
1200.970, 1473.024
1201.453, 1476.019
1201.935, 1476.809
1202.417, 1474.518
1202.899, 1464.327
1203.381, 1437.388
1203.863, 1433.062
1204.345, 1460.734
1204.827, 1481.177
1205.310, 1487.061
1205.792, 1480.873
1206.274, 1461.899
1206.756, 1444.495
1207.238, 1446.651
1207.720, 1461.130
1208.202, 1473.667
1208.684, 1482.276
1209.167, 1476.766
1209.649, 1462.993
1210.131, 1459.428
1210.613, 1466.790
1211.095, 1473.623
1211.577, 1475.498
1212.059, 1471.296
1212.541, 1453.745
1213.023, 1438.888
1213.505, 1434.950
1213.988, 1436.936
1214.470, 1443.610
1214.952, 1452.599
1215.434, 1465.642
1215.916, 1478.280
1216.398, 1472.602
1216.880, 1442.142
1217.362, 1436.389
1217.845, 1464.849
1218.327, 1475.381
1218.809, 1457.763
1219.291, 1443.933
1219.773, 1447.359
1220.255, 1455.025
1220.737, 1455.091
1221.219, 1452.147
1221.702, 1455.375
1222.184, 1460.808
1222.666, 1461.383
1223.148, 1457.151
1223.630, 1442.800
1224.112, 1425.301
1224.594, 1426.923
1225.076, 1451.249
1225.558, 1468.586
1226.041, 1462.010
1226.523, 1454.900
1227.005, 1453.367
1227.487, 1455.084
1227.969, 1462.445
1228.451, 1469.060
1228.933, 1469.735
1229.415, 1467.227
1229.897, 1466.530
1230.380, 1467.210
1230.862, 1463.331
##END=



