##NAMES=Talc
##RRUFFID=R040137
##IDEAL CHEMISTRY=Mg_3_Si_4_O_10_(OH)_2_
##LOCALITY=Murphy, North Carolina, USA
##OWNER=RRUFF
##SOURCE=University of Arizona Mineral Museum
##DESCRIPTION=Colorless massive
##STATUS=The identification of this mineral has been confirmed by X-ray diffraction and chemical analysis
##URL=rruff.info/R040137
##MEASURED CHEMISTRY=(Mg_0.97_Fe_0.01_Al_0.01_)_3_Si_4.03_O_10_((OH)_0.99_F_0.01_)_2_
161.7148, 24551.80
162.1969, 24650.02
162.6790, 24764.40
163.1611, 24870.78
163.6432, 24944.84
164.1253, 25022.93
164.6075, 25130.64
165.0896, 25269.10
165.5717, 25402.51
166.0538, 25503.57
166.5359, 25588.33
167.0180, 25680.01
167.5002, 25806.16
167.9823, 25932.48
168.4644, 26027.44
168.9465, 26084.40
169.4286, 26140.24
169.9107, 26229.67
170.3929, 26337.86
170.8750, 26435.92
171.3571, 26496.30
171.8392, 26543.47
172.3213, 26600.52
172.8034, 26667.65
173.2856, 26751.61
173.7677, 26882.40
174.2498, 27043.05
174.7319, 27173.18
175.2140, 27203.16
175.6961, 27187.45
176.1783, 27212.48
176.6604, 27305.19
177.1425, 27422.09
177.6246, 27515.04
178.1067, 27585.23
178.5888, 27646.44
179.0710, 27699.77
179.5531, 27750.40
180.0352, 27808.49
180.5173, 27874.13
180.9994, 27950.22
181.4815, 28050.34
181.9637, 28174.28
182.4458, 28287.20
182.9279, 28338.14
183.4100, 28348.00
183.8921, 28398.28
184.3742, 28529.15
184.8564, 28708.08
185.3385, 28851.57
185.8206, 28958.04
186.3027, 29063.10
186.7848, 29201.40
187.2669, 29371.04
187.7491, 29560.84
188.2312, 29764.88
188.7133, 29984.92
189.1954, 30233.98
189.6775, 30512.04
190.1596, 30812.84
190.6418, 31112.82
191.1239, 31412.92
191.6060, 31790.07
192.0881, 32335.31
192.5702, 33018.46
193.0524, 33621.99
193.5345, 34189.31
194.0166, 34563.46
194.4987, 34431.16
194.9808, 33767.77
195.4629, 32965.77
195.9451, 32133.35
196.4272, 31263.90
196.9093, 30616.21
197.3914, 30221.80
197.8735, 30012.18
198.3556, 29882.44
198.8378, 29840.33
199.3199, 29830.08
199.8020, 29828.77
200.2841, 29837.05
200.7662, 29843.43
201.2483, 29843.87
201.7305, 29845.12
202.2126, 29865.40
202.6947, 29907.82
203.1768, 29957.66
203.6589, 30008.12
204.1410, 30059.28
204.6232, 30107.29
205.1053, 30152.15
205.5874, 30193.46
206.0695, 30229.14
206.5516, 30257.89
207.0337, 30284.43
207.5159, 30310.80
207.9980, 30335.26
208.4801, 30365.50
208.9622, 30402.52
209.4443, 30446.02
209.9264, 30497.84
210.4086, 30564.96
210.8907, 30626.52
211.3728, 30662.24
211.8549, 30662.88
212.3370, 30670.28
212.8191, 30691.57
213.3013, 30725.17
213.7834, 30759.64
214.2655, 30794.53
214.7476, 30831.19
215.2297, 30868.38
215.7118, 30901.95
216.1940, 30949.60
216.6761, 31018.83
217.1582, 31108.55
217.6403, 31191.01
218.1224, 31272.44
218.6045, 31337.10
219.0867, 31363.23
219.5688, 31328.24
220.0509, 31307.94
220.5330, 31320.94
221.0151, 31368.11
221.4972, 31413.60
221.9794, 31458.12
222.4615, 31500.58
222.9436, 31540.91
223.4257, 31581.08
223.9078, 31614.83
224.3899, 31636.40
224.8721, 31643.90
225.3542, 31669.14
225.8363, 31723.44
226.3184, 31784.96
226.8005, 31825.57
227.2827, 31826.79
227.7648, 31842.52
228.2469, 31892.48
228.7290, 31983.68
229.2111, 32052.29
229.6932, 32088.90
230.1754, 32109.77
230.6575, 32136.73
231.1396, 32174.79
231.6217, 32209.94
232.1038, 32240.19
232.5859, 32267.34
233.0681, 32278.55
233.5502, 32265.09
234.0323, 32241.98
234.5144, 32229.17
234.9965, 32222.98
235.4786, 32233.66
235.9608, 32264.26
236.4429, 32314.44
236.9250, 32386.63
237.4071, 32499.08
237.8892, 32621.69
238.3713, 32706.16
238.8535, 32740.04
239.3356, 32756.27
239.8177, 32761.38
240.2998, 32749.81
240.7819, 32749.15
241.2640, 32763.77
241.7462, 32786.73
242.2283, 32803.88
242.7104, 32801.41
243.1925, 32815.93
243.6746, 32861.99
244.1567, 32949.07
244.6389, 33039.31
245.1210, 33145.21
245.6031, 33246.75
246.0852, 33305.30
246.5673, 33303.43
247.0494, 33287.96
247.5316, 33271.66
248.0137, 33249.57
248.4958, 33243.16
248.9779, 33252.01
249.4600, 33276.91
249.9421, 33321.07
250.4243, 33393.81
250.9064, 33469.73
251.3885, 33542.79
251.8706, 33618.98
252.3527, 33671.18
252.8348, 33690.60
253.3170, 33691.52
253.7991, 33698.33
254.2812, 33705.99
254.7633, 33729.35
255.2454, 33783.72
255.7275, 33890.05
256.2097, 33941.93
256.6918, 33909.18
257.1739, 33842.14
257.6560, 33838.71
258.1381, 33927.35
258.6202, 34021.18
259.1024, 34086.33
259.5845, 34112.68
260.0666, 34153.32
260.5487, 34223.91
261.0308, 34296.74
261.5129, 34314.00
261.9951, 34246.39
262.4772, 34192.93
262.9593, 34196.71
263.4414, 34270.84
263.9235, 34342.96
264.4056, 34420.67
264.8878, 34490.04
265.3699, 34522.12
265.8520, 34502.23
266.3341, 34487.85
266.8162, 34504.35
267.2983, 34557.61
267.7805, 34603.32
268.2626, 34640.24
268.7447, 34670.49
269.2268, 34697.97
269.7089, 34723.35
270.1910, 34743.40
270.6732, 34755.42
271.1553, 34758.25
271.6374, 34760.55
272.1195, 34755.61
272.6016, 34760.04
273.0837, 34810.91
273.5659, 34920.45
274.0480, 35014.77
274.5301, 35057.68
275.0122, 35046.48
275.4943, 35058.33
275.9764, 35099.36
276.4586, 35151.89
276.9407, 35184.15
277.4228, 35191.49
277.9049, 35215.22
278.3870, 35278.50
278.8691, 35379.09
279.3513, 35467.34
279.8334, 35544.13
280.3155, 35606.33
280.7976, 35643.41
281.2798, 35653.81
281.7619, 35667.67
282.2440, 35694.62
282.7261, 35734.26
283.2082, 35787.19
283.6903, 35856.51
284.1725, 35927.66
284.6546, 35982.10
285.1367, 36019.88
285.6188, 36053.93
286.1009, 36084.71
286.5830, 36115.00
287.0652, 36157.86
287.5473, 36213.65
288.0294, 36277.32
288.5115, 36347.00
288.9936, 36421.79
289.4757, 36492.69
289.9579, 36567.50
290.4400, 36634.04
290.9221, 36657.25
291.4042, 36635.61
291.8863, 36589.55
292.3684, 36515.32
292.8506, 36426.37
293.3327, 36382.16
293.8148, 36427.27
294.2969, 36513.36
294.7790, 36542.22
295.2611, 36513.75
295.7433, 36474.16
296.2254, 36462.93
296.7075, 36472.27
297.1896, 36479.55
297.6717, 36470.57
298.1538, 36462.85
298.6360, 36489.96
299.1181, 36549.32
299.6002, 36607.30
300.0823, 36630.33
300.5644, 36635.02
301.0465, 36654.05
301.5287, 36702.42
302.0108, 36760.39
302.4929, 36810.06
302.9750, 36851.34
303.4571, 36880.97
303.9392, 36881.43
304.4214, 36873.80
304.9035, 36889.59
305.3856, 36948.52
305.8677, 37012.43
306.3498, 37049.57
306.8319, 37063.48
307.3141, 37067.19
307.7962, 37044.52
308.2783, 37026.29
308.7604, 37049.07
309.2425, 37138.99
309.7246, 37228.61
310.2068, 37275.77
310.6889, 37289.24
311.1710, 37292.64
311.6531, 37279.85
312.1352, 37272.06
312.6173, 37287.02
313.0995, 37332.95
313.5816, 37385.40
314.0637, 37441.28
314.5458, 37495.51
315.0279, 37539.08
315.5100, 37562.80
315.9922, 37579.26
316.4743, 37592.57
316.9564, 37600.57
317.4385, 37616.31
317.9206, 37640.39
318.4027, 37675.60
318.8849, 37725.80
319.3670, 37830.10
319.8491, 37916.11
320.3312, 37942.42
320.8133, 37891.05
321.2954, 37873.27
321.7776, 37945.00
322.2597, 38047.50
322.7418, 38118.20
323.2239, 38124.02
323.7060, 38121.27
324.1881, 38122.89
324.6703, 38130.20
325.1524, 38130.69
325.6345, 38096.90
326.1166, 38070.10
326.5987, 38083.20
327.0808, 38153.34
327.5630, 38243.85
328.0451, 38370.08
328.5272, 38528.32
329.0093, 38637.00
329.4914, 38672.93
329.9735, 38678.29
330.4557, 38676.63
330.9378, 38650.10
331.4199, 38649.18
331.9020, 38690.91
332.3841, 38763.45
332.8662, 38807.40
333.3484, 38809.71
333.8305, 38802.63
334.3126, 38801.30
334.7947, 38803.02
335.2768, 38820.49
335.7589, 38861.39
336.2411, 38914.45
336.7232, 38952.90
337.2053, 38974.93
337.6874, 38986.71
338.1695, 38982.26
338.6516, 38955.86
339.1338, 38969.03
339.6159, 39034.64
340.0980, 39121.05
340.5801, 39172.50
341.0622, 39186.48
341.5443, 39193.42
342.0265, 39200.73
342.5086, 39209.72
342.9907, 39233.51
343.4728, 39271.98
343.9549, 39325.01
344.4370, 39407.08
344.9192, 39512.55
345.4013, 39589.18
345.8834, 39600.74
346.3655, 39574.29
346.8476, 39577.48
347.3297, 39610.50
347.8119, 39664.23
348.2940, 39745.51
348.7761, 39842.80
349.2582, 39916.96
349.7403, 39941.31
350.2225, 39955.46
350.7046, 40022.29
351.1867, 40136.68
351.6688, 40254.58
352.1509, 40336.18
352.6331, 40403.32
353.1152, 40489.84
353.5973, 40608.32
354.0794, 40738.47
354.5615, 40863.92
355.0436, 40986.54
355.5258, 41112.07
356.0079, 41236.66
356.4900, 41369.40
356.9721, 41520.32
357.4542, 41694.86
357.9363, 41874.44
358.4185, 42041.80
358.9006, 42207.85
359.3827, 42391.48
359.8648, 42663.82
360.3469, 42905.07
360.8290, 43053.16
361.3112, 43098.36
361.7933, 43083.52
362.2754, 43005.89
362.7575, 42882.03
363.2396, 42729.30
363.7217, 42548.02
364.2039, 42343.79
364.6860, 42092.98
365.1681, 41794.18
365.6502, 41558.64
366.1323, 41437.06
366.6144, 41357.46
367.0966, 41269.99
367.5787, 41137.11
368.0608, 41041.82
368.5429, 41005.00
369.0250, 41014.80
369.5071, 41010.40
369.9893, 40976.11
370.4714, 40945.86
370.9535, 40937.49
371.4356, 40963.19
371.9177, 40983.52
372.3998, 40998.52
372.8820, 41007.66
373.3641, 41004.25
373.8462, 40975.63
374.3283, 40967.48
374.8104, 41003.76
375.2925, 41089.34
375.7747, 41165.95
376.2568, 41232.89
376.7389, 41293.55
377.2210, 41353.19
377.7031, 41412.39
378.1852, 41462.10
378.6674, 41499.41
379.1495, 41525.14
379.6316, 41541.35
380.1137, 41546.89
380.5958, 41552.23
381.0779, 41577.09
381.5601, 41613.93
382.0422, 41621.06
382.5243, 41577.93
383.0064, 41515.45
383.4885, 41480.91
383.9706, 41472.65
384.4528, 41480.77
384.9349, 41507.02
385.4170, 41543.09
385.8991, 41576.48
386.3812, 41606.14
386.8633, 41631.36
387.3455, 41648.03
387.8276, 41659.60
388.3097, 41674.30
388.7918, 41691.97
389.2739, 41717.07
389.7560, 41759.73
390.2382, 41823.09
390.7203, 41874.92
391.2024, 41886.68
391.6845, 41881.05
392.1666, 41884.25
392.6487, 41933.20
393.1309, 41965.97
393.6130, 41933.15
394.0951, 41843.83
394.5772, 41805.26
395.0593, 41903.54
395.5414, 42023.93
396.0236, 42093.71
396.5057, 42023.21
396.9878, 41996.46
397.4699, 42069.34
397.9520, 42203.46
398.4341, 42277.05
398.9163, 42241.27
399.3984, 42195.25
399.8805, 42171.24
400.3626, 42168.82
400.8447, 42192.21
401.3268, 42258.89
401.8090, 42338.40
402.2911, 42385.02
402.7732, 42382.11
403.2553, 42388.71
403.7374, 42422.23
404.2195, 42481.21
404.7017, 42544.94
405.1838, 42621.77
405.6659, 42681.12
406.1480, 42678.53
406.6301, 42612.53
407.1122, 42584.44
407.5944, 42621.23
408.0765, 42697.42
408.5586, 42758.85
409.0407, 42805.81
409.5228, 42835.84
410.0049, 42827.67
410.4871, 42800.59
410.9692, 42818.96
411.4513, 42899.96
411.9334, 42983.53
412.4155, 42982.98
412.8976, 42926.80
413.3798, 42897.04
413.8619, 42954.35
414.3440, 43042.91
414.8261, 43109.62
415.3082, 43153.23
415.7903, 43181.93
416.2725, 43184.70
416.7546, 43182.07
417.2367, 43197.64
417.7188, 43248.11
418.2009, 43307.66
418.6830, 43366.20
419.1652, 43424.63
419.6473, 43484.12
420.1294, 43554.63
420.6115, 43619.81
421.0937, 43673.47
421.5758, 43719.17
422.0579, 43741.29
422.5400, 43716.12
423.0221, 43670.75
423.5042, 43648.78
423.9864, 43644.04
424.4685, 43671.75
424.9506, 43748.37
425.4327, 43878.82
425.9148, 43980.04
426.3969, 44034.60
426.8791, 44079.78
427.3612, 44151.96
427.8433, 44267.90
428.3254, 44355.40
428.8075, 44394.54
429.2896, 44401.91
429.7718, 44433.16
430.2539, 44490.89
430.7360, 44558.16
431.2181, 44632.70
431.7002, 44712.57
432.1823, 44768.29
432.6645, 44796.37
433.1466, 44807.13
433.6287, 44820.44
434.1108, 44831.53
434.5929, 44814.80
435.0750, 44743.86
435.5572, 44645.35
436.0393, 44549.50
436.5214, 44458.09
437.0035, 44408.89
437.4856, 44475.50
437.9677, 44590.13
438.4499, 44656.61
438.9320, 44635.95
439.4141, 44586.37
439.8962, 44527.86
440.3783, 44470.88
440.8604, 44440.60
441.3426, 44459.66
441.8247, 44500.40
442.3068, 44550.23
442.7889, 44609.45
443.2710, 44669.45
443.7531, 44745.28
444.2353, 44813.81
444.7174, 44850.76
445.1995, 44800.14
445.6816, 44774.61
446.1637, 44802.35
446.6458, 44877.82
447.1280, 44946.23
447.6101, 44999.36
448.0922, 45054.77
448.5743, 45128.41
449.0564, 45249.21
449.5385, 45305.14
450.0207, 45263.24
450.5028, 45182.73
450.9849, 45189.25
451.4670, 45304.59
451.9491, 45394.87
452.4312, 45391.13
452.9134, 45310.38
453.3955, 45294.95
453.8776, 45352.33
454.3597, 45421.32
454.8418, 45433.62
455.3239, 45403.84
455.8061, 45395.28
456.2882, 45433.25
456.7703, 45481.38
457.2524, 45470.58
457.7345, 45418.28
458.2166, 45395.74
458.6988, 45475.63
459.1809, 45592.57
459.6630, 45677.36
460.1451, 45722.18
460.6272, 45746.14
461.1093, 45732.52
461.5915, 45713.82
462.0736, 45730.95
462.5557, 45854.87
463.0378, 45960.56
463.5199, 45973.59
464.0020, 45910.64
464.4842, 45900.51
464.9663, 46030.89
465.4484, 46175.90
465.9305, 46268.36
466.4126, 46270.46
466.8947, 46284.32
467.3769, 46321.96
467.8590, 46366.05
468.3411, 46388.61
468.8232, 46384.48
469.3053, 46366.89
469.7874, 46328.98
470.2696, 46273.88
470.7517, 46269.26
471.2338, 46330.34
471.7159, 46394.92
472.1980, 46393.51
472.6801, 46328.61
473.1623, 46315.74
473.6444, 46386.34
474.1265, 46485.71
474.6086, 46512.42
475.0907, 46477.05
475.5728, 46448.23
476.0550, 46476.23
476.5371, 46529.10
477.0192, 46551.16
477.5013, 46540.29
477.9834, 46528.59
478.4655, 46549.68
478.9477, 46582.09
479.4298, 46596.47
479.9119, 46567.58
480.3940, 46539.82
480.8761, 46539.13
481.3582, 46558.26
481.8404, 46576.53
482.3225, 46574.99
482.8046, 46581.15
483.2867, 46612.32
483.7688, 46681.61
484.2509, 46735.35
484.7331, 46763.03
485.2152, 46776.01
485.6973, 46782.57
486.1794, 46762.87
486.6615, 46773.71
487.1436, 46842.69
487.6258, 46949.34
488.1079, 46985.61
488.5900, 46923.22
489.0721, 46868.04
489.5542, 46893.85
490.0363, 47001.77
490.5185, 47053.76
491.0006, 47034.52
491.4827, 46997.23
491.9648, 47008.66
492.4470, 47063.00
492.9291, 47132.61
493.4112, 47228.34
493.8933, 47315.31
494.3754, 47317.19
494.8575, 47247.40
495.3397, 47190.29
495.8218, 47201.73
496.3039, 47254.38
496.7860, 47323.41
497.2681, 47411.52
497.7502, 47493.42
498.2324, 47558.08
498.7145, 47608.27
499.1966, 47648.99
499.6787, 47682.06
500.1608, 47704.84
500.6429, 47708.66
501.1251, 47695.63
501.6072, 47698.29
502.0893, 47750.77
502.5714, 47791.22
503.0535, 47782.95
503.5356, 47677.23
504.0178, 47643.32
504.4999, 47708.76
504.9820, 47821.50
505.4641, 47909.19
505.9462, 47971.60
506.4283, 48007.36
506.9105, 48005.80
507.3926, 47979.16
507.8747, 47975.46
508.3568, 47995.34
508.8389, 48027.60
509.3210, 48070.73
509.8032, 48120.13
510.2853, 48164.76
510.7674, 48204.13
511.2495, 48235.00
511.7316, 48250.84
512.2137, 48255.95
512.6959, 48259.02
513.1780, 48249.61
513.6601, 48251.09
514.1422, 48291.32
514.6243, 48363.00
515.1064, 48416.30
515.5886, 48416.24
516.0707, 48402.60
516.5528, 48399.63
517.0349, 48416.33
517.5170, 48431.17
517.9991, 48425.13
518.4813, 48422.71
518.9634, 48458.56
519.4455, 48565.03
519.9276, 48654.18
520.4097, 48706.57
520.8918, 48725.96
521.3740, 48740.80
521.8561, 48749.90
522.3382, 48758.34
522.8203, 48767.70
523.3024, 48778.21
523.7845, 48798.17
524.2667, 48830.81
524.7488, 48862.73
525.2309, 48879.59
525.7130, 48882.86
526.1951, 48875.53
526.6772, 48839.43
527.1594, 48811.65
527.6415, 48857.78
528.1236, 48958.81
528.6057, 49032.01
529.0878, 48987.98
529.5699, 48925.09
530.0521, 48926.89
530.5342, 49022.72
531.0163, 49097.88
531.4984, 49084.98
531.9805, 49046.58
532.4626, 49049.16
532.9448, 49148.32
533.4269, 49232.84
533.9090, 49286.45
534.3911, 49316.00
534.8732, 49345.97
535.3553, 49378.21
535.8375, 49408.30
536.3196, 49437.47
536.8017, 49467.04
537.2838, 49471.75
537.7659, 49446.41
538.2480, 49413.43
538.7302, 49389.41
539.2123, 49376.04
539.6944, 49388.57
540.1765, 49436.33
540.6586, 49500.24
541.1407, 49564.79
541.6229, 49625.95
542.1050, 49670.53
542.5871, 49682.16
543.0692, 49680.18
543.5513, 49679.06
544.0334, 49679.71
544.5156, 49683.69
544.9977, 49684.24
545.4798, 49692.77
545.9619, 49718.14
546.4440, 49762.04
546.9261, 49822.84
547.4083, 49930.21
547.8904, 50048.64
548.3725, 50111.44
548.8546, 50089.95
549.3367, 50059.29
549.8188, 50028.35
550.3010, 50000.02
550.7831, 50017.12
551.2652, 50094.09
551.7473, 50168.46
552.2294, 50189.44
552.7115, 50162.70
553.1937, 50138.88
553.6758, 50118.64
554.1579, 50115.22
554.6400, 50160.72
555.1221, 50238.19
555.6042, 50297.04
556.0864, 50300.14
556.5685, 50297.04
557.0506, 50343.63
557.5327, 50426.84
558.0148, 50497.52
558.4969, 50528.41
558.9791, 50541.93
559.4612, 50544.64
559.9433, 50531.22
560.4254, 50539.24
560.9075, 50598.96
561.3896, 50669.89
561.8718, 50716.86
562.3539, 50725.79
562.8360, 50734.24
563.3181, 50743.79
563.8002, 50754.95
564.2823, 50768.68
564.7645, 50784.39
565.2466, 50804.88
565.7287, 50831.16
566.2108, 50863.00
566.6929, 50909.56
567.1750, 50972.14
567.6572, 51010.72
568.1393, 50961.63
568.6214, 50868.76
569.1035, 50819.09
569.5856, 50826.41
570.0677, 50875.04
570.5499, 50999.52
571.0320, 51147.16
571.5141, 51235.66
571.9962, 51174.95
572.4783, 51109.09
572.9604, 51097.74
573.4426, 51132.22
573.9247, 51163.35
574.4068, 51174.61
574.8889, 51189.08
575.3710, 51216.27
575.8531, 51258.47
576.3353, 51300.58
576.8174, 51345.40
577.2995, 51385.35
577.7816, 51409.70
578.2637, 51415.94
578.7458, 51434.65
579.2280, 51475.30
579.7101, 51521.00
580.1922, 51540.81
580.6743, 51537.73
581.1564, 51528.59
581.6385, 51506.61
582.1207, 51490.75
582.6028, 51514.99
583.0849, 51574.16
583.5670, 51629.25
584.0491, 51648.94
584.5313, 51660.59
585.0134, 51688.12
585.4955, 51743.00
585.9776, 51787.50
586.4597, 51802.89
586.9418, 51806.57
587.4240, 51818.29
587.9061, 51846.82
588.3882, 51869.47
588.8703, 51873.16
589.3524, 51872.30
589.8345, 51922.01
590.3167, 52043.72
590.7988, 52132.50
591.2809, 52122.22
591.7630, 52037.91
592.2451, 52005.48
592.7272, 52025.64
593.2094, 52080.44
593.6915, 52191.43
594.1736, 52319.09
594.6557, 52376.77
595.1378, 52334.11
595.6199, 52287.15
596.1021, 52319.21
596.5842, 52389.21
597.0663, 52438.75
597.5485, 52428.57
598.0306, 52415.04
598.5127, 52414.18
598.9948, 52424.27
599.4769, 52436.22
599.9590, 52434.79
600.4412, 52453.39
600.9233, 52515.49
601.4054, 52627.68
601.8875, 52679.27
602.3696, 52655.11
602.8517, 52606.40
603.3339, 52561.23
603.8160, 52522.05
604.2981, 52540.95
604.7802, 52635.17
605.2623, 52747.34
605.7444, 52805.65
606.2266, 52822.19
606.7087, 52826.12
607.1908, 52813.51
607.6729, 52808.36
608.1550, 52835.48
608.6371, 52886.80
609.1193, 52937.11
609.6014, 52980.60
610.0835, 53016.73
610.5656, 53037.08
611.0477, 53035.95
611.5298, 53064.59
612.0120, 53159.80
612.4941, 53249.64
612.9762, 53282.07
613.4583, 53239.28
613.9404, 53201.42
614.4225, 53168.83
614.9047, 53147.07
615.3868, 53144.39
615.8689, 53160.24
616.3510, 53188.54
616.8331, 53231.60
617.3152, 53280.69
617.7974, 53326.41
618.2795, 53367.52
618.7616, 53401.65
619.2437, 53405.26
619.7258, 53417.71
620.2079, 53493.88
620.6901, 53634.34
621.1722, 53714.89
621.6543, 53625.66
622.1364, 53509.19
622.6185, 53458.46
623.1006, 53498.12
623.5828, 53564.42
624.0649, 53695.54
624.5470, 53818.26
625.0291, 53822.04
625.5112, 53672.09
625.9933, 53596.14
626.4755, 53654.29
626.9576, 53783.12
627.4397, 53867.01
627.9218, 53906.74
628.4039, 53908.15
628.8860, 53820.02
629.3682, 53723.51
629.8503, 53749.24
630.3324, 53882.48
630.8145, 54010.74
631.2966, 54062.58
631.7787, 54088.77
632.2609, 54127.06
632.7430, 54190.01
633.2251, 54234.53
633.7072, 54245.58
634.1893, 54238.18
634.6714, 54220.88
635.1536, 54172.80
635.6357, 54163.91
636.1178, 54211.39
636.5999, 54287.48
637.0820, 54341.52
637.5641, 54372.35
638.0463, 54404.28
638.5284, 54452.88
639.0105, 54501.02
639.4926, 54498.46
639.9747, 54456.51
640.4568, 54440.32
640.9390, 54527.22
641.4211, 54633.36
641.9032, 54678.55
642.3853, 54657.06
642.8674, 54622.79
643.3495, 54548.33
643.8317, 54501.41
644.3138, 54537.82
644.7959, 54758.98
645.2780, 54874.00
645.7601, 54820.51
646.2422, 54715.59
646.7244, 54702.52
647.2065, 54801.42
647.6886, 54891.56
648.1707, 54957.39
648.6528, 54995.30
649.1349, 54973.89
649.6171, 54905.23
650.0992, 54873.68
650.5813, 54945.88
651.0634, 55059.73
651.5455, 55157.57
652.0276, 55236.05
652.5098, 55272.29
652.9919, 55182.69
653.4740, 55102.57
653.9561, 55138.99
654.4382, 55332.00
654.9203, 55456.38
655.4025, 55413.93
655.8846, 55352.32
656.3667, 55376.86
656.8488, 55533.42
657.3309, 55631.06
657.8130, 55642.68
658.2952, 55632.52
658.7773, 55703.15
659.2594, 55846.86
659.7415, 55958.81
660.2236, 55994.64
660.7057, 56015.20
661.1879, 56104.70
661.6700, 56249.64
662.1521, 56411.79
662.6342, 56608.76
663.1163, 56785.80
663.5984, 56889.48
664.0806, 56930.57
664.5627, 57001.11
665.0448, 57113.23
665.5269, 57270.03
666.0090, 57482.62
666.4911, 57760.07
666.9733, 58012.24
667.4554, 58235.51
667.9375, 58440.68
668.4196, 58616.58
668.9017, 58767.09
669.3839, 58995.91
669.8660, 59322.35
670.3481, 59674.95
670.8302, 59981.84
671.3123, 60250.22
671.7944, 60496.13
672.2766, 60721.45
672.7587, 60926.21
673.2408, 61118.23
673.7229, 61289.58
674.2050, 61428.78
674.6871, 61555.16
675.1693, 61623.55
675.6514, 61621.81
676.1335, 61553.25
676.6156, 61426.80
677.0977, 61235.46
677.5798, 61003.34
678.0620, 60742.34
678.5441, 60449.95
679.0262, 60106.50
679.5083, 59704.60
679.9904, 59326.27
680.4725, 59062.58
680.9547, 58859.62
681.4368, 58604.74
681.9189, 58278.86
682.4010, 57983.55
682.8831, 57808.05
683.3652, 57690.32
683.8474, 57571.21
684.3295, 57435.85
684.8116, 57301.21
685.2937, 57155.72
685.7758, 57018.21
686.2579, 56915.13
686.7401, 56849.00
687.2222, 56815.09
687.7043, 56827.05
688.1864, 56857.69
688.6685, 56829.49
689.1506, 56747.00
689.6328, 56684.92
690.1149, 56703.96
690.5970, 56744.59
691.0791, 56689.09
691.5612, 56561.94
692.0433, 56488.59
692.5255, 56597.55
693.0076, 56731.30
693.4897, 56794.14
693.9718, 56774.74
694.4539, 56727.66
694.9360, 56626.04
695.4182, 56530.89
695.9003, 56475.06
696.3824, 56467.66
696.8645, 56465.69
697.3466, 56469.83
697.8287, 56477.64
698.3109, 56485.59
698.7930, 56494.59
699.2751, 56510.94
699.7572, 56537.67
700.2393, 56564.36
700.7214, 56578.20
701.2036, 56584.88
701.6857, 56594.05
702.1678, 56615.48
702.6499, 56632.54
703.1320, 56634.89
703.6141, 56628.35
704.0963, 56626.49
704.5784, 56613.11
705.0605, 56632.50
705.5426, 56715.88
706.0247, 56837.89
706.5068, 56876.23
706.9890, 56823.08
707.4711, 56754.47
707.9532, 56703.81
708.4353, 56667.93
708.9174, 56640.47
709.3995, 56621.35
709.8817, 56611.30
710.3638, 56616.10
710.8459, 56626.91
711.3280, 56632.14
711.8101, 56628.18
712.2922, 56641.87
712.7744, 56699.50
713.2565, 56763.78
713.7386, 56813.01
714.2207, 56855.53
714.7028, 56850.03
715.1849, 56762.89
715.6671, 56686.18
716.1492, 56751.93
716.6313, 56944.07
717.1134, 57073.23
717.5955, 57099.16
718.0776, 57076.17
718.5598, 57057.87
719.0419, 57040.07
719.5240, 57013.67
720.0061, 56948.18
720.4882, 56906.31
720.9703, 56927.06
721.4525, 56991.52
721.9346, 57057.38
722.4167, 57156.58
722.8988, 57206.48
723.3809, 57173.46
723.8630, 57081.46
724.3452, 57022.68
724.8273, 56997.76
725.3094, 57001.81
725.7915, 57038.49
726.2736, 57100.64
726.7557, 57181.48
727.2379, 57276.97
727.7200, 57355.12
728.2021, 57378.25
728.6842, 57387.18
729.1663, 57427.14
729.6484, 57503.31
730.1306, 57539.68
730.6127, 57473.44
731.0948, 57395.07
731.5769, 57354.92
732.0590, 57362.56
732.5411, 57367.56
733.0233, 57369.38
733.5054, 57369.80
733.9875, 57367.14
734.4696, 57363.08
734.9517, 57369.23
735.4338, 57386.43
735.9160, 57416.40
736.3981, 57484.09
736.8802, 57558.41
737.3623, 57590.44
737.8444, 57546.28
738.3266, 57498.77
738.8087, 57449.08
739.2908, 57421.34
739.7729, 57456.45
740.2551, 57618.67
740.7372, 57724.93
741.2193, 57738.95
741.7014, 57699.05
742.1835, 57683.48
742.6656, 57692.57
743.1478, 57703.71
743.6299, 57710.27
744.1120, 57714.19
744.5941, 57721.92
745.0762, 57730.06
745.5583, 57728.22
746.0405, 57682.20
746.5226, 57651.92
747.0047, 57690.40
747.4868, 57782.26
747.9689, 57834.55
748.4510, 57798.40
748.9332, 57769.87
749.4153, 57780.75
749.8974, 57827.56
750.3795, 57871.68
750.8616, 57913.63
751.3438, 57947.79
751.8259, 57962.12
752.3080, 57967.59
752.7901, 57998.35
753.2722, 58053.04
753.7543, 58095.22
754.2365, 58080.73
754.7186, 58057.33
755.2007, 58070.09
755.6828, 58134.17
756.1649, 58173.16
756.6470, 58150.80
757.1292, 58120.97
757.6113, 58118.96
758.0934, 58156.33
758.5755, 58169.77
759.0576, 58157.78
759.5397, 58127.00
760.0219, 58041.76
760.5040, 57941.26
760.9861, 57981.50
761.4682, 58213.99
761.9503, 58433.53
762.4324, 58453.37
762.9146, 58379.67
763.3967, 58338.20
763.8788, 58383.38
764.3609, 58422.89
764.8430, 58454.56
765.3251, 58465.59
765.8073, 58430.83
766.2894, 58328.95
766.7715, 58268.13
767.2536, 58270.92
767.7357, 58307.17
768.2178, 58327.05
768.7000, 58336.23
769.1821, 58358.48
769.6642, 58405.89
770.1463, 58462.18
770.6284, 58515.98
771.1105, 58568.21
771.5927, 58620.64
772.0748, 58699.91
772.5569, 58748.20
773.0390, 58733.47
773.5211, 58682.39
774.0032, 58660.02
774.4854, 58669.26
774.9675, 58699.08
775.4496, 58757.04
775.9317, 58823.99
776.4138, 58851.72
776.8959, 58843.78
777.3781, 58820.79
777.8602, 58740.84
778.3423, 58692.87
778.8244, 58792.04
779.3065, 58999.32
779.7886, 59148.11
780.2708, 59142.89
780.7529, 59116.11
781.2350, 59099.91
781.7171, 59097.20
782.1992, 59150.93
782.6813, 59283.86
783.1635, 59379.65
783.6456, 59338.06
784.1277, 59219.54
784.6098, 59242.11
785.0919, 59392.58
785.5740, 59539.22
786.0562, 59634.53
786.5383, 59663.64
787.0204, 59571.16
787.5025, 59356.69
787.9846, 59223.49
788.4667, 59299.27
788.9489, 59391.52
789.4310, 59416.64
789.9131, 59369.17
790.3952, 59360.43
790.8773, 59399.79
791.3594, 59434.52
791.8416, 59413.17
792.3237, 59358.29
792.8058, 59322.86
793.2879, 59309.51
793.7700, 59327.58
794.2521, 59422.96
794.7343, 59525.85
795.2164, 59574.05
795.6985, 59548.56
796.1806, 59523.18
796.6627, 59504.93
797.1448, 59490.56
797.6270, 59474.23
798.1091, 59452.24
798.5912, 59468.61
799.0733, 59532.67
799.5554, 59586.75
800.0375, 59554.30
800.5197, 59477.38
801.0018, 59441.20
801.4839, 59462.12
801.9660, 59483.58
802.4481, 59453.84
802.9302, 59420.40
803.4124, 59424.91
803.8945, 59492.68
804.3766, 59559.32
804.8587, 59638.71
805.3408, 59698.54
805.8229, 59690.23
806.3051, 59614.58
806.7872, 59603.85
807.2693, 59677.45
807.7514, 59766.44
808.2335, 59819.45
808.7156, 59835.09
809.1978, 59799.38
809.6799, 59685.70
810.1620, 59601.17
810.6441, 59608.35
811.1262, 59656.04
811.6083, 59694.18
812.0905, 59715.41
812.5726, 59741.39
813.0547, 59775.59
813.5368, 59808.20
814.0189, 59825.23
814.5010, 59829.33
814.9832, 59832.53
815.4653, 59833.69
815.9474, 59849.31
816.4295, 59944.59
816.9116, 60042.45
817.3937, 60033.43
817.8759, 59791.45
818.3580, 59638.52
818.8401, 59696.39
819.3222, 59836.56
819.8043, 59950.96
820.2864, 60040.63
820.7686, 60095.71
821.2507, 60108.96
821.7328, 60105.27
822.2149, 60123.00
822.6970, 60148.57
823.1791, 60145.05
823.6613, 60098.41
824.1434, 60040.92
824.6255, 59964.25
825.1076, 59902.22
825.5897, 59893.74
826.0718, 60027.46
826.5540, 60091.56
827.0361, 60043.76
827.5182, 59975.17
828.0003, 60011.65
828.4824, 60151.17
828.9645, 60238.01
829.4467, 60241.28
829.9288, 60219.61
830.4109, 60242.36
830.8930, 60283.57
831.3751, 60298.24
831.8572, 60250.66
832.3394, 60231.10
832.8215, 60309.11
833.3036, 60410.23
833.7857, 60449.79
834.2678, 60401.22
834.7499, 60362.86
835.2321, 60333.27
835.7142, 60332.30
836.1963, 60415.31
836.6784, 60552.21
837.1605, 60623.61
837.6426, 60596.40
838.1248, 60547.18
838.6069, 60531.07
839.0890, 60527.41
839.5711, 60511.28
840.0532, 60447.86
840.5353, 60428.55
841.0175, 60469.67
841.4996, 60543.55
841.9817, 60637.77
842.4638, 60755.97
842.9459, 60806.68
843.4280, 60773.31
843.9102, 60713.63
844.3923, 60686.91
844.8744, 60677.66
845.3565, 60662.12
845.8386, 60635.16
846.3207, 60602.65
846.8029, 60545.87
847.2850, 60498.63
847.7671, 60489.29
848.2492, 60523.05
848.7313, 60586.31
849.2134, 60689.57
849.6956, 60794.38
850.1777, 60870.45
850.6598, 60917.11
851.1419, 60922.79
851.6240, 60882.04
852.1061, 60842.73
852.5883, 60837.45
853.0704, 60852.68
853.5525, 60878.39
854.0346, 60918.20
854.5167, 60952.48
854.9988, 60987.84
855.4810, 61007.84
855.9631, 60989.18
856.4452, 60930.67
856.9273, 60916.57
857.4094, 60950.57
857.8915, 61004.96
858.3737, 61075.69
858.8558, 61141.76
859.3379, 61171.84
859.8200, 61160.01
860.3021, 61143.67
860.7842, 61128.32
861.2664, 61120.21
861.7485, 61123.65
862.2306, 61139.91
862.7127, 61153.26
863.1948, 61161.13
863.6769, 61177.80
864.1591, 61215.53
864.6412, 61269.28
865.1233, 61339.44
865.6054, 61423.21
866.0875, 61480.45
866.5696, 61467.46
867.0518, 61437.58
867.5339, 61430.63
868.0160, 61450.38
868.4981, 61428.53
868.9802, 61333.32
869.4623, 61263.56
869.9445, 61276.43
870.4266, 61352.51
870.9087, 61398.14
871.3908, 61417.60
871.8729, 61449.77
872.3550, 61545.16
872.8372, 61642.11
873.3193, 61685.45
873.8014, 61681.77
874.2835, 61673.90
874.7656, 61673.59
875.2477, 61666.77
875.7299, 61646.14
876.2120, 61617.15
876.6941, 61598.52
877.1762, 61590.26
877.6583, 61593.46
878.1404, 61610.38
878.6226, 61637.26
879.1047, 61689.54
879.5869, 61747.90
880.0690, 61763.96
880.5511, 61656.91
881.0332, 61577.16
881.5153, 61582.27
881.9974, 61638.40
882.4796, 61678.49
882.9617, 61697.43
883.4438, 61733.18
883.9259, 61803.41
884.4080, 61875.79
884.8901, 61888.40
885.3723, 61863.38
885.8544, 61852.81
886.3365, 61881.39
886.8186, 61916.81
887.3007, 61949.93
887.7828, 61979.27
888.2650, 62002.05
888.7471, 62013.06
889.2292, 62034.16
889.7113, 62073.96
890.1934, 62108.80
890.6755, 62094.19
891.1577, 62049.17
891.6398, 62037.33
892.1219, 62076.47
892.6040, 62118.81
893.0861, 62121.69
893.5682, 62117.27
894.0504, 62140.54
894.5325, 62224.23
895.0146, 62256.73
895.4967, 62212.29
895.9788, 62164.19
896.4609, 62183.79
896.9431, 62258.03
897.4252, 62306.75
897.9073, 62325.56
898.3894, 62329.64
898.8715, 62307.01
899.3536, 62291.83
899.8358, 62326.06
900.3179, 62419.50
900.8000, 62471.37
901.2821, 62440.99
901.7642, 62414.16
902.2463, 62437.06
902.7285, 62499.45
903.2106, 62520.06
903.6927, 62500.37
904.1748, 62482.71
904.6569, 62508.12
905.1390, 62536.79
905.6212, 62512.52
906.1033, 62451.68
906.5854, 62426.41
907.0675, 62485.82
907.5496, 62551.73
908.0317, 62619.34
908.5139, 62675.21
908.9960, 62660.29
909.4781, 62574.23
909.9602, 62523.52
910.4423, 62559.00
910.9244, 62626.02
911.4066, 62662.36
911.8887, 62681.51
912.3708, 62708.82
912.8529, 62759.97
913.3350, 62811.84
913.8171, 62879.52
914.2993, 62932.08
914.7814, 62911.39
915.2635, 62808.50
915.7456, 62754.96
916.2277, 62774.47
916.7098, 62824.56
917.1920, 62874.72
917.6741, 62916.15
918.1562, 62932.82
918.6383, 62914.98
919.1204, 62895.48
919.6025, 62886.75
920.0847, 62877.24
920.5668, 62851.05
921.0489, 62798.13
921.5310, 62810.89
922.0131, 62895.81
922.4952, 62990.67
922.9774, 63068.70
923.4595, 63112.96
923.9416, 63070.66
924.4237, 62947.83
924.9058, 62866.78
925.3879, 62906.88
925.8701, 62968.57
926.3522, 63009.90
926.8343, 63034.41
927.3164, 63071.68
927.7985, 63123.53
928.2806, 63173.50
928.7628, 63218.68
929.2449, 63252.61
929.7270, 63256.51
930.2091, 63240.70
930.6912, 63233.32
931.1733, 63257.53
931.6555, 63278.04
932.1376, 63271.76
932.6197, 63260.64
933.1018, 63290.66
933.5839, 63372.12
934.0660, 63415.85
934.5482, 63400.24
935.0303, 63360.52
935.5124, 63330.32
935.9945, 63311.26
936.4766, 63303.50
936.9587, 63299.04
937.4409, 63327.43
937.9230, 63434.69
938.4051, 63551.46
938.8872, 63625.24
939.3693, 63650.99
939.8514, 63662.95
940.3336, 63659.59
940.8157, 63654.44
941.2978, 63670.53
941.7799, 63685.99
942.2620, 63653.05
942.7441, 63574.08
943.2263, 63529.88
943.7084, 63590.45
944.1905, 63652.30
944.6726, 63663.14
945.1547, 63637.38
945.6368, 63683.53
946.1190, 63808.70
946.6011, 63887.64
947.0832, 63830.01
947.5653, 63734.00
948.0474, 63740.84
948.5295, 63811.94
949.0117, 63857.49
949.4938, 63792.16
949.9759, 63770.02
950.4580, 63844.88
950.9401, 63957.22
951.4222, 64025.70
951.9044, 64050.85
952.3865, 64009.82
952.8686, 63880.95
953.3507, 63772.36
953.8328, 63828.49
954.3149, 63959.63
954.7971, 64055.69
955.2792, 64089.82
955.7613, 64104.59
956.2434, 64100.39
956.7255, 64086.96
957.2076, 64055.41
957.6898, 64008.23
958.1719, 64062.72
958.6540, 64217.15
959.1361, 64326.55
959.6182, 64234.06
960.1003, 64096.70
960.5825, 64057.23
961.0646, 64106.48
961.5467, 64159.20
962.0288, 64196.79
962.5109, 64241.28
962.9930, 64298.98
963.4752, 64364.61
963.9573, 64437.41
964.4394, 64510.05
964.9215, 64537.17
965.4036, 64487.20
965.8857, 64420.41
966.3679, 64383.33
966.8500, 64359.66
967.3321, 64326.27
967.8142, 64248.33
968.2963, 64223.12
968.7784, 64266.32
969.2606, 64331.88
969.7427, 64379.64
970.2248, 64410.77
970.7069, 64426.27
971.1890, 64426.38
971.6711, 64423.39
972.1533, 64407.86
972.6354, 64406.54
973.1175, 64448.25
973.5996, 64531.75
974.0817, 64588.92
974.5638, 64615.05
975.0460, 64630.59
975.5281, 64640.40
976.0102, 64648.62
976.4923, 64676.87
976.9744, 64712.01
977.4565, 64715.60
977.9387, 64609.40
978.4208, 64540.69
978.9029, 64585.51
979.3850, 64686.32
979.8671, 64776.83
980.3492, 64862.95
980.8314, 64892.48
981.3135, 64850.84
981.7956, 64792.07
982.2777, 64764.78
982.7598, 64762.72
983.2419, 64781.47
983.7241, 64822.95
984.2062, 64862.53
984.6883, 64884.01
985.1704, 64911.62
985.6525, 64959.69
986.1346, 65025.42
986.6168, 65087.94
987.0989, 65146.30
987.5810, 65170.47
988.0631, 65092.48
988.5452, 65014.93
989.0273, 65065.65
989.5095, 65193.03
989.9916, 65262.60
990.4737, 65182.13
990.9558, 65151.00
991.4379, 65212.73
991.9200, 65304.09
992.4022, 65319.07
992.8843, 65275.58
993.3664, 65256.87
993.8485, 65284.05
994.3306, 65300.48
994.8127, 65255.86
995.2949, 65190.78
995.7770, 65131.27
996.2591, 65071.93
996.7412, 65076.87
997.2233, 65158.48
997.7054, 65259.01
998.1876, 65361.14
998.6697, 65450.23
999.1518, 65486.41
999.6339, 65479.80
1000.116, 65471.87
1000.598, 65492.07
1001.080, 65500.95
1001.562, 65464.89
1002.044, 65418.20
1002.527, 65426.98
1003.009, 65494.91
1003.491, 65575.25
1003.973, 65669.89
1004.455, 65726.08
1004.937, 65633.67
1005.419, 65491.83
1005.901, 65428.15
1006.384, 65479.34
1006.866, 65552.46
1007.348, 65661.98
1007.830, 65748.57
1008.312, 65762.67
1008.794, 65722.73
1009.276, 65753.13
1009.758, 65843.94
1010.240, 65913.09
1010.723, 65902.36
1011.205, 65865.08
1011.687, 65812.36
1012.169, 65761.27
1012.651, 65753.53
1013.133, 65799.61
1013.615, 65863.55
1014.097, 65947.89
1014.580, 66027.86
1015.062, 66057.33
1015.544, 66060.05
1016.026, 66089.78
1016.508, 66165.95
1016.990, 66210.08
1017.472, 66156.62
1017.954, 66092.87
1018.436, 66067.66
1018.919, 66079.63
1019.401, 66104.49
1019.883, 66142.32
1020.365, 66156.89
1020.847, 66069.91
1021.329, 65997.44
1021.811, 66106.98
1022.293, 66318.44
1022.776, 66434.23
1023.258, 66341.52
1023.740, 66276.08
1024.222, 66267.25
1024.704, 66281.93
1025.186, 66272.05
1025.668, 66247.33
1026.150, 66248.55
1026.632, 66284.40
1027.115, 66303.75
1027.597, 66235.74
1028.079, 66175.01
1028.561, 66201.64
1029.043, 66310.04
1029.525, 66354.70
1030.007, 66325.03
1030.489, 66317.07
1030.972, 66410.62
1031.454, 66509.56
1031.936, 66441.76
1032.418, 66281.23
1032.900, 66187.66
1033.382, 66247.96
1033.864, 66332.96
1034.346, 66452.00
1034.828, 66557.76
1035.311, 66582.30
1035.793, 66539.47
1036.275, 66517.45
1036.757, 66523.22
1037.239, 66543.55
1037.721, 66602.20
1038.203, 66643.58
1038.685, 66607.52
1039.167, 66505.32
1039.650, 66454.28
1040.132, 66457.28
1040.614, 66507.28
1041.096, 66622.38
1041.578, 66746.82
1042.060, 66761.37
1042.542, 66724.62
1043.024, 66755.38
1043.507, 66968.01
1043.989, 67085.93
1044.471, 66995.63
1044.953, 66872.86
1045.435, 66860.17
1045.917, 66947.51
1046.399, 67001.31
1046.881, 67020.42
1047.364, 67038.08
1047.846, 67096.12
1048.328, 67142.48
1048.810, 67117.16
1049.292, 67045.94
1049.774, 67047.49
1050.256, 67151.40
1050.738, 67224.40
1051.220, 67235.64
1051.703, 67217.64
1052.185, 67214.91
1052.667, 67215.95
1053.149, 67193.70
1053.631, 67130.70
1054.113, 67103.72
1054.595, 67163.84
1055.077, 67230.23
1055.559, 67266.07
1056.042, 67273.16
1056.524, 67252.77
1057.006, 67210.15
1057.488, 67188.27
1057.970, 67233.04
1058.452, 67282.70
1058.934, 67289.71
1059.416, 67278.16
1059.899, 67298.08
1060.381, 67369.19
1060.863, 67399.49
1061.345, 67373.69
1061.827, 67340.34
1062.309, 67340.60
1062.791, 67370.08
1063.273, 67439.27
1063.755, 67546.86
1064.238, 67613.27
1064.720, 67584.92
1065.202, 67552.50
1065.684, 67537.88
1066.166, 67540.02
1066.648, 67565.18
1067.130, 67606.87
1067.612, 67637.32
1068.094, 67648.73
1068.577, 67644.19
1069.059, 67604.44
1069.541, 67564.14
1070.023, 67558.68
1070.505, 67595.88
1070.987, 67620.34
1071.469, 67630.07
1071.951, 67648.94
1072.434, 67706.25
1072.916, 67772.71
1073.398, 67820.59
1073.880, 67848.88
1074.362, 67856.30
1074.844, 67831.94
1075.326, 67799.30
1075.808, 67744.16
1076.291, 67711.70
1076.773, 67801.77
1077.255, 67962.77
1077.737, 68034.73
1078.219, 67990.35
1078.701, 67943.67
1079.183, 67961.49
1079.665, 67982.05
1080.147, 67968.64
1080.630, 67930.40
1081.112, 67917.39
1081.594, 67929.64
1082.076, 67972.40
1082.558, 68064.11
1083.040, 68155.27
1083.522, 68215.45
1084.004, 68241.98
1084.486, 68224.91
1084.969, 68138.54
1085.451, 68077.46
1085.933, 68038.45
1086.415, 68038.66
1086.897, 68120.58
1087.379, 68235.98
1087.861, 68309.71
1088.343, 68341.72
1088.826, 68340.66
1089.308, 68265.97
1089.790, 68215.70
1090.272, 68205.20
1090.754, 68228.76
1091.236, 68292.13
1091.718, 68384.32
1092.200, 68455.55
1092.682, 68497.62
1093.165, 68523.52
1093.647, 68522.09
1094.129, 68525.09
1094.611, 68568.31
1095.093, 68638.98
1095.575, 68629.43
1096.057, 68535.66
1096.539, 68459.27
1097.022, 68433.02
1097.504, 68451.53
1097.986, 68554.61
1098.468, 68680.51
1098.950, 68738.03
1099.432, 68677.11
1099.914, 68644.01
1100.396, 68637.52
1100.879, 68664.11
1101.361, 68757.38
1101.843, 68873.83
1102.325, 68931.61
1102.807, 68938.33
1103.289, 68924.96
1103.771, 68873.73
1104.253, 68844.30
1104.735, 68852.56
1105.218, 68877.51
1105.700, 68887.63
1106.182, 68888.05
1106.664, 68910.13
1107.146, 68958.03
1107.628, 68988.97
1108.110, 68929.55
1108.592, 68895.07
1109.074, 68993.10
1109.557, 69167.87
1110.039, 69151.64
1110.521, 68940.59
1111.003, 68850.52
1111.485, 69014.41
1111.967, 69204.23
1112.449, 69169.13
1112.931, 69060.65
1113.414, 69058.99
1113.896, 69218.33
1114.378, 69277.41
1114.860, 69211.91
1115.342, 69153.57
1115.824, 69203.16
1116.306, 69282.22
1116.788, 69223.82
1117.271, 69101.76
1117.753, 69080.53
1118.235, 69360.32
1118.717, 69515.08
1119.199, 69482.06
1119.681, 69391.30
1120.163, 69357.66
1120.645, 69371.75
1121.127, 69413.51
1121.609, 69479.57
1122.092, 69549.96
1122.574, 69646.42
1123.056, 69702.49
1123.538, 69673.73
1124.020, 69612.85
1124.502, 69633.91
1124.984, 69726.10
1125.466, 69798.53
1125.949, 69833.03
1126.431, 69854.14
1126.913, 69893.87
1127.395, 69912.73
1127.877, 69863.90
1128.359, 69760.84
1128.841, 69711.62
1129.323, 69718.72
1129.806, 69734.23
1130.288, 69737.56
1130.770, 69748.95
1131.252, 69800.06
1131.734, 69866.48
1132.216, 69911.31
1132.698, 69914.56
1133.180, 69976.82
1133.662, 70128.70
1134.145, 70207.61
1134.627, 70008.52
1135.109, 69740.45
1135.591, 69780.66
1136.073, 70019.15
1136.555, 70176.17
1137.037, 70081.58
1137.519, 70039.02
1138.001, 70077.71
1138.484, 70147.37
1138.966, 70220.27
1139.448, 70277.19
1139.930, 70233.23
1140.412, 70102.59
1140.894, 70047.48
1141.376, 70241.91
1141.858, 70378.55
1142.341, 70350.43
1142.823, 70252.30
1143.305, 70277.00
1143.787, 70389.66
1144.269, 70416.82
1144.751, 70319.43
1145.233, 70250.98
1145.715, 70338.12
1146.198, 70439.12
1146.680, 70468.57
1147.162, 70446.93
1147.644, 70482.42
1148.126, 70568.67
1148.608, 70609.89
1149.090, 70548.91
1149.572, 70508.67
1150.054, 70628.23
1150.536, 70779.88
1151.019, 70842.72
1151.501, 70810.53
1151.983, 70730.38
1152.465, 70597.82
1152.947, 70517.85
1153.429, 70587.14
1153.911, 70689.22
1154.393, 70694.42
1154.876, 70660.98
1155.358, 70702.09
1155.840, 70880.88
1156.322, 70951.26
1156.804, 70895.13
1157.286, 70805.34
1157.768, 70715.66
1158.250, 70664.02
1158.733, 70722.81
1159.215, 70864.92
1159.697, 70989.89
1160.179, 71110.81
1160.661, 71138.73
1161.143, 71031.99
1161.625, 70919.35
1162.107, 71004.91
1162.589, 71159.88
1163.072, 71127.73
1163.554, 70905.98
1164.036, 70787.30
1164.518, 70925.55
1165.000, 71032.72
1165.482, 71029.49
1165.964, 70981.15
1166.446, 70997.34
1166.928, 71061.85
1167.411, 71152.81
1167.893, 71276.49
1168.375, 71348.54
1168.857, 71307.33
1169.339, 71250.69
1169.821, 71210.83
1170.303, 71184.38
1170.785, 71149.95
1171.268, 71119.40
1171.750, 71134.30
1172.232, 71222.77
1172.714, 71318.66
1173.196, 71436.13
1173.678, 71509.20
1174.160, 71472.82
1174.642, 71351.88
1175.125, 71315.28
1175.607, 71352.22
1176.089, 71405.41
1176.571, 71467.13
1177.053, 71513.89
1177.535, 71524.13
1178.017, 71522.70
1178.499, 71524.95
1178.981, 71531.30
1179.464, 71594.34
1179.946, 71708.90
1180.428, 71784.98
1180.910, 71715.30
1181.392, 71647.46
1181.874, 71669.52
1182.356, 71739.31
1182.838, 71803.91
1183.320, 71865.47
1183.803, 71850.16
1184.285, 71749.31
1184.767, 71673.61
1185.249, 71734.26
1185.731, 71821.12
1186.213, 71855.64
1186.695, 71856.29
1187.177, 71889.11
1187.660, 71959.13
1188.142, 71971.86
1188.624, 71903.77
1189.106, 71843.45
1189.588, 71882.99
1190.070, 71951.18
1190.552, 71983.14
1191.034, 71986.07
1191.516, 72049.48
1191.999, 72188.35
1192.481, 72227.66
1192.963, 72095.79
1193.445, 71958.55
1193.927, 72012.56
1194.409, 72123.98
1194.891, 72146.15
1195.373, 72067.01
1195.855, 72049.85
1196.338, 72101.63
1196.820, 72156.80
1197.302, 72198.39
1197.784, 72214.42
1198.266, 72136.23
1198.748, 72053.68
1199.230, 72111.88
1199.712, 72367.85
1200.195, 72442.27
1200.677, 72306.72
1201.159, 72190.12
1201.641, 72238.13
1202.123, 72337.70
1202.605, 72349.01
1203.087, 72326.74
1203.569, 72371.39
1204.052, 72547.46
1204.534, 72612.09
1205.016, 72548.59
1205.498, 72476.45
1205.980, 72497.66
1206.462, 72538.69
1206.944, 72492.05
1207.426, 72402.77
1207.908, 72381.52
1208.391, 72464.50
1208.873, 72532.71
1209.355, 72580.08
1209.837, 72622.41
1210.319, 72676.90
1210.801, 72730.44
1211.283, 72773.93
1211.765, 72803.05
1212.247, 72799.80
1212.730, 72751.38
1213.212, 72709.06
1213.694, 72673.91
1214.176, 72666.66
1214.658, 72727.66
1215.140, 72812.69
1215.622, 72881.16
1216.104, 72928.26
1216.587, 72937.91
1217.069, 72888.58
1217.551, 72880.48
1218.033, 72934.51
1218.515, 73013.05
1218.997, 73095.89
1219.479, 73165.46
1219.961, 73209.51
1220.443, 73222.48
1220.926, 73165.43
1221.408, 73001.85
1221.890, 72925.52
1222.372, 73000.20
1222.854, 73110.74
1223.336, 73122.41
1223.818, 73090.72
1224.300, 73067.34
1224.782, 73060.23
1225.265, 73110.04
1225.747, 73235.48
1226.229, 73324.93
1226.711, 73336.61
1227.193, 73319.56
1227.675, 73337.16
1228.157, 73357.59
1228.639, 73328.38
1229.122, 73235.45
1229.604, 73221.24
1230.086, 73294.77
1230.568, 73391.25
1231.050, 73504.73
1231.532, 73590.42
1232.014, 73571.93
1232.496, 73509.13
1232.979, 73474.63
1233.461, 73476.19
1233.943, 73491.17
1234.425, 73521.29
1234.907, 73545.84
1235.389, 73551.18
1235.871, 73553.08
1236.353, 73564.59
1236.835, 73583.88
1237.318, 73617.45
1237.800, 73675.77
1238.282, 73648.15
1238.764, 73528.74
1239.246, 73448.92
1239.728, 73511.09
1240.210, 73606.55
1240.692, 73629.81
1241.175, 73639.69
1241.657, 73729.54
1242.139, 73930.59
1242.621, 73994.06
1243.103, 73919.26
1243.585, 73858.95
1244.067, 73950.22
1244.549, 74041.09
1245.031, 74003.85
1245.514, 73916.98
1245.996, 73887.15
1246.478, 73916.30
1246.960, 73997.73
1247.442, 74127.36
1247.924, 74226.50
1248.406, 74228.28
1248.888, 74201.77
1249.370, 74167.81
1249.853, 74138.70
1250.335, 74124.92
1250.817, 74127.07
1251.299, 74178.65
1251.781, 74276.37
1252.263, 74354.16
1252.745, 74350.80
1253.227, 74342.10
1253.710, 74353.93
1254.192, 74385.05
1254.674, 74455.65
1255.156, 74551.94
1255.638, 74557.28
1256.120, 74473.16
1256.602, 74400.44
1257.084, 74402.70
1257.567, 74415.77
1258.049, 74414.90
1258.531, 74417.25
1259.013, 74453.77
1259.495, 74513.88
1259.977, 74559.80
1260.459, 74589.20
1260.941, 74612.45
1261.423, 74626.89
1261.906, 74647.09
1262.388, 74683.67
1262.870, 74715.17
1263.352, 74697.64
1263.834, 74654.82
1264.316, 74636.51
1264.798, 74647.85
1265.280, 74688.34
1265.762, 74807.80
1266.245, 74866.32
1266.727, 74817.16
1267.209, 74749.87
1267.691, 74804.75
1268.173, 74916.88
1268.655, 74984.56
1269.137, 74999.65
1269.619, 74983.87
1270.102, 74912.33
1270.584, 74899.64
1271.066, 74985.13
1271.548, 75083.80
1272.030, 75071.92
1272.512, 75021.95
1272.994, 75011.37
1273.476, 75049.27
1273.958, 75130.80
1274.441, 75277.68
1274.923, 75346.06
1275.405, 75291.39
1275.887, 75207.84
1276.369, 75185.02
1276.851, 75187.18
1277.333, 75186.31
1277.815, 75179.98
1278.297, 75158.83
1278.780, 75120.54
1279.262, 75122.75
1279.744, 75181.54
1280.226, 75264.00
1280.708, 75365.61
1281.190, 75461.72
1281.672, 75547.61
1282.154, 75612.23
1282.637, 75595.06
1283.119, 75504.77
1283.601, 75413.52
1284.083, 75327.61
1284.565, 75302.84
1285.047, 75432.80
1285.529, 75568.09
1286.011, 75639.65
1286.494, 75660.67
1286.976, 75662.45
1287.458, 75644.03
1287.940, 75583.63
1288.422, 75463.51
1288.904, 75416.65
1289.386, 75577.26
1289.868, 75703.51
1290.350, 75703.66
1290.833, 75643.45
1291.315, 75647.66
1291.797, 75691.84
1292.279, 75728.66
1292.761, 75748.45
1293.243, 75770.87
1293.725, 75795.56
1294.207, 75834.16
1294.689, 75902.34
1295.172, 75958.77
1295.654, 75900.52
1296.136, 75816.97
1296.618, 75853.04
1297.100, 76044.14
1297.582, 76092.45
1298.064, 75971.04
1298.546, 75879.70
1299.029, 75881.26
1299.511, 75932.36
1299.993, 76001.77
1300.475, 76087.50
1300.957, 76226.58
1301.439, 76391.98
1301.921, 76360.27
1302.403, 76140.29
1302.885, 76006.97
1303.368, 76052.75
1303.850, 76122.71
1304.332, 76101.94
1304.814, 76078.40
1305.296, 76116.12
1305.778, 76189.21
1306.260, 76195.85
1306.742, 76155.01
1307.224, 76151.71
1307.707, 76218.94
1308.189, 76253.02
1308.671, 76159.38
1309.153, 76096.95
1309.635, 76131.72
1310.117, 76220.43
1310.599, 76279.58
1311.081, 76320.30
1311.564, 76363.99
1312.046, 76415.09
1312.528, 76466.78
1313.010, 76539.55
1313.492, 76541.53
1313.974, 76413.24
1314.456, 76270.70
1314.938, 76280.62
##END=



