##NAMES=Talmessite
##RRUFFID=R060369
##IDEAL CHEMISTRY=Ca_2_Mg(As^5+^O_4_)_2_&#183;2H_2_O
##LOCALITY=Gold Hill, Tooele County, Utah, USA
##OWNER=RRUFF
##SOURCE=Michael Scott
##DESCRIPTION=Colorless saddle-shaped crystals associated with austinite
##STATUS=The identification of this mineral has been confirmed by single-crystal X-ray diffraction.
##URL=rruff.info/R060369
90.01007, 0.0000000E+00
90.49219, 6.003758
90.97430, 5.654004
91.45642, 5.529829
91.93854, 5.885202
92.42065, 6.391843
92.90277, 6.502750
93.38489, 6.118155
93.86700, 5.642261
94.34912, 5.618218
94.83124, 5.976384
95.31335, 6.318787
95.79547, 6.465245
96.27759, 6.411294
96.75970, 6.119178
97.24182, 5.537142
97.72394, 4.774667
98.20605, 3.874482
98.68817, 2.767223
99.17029, 2.079703
99.65240, 2.718524
100.1345, 4.833950
100.6166, 5.961607
101.0988, 5.212586
101.5809, 2.920362
102.0630, 1.970473
102.5451, 2.679830
103.0272, 4.150931
103.5093, 5.589512
103.9915, 7.248327
104.4736, 8.154398
104.9557, 7.732305
105.4378, 5.550149
105.9199, 4.551675
106.4020, 5.465962
106.8842, 7.201406
107.3663, 7.837411
107.8484, 6.556114
108.3305, 5.113616
108.8126, 4.117230
109.2947, 3.927624
109.7769, 3.581168
110.2590, 2.568627
110.7411, 1.308703
111.2232, 1.128604
111.7053, 3.880211
112.1874, 6.430853
112.6696, 7.351737
113.1517, 4.116241
113.6338, 1.819991
114.1159, 1.677357
114.5980, 3.375260
115.0801, 4.647477
115.5623, 4.516747
116.0444, 3.969926
116.5265, 3.770618
117.0086, 4.629157
117.4907, 5.418542
117.9728, 5.534199
118.4550, 4.934922
118.9371, 4.628018
119.4192, 5.688263
119.9013, 7.163179
120.3834, 7.820240
120.8655, 6.204265
121.3477, 4.193012
121.8298, 3.228079
122.3119, 3.569330
122.7940, 4.110035
123.2761, 4.228822
123.7582, 3.973564
124.2404, 3.450930
124.7225, 1.830606
125.2046, 0.2793788
125.6867, 0.5199386
126.1688, 3.316470
126.6509, 6.664824
127.1331, 8.589607
127.6152, 9.213569
128.0973, 9.147324
128.5794, 8.305059
129.0615, 7.068017
129.5436, 6.415360
130.0258, 6.806319
130.5079, 7.607708
130.9900, 7.458129
131.4721, 6.359912
131.9542, 5.500546
132.4363, 6.267297
132.9185, 8.399366
133.4006, 10.06035
133.8827, 10.51790
134.3648, 10.16602
134.8469, 10.49831
135.3290, 11.60288
135.8112, 13.01079
136.2933, 14.20287
136.7754, 15.17296
137.2575, 16.11382
137.7396, 17.06771
138.2217, 18.02066
138.7039, 18.97992
139.1860, 19.77277
139.6681, 20.85025
140.1502, 23.16417
140.6323, 27.12274
141.1144, 30.88187
141.5966, 33.71122
142.0787, 35.42000
142.5608, 36.99170
143.0429, 38.52878
143.5250, 39.87115
144.0071, 40.39428
144.4893, 39.07050
144.9714, 38.59227
145.4535, 40.46100
145.9356, 46.81445
146.4177, 51.21745
146.8998, 52.80604
147.3820, 52.29490
147.8641, 52.70773
148.3462, 54.46801
148.8283, 56.74691
149.3104, 59.12416
149.7925, 61.22636
150.2747, 63.91011
150.7568, 67.57495
151.2389, 72.09796
151.7210, 75.96056
152.2031, 78.76619
152.6852, 81.11928
153.1674, 83.42455
153.6495, 85.34399
154.1316, 87.56316
154.6137, 90.46843
155.0958, 94.08237
155.5779, 97.05342
156.0601, 98.18818
156.5422, 99.08342
157.0243, 101.0933
157.5064, 105.8464
157.9885, 110.4488
158.4706, 113.8897
158.9528, 115.9544
159.4349, 118.3379
159.9170, 122.1366
160.3991, 126.2881
160.8812, 129.5641
161.3633, 130.8526
161.8455, 131.7987
162.3276, 133.3421
162.8097, 135.8272
163.2918, 137.5143
163.7739, 136.6772
164.2560, 134.5659
164.7382, 132.5532
165.2203, 133.4461
165.7024, 134.8371
166.1845, 134.8641
166.6666, 132.8287
167.1487, 131.0058
167.6309, 130.7090
168.1130, 131.5054
168.5951, 132.4930
169.0772, 133.5957
169.5593, 134.5219
170.0414, 134.9324
170.5236, 134.5450
171.0057, 134.1742
171.4878, 134.3739
171.9699, 135.0600
172.4520, 135.9802
172.9341, 137.3909
173.4163, 138.8169
173.8984, 139.5598
174.3805, 138.9810
174.8626, 138.4936
175.3447, 139.8876
175.8268, 142.7625
176.3090, 145.2710
176.7911, 145.6701
177.2732, 144.9543
177.7553, 144.7603
178.2374, 145.7699
178.7195, 147.1690
179.2017, 147.9557
179.6838, 148.1750
180.1659, 148.1622
180.6480, 148.3032
181.1301, 148.4185
181.6122, 148.0168
182.0944, 146.4963
182.5765, 144.7235
183.0586, 144.2724
183.5407, 145.1337
184.0228, 146.3786
184.5049, 147.4096
184.9871, 148.1955
185.4692, 148.5513
185.9513, 148.1987
186.4334, 147.4690
186.9155, 147.1441
187.3976, 147.2448
187.8798, 147.5192
188.3619, 147.7154
188.8440, 147.8555
189.3261, 148.0601
189.8082, 148.2754
190.2903, 148.5877
190.7725, 149.3745
191.2546, 150.6977
191.7367, 152.2205
192.2188, 153.4821
192.7009, 154.5202
193.1830, 155.8603
193.6652, 157.6967
194.1473, 160.0104
194.6294, 162.8252
195.1115, 166.3597
195.5936, 169.6784
196.0757, 171.3870
196.5579, 171.4445
197.0400, 171.2124
197.5221, 171.3902
198.0042, 171.9038
198.4863, 171.4551
198.9684, 169.9086
199.4506, 167.7027
199.9327, 165.4651
200.4148, 163.1973
200.8969, 160.8030
201.3790, 157.9337
201.8611, 154.5488
202.3433, 152.3726
202.8254, 151.6936
203.3075, 151.7482
203.7896, 151.1882
204.2717, 149.8526
204.7538, 148.6944
205.2360, 148.2700
205.7181, 148.7094
206.2002, 148.5908
206.6823, 147.6976
207.1644, 146.5063
207.6465, 145.9265
208.1287, 146.0851
208.6108, 146.4237
209.0929, 146.7254
209.5750, 146.9891
210.0571, 147.2153
210.5392, 147.3366
211.0214, 147.4885
211.5035, 148.0876
211.9856, 149.4116
212.4677, 150.4128
212.9498, 150.4157
213.4319, 149.0089
213.9140, 148.4521
214.3962, 149.1875
214.8783, 150.5093
215.3604, 150.6610
215.8425, 149.1528
216.3246, 147.5775
216.8067, 146.6999
217.2889, 146.7904
217.7710, 146.6230
218.2531, 145.9826
218.7352, 145.1716
219.2173, 145.0228
219.6994, 145.9959
220.1816, 146.7466
220.6637, 146.4574
221.1458, 144.3389
221.6279, 143.5241
222.1100, 144.4772
222.5921, 146.5861
223.0743, 148.3977
223.5564, 150.1108
224.0385, 151.1641
224.5206, 151.0592
225.0027, 148.9815
225.4848, 148.0156
225.9670, 148.7089
226.4491, 150.3824
226.9312, 151.2413
227.4133, 150.9169
227.8954, 150.3644
228.3775, 149.9101
228.8597, 149.1958
229.3418, 149.5081
229.8239, 151.3551
230.3060, 154.1025
230.7881, 155.9667
231.2702, 156.8169
231.7524, 156.9994
232.2345, 156.4404
232.7166, 154.1407
233.1987, 153.4903
233.6808, 155.2063
234.1629, 158.3853
234.6451, 160.6509
235.1272, 161.5966
235.6093, 162.2159
236.0914, 162.9776
236.5735, 164.1676
237.0556, 164.8222
237.5378, 164.6464
238.0199, 164.0291
238.5020, 163.9739
238.9841, 164.7736
239.4662, 165.7078
239.9483, 166.5043
240.4305, 167.1918
240.9126, 167.6836
241.3947, 168.1286
241.8768, 168.3300
242.3589, 167.6848
242.8410, 165.5174
243.3232, 163.5347
243.8053, 162.5818
244.2874, 163.3832
244.7695, 163.4029
245.2516, 162.2466
245.7337, 160.4647
246.2159, 159.2747
246.6980, 158.8113
247.1801, 158.7319
247.6622, 158.9768
248.1443, 159.7610
248.6264, 160.2690
249.1086, 160.4487
249.5907, 160.3857
250.0728, 160.2829
250.5549, 160.2969
251.0370, 160.0006
251.5191, 159.0555
252.0013, 156.9960
252.4834, 155.9523
252.9655, 156.4879
253.4476, 157.7050
253.9297, 157.8320
254.4118, 156.1680
254.8940, 154.7263
255.3761, 154.4034
255.8582, 155.7098
256.3403, 155.9696
256.8224, 154.5873
257.3046, 152.6178
257.7867, 151.9501
258.2688, 153.2198
258.7509, 154.4379
259.2330, 154.8400
259.7151, 154.2028
260.1973, 154.1932
260.6794, 155.2020
261.1615, 156.4621
261.6436, 156.6339
262.1257, 155.0061
262.6078, 154.0464
263.0900, 154.7518
263.5721, 157.3728
264.0542, 159.2112
264.5363, 160.0704
265.0184, 160.4002
265.5005, 160.7273
265.9827, 160.9630
266.4648, 161.4476
266.9469, 162.3445
267.4290, 163.6593
267.9111, 164.8283
268.3932, 165.8089
268.8754, 166.6937
269.3575, 167.5763
269.8396, 168.4642
270.3217, 169.3664
270.8038, 170.3490
271.2859, 171.4010
271.7681, 171.9813
272.2502, 171.8106
272.7323, 171.7484
273.2144, 172.8225
273.6965, 175.2793
274.1786, 177.5760
274.6608, 179.4999
275.1429, 181.0156
275.6250, 181.9770
276.1071, 182.4330
276.5892, 182.2046
277.0714, 180.7524
277.5535, 177.8524
278.0356, 175.8086
278.5177, 175.3361
278.9998, 175.9709
279.4819, 175.7505
279.9641, 174.5352
280.4462, 173.0475
280.9283, 171.9682
281.4104, 171.3369
281.8925, 170.1015
282.3746, 167.8255
282.8568, 165.0537
283.3389, 163.4726
283.8210, 163.2080
284.3031, 163.1489
284.7852, 162.5528
285.2673, 161.4445
285.7495, 160.1173
286.2316, 158.4408
286.7137, 156.7937
287.1958, 156.1844
287.6779, 156.6467
288.1600, 157.0300
288.6422, 156.2848
289.1243, 154.6484
289.6064, 154.0210
290.0885, 154.7746
290.5706, 156.0085
291.0527, 156.0133
291.5349, 154.8968
292.0170, 154.2294
292.4991, 155.3339
292.9812, 157.6645
293.4633, 159.1428
293.9454, 159.5755
294.4276, 159.5753
294.9097, 159.7895
295.3918, 160.2189
295.8739, 160.8739
296.3560, 162.1542
296.8381, 163.6220
297.3203, 163.9243
297.8024, 162.9017
298.2845, 161.9290
298.7666, 162.7769
299.2487, 164.9239
299.7308, 166.7929
300.2130, 167.3313
300.6951, 167.3483
301.1772, 168.0980
301.6593, 169.5732
302.1414, 171.5891
302.6235, 174.4335
303.1057, 177.6803
303.5878, 180.4054
304.0699, 182.3139
304.5520, 183.5819
305.0341, 184.1696
305.5162, 184.1546
305.9984, 184.2124
306.4805, 185.1836
306.9626, 186.4333
307.4447, 187.0527
307.9268, 186.6901
308.4089, 185.7685
308.8911, 184.5972
309.3732, 183.1659
309.8553, 181.4374
310.3374, 179.4581
310.8195, 177.1343
311.3016, 174.2122
311.7838, 170.1223
312.2659, 166.5489
312.7480, 165.2617
313.2301, 165.4398
313.7122, 165.0120
314.1943, 162.0386
314.6765, 158.7334
315.1586, 156.7428
315.6407, 156.5886
316.1228, 156.7439
316.6049, 156.7857
317.0870, 156.6272
317.5692, 156.1284
318.0513, 154.4377
318.5334, 153.0397
319.0155, 152.9136
319.4976, 154.3554
319.9797, 155.4216
320.4619, 155.1265
320.9440, 154.2370
321.4261, 153.6171
321.9082, 153.5993
322.3903, 153.7507
322.8724, 154.1060
323.3546, 154.6694
323.8367, 154.8235
324.3188, 153.7523
324.8009, 152.6096
325.2830, 152.2864
325.7651, 154.1989
326.2473, 155.4839
326.7294, 155.3379
327.2115, 153.9846
327.6936, 153.2021
328.1757, 153.3013
328.6578, 153.8512
329.1400, 154.6520
329.6221, 156.0790
330.1042, 157.2398
330.5863, 158.1676
331.0684, 158.8263
331.5505, 159.0483
332.0327, 158.1378
332.5148, 157.6067
332.9969, 158.1698
333.4790, 160.4138
333.9611, 162.0610
334.4432, 162.7766
334.9254, 163.0904
335.4075, 163.9727
335.8896, 165.8800
336.3717, 167.4239
336.8538, 167.8870
337.3359, 167.0606
337.8180, 167.6840
338.3001, 170.3982
338.7823, 173.5816
339.2644, 174.9875
339.7465, 173.9402
340.2286, 174.1845
340.7107, 176.9933
341.1928, 181.9538
341.6750, 185.8667
342.1571, 188.6592
342.6392, 190.8874
343.1213, 192.6898
343.6034, 194.0285
344.0855, 196.4341
344.5677, 200.4163
345.0498, 205.3131
345.5319, 209.5203
346.0140, 213.0302
346.4961, 216.0706
346.9782, 218.2962
347.4604, 220.0400
347.9425, 222.9106
348.4246, 227.2402
348.9067, 232.2722
349.3888, 237.2731
349.8709, 242.1699
350.3531, 246.5420
350.8352, 249.5973
351.3173, 252.1009
351.7994, 255.8327
352.2815, 260.9341
352.7636, 266.0606
353.2458, 269.8484
353.7279, 272.6939
354.2100, 275.4472
354.6921, 278.2887
355.1742, 281.2739
355.6563, 284.6760
356.1385, 288.4228
356.6206, 291.9341
357.1027, 294.8713
357.5848, 297.3176
358.0669, 299.4036
358.5490, 301.1088
359.0312, 302.5265
359.5133, 303.5524
359.9954, 304.3092
360.4775, 305.1958
360.9596, 307.5559
361.4417, 309.3515
361.9239, 308.9837
362.4060, 305.5509
362.8881, 301.8801
363.3702, 299.4038
363.8523, 297.2847
364.3344, 294.2393
364.8166, 289.9019
365.2987, 284.5433
365.7808, 278.1115
366.2629, 270.4311
366.7450, 262.8379
367.2271, 255.5943
367.7093, 248.5072
368.1914, 241.4067
368.6735, 233.2951
369.1556, 226.2203
369.6377, 221.0962
370.1198, 217.6144
370.6020, 213.4639
371.0841, 207.5000
371.5662, 201.9117
372.0483, 197.9811
372.5304, 196.6427
373.0125, 195.1530
373.4947, 193.4740
373.9768, 191.6209
374.4589, 189.5619
374.9410, 187.1469
375.4231, 184.8148
375.9052, 182.5981
376.3874, 180.4062
376.8695, 179.0477
377.3516, 178.6277
377.8337, 178.8431
378.3158, 179.5558
378.7979, 180.9121
379.2801, 181.6094
379.7622, 180.9539
380.2443, 179.4004
380.7264, 179.1073
381.2085, 180.2054
381.6906, 181.6573
382.1728, 182.6565
382.6549, 183.2583
383.1370, 183.7061
383.6191, 183.9512
384.1012, 184.2298
384.5833, 184.8837
385.0655, 185.9180
385.5476, 187.3240
386.0297, 189.6413
386.5118, 192.2135
386.9939, 193.8007
387.4760, 194.2139
387.9582, 194.1960
388.4403, 194.6126
388.9224, 195.1125
389.4045, 194.9748
389.8866, 193.3380
390.3687, 191.3288
390.8509, 190.1458
391.3330, 189.6911
391.8151, 188.7347
392.2972, 186.0413
392.7793, 182.7366
393.2614, 179.9015
393.7436, 178.1112
394.2257, 176.4634
394.7078, 174.8095
395.1899, 173.0489
395.6720, 170.9168
396.1541, 167.6470
396.6363, 164.5328
397.1184, 162.2046
397.6005, 160.8757
398.0826, 159.8686
398.5647, 159.1719
399.0468, 158.7133
399.5290, 158.4050
400.0111, 158.4861
400.4932, 158.4550
400.9753, 158.2675
401.4574, 157.9202
401.9395, 157.2747
402.4217, 155.9995
402.9038, 154.7668
403.3859, 154.0855
403.8680, 154.3277
404.3501, 154.1994
404.8322, 153.4474
405.3144, 152.3494
405.7965, 151.6275
406.2786, 151.2827
406.7607, 151.2967
407.2428, 151.9184
407.7249, 153.1922
408.2071, 153.3938
408.6892, 152.2321
409.1713, 150.8585
409.6534, 150.8874
410.1355, 152.2460
410.6176, 153.4500
411.0998, 154.1250
411.5819, 154.3348
412.0640, 154.0192
412.5461, 153.2063
413.0282, 152.5445
413.5103, 152.7321
413.9925, 153.4096
414.4746, 153.8605
414.9567, 153.9805
415.4388, 153.8118
415.9209, 153.1568
416.4030, 152.2307
416.8852, 151.5489
417.3673, 151.3556
417.8494, 151.5342
418.3315, 152.1409
418.8136, 153.1790
419.2957, 154.0867
419.7779, 154.7794
420.2600, 155.0823
420.7421, 154.8089
421.2242, 153.2008
421.7063, 151.7506
422.1884, 150.8015
422.6706, 150.3590
423.1527, 150.4030
423.6348, 151.2434
424.1169, 152.3216
424.5990, 153.5189
425.0811, 155.2823
425.5633, 156.0717
426.0454, 154.9242
426.5275, 153.1719
427.0096, 152.5211
427.4917, 153.7178
427.9738, 154.9094
428.4560, 155.7899
428.9381, 156.3651
429.4202, 156.5228
429.9023, 155.9676
430.3844, 155.5322
430.8665, 155.9286
431.3487, 157.3235
431.8308, 158.5306
432.3129, 159.4438
432.7950, 160.1219
433.2771, 160.5099
433.7592, 160.5792
434.2414, 160.9713
434.7235, 162.3329
435.2056, 164.3035
435.6877, 165.2149
436.1698, 164.9808
436.6519, 164.7110
437.1341, 165.7255
437.6162, 167.5777
438.0983, 169.1053
438.5804, 169.8588
439.0625, 170.3499
439.5446, 170.9877
440.0268, 171.8177
440.5089, 173.0047
440.9910, 174.9852
441.4731, 177.1655
441.9552, 179.0215
442.4373, 180.4247
442.9195, 181.7900
443.4016, 183.4790
443.8837, 185.1980
444.3658, 186.5897
444.8479, 186.9560
445.3300, 187.5766
445.8122, 188.9886
446.2943, 191.1019
446.7764, 193.1550
447.2585, 195.2075
447.7406, 197.0405
448.2227, 198.5742
448.7049, 199.9607
449.1870, 200.7148
449.6691, 200.4952
450.1512, 199.8088
450.6333, 199.4367
451.1154, 199.4181
451.5976, 199.6322
452.0797, 200.1137
452.5618, 200.8383
453.0439, 201.4323
453.5260, 201.8717
454.0081, 202.2208
454.4903, 202.5760
454.9724, 202.9311
455.4545, 202.9962
455.9366, 202.6783
456.4187, 202.1768
456.9008, 201.7951
457.3830, 201.5255
457.8651, 201.3440
458.3472, 201.1304
458.8293, 201.0263
459.3114, 201.6708
459.7935, 203.0420
460.2757, 203.7112
460.7578, 201.8680
461.2399, 198.8004
461.7220, 196.3659
462.2041, 195.4442
462.6862, 194.5363
463.1684, 192.7804
463.6505, 190.2907
464.1326, 187.3697
464.6147, 183.3284
465.0968, 179.5316
465.5789, 176.8260
466.0611, 175.3741
466.5432, 174.1044
467.0253, 172.7829
467.5074, 171.5815
467.9895, 170.6572
468.4716, 171.0311
468.9538, 170.3200
469.4359, 167.6552
469.9180, 163.8323
470.4001, 161.4570
470.8822, 161.2085
471.3643, 161.2432
471.8465, 160.8369
472.3286, 159.9428
472.8107, 159.1198
473.2928, 158.3875
473.7749, 157.7101
474.2570, 157.1512
474.7392, 156.7093
475.2213, 155.9128
475.7034, 154.4313
476.1855, 152.8140
476.6676, 152.3470
477.1497, 152.9284
477.6319, 153.6029
478.1140, 153.9864
478.5961, 154.0331
479.0782, 153.5734
479.5603, 152.5683
480.0424, 151.4377
480.5246, 150.2410
481.0067, 149.2080
481.4888, 148.6825
481.9709, 149.3129
482.4530, 149.8467
482.9352, 149.4126
483.4173, 148.3185
483.8994, 147.5377
484.3815, 147.7505
484.8636, 148.0621
485.3457, 148.0066
485.8279, 147.4155
486.3100, 146.9672
486.7921, 146.8273
487.2742, 146.7961
487.7563, 146.6916
488.2384, 146.3993
488.7206, 146.2257
489.2027, 146.1797
489.6848, 146.2802
490.1669, 146.6935
490.6490, 147.5943
491.1311, 148.2695
491.6133, 148.2722
492.0954, 147.6176
492.5775, 147.1126
493.0596, 146.7533
493.5417, 146.5794
494.0238, 146.9164
494.5060, 147.5696
494.9881, 147.5301
495.4702, 146.2687
495.9523, 144.6425
496.4344, 143.7144
496.9165, 143.4456
497.3987, 143.6897
497.8808, 145.3075
498.3629, 146.8342
498.8450, 146.4841
499.3271, 144.0332
499.8092, 141.9110
500.2914, 141.5909
500.7735, 142.1202
501.2556, 142.5877
501.7377, 142.8045
502.2198, 142.8895
502.7019, 142.8748
503.1841, 142.7470
503.6662, 142.4687
504.1483, 141.4859
504.6304, 140.9431
505.1125, 141.3277
505.5946, 142.7454
506.0768, 143.7154
506.5589, 144.1229
507.0410, 144.2444
507.5231, 144.2956
508.0052, 144.2892
508.4873, 144.1132
508.9695, 143.7014
509.4516, 143.2065
509.9337, 142.8636
510.4158, 142.6758
510.8979, 142.7106
511.3800, 143.0550
511.8622, 143.6232
512.3443, 144.5025
512.8264, 145.6380
513.3085, 146.1598
513.7906, 144.6806
514.2728, 142.4613
514.7549, 141.1904
515.2370, 141.3639
515.7191, 141.9735
516.2012, 142.8277
516.6833, 143.6141
517.1655, 143.8685
517.6476, 142.8402
518.1297, 141.8539
518.6118, 141.4794
519.0939, 141.6583
519.5760, 141.5939
520.0582, 140.9160
520.5403, 140.2124
521.0224, 139.6674
521.5045, 139.0965
521.9866, 139.2893
522.4688, 140.6796
522.9509, 142.3539
523.4330, 143.1229
523.9151, 142.8031
524.3972, 142.6260
524.8793, 142.9931
525.3615, 143.5491
525.8436, 143.0152
526.3257, 141.4152
526.8078, 140.4151
527.2899, 141.8215
527.7720, 144.3845
528.2542, 144.9897
528.7363, 143.4557
529.2184, 141.6453
529.7005, 141.0033
530.1826, 141.1010
530.6647, 141.4251
531.1469, 142.1059
531.6290, 142.5245
532.1111, 141.8673
532.5932, 140.7263
533.0753, 140.3094
533.5574, 141.7896
534.0396, 143.2537
534.5217, 144.0190
535.0038, 144.0115
535.4859, 144.0021
535.9680, 144.2494
536.4501, 144.2647
536.9323, 143.7019
537.4144, 142.2306
537.8965, 141.0435
538.3786, 140.0740
538.8607, 139.5096
539.3428, 139.9163
539.8250, 141.4061
540.3071, 142.3536
540.7892, 142.1031
541.2713, 141.1656
541.7534, 140.8010
542.2355, 140.9629
542.7177, 141.1541
543.1998, 140.8417
543.6819, 140.4397
544.1640, 140.7303
544.6461, 141.8051
545.1282, 142.7960
545.6104, 143.1597
546.0925, 143.0669
546.5746, 142.6746
547.0567, 141.6039
547.5388, 140.8283
548.0209, 140.9395
548.5031, 141.5699
548.9852, 141.9119
549.4673, 141.2065
549.9494, 140.8910
550.4315, 141.5943
550.9136, 143.3088
551.3958, 144.0875
551.8779, 143.5672
552.3600, 142.7227
552.8421, 142.0830
553.3242, 141.6366
553.8063, 141.6060
554.2885, 142.1429
554.7706, 142.7031
555.2527, 142.3395
555.7348, 141.2336
556.2169, 140.5576
556.6990, 140.8646
557.1812, 141.5187
557.6633, 141.5934
558.1454, 141.2214
558.6275, 140.9016
559.1096, 141.0045
559.5917, 141.2206
560.0739, 141.1214
560.5560, 140.6660
561.0381, 140.7827
561.5202, 142.8357
562.0023, 145.0008
562.4844, 145.8797
562.9666, 144.0180
563.4487, 142.7556
563.9308, 142.3957
564.4129, 142.6708
564.8950, 143.2579
565.3771, 144.3839
565.8593, 145.3086
566.3414, 145.9269
566.8235, 146.2061
567.3056, 145.9392
567.7877, 145.0721
568.2698, 144.0503
568.7520, 142.8123
569.2341, 141.5980
569.7162, 141.5674
570.1983, 142.8300
570.6804, 144.0725
571.1625, 143.9422
571.6447, 142.9994
572.1268, 142.1058
572.6089, 141.3828
573.0910, 140.9242
573.5731, 140.7280
574.0552, 140.8415
574.5374, 141.3437
575.0195, 143.1338
575.5016, 144.4355
575.9837, 144.2919
576.4658, 142.8538
576.9479, 142.1626
577.4301, 142.9673
577.9122, 143.6936
578.3943, 143.5426
578.8764, 142.2397
579.3585, 141.6771
579.8406, 142.0586
580.3228, 142.7262
580.8049, 143.0747
581.2870, 143.1074
581.7691, 142.8371
582.2512, 142.1735
582.7333, 141.4216
583.2155, 140.9781
583.6975, 140.8203
584.1796, 140.8635
584.6617, 141.1392
585.1439, 141.5481
585.6260, 142.2235
586.1081, 143.0402
586.5902, 143.3742
587.0723, 142.5588
587.5544, 141.4720
588.0366, 140.5326
588.5187, 139.7510
589.0008, 139.3045
589.4829, 139.4718
589.9650, 139.8119
590.4471, 140.0086
590.9293, 140.0225
591.4114, 139.9688
591.8935, 139.7905
592.3756, 139.6187
592.8577, 139.8268
593.3398, 140.4584
593.8220, 140.6541
594.3041, 139.8229
594.7862, 138.6139
595.2683, 138.7406
595.7504, 140.0356
596.2325, 141.2809
596.7147, 141.5340
597.1968, 141.4164
597.6789, 141.8019
598.1610, 142.7669
598.6431, 143.3209
599.1252, 142.6364
599.6074, 141.4648
600.0895, 140.3736
600.5716, 139.2140
601.0537, 138.5801
601.5358, 138.9569
602.0179, 139.7606
602.5001, 140.2506
602.9822, 140.3003
603.4643, 140.2903
603.9464, 140.3376
604.4285, 140.3460
604.9106, 139.8424
605.3928, 138.7391
605.8749, 137.9440
606.3570, 138.0712
606.8391, 138.8419
607.3212, 139.3288
607.8033, 139.5415
608.2855, 139.7771
608.7676, 140.4946
609.2497, 141.2686
609.7318, 141.3984
610.2139, 140.6032
610.6960, 140.0678
611.1782, 140.7744
611.6603, 141.9303
612.1424, 142.7011
612.6245, 143.0809
613.1066, 142.8295
613.5887, 141.1115
614.0709, 138.9021
614.5530, 138.2909
615.0351, 140.2492
615.5172, 141.7339
615.9993, 141.7889
616.4814, 140.7110
616.9636, 140.0094
617.4457, 139.6779
617.9278, 139.7958
618.4099, 140.7852
618.8920, 142.2338
619.3741, 143.0846
619.8563, 143.3067
620.3384, 142.9890
620.8205, 141.6342
621.3026, 140.0282
621.7847, 139.1828
622.2668, 139.5231
622.7490, 140.0200
623.2311, 140.1830
623.7132, 140.2532
624.1953, 140.5387
624.6774, 141.6966
625.1595, 142.3007
625.6417, 141.8026
626.1238, 140.7035
626.6059, 140.5731
627.0880, 141.8984
627.5701, 142.6918
628.0522, 141.9874
628.5344, 140.1834
629.0165, 139.3519
629.4986, 139.5111
629.9807, 139.8403
630.4628, 139.7079
630.9449, 139.3545
631.4271, 139.3543
631.9092, 139.7713
632.3913, 139.9154
632.8734, 138.6200
633.3555, 137.1214
633.8376, 136.8194
634.3198, 138.9450
634.8019, 140.4474
635.2840, 139.7007
635.7661, 138.1590
636.2482, 137.9151
636.7303, 140.2415
637.2125, 141.7818
637.6946, 141.8250
638.1767, 140.9028
638.6588, 140.6283
639.1409, 141.1501
639.6230, 141.2431
640.1052, 140.0587
640.5873, 138.2141
641.0694, 137.6509
641.5515, 138.2886
642.0336, 139.2559
642.5157, 140.5276
642.9979, 141.5028
643.4800, 141.2123
643.9621, 139.5209
644.4442, 137.9825
644.9263, 137.2686
645.4084, 137.0742
645.8906, 137.1909
646.3727, 137.8052
646.8548, 138.3231
647.3369, 138.6481
647.8190, 138.9013
648.3011, 139.2974
648.7833, 140.0407
649.2654, 140.1218
649.7475, 139.0420
650.2296, 137.6414
650.7117, 137.9630
651.1938, 139.8449
651.6760, 141.3071
652.1581, 141.2548
652.6402, 140.5523
653.1223, 140.5623
653.6044, 141.1112
654.0865, 141.4601
654.5687, 141.0823
655.0508, 140.4581
655.5329, 139.8117
656.0150, 139.1611
656.4971, 138.7003
656.9792, 138.4576
657.4614, 138.4365
657.9435, 138.6396
658.4256, 139.0929
658.9077, 139.6661
659.3898, 140.3250
659.8719, 141.1612
660.3541, 142.6995
660.8362, 144.8734
661.3183, 145.3658
661.8004, 143.5370
662.2825, 140.8804
662.7646, 138.9957
663.2468, 137.8265
663.7289, 137.2455
664.2110, 137.3037
664.6931, 137.8136
665.1752, 139.0739
665.6573, 140.6815
666.1395, 141.7092
666.6216, 141.6037
667.1037, 141.1617
667.5858, 140.2907
668.0679, 139.1489
668.5500, 138.9877
669.0322, 140.4151
669.5143, 141.6096
669.9964, 141.5919
670.4785, 140.4682
670.9606, 140.0451
671.4427, 140.3760
671.9249, 140.8638
672.4070, 141.1584
672.8891, 141.2338
673.3712, 140.9480
673.8533, 140.2527
674.3354, 139.5873
674.8176, 139.3052
675.2997, 139.1959
675.7818, 139.0450
676.2639, 138.7897
676.7460, 138.5176
677.2281, 137.8767
677.7103, 137.4074
678.1924, 137.8734
678.6745, 140.0270
679.1566, 141.3960
679.6387, 141.3699
680.1208, 140.6545
680.6030, 140.9185
681.0851, 142.1501
681.5672, 143.1971
682.0493, 143.7998
682.5314, 143.8091
683.0135, 142.2971
683.4957, 139.7540
683.9778, 138.1720
684.4599, 140.0898
684.9420, 142.1502
685.4241, 141.4547
685.9063, 138.1971
686.3884, 136.1874
686.8705, 137.6663
687.3526, 139.4978
687.8347, 140.2453
688.3168, 139.7056
688.7990, 139.5458
689.2811, 139.9400
689.7632, 140.3256
690.2453, 140.2191
690.7274, 139.6590
691.2095, 139.0984
691.6917, 138.5448
692.1738, 138.1596
692.6559, 138.1850
693.1380, 138.4853
693.6201, 138.8477
694.1022, 139.2426
694.5844, 139.6305
695.0665, 140.0712
695.5486, 140.4557
696.0307, 140.6460
696.5128, 140.7483
696.9949, 140.4309
697.4771, 139.2213
697.9592, 137.7730
698.4413, 137.4970
698.9234, 138.6737
699.4055, 139.9585
699.8876, 141.1647
700.3698, 142.1072
700.8519, 142.1959
701.3340, 141.5175
701.8161, 140.6279
702.2982, 139.5051
702.7803, 138.5305
703.2625, 138.2729
703.7446, 138.6010
704.2267, 138.8419
704.7088, 138.4589
705.1909, 138.1231
705.6730, 138.2569
706.1552, 138.9324
706.6373, 139.3821
707.1194, 139.5653
707.6015, 139.5694
708.0836, 139.3729
708.5657, 138.9553
709.0479, 138.7038
709.5300, 138.6044
710.0121, 138.7396
710.4942, 139.4664
710.9763, 140.4422
711.4584, 140.7541
711.9406, 140.1907
712.4227, 139.6947
712.9048, 140.2178
713.3869, 141.0401
713.8690, 141.3864
714.3511, 140.7732
714.8333, 140.2417
715.3154, 140.1407
715.7975, 140.1391
716.2796, 139.8356
716.7617, 139.0243
717.2438, 138.5422
717.7260, 138.5152
718.2081, 138.8300
718.6902, 139.4910
719.1723, 140.4189
719.6544, 140.8864
720.1365, 140.4085
720.6187, 139.7755
721.1008, 140.0860
721.5829, 140.9661
722.0650, 141.5488
722.5471, 141.0487
723.0292, 140.5770
723.5114, 140.8467
723.9935, 141.6026
724.4756, 141.6563
724.9577, 140.1914
725.4398, 139.2793
725.9219, 139.7912
726.4041, 141.3780
726.8862, 141.8152
727.3683, 140.9881
727.8504, 140.4031
728.3325, 141.3739
728.8146, 143.0423
729.2968, 143.5075
729.7789, 142.8582
730.2610, 141.9844
730.7431, 140.9803
731.2252, 140.3139
731.7073, 140.4893
732.1895, 141.6218
732.6716, 142.5675
733.1537, 143.2334
733.6358, 143.5462
734.1179, 143.3652
734.6000, 142.5452
735.0822, 142.0748
735.5643, 141.9952
736.0464, 142.1061
736.5285, 142.2851
737.0106, 142.5101
737.4927, 142.7188
737.9749, 142.9134
738.4570, 143.0178
738.9391, 142.7362
739.4212, 142.4377
739.9033, 142.6104
740.3854, 143.6363
740.8676, 144.4458
741.3497, 144.5515
741.8318, 144.4032
742.3139, 144.4882
742.7960, 144.9829
743.2781, 145.2263
743.7603, 145.0597
744.2424, 144.8202
744.7245, 145.1296
745.2066, 145.8900
745.6887, 146.2507
746.1708, 145.8522
746.6530, 145.3949
747.1351, 145.9755
747.6172, 147.0128
748.0993, 147.4763
748.5814, 146.0156
749.0635, 145.0470
749.5457, 145.8977
750.0278, 147.7414
750.5099, 148.7762
750.9920, 148.6053
751.4741, 148.3045
751.9562, 147.9223
752.4384, 147.6384
752.9205, 148.0659
753.4026, 149.1835
753.8847, 150.1421
754.3668, 150.6025
754.8489, 150.7328
755.3311, 150.7009
755.8132, 150.5343
756.2953, 150.3151
756.7774, 149.6831
757.2595, 149.3945
757.7416, 150.1414
758.2238, 151.6633
758.7059, 152.4908
759.1880, 151.8727
759.6701, 151.6748
760.1522, 152.6862
760.6343, 154.5622
761.1165, 155.3576
761.5986, 155.0152
762.0807, 154.7036
762.5628, 155.1998
763.0449, 156.0820
763.5270, 156.3739
764.0092, 156.2661
764.4913, 156.8080
764.9734, 159.0850
765.4555, 161.7623
765.9376, 164.2649
766.4197, 166.5731
766.9019, 167.9974
767.3840, 167.9938
767.8661, 167.8748
768.3482, 168.1147
768.8303, 168.7198
769.3124, 169.8387
769.7946, 171.4886
770.2767, 173.3278
770.7588, 175.2451
771.2409, 177.1382
771.7230, 178.8828
772.2051, 180.4624
772.6873, 181.7219
773.1694, 182.2295
773.6515, 182.6425
774.1336, 183.3681
774.6157, 184.4543
775.0978, 185.8940
775.5800, 188.1163
776.0621, 190.0905
776.5442, 191.1766
777.0263, 191.3428
777.5084, 191.2457
777.9905, 190.8545
778.4727, 190.4916
778.9548, 190.3737
779.4369, 190.4926
779.9190, 191.0280
780.4011, 192.0265
780.8832, 192.5889
781.3654, 191.7410
781.8475, 190.5786
782.3296, 189.9721
782.8117, 190.3496
783.2938, 190.2255
783.7759, 189.3351
784.2581, 188.3148
784.7402, 187.6244
785.2223, 187.2661
785.7044, 187.1260
786.1865, 187.2271
786.6686, 187.3053
787.1508, 187.2644
787.6329, 186.9766
788.1150, 186.0570
788.5971, 184.2892
789.0792, 182.9282
789.5613, 183.0117
790.0435, 183.4400
790.5256, 183.2711
791.0077, 182.0972
791.4898, 181.3511
791.9719, 181.3504
792.4540, 181.2491
792.9362, 179.9211
793.4183, 177.5340
793.9004, 176.5482
794.3825, 177.2943
794.8646, 178.1169
795.3467, 177.2550
795.8289, 175.5687
796.3110, 174.2081
796.7931, 173.3868
797.2752, 172.7634
797.7573, 171.9915
798.2394, 171.5223
798.7216, 171.7439
799.2037, 172.9540
799.6858, 174.0594
800.1679, 175.0247
800.6500, 175.9648
801.1321, 176.8701
801.6143, 177.8323
802.0964, 179.5006
802.5785, 182.0245
803.0606, 184.4199
803.5427, 185.5214
804.0248, 186.1408
804.5070, 187.1961
804.9891, 188.9691
805.4712, 190.8210
805.9533, 192.4488
806.4354, 194.2612
806.9175, 196.5587
807.3997, 199.3844
807.8818, 202.6770
808.3639, 206.5805
808.8460, 210.3082
809.3281, 212.5584
809.8102, 214.0313
810.2924, 216.7810
810.7745, 221.2438
811.2566, 225.4583
811.7387, 227.6314
812.2208, 229.1331
812.7029, 231.1490
813.1851, 233.9801
813.6672, 237.0531
814.1493, 240.6645
814.6314, 244.1105
815.1135, 246.8220
815.5956, 248.8075
816.0778, 250.1315
816.5599, 250.7146
817.0420, 251.3675
817.5241, 253.0786
818.0062, 255.2865
818.4883, 256.9004
818.9705, 257.6190
819.4526, 259.2307
819.9347, 262.9105
820.4168, 267.5478
820.8989, 272.2509
821.3810, 276.5385
821.8632, 282.5223
822.3453, 290.5887
822.8274, 299.5723
823.3095, 308.1288
823.7916, 316.6330
824.2737, 326.5616
824.7559, 338.0244
825.2380, 350.5176
825.7201, 363.2599
826.2022, 376.9639
826.6843, 392.1457
827.1664, 408.8824
827.6486, 426.9533
828.1307, 447.5216
828.6128, 468.4384
829.0949, 488.3707
829.5770, 506.8534
830.0591, 529.3962
830.5413, 556.2900
831.0234, 584.9054
831.5055, 613.1032
831.9876, 641.5886
832.4697, 672.6369
832.9518, 705.9230
833.4340, 739.5386
833.9161, 772.6377
834.3982, 805.0605
834.8803, 837.9755
835.3624, 871.5597
835.8445, 898.6661
836.3267, 919.3821
836.8088, 933.4203
837.2909, 940.9725
837.7730, 941.6583
838.2551, 932.6317
838.7372, 914.0747
839.2194, 888.6703
839.7015, 855.7674
840.1836, 818.5944
840.6657, 779.6046
841.1478, 738.8116
841.6299, 697.5709
842.1121, 653.9241
842.5942, 612.4474
843.0763, 574.1022
843.5584, 538.8202
844.0405, 506.3421
844.5226, 476.7096
845.0048, 449.5200
845.4869, 424.6569
845.9690, 401.9842
846.4511, 381.5787
846.9332, 363.3672
847.4153, 347.4221
847.8975, 335.1301
848.3796, 323.7384
848.8617, 311.8547
849.3438, 299.7884
849.8259, 288.7622
850.3080, 278.7004
850.7902, 269.6978
851.2723, 261.8465
851.7544, 255.1162
852.2365, 250.0122
852.7186, 246.2418
853.2007, 241.9466
853.6829, 235.8422
854.1650, 230.0690
854.6471, 226.9534
855.1292, 225.3147
855.6113, 223.1560
856.0934, 219.2166
856.5756, 215.7002
857.0577, 212.7083
857.5398, 210.3594
858.0219, 208.8595
858.5040, 208.2448
858.9861, 207.7474
859.4683, 207.2438
859.9504, 206.7821
860.4325, 206.1977
860.9146, 205.7624
861.3967, 205.9994
861.8788, 207.2235
862.3610, 208.6046
862.8431, 209.9714
863.3252, 211.2598
863.8073, 212.2931
864.2894, 212.6529
864.7715, 214.2591
865.2537, 217.4480
865.7358, 220.8931
866.2179, 222.9261
866.7000, 224.2289
867.1821, 226.8310
867.6642, 231.0039
868.1464, 235.3621
868.6285, 239.2172
869.1106, 242.7874
869.5927, 246.0377
870.0748, 248.7249
870.5569, 252.8296
871.0391, 258.8380
871.5212, 265.3442
872.0033, 271.4984
872.4854, 277.3969
872.9675, 283.5118
873.4496, 289.9060
873.9318, 296.4712
874.4139, 303.4672
874.8960, 310.3574
875.3781, 316.7456
875.8602, 322.6449
876.3423, 327.9492
876.8245, 332.7929
877.3066, 336.7777
877.7887, 340.0634
878.2708, 342.3499
878.7529, 342.6275
879.2350, 340.9178
879.7172, 336.3317
880.1993, 327.6749
880.6814, 317.0023
881.1635, 306.8740
881.6456, 296.8712
882.1277, 286.0121
882.6099, 272.3119
883.0920, 259.6426
883.5741, 249.2565
884.0562, 240.4519
884.5383, 231.8116
885.0204, 223.2240
885.5026, 215.5490
885.9847, 209.0227
886.4668, 203.2040
886.9489, 197.3762
887.4310, 191.8038
887.9131, 187.1119
888.3953, 183.5540
888.8774, 180.6266
889.3595, 178.6590
889.8416, 176.8959
890.3237, 174.5442
890.8058, 171.2177
891.2880, 168.4619
891.7701, 166.3391
892.2522, 164.6517
892.7343, 163.4334
893.2164, 162.4676
893.6985, 160.9820
894.1807, 158.9409
894.6628, 157.3228
895.1449, 157.4891
895.6270, 157.7228
896.1091, 156.5715
896.5912, 153.8166
897.0734, 152.3364
897.5555, 152.7402
898.0376, 152.9646
898.5197, 151.7204
899.0018, 149.6363
899.4839, 149.2292
899.9661, 150.2211
900.4482, 150.9888
900.9303, 150.7182
901.4124, 149.8531
901.8945, 148.1227
902.3766, 145.9926
902.8588, 144.9978
903.3409, 146.1277
903.8230, 146.7856
904.3051, 146.3763
904.7872, 145.4239
905.2693, 144.9576
905.7515, 144.9041
906.2336, 144.7724
906.7157, 144.3451
907.1978, 144.0302
907.6799, 144.6471
908.1620, 145.3698
908.6442, 145.1462
909.1263, 142.7371
909.6084, 141.2327
910.0905, 141.0930
910.5726, 141.3471
911.0547, 141.0343
911.5369, 140.2343
912.0190, 140.0272
912.5011, 140.5044
912.9832, 140.7430
913.4653, 139.3937
913.9474, 137.8447
914.4296, 137.6681
914.9117, 139.0766
915.3938, 139.7808
915.8759, 138.8924
916.3580, 138.0166
916.8401, 137.8073
917.3223, 138.1448
917.8044, 138.3515
918.2865, 138.4344
918.7686, 138.5586
919.2507, 138.9368
919.7328, 139.2886
920.2150, 139.1744
920.6971, 138.8222
921.1792, 138.7957
921.6613, 139.5878
922.1434, 140.2839
922.6255, 140.7906
923.1077, 141.1138
923.5898, 141.1960
924.0719, 141.0544
924.5540, 141.0292
925.0361, 141.2273
925.5182, 141.3901
926.0004, 141.1417
926.4825, 140.7626
926.9646, 140.5595
927.4467, 140.5285
927.9288, 140.8917
928.4109, 141.8995
928.8931, 142.9892
929.3752, 143.7968
929.8573, 144.3230
930.3394, 144.6509
930.8215, 144.7790
931.3036, 144.9598
931.7858, 145.4045
932.2679, 145.9753
932.7500, 146.6873
933.2321, 147.4637
933.7142, 147.8666
934.1964, 147.4188
934.6785, 147.1213
935.1606, 147.4226
935.6427, 147.9331
936.1248, 147.4593
936.6069, 146.0357
937.0891, 144.1480
937.5712, 141.5895
938.0533, 139.2801
938.5354, 138.2571
939.0175, 138.0006
939.4996, 137.7703
939.9818, 137.2914
940.4639, 136.9790
940.9460, 136.8897
941.4281, 136.9113
941.9102, 137.2242
942.3923, 137.6917
942.8745, 136.6884
943.3566, 134.0389
943.8387, 131.5752
944.3208, 130.7663
944.8029, 130.8406
945.2850, 131.3471
945.7672, 132.2522
946.2493, 132.9055
946.7314, 133.3676
947.2135, 133.3792
947.6956, 132.6795
948.1777, 131.5222
948.6599, 130.8895
949.1420, 130.7018
949.6241, 130.5190
950.1062, 129.9735
950.5883, 129.5572
951.0704, 129.6488
951.5526, 130.1000
952.0347, 130.6802
952.5168, 131.8417
952.9989, 132.0269
953.4810, 130.7254
953.9631, 129.2050
954.4453, 129.2902
954.9274, 130.4998
955.4095, 131.2433
955.8916, 131.3111
956.3737, 130.7690
956.8558, 128.6236
957.3380, 126.6821
957.8201, 126.6779
958.3022, 128.8473
958.7843, 129.6043
959.2664, 128.5121
959.7485, 127.3667
960.2307, 127.0105
960.7128, 127.2310
961.1949, 127.8206
961.6770, 128.6046
962.1591, 128.9605
962.6412, 128.3819
963.1234, 127.5705
963.6055, 126.5385
964.0876, 125.5586
964.5697, 125.0721
965.0518, 125.1609
965.5339, 125.4166
966.0161, 125.8257
966.4982, 126.2702
966.9803, 126.8781
967.4624, 127.3309
967.9445, 126.8203
968.4266, 125.0387
968.9088, 123.9200
969.3909, 124.7232
969.8730, 125.8808
970.3551, 126.6856
970.8372, 127.1229
971.3193, 127.0677
971.8015, 126.5033
972.2836, 125.8903
972.7657, 125.2758
973.2478, 124.9305
973.7299, 125.4105
974.2120, 126.4064
974.6942, 127.1536
975.1763, 127.4567
975.6584, 127.3876
976.1405, 126.6955
976.6226, 125.9338
977.1047, 126.1414
977.5869, 127.1766
978.0690, 127.1563
978.5511, 125.6457
979.0332, 124.6920
979.5153, 127.1134
979.9974, 130.1533
980.4796, 131.1067
980.9617, 129.3524
981.4438, 127.9980
981.9259, 126.9952
982.4080, 126.7576
982.8901, 127.9823
983.3723, 129.8493
983.8544, 129.2976
984.3365, 126.9306
984.8186, 125.2539
985.3007, 126.2422
985.7828, 127.3946
986.2650, 127.4885
986.7471, 126.9761
987.2292, 126.6235
987.7113, 126.4136
988.1934, 126.4977
988.6755, 126.9707
989.1577, 127.4146
989.6398, 127.3221
990.1219, 126.8976
990.6040, 126.4078
991.0861, 125.8816
991.5682, 125.5616
992.0504, 125.8633
992.5325, 126.0527
993.0146, 125.6886
993.4967, 124.9360
993.9788, 124.6198
994.4609, 124.7413
994.9431, 125.4302
995.4252, 127.3122
995.9073, 128.9232
996.3894, 128.2144
996.8715, 126.2851
997.3536, 124.9269
997.8358, 124.7094
998.3179, 125.0445
998.8000, 126.2514
999.2821, 127.4621
999.7642, 127.6884
1000.246, 127.1410
1000.728, 126.9210
1001.211, 127.0829
1001.693, 127.5424
1002.175, 128.8473
1002.657, 129.8914
1003.139, 129.6410
1003.621, 128.3188
1004.103, 127.7500
1004.585, 128.1277
1005.068, 128.5356
1005.550, 128.7294
1006.032, 128.8195
1006.514, 129.1581
1006.996, 129.4959
1007.478, 129.2129
1007.960, 127.6430
1008.442, 126.7202
1008.924, 127.8995
1009.407, 129.1812
1009.889, 129.0930
1010.371, 127.5615
1010.853, 126.9295
1011.335, 127.1991
1011.817, 127.5478
1012.299, 127.2335
1012.781, 126.9011
1013.263, 127.4922
1013.746, 128.6064
1014.228, 128.7633
1014.710, 126.9394
1015.192, 125.7269
1015.674, 125.7129
1016.156, 126.1162
1016.638, 125.5006
1017.120, 124.3151
1017.603, 124.0773
1018.085, 125.1367
1018.567, 126.3018
1019.049, 127.3849
1019.531, 127.8641
1020.013, 127.0956
1020.495, 125.1699
1020.977, 124.2493
1021.459, 124.4320
1021.942, 124.7677
1022.424, 124.9043
1022.906, 124.8472
1023.388, 124.5448
1023.870, 124.0686
1024.352, 123.5573
1024.834, 123.0079
1025.316, 122.4584
1025.799, 121.6702
1026.281, 121.1990
1026.763, 121.9522
1027.245, 123.6457
1027.727, 124.3305
1028.209, 123.9357
1028.691, 123.5284
1029.173, 124.0116
1029.656, 124.5709
1030.138, 124.5670
1030.620, 124.1168
1031.102, 123.9905
1031.584, 124.2991
1032.066, 124.4197
1032.548, 124.0736
1033.030, 123.7760
1033.512, 124.7016
1033.995, 126.0805
1034.477, 126.4654
1034.959, 125.2162
1035.441, 124.1926
1035.923, 123.9502
1036.405, 123.9278
1036.887, 123.8592
1037.369, 123.7525
1037.851, 123.6597
1038.334, 123.5864
1038.816, 123.5633
1039.298, 123.8657
1039.780, 123.9680
1040.262, 123.2168
1040.744, 122.0952
1041.226, 121.6003
1041.708, 122.0432
1042.191, 122.2607
1042.673, 122.1393
1043.155, 121.9153
1043.637, 121.7627
1044.119, 121.7055
1044.601, 121.8659
1045.083, 122.2325
1045.565, 122.4178
1046.047, 121.9809
1046.530, 121.7022
1047.012, 121.8273
1047.494, 122.2721
1047.976, 122.9484
1048.458, 123.8004
1048.940, 124.2230
1049.422, 123.8489
1049.904, 123.6767
1050.386, 125.1680
1050.869, 126.8051
1051.351, 126.8192
1051.833, 124.7845
1052.315, 123.4443
1052.797, 122.8477
1053.279, 122.7227
1053.761, 123.1927
1054.243, 123.8315
1054.726, 123.9211
1055.208, 123.5732
1055.690, 123.0845
1056.172, 121.8487
1056.654, 121.5644
1057.136, 122.9628
1057.618, 124.6777
1058.100, 124.8869
1058.583, 123.8860
1059.065, 123.7832
1059.547, 124.7140
1060.029, 125.3960
1060.511, 124.4302
1060.993, 123.4070
1061.475, 123.5517
1061.957, 124.5245
1062.439, 124.7245
1062.922, 123.9997
1063.404, 123.4777
1063.886, 123.4997
1064.368, 123.6546
1064.850, 123.3862
1065.332, 122.9536
1065.814, 122.7782
1066.296, 123.0881
1066.778, 122.8960
1067.261, 121.6414
1067.743, 120.7666
1068.225, 121.1835
1068.707, 122.4491
1069.189, 123.2193
1069.671, 123.5475
1070.153, 123.6023
1070.635, 123.2904
1071.118, 122.9436
1071.600, 122.5007
1072.082, 122.2327
1072.564, 122.5976
1073.046, 123.7098
1073.528, 123.7922
1074.010, 122.7578
1074.492, 121.7433
1074.974, 121.7636
1075.457, 122.0784
1075.939, 122.0182
1076.421, 121.6735
1076.903, 121.5023
1077.385, 121.5070
1077.867, 121.7605
1078.349, 122.3196
1078.831, 123.0056
1079.313, 123.8383
1079.796, 124.5363
1080.278, 124.3942
1080.760, 123.2598
1081.242, 122.5168
1081.724, 123.2428
1082.206, 123.7010
1082.688, 123.1429
1083.170, 121.9565
1083.652, 121.3733
1084.135, 121.3048
1084.617, 121.3120
1085.099, 121.1986
1085.581, 121.2727
1086.063, 122.1089
1086.545, 122.9331
1087.027, 122.8808
1087.509, 121.7621
1087.992, 121.9671
1088.474, 123.5988
1088.956, 124.9901
1089.438, 124.8574
1089.920, 124.2078
1090.402, 124.0595
1090.884, 124.2052
1091.366, 124.2060
1091.849, 123.9349
1092.331, 123.5943
1092.813, 123.1382
1093.295, 122.7517
1093.777, 122.7707
1094.259, 122.9358
1094.741, 122.5285
1095.223, 121.6428
1095.705, 121.1888
1096.188, 121.9752
1096.670, 122.7050
1097.152, 123.0585
1097.634, 123.1707
1098.116, 123.1889
1098.598, 123.1694
1099.080, 123.5661
1099.562, 124.5276
1100.044, 125.0607
1100.527, 124.1649
1101.009, 122.9204
1101.491, 121.9587
1101.973, 121.2765
1102.455, 120.9209
1102.937, 120.9028
1103.419, 120.7603
1103.901, 120.2235
1104.384, 119.7952
1104.866, 120.1768
1105.348, 120.8739
1105.830, 121.2795
1106.312, 121.2009
1106.794, 121.3684
1107.276, 121.9517
1107.758, 122.1457
1108.240, 121.0255
1108.723, 119.6137
1109.205, 120.0435
1109.687, 121.5611
1110.169, 122.4312
1110.651, 121.1727
1111.133, 120.6573
1111.615, 121.3915
1112.097, 122.4061
1112.579, 122.7813
1113.062, 122.7028
1113.544, 123.1092
1114.026, 123.8524
1114.508, 123.8016
1114.990, 120.9487
1115.472, 118.9411
1115.954, 119.6813
1116.436, 121.5696
1116.919, 122.2715
1117.401, 121.8589
1117.883, 121.2412
1118.365, 120.4965
1118.847, 120.2343
1119.329, 121.9321
1119.811, 123.3499
1120.293, 122.1739
1120.776, 119.2895
1121.258, 118.6371
1121.740, 120.5252
1122.222, 121.6496
1122.704, 121.0698
1123.186, 120.2360
1123.668, 120.8318
1124.150, 121.9047
1124.632, 122.5087
1125.115, 122.4941
1125.597, 121.7391
1126.079, 119.7679
1126.561, 118.7678
1127.043, 120.0657
1127.525, 122.0367
1128.007, 121.8007
1128.489, 120.3895
1128.971, 119.5822
1129.454, 120.0244
1129.936, 120.4981
1130.418, 120.9086
1130.900, 121.2658
1131.382, 121.6507
1131.864, 121.9548
1132.346, 121.6068
1132.828, 120.8873
1133.311, 120.6956
1133.793, 122.2888
1134.275, 123.1680
1134.757, 122.3799
1135.239, 121.1780
1135.721, 120.6534
1136.203, 120.7110
1136.685, 120.4967
1137.167, 120.0355
1137.650, 119.6863
1138.132, 119.3862
1138.614, 119.5505
1139.096, 120.9834
1139.578, 122.6693
1140.060, 123.0292
1140.542, 122.0431
1141.024, 121.7308
1141.506, 122.2669
1141.989, 122.7014
1142.471, 122.0793
1142.953, 121.3256
1143.435, 121.1575
1143.917, 121.4020
1144.399, 121.4180
1144.881, 121.2052
1145.363, 120.6897
1145.846, 119.8029
1146.328, 119.0199
1146.810, 118.7725
1147.292, 118.9120
1147.774, 119.5571
1148.256, 120.6386
1148.738, 120.6985
1149.220, 119.2399
1149.703, 118.7901
1150.185, 120.3558
1150.667, 122.3030
1151.149, 122.5535
1151.631, 121.8041
1152.113, 120.8255
1152.595, 119.6306
1153.077, 119.2254
1153.559, 119.9077
1154.042, 120.7116
1154.524, 121.3650
1155.006, 121.7493
1155.488, 121.4670
1155.970, 120.7959
1156.452, 120.3156
1156.934, 120.3134
1157.416, 120.0070
1157.898, 119.0834
1158.381, 118.2797
1158.863, 117.9611
1159.345, 118.0833
1159.827, 118.7535
1160.309, 119.7508
1160.791, 120.4708
1161.273, 120.7647
1161.755, 120.5906
1162.238, 119.4949
1162.720, 118.5633
1163.202, 118.8308
1163.684, 119.9801
1164.166, 120.2531
1164.648, 119.8247
1165.130, 119.4602
1165.612, 119.4512
1166.094, 119.6749
1166.577, 120.2783
1167.059, 120.9109
1167.541, 121.2978
1168.023, 121.4206
1168.505, 120.9142
1168.987, 119.8597
1169.469, 119.0556
1169.951, 118.9469
1170.433, 119.2167
1170.916, 120.0341
1171.398, 120.9554
1171.880, 121.5423
1172.362, 121.7816
1172.844, 120.9512
1173.326, 119.0418
1173.808, 117.5782
1174.290, 117.7733
1174.773, 118.5855
1175.255, 119.8874
1175.737, 121.2144
1176.219, 121.5060
1176.701, 120.7580
1177.183, 120.5795
1177.665, 121.2160
1178.147, 121.6849
1178.630, 120.6589
1179.112, 119.6959
1179.594, 120.2537
1180.076, 121.7690
1180.558, 122.3534
1181.040, 121.9688
1181.522, 121.4059
1182.004, 120.7809
1182.486, 120.2340
1182.969, 120.0635
1183.451, 119.8806
1183.933, 119.1459
1184.415, 118.0218
1184.897, 117.8035
1185.379, 118.6026
1185.861, 118.9605
1186.343, 118.3826
1186.825, 117.7628
1187.308, 117.8954
1187.790, 118.4699
1188.272, 119.5529
1188.754, 121.0487
1189.236, 120.7326
1189.718, 118.2958
1190.200, 117.1391
1190.682, 118.7868
1191.165, 120.8518
1191.647, 120.6238
1192.129, 119.5571
1192.611, 119.3153
1193.093, 120.1248
1193.575, 120.2993
1194.057, 119.7470
1194.539, 119.1766
1195.021, 118.7627
1195.504, 118.6558
1195.986, 119.4282
1196.468, 120.3965
1196.950, 120.5960
1197.432, 119.8001
1197.914, 119.2082
1198.396, 118.8175
1198.878, 118.6532
1199.360, 118.7826
1199.843, 119.0624
1200.325, 119.3017
1200.807, 119.5940
1201.289, 120.1786
1201.771, 121.3082
1202.253, 121.4431
1202.735, 120.3740
1203.217, 119.7223
1203.700, 121.0527
1204.182, 122.4733
1204.664, 121.2581
1205.146, 118.8555
1205.628, 117.6181
1206.110, 118.0354
1206.592, 118.8973
1207.074, 120.3430
1207.557, 121.3701
1208.039, 120.9338
1208.521, 120.1355
1209.003, 120.4230
1209.485, 121.1594
1209.967, 121.0816
1210.449, 119.5061
1210.931, 118.9441
1211.413, 119.5377
1211.896, 120.2315
1212.378, 120.3314
1212.860, 120.1199
1213.342, 119.5415
1213.824, 118.9643
1214.306, 119.2992
1214.788, 121.1701
1215.270, 121.8263
1215.752, 121.1025
1216.235, 120.0357
1216.717, 119.0525
1217.199, 118.3936
1217.681, 118.5166
1218.163, 119.1002
1218.645, 119.4028
1219.127, 119.2942
1219.609, 119.2644
1220.092, 119.3270
1220.574, 119.5432
1221.056, 120.2892
1221.538, 120.9160
1222.020, 120.5632
1222.502, 119.6824
1222.984, 119.3028
1223.466, 119.4574
1223.948, 120.3602
1224.431, 122.1299
1224.913, 123.2366
1225.395, 121.5311
1225.877, 119.5041
1226.359, 119.4218
1226.841, 120.5740
1227.323, 121.0606
1227.805, 120.8194
1228.287, 120.1385
1228.770, 119.0098
1229.252, 118.0488
1229.734, 117.6801
1230.216, 117.7373
1230.698, 118.4234
1231.180, 119.3585
1231.662, 119.6364
1232.144, 119.1864
1232.627, 119.0553
1233.109, 119.3319
1233.591, 119.8837
1234.073, 121.1814
1234.555, 122.1467
1235.037, 121.8074
1235.519, 120.7417
1236.001, 119.9169
1236.484, 119.3396
1236.966, 119.4247
1237.448, 120.2019
1237.930, 120.4892
1238.412, 118.4435
1238.894, 116.7907
1239.376, 117.6696
1239.858, 119.6261
1240.340, 120.2868
1240.823, 119.7767
1241.305, 119.6999
1241.787, 120.1909
1242.269, 120.6146
1242.751, 120.1859
1243.233, 120.0871
1243.715, 121.1134
1244.197, 122.4942
1244.679, 123.1017
1245.162, 123.0065
1245.644, 122.3680
1246.126, 121.2465
1246.608, 120.3791
1247.090, 120.4666
1247.572, 120.4468
1248.054, 119.8992
1248.536, 119.1967
1249.019, 118.9465
1249.501, 119.0173
1249.983, 118.9326
1250.465, 118.6823
1250.947, 118.6665
1251.429, 119.8139
1251.911, 119.9854
1252.393, 118.1977
1252.875, 116.2754
1253.358, 117.0889
1253.840, 119.5151
1254.322, 121.3391
1254.804, 122.3287
1255.286, 122.2442
1255.768, 120.0658
1256.250, 118.4497
1256.732, 117.8031
1257.214, 117.8367
1257.697, 118.5906
1258.179, 119.5766
1258.661, 119.9434
1259.143, 119.7366
1259.625, 119.6132
1260.107, 119.6632
1260.589, 119.8156
1261.071, 120.0856
1261.554, 120.3512
1262.036, 120.5737
1262.518, 120.6506
1263.000, 120.4881
1263.482, 120.0639
1263.964, 119.2645
1264.446, 117.8603
1264.928, 117.1764
1265.411, 117.4376
1265.893, 117.9796
1266.375, 118.2617
1266.857, 118.5129
1267.339, 118.9614
1267.821, 119.5406
1268.303, 120.0166
1268.785, 120.3863
1269.267, 120.8071
1269.750, 121.3066
1270.232, 121.4223
1270.714, 120.0435
1271.196, 118.9596
1271.678, 120.2283
1272.160, 122.0984
1272.642, 121.2597
1273.124, 118.0032
1273.606, 116.6395
1274.089, 117.4318
1274.571, 118.5591
1275.053, 119.1430
1275.535, 119.5976
1276.017, 120.0486
1276.499, 120.5084
1276.981, 121.2826
1277.463, 122.0730
1277.946, 121.2810
1278.428, 119.1181
1278.910, 117.7147
1279.392, 118.9692
1279.874, 119.6899
1280.356, 119.0493
1280.838, 118.2326
1281.320, 118.7251
1281.802, 119.9145
1282.285, 120.6820
1282.767, 120.9782
1283.249, 120.7919
1283.731, 119.4837
1284.213, 119.1212
1284.695, 120.1734
1285.177, 120.9999
1285.659, 119.3019
1286.141, 117.1087
1286.624, 117.5042
1287.106, 119.5173
1287.588, 120.1014
1288.070, 118.5409
1288.552, 117.7136
1289.034, 117.7855
1289.516, 118.3412
1289.998, 119.4082
1290.481, 120.4864
1290.963, 121.3921
1291.445, 121.8973
1291.927, 121.5271
1292.409, 120.1728
1292.891, 120.1510
1293.373, 121.4009
1293.855, 122.2256
1294.338, 121.1531
1294.820, 119.9549
1295.302, 119.4612
1295.784, 119.2364
1296.266, 118.8367
1296.748, 118.3603
1297.230, 118.6203
1297.712, 119.4636
1298.194, 120.1830
1298.677, 120.2169
1299.159, 120.4105
1299.641, 121.0093
1300.123, 121.5407
1300.605, 121.5227
1301.087, 121.2346
1301.569, 121.5707
1302.051, 122.1155
1302.533, 121.9449
1303.016, 120.7198
##END=



