##NAMES=Talmessite
##RRUFFID=R060369
##IDEAL CHEMISTRY=Ca_2_Mg(As^5+^O_4_)_2_&#183;2H_2_O
##LOCALITY=Gold Hill, Tooele County, Utah, USA
##OWNER=RRUFF
##SOURCE=Michael Scott
##DESCRIPTION=Colorless saddle-shaped crystals associated with austinite
##STATUS=The identification of this mineral has been confirmed by single-crystal X-ray diffraction.
##URL=rruff.info/R060369
91.53320, 82.34059
92.01532, 81.77448
92.49744, 81.38127
92.97955, 82.59429
93.46167, 83.98963
93.94379, 84.10585
94.42590, 83.17941
94.90802, 81.94976
95.39014, 80.98219
95.87225, 80.27014
96.35437, 79.78764
96.83649, 79.82963
97.31860, 80.03048
97.80072, 79.96468
98.28284, 79.26174
98.76495, 78.01679
99.24707, 77.06416
99.72919, 76.31291
100.2113, 76.00163
100.6934, 76.68712
101.1755, 77.86705
101.6577, 78.51421
102.1398, 77.55273
102.6219, 74.37842
103.1040, 72.83635
103.5861, 73.56722
104.0682, 74.88289
104.5504, 75.97552
105.0325, 76.67555
105.5146, 77.21465
105.9967, 77.88548
106.4788, 78.72328
106.9609, 79.60217
107.4431, 80.61375
107.9252, 81.63841
108.4073, 82.67793
108.8894, 83.91377
109.3715, 84.70289
109.8536, 83.96433
110.3358, 81.71728
110.8179, 78.62213
111.3000, 74.46642
111.7821, 69.40849
112.2642, 65.04231
112.7463, 62.37894
113.2285, 60.50834
113.7106, 58.46990
114.1927, 56.02998
114.6748, 53.64508
115.1569, 52.00484
115.6390, 51.30581
116.1212, 50.85568
116.6033, 50.48632
117.0854, 50.19867
117.5675, 50.02205
118.0496, 49.98856
118.5317, 50.04787
119.0139, 49.95396
119.4960, 49.36107
119.9781, 48.98561
120.4602, 49.40456
120.9423, 50.12357
121.4244, 50.23588
121.9066, 48.95634
122.3887, 46.12876
122.8708, 44.08841
123.3529, 43.15957
123.8350, 42.50677
124.3171, 41.85571
124.7993, 41.14581
125.2814, 40.32679
125.7635, 39.22112
126.2456, 37.67950
126.7277, 37.04700
127.2098, 38.23107
127.6920, 39.93770
128.1741, 40.75834
128.6562, 40.33501
129.1383, 39.40896
129.6204, 38.81467
130.1025, 38.50678
130.5847, 38.28712
131.0668, 38.16722
131.5489, 38.09272
132.0310, 37.84477
132.5131, 37.20699
132.9952, 36.57079
133.4774, 36.27300
133.9595, 36.31821
134.4416, 36.48914
134.9237, 36.61538
135.4058, 36.69397
135.8879, 36.75361
136.3701, 36.73302
136.8522, 36.73798
137.3343, 36.88660
137.8164, 37.19962
138.2985, 37.51722
138.7806, 37.53089
139.2628, 36.94576
139.7449, 36.59796
140.2270, 36.47213
140.7091, 36.61305
141.1912, 37.13452
141.6733, 38.08357
142.1555, 39.31884
142.6376, 40.34152
143.1197, 41.29121
143.6018, 41.84187
144.0839, 41.85572
144.5660, 41.45292
145.0482, 40.67749
145.5303, 39.44372
146.0124, 37.95357
146.4945, 37.72860
146.9766, 39.75338
147.4587, 41.76914
147.9409, 42.80420
148.4230, 42.97715
148.9051, 42.94867
149.3872, 43.15741
149.8693, 43.53833
150.3514, 43.71506
150.8336, 43.14835
151.3157, 42.70210
151.7978, 43.42937
152.2799, 45.53498
152.7620, 47.50999
153.2441, 47.94801
153.7263, 47.47290
154.2084, 47.04220
154.6905, 46.79461
155.1726, 46.82576
155.6547, 47.44253
156.1368, 48.96378
156.6190, 50.50731
157.1011, 51.55796
157.5832, 52.28178
158.0653, 53.00812
158.5474, 53.94408
159.0295, 55.07429
159.5117, 56.20266
159.9938, 57.49866
160.4759, 58.61348
160.9580, 59.50651
161.4401, 60.13027
161.9222, 60.40115
162.4044, 60.24018
162.8865, 59.62667
163.3686, 58.64818
163.8507, 57.18734
164.3328, 55.49253
164.8149, 53.42112
165.2971, 51.10190
165.7792, 49.00646
166.2613, 47.69451
166.7434, 47.48511
167.2255, 47.24085
167.7076, 46.88918
168.1898, 46.55502
168.6719, 46.25626
169.1540, 46.01701
169.6361, 45.97767
170.1182, 46.39468
170.6003, 47.60292
171.0825, 48.40075
171.5646, 48.33410
172.0467, 47.98425
172.5288, 47.96506
173.0109, 48.44110
173.4930, 49.32024
173.9752, 50.66680
174.4573, 52.59046
174.9394, 54.19154
175.4215, 55.06780
175.9036, 55.43978
176.3857, 55.75825
176.8679, 56.09365
177.3500, 56.51953
177.8321, 57.20430
178.3142, 58.19343
178.7963, 59.01083
179.2784, 59.35178
179.7606, 59.25315
180.2427, 58.99224
180.7248, 58.65117
181.2069, 58.13477
181.6890, 57.24984
182.1711, 55.95901
182.6533, 54.78619
183.1354, 54.19130
183.6175, 54.19308
184.0996, 54.62623
184.5817, 56.11752
185.0638, 57.63936
185.5460, 58.57842
186.0281, 58.80522
186.5102, 58.61149
186.9923, 58.13798
187.4744, 56.76067
187.9565, 56.87714
188.4387, 60.25898
188.9208, 64.14363
189.4029, 66.38570
189.8850, 66.38229
190.3671, 65.28291
190.8492, 65.32651
191.3314, 67.55956
191.8135, 69.28011
192.2956, 69.68398
192.7777, 69.87278
193.2598, 70.87652
193.7419, 73.08694
194.2241, 76.07933
194.7062, 78.82870
195.1883, 81.68755
195.6704, 83.81626
196.1525, 85.49950
196.6346, 86.33847
197.1168, 85.59824
197.5989, 82.90666
198.0810, 78.99541
198.5631, 75.98521
199.0452, 74.84064
199.5273, 73.25838
200.0095, 70.43073
200.4916, 66.99493
200.9737, 63.94672
201.4558, 61.70491
201.9379, 60.14340
202.4200, 58.87969
202.9022, 57.78786
203.3843, 57.09144
203.8664, 57.05055
204.3485, 57.49371
204.8306, 57.97826
205.3127, 58.37111
205.7949, 58.62496
206.2770, 58.62304
206.7591, 58.19080
207.2412, 57.89227
207.7233, 58.17085
208.2054, 58.93349
208.6876, 59.56897
209.1697, 59.65966
209.6518, 59.63832
210.1339, 60.23344
210.6160, 61.72338
211.0981, 63.09513
211.5803, 63.36221
212.0624, 62.52172
212.5445, 61.79033
213.0266, 61.80604
213.5087, 61.99520
213.9908, 61.88297
214.4730, 61.41444
214.9551, 60.57697
215.4372, 59.32579
215.9193, 57.62565
216.4014, 55.70066
216.8836, 52.98867
217.3657, 50.42104
217.8478, 48.70678
218.3299, 48.03283
218.8120, 47.88712
219.2941, 47.60181
219.7763, 47.10294
220.2584, 46.71202
220.7405, 46.75066
221.2226, 46.74834
221.7047, 46.20860
222.1868, 45.02949
222.6690, 43.78113
223.1511, 43.46387
223.6332, 44.64412
224.1153, 45.47582
224.5974, 45.72701
225.0795, 45.66418
225.5617, 45.30950
226.0438, 44.72088
226.5259, 44.19751
227.0080, 44.34490
227.4901, 45.87895
227.9722, 46.75764
228.4544, 46.40754
228.9365, 45.78303
229.4186, 45.54371
229.9007, 45.89849
230.3828, 46.72214
230.8649, 47.83819
231.3471, 49.75959
231.8292, 51.12490
232.3113, 51.67123
232.7934, 51.86890
233.2755, 51.96981
233.7576, 52.08137
234.2398, 52.37022
234.7219, 53.12914
235.2040, 54.79827
235.6861, 56.17480
236.1682, 57.24879
236.6503, 58.04763
237.1325, 58.54036
237.6146, 58.72669
238.0967, 58.72123
238.5788, 58.67027
239.0609, 58.49622
239.5430, 58.47764
240.0252, 58.50835
240.5073, 58.75581
240.9894, 59.46481
241.4715, 60.69460
241.9536, 62.15871
242.4357, 63.61679
242.9179, 65.23019
243.4000, 65.99778
243.8821, 65.13486
244.3642, 63.69180
244.8463, 62.74669
245.3284, 62.50999
245.8106, 62.73051
246.2927, 63.20875
246.7748, 63.95063
247.2569, 64.74167
247.7390, 65.59333
248.2211, 66.46336
248.7033, 67.35101
249.1854, 68.27634
249.6675, 69.07281
250.1496, 69.54886
250.6317, 69.74011
251.1138, 69.77497
251.5960, 69.75171
252.0781, 69.55620
252.5602, 68.96495
253.0423, 67.90964
253.5244, 66.76036
254.0065, 65.93052
254.4887, 65.28437
254.9708, 64.41295
255.4529, 62.90623
255.9350, 61.24323
256.4171, 60.27007
256.8992, 60.19924
257.3813, 59.95291
257.8635, 58.26192
258.3456, 55.89473
258.8277, 54.17254
259.3098, 54.01270
259.7919, 54.38810
260.2740, 53.62901
260.7562, 51.41259
261.2383, 49.45779
261.7204, 49.16193
262.2025, 49.61609
262.6846, 49.70254
263.1667, 48.87739
263.6489, 47.82446
264.1310, 47.65345
264.6131, 48.61622
265.0952, 49.36344
265.5773, 48.78413
266.0594, 47.88363
266.5416, 47.68014
267.0237, 48.57769
267.5058, 49.89862
267.9879, 50.77798
268.4700, 51.16088
268.9521, 51.34348
269.4343, 51.26258
269.9164, 51.10109
270.3985, 50.95367
270.8806, 50.83281
271.3627, 50.82558
271.8448, 51.08749
272.3270, 51.67948
272.8091, 52.22747
273.2912, 52.86187
273.7733, 53.27629
274.2554, 53.05280
274.7375, 52.15823
275.2197, 51.32239
275.7018, 51.60342
276.1839, 53.27977
276.6660, 54.24865
277.1481, 53.64675
277.6302, 52.63599
278.1124, 51.75588
278.5945, 51.03870
279.0766, 50.20525
279.5587, 48.81852
280.0408, 46.75677
280.5229, 45.21705
281.0051, 44.74377
281.4872, 44.41867
281.9693, 44.08002
282.4514, 43.60377
282.9335, 42.71030
283.4156, 40.75031
283.8978, 37.66475
284.3799, 36.33747
284.8620, 38.90904
285.3441, 41.17630
285.8262, 41.57699
286.3083, 40.53846
286.7905, 39.12211
287.2726, 37.93677
287.7547, 37.02104
288.2368, 36.82887
288.7189, 38.14174
289.2010, 39.28468
289.6832, 39.73985
290.1653, 39.74848
290.6474, 39.70234
291.1295, 39.82809
291.6116, 40.05906
292.0938, 40.07552
292.5759, 39.35881
293.0580, 39.21704
293.5401, 40.46240
294.0222, 42.14844
294.5043, 43.11025
294.9865, 42.80584
295.4686, 41.83381
295.9507, 41.68145
296.4328, 42.89989
296.9149, 43.99253
297.3970, 44.95668
297.8792, 45.63859
298.3613, 45.68332
298.8434, 45.04386
299.3255, 44.33224
299.8076, 44.68264
300.2897, 46.82669
300.7719, 48.37976
301.2540, 48.70794
301.7361, 48.88583
302.2182, 49.68756
302.7003, 51.18373
303.1824, 52.82847
303.6646, 53.93712
304.1467, 54.30891
304.6288, 54.85509
305.1109, 56.32227
305.5930, 57.31533
306.0751, 56.93464
306.5573, 55.37543
307.0394, 53.53734
307.5215, 52.26556
308.0036, 51.61774
308.4857, 50.57309
308.9678, 48.46631
309.4500, 46.60152
309.9321, 45.42216
310.4142, 44.77251
310.8963, 44.31248
311.3784, 43.84403
311.8605, 43.34200
312.3427, 42.60979
312.8248, 41.16378
313.3069, 40.05354
313.7890, 39.81511
314.2711, 39.91248
314.7532, 39.57141
315.2354, 38.38980
315.7175, 36.74092
316.1996, 35.71159
316.6817, 35.56554
317.1638, 35.68578
317.6459, 36.21240
318.1281, 36.82569
318.6102, 37.22543
319.0923, 37.32243
319.5744, 37.26829
320.0565, 37.28913
320.5386, 37.33869
321.0208, 37.58671
321.5029, 38.20121
321.9850, 38.86118
322.4671, 39.36555
322.9492, 39.69627
323.4313, 39.96774
323.9135, 40.32159
324.3956, 40.79406
324.8777, 41.15895
325.3598, 40.99557
325.8419, 41.11465
326.3240, 42.07178
326.8062, 43.62342
327.2883, 45.10406
327.7704, 46.03043
328.2525, 46.41412
328.7346, 46.47350
329.2167, 45.23866
329.6989, 44.82540
330.1810, 46.31054
330.6631, 48.80007
331.1452, 50.91802
331.6273, 51.88362
332.1094, 52.14568
332.5916, 53.13280
333.0737, 55.33089
333.5558, 57.45554
334.0379, 59.13009
334.5200, 60.72137
335.0021, 62.56643
335.4843, 64.77848
335.9664, 67.18983
336.4485, 69.55475
336.9306, 71.92677
337.4127, 74.10114
337.8948, 75.48775
338.3770, 77.11446
338.8591, 79.80415
339.3412, 83.51601
339.8233, 87.37740
340.3055, 90.30492
340.7876, 92.09410
341.2697, 94.91985
341.7518, 99.80608
342.2339, 104.7732
342.7160, 109.1581
343.1982, 113.0171
343.6803, 116.5921
344.1624, 119.8663
344.6445, 123.0174
345.1266, 127.0560
345.6087, 132.7762
346.0909, 138.0868
346.5730, 142.1517
347.0551, 145.5402
347.5372, 148.9214
348.0193, 152.6068
348.5014, 156.4016
348.9836, 159.9586
349.4657, 163.1469
349.9478, 166.4867
350.4299, 170.4989
350.9120, 174.4862
351.3941, 177.8675
351.8763, 180.5376
352.3584, 182.9386
352.8405, 185.6674
353.3226, 188.7645
353.8047, 191.0574
354.2868, 191.9692
354.7690, 192.4193
355.2511, 192.9834
355.7332, 193.6288
356.2153, 194.1141
356.6974, 194.5475
357.1795, 194.7404
357.6617, 193.8383
358.1438, 191.4706
358.6259, 188.7493
359.1080, 186.1593
359.5901, 183.6918
360.0722, 181.3835
360.5544, 179.5128
361.0365, 177.5053
361.5186, 174.5374
362.0007, 170.5840
362.4828, 165.9150
362.9649, 160.1608
363.4471, 153.9639
363.9292, 148.0824
364.4113, 142.6721
364.8934, 137.1636
365.3755, 130.7249
365.8576, 123.6410
366.3398, 117.6010
366.8219, 113.3488
367.3040, 109.6998
367.7861, 105.2447
368.2682, 100.0826
368.7503, 95.33080
369.2325, 91.34103
369.7146, 88.04854
370.1967, 85.55509
370.6788, 83.98649
371.1609, 82.40575
371.6430, 79.76592
372.1252, 76.51611
372.6073, 74.22086
373.0894, 73.58595
373.5715, 73.58095
374.0536, 73.75544
374.5357, 74.00433
375.0179, 73.54823
375.5000, 71.65291
375.9821, 69.15606
376.4642, 68.07286
376.9463, 68.86411
377.4284, 69.77771
377.9106, 70.11745
378.3927, 70.17169
378.8748, 70.44197
379.3569, 71.06910
379.8390, 71.87138
380.3211, 72.64507
380.8033, 73.38914
381.2854, 74.09721
381.7675, 74.54305
382.2496, 75.10879
382.7317, 76.28761
383.2138, 78.00133
383.6960, 79.53485
384.1781, 80.29796
384.6602, 80.36076
385.1423, 80.84653
385.6244, 82.07500
386.1065, 83.28272
386.5887, 84.55101
387.0708, 85.56770
387.5529, 85.76068
388.0350, 84.85793
388.5171, 83.22403
388.9992, 81.67207
389.4814, 80.78488
389.9635, 79.01491
390.4456, 75.72630
390.9277, 71.99160
391.4098, 68.54488
391.8919, 65.56148
392.3741, 62.92701
392.8562, 60.58831
393.3383, 58.61216
393.8204, 56.33985
394.3025, 53.40639
394.7846, 50.57347
395.2668, 47.91486
395.7489, 45.55878
396.2310, 43.76514
396.7131, 42.73154
397.1952, 42.18831
397.6773, 41.13853
398.1595, 38.94099
398.6416, 37.31163
399.1237, 36.50901
399.6058, 36.25894
400.0879, 36.57391
400.5700, 37.36076
401.0522, 38.03132
401.5343, 37.75120
402.0164, 36.32130
402.4985, 35.11828
402.9806, 34.06540
403.4627, 33.39858
403.9449, 33.52266
404.4270, 34.13919
404.9091, 34.50032
405.3912, 34.04670
405.8733, 33.05033
406.3554, 32.31242
406.8376, 31.77485
407.3197, 31.64115
407.8018, 32.76212
408.2839, 33.97024
408.7660, 33.77378
409.2481, 31.57920
409.7303, 29.27899
410.2124, 29.05970
410.6945, 30.76693
411.1766, 31.93805
411.6587, 31.85664
412.1408, 31.32728
412.6230, 31.03247
413.1051, 30.96054
413.5872, 31.06221
414.0693, 31.41840
414.5514, 31.89791
415.0335, 32.36713
415.5157, 32.84143
415.9978, 33.02229
416.4799, 32.43088
416.9620, 31.44653
417.4441, 31.23249
417.9262, 32.36531
418.4084, 33.56294
418.8905, 34.10110
419.3726, 34.14132
419.8547, 34.04824
420.3368, 33.90902
420.8189, 33.81144
421.3011, 33.95838
421.7832, 34.47370
422.2653, 34.69529
422.7474, 34.08936
423.2295, 33.47369
423.7116, 33.51981
424.1938, 34.27704
424.6759, 35.55104
425.1580, 37.34298
425.6401, 39.57472
426.1222, 40.81182
426.6043, 40.29895
427.0865, 39.83436
427.5686, 39.74349
428.0507, 40.00456
428.5328, 40.63438
429.0149, 41.63038
429.4970, 42.77453
429.9792, 43.66018
430.4613, 44.00570
430.9434, 44.73225
431.4255, 46.09982
431.9076, 47.55051
432.3897, 48.91335
432.8719, 50.09577
433.3540, 50.91293
433.8361, 51.08335
434.3182, 50.78548
434.8003, 51.38544
435.2824, 53.52767
435.7646, 55.60994
436.2467, 57.15247
436.7288, 58.47289
437.2109, 59.97329
437.6930, 61.78539
438.1751, 63.50385
438.6573, 64.39920
439.1394, 64.36563
439.6215, 65.05888
440.1036, 67.31245
440.5857, 69.67702
441.0678, 71.12386
441.5500, 71.85291
442.0321, 72.66756
442.5142, 73.85081
442.9963, 75.42641
443.4784, 77.70103
443.9605, 80.82275
444.4427, 83.47718
444.9248, 84.77502
445.4069, 85.28006
445.8890, 85.96600
446.3711, 86.85924
446.8532, 87.97755
447.3354, 89.81212
447.8175, 91.82231
448.2996, 92.73209
448.7817, 92.18835
449.2638, 90.98025
449.7459, 89.95211
450.2281, 89.11805
450.7102, 87.77046
451.1923, 85.11623
451.6744, 82.62165
452.1565, 81.33464
452.6386, 81.00877
453.1208, 80.80589
453.6029, 80.28933
454.0850, 79.60714
454.5671, 79.17545
455.0492, 79.64454
455.5313, 79.45055
456.0135, 78.13253
456.4956, 76.44487
456.9777, 74.92894
457.4598, 73.68407
457.9419, 72.52972
458.4240, 71.25845
458.9062, 69.86687
459.3883, 68.83215
459.8704, 68.95843
460.3525, 68.51243
460.8346, 66.73698
461.3167, 64.32076
461.7989, 62.11507
462.2810, 60.43455
462.7631, 59.06676
463.2452, 57.82837
463.7273, 56.83979
464.2094, 55.22991
464.6916, 52.15253
465.1737, 49.11817
465.6558, 46.99032
466.1379, 45.67044
466.6200, 44.62699
467.1021, 43.60910
467.5843, 42.66459
468.0664, 42.13768
468.5485, 42.18727
469.0306, 41.39256
469.5127, 38.22819
469.9948, 34.36924
470.4770, 32.56621
470.9591, 33.38836
471.4412, 34.45730
471.9233, 34.76488
472.4054, 34.47356
472.8875, 33.73154
473.3697, 32.53456
473.8518, 31.38172
474.3339, 30.82517
474.8160, 30.84686
475.2981, 30.31960
475.7802, 28.35917
476.2624, 26.79393
476.7445, 26.80892
477.2266, 27.73919
477.7087, 28.28278
478.1908, 27.92197
478.6729, 27.10380
479.1551, 26.63317
479.6372, 26.68306
480.1193, 26.68873
480.6014, 26.83878
481.0835, 26.78468
481.5656, 26.17187
482.0478, 25.17484
482.5299, 24.21750
483.0120, 23.53451
483.4941, 23.18702
483.9762, 23.56675
484.4583, 25.38953
484.9405, 26.45495
485.4226, 25.68123
485.9047, 24.49568
486.3868, 24.11227
486.8689, 24.63187
487.3510, 25.09822
487.8332, 24.44528
488.3153, 22.98398
488.7974, 22.28938
489.2795, 22.64207
489.7616, 23.21296
490.2437, 23.65239
490.7259, 23.94876
491.2080, 24.04177
491.6901, 23.83382
492.1722, 23.58911
492.6543, 23.48082
493.1364, 23.48661
493.6186, 23.63066
494.1007, 23.99289
494.5828, 24.16719
495.0649, 23.60146
495.5470, 22.20580
496.0291, 21.01014
496.5113, 19.74537
496.9934, 18.96357
497.4755, 19.27189
497.9576, 20.31823
498.4397, 21.33076
498.9218, 21.95210
499.4040, 22.17229
499.8861, 21.92230
500.3682, 20.80157
500.8503, 19.94295
501.3324, 19.35847
501.8145, 18.98798
502.2967, 18.89302
502.7788, 18.98850
503.2609, 19.01429
503.7430, 18.71227
504.2251, 18.29250
504.7072, 18.69401
505.1894, 20.46657
505.6715, 21.79974
506.1536, 22.09288
506.6357, 21.87136
507.1178, 21.34314
507.5999, 20.58073
508.0821, 19.99023
508.5642, 20.02806
509.0463, 20.46567
509.5284, 20.65841
510.0105, 20.57667
510.4926, 20.18704
510.9748, 19.07971
511.4569, 17.76040
511.9390, 17.48498
512.4211, 19.09409
512.9032, 20.32936
513.3853, 19.50565
513.8674, 17.72362
514.3495, 17.02617
514.8317, 17.86171
515.3138, 19.01583
515.7959, 19.21122
516.2780, 18.35127
516.7601, 18.00412
517.2422, 18.68561
517.7244, 19.21368
518.2065, 19.17979
518.6886, 18.74854
519.1707, 18.10132
519.6528, 17.32398
520.1349, 16.56628
520.6171, 15.94232
521.0992, 15.24614
521.5813, 15.53343
522.0634, 18.22019
522.5455, 20.50280
523.0276, 21.21234
523.5098, 20.80630
523.9919, 20.17802
524.4740, 19.66791
524.9561, 19.25150
525.4382, 18.82883
525.9203, 18.39743
526.4025, 18.31893
526.8846, 18.97016
527.3667, 19.60854
527.8488, 19.36388
528.3309, 18.38845
528.8130, 17.65923
529.2952, 17.55686
529.7773, 17.74768
530.2594, 18.04861
530.7415, 18.40281
531.2236, 18.54264
531.7057, 18.28379
532.1879, 17.94403
532.6700, 18.16705
533.1521, 19.33976
533.6342, 20.20950
534.1163, 20.75602
534.5984, 20.98982
535.0806, 20.87088
535.5627, 20.44106
536.0448, 19.74598
536.5269, 18.78702
537.0090, 17.70699
537.4911, 16.91633
537.9733, 16.30580
538.4554, 16.23627
538.9375, 17.34190
539.4196, 18.48530
539.9017, 18.97801
540.3839, 18.84280
540.8660, 18.47918
541.3481, 18.02922
541.8302, 17.58705
542.3123, 17.28686
542.7944, 17.09355
543.2766, 17.41393
543.7587, 18.89530
544.2408, 20.56415
544.7229, 20.93139
545.2050, 19.85722
545.6871, 18.84432
546.1693, 18.27735
546.6514, 18.10660
547.1335, 18.56239
547.6156, 19.49247
548.0977, 19.95241
548.5798, 19.25048
549.0620, 17.84972
549.5441, 17.31720
550.0262, 18.53195
550.5083, 19.48281
550.9904, 20.22426
551.4725, 20.65294
551.9547, 20.54628
552.4368, 20.02044
552.9189, 19.47591
553.4010, 19.21194
553.8831, 19.16177
554.3652, 19.04464
554.8474, 18.78053
555.3295, 18.65378
555.8116, 18.93925
556.2937, 19.24921
556.7758, 19.21630
557.2579, 18.85728
557.7401, 18.63897
558.2222, 19.09818
558.7043, 19.77017
559.1864, 19.52815
559.6685, 18.34042
560.1506, 18.05552
560.6328, 20.07811
561.1149, 23.06630
561.5970, 23.86982
562.0791, 21.77877
562.5612, 20.25309
563.0433, 20.39632
563.5255, 21.00037
564.0076, 21.06594
564.4897, 20.60852
564.9718, 20.18500
565.4539, 20.17434
565.9360, 20.38019
566.4182, 20.11901
566.9003, 19.06568
567.3824, 18.14767
567.8645, 16.94797
568.3466, 16.28257
568.8287, 17.12488
569.3109, 19.06445
569.7930, 20.59616
570.2751, 20.66749
570.7572, 19.88125
571.2393, 19.47383
571.7214, 19.47300
572.2036, 19.50193
572.6857, 19.34245
573.1678, 19.28148
573.6499, 19.87254
574.1320, 21.09374
574.6141, 21.71755
575.0963, 20.77646
575.5784, 19.60376
576.0605, 19.53074
576.5426, 20.26530
577.0247, 20.63376
577.5068, 20.07400
577.9890, 19.06467
578.4711, 18.48962
578.9532, 18.45868
579.4353, 18.61437
579.9174, 19.26867
580.3995, 19.77645
580.8817, 19.74373
581.3638, 19.34695
581.8459, 18.92137
582.3280, 18.61316
582.8101, 18.43572
583.2922, 18.38154
583.7744, 18.44177
584.2565, 18.84796
584.7386, 20.13356
585.2207, 21.04968
585.7029, 20.27326
586.1850, 18.46882
586.6671, 17.37400
587.1492, 17.90579
587.6313, 18.57952
588.1135, 17.97385
588.5956, 16.72076
589.0777, 16.55542
589.5598, 17.94759
590.0419, 19.37179
590.5240, 19.05284
591.0062, 16.86745
591.4883, 15.85382
591.9704, 16.95491
592.4525, 17.93394
592.9346, 18.13005
593.4167, 17.97017
593.8989, 17.97460
594.3810, 18.25430
594.8631, 18.54903
595.3452, 18.53890
595.8273, 18.26601
596.3094, 18.25608
596.7916, 18.66306
597.2737, 18.98196
597.7558, 18.95689
598.2379, 18.74915
598.7200, 18.43189
599.2021, 17.97506
599.6843, 17.77536
600.1664, 18.26119
600.6485, 19.01298
601.1306, 19.51619
601.6127, 19.71543
602.0948, 19.54194
602.5770, 18.87832
603.0591, 17.94790
603.5412, 17.36686
604.0233, 17.34409
604.5054, 17.35438
604.9875, 17.47132
605.4697, 17.55639
605.9518, 17.35877
606.4339, 17.05611
606.9160, 17.17573
607.3981, 18.08435
607.8802, 19.23072
608.3624, 19.32767
608.8445, 18.16432
609.3266, 17.67653
609.8087, 18.63597
610.2908, 19.72925
610.7729, 19.98446
611.2551, 19.59778
611.7372, 19.11691
612.2193, 18.43743
612.7014, 18.00745
613.1835, 18.43846
613.6656, 19.31400
614.1478, 19.64470
614.6299, 19.18918
615.1120, 18.56845
615.5941, 18.42423
616.0762, 18.75930
616.5583, 18.88932
617.0405, 18.39907
617.5226, 18.22606
618.0047, 18.93568
618.4868, 19.78055
618.9689, 19.99641
619.4510, 19.50153
619.9332, 18.76522
620.4153, 17.99797
620.8974, 17.34263
621.3795, 17.46714
621.8616, 18.54599
622.3438, 19.48121
622.8259, 19.87935
623.3080, 19.91790
623.7901, 19.79591
624.2722, 19.50261
624.7543, 19.26920
625.2365, 19.21125
625.7186, 19.19073
626.2007, 19.08759
626.6828, 18.92641
627.1649, 18.77971
627.6470, 18.67616
628.1292, 18.63457
628.6113, 18.70234
629.0934, 18.93127
629.5755, 19.05200
630.0576, 19.08679
630.5397, 18.97814
631.0219, 18.40044
631.5040, 17.78592
631.9861, 17.89869
632.4682, 18.98929
632.9503, 19.94632
633.4324, 19.42430
633.9146, 17.95202
634.3967, 17.31989
634.8788, 17.75062
635.3609, 18.23415
635.8430, 18.13967
636.3251, 17.70842
636.8073, 17.66326
637.2894, 18.20036
637.7715, 18.59060
638.2536, 18.60940
638.7357, 18.53714
639.2178, 18.57869
639.7000, 18.72195
640.1821, 18.89880
640.6642, 19.08393
641.1463, 19.17871
641.6284, 18.87329
642.1105, 18.00771
642.5927, 17.64161
643.0748, 18.33407
643.5569, 18.94139
644.0390, 18.54128
644.5211, 17.65668
645.0032, 17.39843
645.4854, 18.24848
645.9675, 19.22158
646.4496, 19.78126
646.9317, 19.97602
647.4138, 19.76423
647.8959, 19.17926
648.3781, 18.69163
648.8602, 18.68645
649.3423, 19.03288
649.8244, 19.11135
650.3065, 18.65681
650.7886, 18.32585
651.2708, 18.33306
651.7529, 18.29967
652.2350, 17.82633
652.7171, 17.08702
653.1992, 16.63225
653.6813, 16.80918
654.1635, 17.26197
654.6456, 17.38440
655.1277, 17.22096
655.6098, 17.39887
656.0919, 18.16313
656.5740, 18.90961
657.0562, 18.94396
657.5383, 18.44249
658.0204, 18.64743
658.5025, 20.70767
658.9846, 22.03577
659.4667, 21.46360
659.9489, 20.04373
660.4310, 18.62763
660.9131, 17.47122
661.3952, 16.72335
661.8773, 16.48549
662.3594, 16.74115
662.8416, 17.62053
663.3237, 19.52343
663.8058, 20.56323
664.2879, 19.85352
664.7700, 18.73945
665.2521, 17.87735
665.7343, 17.38651
666.2164, 17.69620
666.6985, 19.75850
667.1806, 21.54868
667.6627, 21.30626
668.1448, 19.86488
668.6270, 18.68676
669.1091, 18.09951
669.5912, 17.99627
670.0733, 18.37685
670.5554, 19.12708
671.0375, 19.40253
671.5197, 18.72541
672.0018, 18.35629
672.4839, 18.80719
672.9660, 19.25925
673.4481, 18.94809
673.9302, 18.10720
674.4124, 17.62072
674.8945, 17.93499
675.3766, 18.80957
675.8587, 20.46257
676.3408, 22.53924
676.8229, 23.10959
677.3051, 21.54876
677.7872, 19.84436
678.2693, 19.88273
678.7514, 21.45836
679.2335, 22.18729
679.7156, 21.51870
680.1978, 20.84037
680.6799, 20.20719
681.1620, 19.74309
681.6441, 19.83188
682.1262, 20.23197
682.6083, 20.01449
683.0905, 18.36236
683.5726, 16.31493
684.0547, 16.05107
684.5368, 17.56742
685.0189, 18.74139
685.5010, 19.03149
685.9832, 19.23083
686.4653, 20.20803
686.9474, 21.69799
687.4295, 22.35125
687.9116, 21.54888
688.3937, 20.71231
688.8759, 20.19758
689.3580, 19.87968
689.8401, 19.66678
690.3222, 19.53184
690.8043, 19.44410
691.2864, 19.37154
691.7686, 19.37481
692.2507, 19.70887
692.7328, 20.49604
693.2149, 20.79668
693.6970, 20.19580
694.1791, 19.50306
694.6613, 19.28826
695.1434, 19.39479
695.6255, 19.47911
696.1076, 19.43357
696.5897, 19.47806
697.0718, 19.83651
697.5540, 20.26788
698.0361, 20.50616
698.5182, 20.52394
699.0003, 20.33175
699.4824, 19.90618
699.9645, 19.44248
700.4467, 19.51569
700.9288, 20.39856
701.4109, 20.78946
701.8930, 20.32002
702.3751, 19.70011
702.8572, 19.11167
703.3394, 18.66697
703.8215, 18.57200
704.3036, 18.90505
704.7857, 19.43853
705.2678, 20.34017
705.7499, 21.19921
706.2321, 21.32906
706.7142, 20.80544
707.1963, 20.30754
707.6784, 20.20131
708.1605, 20.21862
708.6426, 19.72654
709.1248, 18.34865
709.6069, 17.81730
710.0890, 18.82235
710.5711, 19.88412
711.0532, 20.70903
711.5353, 21.20117
712.0175, 21.09642
712.4996, 20.31335
712.9817, 19.71170
713.4638, 20.07001
713.9459, 20.77899
714.4280, 20.90318
714.9102, 20.53615
715.3923, 20.37442
715.8744, 20.72837
716.3565, 21.25454
716.8386, 21.41915
717.3207, 21.13102
717.8029, 21.14279
718.2850, 22.01280
718.7671, 22.47972
719.2492, 21.82489
719.7313, 20.91649
720.2134, 20.66346
720.6956, 21.13605
721.1777, 21.67641
721.6598, 21.81191
722.1419, 21.86252
722.6240, 22.39894
723.1061, 23.24203
723.5883, 23.60029
724.0704, 23.21733
724.5525, 22.67689
725.0346, 22.64294
725.5167, 22.19441
725.9988, 21.70004
726.4810, 21.76302
726.9631, 21.49072
727.4452, 21.58549
727.9273, 21.52489
728.4094, 21.95111
728.8915, 22.30970
729.3737, 22.60468
729.8558, 22.92563
730.3379, 23.03599
730.8200, 22.34771
731.3021, 21.27146
731.7842, 21.08672
732.2664, 22.00157
732.7485, 23.04699
733.2306, 23.50758
733.7127, 23.50467
734.1948, 23.50395
734.6769, 23.42164
735.1591, 23.49928
735.6412, 23.72484
736.1233, 24.11648
736.6054, 24.96140
737.0875, 25.91110
737.5696, 26.20912
738.0518, 25.48941
738.5339, 24.88230
739.0160, 25.67984
739.4981, 27.05088
739.9802, 27.39018
740.4623, 26.67843
740.9445, 25.73088
741.4266, 24.87956
741.9087, 24.37296
742.3908, 24.74080
742.8729, 26.28208
743.3550, 27.41624
743.8372, 28.21807
744.3193, 28.48855
744.8014, 27.53058
745.2835, 26.39085
745.7656, 26.32478
746.2477, 27.45684
746.7299, 28.67316
747.2120, 29.50303
747.6941, 30.00005
748.1762, 29.98374
748.6583, 29.67353
749.1404, 29.71542
749.6226, 30.29383
750.1047, 31.31893
750.5868, 32.85654
751.0689, 34.76227
751.5510, 35.38954
752.0331, 33.69217
752.5153, 32.72834
752.9974, 33.56631
753.4795, 34.77703
753.9616, 35.52662
754.4437, 35.90206
754.9258, 36.29194
755.4080, 36.70045
755.8901, 37.37812
756.3722, 38.80933
756.8543, 40.46375
757.3364, 41.29375
757.8185, 41.40005
758.3007, 42.07709
758.7828, 44.17459
759.2649, 46.87093
759.7470, 48.19621
760.2291, 47.64634
760.7112, 48.25809
761.1934, 50.68632
761.6755, 53.37734
762.1576, 55.95785
762.6397, 58.22374
763.1218, 59.72281
763.6039, 60.32264
764.0861, 61.13235
764.5682, 62.57152
765.0503, 64.32940
765.5324, 66.27123
766.0145, 68.31270
766.4966, 70.34660
766.9788, 72.33955
767.4609, 74.31709
767.9430, 76.29843
768.4251, 78.28902
768.9072, 80.26884
769.3893, 82.16615
769.8715, 84.41704
770.3536, 87.31305
770.8357, 90.33698
771.3178, 93.04339
771.7999, 95.45582
772.2820, 97.70888
772.7642, 100.2205
773.2463, 102.0183
773.7284, 102.3318
774.2105, 102.2176
774.6926, 102.5682
775.1747, 103.3514
775.6569, 104.1577
776.1390, 104.7932
776.6211, 105.2854
777.1032, 105.6821
777.5853, 105.9750
778.0674, 106.1361
778.5496, 106.1723
779.0317, 106.0019
779.5138, 105.6098
779.9959, 104.9445
780.4780, 103.8347
780.9601, 102.0537
781.4423, 100.7591
781.9244, 100.2374
782.4065, 99.83072
782.8886, 99.48843
783.3707, 99.05885
783.8528, 98.30141
784.3350, 97.25143
784.8171, 96.31165
785.2992, 95.93274
785.7813, 95.55245
786.2634, 94.20598
786.7455, 92.23283
787.2277, 90.89761
787.7098, 90.43909
788.1919, 89.76299
788.6740, 87.93306
789.1561, 85.36651
789.6382, 83.67211
790.1204, 83.43394
790.6025, 82.67482
791.0846, 81.03307
791.5667, 79.13982
792.0488, 76.85426
792.5309, 74.65143
793.0131, 73.28155
793.4952, 72.92769
793.9773, 72.95201
794.4594, 73.19704
794.9415, 73.56947
795.4236, 74.06043
795.9058, 74.59554
796.3879, 74.89860
796.8700, 74.93491
797.3521, 75.24843
797.8342, 76.51535
798.3163, 78.50387
798.7985, 79.89573
799.2806, 80.51960
799.7627, 81.59790
800.2448, 83.64757
800.7269, 85.82700
801.2090, 87.20910
801.6912, 88.05700
802.1733, 89.80351
802.6554, 92.99326
803.1375, 96.22276
803.6196, 99.49271
804.1017, 102.4755
804.5839, 104.2498
805.0660, 105.6813
805.5481, 108.7918
806.0302, 114.3559
806.5123, 120.1072
806.9944, 123.6248
807.4766, 125.6793
807.9587, 127.8180
808.4408, 130.1626
808.9229, 133.6523
809.4050, 138.7722
809.8871, 144.1837
810.3693, 148.3645
810.8514, 151.3167
811.3335, 153.5113
811.8156, 154.2454
812.2977, 155.4082
812.7798, 158.0868
813.2620, 160.5410
813.7441, 161.5268
814.2262, 161.3398
814.7083, 160.9874
815.1904, 160.8353
815.6725, 160.2948
816.1547, 158.6378
816.6368, 156.6857
817.1189, 155.3242
817.6010, 154.5387
818.0831, 153.9371
818.5652, 153.3584
819.0474, 153.1607
819.5295, 153.7905
820.0116, 155.2279
820.4937, 157.1778
820.9758, 159.5193
821.4579, 163.1493
821.9401, 168.5551
822.4222, 175.0177
822.9043, 182.1158
823.3864, 189.7697
823.8685, 196.9696
824.3506, 203.2762
824.8328, 209.7148
825.3149, 216.4754
825.7970, 223.3827
826.2791, 230.0225
826.7612, 236.7825
827.2433, 244.6574
827.7255, 254.1399
828.2076, 264.0048
828.6897, 273.2853
829.1718, 282.2537
829.6539, 290.9765
830.1360, 299.7153
830.6182, 309.7202
831.1003, 321.4420
831.5824, 334.0615
832.0645, 346.8060
832.5466, 359.5684
833.0287, 369.8620
833.5109, 376.6426
833.9930, 384.1471
834.4751, 394.9915
834.9572, 404.6422
835.4393, 409.8145
835.9214, 410.8216
836.4036, 408.1476
836.8857, 401.6822
837.3678, 391.8165
837.8499, 377.0970
838.3320, 360.4754
838.8141, 344.2984
839.2963, 327.8468
839.7784, 308.9121
840.2605, 286.9716
840.7426, 264.7676
841.2247, 244.1365
841.7068, 225.0745
842.1890, 207.4297
842.6711, 191.2319
843.1532, 177.5374
843.6353, 166.6160
844.1174, 156.7474
844.5995, 146.4226
845.0817, 135.9494
845.5638, 127.1088
846.0459, 120.2318
846.5280, 114.1145
847.0101, 109.1070
847.4922, 104.3350
847.9744, 99.11642
848.4565, 93.93883
848.9386, 89.64561
849.4207, 86.43835
849.9028, 83.14801
850.3849, 79.18709
850.8671, 75.37124
851.3492, 71.92240
851.8313, 69.05565
852.3134, 67.18825
852.7955, 66.24608
853.2776, 65.52899
853.7598, 64.63889
854.2419, 63.57375
854.7240, 62.35486
855.2061, 60.95007
855.6882, 58.91231
856.1703, 56.22988
856.6525, 54.72565
857.1346, 55.61834
857.6167, 57.55818
858.0988, 57.85038
858.5809, 56.06340
859.0630, 55.58405
859.5452, 57.39582
860.0273, 58.75970
860.5094, 58.29433
860.9915, 57.48064
861.4736, 57.57899
861.9557, 58.51154
862.4379, 59.67355
862.9200, 61.15214
863.4021, 62.57450
863.8842, 63.63485
864.3663, 64.72318
864.8484, 66.19082
865.3306, 67.97774
865.8127, 69.91599
866.2948, 71.92813
866.7769, 73.94831
867.2590, 76.01395
867.7411, 77.97586
868.2233, 79.40193
868.7054, 80.37840
869.1875, 81.28386
869.6696, 82.22188
870.1517, 83.67174
870.6339, 86.18050
871.1160, 89.45474
871.5981, 92.07957
872.0802, 93.73488
872.5623, 96.03096
873.0444, 99.78826
873.5266, 103.0708
874.0087, 104.4747
874.4908, 104.8483
874.9729, 105.8093
875.4550, 107.5506
875.9371, 108.8039
876.4193, 108.9466
876.9014, 109.1069
877.3835, 110.7401
877.8656, 111.9584
878.3477, 110.5669
878.8298, 106.6864
879.3120, 101.9558
879.7941, 97.02620
880.2762, 91.99120
880.7583, 86.75328
881.2404, 81.58837
881.7225, 77.02431
882.2047, 73.02345
882.6868, 69.30418
883.1689, 65.73418
883.6510, 62.26947
884.1331, 58.78556
884.6152, 55.32622
885.0974, 52.35378
885.5795, 49.92665
886.0616, 47.66451
886.5437, 45.52871
887.0258, 43.39217
887.5079, 40.97945
887.9901, 38.52453
888.4722, 36.97683
888.9543, 37.03129
889.4364, 36.66648
889.9185, 35.39221
890.4006, 34.27943
890.8828, 34.01836
891.3649, 33.99384
891.8470, 33.35308
892.3291, 32.05111
892.8112, 30.90593
893.2933, 30.16821
893.7755, 29.77173
894.2576, 30.07886
894.7397, 30.45154
895.2218, 29.79745
895.7039, 28.40011
896.1860, 27.70276
896.6682, 28.42950
897.1503, 29.27734
897.6324, 28.28952
898.1145, 26.22278
898.5966, 25.43298
899.0787, 25.85269
899.5609, 26.15198
900.0430, 25.90472
900.5251, 25.62127
901.0072, 25.83183
901.4893, 26.38698
901.9714, 26.60750
902.4536, 26.56075
902.9357, 25.82145
903.4178, 23.66507
903.8999, 22.06143
904.3820, 22.47031
904.8641, 23.83812
905.3463, 24.35375
905.8284, 23.92668
906.3105, 23.46121
906.7926, 22.97878
907.2747, 22.51813
907.7568, 21.93613
908.2390, 21.50415
908.7211, 21.52453
909.2032, 21.90143
909.6853, 22.33663
910.1674, 22.78891
910.6495, 23.01757
911.1317, 22.53928
911.6138, 22.00354
912.0959, 22.38751
912.5780, 23.28204
913.0601, 23.58783
913.5422, 23.05480
914.0244, 22.39189
914.5065, 22.23710
914.9886, 22.30291
915.4707, 21.85609
915.9528, 21.02389
916.4349, 20.65069
916.9171, 20.85554
917.3992, 21.24337
917.8813, 21.64182
918.3634, 21.93870
918.8455, 21.89212
919.3276, 21.46250
919.8098, 21.42314
920.2919, 21.93516
920.7740, 22.43211
921.2561, 22.82029
921.7382, 23.10784
922.2203, 23.34008
922.7025, 23.47671
923.1846, 23.32250
923.6667, 22.39957
924.1488, 22.22937
924.6309, 23.61043
925.1130, 25.02268
925.5952, 25.80387
926.0773, 26.21438
926.5594, 26.55636
927.0415, 26.88113
927.5236, 27.18362
928.0057, 27.61692
928.4879, 27.79590
928.9700, 27.30465
929.4521, 26.53668
929.9342, 25.78611
930.4163, 25.19688
930.8984, 25.01022
931.3806, 25.30692
931.8627, 25.81551
932.3448, 26.36718
932.8269, 26.88242
933.3090, 27.28533
933.7911, 27.51669
934.2733, 27.26427
934.7554, 26.48319
935.2375, 25.46758
935.7196, 24.39436
936.2017, 23.31750
936.6838, 22.32872
937.1660, 21.41589
937.6481, 20.81894
938.1302, 20.58562
938.6123, 20.50163
939.0944, 20.62752
939.5765, 20.59091
940.0587, 19.92367
940.5408, 18.74186
941.0229, 17.92934
941.5050, 17.71911
941.9871, 17.45040
942.4692, 16.51733
942.9514, 16.20349
943.4335, 17.75427
943.9156, 19.79595
944.3977, 20.66012
944.8798, 20.24652
945.3619, 19.19144
945.8441, 16.44333
946.3262, 14.62230
946.8083, 15.40812
947.2904, 16.84987
947.7725, 17.60511
948.2546, 17.58298
948.7368, 16.75732
949.2189, 15.09097
949.7010, 13.89329
950.1831, 14.45284
950.6652, 15.49088
951.1473, 15.84630
951.6295, 15.68186
952.1116, 15.14188
952.5937, 14.40507
953.0758, 14.01176
953.5579, 14.29529
954.0400, 14.81743
954.5222, 15.12322
955.0043, 15.16133
955.4864, 14.60053
955.9685, 13.54570
956.4506, 12.79823
956.9327, 12.59731
957.4149, 12.53080
957.8970, 12.17393
958.3791, 11.80155
958.8612, 12.48623
959.3433, 14.36154
959.8254, 15.25229
960.3076, 14.84666
960.7897, 14.16277
961.2718, 13.49687
961.7539, 13.05117
962.2360, 13.19055
962.7181, 13.86918
963.2003, 13.98750
963.6824, 13.19301
964.1645, 12.56057
964.6466, 12.20074
965.1287, 12.00736
965.6108, 11.96549
966.0930, 12.03935
966.5751, 12.22612
967.0572, 12.54970
967.5393, 12.70891
968.0214, 12.32213
968.5035, 12.23632
968.9857, 13.17321
969.4678, 14.04820
969.9499, 13.54559
970.4320, 12.43807
970.9141, 12.78995
971.3962, 15.31756
971.8784, 17.10844
972.3605, 16.37612
972.8426, 14.93693
973.3247, 13.35120
973.8068, 12.23688
974.2889, 12.77833
974.7711, 14.54048
975.2532, 15.57924
975.7353, 14.91393
976.2174, 13.92606
976.6995, 14.03352
977.1816, 13.32558
977.6638, 13.90937
978.1459, 12.78857
978.6280, 12.20794
979.1101, 12.37687
979.5922, 12.81668
980.0743, 13.21871
980.5565, 13.57948
981.0386, 14.00980
981.5207, 14.38487
982.0028, 14.07467
982.4849, 13.15236
982.9670, 12.60913
983.4492, 12.78400
983.9313, 12.94390
984.4134, 12.30885
984.8955, 11.27708
985.3776, 11.18326
985.8597, 12.05564
986.3419, 13.04329
986.8240, 14.16571
987.3061, 14.82976
987.7882, 14.69091
988.2703, 14.24620
988.7524, 14.08127
989.2346, 14.17202
989.7167, 14.28763
990.1988, 14.48791
990.6809, 14.51831
991.1630, 14.25925
991.6451, 14.00345
992.1273, 13.83846
992.6094, 13.81872
993.0915, 14.17414
993.5736, 14.96655
994.0557, 14.98214
994.5378, 13.19573
995.0200, 12.14528
995.5021, 12.47343
995.9842, 13.16071
996.4663, 13.98236
996.9484, 14.66962
997.4305, 14.73038
997.9127, 14.07862
998.3948, 13.48747
998.8769, 12.67403
999.3590, 12.48167
999.8411, 13.97350
1000.323, 15.44220
1000.805, 15.30130
1001.287, 14.18989
1001.770, 13.59389
1002.252, 13.85813
1002.734, 14.11425
1003.216, 13.78059
1003.698, 13.59579
1004.180, 14.37319
1004.662, 15.24330
1005.144, 15.14701
1005.627, 14.29133
1006.109, 13.51394
1006.591, 13.10852
1007.073, 12.73371
1007.555, 11.76415
1008.037, 11.09052
1008.519, 11.94235
1009.001, 13.49590
1009.483, 14.59952
1009.966, 15.04936
1010.448, 14.86056
1010.930, 14.01255
1011.412, 13.08711
1011.894, 12.59081
1012.376, 12.44374
1012.858, 12.65492
1013.340, 13.08206
1013.823, 13.44630
1014.305, 13.65956
1014.787, 13.57789
1015.269, 13.10188
1015.751, 12.54757
1016.233, 12.38351
1016.715, 12.47039
1017.197, 12.35059
1017.679, 12.10081
1018.162, 12.19702
1018.644, 12.70918
1019.126, 13.14438
1019.608, 13.17064
1020.090, 12.96589
1020.572, 12.73620
1021.054, 12.52846
1021.536, 12.84660
1022.018, 13.65710
1022.501, 13.78200
1022.983, 12.89103
1023.465, 12.17953
1023.947, 12.58263
1024.429, 13.49352
1024.911, 13.57583
1025.393, 12.80793
1025.875, 12.20753
1026.358, 11.77937
1026.840, 11.46154
1027.322, 11.21326
1027.804, 11.21681
1028.286, 11.68454
1028.768, 12.37781
1029.250, 12.68727
1029.732, 12.56692
1030.214, 12.38682
1030.697, 12.09733
1031.179, 11.94632
1031.661, 12.08605
1032.143, 12.16718
1032.625, 11.86544
1033.107, 11.33986
1033.589, 11.04388
1034.071, 11.01536
1034.553, 11.06183
1035.036, 11.27916
1035.518, 11.34647
1036.000, 11.02837
1036.482, 10.76171
1036.964, 10.90223
1037.446, 11.35574
1037.928, 11.88451
1038.410, 12.63992
1038.893, 12.91524
1039.375, 11.98794
1039.857, 11.75589
1040.339, 13.63640
1040.821, 15.34581
1041.303, 14.83111
1041.785, 12.85511
1042.267, 11.57061
1042.750, 11.13053
1043.232, 10.86646
1043.714, 10.78804
1044.196, 10.86661
1044.678, 11.26555
1045.160, 11.66199
1045.642, 11.70658
1046.124, 11.58936
1046.606, 11.80245
1047.089, 12.46277
1047.571, 13.07317
1048.053, 13.68022
1048.535, 14.09639
1049.017, 14.11218
1049.499, 14.06801
1049.981, 14.31333
1050.463, 14.67215
1050.945, 14.71467
1051.428, 14.34791
1051.910, 13.96509
1052.392, 13.66272
1052.874, 13.32539
1053.356, 12.75870
1053.838, 12.28878
1054.320, 12.31370
1054.802, 12.57836
1055.285, 12.52278
1055.767, 12.03568
1056.249, 11.60903
1056.731, 11.10159
1057.213, 11.03516
1057.695, 12.07038
1058.177, 13.17123
1058.659, 13.52073
1059.141, 13.35301
1059.624, 13.13280
1060.106, 12.94095
1060.588, 12.94007
1061.070, 13.45385
1061.552, 13.80512
1062.034, 13.86830
1062.516, 13.53152
1062.998, 12.21656
1063.480, 10.65818
1063.963, 10.10590
1064.445, 10.73831
1064.927, 11.67388
1065.409, 13.10122
1065.891, 14.07915
1066.373, 13.94318
1066.855, 13.48237
1067.337, 13.06052
1067.820, 12.85286
1068.302, 13.26348
1068.784, 14.21174
1069.266, 14.62201
1069.748, 13.76581
1070.230, 12.86668
1070.712, 12.41668
1071.194, 12.16987
1071.677, 12.11249
1072.159, 12.03672
1072.641, 11.46842
1073.123, 10.53070
1073.605, 10.21890
1074.087, 11.21836
1074.569, 12.10699
1075.051, 12.11134
1075.533, 11.88850
1076.016, 11.61825
1076.498, 11.59295
1076.980, 12.45703
1077.462, 13.93291
1077.944, 14.72484
1078.426, 14.26510
1078.908, 13.57357
1079.390, 12.99509
1079.873, 12.48638
1080.355, 11.81855
1080.837, 11.35482
1081.319, 11.82273
1081.801, 12.86297
1082.283, 13.22585
1082.765, 12.43944
1083.247, 11.67704
1083.729, 11.22071
1084.212, 11.23817
1084.694, 12.22143
1085.176, 13.41191
1085.658, 14.07800
1086.140, 14.28905
1086.622, 14.38693
1087.104, 14.45261
1087.586, 14.44627
1088.068, 14.57096
1088.551, 14.33952
1089.033, 12.98057
1089.515, 11.64277
1089.997, 11.54594
1090.479, 12.14595
1090.961, 12.35924
1091.443, 11.98632
1091.925, 11.35660
1092.408, 9.962472
1092.890, 9.196964
1093.372, 10.27121
1093.854, 11.50169
1094.336, 11.44569
1094.818, 10.87017
1095.300, 11.20990
1095.782, 12.44460
1096.265, 12.98266
1096.747, 11.74450
1097.229, 10.96861
1097.711, 12.03788
1098.193, 13.06004
1098.675, 12.50221
1099.157, 11.58512
1099.639, 11.99844
1100.121, 13.47545
1100.604, 14.27074
1101.086, 13.75627
1101.568, 13.37501
1102.050, 14.03502
1102.532, 14.23672
1103.014, 12.42226
1103.496, 10.63706
1103.978, 11.27157
1104.460, 13.36252
1104.943, 14.06586
1105.425, 12.71067
1105.907, 11.64359
1106.389, 11.18018
1106.871, 11.20172
1107.353, 12.34711
1107.835, 13.28975
1108.317, 12.88627
1108.800, 11.76362
1109.282, 11.01518
1109.764, 10.72773
1110.246, 10.47726
1110.728, 10.04101
1111.210, 9.910322
1111.692, 10.42885
1112.174, 10.94427
1112.656, 11.18720
1113.139, 11.23021
1113.621, 10.97717
1114.103, 10.51019
1114.585, 10.70273
1115.067, 12.74679
1115.549, 13.28692
1116.031, 10.77453
1116.513, 8.964589
1116.995, 9.329634
1117.478, 10.53635
1117.960, 11.78229
1118.442, 12.86332
1118.924, 13.06032
1119.406, 12.01299
1119.888, 11.50901
1120.370, 11.69399
1120.852, 12.15312
1121.335, 13.02635
1121.817, 13.77614
1122.299, 14.16305
1122.781, 14.06370
1123.263, 13.07722
1123.745, 11.16976
1124.227, 10.32691
1124.709, 10.93205
1125.192, 11.19779
1125.674, 10.74329
1126.156, 10.45101
1126.638, 10.75208
1127.120, 11.35372
1127.602, 11.97602
1128.084, 12.55225
1128.566, 12.68158
1129.048, 12.28523
1129.531, 12.18584
1130.013, 12.46467
1130.495, 12.75714
1130.977, 12.98888
1131.459, 12.91068
1131.941, 12.26788
1132.423, 11.34708
1132.905, 10.66177
1133.387, 10.23835
1133.870, 10.74714
1134.352, 12.12869
1134.834, 12.55908
1135.316, 11.69673
1135.798, 10.49324
1136.280, 9.422724
1136.762, 8.957864
1137.244, 10.00245
1137.727, 11.84895
1138.209, 12.17446
1138.691, 11.37539
1139.173, 11.16120
1139.655, 11.61442
1140.137, 11.99244
1140.619, 12.05620
1141.101, 12.30558
1141.583, 13.28365
1142.066, 14.22343
1142.548, 13.69369
1143.030, 13.66987
1143.512, 11.88990
1143.994, 11.84517
1144.476, 10.86876
1144.958, 9.033829
1145.440, 8.095704
1145.922, 8.982244
1146.405, 10.27490
1146.887, 10.67066
1147.369, 10.74581
1147.851, 11.27201
1148.333, 11.83645
1148.815, 11.66211
1149.297, 10.98728
1149.779, 10.60993
1150.262, 10.73028
1150.744, 10.83045
1151.226, 10.50341
1151.708, 10.26372
1152.190, 10.59018
1152.672, 10.99639
1153.154, 10.95065
1153.636, 10.78630
1154.119, 11.28255
1154.601, 12.21790
1155.083, 12.19497
1155.565, 10.41202
1156.047, 9.153091
1156.529, 9.546648
1157.011, 10.12903
1157.493, 10.12401
1157.975, 10.16844
1158.458, 11.26693
1158.940, 12.67004
1159.422, 12.63040
1159.904, 10.88036
1160.386, 9.586560
1160.868, 8.659231
1161.350, 8.629271
1161.832, 10.41923
1162.314, 11.98327
1162.797, 12.33851
1163.279, 12.21688
1163.761, 12.44210
1164.243, 12.86004
1164.725, 12.65496
1165.207, 11.36035
1165.689, 11.17815
1166.171, 12.60851
1166.654, 13.70893
1167.136, 14.12562
1167.618, 13.67742
1168.100, 11.93945
1168.582, 9.993883
1169.064, 9.800066
1169.546, 11.12423
1170.028, 11.92604
1170.510, 12.20628
1170.993, 11.68498
1171.475, 10.31211
1171.957, 9.558481
1172.439, 9.985967
1172.921, 10.83847
1173.403, 11.48783
1173.885, 11.90490
1174.367, 12.03953
1174.849, 11.89205
1175.332, 11.12677
1175.814, 10.08049
1176.296, 10.33141
1176.778, 11.86179
1177.260, 12.89464
1177.742, 12.57556
1178.224, 11.77474
1178.706, 11.11040
1179.189, 10.67653
1179.671, 10.83254
1180.153, 11.13430
1180.635, 10.74025
1181.117, 9.995295
1181.599, 9.906923
1182.081, 10.53341
1182.563, 10.85561
1183.046, 10.27379
1183.528, 9.723242
1184.010, 9.730485
1184.492, 9.984925
1184.974, 10.39375
1185.456, 10.84262
1185.938, 11.31354
1186.420, 11.71271
1186.902, 11.75597
1187.385, 11.36561
1187.867, 11.35363
1188.349, 12.36894
1188.831, 13.03456
1189.313, 13.20779
1189.795, 12.84806
1190.277, 11.29839
1190.759, 9.730959
1191.241, 9.334575
1191.724, 9.911176
1192.206, 10.75783
1192.688, 12.12118
1193.170, 12.62520
1193.652, 11.84949
1194.134, 11.57025
1194.616, 12.32842
1195.098, 12.98270
1195.581, 12.87885
1196.063, 12.36259
1196.545, 11.83506
1197.027, 11.37724
1197.509, 11.47269
1197.991, 11.13793
1198.473, 12.01597
1198.955, 11.34895
1199.438, 11.35114
1199.920, 12.30701
1200.402, 12.97339
1200.884, 12.50969
1201.366, 11.49054
1201.848, 10.23621
1202.330, 9.247853
1202.812, 10.02854
1203.294, 9.323513
1203.776, 11.38311
1204.259, 10.02070
1204.741, 9.837861
1205.223, 11.34021
1205.705, 12.75234
1206.187, 13.14331
1206.669, 12.96227
1207.151, 11.78760
1207.633, 10.96269
1208.116, 12.03206
1208.598, 13.67212
1209.080, 14.47635
1209.562, 14.44885
1210.044, 13.83725
1210.526, 12.58817
1211.008, 12.12436
1211.490, 13.86272
1211.973, 14.66674
1212.455, 13.06740
1212.937, 11.53086
1213.419, 11.14229
1213.901, 11.28976
1214.383, 11.48591
1214.865, 11.68383
1215.347, 11.69396
1215.829, 11.45222
1216.312, 11.43529
1216.794, 11.61142
1217.276, 12.29257
1217.758, 13.66352
1218.240, 14.73686
1218.722, 15.06498
1219.204, 14.59342
1219.686, 13.01117
1220.168, 11.15410
1220.651, 11.57289
1221.133, 13.54480
1221.615, 14.19898
1222.097, 13.61091
1222.579, 12.25253
1223.061, 10.56102
1223.543, 10.18422
1224.025, 11.89197
1224.508, 13.71143
1224.990, 13.79653
1225.472, 13.30969
1225.954, 13.37875
1226.436, 13.54496
1226.918, 13.14738
1227.400, 12.53560
1227.882, 12.32081
1228.365, 12.55085
1228.847, 12.97446
1229.329, 13.60135
1229.811, 14.07864
1230.293, 14.34048
1230.775, 14.39836
1231.257, 14.41072
1231.739, 14.05216
1232.221, 12.53039
1232.703, 10.94562
1233.186, 10.91708
1233.668, 12.14692
1234.150, 12.62626
1234.632, 12.14690
1235.114, 11.79851
1235.596, 11.74213
1236.078, 10.84490
1236.560, 8.613049
1237.043, 7.245450
1237.525, 8.096172
1238.007, 9.899486
1238.489, 11.17543
1238.971, 11.89319
1239.453, 11.68065
1239.935, 10.90579
1240.417, 10.90194
1240.900, 11.50570
1241.382, 11.85265
1241.864, 11.78525
1242.346, 11.55810
1242.828, 11.28081
1243.310, 11.22465
1243.792, 11.85708
1244.274, 12.49888
1244.756, 12.49443
1245.239, 12.34734
1245.721, 12.68566
1246.203, 13.13550
1246.685, 13.01994
1247.167, 12.38243
1247.649, 11.82246
1248.131, 11.41459
1248.613, 11.17266
1249.095, 11.10167
1249.578, 11.19710
1250.060, 11.40323
1250.542, 11.88572
1251.024, 12.90494
1251.506, 13.97251
1251.988, 14.51998
1252.470, 14.61030
1252.952, 14.46526
1253.435, 14.08124
1253.917, 13.40159
1254.399, 12.45446
1254.881, 12.31499
1255.363, 13.10351
1255.845, 13.56781
1256.327, 13.13528
1256.809, 12.52994
1257.292, 12.44621
1257.774, 12.53803
1258.256, 12.08354
1258.738, 11.70218
1259.220, 12.66636
1259.702, 14.13422
1260.184, 14.76527
1260.666, 14.44326
1261.148, 13.23819
1261.630, 11.15523
1262.113, 10.13671
1262.595, 12.25944
1263.077, 13.48369
1263.559, 11.39533
1264.041, 9.721655
1264.523, 10.79286
1265.005, 12.59830
1265.487, 13.54986
1265.970, 13.81562
1266.452, 13.71982
1266.934, 13.25583
1267.416, 12.93732
1267.898, 12.84098
1268.380, 12.05054
1268.862, 10.38797
1269.344, 10.00942
1269.827, 11.62996
1270.309, 12.95510
1270.791, 12.26380
1271.273, 10.92046
1271.755, 10.79036
1272.237, 11.37612
1272.719, 11.83473
1273.201, 12.29923
1273.683, 13.20595
1274.166, 14.25486
1274.648, 14.52615
1275.130, 14.06667
1275.612, 14.21133
1276.094, 15.77736
1276.576, 16.54983
1277.058, 14.87646
1277.540, 13.31620
1278.022, 13.04627
1278.505, 12.99850
1278.987, 12.42894
1279.469, 11.72376
1279.951, 11.25077
1280.433, 11.05690
1280.915, 11.43193
1281.397, 12.52854
1281.879, 12.96137
1282.362, 12.67344
1282.844, 12.23256
1283.326, 11.72074
1283.808, 12.01831
1284.290, 13.47907
1284.772, 14.62814
1285.254, 14.28216
1285.736, 12.44571
##END=



