##NAMES=Talmessite
##RRUFFID=R080007
##IDEAL CHEMISTRY=Ca_2_Mg(As^5+^O_4_)_2_&#183;2H_2_O
##LOCALITY=Tsumeb mine, Tsumeb, Otavi District, Oshikoto, Namibia
##OWNER=RRUFF
##SOURCE=William W. Pinch
##DESCRIPTION=Pale yellow to colorless crystals
##STATUS=The identification of this mineral is confirmed by single-crystal X-ray diffraction and chemical analysis.
##URL=rruff.info/R080007
##MEASURED CHEMISTRY=Ca_2.00_(Mg_0.99_Fe_0.01_)_Σ=1_(As_1.00_O_4_)_2_·1.98H_2_O; trace amounts of P; H_2_O estimated by difference
93.40625, 96.47363
93.88837, 92.79921
94.37048, 95.63842
94.85260, 103.5417
95.33472, 112.3493
95.81683, 121.1455
96.29895, 130.3346
96.78107, 140.8919
97.26318, 152.8919
97.74530, 165.9525
98.22742, 179.9124
98.70953, 194.8095
99.19165, 209.4917
99.67377, 223.3901
100.1559, 236.5556
100.6380, 250.5426
101.1201, 265.8247
101.6022, 280.7498
102.0844, 292.4607
102.5665, 300.3123
103.0486, 307.4388
103.5307, 314.4215
104.0128, 320.8293
104.4949, 329.2733
104.9771, 339.4643
105.4592, 351.8810
105.9413, 368.0590
106.4234, 388.6956
106.9055, 411.9798
107.3876, 437.2234
107.8698, 468.4664
108.3519, 495.8943
108.8340, 520.7142
109.3161, 542.3417
109.7982, 556.3824
110.2803, 559.1682
110.7624, 556.8343
111.2446, 552.6591
111.7267, 542.1387
112.2088, 534.6434
112.6909, 531.8235
113.1730, 533.4945
113.6551, 536.1323
114.1373, 538.1408
114.6194, 541.4008
115.1015, 547.4768
115.5836, 558.9444
116.0657, 571.3005
116.5478, 582.5157
117.0300, 592.4354
117.5121, 603.9677
117.9942, 620.4044
118.4763, 638.5630
118.9584, 654.2745
119.4405, 666.8452
119.9227, 676.1268
120.4048, 681.9456
120.8869, 684.3136
121.3690, 683.3931
121.8511, 678.0179
122.3332, 669.3554
122.8154, 659.8621
123.2975, 647.4344
123.7796, 636.2877
124.2617, 631.2871
124.7438, 635.0198
125.2259, 641.3946
125.7081, 644.4631
126.1902, 644.7196
126.6723, 642.6371
127.1544, 642.5048
127.6365, 644.8231
128.1186, 645.8786
128.6008, 644.3757
129.0829, 641.9504
129.5650, 641.2345
130.0471, 642.1147
130.5292, 642.8725
131.0113, 640.5871
131.4935, 636.4592
131.9756, 636.0763
132.4577, 643.4644
132.9398, 654.6534
133.4219, 656.6541
133.9040, 648.5157
134.3862, 639.1296
134.8683, 639.3706
135.3504, 648.9810
135.8325, 656.5254
136.3146, 657.1966
136.7967, 651.9105
137.2789, 650.1577
137.7610, 652.5304
138.2431, 656.8647
138.7252, 660.5421
139.2073, 663.5717
139.6894, 665.9764
140.1716, 667.3730
140.6537, 667.4296
141.1358, 669.0313
141.6179, 672.0903
142.1000, 676.7512
142.5821, 683.7651
143.0643, 694.7948
143.5464, 704.7879
144.0285, 711.3870
144.5106, 712.5149
144.9927, 715.7567
145.4748, 722.4844
145.9570, 731.0553
146.4391, 736.2426
146.9212, 735.8826
147.4033, 734.8478
147.8854, 735.3571
148.3675, 737.9532
148.8497, 741.1829
149.3318, 744.3741
149.8139, 747.8964
150.2960, 753.8705
150.7781, 765.5922
151.2602, 777.3077
151.7424, 785.8026
152.2245, 787.2108
152.7066, 789.8567
153.1887, 794.1999
153.6708, 800.1749
154.1529, 807.4127
154.6351, 815.0632
155.1172, 824.4716
155.5993, 836.4935
156.0814, 853.7852
156.5635, 871.2111
157.0456, 887.1449
157.5278, 901.4388
158.0099, 917.8102
158.4920, 936.6266
158.9741, 958.1116
159.4562, 982.5160
159.9383, 1015.970
160.4205, 1046.866
160.9026, 1073.093
161.3847, 1094.804
161.8668, 1107.167
162.3489, 1107.760
162.8310, 1098.438
163.3132, 1081.344
163.7953, 1050.912
164.2774, 1017.792
164.7595, 986.3119
165.2416, 956.4333
165.7237, 930.2441
166.2059, 907.6813
166.6880, 889.3110
167.1701, 876.0112
167.6522, 869.9601
168.1343, 867.9208
168.6164, 867.9606
169.0986, 870.0455
169.5807, 873.3602
170.0628, 877.1327
170.5449, 881.7297
171.0270, 887.8581
171.5091, 895.5012
171.9913, 905.0244
172.4734, 916.9935
172.9555, 931.8336
173.4376, 948.1787
173.9197, 967.3179
174.4018, 987.5555
174.8840, 1004.026
175.3661, 1012.285
175.8482, 1015.570
176.3303, 1018.149
176.8124, 1021.168
177.2945, 1022.408
177.7767, 1018.519
178.2588, 1010.372
178.7409, 1001.755
179.2230, 995.0841
179.7051, 989.4813
180.1872, 983.2827
180.6694, 975.7988
181.1515, 968.2335
181.6336, 962.0140
182.1157, 957.1427
182.5978, 953.6673
183.0799, 951.7698
183.5621, 951.2725
184.0442, 951.5264
184.5263, 951.9396
185.0084, 953.6553
185.4905, 959.1279
185.9726, 968.2499
186.4547, 978.7325
186.9369, 988.7999
187.4190, 998.7838
187.9011, 1009.506
188.3832, 1020.977
188.8653, 1033.607
189.3474, 1048.256
189.8296, 1065.058
190.3117, 1083.838
190.7938, 1103.323
191.2759, 1124.032
191.7580, 1150.153
192.2401, 1183.731
192.7223, 1223.008
193.2044, 1262.256
193.6865, 1301.329
194.1686, 1344.513
194.6507, 1397.867
195.1328, 1460.787
195.6150, 1522.127
196.0971, 1582.799
196.5792, 1638.748
197.0613, 1676.340
197.5434, 1696.566
198.0255, 1693.797
198.5077, 1657.995
198.9898, 1588.214
199.4719, 1507.656
199.9540, 1416.786
200.4361, 1319.605
200.9182, 1234.990
201.4004, 1163.866
201.8825, 1104.154
202.3646, 1054.134
202.8467, 1014.384
203.3288, 983.3043
203.8109, 962.0475
204.2931, 949.6902
204.7752, 938.1829
205.2573, 926.8759
205.7394, 917.9564
206.2215, 914.2881
206.7036, 916.7004
207.1858, 920.0677
207.6679, 922.9044
208.1500, 925.3846
208.6321, 930.4718
209.1142, 938.7196
209.5963, 948.5252
210.0785, 958.5948
210.5606, 969.2438
211.0427, 978.8251
211.5248, 987.4964
212.0069, 995.2072
212.4890, 999.5451
212.9712, 1000.887
213.4533, 998.2883
213.9354, 990.3646
214.4175, 976.0593
214.8996, 959.3707
215.3817, 940.5786
215.8639, 919.8369
216.3460, 898.8867
216.8281, 876.9971
217.3102, 855.7663
217.7923, 837.0980
218.2744, 820.8610
218.7566, 807.1027
219.2387, 796.3245
219.7208, 788.4464
220.2029, 781.8773
220.6850, 777.0017
221.1671, 773.0417
221.6493, 768.9254
222.1314, 763.5221
222.6135, 760.5377
223.0956, 761.3832
223.5777, 766.2393
224.0598, 770.6292
224.5420, 774.7427
225.0241, 778.2314
225.5062, 780.3769
225.9883, 779.5634
226.4704, 780.8821
226.9525, 786.1063
227.4347, 795.5355
227.9168, 802.8880
228.3989, 806.9374
228.8810, 810.2183
229.3631, 815.3708
229.8452, 823.4324
230.3274, 831.3661
230.8095, 838.0217
231.2916, 843.2567
231.7737, 851.5080
232.2558, 864.4276
232.7379, 878.6498
233.2201, 890.4423
233.7022, 898.0555
234.1843, 906.6654
234.6664, 917.6151
235.1485, 930.8496
235.6306, 943.2175
236.1128, 954.5524
236.5949, 965.3441
237.0770, 976.0877
237.5591, 986.7962
238.0412, 997.4622
238.5233, 1008.648
239.0055, 1020.388
239.4876, 1028.870
239.9697, 1033.159
240.4518, 1035.311
240.9339, 1036.812
241.4160, 1036.571
241.8982, 1037.852
242.3803, 1041.496
242.8624, 1047.461
243.3445, 1053.376
243.8266, 1059.061
244.3087, 1064.942
244.7909, 1071.190
245.2730, 1077.020
245.7551, 1084.818
246.2372, 1095.377
246.7193, 1108.486
247.2014, 1121.412
247.6836, 1133.693
248.1657, 1146.184
248.6478, 1159.328
249.1299, 1173.247
249.6120, 1187.834
250.0941, 1203.978
250.5762, 1221.148
251.0584, 1235.374
251.5405, 1247.398
252.0226, 1255.350
252.5047, 1258.049
252.9868, 1256.024
253.4689, 1247.709
253.9511, 1232.702
254.4332, 1211.170
254.9153, 1183.876
255.3974, 1148.238
255.8795, 1110.961
256.3617, 1076.222
256.8438, 1043.343
257.3259, 1014.272
257.8080, 989.6583
258.2901, 969.0170
258.7722, 949.4695
259.2544, 930.2021
259.7365, 913.2843
260.2186, 899.7966
260.7007, 890.8844
261.1828, 882.1548
261.6649, 872.6510
262.1471, 863.4157
262.6292, 857.6390
263.1113, 856.5496
263.5934, 856.4807
264.0755, 855.4707
264.5576, 852.9171
265.0398, 851.6151
265.5219, 852.0043
266.0040, 853.4300
266.4861, 854.2059
266.9682, 853.7679
267.4503, 854.1127
267.9325, 856.0641
268.4146, 859.7053
268.8967, 864.8657
269.3788, 871.8627
269.8609, 880.0759
270.3430, 888.3654
270.8252, 896.8387
271.3073, 904.9839
271.7894, 912.0690
272.2715, 917.8498
272.7536, 925.3448
273.2357, 935.0037
273.7179, 945.5851
274.2000, 955.8101
274.6821, 965.9576
275.1642, 974.1631
275.6463, 979.7995
276.1284, 982.8597
276.6106, 984.1432
277.0927, 984.2464
277.5748, 981.2792
278.0569, 971.8483
278.5390, 955.3090
279.0211, 938.1105
279.5032, 922.2186
279.9854, 907.5916
280.4675, 892.4929
280.9496, 876.8561
281.4317, 861.0057
281.9138, 844.7982
282.3959, 828.1635
282.8781, 813.1246
283.3602, 800.1567
283.8423, 789.1473
284.3244, 779.9274
284.8065, 772.4567
285.2886, 766.6483
285.7708, 762.5970
286.2529, 760.2639
286.7350, 759.0842
287.2171, 759.1776
287.6992, 760.1752
288.1813, 761.0412
288.6635, 761.7532
289.1456, 762.6906
289.6277, 764.1599
290.1098, 766.1293
290.5919, 768.5255
291.0740, 771.7072
291.5562, 774.7782
292.0383, 775.3174
292.5204, 773.4681
293.0025, 772.1716
293.4846, 773.5699
293.9667, 777.1185
294.4489, 781.1077
294.9310, 785.4982
295.4131, 789.7772
295.8952, 792.7357
296.3773, 794.6344
296.8594, 797.1562
297.3416, 800.6764
297.8237, 805.5991
298.3058, 813.4594
298.7879, 824.9159
299.2700, 836.7987
299.7521, 844.2673
300.2343, 848.7210
300.7164, 854.2682
301.1985, 863.6354
301.6806, 875.1517
302.1627, 886.3579
302.6448, 897.2936
303.1270, 907.5172
303.6091, 917.0406
304.0912, 925.5674
304.5733, 932.9367
305.0554, 939.8557
305.5375, 945.0622
306.0197, 947.9022
306.5018, 948.2643
306.9839, 944.0157
307.4660, 931.4586
307.9481, 913.7990
308.4302, 895.4885
308.9124, 876.2784
309.3945, 858.3342
309.8766, 843.9134
310.3587, 832.4591
310.8408, 821.7462
311.3229, 809.6452
311.8051, 797.8644
312.2872, 788.3905
312.7693, 781.6443
313.2514, 777.1861
313.7335, 776.5549
314.2156, 778.3062
314.6978, 778.2113
315.1799, 771.3301
315.6620, 763.7004
316.1441, 760.2255
316.6262, 763.2822
317.1083, 766.0637
317.5905, 764.3165
318.0726, 760.4879
318.5547, 758.8314
319.0368, 763.7738
319.5189, 768.9340
320.0010, 770.5122
320.4832, 767.1992
320.9653, 765.4650
321.4474, 767.8272
321.9295, 772.5043
322.4116, 777.4125
322.8937, 782.6210
323.3759, 787.5120
323.8580, 791.7441
324.3401, 795.2353
324.8222, 799.0439
325.3043, 802.9036
325.7864, 807.3710
326.2686, 812.8754
326.7507, 819.7023
327.2328, 827.2953
327.7149, 835.6405
328.1970, 844.6635
328.6791, 854.4147
329.1613, 865.0984
329.6434, 876.2311
330.1255, 887.4675
330.6076, 896.7671
331.0897, 909.1805
331.5718, 926.4533
332.0540, 946.8548
332.5361, 965.4261
333.0182, 980.3172
333.5003, 996.0575
333.9824, 1014.227
334.4645, 1035.227
334.9467, 1057.865
335.4288, 1082.194
335.9109, 1108.001
336.3930, 1134.381
336.8751, 1161.458
337.3572, 1189.324
337.8394, 1218.172
338.3215, 1247.718
338.8036, 1278.894
339.2857, 1311.722
339.7678, 1346.255
340.2499, 1383.837
340.7321, 1424.336
341.2142, 1464.560
341.6963, 1502.485
342.1784, 1539.405
342.6605, 1581.215
343.1426, 1628.062
343.6248, 1677.423
344.1069, 1726.804
344.5890, 1775.662
345.0711, 1826.999
345.5532, 1880.815
346.0353, 1937.142
346.5175, 1995.439
346.9996, 2056.153
347.4817, 2116.498
347.9638, 2174.688
348.4459, 2231.206
348.9280, 2287.903
349.4102, 2344.781
349.8923, 2401.646
350.3744, 2459.174
350.8565, 2516.062
351.3386, 2568.517
351.8207, 2615.993
352.3029, 2656.850
352.7850, 2688.787
353.2671, 2712.044
353.7492, 2728.333
354.2313, 2738.989
354.7134, 2743.841
355.1956, 2742.472
355.6777, 2732.643
356.1598, 2718.510
356.6419, 2702.305
357.1240, 2684.504
357.6061, 2667.607
358.0883, 2653.973
358.5704, 2641.571
359.0525, 2629.056
359.5346, 2617.523
360.0167, 2602.866
360.4988, 2584.444
360.9810, 2561.246
361.4631, 2531.152
361.9452, 2494.727
362.4273, 2450.001
362.9094, 2395.525
363.3915, 2330.635
363.8737, 2257.946
364.3558, 2175.451
364.8379, 2087.134
365.3200, 1998.036
365.8021, 1906.898
366.2842, 1817.122
366.7664, 1727.259
367.2485, 1636.861
367.7306, 1559.659
368.2127, 1501.398
368.6948, 1454.414
369.1769, 1413.043
369.6591, 1377.111
370.1412, 1346.779
370.6233, 1323.398
371.1054, 1305.717
371.5875, 1288.955
372.0696, 1272.804
372.5518, 1258.148
373.0339, 1244.915
373.5160, 1231.979
373.9981, 1223.957
374.4802, 1222.699
374.9623, 1224.778
375.4445, 1224.577
375.9266, 1221.059
376.4087, 1218.068
376.8908, 1216.395
377.3729, 1216.050
377.8550, 1217.765
378.3372, 1221.178
378.8193, 1227.574
379.3014, 1239.271
379.7835, 1256.652
380.2656, 1272.649
380.7477, 1284.665
381.2299, 1295.564
381.7120, 1312.873
382.1941, 1336.489
382.6762, 1363.917
383.1583, 1393.297
383.6404, 1425.041
384.1226, 1460.208
384.6047, 1499.417
385.0868, 1539.986
385.5689, 1580.876
386.0510, 1621.062
386.5331, 1657.267
387.0153, 1692.063
387.4974, 1720.610
387.9795, 1737.890
388.4616, 1743.815
388.9437, 1734.894
389.4258, 1706.739
389.9080, 1662.477
390.3901, 1606.268
390.8722, 1533.822
391.3543, 1456.614
391.8364, 1379.981
392.3185, 1305.549
392.8007, 1236.643
393.2828, 1173.804
393.7649, 1117.764
394.2470, 1070.174
394.7291, 1032.466
395.2112, 999.7017
395.6934, 970.7536
396.1755, 945.5176
396.6576, 923.8459
397.1397, 907.0411
397.6218, 892.5117
398.1039, 879.8610
398.5861, 869.1749
399.0682, 858.8890
399.5503, 847.4336
400.0324, 837.1718
400.5145, 830.0062
400.9966, 829.5839
401.4788, 827.0238
401.9609, 820.2949
402.4430, 810.8623
402.9251, 804.5299
403.4072, 802.7408
403.8893, 801.8690
404.3714, 800.4513
404.8535, 798.4502
405.3357, 795.8410
405.8178, 792.1376
406.2999, 788.4972
406.7820, 787.0609
407.2641, 788.3649
407.7462, 788.6687
408.2284, 786.2853
408.7105, 782.0073
409.1926, 779.7333
409.6747, 779.6259
410.1568, 780.3360
410.6389, 781.5418
411.1211, 782.8788
411.6032, 781.7841
412.0853, 776.8585
412.5674, 771.3105
413.0495, 770.1655
413.5316, 772.8104
414.0138, 776.0907
414.4959, 778.4427
414.9780, 780.3132
415.4601, 782.6383
415.9422, 785.5637
416.4243, 787.6492
416.9065, 786.4192
417.3886, 783.8842
417.8707, 783.1053
418.3528, 787.4040
418.8349, 791.6046
419.3170, 791.2726
419.7992, 787.5449
420.2813, 785.7708
420.7634, 789.5320
421.2455, 795.1844
421.7276, 800.3860
422.2097, 804.7277
422.6919, 808.8039
423.1740, 812.1744
423.6561, 815.5154
424.1382, 819.9549
424.6203, 826.0999
425.1024, 832.8105
425.5846, 840.3623
426.0667, 848.8428
426.5488, 855.7000
427.0309, 857.9509
427.5130, 861.2849
427.9951, 870.1369
428.4773, 888.2002
428.9594, 903.6190
429.4415, 914.6875
429.9236, 923.0087
430.4057, 932.6693
430.8878, 943.6426
431.3700, 955.9367
431.8521, 969.9282
432.3342, 985.6248
432.8163, 1000.802
433.2984, 1015.315
433.7805, 1029.856
434.2627, 1044.945
434.7448, 1060.637
435.2269, 1077.280
435.7090, 1094.763
436.1911, 1113.785
436.6732, 1135.977
437.1554, 1161.178
437.6375, 1187.470
438.1196, 1211.860
438.6017, 1236.975
439.0838, 1267.696
439.5659, 1305.306
440.0481, 1345.095
440.5302, 1383.220
441.0123, 1421.152
441.4944, 1461.364
441.9765, 1506.675
442.4586, 1553.077
442.9408, 1599.049
443.4229, 1644.057
443.9050, 1687.589
444.3871, 1730.333
444.8692, 1770.403
445.3513, 1806.648
445.8335, 1839.963
446.3156, 1867.626
446.7977, 1889.017
447.2798, 1904.323
447.7619, 1913.568
448.2440, 1911.989
448.7262, 1909.372
449.2083, 1907.264
449.6904, 1905.587
450.1725, 1905.324
450.6546, 1904.945
451.1367, 1907.863
451.6189, 1917.075
452.1010, 1934.072
452.5831, 1952.491
453.0652, 1971.428
453.5473, 1992.114
454.0294, 2019.074
454.5116, 2053.291
454.9937, 2086.717
455.4758, 2116.617
455.9579, 2142.966
456.4400, 2167.291
456.9221, 2190.162
457.4043, 2207.453
457.8864, 2217.179
458.3685, 2218.398
458.8506, 2208.606
459.3327, 2187.056
459.8148, 2154.367
460.2970, 2109.244
460.7791, 2052.916
461.2612, 1990.834
461.7433, 1924.349
462.2254, 1854.342
462.7076, 1781.080
463.1897, 1703.460
463.6718, 1628.295
464.1539, 1560.546
464.6360, 1496.805
465.1181, 1434.844
465.6003, 1370.182
466.0824, 1311.377
466.5645, 1262.292
467.0466, 1221.472
467.5287, 1183.309
468.0108, 1147.535
468.4930, 1114.011
468.9751, 1082.669
469.4572, 1053.578
469.9393, 1026.626
470.4214, 1001.740
470.9035, 979.2717
471.3857, 959.7137
471.8678, 943.3098
472.3499, 929.0568
472.8320, 916.9429
473.3141, 906.5490
473.7962, 896.2601
474.2784, 886.0399
474.7605, 876.2446
475.2426, 866.9632
475.7247, 858.2208
476.2068, 850.7204
476.6889, 844.6375
477.1711, 838.6180
477.6532, 830.1063
478.1353, 820.3597
478.6174, 812.9290
479.0995, 809.7472
479.5816, 808.4699
480.0638, 807.3469
480.5459, 806.1270
481.0280, 803.8931
481.5101, 798.6357
481.9922, 793.0741
482.4743, 789.9036
482.9565, 789.9644
483.4386, 789.0981
483.9207, 784.5311
484.4028, 778.6527
484.8849, 773.9691
485.3670, 771.7668
485.8492, 770.0243
486.3313, 768.6798
486.8134, 767.6129
487.2955, 766.1669
487.7776, 764.0001
488.2597, 761.9432
488.7419, 760.3425
489.2240, 759.2974
489.7061, 758.2810
490.1882, 757.1111
490.6703, 756.2441
491.1524, 756.4507
491.6346, 757.9545
492.1167, 758.7025
492.5988, 758.1495
493.0809, 756.7311
493.5630, 755.5900
494.0451, 754.6924
494.5273, 753.5898
495.0094, 751.1859
495.4915, 748.4924
495.9736, 748.3212
496.4557, 750.9257
496.9378, 753.5774
497.4200, 753.3449
497.9021, 751.7106
498.3842, 751.0366
498.8663, 752.9154
499.3484, 754.6724
499.8305, 754.1730
500.3127, 752.2149
500.7948, 750.8191
501.2769, 751.8477
501.7590, 752.6400
502.2411, 751.6277
502.7232, 748.3375
503.2054, 745.8775
503.6875, 745.6060
504.1696, 745.7266
504.6517, 744.8802
505.1338, 741.8970
505.6159, 740.0456
506.0981, 740.0552
506.5802, 741.0536
507.0623, 740.9061
507.5444, 739.1668
508.0265, 737.6927
508.5086, 737.3177
508.9908, 737.8583
509.4729, 737.8152
509.9550, 737.1625
510.4371, 736.1682
510.9192, 734.9419
511.4013, 733.5544
511.8835, 732.2142
512.3655, 730.8593
512.8477, 729.8658
513.3298, 730.4542
513.8119, 731.7875
514.2940, 731.8612
514.7761, 728.0294
515.2582, 723.9395
515.7404, 722.7445
516.2225, 724.0912
516.7046, 725.1106
517.1867, 724.1439
517.6688, 722.6866
518.1509, 721.6439
518.6331, 721.1132
519.1152, 721.0525
519.5973, 722.3788
520.0794, 723.7968
520.5615, 723.5970
521.0436, 719.9619
521.5258, 717.5580
522.0079, 717.6741
522.4900, 719.6273
522.9721, 719.7994
523.4542, 717.4241
523.9363, 715.5016
524.4185, 715.9739
524.9006, 718.8284
525.3827, 720.8331
525.8648, 722.0399
526.3469, 722.2759
526.8290, 720.5390
527.3112, 717.5046
527.7933, 715.8705
528.2754, 716.8007
528.7575, 718.4276
529.2396, 718.3812
529.7217, 717.1671
530.2039, 716.2646
530.6860, 715.7589
531.1681, 716.3394
531.6502, 719.5844
532.1323, 725.4396
532.6144, 729.1406
533.0966, 726.6013
533.5787, 722.6700
534.0608, 720.7736
534.5429, 722.8723
535.0250, 724.6750
535.5071, 725.5643
535.9893, 726.0573
536.4714, 726.9485
536.9535, 728.7935
537.4356, 729.9279
537.9177, 729.7227
538.3998, 728.4684
538.8820, 727.9553
539.3641, 728.2719
539.8462, 728.9528
540.3283, 730.3766
540.8104, 732.1989
541.2925, 731.4616
541.7747, 727.7299
542.2568, 723.5273
542.7389, 720.7401
543.2210, 719.5859
543.7031, 720.9756
544.1852, 726.8629
544.6674, 732.6067
545.1495, 733.0905
545.6316, 730.0085
546.1137, 727.5880
546.5958, 728.9969
547.0779, 730.5079
547.5601, 729.4643
548.0422, 725.6439
548.5243, 723.6964
549.0064, 726.0554
549.4885, 729.5629
549.9706, 732.2878
550.4528, 733.9153
550.9349, 735.3217
551.4170, 736.8714
551.8991, 737.9224
552.3812, 737.1310
552.8633, 733.7500
553.3455, 731.6674
553.8276, 732.2913
554.3097, 734.5933
554.7918, 734.8131
555.2739, 732.9535
555.7560, 731.8226
556.2382, 734.4376
556.7203, 738.7712
557.2024, 740.0789
557.6845, 738.0971
558.1666, 735.2118
558.6487, 732.1672
559.1309, 729.8589
559.6130, 729.7343
560.0951, 733.3613
560.5772, 736.8059
561.0593, 738.1432
561.5414, 738.0341
562.0236, 737.6360
562.5057, 736.9865
562.9878, 736.3230
563.4699, 735.7205
563.9520, 735.1674
564.4341, 734.4406
564.9163, 732.9449
565.3984, 732.1060
565.8805, 732.7520
566.3626, 735.1549
566.8447, 737.6400
567.3268, 740.4913
567.8090, 742.7314
568.2911, 742.8841
568.7732, 741.1770
569.2553, 739.5231
569.7374, 738.0992
570.2195, 737.3217
570.7017, 738.0847
571.1838, 740.0197
571.6659, 741.9330
572.1480, 743.2379
572.6301, 744.2975
573.1122, 745.4852
573.5944, 746.7700
574.0765, 747.7457
574.5586, 749.0610
575.0407, 749.4070
575.5228, 747.6261
576.0049, 742.3566
576.4871, 738.4554
576.9692, 736.2814
577.4513, 735.6168
577.9334, 736.5565
578.4155, 740.3239
578.8976, 742.6277
579.3798, 742.3373
579.8619, 740.8040
580.3440, 741.7496
580.8261, 745.4410
581.3082, 748.1906
581.7903, 748.0168
582.2725, 745.8729
582.7546, 744.3777
583.2367, 743.5049
583.7188, 742.9611
584.2009, 742.4798
584.6830, 742.2273
585.1652, 742.5179
585.6473, 743.4639
586.1294, 744.4301
586.6115, 744.8873
587.0936, 745.2356
587.5757, 745.8903
588.0579, 747.2760
588.5400, 748.5819
589.0221, 749.5295
589.5042, 750.2988
589.9863, 751.3557
590.4684, 753.1379
590.9506, 754.4764
591.4327, 755.0643
591.9148, 754.9425
592.3969, 754.3788
592.8790, 753.2946
593.3611, 752.1326
593.8433, 750.7910
594.3254, 749.5215
594.8075, 749.9430
595.2896, 752.2869
595.7717, 754.7023
596.2538, 755.1265
596.7360, 754.3998
597.2181, 753.9249
597.7002, 753.8342
598.1823, 754.5888
598.6644, 758.1605
599.1465, 762.5197
599.6287, 764.1824
600.1108, 758.5719
600.5929, 753.6559
601.0750, 752.1227
601.5571, 753.7151
602.0392, 755.3397
602.5214, 757.3228
603.0035, 758.8251
603.4856, 759.1774
603.9677, 758.1992
604.4498, 758.9672
604.9319, 762.0673
605.4141, 765.0748
605.8962, 765.5481
606.3783, 763.8043
606.8604, 761.8371
607.3425, 759.8370
607.8246, 757.8431
608.3068, 755.2435
608.7889, 752.7301
609.2710, 751.9323
609.7531, 754.7481
610.2352, 757.9077
610.7173, 759.1851
611.1995, 759.1179
611.6816, 759.1859
612.1637, 760.6754
612.6458, 761.6279
613.1279, 760.8922
613.6100, 758.3790
614.0922, 756.9812
614.5743, 757.2755
615.0564, 757.9207
615.5385, 758.0491
616.0206, 757.4028
616.5027, 758.0002
616.9849, 760.1798
617.4670, 762.5903
617.9491, 763.7728
618.4312, 763.8248
618.9133, 763.0317
619.3954, 761.1716
619.8776, 759.2073
620.3597, 758.3940
620.8418, 758.3477
621.3239, 758.2270
621.8060, 756.6639
622.2881, 755.8395
622.7703, 757.3951
623.2524, 760.8527
623.7345, 764.2262
624.2166, 769.1984
624.6987, 771.8623
625.1808, 769.7609
625.6630, 762.4454
626.1451, 757.1906
626.6272, 753.9257
627.1093, 752.7410
627.5914, 754.5629
628.0735, 759.7465
628.5557, 762.4945
629.0378, 762.2401
629.5199, 760.6276
630.0020, 758.7557
630.4841, 757.0478
630.9662, 757.1002
631.4484, 760.1032
631.9305, 763.3341
632.4126, 763.7045
632.8947, 762.4024
633.3768, 761.8229
633.8589, 765.3209
634.3411, 767.4030
634.8232, 763.9787
635.3053, 756.3597
635.7874, 752.5011
636.2695, 755.5646
636.7516, 759.9916
637.2338, 764.4509
637.7159, 769.0500
638.1980, 771.4433
638.6801, 771.1234
639.1622, 770.0209
639.6443, 769.6016
640.1265, 769.7534
640.6086, 769.4431
641.0907, 768.4838
641.5728, 767.6630
642.0549, 767.9910
642.5370, 769.0145
643.0192, 769.9389
643.5013, 770.6257
643.9834, 771.0370
644.4655, 771.1454
644.9476, 770.9868
645.4297, 770.6194
645.9119, 769.3930
646.3940, 768.7224
646.8761, 769.3588
647.3582, 770.9142
647.8403, 771.7628
648.3224, 771.1172
648.8046, 771.4336
649.2867, 774.2402
649.7688, 779.0885
650.2509, 781.3597
650.7330, 780.9374
651.2151, 779.3541
651.6973, 777.1842
652.1794, 774.7753
652.6615, 772.8551
653.1436, 771.4413
653.6257, 771.0583
654.1078, 772.8286
654.5900, 775.5291
655.0721, 778.0068
655.5542, 780.5103
656.0363, 781.6353
656.5184, 779.5092
657.0005, 776.2980
657.4827, 774.8793
657.9648, 776.6862
658.4469, 778.0028
658.9290, 778.1637
659.4111, 777.7030
659.8932, 777.9796
660.3754, 779.0773
660.8575, 780.1537
661.3396, 780.8616
661.8217, 781.3497
662.3038, 781.9300
662.7859, 782.6053
663.2681, 783.4288
663.7502, 785.1224
664.2323, 786.5272
664.7144, 786.2864
665.1965, 784.3864
665.6786, 782.3727
666.1608, 780.1700
666.6429, 778.6146
667.1250, 778.4436
667.6071, 780.6081
668.0892, 781.6991
668.5714, 780.8944
669.0535, 779.9518
669.5356, 780.7596
670.0177, 783.7692
670.4998, 785.3611
670.9819, 784.9713
671.4641, 783.6959
671.9462, 782.8727
672.4283, 782.4839
672.9104, 782.4110
673.3925, 782.6486
673.8746, 783.1299
674.3568, 783.8904
674.8389, 784.8260
675.3210, 785.7181
675.8031, 786.5296
676.2852, 787.1997
676.7673, 787.2733
677.2495, 787.0121
677.7316, 788.1149
678.2137, 792.8195
678.6958, 795.7128
679.1779, 793.9785
679.6600, 787.9256
680.1422, 786.0507
680.6243, 789.0159
681.1064, 792.1229
681.5885, 791.5567
682.0706, 788.5468
682.5527, 787.2441
683.0349, 787.8921
683.5170, 788.7600
683.9991, 788.5845
684.4812, 787.8300
684.9633, 786.6833
685.4454, 784.5635
685.9276, 784.1395
686.4097, 788.8333
686.8918, 794.4953
687.3739, 796.4410
687.8560, 791.4694
688.3381, 788.2992
688.8203, 787.9395
689.3024, 789.0214
689.7845, 789.0450
690.2666, 787.8470
690.7487, 787.7592
691.2308, 789.6202
691.7130, 792.5142
692.1951, 795.7892
692.6772, 798.9421
693.1593, 800.2522
693.6414, 796.7465
694.1235, 792.8280
694.6057, 792.0853
695.0878, 793.9623
695.5699, 795.9283
696.0520, 798.2894
696.5341, 799.5321
697.0162, 798.2679
697.4984, 794.5834
697.9805, 793.3719
698.4626, 795.5723
698.9447, 798.3719
699.4268, 800.2859
699.9089, 801.3606
700.3911, 802.2043
700.8732, 802.8219
701.3553, 803.1705
701.8374, 802.8635
702.3195, 802.3589
702.8016, 802.4537
703.2838, 803.2764
703.7659, 804.4865
704.2480, 807.2268
704.7301, 809.5330
705.2122, 809.3286
705.6943, 802.9122
706.1765, 799.5380
706.6586, 801.3824
707.1407, 805.4161
707.6228, 808.1801
708.1049, 809.4384
708.5870, 810.3728
709.0692, 811.1167
709.5513, 811.6560
710.0334, 811.7634
710.5155, 811.5633
710.9976, 811.7178
711.4797, 812.5187
711.9618, 813.6832
712.4439, 815.0405
712.9260, 816.5270
713.4081, 818.0225
713.8903, 819.7087
714.3724, 821.1618
714.8545, 822.1080
715.3366, 822.6478
715.8187, 823.4684
716.3008, 825.0684
716.7830, 826.0682
717.2651, 825.5673
717.7472, 823.9406
718.2293, 824.7177
718.7114, 828.0739
719.1935, 830.9479
719.6757, 830.1374
720.1578, 827.9124
720.6399, 829.2734
721.1220, 834.1165
721.6041, 838.3885
722.0862, 838.4288
722.5684, 837.4969
723.0505, 838.2682
723.5326, 841.6199
724.0147, 843.7108
724.4968, 841.4860
724.9789, 839.9705
725.4611, 842.9886
725.9432, 852.6766
726.4253, 858.4236
726.9074, 859.7820
727.3895, 858.5802
727.8716, 855.2346
728.3538, 850.7567
728.8359, 849.6471
729.3180, 853.0787
729.8001, 857.9579
730.2822, 862.3649
730.7643, 866.2044
731.2465, 869.2334
731.7286, 870.8651
732.2107, 872.4945
732.6928, 874.4206
733.1749, 876.5856
733.6570, 878.7592
734.1392, 880.2858
734.6213, 883.3381
735.1034, 888.7946
735.5855, 895.2274
736.0676, 899.9217
736.5497, 902.9133
737.0319, 904.5844
737.5140, 903.8638
737.9961, 903.5690
738.4782, 908.8605
738.9603, 917.6528
739.4424, 924.5637
739.9246, 925.4850
740.4067, 925.7007
740.8888, 927.7845
741.3709, 931.2811
741.8530, 933.7272
742.3351, 933.1440
742.8173, 934.4958
743.2994, 940.0868
743.7815, 948.7821
744.2636, 954.0848
744.7457, 955.7752
745.2278, 957.0760
745.7100, 959.5760
746.1921, 962.9445
746.6742, 966.9528
747.1563, 971.4450
747.6384, 975.2545
748.1205, 977.0002
748.6027, 978.4360
749.0848, 980.8185
749.5669, 984.2572
750.0490, 987.4531
750.5311, 990.4075
751.0132, 992.9115
751.4954, 994.8312
751.9775, 996.1369
752.4596, 997.4421
752.9417, 998.8669
753.4238, 999.7583
753.9059, 999.0832
754.3881, 997.5765
754.8702, 996.8295
755.3523, 996.9588
755.8344, 998.5757
756.3165, 1002.942
756.7986, 1008.510
757.2808, 1013.815
757.7629, 1018.406
758.2450, 1023.837
758.7271, 1031.461
759.2092, 1039.160
759.6913, 1045.173
760.1735, 1048.407
760.6556, 1054.682
761.1377, 1064.669
761.6198, 1075.963
762.1019, 1085.943
762.5840, 1095.068
763.0662, 1104.312
763.5483, 1113.617
764.0304, 1124.060
764.5125, 1134.988
764.9946, 1148.009
765.4767, 1165.340
765.9589, 1192.151
766.4410, 1215.265
766.9231, 1228.529
767.4052, 1239.496
767.8873, 1256.530
768.3694, 1281.011
768.8516, 1305.093
769.3337, 1327.452
769.8158, 1350.306
770.2979, 1377.856
770.7800, 1408.842
771.2621, 1438.504
771.7443, 1464.948
772.2264, 1491.320
772.7085, 1519.488
773.1906, 1549.548
773.6727, 1581.649
774.1548, 1618.916
774.6370, 1654.377
775.1191, 1685.160
775.6012, 1714.475
776.0833, 1747.391
776.5654, 1785.528
777.0475, 1821.453
777.5297, 1853.409
778.0118, 1883.725
778.4939, 1916.654
778.9760, 1951.580
779.4581, 1986.148
779.9402, 2017.700
780.4224, 2050.697
780.9045, 2091.690
781.3866, 2135.812
781.8687, 2173.612
782.3508, 2201.566
782.8329, 2223.732
783.3151, 2240.408
783.7972, 2252.125
784.2793, 2260.104
784.7614, 2264.198
785.2435, 2265.634
785.7256, 2266.620
786.2078, 2262.623
786.6899, 2242.624
787.1720, 2209.165
787.6541, 2172.816
788.1362, 2139.051
788.6183, 2102.528
789.1005, 2058.204
789.5826, 2008.452
790.0647, 1960.414
790.5468, 1911.929
791.0289, 1869.295
791.5110, 1835.790
791.9932, 1808.740
792.4753, 1779.993
792.9574, 1748.186
793.4395, 1724.863
793.9216, 1714.775
794.4037, 1714.427
794.8859, 1717.819
795.3680, 1725.233
795.8501, 1737.517
796.3322, 1755.118
796.8143, 1777.813
797.2964, 1803.998
797.7786, 1835.050
798.2607, 1875.425
798.7428, 1927.367
799.2249, 1985.488
799.7070, 2049.072
800.1891, 2117.519
800.6713, 2190.357
801.1534, 2267.332
801.6355, 2348.771
802.1176, 2436.138
802.5997, 2526.818
803.0818, 2615.931
803.5640, 2704.982
804.0461, 2798.504
804.5282, 2897.001
805.0103, 3001.613
805.4924, 3115.050
805.9745, 3236.082
806.4567, 3359.610
806.9388, 3479.805
807.4209, 3612.251
807.9030, 3761.985
808.3851, 3926.256
808.8672, 4098.556
809.3494, 4278.493
809.8315, 4463.679
810.3136, 4656.226
810.7957, 4847.864
811.2778, 5035.402
811.7599, 5214.855
812.2421, 5375.136
812.7242, 5512.974
813.2063, 5630.110
813.6884, 5737.251
814.1705, 5824.614
814.6526, 5857.030
815.1348, 5831.804
815.6169, 5762.975
816.0990, 5651.140
816.5811, 5502.281
817.0632, 5319.421
817.5453, 5107.803
818.0275, 4892.636
818.5096, 4674.042
818.9917, 4467.758
819.4738, 4282.011
819.9559, 4116.343
820.4380, 3972.697
820.9202, 3848.807
821.4023, 3748.918
821.8844, 3676.966
822.3665, 3629.520
822.8486, 3601.320
823.3307, 3592.740
823.8129, 3598.286
824.2950, 3618.158
824.7771, 3648.382
825.2592, 3686.025
825.7413, 3729.268
826.2234, 3775.450
826.7056, 3817.958
827.1877, 3869.096
827.6698, 3933.116
828.1519, 4009.716
828.6340, 4097.859
829.1161, 4196.381
829.5983, 4307.343
830.0804, 4429.649
830.5625, 4566.009
831.0446, 4723.913
831.5267, 4901.597
832.0089, 5098.536
832.4910, 5316.191
832.9731, 5547.079
833.4552, 5792.041
833.9373, 6043.840
834.4194, 6289.805
834.9016, 6549.917
835.3837, 6777.278
835.8658, 6980.790
836.3479, 7142.573
836.8300, 7241.142
837.3121, 7279.420
837.7943, 7217.009
838.2764, 7042.549
838.7585, 6775.310
839.2406, 6411.220
839.7227, 5978.747
840.2048, 5531.920
840.6870, 5062.205
841.1691, 4620.658
841.6512, 4219.501
842.1333, 3860.630
842.6154, 3547.002
843.0975, 3282.841
843.5797, 3050.719
844.0618, 2852.432
844.5439, 2680.805
845.0260, 2532.539
845.5081, 2405.422
845.9902, 2292.128
846.4724, 2191.664
846.9545, 2104.311
847.4366, 2032.947
847.9187, 1973.230
848.4008, 1921.808
848.8829, 1879.188
849.3651, 1840.737
849.8472, 1805.366
850.3293, 1774.158
850.8114, 1748.154
851.2935, 1727.553
851.7756, 1710.313
852.2578, 1696.529
852.7399, 1685.814
853.2220, 1677.611
853.7041, 1672.201
854.1862, 1670.361
854.6683, 1672.248
855.1505, 1675.967
855.6326, 1679.895
856.1147, 1686.004
856.5968, 1695.629
857.0789, 1708.819
857.5610, 1723.724
858.0432, 1739.392
858.5253, 1759.146
859.0074, 1784.785
859.4895, 1816.266
859.9716, 1853.093
860.4537, 1895.712
860.9359, 1945.399
861.4180, 2004.814
861.9001, 2070.591
862.3822, 2141.301
862.8643, 2216.341
863.3464, 2298.178
863.8286, 2387.509
864.3107, 2479.844
864.7928, 2573.653
865.2749, 2668.833
865.7570, 2759.115
866.2391, 2845.674
866.7213, 2935.143
867.2034, 3030.632
867.6855, 3132.426
868.1676, 3242.520
868.6497, 3360.935
869.1318, 3484.342
869.6140, 3605.968
870.0961, 3741.549
870.5782, 3892.899
871.0603, 4060.480
871.5424, 4248.723
872.0245, 4459.362
872.5067, 4673.327
872.9888, 4889.538
873.4709, 5103.448
873.9530, 5317.250
874.4351, 5524.408
874.9172, 5708.204
875.3994, 5882.331
875.8815, 6009.407
876.3636, 6091.810
876.8457, 6108.749
877.3278, 6039.462
877.8099, 5875.982
878.2921, 5647.921
878.7742, 5348.588
879.2563, 5008.963
879.7384, 4645.006
880.2205, 4269.741
880.7026, 3917.885
881.1848, 3594.610
881.6669, 3300.481
882.1490, 3032.257
882.6311, 2796.038
883.1132, 2596.638
883.5953, 2441.779
884.0775, 2303.095
884.5596, 2182.104
885.0417, 2073.959
885.5238, 1976.509
886.0059, 1889.422
886.4880, 1814.074
886.9702, 1751.011
887.4523, 1695.999
887.9344, 1648.666
888.4165, 1606.135
888.8986, 1566.558
889.3807, 1529.617
889.8629, 1496.415
890.3450, 1467.468
890.8271, 1441.985
891.3092, 1420.571
891.7913, 1402.573
892.2734, 1385.113
892.7556, 1368.332
893.2377, 1352.141
893.7198, 1335.503
894.2019, 1320.309
894.6840, 1309.303
895.1661, 1301.007
895.6483, 1291.545
896.1304, 1276.748
896.6125, 1264.367
897.0946, 1257.211
897.5767, 1252.443
898.0588, 1243.900
898.5410, 1231.299
899.0231, 1219.671
899.5052, 1210.011
899.9873, 1201.953
900.4694, 1196.264
900.9515, 1191.369
901.4337, 1184.517
901.9158, 1174.206
902.3979, 1163.411
902.8800, 1151.736
903.3621, 1140.896
903.8442, 1132.663
904.3264, 1127.712
904.8085, 1121.895
905.2906, 1115.084
905.7727, 1106.759
906.2548, 1095.462
906.7369, 1082.552
907.2191, 1070.087
907.7012, 1058.313
908.1833, 1047.763
908.6654, 1039.278
909.1475, 1031.751
909.6296, 1024.889
910.1118, 1018.685
910.5939, 1010.475
911.0760, 999.8751
911.5581, 989.5163
912.0402, 980.7843
912.5223, 973.2757
913.0045, 966.3708
913.4866, 960.0297
913.9687, 954.4485
914.4508, 950.6864
914.9329, 946.6584
915.4150, 941.1332
915.8972, 934.7286
916.3793, 929.0168
916.8614, 924.2028
917.3435, 919.3698
917.8256, 914.1915
918.3077, 909.1706
918.7899, 905.2448
919.2720, 902.1039
919.7541, 898.9623
920.2362, 895.3169
920.7183, 892.2885
921.2004, 890.6752
921.6826, 889.7694
922.1647, 888.9284
922.6468, 888.5948
923.1289, 886.7689
923.6110, 883.1049
924.0931, 879.0712
924.5753, 875.9870
925.0574, 873.6618
925.5395, 871.9847
926.0216, 870.9160
926.5037, 869.5443
926.9858, 866.2828
927.4680, 863.4869
927.9501, 862.9108
928.4322, 864.3774
928.9143, 865.8010
929.3964, 867.3235
929.8785, 868.2056
930.3607, 867.7331
930.8428, 866.7272
931.3249, 867.5509
931.8070, 869.5120
932.2891, 870.3597
932.7712, 868.1930
933.2534, 865.6620
933.7355, 863.3751
934.2176, 861.5871
934.6997, 861.0757
935.1818, 862.9041
935.6639, 861.8875
936.1461, 856.5548
936.6282, 850.5013
937.1103, 849.1080
937.5924, 850.4706
938.0745, 850.4730
938.5566, 848.1240
939.0388, 845.4846
939.5209, 843.8695
940.0030, 842.1263
940.4851, 838.9446
940.9672, 833.7772
941.4493, 832.0443
941.9315, 834.3820
942.4136, 837.1226
942.8957, 837.8690
943.3778, 837.2300
943.8599, 836.5010
944.3420, 835.5735
944.8242, 833.7921
945.3063, 828.5446
945.7884, 824.8615
946.2705, 826.1410
946.7526, 830.3730
947.2347, 832.1857
947.7169, 831.2366
948.1990, 830.2809
948.6811, 830.1509
949.1632, 830.0633
949.6453, 828.6468
950.1274, 826.4916
950.6096, 824.6058
951.0917, 822.8412
951.5738, 822.2508
952.0559, 824.3715
952.5380, 826.8587
953.0201, 827.7990
953.5023, 826.9363
953.9844, 826.2858
954.4665, 825.8496
954.9486, 825.8997
955.4307, 827.2728
955.9128, 828.9180
956.3950, 829.6294
956.8771, 829.3427
957.3591, 828.2104
957.8412, 825.6510
958.3234, 822.9409
958.8055, 820.1888
959.2876, 817.6537
959.7697, 816.3600
960.2518, 816.2958
960.7339, 816.8507
961.2161, 818.0243
961.6982, 819.3304
962.1803, 820.6144
962.6624, 821.5638
963.1445, 821.7020
963.6266, 819.6283
964.1088, 818.7587
964.5909, 820.2280
965.0730, 821.6367
965.5551, 819.5728
966.0372, 814.6902
966.5193, 813.5028
967.0015, 816.5115
967.4836, 819.7452
967.9657, 819.9710
968.4478, 819.1841
968.9299, 819.0995
969.4120, 819.8235
969.8942, 819.7184
970.3763, 818.3620
970.8584, 816.9206
971.3405, 815.6734
971.8226, 814.7260
972.3047, 814.3118
972.7869, 814.4261
973.2690, 815.1072
973.7511, 817.3439
974.2332, 818.7299
974.7153, 816.6588
975.1974, 813.4918
975.6796, 812.8748
976.1617, 816.8138
976.6438, 817.4681
977.1259, 813.7837
977.6080, 809.2335
978.0901, 807.0026
978.5723, 806.6814
979.0544, 807.7034
979.5365, 809.9938
980.0186, 812.6526
980.5007, 816.0165
980.9828, 818.8047
981.4650, 820.5358
981.9471, 821.2051
982.4292, 820.5892
982.9113, 818.5904
983.3934, 816.3093
983.8755, 813.7838
984.3577, 811.7866
984.8398, 812.0125
985.3219, 813.3552
985.8040, 813.7347
986.2861, 810.7414
986.7682, 809.3404
987.2504, 810.6384
987.7325, 813.0670
988.2146, 815.4608
988.6967, 817.7640
989.1788, 817.9797
989.6609, 815.8985
990.1431, 814.4399
990.6252, 817.3555
991.1073, 820.8248
991.5894, 820.9246
992.0715, 817.6174
992.5536, 816.4865
993.0358, 819.4905
993.5179, 821.1361
994.0000, 819.2059
994.4821, 815.2660
994.9642, 812.4497
995.4464, 810.8322
995.9285, 810.7386
996.4106, 813.1368
996.8927, 815.4265
997.3748, 815.6816
997.8569, 815.4171
998.3391, 816.4686
998.8212, 819.5115
999.3033, 821.4066
999.7854, 821.9121
1000.268, 822.2313
1000.750, 823.4287
1001.232, 825.0832
1001.714, 827.2440
1002.196, 829.5751
1002.678, 829.7684
1003.160, 823.7655
1003.642, 819.2977
1004.124, 819.4036
1004.607, 822.2792
1005.089, 822.7253
1005.571, 820.8765
1006.053, 819.6183
1006.535, 819.8468
1007.017, 820.5324
1007.499, 820.2506
1007.981, 820.0638
1008.464, 821.5446
1008.946, 826.7599
1009.428, 828.4587
1009.910, 825.0301
1010.392, 821.3112
1010.874, 820.9831
1011.356, 823.0990
1011.838, 824.5463
1012.320, 825.3384
1012.803, 825.6217
1013.285, 825.3623
1013.767, 824.7462
1014.249, 823.2783
1014.731, 821.6907
1015.213, 821.8050
1015.695, 824.0594
1016.177, 825.3879
1016.659, 825.2377
1017.142, 824.2059
1017.624, 821.9645
1018.106, 819.7700
1018.588, 819.6717
1019.070, 822.3866
1019.552, 824.5700
1020.034, 825.7344
1020.516, 825.8820
1020.999, 824.4635
1021.481, 822.0182
1021.963, 821.7554
1022.445, 823.4052
1022.927, 825.1605
1023.409, 826.2018
1023.891, 826.9623
1024.373, 828.2425
1024.855, 829.2627
1025.338, 828.4110
1025.820, 824.3696
1026.302, 822.3220
1026.784, 822.9217
1027.266, 824.3782
1027.748, 825.0067
1028.230, 825.1045
1028.712, 825.2599
1029.195, 825.5077
1029.677, 825.5236
1030.159, 824.6715
1030.641, 824.1788
1031.123, 824.7740
1031.605, 825.9446
1032.087, 825.3341
1032.569, 823.1299
1033.052, 823.1625
1033.534, 827.8177
1034.016, 832.0326
1034.498, 830.3593
1034.980, 826.0712
1035.462, 822.9683
1035.944, 821.6030
1036.426, 821.5415
1036.908, 823.0790
1037.391, 825.1094
1037.873, 827.2168
1038.355, 829.1290
1038.837, 830.0646
1039.319, 830.1107
1039.801, 829.6178
1040.283, 828.2262
1040.765, 826.9426
1041.247, 825.9367
1041.730, 825.3008
1042.212, 825.6218
1042.694, 826.9272
1043.176, 826.0623
1043.658, 822.2179
1044.140, 818.8383
1044.622, 819.3217
1045.104, 821.5563
1045.587, 824.1525
1046.069, 827.0490
1046.551, 827.0079
1047.033, 822.1256
1047.515, 819.0886
1047.997, 821.3138
1048.479, 826.0045
1048.961, 827.3470
1049.443, 826.1517
1049.926, 824.3450
1050.408, 821.6548
1050.890, 820.1571
1051.372, 821.5960
1051.854, 823.7552
1052.336, 825.3055
1052.818, 826.3423
1053.300, 824.1076
1053.782, 818.5562
1054.265, 814.4470
1054.747, 816.2028
1055.229, 819.9771
1055.711, 823.3466
1056.193, 826.0305
1056.675, 827.4484
1057.157, 827.5101
1057.639, 826.4850
1058.122, 824.0933
1058.604, 821.4166
1059.086, 819.4518
1059.568, 818.4494
1060.050, 819.6989
1060.532, 823.7738
1061.014, 825.4824
1061.496, 819.5951
1061.979, 814.3625
1062.461, 813.6912
1062.943, 816.5140
1063.425, 817.7729
1063.907, 817.5977
1064.389, 817.1306
1064.871, 816.7073
1065.353, 816.3611
1065.835, 815.6787
1066.318, 815.3203
1066.800, 816.3722
1067.282, 819.8480
1067.764, 821.1551
1068.246, 819.8768
1068.728, 818.3212
1069.210, 818.4332
1069.692, 819.2700
1070.174, 819.2866
1070.657, 818.6506
1071.139, 818.1786
1071.621, 818.6550
1072.103, 818.4276
1072.585, 816.4897
1073.067, 814.6646
1073.549, 816.7010
1074.031, 821.4084
1074.514, 823.5461
1074.996, 822.3068
1075.478, 820.1828
1075.960, 816.7889
1076.442, 814.8699
1076.924, 817.3981
1077.406, 823.2604
1077.888, 825.3890
1078.370, 823.5818
1078.853, 822.2072
1079.335, 822.7858
1079.817, 824.2897
1080.299, 826.5055
1080.781, 828.5355
1081.263, 829.1136
1081.745, 827.5000
1082.227, 825.5441
1082.709, 822.8951
1083.192, 820.8459
1083.674, 820.7557
1084.156, 821.6721
1084.638, 820.5894
1085.120, 818.2900
1085.602, 817.4215
1086.084, 820.1788
1086.566, 823.1022
1087.048, 825.2874
1087.531, 827.3210
1088.013, 830.6683
1088.495, 834.9661
1088.977, 835.1302
1089.459, 830.8338
1089.941, 826.7853
1090.423, 826.1124
1090.905, 827.0044
1091.388, 829.0975
1091.870, 831.8151
1092.352, 832.9261
1092.834, 832.2018
1093.316, 831.6249
1093.798, 831.7899
1094.280, 831.7198
1094.762, 829.0842
1095.245, 826.1664
1095.727, 826.2283
1096.209, 830.4207
1096.691, 833.3247
1097.173, 834.5980
1097.655, 834.5319
1098.137, 832.8282
1098.619, 830.2703
1099.101, 828.1000
1099.583, 826.6445
1100.066, 826.7547
1100.548, 830.1462
1101.030, 832.5953
1101.512, 832.3859
1101.994, 831.4911
1102.476, 830.9979
1102.958, 830.9807
1103.440, 833.2285
1103.923, 837.4667
1104.405, 840.7524
1104.887, 840.9298
1105.369, 840.1040
1105.851, 838.6055
1106.333, 837.2077
1106.815, 837.5288
1107.297, 839.9344
1107.780, 841.2802
1108.262, 841.2020
1108.744, 840.6291
1109.226, 839.3670
1109.708, 838.8124
1110.190, 841.0658
1110.672, 845.8439
1111.154, 849.1024
1111.636, 850.4520
1112.119, 850.5853
1112.601, 849.1395
1113.083, 847.7908
1113.565, 850.1574
1114.047, 854.0406
1114.529, 855.3723
1115.011, 853.1675
1115.493, 850.4124
1115.975, 847.4598
1116.458, 844.5381
1116.940, 841.4780
1117.422, 838.6594
1117.904, 837.5569
1118.386, 837.7708
1118.868, 837.8680
1119.350, 837.2239
1119.832, 836.6071
1120.315, 836.5913
1120.797, 836.5060
1121.279, 835.8420
1121.761, 834.5970
1122.243, 832.9188
1122.725, 830.8597
1123.207, 829.3065
1123.689, 828.7678
1124.172, 828.9266
1124.654, 829.9025
1125.136, 831.3391
1125.618, 832.6536
1126.100, 833.9474
1126.582, 834.4938
1127.064, 834.1927
1127.546, 833.6635
1128.028, 833.5907
1128.510, 833.4495
1128.993, 832.4028
1129.475, 830.7180
1129.957, 829.7637
1130.439, 829.5270
1130.921, 830.5942
1131.403, 833.7059
1131.885, 836.2163
1132.367, 833.0602
1132.850, 827.7951
1133.332, 826.3249
1133.814, 829.4197
1134.296, 831.8726
1134.778, 833.0095
1135.260, 832.5096
1135.742, 829.5879
1136.224, 825.8016
1136.707, 824.6133
1137.189, 825.2077
1137.671, 825.1644
1138.153, 823.3937
1138.635, 823.1871
1139.117, 827.9651
1139.599, 832.3192
1140.081, 833.3711
1140.563, 831.8719
1141.046, 831.3961
1141.528, 831.7869
1142.010, 832.2333
1142.492, 832.4769
1142.974, 832.5721
1143.456, 832.3821
1143.938, 832.1791
1144.420, 832.3050
1144.902, 832.7921
1145.385, 832.1946
1145.867, 830.6064
1146.349, 830.1312
1146.831, 832.7337
1147.313, 836.2240
1147.795, 840.6312
1148.277, 844.1590
1148.759, 843.4686
1149.242, 837.0701
1149.724, 834.7256
1150.206, 837.1483
1150.688, 840.4203
1151.170, 842.2251
1151.652, 842.5671
1152.134, 840.3006
1152.616, 836.4761
1153.099, 835.0548
1153.581, 836.8754
1154.063, 838.9310
1154.545, 841.0023
1155.027, 842.4675
1155.509, 842.6691
1155.991, 841.7899
1156.473, 839.1649
1156.955, 835.0447
1157.438, 833.7083
1157.920, 836.4918
1158.402, 839.7795
1158.884, 843.4277
1159.366, 845.5252
1159.848, 841.2253
1160.330, 834.1354
1160.812, 830.5403
1161.294, 831.7147
1161.777, 833.3494
1162.259, 835.1639
1162.741, 836.2944
1163.223, 836.2977
1163.705, 835.5926
1164.187, 834.2738
1164.669, 833.1183
1165.151, 834.3978
1165.634, 839.8312
1166.116, 843.5243
1166.598, 843.2537
1167.080, 841.7977
1167.562, 840.4454
1168.044, 838.9592
1168.526, 835.7045
1169.008, 831.4876
1169.490, 829.2716
1169.973, 831.7112
1170.455, 833.1693
1170.937, 829.9109
1171.419, 826.8557
1171.901, 827.6901
1172.383, 831.8501
1172.865, 835.6019
1173.347, 838.6318
1173.829, 839.5026
1174.312, 835.8171
1174.794, 831.7941
1175.276, 828.0248
1175.758, 825.5439
1176.240, 825.7545
1176.722, 828.5720
1177.204, 831.2804
1177.686, 833.7692
1178.169, 835.7279
1178.651, 837.5587
1179.133, 838.1141
1179.615, 835.5132
1180.097, 831.9316
1180.579, 830.5426
1181.061, 831.3909
1181.543, 832.2741
1182.026, 833.0402
1182.508, 833.8597
1182.990, 835.7269
1183.472, 836.8304
1183.954, 835.8915
1184.436, 833.2785
1184.918, 828.8948
1185.400, 822.4875
1185.882, 820.5039
1186.365, 824.0742
1186.847, 828.3407
1187.329, 828.9741
1187.811, 829.0555
1188.293, 832.0446
1188.775, 831.6380
1189.257, 830.9888
1189.739, 832.1313
1190.221, 828.7933
1190.704, 827.9635
1191.186, 828.1940
1191.668, 827.9870
1192.150, 828.3006
1192.632, 830.5778
1193.114, 834.4597
1193.596, 836.7928
1194.078, 837.5355
1194.561, 836.7951
1195.043, 834.2381
1195.525, 831.5140
1196.007, 829.3914
1196.489, 828.5784
1196.971, 830.9176
1197.453, 836.3988
1197.935, 837.0495
1198.417, 832.1611
1198.900, 828.8132
1199.382, 830.1978
1199.864, 832.4813
1200.346, 831.4644
1200.828, 829.1885
1201.310, 827.7532
1201.792, 827.2775
1202.274, 829.2350
1202.756, 834.1102
1203.239, 837.0278
1203.721, 834.6561
1204.203, 831.3812
1204.685, 832.6527
1205.167, 835.6586
1205.649, 836.2980
1206.131, 833.5365
1206.613, 832.5878
1207.096, 833.7189
1207.578, 834.1385
1208.060, 831.5255
1208.542, 828.5233
1209.024, 827.5101
1209.506, 828.2816
1209.988, 831.0652
1210.470, 837.0335
1210.953, 839.6742
1211.435, 838.6766
1211.917, 837.1505
1212.399, 836.8626
1212.881, 837.2202
1213.363, 838.1671
1213.845, 839.1310
1214.327, 838.9033
1214.809, 836.7147
1215.292, 835.7974
1215.774, 836.2135
1216.256, 837.4637
1216.738, 840.2738
1217.220, 842.7262
1217.702, 842.3766
1218.184, 840.4485
1218.666, 839.6481
1219.148, 840.4230
1219.631, 841.0217
1220.113, 841.3727
1220.595, 841.5503
1221.077, 841.9713
1221.559, 841.9443
1222.041, 840.0978
1222.523, 837.4955
1223.005, 836.7003
1223.488, 838.0913
1223.970, 839.7749
1224.452, 841.6404
1224.934, 843.7701
1225.416, 847.5889
1225.898, 850.4904
1226.380, 848.8348
1226.862, 844.6771
1227.344, 844.2384
1227.827, 848.4505
1228.309, 849.8537
1228.791, 847.5654
1229.273, 845.7576
1229.755, 849.7546
1230.237, 853.9085
1230.719, 853.1180
1231.201, 848.9456
1231.683, 846.3669
1232.166, 845.5515
1232.648, 844.0709
1233.130, 841.5099
1233.612, 840.6492
1234.094, 846.2399
1234.576, 852.0096
1235.058, 852.2808
1235.540, 849.3965
1236.023, 849.5282
1236.505, 852.7492
1236.987, 854.7788
1237.469, 855.0778
1237.951, 853.9698
1238.433, 850.2238
1238.915, 846.6398
1239.397, 845.4031
1239.880, 845.6068
1240.362, 845.1434
1240.844, 844.1198
1241.326, 844.2655
1241.808, 845.9338
1242.290, 847.3466
1242.772, 845.6383
1243.254, 845.1984
1243.736, 849.3828
1244.219, 855.7537
1244.701, 858.4647
1245.183, 858.0072
1245.665, 857.8679
1246.147, 858.6425
1246.629, 859.3348
1247.111, 858.7993
1247.593, 858.8130
1248.075, 860.6310
1248.558, 863.0380
1249.040, 862.8981
1249.522, 860.8651
1250.004, 859.6172
1250.486, 859.6583
1250.968, 859.6322
1251.450, 858.3201
1251.932, 857.6317
1252.415, 858.1959
1252.897, 859.8024
1253.379, 863.1624
1253.861, 866.9816
1254.343, 867.2242
1254.825, 862.9443
1255.307, 859.9256
1255.789, 860.7106
1256.271, 862.0878
1256.754, 863.4020
1257.236, 864.3867
1257.718, 864.4056
1258.200, 863.7692
1258.682, 862.8700
1259.164, 861.7015
1259.646, 861.3000
1260.128, 861.8140
1260.610, 863.2014
1261.093, 866.0695
1261.575, 868.3672
1262.057, 866.2406
1262.539, 861.8670
1263.021, 857.7954
1263.503, 854.3597
1263.985, 854.2474
1264.467, 858.7965
1264.950, 861.9209
1265.432, 861.5275
1265.914, 859.9653
1266.396, 859.7277
1266.878, 860.3350
1267.360, 861.3881
1267.842, 862.8499
1268.324, 864.2943
1268.807, 865.7868
1269.289, 866.6253
1269.771, 866.5757
1270.253, 865.8877
1270.735, 864.1986
1271.217, 862.4390
1271.699, 861.2762
1272.181, 860.8076
1272.663, 862.2292
1273.146, 865.4868
1273.628, 867.9025
1274.110, 868.6815
1274.592, 868.9315
1275.074, 869.2210
1275.556, 869.5656
1276.038, 870.0629
1276.520, 870.6144
1277.002, 870.7731
1277.485, 870.6080
1277.967, 870.6493
1278.449, 871.1737
1278.931, 871.0047
1279.413, 868.8744
1279.895, 866.5980
1280.377, 865.0135
1280.859, 863.8444
1281.342, 861.9142
1281.824, 859.8309
1282.306, 859.4105
1282.788, 861.1613
1283.270, 863.6635
1283.752, 867.2565
1284.234, 870.5024
1284.716, 873.4118
1285.198, 874.9163
1285.681, 871.9774
1286.163, 866.6406
1286.645, 861.7485
1287.127, 857.5625
1287.609, 858.2293
1288.091, 866.1744
1288.573, 871.8937
1289.055, 872.0110
1289.537, 870.2365
1290.020, 872.0916
1290.502, 874.5975
1290.984, 873.5612
1291.466, 868.6390
1291.948, 866.7718
1292.430, 868.5760
1292.912, 868.5891
1293.394, 864.8824
1293.877, 861.5211
1294.359, 862.9826
1294.841, 865.9894
1295.323, 868.1356
1295.805, 869.3481
1296.287, 869.1555
1296.769, 867.6652
1297.251, 866.7018
1297.734, 866.6625
1298.216, 866.9697
1298.698, 866.9334
1299.180, 867.6195
1299.662, 870.0461
1300.144, 873.0511
1300.626, 873.9354
1301.108, 873.0248
1301.590, 871.0348
1302.073, 867.9884
1302.555, 866.3624
1303.037, 867.9279
1303.519, 870.3152
1304.001, 873.4738
1304.483, 875.9422
1304.965, 875.9315
##END=



