##NAMES=Talmessite
##RRUFFID=R080007
##IDEAL CHEMISTRY=Ca_2_Mg(As^5+^O_4_)_2_&#183;2H_2_O
##LOCALITY=Tsumeb mine, Tsumeb, Otavi District, Oshikoto, Namibia
##OWNER=RRUFF
##SOURCE=William W. Pinch
##DESCRIPTION=Pale yellow to colorless crystals
##STATUS=The identification of this mineral is confirmed by single-crystal X-ray diffraction and chemical analysis.
##URL=rruff.info/R080007
##MEASURED CHEMISTRY=Ca_2.00_(Mg_0.99_Fe_0.01_)_Σ=1_(As_1.00_O_4_)_2_·1.98H_2_O; trace amounts of P; H_2_O estimated by difference
94.51007, 0.0000000E+00
94.99219, 568.2076
95.47430, 565.4705
95.95642, 569.1938
96.43854, 578.0734
96.92065, 588.6639
97.40277, 595.2567
97.88489, 597.6531
98.36700, 599.9951
98.84912, 604.7092
99.33124, 608.0169
99.81335, 606.7856
100.2955, 600.3297
100.7776, 590.7058
101.2597, 581.0433
101.7418, 570.0826
102.2239, 559.0880
102.7061, 547.7090
103.1882, 536.4630
103.6703, 526.3634
104.1524, 517.3679
104.6345, 510.2794
105.1166, 505.4893
105.5988, 502.9036
106.0809, 502.5479
106.5630, 505.2310
107.0451, 511.4626
107.5272, 517.2087
108.0093, 521.7127
108.4915, 524.6100
108.9736, 525.5780
109.4557, 524.9215
109.9378, 521.6930
110.4199, 512.7960
110.9020, 493.3076
111.3842, 474.4990
111.8663, 457.8517
112.3484, 443.8406
112.8305, 433.2586
113.3126, 427.0021
113.7947, 425.1627
114.2769, 422.4065
114.7590, 417.7595
115.2411, 413.1727
115.7232, 408.7487
116.2053, 404.8235
116.6874, 402.1793
117.1696, 401.6865
117.6517, 403.9536
118.1338, 406.3859
118.6159, 409.5973
119.0980, 412.6168
119.5801, 414.9911
120.0623, 416.6587
120.5444, 416.9389
121.0265, 414.4244
121.5086, 409.2853
121.9907, 403.0460
122.4728, 395.2418
122.9550, 386.5952
123.4371, 378.9005
123.9192, 372.6234
124.4013, 367.5956
124.8834, 363.4238
125.3655, 360.1072
125.8476, 357.3749
126.3298, 354.9106
126.8119, 352.6791
127.2940, 351.2812
127.7761, 352.1577
128.2582, 353.2293
128.7404, 353.1259
129.2225, 351.4799
129.7046, 349.1325
130.1867, 347.5372
130.6688, 347.2515
131.1509, 346.6899
131.6331, 345.5078
132.1152, 344.0537
132.5973, 342.4945
133.0794, 340.9058
133.5615, 339.4669
134.0436, 338.9751
134.5258, 340.8325
135.0079, 342.1783
135.4900, 342.1888
135.9721, 341.4520
136.4542, 341.1078
136.9363, 342.0052
137.4185, 343.9930
137.9006, 344.6507
138.3827, 342.9941
138.8648, 341.2369
139.3469, 340.4190
139.8290, 340.5032
140.3112, 340.8634
140.7933, 341.0158
141.2754, 341.0188
141.7575, 341.3069
142.2396, 342.0813
142.7217, 343.0656
143.2039, 343.9666
143.6860, 344.7527
144.1681, 345.5314
144.6502, 346.8368
145.1323, 348.2792
145.6144, 348.7907
146.0966, 346.9504
146.5787, 343.7277
147.0608, 342.3503
147.5429, 344.1493
148.0250, 346.2404
148.5071, 346.7997
148.9893, 346.2247
149.4714, 345.6867
149.9535, 345.9394
150.4356, 346.9819
150.9177, 348.8235
151.3998, 352.0630
151.8820, 355.6904
152.3641, 359.8294
152.8462, 364.2196
153.3283, 368.1234
153.8104, 370.5499
154.2925, 370.6599
154.7747, 371.5961
155.2568, 373.8328
155.7389, 376.3679
156.2210, 378.4472
156.7031, 379.9715
157.1852, 381.5218
157.6673, 384.0606
158.1495, 388.8147
158.6316, 392.4224
159.1137, 393.8542
159.5958, 394.6376
160.0779, 396.1853
160.5600, 398.9781
161.0422, 402.8142
161.5243, 407.7474
162.0064, 415.3447
162.4885, 420.4622
162.9706, 420.8909
163.4527, 418.1074
163.9349, 414.8111
164.4170, 411.7664
164.8991, 409.0951
165.3812, 407.0124
165.8633, 405.6712
166.3454, 404.3456
166.8276, 402.2466
167.3097, 399.5715
167.7918, 397.6882
168.2739, 396.7919
168.7560, 397.3795
169.2381, 400.1439
169.7203, 405.6327
170.2024, 411.7726
170.6845, 416.4411
171.1666, 419.3840
171.6487, 422.2438
172.1308, 424.5874
172.6130, 427.5702
173.0951, 432.4307
173.5772, 439.6881
174.0593, 448.1524
174.5414, 455.8875
175.0235, 462.8018
175.5057, 469.0058
175.9878, 475.7331
176.4699, 481.4129
176.9520, 484.5439
177.4341, 484.3801
177.9162, 481.4958
178.3984, 477.6020
178.8805, 471.8936
179.3626, 466.0901
179.8447, 459.6522
180.3268, 453.4323
180.8089, 448.4764
181.2911, 445.4377
181.7732, 443.9933
182.2553, 442.3017
182.7374, 438.7747
183.2195, 436.7412
183.7016, 437.2984
184.1838, 439.7877
184.6659, 443.2167
185.1480, 447.1745
185.6301, 451.4773
186.1122, 454.1351
186.5943, 453.1503
187.0765, 452.9191
187.5586, 455.3765
188.0407, 460.0780
188.5228, 465.3950
189.0049, 470.1996
189.4870, 474.7418
189.9692, 480.4622
190.4513, 487.6782
190.9334, 495.7023
191.4155, 504.3875
191.8976, 513.6478
192.3797, 522.8214
192.8619, 530.7459
193.3440, 538.3792
193.8261, 548.2414
194.3082, 562.5657
194.7903, 577.8962
195.2724, 590.3830
195.7546, 599.6915
196.2367, 608.2594
196.7188, 620.2401
197.2009, 631.9406
197.6830, 637.7708
198.1651, 635.6718
198.6473, 627.0822
199.1294, 613.6904
199.6115, 594.2772
200.0936, 572.8981
200.5757, 548.4120
201.0578, 523.9456
201.5400, 503.6169
202.0221, 489.9075
202.5042, 481.3291
202.9863, 473.3992
203.4684, 465.8137
203.9505, 459.6461
204.4327, 454.8831
204.9148, 451.5284
205.3969, 449.6009
205.8790, 449.1771
206.3611, 450.1252
206.8432, 451.7828
207.3254, 454.3071
207.8075, 457.4978
208.2896, 461.6920
208.7717, 466.4126
209.2538, 471.0557
209.7359, 475.2227
210.2181, 478.9592
210.7002, 482.5128
211.1823, 485.1799
211.6644, 488.4104
212.1465, 494.1200
212.6286, 500.4815
213.1108, 504.4509
213.5929, 503.9451
214.0750, 499.1837
214.5571, 493.3015
215.0392, 486.5998
215.5213, 478.5817
216.0035, 468.5143
216.4856, 456.9879
216.9677, 445.1957
217.4498, 433.7213
217.9319, 422.6992
218.4140, 413.0099
218.8962, 404.6050
219.3783, 397.2964
219.8604, 391.0393
220.3425, 385.8115
220.8246, 381.5226
221.3067, 378.0844
221.7889, 375.6047
222.2710, 374.2366
222.7531, 374.3422
223.2352, 375.0440
223.7173, 376.2164
224.1994, 377.7283
224.6816, 378.9891
225.1637, 379.5026
225.6458, 379.5250
226.1279, 380.0549
226.6100, 380.6447
227.0921, 382.1448
227.5743, 385.8400
228.0564, 391.4678
228.5385, 396.3441
229.0206, 398.2255
229.5027, 398.7090
229.9848, 401.2468
230.4670, 406.8708
230.9491, 413.4893
231.4312, 419.3565
231.9133, 424.4780
232.3954, 429.7839
232.8775, 435.8859
233.3597, 442.3224
233.8418, 448.5692
234.3239, 454.7881
234.8060, 460.4480
235.2881, 464.6163
235.7702, 467.0773
236.2524, 470.1022
236.7345, 475.3149
237.2166, 481.1175
237.6987, 486.3831
238.1808, 491.0506
238.6629, 494.4211
239.1451, 494.8102
239.6272, 491.3725
240.1093, 489.4867
240.5914, 492.2809
241.0735, 496.4141
241.5556, 500.0539
242.0378, 502.8028
242.5199, 504.2963
243.0020, 503.4683
243.4841, 499.2921
243.9662, 496.6430
244.4483, 497.4322
244.9305, 499.3282
245.4126, 501.0010
245.8947, 502.1303
246.3768, 503.1064
246.8589, 504.0876
247.3410, 504.3571
247.8232, 506.9993
248.3053, 513.9594
248.7874, 522.0156
249.2695, 529.8129
249.7516, 536.8770
250.2337, 542.8595
250.7159, 547.0261
251.1980, 548.4608
251.6801, 550.5579
252.1622, 555.7577
252.6443, 559.7867
253.1264, 560.2504
253.6086, 556.8361
254.0907, 550.6544
254.5728, 542.9438
255.0549, 533.3844
255.5370, 523.0194
256.0191, 512.0841
256.5013, 500.3056
256.9834, 486.9149
257.4655, 472.2809
257.9476, 457.9637
258.4297, 445.7329
258.9118, 436.0098
259.3940, 426.6355
259.8761, 417.5807
260.3582, 408.8269
260.8403, 399.8073
261.3224, 390.9039
261.8045, 383.3616
262.2867, 378.5221
262.7688, 376.9044
263.2509, 374.6378
263.7330, 371.2470
264.2151, 367.8174
264.6972, 364.7855
265.1794, 362.1721
265.6615, 359.7037
266.1436, 357.0885
266.6257, 354.2691
267.1078, 352.7754
267.5899, 353.5740
268.0721, 354.4282
268.5542, 354.3461
269.0363, 353.4936
269.5184, 352.4109
270.0005, 351.3287
270.4826, 350.3413
270.9648, 350.8713
271.4469, 354.0981
271.9290, 357.2470
272.4111, 359.6555
272.8932, 361.2088
273.3753, 361.5469
273.8575, 360.1853
274.3396, 357.6647
274.8217, 356.8753
275.3038, 358.8174
275.7859, 360.9183
276.2680, 363.1967
276.7502, 365.0518
277.2323, 364.9960
277.7144, 362.0396
278.1965, 357.2921
278.6786, 354.1284
279.1607, 353.4584
279.6429, 352.3724
280.1250, 350.0536
280.6071, 346.7835
281.0892, 342.8017
281.5713, 337.9499
282.0534, 333.1020
282.5356, 330.2913
283.0177, 330.0609
283.4998, 329.4562
283.9819, 327.0045
284.4640, 323.9333
284.9461, 322.3700
285.4283, 323.0581
285.9104, 324.4723
286.3925, 324.3462
286.8746, 322.5707
287.3567, 320.9737
287.8388, 319.7089
288.3210, 318.9003
288.8031, 318.8693
289.2852, 319.7291
289.7673, 320.8271
290.2494, 321.3412
290.7315, 321.3247
291.2137, 321.8444
291.6958, 323.3622
292.1779, 325.3380
292.6600, 327.4227
293.1421, 329.5980
293.6242, 331.2407
294.1064, 331.5089
294.5885, 330.6873
295.0706, 330.3828
295.5527, 330.4774
296.0348, 331.3342
296.5169, 333.8430
296.9991, 337.9153
297.4812, 341.3982
297.9633, 342.5712
298.4454, 342.1678
298.9275, 342.6815
299.4096, 344.6761
299.8918, 347.0522
300.3739, 349.0340
300.8560, 350.6927
301.3381, 352.5685
301.8202, 355.1929
302.3023, 357.9399
302.7845, 359.5079
303.2666, 359.2291
303.7487, 359.3566
304.2308, 362.0517
304.7129, 366.3951
305.1950, 368.9717
305.6772, 368.1878
306.1593, 365.8337
306.6414, 364.6776
307.1235, 364.8821
307.6056, 364.5981
308.0877, 363.2639
308.5699, 360.8492
309.0520, 357.1576
309.5341, 351.9607
310.0162, 345.9235
310.4983, 338.7822
310.9804, 330.7737
311.4626, 325.1981
311.9447, 324.9890
312.4268, 327.2073
312.9089, 327.2006
313.3910, 324.1915
313.8731, 320.5659
314.3553, 318.2008
314.8374, 316.8093
315.3195, 315.5340
315.8016, 314.0135
316.2837, 312.6469
316.7658, 311.9680
317.2480, 312.0009
317.7301, 312.1651
318.2122, 312.1518
318.6943, 312.0147
319.1764, 311.8762
319.6585, 311.6057
320.1407, 311.5158
320.6228, 311.8847
321.1049, 312.6751
321.5870, 313.5947
322.0691, 314.4230
322.5512, 315.4284
323.0334, 317.1352
323.5155, 319.8177
323.9976, 322.2876
324.4797, 323.5349
324.9618, 324.0179
325.4439, 325.2106
325.9261, 327.7339
326.4082, 330.6966
326.8903, 332.7138
327.3724, 333.7430
327.8545, 335.5139
328.3366, 339.1011
328.8188, 343.6721
329.3009, 347.7172
329.7830, 350.8560
330.2651, 354.2363
330.7472, 359.2314
331.2293, 365.5505
331.7115, 371.7506
332.1936, 377.2020
332.6757, 382.6404
333.1578, 388.6880
333.6399, 395.3940
334.1220, 402.9813
334.6042, 411.9382
335.0863, 421.9750
335.5684, 431.6099
336.0505, 440.5182
336.5326, 449.3103
337.0147, 458.4009
337.4969, 467.7493
337.9790, 477.2057
338.4611, 486.8123
338.9432, 496.3654
339.4253, 505.2025
339.9074, 512.1630
340.3896, 521.1686
340.8717, 534.9940
341.3538, 551.7958
341.8359, 567.9082
342.3180, 582.3101
342.8001, 595.9813
343.2823, 610.3999
343.7644, 625.5765
344.2465, 640.8553
344.7286, 656.0057
345.2107, 671.2557
345.6928, 687.1255
346.1750, 703.7338
346.6571, 719.9210
347.1392, 734.3331
347.6213, 746.9464
348.1034, 760.5243
348.5855, 776.3766
349.0677, 792.1609
349.5498, 806.0043
350.0319, 818.3209
350.5140, 831.2342
350.9961, 846.3789
351.4782, 863.0115
351.9604, 877.4639
352.4425, 890.1154
352.9246, 900.6964
353.4067, 909.0836
353.8888, 915.4110
354.3709, 919.6167
354.8531, 921.5763
355.3352, 922.0702
355.8173, 922.5864
356.2994, 923.7025
356.7815, 923.4829
357.2636, 921.5309
357.7458, 918.2995
358.2279, 913.3931
358.7100, 907.0319
359.1921, 901.5369
359.6742, 900.1277
360.1563, 904.2432
360.6385, 902.8521
361.1206, 893.5090
361.6027, 881.5371
362.0848, 870.1154
362.5669, 858.7007
363.0490, 844.8165
363.5312, 826.9336
364.0133, 805.1306
364.4954, 779.9582
364.9775, 749.2752
365.4596, 718.0794
365.9417, 686.2094
366.4239, 654.8198
366.9060, 625.2452
367.3881, 597.9006
367.8702, 572.8464
368.3523, 550.0762
368.8344, 529.6313
369.3166, 511.9020
369.7987, 497.0015
370.2808, 484.3996
370.7629, 474.2935
371.2450, 466.3494
371.7271, 459.2565
372.2093, 451.5687
372.6914, 442.9182
373.1735, 435.7829
373.6556, 431.3407
374.1377, 427.1550
374.6198, 422.3111
375.1020, 417.0548
375.5841, 411.9826
376.0662, 407.3645
376.5483, 403.4113
377.0304, 401.2869
377.5125, 402.1401
377.9947, 403.3156
378.4768, 405.3106
378.9589, 406.9526
379.4410, 406.5136
379.9231, 403.5394
380.4052, 400.1536
380.8874, 399.7834
381.3695, 403.3090
381.8516, 407.0075
382.3337, 410.5834
382.8158, 414.2872
383.2979, 417.8489
383.7801, 421.5339
384.2622, 426.2585
384.7443, 433.1261
385.2264, 441.9213
385.7085, 450.2657
386.1906, 457.8626
386.6728, 465.4313
387.1549, 474.6671
387.6370, 483.7502
388.1191, 489.8204
388.6012, 491.5243
389.0833, 489.9845
389.5655, 487.3800
390.0476, 484.1117
390.5297, 477.9438
391.0118, 466.6397
391.4939, 452.8247
391.9760, 437.9628
392.4582, 422.2234
392.9403, 406.7458
393.4224, 392.0442
393.9045, 378.2471
394.3866, 366.2047
394.8687, 356.2369
395.3509, 347.8121
395.8330, 340.6342
396.3151, 334.5378
396.7972, 329.1292
397.2793, 324.3785
397.7614, 320.1852
398.2436, 316.4200
398.7257, 313.1141
399.2078, 310.0777
399.6899, 307.3089
400.1720, 304.7602
400.6541, 302.1281
401.1363, 298.8102
401.6184, 296.5484
402.1005, 297.6701
402.5826, 300.7569
403.0647, 301.5530
403.5468, 298.3585
404.0290, 293.5846
404.5111, 290.6051
404.9932, 289.4976
405.4753, 288.5085
405.9574, 287.2122
406.4395, 285.9726
406.9217, 284.9388
407.4038, 284.1904
407.8859, 284.2913
408.3680, 285.9307
408.8501, 288.9196
409.3322, 290.7221
409.8144, 291.1602
410.2965, 290.8401
410.7786, 289.5266
411.2607, 287.6868
411.7428, 286.0514
412.2249, 284.9261
412.7071, 284.1917
413.1892, 283.6116
413.6713, 283.0389
414.1534, 282.9621
414.6355, 283.7729
415.1176, 284.7701
415.5998, 285.5147
416.0819, 285.9395
416.5640, 286.1422
417.0461, 286.1902
417.5282, 286.0812
418.0103, 285.9893
418.4925, 285.9483
418.9746, 285.8865
419.4567, 285.3798
419.9388, 284.9639
420.4209, 285.4789
420.9030, 287.3133
421.3852, 289.8576
421.8673, 291.8613
422.3494, 293.1526
422.8315, 294.3448
423.3136, 295.8433
423.7957, 297.0150
424.2779, 296.8760
424.7600, 295.7608
425.2421, 295.4406
425.7242, 297.9564
426.2063, 302.9196
426.6884, 306.3503
427.1706, 307.3948
427.6527, 308.2923
428.1348, 309.8427
428.6169, 311.9312
429.0990, 314.5384
429.5811, 317.8651
430.0633, 321.1907
430.5454, 323.3048
431.0275, 324.1695
431.5096, 325.7134
431.9917, 328.5927
432.4738, 332.3165
432.9560, 336.4670
433.4381, 341.0360
433.9202, 345.3442
434.4023, 348.7220
434.8844, 351.7219
435.3665, 355.1787
435.8487, 359.1542
436.3308, 363.7980
436.8129, 369.3904
437.2950, 375.7819
437.7771, 382.1183
438.2592, 387.9543
438.7414, 394.2195
439.2235, 401.3491
439.7056, 409.2719
440.1877, 417.7267
440.6698, 426.5776
441.1519, 436.1751
441.6341, 447.4178
442.1162, 461.0423
442.5983, 474.1362
443.0804, 487.3329
443.5625, 499.3550
444.0446, 508.4268
444.5268, 515.1155
445.0089, 522.6293
445.4910, 533.7379
445.9731, 547.7618
446.4552, 558.2125
446.9373, 563.7382
447.4195, 567.3270
447.9016, 569.0641
448.3837, 569.2228
448.8658, 567.6060
449.3479, 564.3172
449.8300, 560.4646
450.3122, 557.4760
450.7943, 555.2126
451.2764, 554.3561
451.7585, 556.9125
452.2406, 559.0128
452.7227, 557.9200
453.2049, 555.1848
453.6870, 554.4523
454.1691, 558.1472
454.6512, 564.8386
455.1333, 571.0846
455.6154, 576.8539
456.0976, 582.2354
456.5797, 586.9000
457.0618, 591.4049
457.5439, 596.7940
458.0260, 603.1436
458.5081, 608.0656
458.9903, 609.4462
459.4724, 607.8724
459.9545, 605.7097
460.4366, 603.7001
460.9187, 599.6830
461.4008, 591.2584
461.8830, 579.5201
462.3651, 566.8579
462.8472, 554.2768
463.3293, 540.1761
463.8114, 521.9080
464.2935, 500.7818
464.7756, 481.7773
465.2578, 467.0775
465.7399, 454.3768
466.2220, 439.8297
466.7041, 422.5084
467.1862, 407.0870
467.6683, 395.3149
468.1505, 384.7216
468.6326, 372.8073
469.1147, 359.8689
469.5968, 348.6082
470.0789, 341.0795
470.5610, 336.6591
471.0432, 331.2723
471.5253, 323.1437
472.0074, 316.1956
472.4895, 311.1183
472.9716, 307.2652
473.4537, 304.3537
473.9359, 302.1552
474.4180, 299.9749
474.9001, 296.7331
475.3822, 292.1279
475.8643, 289.1372
476.3464, 289.5889
476.8286, 289.7729
477.3107, 288.2262
477.7928, 285.6831
478.2749, 283.3986
478.7570, 281.9409
479.2391, 280.9228
479.7213, 279.8847
480.2034, 278.8870
480.6855, 277.2758
481.1676, 274.4427
481.6497, 271.3434
482.1318, 268.3455
482.6140, 265.5842
483.0961, 264.0161
483.5782, 265.1503
484.0603, 267.3040
484.5424, 267.5986
485.0245, 265.8836
485.5067, 264.1660
485.9888, 263.4084
486.4709, 263.4775
486.9530, 264.0213
487.4351, 265.4964
487.9172, 266.4282
488.3994, 266.0771
488.8815, 264.9967
489.3636, 263.7951
489.8457, 262.6170
490.3278, 261.6073
490.8099, 260.9058
491.2921, 260.5234
491.7742, 260.2667
492.2563, 260.2169
492.7384, 260.1781
493.2205, 260.0927
493.7026, 259.9816
494.1848, 259.9573
494.6669, 260.0455
495.1490, 260.0047
495.6311, 259.3078
496.1132, 257.5160
496.5953, 256.5042
497.0775, 256.6818
497.5596, 257.2728
498.0417, 258.3386
498.5238, 259.5652
499.0059, 260.3823
499.4880, 260.4775
499.9702, 260.0225
500.4523, 259.1870
500.9344, 257.8391
501.4165, 256.9698
501.8986, 257.3729
502.3807, 257.9133
502.8629, 257.4532
503.3450, 256.0132
503.8271, 254.6087
504.3092, 254.0050
504.7913, 253.6104
505.2734, 252.2348
505.7556, 249.8279
506.2377, 247.9166
506.7198, 247.4751
507.2019, 248.1132
507.6840, 248.6024
508.1661, 248.9901
508.6483, 249.1726
509.1304, 248.9300
509.6125, 248.5681
510.0946, 248.4349
510.5767, 248.5841
511.0588, 248.9067
511.5410, 249.3709
512.0231, 249.9720
512.5052, 249.9731
512.9873, 248.7846
513.4694, 247.6873
513.9515, 247.2714
514.4337, 246.9114
514.9158, 245.6057
515.3979, 243.1664
515.8800, 240.7769
516.3621, 240.1713
516.8442, 241.5909
517.3264, 242.2237
517.8085, 241.5533
518.2906, 240.7073
518.7727, 239.9985
519.2548, 239.5155
519.7369, 239.4546
520.2191, 240.0004
520.7012, 240.6795
521.1833, 241.1289
521.6654, 241.3114
522.1475, 240.7742
522.6296, 239.0542
523.1118, 237.3004
523.5939, 236.9836
524.0760, 237.8958
524.5581, 238.6302
525.0402, 238.5707
525.5223, 238.5986
526.0045, 239.7185
526.4866, 241.4780
526.9687, 242.4750
527.4508, 242.0521
527.9329, 240.8956
528.4150, 240.3415
528.8972, 241.1407
529.3793, 240.7298
529.8614, 237.2791
530.3435, 234.3802
530.8256, 234.6640
531.3077, 237.1822
531.7899, 239.3548
532.2720, 239.6884
532.7541, 238.6132
533.2362, 236.9532
533.7183, 234.0192
534.2004, 232.4433
534.6826, 233.7868
535.1647, 235.7686
535.6468, 237.3418
536.1289, 238.4050
536.6110, 239.0066
537.0931, 238.9138
537.5753, 238.5041
538.0574, 238.5309
538.5395, 239.0169
539.0216, 239.4445
539.5037, 239.6295
539.9858, 239.6078
540.4680, 239.4893
540.9501, 239.3242
541.4322, 238.8379
541.9143, 237.4913
542.3964, 236.0947
542.8785, 235.3884
543.3607, 235.4167
543.8428, 236.1371
544.3249, 237.6975
544.8070, 239.6165
545.2891, 240.0904
545.7712, 237.1582
546.2534, 235.4582
546.7355, 236.3155
547.2176, 237.5166
547.6997, 237.0443
548.1818, 235.1559
548.6639, 233.7900
549.1461, 234.6444
549.6282, 237.0890
550.1103, 238.4305
550.5924, 238.2848
551.0745, 238.0401
551.5566, 237.9534
552.0388, 238.0373
552.5209, 238.5777
553.0030, 239.5439
553.4851, 239.9032
553.9672, 238.6799
554.4493, 236.5966
554.9315, 234.6987
555.4136, 233.0392
555.8957, 232.2733
556.3778, 233.0870
556.8599, 234.7906
557.3420, 235.4256
557.8242, 234.4755
558.3063, 233.8930
558.7884, 234.1755
559.2705, 234.8981
559.7526, 236.0074
560.2347, 237.2668
560.7169, 237.9369
561.1990, 237.4105
561.6811, 235.9875
562.1632, 235.0569
562.6453, 234.9698
563.1274, 234.7846
563.6096, 233.7393
564.0917, 233.0717
564.5738, 234.3037
565.0559, 237.0348
565.5380, 238.9414
566.0201, 237.9837
566.5023, 235.2149
566.9844, 233.3761
567.4665, 232.5784
567.9486, 231.9100
568.4307, 230.6732
568.9128, 229.7399
569.3950, 230.5430
569.8771, 233.2852
570.3592, 235.3670
570.8413, 235.6842
571.3234, 235.1104
571.8055, 234.1790
572.2877, 233.1007
572.7698, 232.6001
573.2519, 233.1688
573.7340, 234.2845
574.2161, 234.5874
574.6982, 233.2863
575.1804, 232.5344
575.6625, 233.0747
576.1446, 233.4761
576.6267, 232.2670
577.1088, 230.1606
577.5909, 229.2194
578.0731, 230.8442
578.5552, 233.7839
579.0373, 235.1868
579.5194, 234.7476
580.0015, 234.4850
580.4836, 235.1490
580.9658, 235.7080
581.4479, 235.3599
581.9300, 234.2384
582.4121, 232.9444
582.8942, 231.2252
583.3763, 229.8093
583.8585, 229.5924
584.3406, 230.3298
584.8227, 231.1409
585.3048, 231.7440
585.7869, 232.2456
586.2690, 232.8473
586.7512, 233.6792
587.2333, 233.8775
587.7154, 232.7510
588.1975, 231.7808
588.6796, 231.7132
589.1617, 232.1826
589.6439, 232.5829
590.1260, 232.6841
590.6081, 232.6424
591.0902, 232.6134
591.5723, 232.5698
592.0544, 232.8844
592.5366, 234.2600
593.0187, 234.9319
593.5008, 233.1200
593.9829, 230.4617
594.4650, 229.6541
594.9471, 231.7970
595.4293, 234.0471
595.9114, 233.6155
596.3935, 231.7760
596.8756, 231.8462
597.3577, 234.3906
597.8398, 237.0391
598.3220, 238.1855
598.8041, 237.8728
599.2862, 236.3156
599.7683, 231.3385
600.2504, 228.1961
600.7325, 228.9565
601.2147, 231.0737
601.6968, 232.3272
602.1789, 232.4472
602.6610, 232.2455
603.1431, 232.3336
603.6252, 232.6574
604.1074, 232.9711
604.5895, 233.2283
605.0716, 233.6011
605.5537, 234.6003
606.0358, 235.3701
606.5179, 235.0940
607.0001, 233.8676
607.4822, 232.6956
607.9643, 232.1230
608.4464, 231.8161
608.9285, 231.4650
609.4106, 231.0430
609.8928, 230.3178
610.3749, 229.0797
610.8570, 227.9162
611.3391, 227.7411
611.8212, 228.8396
612.3033, 229.9041
612.7855, 231.4181
613.2676, 232.3927
613.7497, 232.1054
614.2318, 231.0658
614.7139, 229.8836
615.1960, 228.8248
615.6782, 228.3544
616.1603, 229.4929
616.6424, 232.3598
617.1245, 234.0669
617.6066, 234.1569
618.0887, 233.8060
618.5709, 233.3535
619.0530, 232.9142
619.5351, 232.7152
620.0172, 232.8903
620.4993, 232.8844
620.9814, 232.2415
621.4636, 231.2758
621.9457, 230.3564
622.4278, 229.5601
622.9099, 229.1861
623.3920, 229.5426
623.8741, 230.3094
624.3563, 230.3537
624.8384, 229.1648
625.3205, 227.9576
625.8026, 226.2486
626.2847, 224.9457
626.7668, 224.7625
627.2490, 225.5018
627.7311, 226.6521
628.2132, 228.1122
628.6953, 229.2625
629.1774, 228.6009
629.6595, 226.0305
630.1417, 224.3763
630.6238, 224.3214
631.1059, 225.0192
631.5880, 226.1355
632.0701, 227.4732
632.5522, 228.3435
633.0344, 228.1733
633.5165, 228.0749
633.9986, 228.8522
634.4807, 229.9660
634.9628, 230.5764
635.4449, 230.5265
635.9271, 230.1641
636.4092, 229.7571
636.8913, 229.3349
637.3734, 229.2827
637.8555, 230.2349
638.3376, 230.5136
638.8198, 229.7073
639.3019, 228.3395
639.7840, 226.2651
640.2661, 223.8387
640.7482, 222.4748
641.2303, 223.5760
641.7125, 225.8267
642.1946, 227.3101
642.6767, 228.0452
643.1588, 228.2312
643.6409, 227.8237
644.1230, 227.1730
644.6052, 226.6367
645.0873, 226.2103
645.5694, 226.1223
646.0515, 226.9785
646.5336, 227.4895
647.0157, 226.3372
647.4979, 224.8912
647.9800, 225.5009
648.4621, 228.4736
648.9442, 231.2834
649.4263, 231.0371
649.9084, 228.1341
650.3906, 226.4339
650.8727, 226.2632
651.3548, 226.4242
651.8369, 226.8476
652.3190, 227.1632
652.8011, 226.7644
653.2833, 225.6216
653.7654, 225.0384
654.2475, 226.2780
654.7296, 227.6812
655.2117, 227.3233
655.6938, 225.7326
656.1760, 224.7607
656.6581, 225.1407
657.1402, 226.1889
657.6223, 226.9964
658.1044, 227.6241
658.5865, 227.6382
659.0687, 225.9499
659.5508, 224.8848
660.0329, 225.6508
660.5150, 227.0183
660.9971, 227.4456
661.4792, 226.6417
661.9614, 225.8017
662.4435, 226.1188
662.9256, 227.0307
663.4077, 227.1339
663.8898, 226.3893
664.3719, 225.7733
664.8541, 225.7617
665.3362, 226.0535
665.8183, 226.1424
666.3004, 225.9946
666.7825, 225.7420
667.2646, 225.1902
667.7468, 224.7384
668.2289, 224.7277
668.7110, 224.9058
669.1931, 224.7747
669.6752, 224.1956
670.1573, 223.6486
670.6395, 223.8058
671.1216, 224.6038
671.6037, 225.1774
672.0858, 225.4666
672.5679, 225.7019
673.0500, 225.9250
673.5322, 226.1892
674.0143, 226.5893
674.4964, 227.1495
674.9785, 227.6667
675.4606, 228.0994
675.9427, 228.4483
676.4249, 228.8221
676.9070, 229.1018
677.3891, 228.9868
677.8712, 228.3571
678.3533, 227.3787
678.8354, 226.1524
679.3176, 224.5641
679.7997, 223.8859
680.2818, 224.7523
680.7639, 225.5760
681.2460, 226.0335
681.7281, 226.0488
682.2103, 225.2956
682.6924, 223.7120
683.1745, 222.4972
683.6566, 222.1284
684.1387, 222.5849
684.6208, 224.4694
685.1030, 227.3198
685.5851, 229.0627
686.0672, 228.7505
686.5493, 227.4671
687.0314, 226.8084
687.5135, 226.8637
687.9957, 227.0797
688.4778, 228.1283
688.9599, 228.5431
689.4420, 227.5318
689.9241, 225.9198
690.4063, 224.5234
690.8884, 223.5303
691.3705, 222.8893
691.8526, 222.5642
692.3347, 222.5634
692.8168, 223.0909
693.2990, 224.0933
693.7811, 224.7552
694.2632, 224.7278
694.7453, 224.3497
695.2274, 224.0289
695.7095, 223.7242
696.1917, 223.7728
696.6738, 224.4232
697.1559, 225.0977
697.6380, 225.8292
698.1201, 226.3754
698.6022, 226.3247
699.0844, 225.6994
699.5665, 225.1362
700.0486, 225.2556
700.5307, 225.7780
701.0128, 225.8843
701.4949, 225.5530
701.9771, 225.5081
702.4592, 226.0997
702.9413, 226.8196
703.4234, 227.0533
703.9055, 226.7675
704.3876, 226.5307
704.8698, 226.4543
705.3519, 226.2988
705.8340, 225.9174
706.3161, 225.4493
706.7982, 224.8994
707.2803, 224.3774
707.7625, 224.3197
708.2446, 225.2358
708.7267, 226.6742
709.2088, 227.3573
709.6909, 227.2410
710.1730, 226.8173
710.6552, 226.0396
711.1373, 225.2465
711.6194, 224.7326
712.1015, 224.4777
712.5836, 224.3669
713.0657, 224.3275
713.5479, 224.5121
714.0300, 225.0871
714.5121, 225.8387
714.9942, 226.6687
715.4763, 227.4756
715.9584, 227.9802
716.4406, 227.9630
716.9227, 227.6472
717.4048, 227.5338
717.8869, 227.6295
718.3690, 227.8242
718.8511, 227.9783
719.3333, 228.4530
719.8154, 230.1179
720.2975, 232.2310
720.7796, 232.7956
721.2617, 230.6675
721.7438, 229.0666
722.2260, 229.5986
722.7081, 230.7637
723.1902, 231.1405
723.6723, 230.8082
724.1544, 230.5409
724.6365, 230.7413
725.1187, 231.2002
725.6008, 231.4652
726.0829, 231.4805
726.5650, 232.2289
727.0471, 234.3457
727.5292, 235.9484
728.0114, 235.5020
728.4935, 234.2010
728.9756, 233.9563
729.4577, 235.0233
729.9398, 236.2249
730.4219, 237.5960
730.9041, 238.6576
731.3862, 238.6698
731.8683, 238.1436
732.3504, 238.4263
732.8325, 239.9207
733.3146, 241.2791
733.7968, 240.4607
734.2789, 237.6944
734.7610, 236.7540
735.2431, 238.1292
735.7252, 239.8857
736.2073, 241.8780
736.6895, 243.4910
737.1716, 243.6832
737.6537, 242.5376
738.1358, 242.2940
738.6179, 244.1649
739.1000, 246.2292
739.5822, 247.6345
740.0643, 248.4999
740.5464, 248.9333
741.0285, 249.0246
741.5106, 248.9913
741.9927, 248.9005
742.4749, 248.9826
742.9570, 250.2858
743.4391, 253.1524
743.9212, 255.0356
744.4033, 254.9112
744.8854, 254.5163
745.3676, 255.3927
745.8497, 257.1651
746.3318, 258.6101
746.8139, 259.5635
747.2960, 260.2884
747.7781, 260.6400
748.2603, 260.9691
748.7424, 261.6480
749.2245, 262.6150
749.7066, 263.5881
750.1887, 264.4323
750.6708, 265.1356
751.1530, 265.6382
751.6351, 265.9463
752.1172, 266.3050
752.5993, 266.6700
753.0814, 267.3008
753.5635, 268.4821
754.0457, 269.9199
754.5278, 271.1060
755.0099, 272.1125
755.4920, 272.6032
755.9741, 271.0690
756.4562, 270.5424
756.9384, 273.6275
757.4205, 278.4229
757.9026, 282.0493
758.3847, 283.7985
758.8668, 284.7317
759.3489, 285.5298
759.8311, 286.3955
760.3132, 287.9334
760.7953, 290.1381
761.2774, 292.8661
761.7595, 295.7285
762.2416, 299.6799
762.7238, 302.8548
763.2059, 306.9627
763.6880, 311.4519
764.1701, 315.5104
764.6522, 321.0582
765.1343, 326.0782
765.6165, 330.5165
766.0986, 333.4265
766.5807, 335.6834
767.0628, 339.7940
767.5449, 347.2101
768.0270, 355.9524
768.5092, 363.7010
768.9913, 370.7433
769.4734, 378.2078
769.9555, 386.2034
770.4376, 393.6887
770.9197, 399.7880
771.4019, 405.5141
771.8840, 413.1746
772.3661, 423.6419
772.8482, 433.6231
773.3303, 443.4760
773.8124, 452.5808
774.2946, 459.9238
774.7767, 466.8368
775.2588, 474.8498
775.7409, 484.2812
776.2230, 494.4043
776.7051, 505.1155
777.1873, 516.0543
777.6694, 526.9956
778.1515, 537.7966
778.6336, 547.9512
779.1157, 557.3362
779.5978, 566.5040
780.0800, 576.0472
780.5621, 585.7936
781.0442, 594.9166
781.5263, 603.0651
782.0084, 611.4233
782.4905, 621.3933
782.9727, 630.3623
783.4548, 636.5560
783.9369, 640.6219
784.4190, 644.2516
784.9011, 648.1804
785.3832, 650.6862
785.8654, 651.7682
786.3475, 650.4271
786.8296, 644.9615
787.3117, 636.1002
787.7938, 626.1100
788.2759, 616.0161
788.7581, 605.1427
789.2402, 592.0502
789.7223, 576.8870
790.2044, 563.6172
790.6865, 552.5146
791.1686, 542.1104
791.6508, 531.8149
792.1329, 522.0856
792.6150, 513.0367
793.0971, 504.6773
793.5792, 499.0002
794.0613, 496.5424
794.5435, 496.3304
795.0256, 498.4910
795.5077, 502.4404
795.9898, 507.7031
796.4719, 514.2283
796.9540, 522.0153
797.4362, 530.8873
797.9183, 541.5557
798.4004, 555.2060
798.8825, 571.4694
799.3646, 589.2284
799.8467, 608.4091
800.3289, 627.4960
800.8110, 645.5298
801.2931, 663.5654
801.7752, 684.2527
802.2573, 708.9567
802.7394, 731.3757
803.2216, 748.4091
803.7037, 766.9200
804.1858, 789.3893
804.6679, 814.0278
805.1500, 838.5592
805.6321, 863.0449
806.1143, 889.3657
806.5964, 918.8408
807.0785, 950.0910
807.5606, 982.2609
808.0427, 1015.445
808.5248, 1049.150
809.0070, 1083.611
809.4891, 1120.777
809.9712, 1162.323
810.4533, 1206.902
810.9354, 1251.120
811.4175, 1294.995
811.8997, 1339.119
812.3818, 1385.939
812.8639, 1428.074
813.3460, 1463.514
813.8281, 1490.693
814.3102, 1507.191
814.7924, 1513.144
815.2745, 1508.922
815.7566, 1493.568
816.2387, 1469.128
816.7208, 1433.642
817.2029, 1391.324
817.6851, 1345.728
818.1672, 1298.392
818.6493, 1252.069
819.1314, 1207.295
819.6135, 1166.297
820.0956, 1132.304
820.5778, 1105.322
821.0599, 1085.943
821.5420, 1074.446
822.0241, 1066.759
822.5062, 1059.616
822.9883, 1058.405
823.4705, 1055.023
823.9526, 1064.076
824.4347, 1073.959
824.9168, 1085.059
825.3989, 1096.344
825.8810, 1106.781
826.3632, 1117.464
826.8453, 1129.215
827.3274, 1142.022
827.8095, 1158.373
828.2916, 1180.133
828.7737, 1204.869
829.2559, 1229.781
829.7380, 1256.921
830.2201, 1289.850
830.7022, 1329.094
831.1843, 1372.110
831.6664, 1416.940
832.1486, 1466.559
832.6307, 1517.138
833.1128, 1574.739
833.5949, 1634.668
834.0770, 1696.706
834.5591, 1761.235
835.0413, 1830.622
835.5233, 1900.171
836.0054, 1958.516
836.4875, 2010.090
836.9697, 2037.291
837.4518, 2042.413
837.9339, 2022.467
838.4160, 1972.945
838.8981, 1899.855
839.3802, 1805.776
839.8624, 1693.025
840.3445, 1572.490
840.8266, 1442.844
841.3087, 1315.433
841.7908, 1196.544
842.2729, 1087.693
842.7551, 991.8198
843.2372, 908.9251
843.7193, 837.1774
844.2014, 775.6302
844.6835, 722.5532
845.1656, 674.1481
845.6478, 630.1580
846.1299, 594.3500
846.6120, 568.0792
847.0941, 544.5773
847.5762, 520.9049
848.0583, 498.3650
848.5405, 479.0886
849.0226, 463.4110
849.5047, 448.4046
849.9868, 432.7079
850.4689, 419.5251
850.9510, 411.5651
851.4332, 404.8321
851.9153, 395.4018
852.3974, 384.2498
852.8795, 375.0814
853.3616, 369.4608
853.8438, 365.8181
854.3259, 364.2974
854.8080, 363.2298
855.2901, 359.3388
855.7722, 353.4965
856.2543, 349.8118
856.7365, 349.8977
857.2186, 351.0976
857.7007, 349.9988
858.1828, 347.0473
858.6649, 345.5679
859.1470, 345.6910
859.6292, 346.5560
860.1113, 348.2766
860.5934, 349.9464
861.0755, 350.2670
861.5576, 349.8333
862.0397, 351.8235
862.5219, 358.2146
863.0040, 363.6390
863.4861, 367.2493
863.9682, 370.5241
864.4503, 374.1149
864.9324, 377.8941
865.4146, 381.5482
865.8967, 385.0045
866.3788, 388.7707
866.8609, 393.6917
867.3430, 398.5228
867.8251, 401.0347
868.3073, 402.8817
868.7894, 407.3163
869.2715, 414.8365
869.7536, 424.2905
870.2357, 435.2770
870.7178, 446.1392
871.2000, 452.5330
871.6821, 454.6510
872.1642, 460.2405
872.6463, 470.3973
873.1284, 481.3226
873.6105, 491.3814
874.0927, 501.0556
874.5748, 511.0450
875.0569, 521.4956
875.5390, 531.4815
876.0211, 544.3007
876.5032, 552.1720
876.9854, 553.1195
877.4675, 549.4718
877.9496, 543.2490
878.4317, 533.8855
878.9138, 519.0465
879.3959, 496.8582
879.8781, 472.9160
880.3602, 449.1805
880.8423, 426.0527
881.3244, 402.8686
881.8065, 380.7851
882.2886, 362.1341
882.7708, 347.5464
883.2529, 335.0750
883.7350, 323.1013
884.2171, 311.8020
884.6992, 301.4062
885.1813, 291.9502
885.6635, 284.2122
886.1456, 278.3282
886.6277, 274.1437
887.1098, 271.9790
887.5919, 270.5859
888.0740, 266.4564
888.5562, 258.2361
889.0383, 252.5508
889.5204, 250.5734
890.0025, 249.2072
890.4846, 247.3766
890.9667, 245.6077
891.4489, 244.4165
891.9310, 243.7921
892.4131, 243.5558
892.8952, 245.0367
893.3773, 245.1038
893.8594, 241.3557
894.3416, 237.0797
894.8237, 235.0378
895.3058, 234.7170
895.7879, 234.3557
896.2700, 233.3409
896.7521, 232.3141
897.2343, 231.6545
897.7164, 231.3787
898.1985, 231.9051
898.6806, 232.7993
899.1627, 232.6705
899.6448, 231.2739
900.1270, 229.8153
900.6091, 229.3830
901.0912, 229.3436
901.5733, 227.5913
902.0554, 224.0695
902.5375, 222.6412
903.0197, 224.0705
903.5018, 225.8177
903.9839, 227.1049
904.4660, 227.1921
904.9481, 224.3609
905.4302, 218.0009
905.9124, 214.7134
906.3945, 217.4585
906.8766, 218.9982
907.3587, 217.1876
907.8408, 214.7733
908.3229, 213.6510
908.8051, 213.4528
909.2872, 213.0070
909.7693, 212.1189
910.2514, 210.9090
910.7335, 208.9618
911.2156, 207.1695
911.6978, 206.7202
912.1799, 206.6316
912.6620, 204.8784
913.1441, 201.4214
913.6262, 198.7692
914.1083, 198.9613
914.5905, 200.1660
915.0726, 199.9591
915.5547, 198.8867
916.0368, 198.4679
916.5189, 198.7008
917.0010, 198.0458
917.4832, 195.6773
917.9653, 193.3904
918.4474, 194.4532
918.9295, 198.2886
919.4116, 197.9406
919.8937, 192.6142
920.3759, 188.8768
920.8580, 188.6778
921.3401, 189.5418
921.8222, 189.4817
922.3043, 188.8503
922.7864, 189.0204
923.2686, 190.4935
923.7507, 191.6609
924.2328, 193.2165
924.7149, 193.6122
925.1970, 191.2393
925.6791, 188.1764
926.1613, 186.7256
926.6434, 186.8928
927.1255, 187.1728
927.6076, 187.1345
928.0897, 187.2442
928.5718, 187.9232
929.0540, 188.6105
929.5361, 188.7523
930.0182, 188.5190
930.5003, 188.3963
930.9824, 188.5345
931.4645, 188.5879
931.9467, 187.7525
932.4288, 187.1051
932.9109, 189.0166
933.3930, 191.9445
933.8751, 191.8015
934.3572, 188.3462
934.8394, 185.0733
935.3215, 184.2382
935.8036, 184.6879
936.2857, 184.7691
936.7678, 184.4209
937.2499, 182.8175
937.7321, 179.8789
938.2142, 177.9239
938.6963, 177.8413
939.1784, 178.6682
939.6605, 179.6209
940.1426, 180.4983
940.6248, 179.7831
941.1069, 176.3844
941.5890, 174.8352
942.0711, 176.5223
942.5532, 178.3477
943.0353, 178.8933
943.5175, 178.5867
943.9996, 177.9203
944.4817, 176.8253
944.9638, 176.1942
945.4459, 176.2148
945.9280, 176.4878
946.4102, 177.1962
946.8923, 177.8806
947.3744, 178.1514
947.8565, 178.1438
948.3386, 178.1918
948.8207, 178.3702
949.3029, 178.6222
949.7850, 179.1845
950.2671, 179.5394
950.7492, 179.0684
951.2313, 178.2794
951.7134, 178.1254
952.1956, 178.4866
952.6777, 178.1381
953.1598, 176.2063
953.6419, 174.1827
954.1240, 173.9716
954.6061, 173.0566
955.0883, 172.7541
955.5704, 173.3219
956.0525, 173.2319
956.5346, 174.5126
957.0167, 175.7527
957.4988, 175.6095
957.9810, 174.5736
958.4631, 173.6827
958.9452, 172.9804
959.4273, 173.2220
959.9094, 174.5567
960.3915, 175.5737
960.8737, 175.5466
961.3558, 175.0486
961.8379, 174.8805
962.3200, 175.0291
962.8021, 175.1671
963.2842, 175.3709
963.7664, 175.3281
964.2485, 175.0217
964.7306, 174.3569
965.2127, 172.8962
965.6948, 171.2523
966.1769, 171.0647
966.6591, 169.9549
967.1412, 168.5451
967.6233, 169.4869
968.1054, 168.9940
968.5875, 167.9655
969.0696, 170.0440
969.5518, 171.8505
970.0339, 173.0579
970.5160, 172.7960
970.9981, 169.9543
971.4802, 168.7119
971.9623, 172.3374
972.4445, 175.6140
972.9266, 174.9329
973.4087, 172.5619
973.8908, 171.3481
974.3729, 171.5044
974.8550, 171.7121
975.3372, 171.3430
975.8193, 171.0251
976.3014, 171.7123
976.7835, 172.3009
977.2656, 170.9899
977.7477, 168.7050
978.2299, 167.6284
978.7120, 168.2540
979.1941, 169.4622
979.6762, 170.6148
980.1583, 171.5528
980.6404, 172.1363
981.1226, 172.3011
981.6047, 171.3921
982.0868, 169.7549
982.5689, 169.7337
983.0510, 172.2055
983.5331, 174.1642
984.0153, 171.7564
984.4974, 166.7990
984.9795, 165.5514
985.4616, 167.6970
985.9437, 168.6264
986.4258, 167.6253
986.9080, 167.0457
987.3901, 168.2789
987.8722, 169.9450
988.3543, 169.7147
988.8364, 167.7119
989.3185, 167.1608
989.8007, 168.3363
990.2828, 169.7691
990.7649, 171.4415
991.2470, 172.6495
991.7291, 172.8587
992.2112, 172.3789
992.6934, 171.8510
993.1755, 171.2702
993.6576, 170.7113
994.1397, 170.4604
994.6218, 169.6955
995.1039, 167.4213
995.5861, 165.4580
996.0682, 165.6314
996.5503, 167.1185
997.0324, 167.5396
997.5145, 166.1571
997.9966, 165.8938
998.4788, 168.2510
998.9609, 170.0684
999.4430, 169.9881
999.9251, 169.2209
1000.407, 168.9871
1000.889, 169.0318
1001.371, 168.1311
1001.854, 165.4863
1002.336, 163.5755
1002.818, 163.2420
1003.300, 163.7478
1003.782, 164.9632
1004.264, 166.5839
1004.746, 168.7932
1005.228, 171.1538
1005.711, 172.0033
1006.193, 170.1888
1006.675, 168.3752
1007.157, 168.3870
1007.639, 168.9014
1008.121, 168.5740
1008.603, 167.9479
1009.085, 168.2476
1009.567, 169.4697
1010.050, 170.3514
1010.532, 170.1104
1011.014, 169.5197
1011.496, 169.2188
1011.978, 169.0879
1012.460, 169.1558
1012.942, 169.2090
1013.424, 168.5487
1013.906, 167.1553
1014.389, 166.1718
1014.871, 166.6252
1015.353, 167.4083
1015.835, 166.5683
1016.317, 166.8140
1016.799, 166.8302
1017.281, 166.0171
1017.763, 166.5395
1018.246, 165.8450
1018.728, 165.0829
1019.210, 165.3510
1019.692, 166.0838
1020.174, 166.1448
1020.656, 165.5961
1021.138, 164.4752
1021.620, 162.8871
1022.102, 162.1171
1022.585, 162.6741
1023.067, 163.3744
1023.549, 162.8585
1024.031, 161.7471
1024.513, 162.5194
1024.995, 165.0943
1025.477, 165.5514
1025.959, 163.3789
1026.442, 161.7486
1026.924, 162.0531
1027.406, 163.0750
1027.888, 163.4297
1028.370, 163.2791
1028.852, 163.4562
1029.334, 163.9682
1029.816, 164.8842
1030.298, 166.4122
1030.781, 167.4936
1031.263, 167.6729
1031.745, 167.0913
1032.227, 165.6818
1032.709, 163.6660
1033.191, 163.1134
1033.673, 164.7432
1034.155, 165.2797
1034.638, 163.8796
1035.120, 162.7520
1035.602, 162.9211
1036.084, 163.8207
1036.566, 164.9070
1037.048, 166.1275
1037.530, 166.6166
1038.012, 166.1856
1038.495, 165.4039
1038.977, 163.7893
1039.459, 162.6753
1039.941, 163.0040
1040.423, 163.8293
1040.905, 163.9020
1041.387, 163.2649
1041.869, 162.9641
1042.351, 163.3404
1042.833, 163.4789
1043.316, 162.9796
1043.798, 162.6646
1044.280, 163.3061
1044.762, 164.0355
1045.244, 163.3450
1045.726, 161.4039
1046.208, 161.1543
1046.690, 165.0743
1047.173, 167.0495
1047.655, 165.0179
1048.137, 162.8001
1048.619, 162.1713
1049.101, 162.2474
1049.583, 161.8554
1050.065, 161.0400
1050.547, 160.7958
1051.030, 162.0182
1051.512, 162.5622
1051.994, 161.3340
1052.476, 160.2666
1052.958, 160.4327
1053.440, 161.2087
1053.922, 162.1112
1054.404, 162.9596
1054.886, 163.0258
1055.369, 161.9573
1055.851, 160.4942
1056.333, 157.9559
1056.815, 156.0299
1057.297, 155.8491
1057.779, 156.6342
1058.261, 157.9025
1058.743, 159.3031
1059.225, 159.5734
1059.708, 157.6169
1060.190, 156.3492
1060.672, 157.2539
1061.154, 158.3897
1061.636, 158.6613
1062.118, 158.5832
1062.600, 159.1612
1063.082, 160.0658
1063.565, 159.5084
1064.047, 156.2765
1064.529, 153.7829
1065.011, 153.9706
1065.493, 154.4230
1065.975, 153.1894
1066.457, 151.8657
1066.939, 152.5640
1067.422, 154.9000
1067.904, 156.9619
1068.386, 158.2674
1068.868, 159.0758
1069.350, 159.3948
1069.832, 159.3503
1070.314, 158.8447
1070.796, 158.1436
1071.278, 157.3945
1071.760, 156.7131
1072.243, 156.3590
1072.725, 156.4588
1073.207, 156.4862
1073.689, 156.3842
1074.171, 155.9415
1074.653, 154.4074
1075.135, 152.9764
1075.617, 153.2507
1076.100, 154.5727
1076.582, 154.8954
1077.064, 153.6088
1077.546, 153.1086
1078.028, 155.6817
1078.510, 157.8146
1078.992, 157.1647
1079.474, 155.5391
1079.957, 154.0948
1080.439, 153.2622
1080.921, 153.8424
1081.403, 155.9508
1081.885, 157.4133
1082.367, 156.6188
1082.849, 155.8122
1083.331, 156.4466
1083.813, 157.2480
1084.296, 156.9392
1084.778, 156.0694
1085.260, 155.7860
1085.742, 156.2387
1086.224, 156.5133
1086.706, 156.0444
1087.188, 155.6330
1087.670, 155.7226
1088.152, 155.9282
1088.635, 155.9385
1089.117, 155.8789
1089.599, 156.1190
1090.081, 156.5753
1090.563, 156.4312
1091.045, 154.8213
1091.527, 153.8752
1092.009, 155.3053
1092.491, 156.7894
1092.974, 156.6010
1093.456, 155.7104
1093.938, 155.4681
1094.420, 155.7981
1094.902, 155.5948
1095.384, 154.1693
1095.866, 153.5068
1096.348, 155.3905
1096.831, 156.9692
1097.313, 156.3366
1097.795, 154.9494
1098.277, 154.0333
1098.759, 153.7592
1099.241, 154.2036
1099.723, 155.4927
1100.205, 156.8174
1100.688, 158.1839
1101.170, 159.2038
1101.652, 159.5928
1102.134, 159.6862
1102.616, 159.8600
1103.098, 159.9137
1103.580, 159.2165
1104.062, 157.6278
1104.544, 156.6878
1105.026, 157.4586
1105.509, 157.9333
1105.991, 157.1736
1106.473, 156.3511
1106.955, 155.9802
1107.437, 156.1442
1107.919, 157.3767
1108.401, 159.5482
1108.883, 160.2440
1109.366, 157.5604
1109.848, 155.7592
1110.330, 156.3395
1110.812, 156.8383
1111.294, 155.5274
1111.776, 153.9999
1112.258, 154.1737
1112.740, 155.8033
1113.223, 157.2211
1113.705, 158.7063
1114.187, 159.1553
1114.669, 157.4045
1115.151, 156.0732
1115.633, 156.1263
1116.115, 156.6868
1116.597, 157.0092
1117.079, 157.3060
1117.562, 158.3556
1118.044, 160.7255
1118.526, 161.3404
1119.008, 158.4560
1119.490, 156.9050
1119.972, 158.9749
1120.454, 160.4680
1120.936, 158.1735
1121.418, 154.3429
1121.901, 152.8588
1122.383, 153.7705
1122.865, 154.0399
1123.347, 153.2096
1123.829, 153.0094
1124.311, 154.1128
1124.793, 154.6522
1125.275, 153.5108
1125.758, 151.9694
1126.240, 151.5685
1126.722, 152.0528
1127.204, 152.0044
1127.686, 151.2894
1128.168, 150.5990
1128.650, 149.7911
1129.132, 149.8477
1129.615, 151.3560
1130.097, 152.6605
1130.579, 152.2239
1131.061, 151.0339
1131.543, 151.8120
1132.025, 154.6063
1132.507, 154.9079
1132.989, 152.5100
1133.471, 150.9583
1133.953, 150.9952
1134.436, 151.3511
1134.918, 151.3129
1135.400, 151.1178
1135.882, 151.0174
1136.364, 151.1057
1136.846, 152.0141
1137.328, 153.5904
1137.810, 154.4719
1138.293, 154.5427
1138.775, 154.4046
1139.257, 154.2869
1139.739, 154.0021
1140.221, 153.3168
1140.703, 153.1594
1141.185, 152.2751
1141.667, 152.3692
1142.150, 152.0103
1142.632, 151.3999
1143.114, 151.7965
1143.596, 153.2296
1144.078, 153.7632
1144.560, 152.1546
1145.042, 150.3098
1145.524, 150.8043
1146.006, 152.2424
1146.489, 152.5676
1146.971, 152.1038
1147.453, 151.3745
1147.935, 150.5850
1148.417, 149.8615
1148.899, 149.2870
1149.381, 149.4032
1149.863, 151.0083
1150.345, 152.9023
1150.828, 154.6545
1151.310, 155.5529
1151.792, 154.0132
1152.274, 151.3039
1152.756, 149.6960
1153.238, 149.5245
1153.720, 149.9335
1154.202, 150.8585
1154.685, 151.4248
1155.167, 150.8259
1155.649, 150.1319
1156.131, 150.0067
1156.613, 150.1665
1157.095, 150.2906
1157.577, 150.3989
1158.059, 150.8266
1158.542, 151.7847
1159.024, 151.7241
1159.506, 148.5705
1159.988, 146.7754
1160.470, 148.4928
1160.952, 150.9585
1161.434, 153.2807
1161.916, 154.8401
1162.398, 154.4366
1162.880, 152.1904
1163.363, 150.8573
1163.845, 151.3000
1164.327, 151.0519
1164.809, 149.2626
1165.291, 148.2760
1165.773, 149.4296
1166.255, 150.6997
1166.737, 150.1805
1167.220, 150.7959
1167.702, 150.8712
1168.184, 150.3582
1168.666, 151.0036
1169.148, 150.2982
1169.630, 150.7018
1170.112, 153.0685
1170.594, 154.2764
1171.077, 152.6043
1171.559, 149.4962
1172.041, 146.4344
1172.523, 143.8768
1173.005, 143.9522
1173.487, 146.4381
1173.969, 148.8733
1174.451, 150.9976
1174.933, 151.2245
1175.416, 149.2499
1175.898, 148.0568
1176.380, 149.8190
1176.862, 152.6090
1177.344, 153.9268
1177.826, 154.0072
1178.308, 152.7933
1178.790, 150.9484
1179.272, 150.3993
1179.755, 150.9689
1180.237, 150.6534
1180.719, 148.8591
1181.201, 147.8321
1181.683, 149.7826
1182.165, 152.2001
1182.647, 152.6289
1183.129, 152.2309
1183.612, 152.1957
1184.094, 152.3726
1184.576, 152.4599
1185.058, 152.3354
1185.540, 151.6752
1186.022, 150.1293
1186.504, 149.3065
1186.986, 150.7543
1187.469, 152.0153
1187.951, 151.9201
1188.433, 151.1204
1188.915, 149.7491
1189.397, 148.2679
1189.879, 147.3474
1190.361, 147.0454
1190.843, 147.1682
1191.325, 148.5770
1191.807, 148.9472
1192.290, 147.0488
1192.772, 145.8117
1193.254, 146.6206
1193.736, 147.8611
1194.218, 148.0891
1194.700, 148.7477
1195.182, 148.0995
1195.664, 149.2320
1196.147, 149.6968
1196.629, 149.4682
1197.111, 148.4268
1197.593, 146.2687
1198.075, 145.4514
1198.557, 147.3927
1199.039, 149.4081
1199.521, 148.3613
1200.004, 145.5219
1200.486, 144.1790
1200.968, 144.1782
1201.450, 145.0704
1201.932, 146.6275
1202.414, 147.9021
1202.896, 148.6634
1203.378, 149.0056
1203.860, 148.9723
1204.343, 148.5895
1204.825, 147.6133
1205.307, 146.5639
1205.789, 146.1366
1206.271, 146.0976
1206.753, 146.1474
1207.235, 146.2690
1207.717, 146.5440
1208.199, 146.9644
1208.682, 147.4451
1209.164, 148.1615
1209.646, 148.2809
1210.128, 146.5114
1210.610, 145.0853
1211.092, 145.5463
1211.574, 146.7607
1212.056, 148.1796
1212.539, 149.2989
1213.021, 148.9620
1213.503, 146.9320
1213.985, 145.8037
1214.467, 145.5445
1214.949, 146.6693
1215.431, 150.8360
1215.913, 153.5845
1216.396, 152.8416
1216.878, 150.8229
1217.360, 149.2787
1217.842, 148.1868
1218.324, 147.4133
1218.806, 146.9415
1219.288, 148.0861
1219.770, 147.5969
1220.252, 147.1311
1220.734, 148.4535
1221.217, 146.6007
1221.699, 147.8013
1222.181, 149.7133
1222.663, 150.0811
1223.145, 149.5971
1223.627, 149.5307
1224.109, 149.6217
1224.591, 148.9892
1225.074, 148.0527
1225.556, 148.2321
1226.038, 149.3854
1226.520, 149.9864
1227.002, 149.4337
1227.484, 148.6103
1227.966, 147.8021
1228.448, 147.3828
1228.931, 147.4977
1229.413, 148.2383
1229.895, 150.7210
1230.377, 153.2108
1230.859, 152.8318
1231.341, 150.1052
1231.823, 148.3622
1232.305, 148.2957
1232.787, 148.7452
1233.270, 150.5270
1233.752, 151.3284
1234.234, 149.5135
1234.716, 148.4338
1235.198, 150.5110
1235.680, 153.2825
1236.162, 153.6099
1236.644, 151.9723
1237.126, 150.4744
1237.609, 149.0104
1238.091, 149.2104
1238.573, 151.2724
1239.055, 151.5027
1239.537, 149.0878
1240.019, 146.8404
1240.501, 146.2826
1240.983, 146.8800
1241.466, 148.2385
1241.948, 149.9637
1242.430, 151.6565
1242.912, 152.9627
1243.394, 152.6650
1243.876, 151.4580
1244.358, 151.1330
1244.840, 151.8589
1245.323, 152.8444
1245.805, 153.8613
1246.287, 153.8742
1246.769, 151.2927
1247.251, 148.8164
1247.733, 147.3381
1248.215, 147.2074
1248.697, 150.1392
1249.179, 153.6337
1249.661, 153.9184
1250.144, 151.3178
1250.626, 149.3873
1251.108, 148.4334
1251.590, 147.7101
1252.072, 146.9037
1252.554, 147.2034
1253.036, 149.4671
1253.518, 151.0736
1254.001, 150.4775
1254.483, 149.1568
1254.965, 148.7939
1255.447, 149.2573
1255.929, 150.5611
1256.411, 150.1502
1256.893, 152.2481
1257.375, 150.4528
1257.858, 149.6108
1258.340, 150.0558
1258.822, 150.4828
1259.304, 150.3125
1259.786, 150.1019
1260.268, 150.3160
1260.750, 150.7010
1261.232, 151.0914
1261.714, 151.4374
1262.197, 151.6291
1262.679, 151.7799
1263.161, 152.1919
1263.643, 152.7008
1264.125, 152.7148
1264.607, 152.0711
1265.089, 151.3597
1265.571, 150.5471
1266.053, 149.8869
1266.536, 149.2464
1267.018, 149.0365
1267.500, 149.6149
1267.982, 150.3979
1268.464, 150.9420
1268.946, 151.1922
1269.428, 150.9794
1269.910, 150.3221
1270.393, 149.4680
1270.875, 148.4508
1271.357, 148.2397
1271.839, 148.9315
1272.321, 150.4529
1272.803, 152.6759
1273.285, 154.3931
1273.767, 154.6990
1274.250, 154.3368
1274.732, 154.1077
1275.214, 153.7503
1275.696, 152.9618
1276.178, 151.8284
1276.660, 149.8869
1277.142, 147.9405
1277.624, 147.9145
1278.106, 149.8157
1278.589, 150.9101
1279.071, 149.9447
1279.553, 149.4347
1280.035, 150.5616
1280.517, 151.1278
1280.999, 150.0529
1281.481, 149.0214
1281.963, 148.9902
1282.445, 149.5658
1282.928, 150.3121
1283.410, 151.1367
1283.892, 151.5694
1284.374, 151.6178
1284.856, 151.9394
1285.338, 152.4965
1285.820, 152.3195
1286.302, 151.4020
1286.785, 151.6573
1287.267, 153.8679
1287.749, 155.6466
1288.231, 155.2955
##END=



