##NAMES=Talnakhite
##RRUFFID=R060389
##IDEAL CHEMISTRY=Cu_9_Fe_8_S_16_
##LOCALITY=Oktyabrskiy mine, Talnakh, Noril'sk Region, Siberia, U.S.S.R.
##OWNER=RRUFF
##SOURCE=Michael Scott
##DESCRIPTION=Bronze metallic massive, associated with cubanite. We can not tell the difference between them by eye.
##STATUS=The identification of this mineral has been confirmed by X-ray diffraction and chemical analysis
##URL=rruff.info/R060389
##MEASURED CHEMISTRY=(Cu_8.70_Ni_0.30_)_Î£=9_Fe_9.00_S_16.00_
151.3521, 35.87543
151.8342, 36.27149
152.3164, 36.19658
152.7985, 35.71074
153.2806, 35.27023
153.7627, 35.31936
154.2448, 35.87234
154.7269, 36.18714
155.2091, 36.09949
155.6912, 35.76808
156.1733, 35.08062
156.6554, 34.09912
157.1375, 33.21784
157.6196, 33.06537
158.1018, 34.12589
158.5839, 34.47165
159.0660, 33.29869
159.5481, 31.95090
160.0302, 31.29409
160.5123, 31.52874
160.9945, 32.22927
161.4766, 32.65245
161.9587, 32.60531
162.4408, 32.54075
162.9229, 32.40340
163.4050, 32.27992
163.8871, 32.21280
164.3693, 32.22023
164.8514, 32.35891
165.3335, 32.79720
165.8156, 34.17745
166.2977, 34.95620
166.7798, 34.51945
167.2620, 33.46249
167.7441, 32.68835
168.2262, 32.60564
168.7083, 32.99682
169.1904, 33.28413
169.6725, 33.54137
170.1547, 33.61579
170.6368, 33.36971
171.1189, 32.87065
171.6010, 32.31099
172.0831, 31.65206
172.5652, 31.10787
173.0474, 31.04677
173.5295, 31.66987
174.0116, 32.38826
174.4937, 32.71317
174.9758, 32.64655
175.4579, 32.64289
175.9401, 33.06146
176.4222, 33.55986
176.9043, 33.77713
177.3864, 33.63649
177.8685, 33.23050
178.3506, 32.54460
178.8328, 31.40617
179.3149, 30.61947
179.7970, 30.94199
180.2791, 31.50520
180.7612, 31.43746
181.2433, 30.32894
181.7255, 28.80737
182.2076, 28.29268
182.6897, 29.46041
183.1718, 30.43596
183.6539, 30.89384
184.1360, 30.97439
184.6181, 30.69061
185.1003, 30.01461
185.5824, 29.18475
186.0645, 29.08749
186.5466, 30.87396
187.0287, 31.99284
187.5108, 31.72009
187.9930, 30.70791
188.4751, 29.73102
188.9572, 29.21647
189.4393, 29.12353
189.9214, 29.25590
190.4035, 29.93216
190.8857, 30.47937
191.3678, 30.85339
191.8499, 31.00626
192.3320, 30.82058
192.8141, 30.17992
193.2962, 29.17352
193.7784, 28.49724
194.2605, 28.07667
194.7426, 27.96076
195.2247, 28.43325
195.7068, 29.27470
196.1889, 29.87099
196.6711, 29.81522
197.1532, 29.20746
197.6353, 28.68996
198.1174, 28.18898
198.5995, 27.82800
199.0816, 27.67313
199.5638, 27.71821
200.0459, 27.96258
200.5280, 28.61096
201.0101, 29.38208
201.4922, 29.50115
201.9743, 28.31686
202.4565, 27.10346
202.9386, 27.09246
203.4207, 28.31620
203.9028, 29.57172
204.3849, 30.43314
204.8670, 30.82491
205.3492, 30.52140
205.8313, 29.09829
206.3134, 27.46122
206.7955, 26.80729
207.2776, 27.32015
207.7597, 27.96614
208.2419, 28.42132
208.7240, 28.71460
209.2061, 28.83420
209.6882, 28.75880
210.1703, 28.54490
210.6524, 28.23948
211.1346, 27.74239
211.6167, 27.42759
212.0988, 27.60526
212.5809, 27.92046
213.0630, 27.97251
213.5451, 27.55973
214.0273, 26.97683
214.5094, 26.96317
214.9915, 28.03722
215.4736, 28.73685
215.9557, 28.57597
216.4378, 28.05783
216.9200, 27.66402
217.4021, 27.60965
217.8842, 27.79236
218.3663, 27.94654
218.8484, 28.19786
219.3305, 28.21073
219.8127, 27.74279
220.2948, 27.12103
220.7769, 26.68636
221.2590, 26.59397
221.7411, 26.75175
222.2232, 26.88577
222.7054, 26.81566
223.1875, 26.95494
223.6696, 27.60053
224.1517, 28.37186
224.6338, 28.74884
225.1159, 28.49734
225.5980, 27.90776
226.0802, 27.82746
226.5623, 29.07503
227.0444, 29.86364
227.5265, 29.81995
228.0086, 29.31472
228.4907, 28.74887
228.9729, 28.27789
229.4550, 27.94892
229.9371, 27.92039
230.4192, 28.42721
230.9013, 28.84661
231.3834, 29.11457
231.8656, 29.23112
232.3477, 29.12297
232.8298, 28.72151
233.3119, 28.24671
233.7940, 28.25128
234.2761, 28.95839
234.7583, 29.48402
235.2404, 29.42920
235.7225, 29.07602
236.2046, 28.96498
236.6867, 29.33513
237.1688, 29.85240
237.6510, 29.85776
238.1331, 29.27094
238.6152, 28.80980
239.0973, 28.71672
239.5794, 28.91806
240.0615, 29.35544
240.5437, 30.16968
241.0258, 30.88528
241.5079, 30.68765
241.9900, 29.58376
242.4721, 28.72718
242.9542, 28.79915
243.4364, 29.48572
243.9185, 29.99917
244.4006, 30.19120
244.8827, 30.16307
245.3648, 29.92920
245.8469, 29.52473
246.3290, 29.24253
246.8112, 29.27307
247.2933, 29.54012
247.7754, 29.81907
248.2575, 30.08818
248.7396, 30.35736
249.2217, 30.81501
249.7039, 31.33840
250.1860, 31.45922
250.6681, 30.53019
251.1502, 28.92853
251.6323, 28.11061
252.1144, 28.51326
252.5966, 29.12400
253.0787, 29.42953
253.5608, 29.46986
254.0429, 29.31891
254.5250, 28.89081
255.0071, 28.29711
255.4893, 27.98068
255.9714, 28.04775
256.4535, 28.24827
256.9356, 28.48307
257.4177, 28.74719
257.8998, 29.03080
258.3820, 29.31510
258.8641, 29.61989
259.3462, 30.07182
259.8283, 30.98413
260.3104, 31.49112
260.7925, 31.21234
261.2747, 30.46868
261.7568, 29.62944
262.2389, 28.82242
262.7210, 28.12711
263.2031, 27.78538
263.6852, 27.95583
264.1674, 28.24072
264.6495, 28.78118
265.1316, 29.27404
265.6137, 29.29307
266.0958, 28.62650
266.5779, 27.65823
267.0601, 27.33415
267.5422, 28.05771
268.0243, 28.73727
268.5064, 29.24114
268.9885, 29.62172
269.4706, 29.86961
269.9528, 29.99027
270.4349, 30.10250
270.9170, 30.49511
271.3991, 31.55515
271.8812, 32.09846
272.3633, 31.70273
272.8455, 31.07125
273.3276, 30.71228
273.8097, 30.75687
274.2918, 31.03313
274.7739, 31.33709
275.2560, 31.88763
275.7382, 31.95819
276.2202, 31.20353
276.7024, 30.33295
277.1845, 29.72089
277.6666, 29.45309
278.1487, 29.47140
278.6308, 29.76045
279.1129, 30.50035
279.5951, 30.86833
280.0772, 30.57008
280.5593, 30.22455
281.0414, 30.23166
281.5235, 30.54069
282.0056, 30.78662
282.4878, 30.59134
282.9699, 29.86229
283.4520, 29.35400
283.9341, 29.26844
284.4162, 29.17196
284.8983, 28.91765
285.3805, 28.50543
285.8626, 27.96455
286.3447, 27.28844
286.8268, 26.48573
287.3089, 25.94651
287.7910, 25.93451
288.2732, 25.88122
288.7553, 25.47744
289.2374, 24.92373
289.7195, 24.65665
290.2016, 24.96896
290.6837, 25.71641
291.1659, 26.09503
291.6480, 25.70327
292.1301, 25.41212
292.6122, 25.58789
293.0943, 25.89179
293.5764, 25.73368
294.0586, 24.82224
294.5407, 23.55105
295.0228, 22.98532
295.5049, 23.87358
295.9870, 24.58954
296.4691, 25.05280
296.9513, 25.32745
297.4334, 25.45512
297.9155, 25.45304
298.3976, 25.36371
298.8797, 25.24746
299.3618, 25.01004
299.8440, 24.94406
300.3261, 25.24556
300.8082, 25.59263
301.2903, 25.70062
301.7724, 25.52732
302.2545, 25.26858
302.7367, 25.17785
303.2188, 25.37261
303.7009, 25.22778
304.1830, 24.34163
304.6651, 23.47253
305.1472, 23.03119
305.6294, 23.05580
306.1115, 23.47328
306.5936, 24.30633
307.0757, 25.60242
307.5578, 26.30418
308.0399, 26.19418
308.5221, 25.82953
309.0042, 25.37430
309.4863, 24.85575
309.9684, 24.23581
310.4505, 23.44123
310.9326, 22.56283
311.4148, 22.29449
311.8969, 23.39346
312.3790, 24.13107
312.8611, 23.68563
313.3432, 22.68294
313.8253, 22.18048
314.3075, 22.68052
314.7896, 23.81500
315.2717, 24.66216
315.7538, 25.32920
316.2359, 25.54560
316.7180, 24.89662
317.2001, 23.95673
317.6823, 23.41474
318.1644, 23.45811
318.6465, 23.67247
319.1286, 23.39221
319.6107, 22.14923
320.0928, 21.59055
320.5750, 22.34279
321.0571, 23.32392
321.5392, 23.71813
322.0213, 23.43621
322.5034, 22.86182
322.9855, 22.34515
323.4677, 21.87436
323.9498, 21.57377
324.4319, 21.46711
324.9140, 21.47687
325.3961, 21.57172
325.8782, 21.74956
326.3604, 22.05417
326.8425, 22.55625
327.3246, 23.20903
327.8067, 23.47242
328.2888, 22.92994
328.7709, 22.52912
329.2531, 22.70933
329.7352, 23.15559
330.2173, 23.26589
330.6994, 22.73177
331.1815, 21.88792
331.6636, 21.64194
332.1458, 22.82745
332.6279, 23.59739
333.1100, 23.73098
333.5921, 23.50472
334.0742, 23.13574
334.5563, 22.70104
335.0385, 22.22450
335.5206, 21.73445
336.0027, 21.17627
336.4848, 20.75850
336.9669, 20.30375
337.4490, 20.10216
337.9312, 20.51152
338.4133, 21.43722
338.8954, 22.38296
339.3775, 22.90152
339.8596, 22.97650
340.3417, 22.82255
340.8239, 22.08625
341.3060, 21.51698
341.7881, 21.52731
342.2702, 21.90281
342.7523, 22.17126
343.2344, 22.02869
343.7166, 21.57990
344.1987, 21.33651
344.6808, 21.57071
345.1629, 21.71066
345.6450, 21.74670
346.1271, 21.64589
346.6093, 21.25736
347.0914, 20.55227
347.5735, 19.83540
348.0556, 19.74710
348.5377, 20.91048
349.0198, 21.57485
349.5020, 21.55703
349.9841, 21.25407
350.4662, 20.80269
350.9483, 20.29547
351.4304, 19.90304
351.9125, 19.86033
352.3947, 20.26253
352.8768, 20.37567
353.3589, 19.75388
353.8410, 19.28759
354.3231, 19.46543
354.8052, 20.04288
355.2874, 20.42787
355.7695, 20.15852
356.2516, 19.42766
356.7337, 19.37468
357.2158, 20.79889
357.6979, 21.82444
358.1800, 22.04211
358.6621, 21.74900
359.1443, 21.15536
359.6264, 20.34403
360.1085, 19.56679
360.5906, 19.29962
361.0727, 19.71143
361.5548, 20.20949
362.0370, 21.17963
362.5191, 21.87944
363.0012, 21.54168
363.4833, 20.26661
363.9654, 19.07192
364.4475, 19.17462
364.9297, 20.68890
365.4118, 21.56547
365.8939, 21.31758
366.3760, 20.91888
366.8581, 20.62045
367.3402, 20.47440
367.8224, 20.57026
368.3045, 21.05807
368.7866, 21.74294
369.2687, 22.00984
369.7508, 21.66759
370.2329, 21.32083
370.7151, 21.22547
371.1972, 21.20263
371.6793, 21.05781
372.1614, 20.72489
372.6435, 20.35295
373.1256, 20.11344
373.6078, 20.01019
374.0899, 19.99950
374.5720, 20.24892
375.0541, 20.42401
375.5362, 20.20230
376.0183, 19.62114
376.5005, 19.08647
376.9826, 18.96509
377.4647, 19.11761
377.9468, 18.96688
378.4289, 18.30384
378.9110, 17.72849
379.3932, 17.64244
379.8753, 17.92198
380.3574, 18.39590
380.8395, 19.16069
381.3216, 19.95954
381.8037, 20.52789
382.2859, 20.86884
382.7680, 20.88322
383.2501, 20.25667
383.7322, 19.45455
384.2143, 19.30318
384.6964, 20.06226
385.1786, 20.60665
385.6607, 19.94279
386.1428, 18.56322
386.6249, 17.83910
387.1070, 18.20153
387.5891, 18.96407
388.0713, 19.38379
388.5534, 19.49460
389.0355, 19.55592
389.5176, 19.63282
389.9997, 19.67564
390.4818, 19.60990
390.9640, 19.43904
391.4461, 19.26869
391.9282, 19.16815
392.4103, 19.12921
392.8924, 19.09331
393.3745, 19.03374
393.8567, 19.00538
394.3388, 19.07509
394.8209, 19.18617
395.3030, 19.22669
395.7851, 19.15343
396.2672, 19.00117
396.7494, 18.81421
397.2315, 18.52013
397.7136, 18.37792
398.1957, 18.44500
398.6778, 18.63590
399.1599, 19.05814
399.6420, 19.62215
400.1241, 19.84599
400.6063, 19.21207
401.0884, 17.67409
401.5705, 16.81132
402.0526, 16.96458
402.5347, 17.30679
403.0168, 17.82292
403.4990, 18.31442
403.9811, 18.40863
404.4632, 17.91801
404.9453, 17.17261
405.4274, 16.99924
405.9095, 17.86649
406.3917, 18.53632
406.8738, 18.99581
407.3559, 19.24903
407.8380, 19.24511
408.3201, 19.01331
408.8022, 18.69171
409.2844, 18.41484
409.7665, 18.18982
410.2486, 17.89963
410.7307, 17.17293
411.2128, 16.80787
411.6949, 17.45473
412.1771, 18.53074
412.6592, 19.00897
413.1413, 18.28088
413.6234, 17.03314
414.1055, 16.87789
414.5876, 18.30129
415.0698, 19.33239
415.5519, 19.16649
416.0340, 18.66931
416.5161, 18.39223
416.9982, 18.40258
417.4803, 18.45696
417.9625, 18.39815
418.4446, 18.22114
418.9267, 17.78824
419.4088, 16.74915
419.8909, 16.09138
420.3730, 16.96025
420.8552, 18.61782
421.3373, 19.50341
421.8194, 18.66787
422.3015, 17.28141
422.7836, 16.86174
423.2657, 17.39441
423.7479, 17.60711
424.2300, 16.70164
424.7121, 15.47857
425.1942, 15.20202
425.6763, 16.00690
426.1584, 17.00375
426.6406, 18.11703
427.1227, 19.09098
427.6048, 19.35554
428.0869, 18.77731
428.5690, 18.04847
429.0511, 17.83257
429.5333, 18.12834
430.0154, 18.14158
430.4975, 17.32137
430.9796, 16.73443
431.4617, 17.34029
431.9438, 18.67691
432.4260, 19.47636
432.9081, 19.09074
433.3902, 18.01495
433.8723, 17.40753
434.3544, 17.50287
434.8365, 17.71400
435.3187, 18.20364
435.8008, 18.68213
436.2829, 18.82235
436.7650, 18.64514
437.2471, 18.51846
437.7292, 18.83587
438.2114, 19.62150
438.6935, 19.92669
439.1756, 19.35520
439.6577, 18.73456
440.1398, 18.13277
440.6219, 17.62964
441.1040, 17.37011
441.5862, 17.41421
442.0683, 17.55903
442.5504, 17.33911
443.0325, 16.45062
443.5146, 16.13591
443.9967, 17.18654
444.4789, 18.26326
444.9610, 18.64648
445.4431, 18.40065
445.9252, 18.00475
446.4073, 17.72680
446.8894, 17.57954
447.3716, 17.63968
447.8537, 17.98008
448.3358, 18.34652
448.8179, 18.82899
449.3000, 19.19270
449.7821, 19.07276
450.2643, 18.29763
450.7464, 17.49857
451.2285, 17.25852
451.7106, 17.48149
452.1927, 17.70756
452.6748, 17.85640
453.1570, 17.96623
453.6391, 18.06790
454.1212, 18.16183
454.6033, 18.24560
455.0854, 18.44079
455.5675, 18.53517
456.0497, 18.15522
456.5318, 17.41275
457.0139, 16.98715
457.4960, 17.27085
457.9781, 18.03817
458.4602, 18.76053
458.9424, 19.81142
459.4245, 20.09334
459.9066, 18.55395
460.3887, 16.63242
460.8708, 15.95390
461.3529, 16.66977
461.8351, 17.65722
462.3172, 17.82667
462.7993, 17.13469
463.2814, 16.96315
463.7635, 18.09855
464.2456, 18.81649
464.7278, 18.27509
465.2099, 17.19370
465.6920, 16.67626
466.1741, 17.13158
466.6562, 17.90944
467.1383, 17.76414
467.6205, 16.10794
468.1026, 15.36514
468.5847, 16.71784
469.0668, 18.01114
469.5489, 18.10123
470.0310, 17.29495
470.5132, 16.61347
470.9953, 16.76202
471.4774, 17.37752
471.9595, 17.42076
472.4416, 16.64700
472.9237, 16.21785
473.4059, 16.97164
473.8880, 18.00366
474.3701, 18.50127
474.8522, 18.36482
475.3343, 18.00962
475.8164, 17.49341
476.2986, 16.97577
476.7807, 16.94508
477.2628, 17.54354
477.7449, 18.15752
478.2270, 18.36166
478.7091, 18.18826
479.1913, 17.84726
479.6734, 16.98700
480.1555, 16.36338
480.6376, 16.59239
481.1197, 17.31752
481.6018, 17.78499
482.0839, 17.74508
482.5660, 17.44410
483.0482, 17.19071
483.5303, 16.95120
484.0124, 16.93225
484.4945, 17.37576
484.9766, 17.79856
485.4587, 17.89028
485.9409, 17.74964
486.4230, 17.67285
486.9051, 17.83458
487.3872, 18.11790
487.8693, 18.14602
488.3514, 17.56706
488.8336, 17.41088
489.3157, 18.23277
489.7978, 19.05518
490.2799, 19.13729
490.7620, 18.53305
491.2441, 17.84293
491.7263, 17.53467
492.2084, 17.54042
492.6905, 17.49409
493.1726, 17.26282
493.6547, 17.30121
494.1368, 18.34857
494.6190, 19.49087
495.1011, 19.66562
495.5832, 18.59348
496.0653, 17.32427
496.5474, 16.49884
497.0295, 16.10255
497.5117, 16.22761
497.9938, 17.01709
498.4759, 17.78243
498.9580, 17.89432
499.4401, 17.47129
499.9222, 17.20727
500.4044, 17.38348
500.8865, 17.47958
501.3686, 17.03171
501.8507, 16.33388
502.3328, 16.04521
502.8149, 16.40195
503.2971, 17.00352
503.7792, 17.28839
504.2613, 17.16877
504.7434, 17.02621
505.2255, 16.85771
505.7076, 16.67237
506.1898, 16.31686
506.6719, 15.96476
507.1540, 16.01176
507.6361, 16.68366
508.1182, 17.66982
508.6003, 18.27262
509.0825, 18.46912
509.5646, 18.34119
510.0467, 17.54613
510.5288, 16.72840
511.0109, 16.14926
511.4930, 15.84759
511.9752, 15.84992
512.4573, 16.37696
512.9394, 17.09010
513.4215, 17.08158
513.9036, 16.20478
514.3857, 15.52989
514.8679, 15.46629
515.3500, 15.82823
515.8321, 16.51824
516.3142, 17.62480
516.7963, 18.21769
517.2784, 17.27031
517.7606, 15.86653
518.2427, 15.75201
518.7248, 17.00851
519.2069, 18.15150
519.6890, 18.18885
520.1711, 17.31549
520.6533, 16.48340
521.1354, 15.18898
521.6175, 14.57843
522.0996, 15.41250
522.5817, 16.69083
523.0638, 17.49327
523.5460, 17.63032
524.0281, 17.27967
524.5102, 16.49075
524.9923, 15.29638
525.4744, 14.88623
525.9565, 16.03784
526.4387, 16.98672
526.9208, 17.27684
527.4029, 17.25309
527.8850, 17.24941
528.3671, 17.35756
528.8492, 17.52488
529.3314, 17.81635
529.8135, 18.18427
530.2956, 18.04656
530.7777, 17.03360
531.2598, 16.21776
531.7419, 16.64620
532.2241, 17.63292
532.7062, 18.03185
533.1883, 17.37902
533.6704, 16.63288
534.1525, 16.50834
534.6346, 16.77263
535.1168, 16.83841
535.5989, 16.55579
536.0810, 16.26400
536.5631, 16.34457
537.0452, 16.82042
537.5273, 17.03960
538.0095, 16.64146
538.4916, 16.41312
538.9737, 16.89350
539.4558, 17.64425
539.9379, 17.91503
540.4200, 17.49240
540.9022, 16.92345
541.3843, 17.01681
541.8664, 17.93607
542.3485, 18.59165
542.8306, 18.72678
543.3127, 18.86165
543.7948, 19.23836
544.2769, 19.69449
544.7590, 20.00375
545.2411, 20.09602
545.7233, 19.94508
546.2054, 19.33895
546.6875, 18.32972
547.1696, 17.73747
547.6517, 17.74479
548.1339, 18.07641
548.6160, 18.72843
549.0981, 19.54735
549.5802, 20.07619
550.0623, 20.13104
550.5444, 19.97635
551.0266, 19.69800
551.5087, 19.34486
551.9908, 18.98989
552.4729, 18.64898
552.9550, 18.43179
553.4371, 18.48349
553.9193, 18.84076
554.4014, 19.26870
554.8835, 20.22798
555.3656, 20.74368
555.8477, 20.12181
556.3298, 18.94567
556.8120, 18.10534
557.2941, 17.91626
557.7762, 17.98228
558.2583, 17.68450
558.7404, 16.94401
559.2225, 16.51597
559.7047, 16.52757
560.1868, 16.73610
560.6689, 17.14511
561.1510, 17.62137
561.6331, 17.96078
562.1152, 18.12222
562.5974, 18.07069
563.0795, 17.67915
563.5616, 17.03420
564.0437, 16.42064
564.5258, 15.86997
565.0079, 15.45764
565.4901, 15.23344
565.9722, 15.21829
566.4543, 15.44110
566.9364, 16.17871
567.4185, 16.83591
567.9006, 17.15470
568.3828, 17.26717
568.8649, 17.45502
569.3470, 17.75494
569.8291, 17.77929
570.3112, 16.91814
570.7933, 15.05481
571.2755, 14.39509
571.7576, 16.17285
572.2397, 17.63354
572.7218, 18.00384
573.2039, 17.78407
573.6860, 17.50617
574.1682, 17.30793
574.6503, 17.11985
575.1324, 16.75472
575.6145, 16.31935
576.0966, 16.36501
576.5787, 17.03819
577.0609, 17.75419
577.5430, 18.23031
578.0251, 18.46753
578.5072, 18.50096
578.9893, 18.28085
579.4714, 17.97042
579.9536, 17.45547
580.4357, 16.97631
580.9178, 16.89291
581.3999, 17.20591
581.8820, 17.58395
582.3641, 17.78446
582.8463, 17.82752
583.3284, 17.83834
583.8105, 17.96322
584.2926, 17.82692
584.7747, 17.03336
585.2568, 16.25959
585.7390, 16.14814
586.2211, 16.61540
586.7032, 17.00091
587.1853, 16.74805
587.6674, 16.13922
588.1495, 15.96076
588.6317, 16.26771
589.1138, 16.69743
589.5959, 17.36362
590.0780, 17.87591
590.5601, 17.58381
591.0422, 16.50463
591.5244, 15.92516
592.0065, 16.76662
592.4886, 17.86033
592.9707, 18.15783
593.4528, 17.77571
593.9349, 17.19987
594.4171, 16.62009
594.8992, 16.13153
595.3813, 15.89571
595.8634, 15.92803
596.3455, 16.18914
596.8276, 17.12064
597.3098, 17.78708
597.7919, 17.52169
598.2740, 16.79367
598.7561, 16.48467
599.2382, 16.97219
599.7203, 17.62040
600.2025, 17.47201
600.6846, 16.55473
601.1667, 15.91680
601.6488, 15.67274
602.1309, 15.69947
602.6130, 16.14919
603.0952, 16.78236
603.5773, 17.05630
604.0594, 16.63836
604.5415, 16.35824
605.0236, 17.01422
605.5057, 17.93329
605.9879, 17.79546
606.4700, 16.51148
606.9521, 15.51767
607.4342, 16.12263
607.9163, 18.02875
608.3984, 18.96780
608.8806, 17.97487
609.3627, 17.30510
609.8448, 17.37500
610.3269, 17.65632
610.8090, 17.80339
611.2911, 17.76015
611.7733, 17.56750
612.2554, 17.18545
612.7375, 16.73458
613.2196, 16.43897
613.7017, 16.28129
614.1838, 16.52502
614.6660, 17.58198
615.1481, 18.67249
615.6302, 18.76398
616.1123, 17.93467
616.5944, 17.22799
617.0765, 16.78407
617.5587, 16.59572
618.0408, 16.80337
618.5229, 17.24607
619.0050, 17.55715
619.4871, 17.61172
619.9692, 17.64454
620.4514, 18.06162
620.9335, 19.02163
621.4156, 19.14770
621.8977, 17.31390
622.3798, 15.97137
622.8619, 15.91497
623.3441, 16.58877
623.8262, 17.53837
624.3083, 18.62480
624.7904, 19.38280
625.2725, 19.13795
625.7546, 18.28759
626.2367, 18.02035
626.7188, 18.45127
627.2009, 18.77434
627.6830, 18.51086
628.1652, 17.92420
628.6473, 17.62477
629.1294, 17.69096
629.6115, 17.73051
630.0936, 17.64950
630.5757, 17.55434
631.0579, 17.51779
631.5400, 17.53350
632.0221, 17.55988
632.5042, 17.57483
632.9863, 17.60870
633.4684, 17.78243
633.9506, 18.19694
634.4327, 18.22866
634.9148, 17.51680
635.3969, 16.83341
635.8790, 16.50605
636.3611, 16.47324
636.8433, 16.66731
637.3254, 17.14102
637.8075, 17.61142
638.2896, 18.00171
638.7717, 18.20888
639.2538, 17.85666
639.7360, 16.92535
640.2181, 16.19823
640.7002, 16.27059
641.1823, 16.94281
641.6644, 17.40518
642.1465, 17.59911
642.6287, 17.64159
643.1108, 17.46724
643.5929, 17.20080
644.0750, 16.83388
644.5571, 16.44672
645.0392, 16.18109
645.5214, 16.09085
646.0035, 16.24714
646.4856, 16.94596
646.9677, 18.18358
647.4498, 19.00248
647.9319, 19.18379
648.4141, 19.01688
648.8962, 18.60551
649.3783, 18.01929
649.8604, 17.53354
650.3425, 17.14816
650.8246, 16.89477
651.3068, 16.74506
651.7889, 16.75716
652.2710, 17.18061
652.7531, 17.93015
653.2352, 18.40584
653.7173, 18.08442
654.1995, 17.20598
654.6816, 16.81536
655.1637, 17.19431
655.6458, 17.38898
656.1279, 16.98706
656.6100, 16.58061
657.0922, 16.47009
657.5743, 16.64402
658.0564, 17.02295
658.5385, 17.78173
659.0206, 18.44605
659.5027, 18.38502
659.9849, 17.86746
660.4670, 17.69850
660.9491, 18.07055
661.4312, 18.55878
661.9133, 18.76034
662.3954, 18.70932
662.8776, 18.88532
663.3597, 19.85745
663.8418, 20.30253
664.3239, 19.67686
664.8060, 18.79048
665.2881, 18.20894
665.7703, 18.00034
666.2524, 18.06694
666.7345, 18.47935
667.2166, 18.92904
667.6987, 18.73634
668.1808, 17.92290
668.6630, 17.28259
669.1451, 16.97644
669.6272, 16.95989
670.1093, 17.32424
670.5914, 18.02018
671.0735, 18.41572
671.5557, 18.26660
672.0378, 18.10317
672.5199, 18.26500
673.0020, 18.39942
673.4841, 17.91185
673.9662, 16.88826
674.4484, 16.13972
674.9305, 16.34573
675.4126, 17.20863
675.8947, 17.73941
676.3768, 17.87255
676.8589, 17.96826
677.3411, 18.15960
677.8232, 18.25977
678.3053, 18.02355
678.7874, 17.56232
679.2695, 17.29189
679.7516, 17.44702
680.2338, 17.63801
680.7159, 17.59084
681.1980, 17.44843
681.6801, 17.51742
682.1622, 17.80567
682.6443, 17.91716
683.1265, 17.47799
683.6086, 16.65499
684.0907, 16.26235
684.5728, 16.42998
685.0549, 16.74540
685.5370, 17.31620
686.0192, 17.87698
686.5013, 18.26436
686.9834, 18.51361
687.4655, 18.79029
687.9476, 19.33309
688.4297, 19.59541
688.9119, 18.68522
689.3940, 17.19169
689.8761, 16.57568
690.3582, 17.07852
690.8403, 17.88994
691.3224, 18.45681
691.8046, 18.75845
692.2867, 18.68597
692.7688, 17.85382
693.2509, 17.26495
693.7330, 17.20975
694.2151, 17.16495
694.6973, 16.58064
695.1794, 15.76794
695.6615, 15.56564
696.1436, 16.45778
696.6257, 17.63876
697.1078, 18.35232
697.5900, 18.62399
698.0721, 18.37285
698.5542, 17.53555
699.0363, 17.01186
699.5184, 17.57128
700.0005, 18.79181
700.4827, 19.16913
700.9648, 17.76918
701.4469, 17.04763
701.9290, 17.71687
702.4111, 18.43035
702.8932, 18.35638
703.3754, 17.70861
703.8575, 16.92847
704.3396, 16.16730
704.8217, 15.79142
705.3038, 16.64005
705.7859, 18.34854
706.2681, 19.01321
706.7502, 18.33833
707.2323, 17.63741
707.7144, 17.62280
708.1965, 18.05999
708.6786, 18.47134
709.1607, 19.00514
709.6428, 19.08699
710.1249, 18.05182
710.6071, 17.18040
711.0892, 17.41337
711.5713, 18.24985
712.0534, 18.80077
712.5355, 18.76712
713.0176, 18.48173
713.4998, 18.26747
713.9819, 18.11828
714.4640, 17.99641
714.9461, 17.90090
715.4282, 17.83970
715.9103, 17.81669
716.3925, 17.83031
716.8746, 17.88506
717.3567, 17.98361
717.8388, 18.09007
718.3209, 18.14667
718.8030, 18.27027
719.2852, 18.63154
719.7673, 19.04053
720.2494, 19.24357
720.7315, 19.18415
721.2136, 18.97169
721.6957, 18.66874
722.1779, 18.30895
722.6600, 17.96438
723.1421, 17.60327
723.6242, 17.55567
724.1063, 18.07509
724.5884, 18.69261
725.0706, 18.93467
725.5527, 18.81588
726.0348, 18.52287
726.5169, 17.56505
726.9990, 17.04924
727.4811, 17.85290
727.9633, 18.96445
728.4454, 19.18907
728.9275, 18.54385
729.4096, 17.90972
729.8917, 17.88425
730.3738, 18.24649
730.8560, 18.55717
731.3381, 18.81424
731.8202, 19.07000
732.3023, 19.32842
732.7844, 19.61302
733.2665, 20.12885
733.7487, 20.66431
734.2308, 20.42233
734.7129, 18.64357
735.1950, 17.53083
735.6771, 18.23761
736.1592, 19.17223
736.6414, 18.98565
737.1235, 17.97042
737.6056, 17.09417
738.0877, 16.78633
738.5698, 16.82391
739.0519, 16.93362
739.5341, 17.11640
740.0162, 17.46405
740.4983, 18.07482
740.9804, 18.36697
741.4625, 17.86850
741.9446, 17.04480
742.4268, 16.77711
742.9089, 17.15550
743.3910, 17.54504
743.8731, 18.10880
744.3552, 18.44164
744.8373, 17.97519
745.3195, 17.32267
745.8016, 17.47404
746.2837, 18.56999
746.7658, 19.72646
747.2479, 20.18411
747.7300, 20.10415
748.2122, 19.88035
748.6943, 19.51116
749.1764, 19.01356
749.6585, 18.31147
750.1406, 17.68742
750.6227, 17.37835
751.1049, 17.39463
751.5870, 17.82767
752.0691, 19.52468
752.5512, 20.46340
753.0333, 19.68941
753.5154, 18.48814
753.9976, 17.87518
754.4797, 17.83170
754.9618, 17.79793
755.4439, 17.41223
755.9260, 17.19423
756.4081, 18.26310
756.8903, 20.14848
757.3724, 20.67348
757.8545, 19.50345
758.3366, 18.28452
758.8187, 18.07156
759.3008, 18.42612
759.7830, 18.20730
760.2651, 16.84033
760.7472, 16.27332
761.2293, 17.05451
761.7114, 17.96589
762.1935, 18.74416
762.6757, 19.25016
763.1578, 19.16397
763.6399, 18.45457
764.1220, 17.98157
764.6041, 18.74736
765.0862, 19.89944
765.5684, 19.97132
766.0505, 19.18393
766.5326, 18.72579
767.0147, 18.98404
767.4968, 19.53965
767.9789, 19.95916
768.4611, 20.24525
768.9432, 20.40489
769.4253, 20.50104
769.9074, 20.35593
770.3895, 19.56388
770.8716, 18.86295
771.3538, 18.99088
771.8359, 19.64779
772.3180, 19.73130
772.8001, 18.36135
773.2822, 17.43128
773.7643, 19.03444
774.2465, 21.47516
774.7286, 22.12048
775.2107, 20.96869
775.6928, 19.53398
776.1749, 18.61955
776.6570, 18.21586
777.1392, 18.44946
777.6213, 19.47245
778.1034, 19.97870
778.5855, 19.61238
779.0676, 19.41410
779.5497, 20.28382
780.0319, 21.29742
780.5140, 21.02832
780.9961, 19.32800
781.4782, 18.26896
781.9603, 18.91188
782.4424, 19.73152
782.9246, 19.83856
783.4067, 19.56315
783.8888, 19.43588
784.3709, 19.54727
784.8530, 19.63640
785.3351, 19.47962
785.8173, 19.18209
786.2994, 18.91118
786.7815, 18.66701
787.2636, 19.00819
787.7457, 20.32250
788.2278, 21.24597
788.7100, 20.42866
789.1921, 18.46316
789.6742, 17.75454
790.1563, 19.29187
790.6384, 20.20262
791.1205, 19.84091
791.6026, 19.31499
792.0847, 19.28488
792.5668, 19.50683
793.0490, 19.47587
793.5311, 19.04813
794.0132, 18.57827
794.4953, 18.25122
794.9774, 18.12431
795.4595, 18.45039
795.9417, 19.12960
796.4238, 19.56079
796.9059, 19.54239
797.3880, 19.30428
797.8701, 19.05653
798.3522, 18.81381
798.8344, 18.84604
799.3165, 19.32532
799.7986, 19.74777
800.2807, 20.12253
800.7628, 20.33410
801.2449, 20.17109
801.7271, 19.78989
802.2092, 19.62636
802.6913, 19.87842
803.1734, 20.11361
803.6555, 20.02836
804.1376, 19.87329
804.6198, 19.97064
805.1019, 20.24445
805.5840, 20.36764
806.0661, 20.20346
806.5482, 20.04168
807.0303, 20.36367
807.5125, 21.08791
807.9946, 21.39866
808.4767, 21.23836
808.9588, 20.97677
809.4409, 20.67578
809.9230, 20.42607
810.4052, 20.40671
810.8873, 20.61332
811.3694, 20.48483
811.8515, 19.43695
812.3336, 18.85192
812.8157, 19.48061
813.2979, 20.27714
813.7800, 20.39225
814.2621, 19.94089
814.7442, 19.39784
815.2263, 18.89516
815.7084, 18.70476
816.1906, 19.45231
816.6727, 20.58475
817.1548, 20.69510
817.6369, 19.89155
818.1190, 19.81666
818.6011, 21.27684
819.0833, 22.97931
819.5654, 22.93514
820.0475, 21.05533
820.5296, 20.02157
821.0117, 20.38686
821.4938, 20.42994
821.9760, 18.90265
822.4581, 17.60480
822.9402, 18.54893
823.4223, 21.15339
823.9044, 22.62914
824.3865, 21.71452
824.8687, 20.71211
825.3508, 20.63858
825.8329, 20.78805
826.3150, 20.44508
826.7971, 19.70700
827.2792, 18.95693
827.7614, 18.35627
828.2435, 18.11894
828.7256, 18.85312
829.2077, 20.17237
829.6898, 20.41500
830.1719, 19.54208
830.6541, 18.92684
831.1362, 19.12964
831.6183, 19.57990
832.1004, 19.58998
832.5825, 19.16826
833.0646, 18.90667
833.5468, 18.70955
834.0289, 18.83689
834.5110, 19.65977
834.9931, 20.47492
835.4752, 20.89777
835.9573, 20.95611
836.4395, 20.74073
836.9216, 20.16278
837.4037, 19.69184
837.8858, 19.65390
838.3679, 19.78396
838.8500, 19.91098
839.3322, 19.95409
839.8143, 19.70472
840.2964, 19.12037
840.7785, 18.56305
841.2606, 18.48831
841.7427, 18.74690
842.2249, 18.64599
842.7070, 18.15410
843.1891, 18.11734
843.6712, 18.84494
844.1533, 19.74965
844.6354, 20.40917
845.1176, 20.81082
845.5997, 20.87711
846.0818, 20.22132
846.5639, 19.84374
847.0460, 19.81799
847.5281, 19.97897
848.0103, 20.38395
848.4924, 20.86763
848.9745, 21.21011
849.4566, 21.36822
849.9387, 21.41442
850.4208, 21.41072
850.9030, 21.28970
851.3851, 20.99073
851.8672, 20.52900
852.3493, 19.66752
852.8314, 18.54012
853.3135, 18.16440
853.7957, 19.48093
854.2778, 21.52743
854.7599, 22.01418
855.2420, 20.97668
855.7241, 20.03906
856.2062, 19.32941
856.6884, 18.95560
857.1705, 19.10108
857.6526, 19.45249
858.1347, 19.36480
858.6168, 18.60740
859.0989, 18.46341
859.5811, 19.59953
860.0632, 20.47009
860.5453, 20.73536
861.0274, 20.58291
861.5095, 19.91778
861.9916, 18.95115
862.4738, 18.48273
862.9559, 19.05245
863.4380, 19.66880
863.9201, 19.47004
864.4022, 19.11121
864.8843, 19.58529
865.3665, 20.65236
865.8486, 21.30804
866.3307, 21.13438
866.8128, 20.63550
867.2949, 20.47048
867.7770, 20.50623
868.2592, 19.93474
868.7413, 18.73927
869.2234, 18.40288
869.7055, 19.52549
870.1876, 20.81273
870.6697, 21.05674
871.1519, 20.42538
871.6340, 19.83786
872.1161, 19.19747
872.5981, 18.78716
873.0803, 18.67794
873.5624, 18.74627
874.0445, 19.07812
874.5266, 19.49609
875.0087, 19.71970
875.4908, 19.69810
875.9730, 19.77010
876.4551, 20.24517
876.9372, 20.63603
877.4193, 20.65897
877.9014, 20.40479
878.3835, 19.89380
878.8657, 19.22509
879.3478, 18.65289
879.8299, 18.30081
880.3120, 18.22600
880.7941, 18.80443
881.2762, 19.70111
881.7584, 19.57591
882.2405, 18.44222
882.7226, 17.87225
883.2047, 18.62125
883.6868, 19.77728
884.1689, 20.09315
884.6511, 19.59649
885.1332, 19.11289
885.6153, 18.56170
886.0974, 18.24039
886.5795, 18.16943
887.0616, 18.39788
887.5438, 19.44415
888.0259, 20.79421
888.5080, 20.78324
888.9901, 18.47160
889.4722, 16.96920
889.9543, 17.38611
890.4365, 17.98176
890.9186, 17.72173
891.4007, 17.14645
891.8828, 17.11481
892.3649, 17.69969
892.8470, 18.21260
893.3292, 18.15531
893.8113, 18.00093
894.2934, 18.23292
894.7755, 18.67053
895.2576, 19.11321
895.7397, 19.45814
896.2219, 19.37506
896.7040, 18.67537
897.1861, 17.89899
897.6682, 18.06297
898.1503, 18.97289
898.6324, 18.88609
899.1146, 17.70988
899.5967, 16.94824
900.0788, 17.17080
900.5609, 17.51263
901.0430, 17.03773
901.5251, 17.16911
902.0073, 17.24965
902.4894, 16.69257
902.9715, 17.22139
903.4536, 16.69610
903.9357, 16.12750
904.4178, 16.09330
904.9000, 16.21659
905.3821, 15.85202
905.8642, 14.90872
906.3463, 14.41704
906.8284, 14.91214
907.3105, 15.56568
907.7927, 16.09307
908.2748, 16.51887
908.7569, 16.82737
909.2390, 17.07185
909.7211, 17.44874
910.2032, 18.09882
910.6854, 18.56139
911.1675, 18.17922
911.6496, 17.46742
912.1317, 17.25931
912.6138, 17.49568
913.0959, 17.93829
913.5781, 18.46881
914.0602, 18.62504
914.5423, 17.85301
915.0244, 16.58331
915.5065, 16.24759
915.9886, 16.85595
916.4708, 16.93124
916.9529, 16.15324
917.4350, 15.65510
917.9171, 16.20387
918.3992, 17.11561
918.8813, 17.12400
919.3635, 16.04617
919.8456, 15.46749
920.3277, 15.50112
920.8098, 15.85015
921.2919, 17.12218
921.7740, 18.08573
922.2562, 17.43745
922.7383, 15.79294
923.2204, 15.05884
923.7025, 15.84601
924.1846, 16.53231
924.6667, 16.69063
925.1489, 16.66547
925.6310, 16.54040
926.1131, 16.42634
926.5952, 16.56137
927.0773, 16.89954
927.5594, 16.91667
928.0416, 15.94941
928.5237, 15.16869
929.0058, 16.15245
929.4879, 17.75328
929.9700, 18.05488
930.4521, 17.17482
930.9343, 16.20056
931.4164, 15.61144
931.8985, 15.46141
932.3806, 15.98519
932.8627, 16.93526
933.3448, 17.49292
933.8270, 17.68810
934.3091, 17.88560
934.7912, 18.16959
935.2733, 18.29535
935.7554, 18.05312
936.2375, 17.62750
936.7197, 17.50838
937.2018, 17.80518
937.6839, 17.71994
938.1660, 16.97555
938.6481, 16.57790
939.1302, 17.12355
939.6124, 17.81071
940.0945, 17.71343
940.5766, 16.94808
941.0587, 16.61592
941.5408, 17.45127
942.0229, 17.57883
942.5051, 15.95898
942.9872, 14.65990
943.4693, 15.07839
943.9514, 16.22363
944.4335, 16.70898
944.9156, 16.37667
945.3978, 15.98754
945.8799, 15.83786
946.3620, 15.65054
946.8441, 15.13377
947.3262, 14.62744
947.8083, 14.36250
948.2905, 14.43659
948.7726, 15.09045
949.2547, 16.42185
949.7368, 17.69347
950.2189, 18.44960
950.7010, 18.67962
951.1832, 18.14939
951.6653, 17.13297
952.1474, 16.13789
952.6295, 15.33921
953.1116, 15.04987
953.5938, 15.52219
954.0759, 16.24255
954.5580, 16.28162
955.0400, 15.79094
955.5222, 15.54319
956.0043, 15.56681
956.4864, 15.95861
956.9685, 16.82426
957.4506, 17.30243
957.9327, 16.39691
958.4149, 14.60008
958.8970, 14.16790
959.3791, 15.47864
959.8612, 16.19683
960.3433, 15.94886
960.8254, 15.68484
961.3076, 15.89180
961.7897, 16.23639
962.2718, 16.24755
962.7539, 15.91728
963.2360, 15.68701
963.7181, 15.42758
964.2003, 15.47411
964.6824, 16.25987
965.1645, 16.92358
965.6466, 16.93036
966.1287, 16.54503
966.6108, 16.15669
967.0930, 15.77188
967.5751, 15.68329
968.0572, 16.36361
968.5393, 16.83286
969.0214, 16.51537
969.5035, 15.96987
969.9857, 15.54386
970.4678, 15.36430
970.9499, 15.69833
971.4320, 16.72249
971.9141, 17.51860
972.3962, 17.40045
972.8784, 16.96897
973.3605, 16.71880
973.8426, 16.53138
974.3247, 16.04275
974.8068, 15.34743
975.2889, 15.07462
975.7711, 15.63546
976.2532, 16.38147
976.7353, 16.49374
977.2174, 16.34153
977.6995, 16.78607
978.1816, 17.59790
978.6638, 17.75595
979.1459, 17.04411
979.6280, 16.26431
980.1101, 16.06955
980.5922, 16.19622
981.0743, 16.18898
981.5565, 16.03176
982.0386, 15.48707
982.5207, 14.56111
983.0028, 13.94568
983.4849, 13.90994
983.9670, 14.31439
984.4492, 15.09118
984.9313, 16.09524
985.4134, 16.62758
985.8955, 16.64002
986.3776, 16.46848
986.8597, 16.03879
987.3419, 15.86639
987.8240, 16.32206
988.3061, 16.93776
988.7882, 17.04027
989.2703, 16.63196
989.7524, 16.19071
990.2346, 15.47442
990.7167, 15.29591
991.1988, 16.20156
991.6809, 17.02688
992.1630, 16.98905
992.6451, 16.52215
993.1273, 16.43803
993.6094, 16.82632
994.0915, 16.93808
994.5736, 16.60375
995.0557, 16.21438
995.5378, 15.41384
996.0200, 14.99834
996.5021, 15.95370
996.9842, 17.54300
997.4663, 18.25734
997.9484, 17.80707
998.4305, 17.16243
998.9127, 16.31086
999.3948, 15.62791
999.8769, 15.30553
1000.359, 15.20628
1000.841, 15.31829
1001.323, 15.52288
1001.805, 15.47946
1002.287, 15.00800
1002.770, 14.93680
1003.252, 16.34781
1003.734, 17.60867
1004.216, 17.21881
1004.698, 16.14807
1005.180, 15.77293
1005.662, 16.05223
1006.144, 16.03208
1006.627, 15.23875
1007.109, 14.54553
1007.591, 14.88015
1008.073, 15.53344
1008.555, 15.59655
1009.037, 15.36367
1009.519, 15.54168
1010.001, 16.15731
1010.483, 16.61506
1010.966, 16.53646
1011.448, 16.43240
1011.930, 17.22831
1012.412, 18.26838
1012.894, 18.07805
1013.376, 16.97603
1013.858, 16.12159
1014.340, 15.78734
1014.823, 15.67793
1015.305, 15.59739
1015.787, 15.56417
1016.269, 15.73168
1016.751, 15.96625
1017.233, 15.59046
1017.715, 14.69895
1018.197, 14.21646
1018.679, 14.39996
1019.162, 14.79904
1019.644, 15.05424
1020.126, 15.25450
1020.608, 15.72306
1021.090, 16.40312
1021.572, 16.38968
1022.054, 15.62179
1022.536, 15.19447
1023.018, 15.50394
1023.501, 15.79282
1023.983, 15.30566
1024.465, 14.42464
1024.947, 14.45768
1025.429, 15.51389
1025.911, 16.18398
1026.393, 16.39400
1026.875, 16.33655
1027.358, 16.02525
1027.840, 15.60165
1028.322, 15.11409
1028.804, 14.70216
1029.286, 15.07579
1029.768, 16.60349
1030.250, 17.36319
1030.732, 17.14590
1031.214, 16.58239
1031.697, 15.71938
1032.179, 14.89201
1032.661, 14.42215
1033.143, 14.27961
1033.625, 14.30242
1034.107, 14.42471
1034.589, 14.92245
1035.071, 16.19014
1035.553, 17.11908
1036.036, 17.25306
1036.518, 16.94613
1037.000, 16.35732
1037.482, 15.60811
1037.964, 15.42957
1038.446, 16.29266
1038.928, 16.80284
1039.410, 16.84834
1039.893, 16.68760
1040.375, 16.06816
1040.857, 15.54713
1041.339, 15.90816
1041.821, 16.91500
1042.303, 17.24909
1042.785, 16.34477
1043.267, 15.83015
1043.750, 16.09813
1044.232, 16.35750
1044.714, 16.40670
1045.196, 16.26327
1045.678, 15.66033
1046.160, 14.83529
1046.642, 14.90134
1047.124, 16.65311
1047.606, 17.72676
1048.089, 17.23156
1048.571, 16.71849
1049.053, 16.95426
1049.535, 17.35174
1050.017, 17.41085
1050.499, 17.10156
1050.981, 16.37700
1051.463, 14.75569
1051.945, 14.01343
1052.428, 15.39824
1052.910, 16.68083
1053.392, 16.63988
1053.874, 16.18343
1054.356, 16.27550
1054.838, 16.79902
1055.320, 17.09713
1055.802, 17.02543
1056.285, 16.76762
1056.767, 16.19153
1057.249, 15.66363
1057.731, 15.32486
1058.213, 15.15241
1058.695, 15.21122
1059.177, 15.39843
1059.659, 15.42395
1060.141, 15.18013
1060.624, 14.96949
1061.106, 14.89395
1061.588, 14.88025
1062.070, 14.86397
1062.552, 14.91250
1063.034, 15.13863
1063.516, 15.48137
1063.998, 15.81423
1064.480, 16.13745
1064.963, 16.21025
1065.445, 15.57132
1065.927, 15.10554
1066.409, 15.46820
1066.891, 16.06478
1067.373, 16.39262
1067.855, 16.44196
1068.337, 16.31848
1068.820, 16.04002
1069.302, 15.74043
1069.784, 15.31502
1070.266, 15.08386
1070.748, 15.31535
1071.230, 15.72783
1071.712, 16.30502
1072.194, 16.77603
1072.677, 16.47563
1073.159, 15.28960
1073.641, 14.54932
1074.123, 15.45789
1074.605, 16.15612
1075.087, 15.40436
1075.569, 14.30275
1076.051, 13.49994
1076.533, 13.20180
1077.016, 13.96453
1077.498, 15.71953
1077.980, 16.59977
1078.462, 15.02855
1078.944, 13.56659
1079.426, 13.54056
1079.908, 14.03055
1080.390, 14.42360
1080.872, 14.74619
1081.354, 15.18181
1081.837, 15.72479
1082.319, 16.15133
1082.801, 16.52930
1083.283, 16.48022
1083.765, 15.22309
1084.247, 14.10152
1084.729, 14.40750
1085.211, 15.27381
1085.694, 15.39536
1086.176, 14.78999
1086.658, 14.47191
1087.140, 14.88979
1087.622, 15.29672
1088.104, 15.36413
1088.586, 15.33886
1089.068, 15.38961
1089.551, 15.42610
1090.033, 15.21764
1090.515, 14.88865
1090.997, 14.94100
1091.479, 15.63364
1091.961, 16.13540
1092.443, 16.24064
1092.925, 15.94700
1093.407, 14.77801
1093.890, 13.60007
1094.372, 13.21328
1094.854, 13.52333
1095.336, 14.23131
1095.818, 15.34645
1096.300, 16.14029
1096.782, 16.32124
1097.264, 16.21972
1097.746, 15.77070
1098.229, 15.27752
1098.711, 14.88861
1099.193, 14.66414
1099.675, 14.70353
1100.157, 15.01993
1100.639, 15.38373
1101.121, 16.02408
1101.603, 16.29429
1102.086, 15.60158
1102.568, 14.93594
1103.050, 15.16678
1103.532, 15.65723
1104.014, 15.35083
1104.496, 14.28099
1104.978, 13.64053
1105.460, 13.82277
1105.943, 14.11729
1106.425, 14.54283
1106.907, 14.90265
1107.389, 15.02640
1107.871, 15.10484
1108.353, 15.50046
1108.835, 16.06053
1109.317, 15.97580
1109.799, 14.57122
1110.281, 14.05203
1110.764, 15.56693
1111.246, 16.66808
1111.728, 16.57276
1112.210, 15.88795
1112.692, 14.65511
1113.174, 13.28368
1113.656, 12.89191
1114.138, 13.76405
1114.621, 14.33166
1115.103, 14.44156
1115.585, 14.49868
1116.067, 14.69018
1116.549, 14.66058
1117.031, 13.88958
1117.513, 13.02147
1117.995, 13.24446
1118.478, 14.57673
1118.960, 15.20714
1119.442, 14.80907
1119.924, 14.49302
1120.406, 14.49178
1120.888, 14.23139
1121.370, 13.11870
1121.852, 12.20779
1122.334, 12.90068
1122.817, 14.81085
1123.299, 15.81112
1123.781, 15.73807
1124.263, 15.37395
1124.745, 14.58918
1125.227, 14.03330
1125.709, 13.87645
1126.191, 14.12354
1126.673, 14.86405
1127.156, 15.86238
1127.638, 16.60113
1128.120, 17.08508
1128.602, 17.02270
1129.084, 16.36894
1129.566, 15.51699
1130.048, 14.47907
1130.530, 13.95631
1131.013, 14.43280
1131.495, 15.22073
1131.977, 15.28257
1132.459, 14.78007
1132.941, 14.39615
1133.423, 14.15372
1133.905, 14.58952
1134.387, 15.71199
1134.870, 16.40158
1135.352, 16.21691
1135.834, 15.84042
1136.316, 15.94318
1136.798, 16.24232
1137.280, 16.14658
1137.762, 15.73312
1138.244, 15.21330
1138.726, 14.63368
1139.208, 14.08295
1139.691, 13.60995
1140.173, 13.39243
1140.655, 13.54836
1141.137, 13.92502
1141.619, 14.59500
1142.101, 15.17713
1142.583, 14.65506
1143.065, 13.62119
1143.548, 13.45119
1144.030, 14.15204
1144.512, 15.02804
1144.994, 15.78858
1145.476, 16.25045
1145.958, 16.15852
1146.440, 15.84307
1146.922, 15.63985
1147.405, 15.40786
1147.887, 14.73375
1148.369, 13.97254
1148.851, 14.03404
1149.333, 14.92031
1149.815, 15.48015
1150.297, 15.08514
1150.779, 14.50405
1151.261, 13.95884
1151.744, 13.64437
1152.226, 13.88833
1152.708, 14.31209
1153.190, 14.33975
1153.672, 14.14566
1154.154, 14.48517
1154.636, 15.65153
1155.118, 16.46445
1155.600, 16.52857
1156.083, 16.25193
1156.565, 15.30468
1157.047, 14.54645
1157.529, 14.83457
1158.011, 15.57019
1158.493, 15.64987
1158.975, 15.04082
1159.457, 14.96803
1159.940, 16.23312
1160.422, 16.83525
1160.904, 16.17073
1161.386, 15.63809
1161.868, 15.92043
1162.350, 16.26007
1162.832, 15.81532
1163.314, 16.14240
1163.796, 16.27955
1164.279, 16.06770
1164.761, 16.09275
1165.243, 16.11769
1165.725, 15.67888
1166.207, 15.33799
1166.689, 15.00904
1167.171, 14.62924
1167.653, 14.26857
1168.135, 14.01002
1168.618, 13.86638
1169.100, 13.92471
1169.582, 14.18311
1170.064, 14.61102
1170.546, 15.19551
1171.028, 15.42620
1171.510, 15.13294
1171.992, 14.61163
1172.474, 14.03843
1172.957, 13.69331
1173.439, 14.31092
1173.921, 15.47270
1174.403, 15.91659
1174.885, 15.80213
1175.367, 15.68466
1175.849, 15.67719
1176.331, 15.79910
1176.814, 16.04919
1177.296, 16.19741
1177.778, 16.05008
1178.260, 15.68286
1178.742, 14.89489
1179.224, 14.15558
1179.706, 14.33462
1180.188, 14.98560
1180.671, 14.92508
1181.153, 14.16863
1181.635, 14.16790
1182.117, 15.93267
1182.599, 17.14749
1183.081, 15.98378
1183.563, 14.57321
1184.045, 13.95955
1184.527, 13.99355
1185.010, 15.01170
1185.492, 16.35124
1185.974, 16.42975
1186.456, 14.94194
1186.938, 14.00594
1187.420, 14.36164
1187.902, 14.68583
1188.384, 14.69844
1188.866, 14.73034
1189.349, 14.84022
1189.831, 15.12728
1190.313, 15.89524
1190.795, 15.80099
1191.277, 15.77443
1191.759, 15.96022
1192.241, 15.37554
1192.723, 15.33404
1193.206, 15.52534
1193.688, 15.96285
1194.170, 16.32115
1194.652, 16.40863
1195.134, 16.31819
1195.616, 16.16367
1196.098, 15.96094
1196.580, 15.70227
1197.063, 15.42659
1197.545, 15.74255
1198.027, 16.56186
1198.509, 16.47960
1198.991, 15.18355
1199.473, 14.09808
1199.955, 14.22618
1200.437, 14.85464
1200.919, 15.11479
1201.401, 15.20310
1201.884, 15.60938
1202.366, 16.03690
1202.848, 15.65708
1203.330, 14.76698
1203.812, 14.61328
1204.294, 15.46423
1204.776, 15.93972
1205.258, 14.77088
1205.741, 13.93213
1206.223, 15.27305
1206.705, 16.80187
1207.187, 16.96511
1207.669, 16.43339
1208.151, 15.95322
1208.633, 15.63017
1209.115, 15.44506
1209.598, 15.39745
1210.080, 15.47846
1210.562, 15.75310
1211.044, 16.05899
1211.526, 16.44893
1212.008, 16.76519
1212.490, 17.04453
1212.972, 17.08411
1213.454, 16.51201
1213.937, 15.52081
1214.419, 15.04078
1214.901, 15.11728
1215.383, 15.58417
1215.865, 16.58084
1216.347, 17.05292
1216.829, 16.71250
1217.311, 16.27252
1217.793, 16.14926
1218.276, 15.82808
1218.758, 15.83926
1219.240, 15.43756
1219.722, 15.22598
1220.204, 15.14659
1220.686, 14.80061
1221.168, 14.38046
1221.650, 14.99314
1222.133, 16.64780
1222.615, 17.67507
1223.097, 17.08349
1223.579, 16.13883
1224.061, 15.90580
1224.543, 15.95465
1225.025, 15.88088
1225.507, 15.84148
1225.990, 16.20414
1226.472, 16.68667
1226.954, 16.65303
1227.436, 16.05781
1227.918, 15.56052
1228.400, 15.35713
1228.882, 15.25543
1229.364, 15.10434
1229.846, 15.18784
1230.328, 15.89418
1230.811, 16.59720
1231.293, 16.84599
1231.775, 16.76091
1232.257, 16.52337
1232.739, 16.13501
1233.221, 15.85588
1233.703, 15.73541
1234.185, 15.46803
1234.668, 14.98156
1235.150, 14.60602
1235.632, 14.43219
1236.114, 14.55655
1236.596, 15.08303
1237.078, 15.80867
1237.560, 16.49637
1238.042, 17.05253
1238.525, 17.24322
1239.007, 17.02950
1239.489, 15.87468
1239.971, 14.19419
1240.453, 13.79330
1240.935, 15.01523
1241.417, 15.96746
1241.899, 15.31375
1242.381, 14.63675
1242.864, 15.48619
1243.346, 16.52073
1243.828, 16.49123
1244.310, 16.13381
1244.792, 16.66495
1245.274, 17.46760
1245.756, 16.92411
1246.238, 14.80969
1246.720, 12.76918
1247.203, 10.05827
1247.685, 9.115183
1248.167, 11.38343
1248.649, 13.46146
1249.131, 14.32535
1249.613, 14.65816
1250.095, 14.86365
1250.577, 15.04922
1251.059, 15.46560
1251.542, 16.07195
1252.024, 16.34080
1252.506, 16.27544
1252.988, 16.25561
1253.470, 16.30926
1253.952, 16.24345
1254.434, 16.00600
1254.916, 15.71921
1255.399, 15.44849
1255.881, 15.35435
1256.363, 15.83742
1256.845, 16.44912
1257.327, 16.65599
1257.809, 16.46484
1258.291, 15.55809
1258.773, 14.39826
1259.255, 13.89421
1259.738, 14.21267
1260.220, 15.06676
1260.702, 16.76393
1261.184, 17.84347
1261.666, 17.64108
1262.148, 17.00369
1262.630, 15.48525
1263.112, 14.48641
1263.594, 15.64114
1264.077, 17.39493
1264.559, 17.23420
1265.041, 18.06968
1265.523, 18.12110
1266.005, 17.51040
1266.487, 17.59568
1266.969, 15.20646
1267.451, 14.45226
1267.934, 16.35646
1268.416, 18.08253
1268.898, 18.04417
1269.380, 17.09735
1269.862, 15.96354
1270.344, 15.07944
1270.826, 15.57834
1271.308, 16.70185
1271.791, 16.90501
1272.273, 16.59970
1272.755, 17.07102
1273.237, 18.18046
1273.719, 18.51844
1274.201, 17.56670
1274.683, 16.55779
1275.165, 15.68607
1275.647, 15.36880
1276.130, 16.38218
1276.612, 17.26540
1277.094, 16.90677
1277.576, 16.20870
1278.058, 16.15937
1278.540, 16.54337
1279.022, 16.76746
1279.504, 16.81949
1279.986, 16.91707
1280.469, 17.10235
1280.951, 17.00890
1281.433, 16.58140
1281.915, 16.00411
1282.397, 15.33695
1282.879, 14.94284
1283.361, 15.14301
1283.843, 15.53134
1284.326, 15.62705
1284.808, 15.42791
##END=



