##NAMES=Taniajacoite
##RRUFFID=R140945
##IDEAL CHEMISTRY=SrCaMn^3+^_2_Si_4_O_11_(OH)_4_&#183;2H_2_O
##LOCALITY=N'Chwaning III mine, Kalahari manganese field, Northern Cape Province, South Africa
##OWNER=RRUFF
##SOURCE=Jaco and Tania Janse van Nieuwenhuizen
##DESCRIPTION=Aggregates of radiating acicular  brown crystals, associated with pink sugilite and dark-red lipuite. Type sample.
##STATUS=The identification of this mineral is confirmed by single-crystal X-ray diffraction and chemical analysis.
##URL=rruff.info/R140945
##MEASURED CHEMISTRY=Sr(Ca_0.81_Sr_0.19_)_Σ1.00_(Mn^3+^_1.90_Fe^3+^_0.15_Al_0.01_)_Σ2.06_Si_3.96_O_11_(OH)_4_·2H_2_O
147.1551, 707.0688
147.6372, 711.3883
148.1193, 715.4711
148.6014, 718.9632
149.0836, 722.1733
149.5657, 726.3329
150.0478, 732.0720
150.5299, 738.1595
151.0120, 744.1053
151.4941, 749.6790
151.9763, 755.2955
152.4584, 760.8337
152.9405, 766.3668
153.4226, 772.3940
153.9047, 778.9934
154.3868, 786.0598
154.8690, 793.5349
155.3511, 802.0867
155.8332, 810.3173
156.3153, 817.4798
156.7974, 823.7930
157.2795, 831.0284
157.7617, 840.2354
158.2438, 850.1608
158.7259, 859.9009
159.2080, 868.3337
159.6901, 877.4564
160.1722, 888.1786
160.6544, 900.4386
161.1365, 912.7036
161.6186, 923.9584
162.1007, 935.0865
162.5828, 947.1813
163.0649, 961.3422
163.5471, 975.7690
164.0292, 989.2510
164.5113, 1001.740
164.9934, 1015.174
165.4755, 1030.839
165.9576, 1047.973
166.4398, 1065.411
166.9219, 1083.094
167.4040, 1100.892
167.8861, 1118.478
168.3682, 1135.902
168.8503, 1153.395
169.3325, 1170.963
169.8146, 1188.793
170.2967, 1206.913
170.7788, 1226.745
171.2609, 1246.366
171.7430, 1264.036
172.2252, 1279.776
172.7073, 1293.417
173.1894, 1304.775
173.6715, 1314.004
174.1536, 1321.120
174.6357, 1325.970
175.1179, 1328.978
175.6000, 1330.633
176.0821, 1330.962
176.5642, 1329.929
177.0463, 1327.336
177.5284, 1323.289
178.0106, 1318.176
178.4927, 1311.719
178.9748, 1304.421
179.4569, 1296.999
179.9390, 1289.238
180.4211, 1282.213
180.9033, 1277.389
181.3854, 1274.455
181.8675, 1272.023
182.3496, 1269.070
182.8317, 1266.040
183.3138, 1263.953
183.7960, 1263.095
184.2781, 1262.739
184.7602, 1261.842
185.2423, 1260.461
185.7244, 1259.191
186.2065, 1258.617
186.6887, 1258.479
187.1708, 1257.858
187.6529, 1256.691
188.1350, 1254.903
188.6171, 1252.005
189.0992, 1248.006
189.5814, 1244.301
190.0635, 1242.193
190.5456, 1241.355
191.0277, 1239.719
191.5098, 1236.950
191.9919, 1233.435
192.4741, 1229.772
192.9562, 1225.950
193.4383, 1222.507
193.9204, 1219.838
194.4025, 1217.926
194.8846, 1216.484
195.3668, 1215.450
195.8489, 1214.895
196.3310, 1214.736
196.8131, 1214.856
197.2952, 1216.228
197.7773, 1219.727
198.2595, 1225.384
198.7416, 1231.767
199.2237, 1238.579
199.7058, 1246.054
200.1879, 1254.839
200.6700, 1265.146
201.1522, 1276.237
201.6343, 1287.523
202.1164, 1298.919
202.5985, 1311.510
203.0806, 1325.365
203.5627, 1340.409
204.0449, 1356.379
204.5270, 1373.420
205.0091, 1390.872
205.4912, 1408.100
205.9733, 1424.882
206.4554, 1442.859
206.9376, 1462.792
207.4197, 1483.831
207.9018, 1503.436
208.3839, 1521.336
208.8660, 1538.583
209.3481, 1555.763
209.8303, 1573.130
210.3124, 1589.817
210.7945, 1605.879
211.2766, 1621.141
211.7587, 1635.419
212.2408, 1648.689
212.7230, 1661.116
213.2051, 1673.242
213.6872, 1685.668
214.1693, 1695.593
214.6514, 1702.211
215.1335, 1706.033
215.6157, 1709.417
216.0978, 1713.020
216.5799, 1714.920
217.0620, 1713.788
217.5441, 1709.087
218.0262, 1702.907
218.5084, 1696.029
218.9905, 1687.735
219.4726, 1675.028
219.9547, 1657.079
220.4368, 1635.876
220.9189, 1612.884
221.4011, 1588.028
221.8832, 1561.124
222.3653, 1531.677
222.8474, 1500.201
223.3295, 1467.225
223.8116, 1432.827
224.2938, 1397.997
224.7759, 1363.244
225.2580, 1328.540
225.7401, 1294.569
226.2222, 1260.845
226.7043, 1227.856
227.1865, 1196.037
227.6686, 1165.859
228.1507, 1137.066
228.6328, 1109.880
229.1149, 1084.492
229.5970, 1060.375
230.0792, 1037.557
230.5613, 1016.021
231.0434, 996.5392
231.5255, 979.8444
232.0076, 964.5009
232.4897, 949.9480
232.9719, 936.0612
233.4540, 923.3209
233.9361, 911.5849
234.4182, 900.9696
234.9003, 891.7198
235.3824, 884.0943
235.8646, 877.4595
236.3467, 871.5060
236.8288, 866.1586
237.3109, 861.6184
237.7930, 857.8292
238.2751, 854.8257
238.7573, 852.8575
239.2394, 852.0483
239.7215, 852.0629
240.2036, 852.6876
240.6857, 853.6215
241.1678, 855.8472
241.6500, 859.6334
242.1321, 864.6039
242.6142, 869.9089
243.0963, 875.4098
243.5784, 881.4248
244.0605, 888.1416
244.5427, 896.0779
245.0248, 903.4846
245.5069, 910.2227
245.9890, 916.5256
246.4711, 922.7515
246.9532, 928.8491
247.4354, 935.0730
247.9175, 941.3880
248.3996, 947.6529
248.8817, 954.6719
249.3638, 962.7806
249.8459, 971.4774
250.3281, 979.9018
250.8102, 988.2679
251.2923, 996.0397
251.7744, 1002.997
252.2565, 1008.817
252.7386, 1014.968
253.2208, 1021.635
253.7029, 1028.494
254.1850, 1035.110
254.6671, 1041.267
255.1492, 1047.617
255.6313, 1054.415
256.1135, 1061.747
256.5956, 1068.766
257.0777, 1075.718
257.5598, 1081.998
258.0419, 1086.847
258.5240, 1090.306
259.0062, 1092.115
259.4883, 1092.376
259.9704, 1091.172
260.4525, 1087.079
260.9346, 1079.680
261.4167, 1069.997
261.8989, 1059.245
262.3810, 1047.892
262.8631, 1034.453
263.3452, 1018.330
263.8273, 999.3378
264.3094, 980.7553
264.7916, 962.4738
265.2737, 944.3581
265.7558, 925.7827
266.2379, 906.4301
266.7200, 888.0942
267.2021, 870.9610
267.6843, 855.0659
268.1664, 839.9449
268.6485, 825.4758
269.1306, 812.0644
269.6127, 800.3398
270.0948, 790.5557
270.5770, 781.3659
271.0591, 772.4515
271.5412, 764.0390
272.0233, 757.1021
272.5054, 751.9203
272.9875, 747.7316
273.4697, 743.9731
273.9518, 740.5215
274.4339, 738.2035
274.9160, 737.4438
275.3981, 737.6923
275.8802, 736.9786
276.3624, 734.9124
276.8445, 733.4974
277.3266, 734.5157
277.8087, 738.2078
278.2908, 740.7076
278.7729, 741.4506
279.2551, 741.1476
279.7372, 741.4327
280.2193, 742.4240
280.7014, 743.2604
281.1835, 743.5007
281.6656, 743.1499
282.1478, 742.5577
282.6299, 741.8339
283.1120, 740.6791
283.5941, 738.3779
284.0762, 734.8641
284.5583, 731.2939
285.0405, 728.5775
285.5226, 726.4923
286.0047, 722.7518
286.4868, 717.0703
286.9689, 710.6370
287.4510, 704.9966
287.9332, 700.1143
288.4153, 695.2944
288.8974, 690.5892
289.3795, 685.7943
289.8616, 679.9503
290.3438, 672.8804
290.8259, 665.9775
291.3080, 661.1086
291.7901, 657.9778
292.2722, 654.4958
292.7543, 649.7328
293.2365, 644.3358
293.7186, 639.6829
294.2007, 635.8122
294.6828, 632.7913
295.1649, 631.0739
295.6470, 630.3516
296.1292, 629.5538
296.6113, 628.4041
297.0934, 627.0606
297.5755, 625.6976
298.0576, 624.3206
298.5397, 623.0405
299.0219, 621.7330
299.5040, 620.5845
299.9861, 620.0667
300.4682, 620.4145
300.9503, 621.1368
301.4324, 621.8184
301.9146, 622.4251
302.3967, 622.8246
302.8788, 623.1847
303.3609, 623.2089
303.8430, 622.2903
304.3251, 620.1450
304.8073, 617.8264
305.2894, 616.1794
305.7715, 615.0958
306.2536, 614.2711
306.7357, 613.5531
307.2178, 613.0107
307.7000, 612.8995
308.1821, 613.3024
308.6642, 613.4039
309.1463, 611.9002
309.6284, 609.8055
310.1105, 608.6885
310.5927, 610.4210
311.0748, 612.5071
311.5569, 612.7882
312.0390, 611.2455
312.5211, 610.3322
313.0032, 611.9436
313.4854, 614.7194
313.9675, 617.1958
314.4496, 618.5270
314.9317, 619.7797
315.4138, 621.3022
315.8959, 623.1332
316.3781, 625.5045
316.8602, 629.0704
317.3423, 632.8823
317.8244, 636.1988
318.3065, 638.3062
318.7886, 640.6886
319.2708, 643.8984
319.7529, 647.7489
320.2350, 651.7328
320.7171, 655.6931
321.1992, 659.6992
321.6813, 663.8167
322.1635, 668.2079
322.6456, 672.3295
323.1277, 675.4043
323.6098, 678.2363
324.0919, 682.1901
324.5740, 689.3798
325.0562, 695.9248
325.5383, 700.3330
326.0204, 701.8715
326.5025, 704.0141
326.9846, 707.2431
327.4667, 711.0788
327.9489, 715.0619
328.4310, 720.2535
328.9131, 724.4167
329.3952, 726.7906
329.8773, 727.3185
330.3594, 728.7202
330.8416, 731.1735
331.3237, 734.3349
331.8058, 738.0222
332.2879, 742.7628
332.7700, 747.1020
333.2521, 750.5432
333.7343, 753.4564
334.2164, 757.8205
334.6985, 764.4545
335.1806, 771.1676
335.6627, 776.6417
336.1448, 780.1266
336.6270, 784.5891
337.1091, 790.4326
337.5912, 796.9854
338.0733, 803.1272
338.5554, 808.9438
339.0375, 813.8772
339.5197, 817.2939
340.0018, 819.0229
340.4839, 822.2902
340.9660, 827.6425
341.4481, 833.2042
341.9302, 836.1907
342.4124, 836.4413
342.8945, 836.6176
343.3766, 837.6723
343.8587, 839.2796
344.3408, 839.9854
344.8229, 839.7344
345.3051, 838.8974
345.7872, 837.8312
346.2693, 836.5027
346.7514, 834.5803
347.2335, 831.9011
347.7156, 828.7535
348.1978, 825.6547
348.6799, 822.6150
349.1620, 819.6906
349.6441, 816.8956
350.1262, 814.2555
350.6083, 811.8839
351.0905, 809.8314
351.5726, 807.8365
352.0547, 805.3951
352.5368, 802.7090
353.0189, 800.3923
353.5010, 799.0433
353.9832, 798.0915
354.4653, 796.9694
354.9474, 795.6469
355.4295, 793.9304
355.9116, 791.0544
356.3937, 787.7928
356.8759, 785.3497
357.3580, 784.7851
357.8401, 784.6341
358.3222, 783.8402
358.8043, 782.5181
359.2864, 781.3912
359.7686, 780.6667
360.2507, 780.3943
360.7328, 780.6521
361.2149, 781.6488
361.6970, 782.8398
362.1791, 784.1464
362.6613, 785.4815
363.1434, 786.6522
363.6255, 787.1613
364.1076, 787.8254
364.5897, 788.9194
365.0718, 790.3115
365.5540, 792.6259
366.0361, 796.9050
366.5182, 801.8513
367.0003, 805.9110
367.4824, 808.1795
367.9645, 810.3135
368.4467, 812.4227
368.9288, 814.4542
369.4109, 817.3868
369.8930, 821.2823
370.3751, 826.0576
370.8572, 831.8405
371.3394, 840.1015
371.8215, 846.7614
372.3036, 850.9469
372.7857, 853.3348
373.2678, 856.3620
373.7499, 860.1571
374.2321, 864.3895
374.7142, 868.7762
375.1963, 873.1529
375.6784, 878.6987
376.1605, 886.0280
376.6426, 893.6841
377.1248, 898.9736
377.6069, 901.5952
378.0890, 904.0078
378.5711, 906.9421
379.0532, 910.3505
379.5353, 913.6737
380.0175, 916.9301
380.4996, 920.1844
380.9817, 923.4620
381.4638, 926.7668
381.9459, 930.2949
382.4280, 934.1249
382.9102, 938.0905
383.3923, 941.9492
383.8744, 945.6893
384.3565, 948.9223
384.8386, 951.1314
385.3207, 952.6851
385.8029, 954.2654
386.2850, 955.9716
386.7671, 957.6012
387.2492, 958.8263
387.7313, 959.8232
388.2134, 960.9708
388.6956, 962.7466
389.1777, 964.5462
389.6598, 965.7038
390.1419, 966.2557
390.6240, 966.9114
391.1061, 968.2792
391.5883, 969.9295
392.0704, 971.4517
392.5525, 973.0148
393.0346, 974.0633
393.5167, 973.9789
393.9988, 973.1550
394.4810, 972.6906
394.9631, 973.7969
395.4452, 974.7151
395.9273, 974.3823
396.4094, 972.1550
396.8915, 970.3450
397.3737, 969.8565
397.8558, 969.8373
398.3379, 969.2372
398.8200, 967.4102
399.3021, 965.5415
399.7842, 964.1221
400.2664, 963.1390
400.7485, 960.9727
401.2306, 957.0512
401.7127, 952.5101
402.1948, 947.9652
402.6769, 943.0481
403.1591, 939.0063
403.6412, 936.4330
404.1233, 934.5444
404.6054, 931.2263
405.0875, 926.1737
405.5696, 920.7008
406.0518, 915.2667
406.5339, 909.8781
407.0160, 904.6116
407.4981, 899.5507
407.9802, 894.5732
408.4623, 889.6223
408.9445, 884.6832
409.4266, 879.5703
409.9087, 874.1474
410.3908, 868.6256
410.8729, 863.5974
411.3550, 859.0377
411.8372, 854.6157
412.3193, 849.9619
412.8014, 845.2342
413.2835, 840.7891
413.7656, 836.6725
414.2477, 832.6904
414.7299, 828.4160
415.2120, 824.0941
415.6941, 820.4453
416.1762, 817.8275
416.6583, 815.9408
417.1404, 814.5946
417.6226, 813.7484
418.1047, 813.2134
418.5868, 812.7660
419.0689, 812.6032
419.5510, 812.9400
420.0331, 814.2245
420.5153, 815.4842
420.9974, 816.0691
421.4795, 816.3312
421.9616, 817.1382
422.4437, 818.8943
422.9258, 821.1207
423.4080, 823.7800
423.8901, 827.1661
424.3722, 830.0457
424.8543, 831.6097
425.3364, 832.9989
425.8185, 835.3279
426.3007, 839.2551
426.7828, 843.2238
427.2649, 847.0023
427.7470, 850.6205
428.2291, 854.4503
428.7112, 858.6761
429.1934, 862.7266
429.6755, 866.2805
430.1576, 869.1713
430.6397, 872.2874
431.1218, 875.6992
431.6039, 879.2331
432.0861, 882.9323
432.5682, 886.8591
433.0503, 889.8076
433.5324, 890.9933
434.0145, 890.9839
434.4966, 891.9003
434.9788, 893.7836
435.4609, 895.5964
435.9430, 896.1517
436.4251, 895.9591
436.9072, 896.6838
437.3893, 899.1218
437.8715, 901.3066
438.3536, 900.6072
438.8357, 897.7656
439.3178, 894.8509
439.7999, 892.9854
440.2820, 891.4666
440.7642, 889.9902
441.2463, 888.5125
441.7284, 886.0889
442.2105, 881.4061
442.6926, 875.8557
443.1747, 870.7876
443.6569, 867.1363
444.1390, 863.2880
444.6211, 858.8328
445.1032, 853.8091
445.5853, 848.4739
446.0674, 841.7190
446.5496, 835.6524
447.0317, 831.3536
447.5138, 829.6645
447.9959, 827.0450
448.4780, 822.7988
448.9601, 818.1291
449.4423, 814.0629
449.9244, 810.4897
450.4065, 807.9426
450.8886, 806.9135
451.3707, 806.9542
451.8528, 805.9431
452.3350, 803.4597
452.8171, 801.1508
453.2992, 799.7120
453.7813, 799.1316
454.2634, 799.7394
454.7455, 801.7585
455.2277, 804.2192
455.7098, 805.6722
456.1919, 806.3084
456.6740, 807.6412
457.1561, 810.4548
457.6382, 813.9677
458.1204, 816.7815
458.6025, 818.9911
459.0846, 821.0667
459.5667, 823.1306
460.0488, 825.3722
460.5309, 828.0406
461.0131, 831.1692
461.4952, 834.7217
461.9773, 838.3740
462.4594, 842.4554
462.9415, 847.5101
463.4236, 855.5247
463.9058, 862.8148
464.3879, 867.3596
464.8700, 869.3741
465.3521, 871.7593
465.8342, 875.9494
466.3163, 880.1920
466.7985, 883.4755
467.2806, 884.9881
467.7627, 886.8736
468.2448, 889.5864
468.7269, 892.4899
469.2090, 894.8201
469.6912, 897.0319
470.1733, 897.8293
470.6554, 896.6383
471.1375, 893.6484
471.6196, 890.7234
472.1017, 887.9539
472.5839, 884.9789
473.0660, 881.7128
473.5481, 878.1754
474.0302, 873.2595
474.5123, 866.6661
474.9944, 859.2907
475.4766, 852.6776
475.9587, 846.6177
476.4408, 839.6725
476.9229, 831.0602
477.4050, 821.4445
477.8871, 811.6102
478.3693, 801.6371
478.8514, 792.2060
479.3335, 784.0814
479.8156, 776.6145
480.2977, 769.0950
480.7798, 761.3550
481.2620, 753.7601
481.7441, 746.5547
482.2262, 739.6224
482.7083, 732.7942
483.1904, 725.6703
483.6725, 718.9240
484.1547, 713.0331
484.6368, 707.9496
485.1189, 702.6866
485.6010, 696.5731
486.0831, 690.6473
486.5652, 685.4755
487.0474, 681.2628
487.5295, 677.2995
488.0116, 673.7028
488.4937, 670.3128
488.9758, 666.8564
489.4579, 663.2570
489.9401, 659.8106
490.4222, 656.5975
490.9043, 653.5820
491.3864, 650.4279
491.8685, 647.0956
492.3506, 643.8166
492.8328, 640.6298
493.3149, 637.6097
493.7970, 635.1441
494.2791, 633.3444
494.7612, 631.6613
495.2433, 629.3002
495.7255, 626.5377
496.2076, 624.0355
496.6897, 621.9420
497.1718, 620.3112
497.6539, 619.5735
498.1360, 619.4810
498.6182, 619.0443
499.1003, 616.9346
499.5824, 614.8563
500.0645, 614.3834
500.5466, 616.2314
501.0287, 617.1149
501.5109, 615.0928
501.9930, 612.0803
502.4751, 610.0128
502.9572, 609.8417
503.4393, 609.7797
503.9214, 609.6194
504.4036, 609.4258
504.8857, 609.4727
505.3678, 610.0545
505.8499, 610.3625
506.3320, 609.9418
506.8141, 608.7164
507.2963, 607.9689
507.7784, 607.7758
508.2605, 607.8450
508.7426, 607.8365
509.2247, 607.7714
509.7068, 608.0063
510.1890, 608.6765
510.6711, 609.5364
511.1532, 610.2050
511.6353, 610.6982
512.1174, 611.0939
512.5995, 611.2734
513.0817, 611.4617
513.5638, 611.9852
514.0459, 612.8352
514.5280, 613.7043
515.0101, 614.5391
515.4922, 615.2358
515.9744, 615.6225
516.4565, 615.3307
516.9386, 615.4138
517.4207, 616.3909
517.9028, 617.9330
518.3849, 619.4969
518.8671, 621.5069
519.3492, 622.9666
519.8313, 623.3554
520.3134, 622.7819
520.7955, 622.9957
521.2776, 624.3495
521.7598, 625.9623
522.2419, 627.4150
522.7240, 628.7677
523.2061, 629.4849
523.6882, 629.2374
524.1703, 629.0381
524.6525, 630.5956
525.1346, 633.7770
525.6167, 636.2796
526.0988, 637.2345
526.5809, 637.4295
527.0630, 638.1912
527.5452, 639.4633
528.0273, 640.9039
528.5094, 642.7889
528.9915, 644.4912
529.4736, 644.9636
529.9557, 644.0760
530.4379, 643.6702
530.9200, 645.4135
531.4021, 647.9023
531.8842, 649.7321
532.3663, 649.9227
532.8484, 650.3254
533.3306, 651.6655
533.8127, 653.4985
534.2948, 654.8545
534.7769, 655.1721
535.2590, 655.5875
535.7411, 656.4051
536.2233, 657.6103
536.7054, 658.6768
537.1875, 659.5294
537.6696, 660.3979
538.1517, 661.4310
538.6339, 662.6275
539.1160, 663.9610
539.5981, 665.4175
540.0802, 667.0513
540.5623, 668.9230
541.0444, 671.0486
541.5266, 673.5875
542.0087, 676.7470
542.4908, 680.1493
542.9729, 682.9528
543.4550, 685.3793
543.9371, 688.4146
544.4193, 692.9601
544.9014, 698.1470
545.3835, 703.2305
545.8656, 708.1225
546.3477, 713.3545
546.8298, 719.1989
547.3120, 725.5211
547.7941, 732.1550
548.2762, 738.9948
548.7583, 746.3207
549.2404, 754.6270
549.7225, 763.2857
550.2047, 771.1115
550.6868, 777.2183
551.1689, 784.2562
551.6510, 792.9942
552.1331, 803.2132
552.6152, 813.2205
553.0974, 822.9290
553.5795, 832.9053
554.0616, 843.4258
554.5437, 854.5234
555.0258, 866.4774
555.5079, 879.4442
555.9901, 892.6844
556.4722, 905.7017
556.9543, 918.5510
557.4364, 931.3432
557.9185, 944.2122
558.4006, 956.9008
558.8828, 969.1541
559.3649, 981.1188
559.8470, 993.4260
560.3291, 1008.004
560.8112, 1021.384
561.2933, 1032.068
561.7755, 1039.956
562.2576, 1046.480
562.7397, 1051.079
563.2218, 1054.834
563.7039, 1058.545
564.1860, 1063.505
564.6682, 1064.964
565.1503, 1062.397
565.6324, 1057.037
566.1145, 1050.141
566.5966, 1041.526
567.0787, 1032.888
567.5609, 1025.081
568.0430, 1016.894
568.5251, 1005.519
569.0072, 991.1694
569.4893, 976.3320
569.9714, 962.0489
570.4536, 948.0593
570.9357, 933.7079
571.4178, 919.0923
571.8999, 904.9506
572.3820, 892.1975
572.8641, 880.0148
573.3463, 867.7119
573.8284, 854.5186
574.3105, 842.5724
574.7926, 833.0569
575.2747, 824.9179
575.7568, 816.8826
576.2390, 808.7418
576.7211, 800.6419
577.2032, 792.2259
577.6853, 783.8596
578.1674, 777.1981
578.6495, 772.6600
579.1317, 768.6281
579.6138, 764.5718
580.0959, 760.4801
580.5780, 756.0082
581.0601, 751.0331
581.5422, 746.6652
582.0244, 744.0465
582.5065, 742.7194
582.9886, 741.6852
583.4707, 740.8491
583.9528, 739.9858
584.4349, 738.6216
584.9171, 737.1647
585.3992, 736.2414
585.8813, 737.5898
586.3634, 737.8528
586.8455, 734.3940
587.3276, 728.6696
587.8098, 724.7993
588.2919, 725.0645
588.7740, 725.7823
589.2561, 726.0393
589.7382, 725.8319
590.2203, 724.9667
590.7025, 722.8539
591.1846, 721.1523
591.6667, 721.3042
592.1488, 723.5131
592.6309, 724.4648
593.1130, 723.7973
593.5952, 722.8476
594.0773, 723.5698
594.5594, 725.4818
595.0415, 726.6696
595.5236, 726.5638
596.0057, 725.7487
596.4879, 724.2390
596.9700, 722.5146
597.4521, 721.7187
597.9342, 723.4701
598.4163, 725.3336
598.8984, 725.6367
599.3806, 724.5733
599.8627, 724.2327
600.3448, 726.1719
600.8269, 728.0012
601.3090, 728.3588
601.7911, 726.4961
602.2733, 726.2449
602.7554, 728.4604
603.2375, 731.0782
603.7196, 732.0109
604.2017, 731.0801
604.6838, 730.3286
605.1660, 729.9216
605.6481, 729.9496
606.1302, 730.8378
606.6123, 732.3865
607.0944, 733.6301
607.5765, 733.8912
608.0587, 733.9980
608.5408, 735.3326
609.0229, 737.4412
609.5050, 738.7555
609.9871, 737.5914
610.4692, 736.0582
610.9514, 735.3894
611.4335, 735.6946
611.9156, 736.2403
612.3977, 737.5930
612.8798, 738.5804
613.3619, 738.4422
613.8441, 736.4877
614.3262, 735.1248
614.8083, 734.6807
615.2904, 734.3844
615.7725, 733.1475
616.2546, 730.9069
616.7368, 728.9272
617.2189, 727.4235
617.7010, 726.3189
618.1831, 725.7974
618.6652, 725.6515
619.1473, 725.0234
619.6295, 723.1567
620.1116, 720.8436
620.5937, 718.6638
621.0758, 716.6805
621.5579, 715.1438
622.0400, 714.6153
622.5222, 714.2595
623.0043, 713.5872
623.4864, 712.4873
623.9685, 711.4498
624.4506, 710.9766
624.9327, 710.1991
625.4149, 708.3697
625.8970, 704.8351
626.3791, 702.3511
626.8612, 701.2861
627.3433, 700.8220
627.8254, 699.9103
628.3076, 698.5591
628.7897, 696.9426
629.2718, 695.0939
629.7539, 693.0118
630.2360, 690.5352
630.7181, 687.8109
631.2003, 685.3329
631.6824, 683.3713
632.1645, 681.7338
632.6466, 680.3536
633.1287, 679.1990
633.6108, 678.1680
634.0930, 677.7491
634.5751, 676.9893
635.0572, 675.2401
635.5393, 672.1827
636.0214, 669.7188
636.5035, 668.5123
636.9857, 667.0706
637.4678, 663.9025
637.9499, 658.5803
638.4320, 654.9261
638.9141, 653.5973
639.3962, 652.8539
639.8784, 650.1615
640.3605, 645.9879
640.8426, 642.3120
641.3247, 639.9744
641.8068, 637.8822
642.2889, 634.5483
642.7711, 630.5464
643.2532, 627.0892
643.7353, 625.5799
644.2174, 623.9694
644.6995, 621.1123
645.1816, 617.1900
645.6638, 613.5139
646.1459, 610.1516
646.6280, 607.2183
647.1101, 604.8450
647.5922, 603.0926
648.0743, 601.1366
648.5565, 599.0367
649.0386, 596.5863
649.5207, 593.4515
650.0028, 589.7468
650.4849, 586.5037
650.9670, 583.8377
651.4492, 581.4873
651.9313, 579.1139
652.4134, 576.8958
652.8955, 575.3817
653.3776, 575.2551
653.8597, 574.5535
654.3419, 571.3771
654.8240, 566.9883
655.3061, 563.3710
655.7882, 561.6108
656.2703, 560.0563
656.7524, 558.6673
657.2346, 557.2330
657.7167, 554.9448
658.1988, 551.1718
658.6809, 548.0057
659.1630, 546.2740
659.6451, 545.7457
660.1273, 545.1467
660.6094, 544.4634
661.0915, 543.7121
661.5736, 542.8031
662.0557, 541.8411
662.5378, 541.0445
663.0200, 540.4187
663.5021, 539.8620
663.9842, 539.4641
664.4663, 539.0029
664.9484, 538.2828
665.4305, 537.2540
665.9127, 536.0070
666.3948, 534.0153
666.8769, 532.1243
667.3590, 531.2261
667.8411, 532.0323
668.3232, 532.3577
668.8054, 531.9080
669.2875, 531.0612
669.7696, 530.5919
670.2517, 530.5153
670.7338, 529.8369
671.2159, 527.8548
671.6981, 525.6602
672.1802, 525.6068
672.6623, 527.1113
673.1444, 528.0821
673.6265, 526.6580
674.1086, 524.9150
674.5908, 524.5453
675.0729, 525.3616
675.5550, 525.8748
676.0371, 525.2552
676.5192, 524.5763
677.0013, 524.4678
677.4835, 525.0583
677.9656, 524.8012
678.4477, 523.2766
678.9298, 521.6618
679.4119, 520.8291
679.8940, 520.7737
680.3762, 520.6252
680.8583, 520.3328
681.3404, 520.0386
681.8225, 520.1054
682.3046, 520.2391
682.7867, 519.7831
683.2689, 518.5096
683.7510, 516.9547
684.2331, 514.8521
684.7152, 512.9466
685.1973, 512.2393
685.6794, 514.5639
686.1616, 516.2240
686.6437, 516.1566
687.1258, 515.1313
687.6079, 514.4570
688.0900, 514.2259
688.5721, 514.1097
689.0543, 513.9899
689.5364, 513.9567
690.0185, 514.3681
690.5006, 515.2047
690.9827, 516.0341
691.4648, 516.9055
691.9470, 517.4971
692.4291, 517.0593
692.9112, 515.7795
693.3933, 514.7048
693.8754, 514.5436
694.3575, 514.6731
694.8397, 514.7203
695.3218, 514.6513
695.8039, 514.6018
696.2860, 514.5841
696.7681, 514.6106
697.2502, 514.6389
697.7324, 514.5883
698.2145, 515.0971
698.6966, 516.3792
699.1787, 517.6279
699.6608, 517.7807
700.1429, 517.1268
700.6251, 517.2482
701.1072, 518.4738
701.5893, 519.7509
702.0714, 519.7777
702.5535, 519.2553
703.0356, 519.2609
703.5178, 520.5190
703.9999, 521.5969
704.4820, 521.5966
704.9641, 521.1710
705.4462, 521.3834
705.9283, 523.0078
706.4105, 524.0837
706.8926, 524.1157
707.3747, 523.6134
707.8568, 523.8490
708.3389, 524.8817
708.8210, 525.9260
709.3032, 526.8464
709.7853, 527.4982
710.2674, 527.2609
710.7495, 526.3846
711.2316, 525.9231
711.7137, 526.9514
712.1959, 528.1928
712.6780, 528.5833
713.1601, 528.2422
713.6422, 528.2062
714.1243, 528.9538
714.6064, 529.8914
715.0886, 530.8002
715.5707, 531.6863
716.0528, 532.5760
716.5349, 533.5439
717.0170, 534.3486
717.4991, 534.8443
717.9813, 535.0427
718.4634, 535.0112
718.9455, 534.7435
719.4276, 534.4288
719.9097, 534.2349
720.3918, 534.0900
720.8740, 533.8337
721.3561, 533.3801
721.8382, 533.1921
722.3203, 534.0988
722.8024, 535.0046
723.2845, 534.8954
723.7667, 532.5695
724.2488, 531.1638
724.7309, 530.7917
725.2130, 531.2010
725.6951, 532.6408
726.1772, 535.3022
726.6594, 535.7308
727.1415, 532.8905
727.6236, 529.1331
728.1057, 527.6243
728.5878, 527.7840
729.0699, 528.1091
729.5521, 528.2317
730.0342, 528.1821
730.5163, 527.9445
730.9984, 527.5587
731.4805, 527.0951
731.9626, 526.0996
732.4448, 525.6290
732.9269, 526.2001
733.4090, 527.3339
733.8911, 527.6683
734.3732, 527.0377
734.8553, 526.2581
735.3375, 525.4954
735.8196, 524.8229
736.3017, 524.4401
736.7838, 524.3297
737.2659, 524.3877
737.7480, 525.0659
738.2302, 525.5059
738.7123, 524.6074
739.1944, 522.6392
739.6765, 520.9680
740.1586, 520.0001
740.6407, 519.5198
741.1229, 519.6105
741.6050, 520.2278
742.0871, 520.7003
742.5692, 521.1345
743.0513, 521.1837
743.5334, 520.5561
744.0156, 519.3323
744.4977, 518.0970
744.9798, 516.8453
745.4619, 515.8999
745.9440, 515.8264
746.4261, 516.0501
746.9083, 515.6339
747.3904, 514.4792
747.8725, 513.9068
748.3546, 515.3578
748.8367, 516.9988
749.3188, 517.4893
749.8010, 516.3122
750.2831, 515.5628
750.7652, 515.4697
751.2473, 515.4404
751.7294, 514.9625
752.2115, 514.0468
752.6937, 513.1804
753.1758, 512.3755
753.6579, 511.7346
754.1400, 511.6904
754.6221, 511.7862
755.1042, 511.1063
755.5864, 509.2327
756.0685, 507.6454
756.5506, 507.2861
757.0327, 507.5436
757.5148, 507.8273
757.9969, 508.4147
758.4791, 508.4335
758.9612, 507.5776
759.4433, 506.4872
759.9254, 506.0010
760.4075, 506.1413
760.8896, 506.1616
761.3718, 505.9240
761.8539, 505.5897
762.3360, 505.3347
762.8181, 505.1449
763.3002, 505.0402
763.7823, 505.2588
764.2645, 505.1312
764.7466, 503.7389
765.2287, 501.9400
765.7108, 501.0069
766.1929, 502.2522
766.6750, 502.7927
767.1572, 502.0885
767.6393, 500.7934
768.1214, 500.0131
768.6035, 499.7539
769.0856, 500.1611
769.5677, 501.5892
770.0499, 503.0944
770.5320, 502.9780
771.0141, 501.7440
771.4962, 500.6896
771.9783, 500.5738
772.4604, 500.5557
772.9426, 500.0733
773.4247, 499.3727
773.9068, 499.0515
774.3889, 499.6508
774.8710, 499.9359
775.3531, 499.5511
775.8353, 498.7857
776.3174, 498.5206
776.7995, 498.7868
777.2816, 499.0349
777.7637, 499.1776
778.2458, 499.0723
778.7280, 498.1585
779.2101, 496.7392
779.6922, 495.7924
780.1743, 496.0902
780.6564, 496.6773
781.1385, 497.2499
781.6207, 497.7398
782.1028, 497.8547
782.5849, 497.1489
783.0670, 496.7713
783.5491, 497.1129
784.0313, 497.9798
784.5134, 498.7905
784.9955, 499.5547
785.4776, 499.6632
785.9597, 498.3024
786.4418, 496.4881
786.9240, 495.9556
787.4061, 496.4176
787.8882, 496.8369
788.3703, 496.6838
788.8524, 496.3651
789.3345, 495.8517
789.8167, 495.2598
790.2988, 495.3771
790.7809, 496.6638
791.2630, 497.8598
791.7451, 498.6382
792.2272, 498.9799
792.7094, 498.6109
793.1915, 497.5720
793.6736, 496.7809
794.1557, 497.0056
794.6378, 497.6287
795.1199, 497.9221
795.6021, 497.9193
796.0842, 497.8195
796.5663, 497.4046
797.0484, 497.1998
797.5305, 497.8675
798.0126, 499.1825
798.4948, 498.9593
798.9769, 496.3148
799.4590, 494.3404
799.9411, 494.6206
800.4232, 496.5190
800.9053, 497.7226
801.3875, 498.2538
801.8696, 498.3202
802.3517, 497.6143
802.8338, 496.8171
803.3159, 496.5313
803.7980, 496.7470
804.2802, 497.3159
804.7623, 498.8850
805.2444, 500.0497
805.7265, 500.1065
806.2086, 499.2172
806.6907, 498.8226
807.1729, 498.9456
807.6550, 499.4604
808.1371, 500.5576
808.6192, 501.8964
809.1013, 502.4577
809.5834, 502.3644
810.0656, 502.3136
810.5477, 503.1336
811.0298, 503.7920
811.5119, 503.2917
811.9940, 501.8216
812.4761, 500.9584
812.9583, 501.0499
813.4404, 501.6969
813.9225, 503.0965
814.4046, 504.9945
814.8867, 505.6736
815.3688, 505.0586
815.8510, 504.6536
816.3331, 505.5973
816.8152, 507.0175
817.2973, 507.2470
817.7794, 506.5855
818.2615, 506.2413
818.7437, 506.9463
819.2258, 507.9721
819.7079, 509.2565
820.1900, 510.6566
820.6721, 511.3527
821.1542, 511.1785
821.6364, 510.6126
822.1185, 509.5306
822.6006, 508.3148
823.0827, 508.4185
823.5648, 509.6878
824.0469, 510.8480
824.5291, 511.1370
825.0112, 511.0994
825.4933, 511.3319
825.9754, 511.6937
826.4575, 511.7288
826.9396, 510.5952
827.4218, 509.9487
827.9039, 510.4183
828.3860, 511.6584
828.8681, 512.5446
829.3502, 513.0743
829.8323, 513.2451
830.3145, 512.8423
830.7966, 512.3367
831.2787, 512.7878
831.7608, 513.9243
832.2429, 514.8945
832.7250, 515.1116
833.2072, 515.2603
833.6893, 515.8913
834.1714, 516.7301
834.6535, 516.9846
835.1356, 516.0550
835.6177, 515.5997
836.0999, 516.0519
836.5820, 517.0093
837.0641, 517.4242
837.5462, 517.3808
838.0283, 517.9374
838.5104, 519.8266
838.9926, 521.7227
839.4747, 521.7183
839.9568, 520.7673
840.4389, 520.5360
840.9210, 522.5933
841.4031, 524.1981
841.8853, 524.4042
842.3674, 523.9893
842.8495, 523.9155
843.3316, 524.1208
843.8137, 525.1011
844.2958, 527.1829
844.7780, 529.4203
845.2601, 530.5288
845.7422, 530.6828
846.2243, 530.2318
846.7064, 528.9972
847.1885, 527.8689
847.6707, 527.1077
848.1528, 526.8516
848.6349, 527.3303
849.1170, 529.3232
849.5991, 530.5538
850.0812, 530.6285
850.5634, 530.5241
851.0455, 531.5280
851.5276, 533.4664
852.0097, 534.9453
852.4918, 535.7665
852.9739, 536.3169
853.4561, 536.8877
853.9382, 537.4229
854.4203, 537.7147
854.9024, 537.4084
855.3845, 537.9774
855.8666, 540.5888
856.3488, 543.3710
856.8309, 545.1193
857.3130, 545.7859
857.7951, 545.5366
858.2772, 544.1539
858.7593, 543.3179
859.2415, 544.9822
859.7236, 547.9930
860.2057, 550.4908
860.6878, 552.3036
861.1699, 554.0309
861.6520, 555.9460
862.1342, 557.9032
862.6163, 559.9775
863.0984, 562.1916
863.5805, 563.6772
864.0626, 564.2039
864.5447, 564.6870
865.0269, 565.6049
865.5090, 566.9058
865.9911, 568.1761
866.4732, 569.5131
866.9553, 571.6287
867.4374, 575.7344
867.9196, 580.1035
868.4017, 583.6779
868.8838, 586.4150
869.3659, 588.2623
869.8480, 588.2910
870.3301, 588.9962
870.8123, 591.1794
871.2944, 594.5133
871.7765, 598.1324
872.2586, 601.9468
872.7407, 605.5410
873.2228, 608.4470
873.7050, 611.3051
874.1871, 615.2123
874.6692, 619.5280
875.1513, 622.9146
875.6334, 624.0153
876.1155, 625.2610
876.5977, 626.9307
877.0798, 629.1108
877.5619, 632.2256
878.0440, 636.3930
878.5261, 639.7442
879.0082, 641.7119
879.4904, 643.3821
879.9725, 646.6913
880.4546, 650.6260
880.9367, 653.2552
881.4188, 653.2065
881.9009, 653.6679
882.3831, 656.6353
882.8652, 660.1078
883.3473, 661.8720
883.8294, 661.2349
884.3115, 661.7450
884.7936, 663.6871
885.2758, 666.1823
885.7579, 668.7277
886.2400, 671.0752
886.7221, 672.1996
887.2042, 671.8657
887.6863, 672.5836
888.1685, 677.6058
888.6506, 682.8162
889.1327, 684.7278
889.6148, 682.5384
890.0969, 682.6378
890.5790, 685.8185
891.0612, 689.2092
891.5433, 690.6940
892.0254, 691.0118
892.5075, 693.1224
892.9896, 696.8367
893.4717, 700.5891
893.9539, 703.8045
894.4360, 706.4380
894.9181, 707.7163
895.4002, 708.1138
895.8823, 710.6027
896.3644, 716.7748
896.8466, 722.2505
897.3287, 725.6377
897.8108, 727.8215
898.2929, 731.0183
898.7750, 735.2008
899.2571, 740.2697
899.7393, 746.6826
900.2214, 753.2111
900.7035, 758.0969
901.1856, 762.5162
901.6677, 768.3384
902.1498, 777.0488
902.6320, 785.8443
903.1141, 794.4377
903.5962, 803.2118
904.0783, 812.6451
904.5604, 822.7457
905.0425, 832.4400
905.5247, 841.4077
906.0068, 851.0278
906.4889, 862.3768
906.9710, 875.2325
907.4531, 889.5191
907.9352, 905.7717
908.4174, 921.8569
908.8995, 936.9241
909.3816, 952.5010
909.8637, 969.1616
910.3458, 987.1031
910.8279, 1006.541
911.3101, 1027.488
911.7922, 1049.062
912.2743, 1070.247
912.7564, 1091.956
913.2385, 1115.689
913.7206, 1141.156
914.2028, 1166.018
914.6849, 1189.093
915.1670, 1211.968
915.6491, 1234.870
916.1312, 1257.972
916.6133, 1282.387
917.0955, 1308.260
917.5776, 1332.912
918.0597, 1355.566
918.5418, 1376.629
919.0239, 1396.751
919.5060, 1415.703
919.9882, 1432.747
920.4703, 1448.005
920.9524, 1461.046
921.4345, 1471.961
921.9166, 1480.500
922.3987, 1486.041
922.8809, 1488.482
923.3630, 1489.477
923.8451, 1489.356
924.3272, 1486.938
924.8093, 1480.630
925.2914, 1471.437
925.7736, 1460.917
926.2557, 1449.442
926.7378, 1435.496
927.2199, 1417.088
927.7020, 1397.725
928.1841, 1379.474
928.6663, 1362.406
929.1484, 1342.059
929.6305, 1318.133
930.1126, 1294.128
930.5947, 1272.425
931.0768, 1251.439
931.5590, 1229.294
932.0411, 1206.020
932.5232, 1183.310
933.0053, 1161.080
933.4874, 1139.745
933.9695, 1119.401
934.4517, 1099.847
934.9338, 1079.858
935.4159, 1059.568
935.8980, 1040.250
936.3801, 1022.890
936.8622, 1006.007
937.3444, 987.5450
937.8265, 968.9309
938.3086, 952.1275
938.7907, 938.8263
939.2728, 925.3575
939.7549, 910.4280
940.2371, 895.9591
940.7192, 883.4391
941.2013, 872.9823
941.6834, 861.9659
942.1655, 850.2838
942.6476, 839.1331
943.1298, 830.0016
943.6119, 821.7902
944.0940, 813.1040
944.5761, 803.8273
945.0582, 795.3024
945.5403, 788.3207
946.0225, 781.5692
946.5046, 774.7408
946.9867, 767.8400
947.4688, 760.2461
947.9509, 752.1710
948.4330, 745.4909
948.9152, 741.8242
949.3973, 738.7771
949.8794, 733.9167
950.3615, 728.0635
950.8436, 722.6534
951.3257, 718.7010
951.8079, 714.3175
952.2900, 709.1456
952.7721, 703.8715
953.2542, 699.4785
953.7363, 695.8187
954.2184, 691.6547
954.7006, 686.7836
955.1827, 682.0497
955.6648, 677.9070
956.1469, 674.2991
956.6290, 671.4622
957.1111, 669.5528
957.5933, 666.8174
958.0754, 662.6924
958.5575, 658.7739
959.0396, 656.0380
959.5217, 654.0463
960.0038, 651.0060
960.4860, 647.1566
960.9681, 643.7328
961.4502, 641.8284
961.9323, 640.1293
962.4144, 637.5091
962.8965, 634.6188
963.3787, 633.1113
963.8608, 634.0718
964.3429, 633.4916
964.8250, 630.4945
965.3071, 626.7636
965.7892, 624.5967
966.2714, 623.5471
966.7535, 622.4562
967.2356, 621.0974
967.7177, 620.0088
968.1998, 620.1761
968.6819, 620.1733
969.1641, 618.7522
969.6462, 615.7397
970.1283, 613.8425
970.6104, 613.2206
971.0925, 612.6708
971.5746, 611.2202
972.0568, 609.5215
972.5389, 609.0355
973.0210, 609.3612
973.5031, 609.1951
973.9852, 607.5047
974.4673, 605.8254
974.9495, 604.7386
975.4316, 603.8541
975.9137, 602.3477
976.3958, 600.1547
976.8779, 598.9158
977.3600, 599.1680
977.8422, 599.3207
978.3243, 597.1933
978.8064, 594.1786
979.2885, 592.0275
979.7706, 591.1305
980.2527, 590.6783
980.7349, 591.0425
981.2170, 591.1078
981.6991, 590.1078
982.1812, 588.2299
982.6633, 586.9810
983.1454, 586.3151
983.6276, 585.7768
984.1097, 585.1456
984.5918, 584.4783
985.0739, 583.9017
985.5560, 583.3188
986.0381, 582.4362
986.5203, 580.8798
987.0024, 579.8090
987.4845, 579.4578
987.9666, 579.4803
988.4487, 579.7559
988.9308, 579.9830
989.4130, 579.0901
989.8951, 576.7617
990.3772, 574.4397
990.8593, 573.1962
991.3414, 572.0922
991.8235, 570.1371
992.3057, 567.2013
992.7878, 566.2449
993.2699, 567.6293
993.7520, 568.6737
994.2341, 567.4939
994.7162, 565.3982
995.1984, 564.7340
995.6805, 565.0325
996.1626, 565.0369
996.6447, 564.0462
997.1268, 562.9657
997.6089, 561.7130
998.0911, 560.6861
998.5732, 560.7519
999.0553, 561.8917
999.5374, 562.0154
1000.020, 560.7986
1000.502, 559.1592
1000.984, 557.6179
1001.466, 556.2953
1001.948, 555.3178
1002.430, 554.7203
1002.912, 554.4146
1003.394, 554.5378
1003.876, 554.6357
1004.359, 554.4821
1004.841, 554.1951
1005.323, 554.3207
1005.805, 554.6861
1006.287, 554.5674
1006.769, 553.4006
1007.251, 551.9963
1007.733, 550.3117
1008.216, 548.8839
1008.698, 548.4849
1009.180, 549.3972
1009.662, 550.4093
1010.144, 551.5867
1010.626, 552.2161
1011.108, 551.0106
1011.590, 549.0679
1012.072, 548.0353
1012.555, 547.9923
1013.037, 548.1919
1013.519, 548.4766
1014.001, 548.8785
1014.483, 549.6561
1014.965, 550.4619
1015.447, 549.9830
1015.929, 548.3229
1016.411, 546.4820
1016.894, 544.5630
1017.376, 543.1123
1017.858, 542.9839
1018.340, 543.4523
1018.822, 543.6066
1019.304, 543.1201
1019.786, 542.8836
1020.268, 542.9857
1020.751, 543.1191
1021.233, 542.9372
1021.715, 542.6335
1022.197, 542.8666
1022.679, 543.5300
1023.161, 543.9363
1023.643, 543.6230
1024.125, 543.1049
1024.607, 542.3348
1025.090, 541.5873
1025.572, 541.6191
1026.054, 542.5135
1026.536, 542.7848
1027.018, 542.0533
1027.500, 541.1077
1027.982, 540.6664
1028.464, 540.5503
1028.947, 540.6483
1029.429, 541.0510
1029.911, 541.0252
1030.393, 540.2950
1030.875, 539.6212
1031.357, 539.5101
1031.839, 539.7184
1032.321, 539.1890
1032.803, 538.1553
1033.286, 537.5677
1033.768, 538.5608
1034.250, 539.3558
1034.732, 538.8108
1035.214, 537.7690
1035.696, 537.5250
1036.178, 538.2979
1036.660, 538.5593
1037.143, 538.1423
1037.625, 537.5855
1038.107, 537.4301
1038.589, 537.3812
1039.071, 537.0748
1039.553, 536.4874
1040.035, 535.8145
1040.517, 534.7904
1041.000, 534.1614
1041.482, 534.2037
1041.964, 534.7202
1042.446, 535.4096
1042.928, 536.1925
1043.410, 536.6752
1043.892, 536.6621
1044.374, 536.5928
1044.856, 536.7870
1045.339, 537.0110
1045.821, 537.0308
1046.303, 536.8016
1046.785, 536.6821
1047.267, 536.6619
1047.749, 536.8476
1048.231, 537.7155
1048.713, 538.5410
1049.195, 538.0970
1049.677, 536.8135
1050.160, 535.9521
1050.642, 536.1312
1051.124, 536.4155
1051.606, 536.7266
1052.088, 537.0644
1052.570, 537.5076
1053.052, 537.9822
1053.534, 538.0801
1054.017, 537.7376
1054.499, 537.5508
1054.981, 537.9732
1055.463, 538.6005
1055.945, 539.2880
1056.427, 539.9818
1056.909, 540.3326
1057.391, 540.3201
1057.874, 540.2786
1058.356, 540.3928
1058.838, 540.3931
1059.320, 539.5948
1059.802, 538.6195
1060.284, 538.3527
1060.766, 539.2639
1061.248, 540.3170
1061.730, 541.5599
1062.213, 542.7529
1062.695, 543.6666
1063.177, 544.3918
1063.659, 545.4604
1064.141, 546.7209
1064.623, 547.4495
1065.105, 546.3316
1065.587, 545.6846
1066.070, 546.9485
1066.552, 548.9386
1067.034, 549.9000
1067.516, 549.7964
1067.998, 549.5587
1068.480, 549.2567
1068.962, 549.2037
1069.444, 550.1478
1069.927, 551.1394
1070.409, 551.2122
1070.891, 550.2932
1071.373, 549.5369
1071.855, 548.9332
1072.337, 548.6503
1072.819, 548.7986
1073.301, 549.2029
1073.783, 549.7121
1074.266, 550.2053
1074.748, 550.4496
1075.230, 550.4301
1075.712, 550.0128
1076.194, 548.8047
1076.676, 547.5746
1077.158, 546.6904
1077.640, 546.1648
1078.122, 546.4352
1078.604, 547.3450
1079.087, 547.5734
1079.569, 545.7532
1080.051, 543.6832
1080.533, 542.1303
1081.015, 541.1799
1081.497, 540.9774
1081.979, 541.8046
1082.461, 541.9788
1082.944, 541.2986
1083.426, 540.4882
1083.908, 540.3835
1084.390, 540.4565
1084.872, 540.0013
1085.354, 539.0305
1085.836, 538.2336
1086.318, 537.6100
1086.801, 537.3775
1087.283, 537.7488
1087.765, 538.2886
1088.247, 538.3400
1088.729, 537.8919
1089.211, 536.6296
1089.693, 534.1320
1090.175, 532.6817
1090.657, 534.4583
1091.140, 536.3759
1091.622, 536.7710
1092.104, 535.8079
1092.586, 534.7972
1093.068, 533.7156
1093.550, 532.3168
1094.032, 530.0187
1094.514, 528.0515
1094.997, 527.3467
1095.479, 527.5136
1095.961, 528.0654
1096.443, 529.1801
1096.925, 529.8666
1097.407, 530.0621
1097.889, 530.2383
1098.371, 530.9149
1098.854, 531.6760
1099.336, 531.9811
1099.818, 531.8952
1100.300, 531.7118
1100.782, 531.3051
1101.264, 531.1699
1101.746, 531.4844
1102.228, 531.8577
1102.710, 531.7009
1103.193, 531.2080
1103.675, 530.7247
1104.157, 530.3004
1104.639, 530.3607
1105.121, 532.2164
1105.603, 533.2216
1106.085, 531.8920
1106.567, 529.2823
1107.049, 528.8459
1107.531, 530.3082
1108.014, 531.6194
1108.496, 532.3235
1108.978, 532.4394
1109.460, 531.1825
1109.942, 529.9378
1110.424, 530.1812
1110.906, 532.0073
1111.388, 532.5403
1111.871, 531.6901
1112.353, 530.7994
1112.835, 530.3057
1113.317, 530.3983
1113.799, 531.8074
1114.281, 533.7862
1114.763, 535.1189
1115.245, 535.6213
1115.728, 535.2361
1116.210, 533.6334
1116.692, 532.2752
1117.174, 532.8538
1117.656, 534.2836
1118.138, 534.3630
1118.620, 533.4259
1119.102, 533.0466
1119.584, 534.5342
1120.067, 535.5228
1120.549, 535.5513
1121.031, 535.0889
1121.513, 534.6281
1121.995, 534.2050
1122.477, 533.8828
1122.959, 533.6691
1123.441, 533.8814
1123.924, 535.5825
1124.406, 536.7011
1124.888, 536.0764
1125.370, 534.4272
1125.852, 533.7015
1126.334, 533.8442
1126.816, 534.2827
1127.298, 535.0020
1127.781, 535.4259
1128.263, 534.5812
1128.745, 533.7008
1129.227, 534.0309
1129.709, 535.5005
1130.191, 536.1398
1130.673, 535.9176
1131.155, 535.3243
1131.637, 534.1298
1132.120, 533.4177
1132.602, 535.2002
1133.084, 537.8098
1133.566, 538.6827
1134.048, 536.6751
1134.530, 536.0544
1135.012, 537.1696
1135.494, 538.2409
1135.976, 537.7944
1136.458, 536.7999
1136.941, 536.8061
1137.423, 537.5363
1137.905, 538.3095
1138.387, 538.9581
1138.869, 539.6661
1139.351, 540.5642
1139.833, 541.2455
1140.315, 541.1332
1140.798, 540.5419
1141.280, 540.1880
1141.762, 540.0772
1142.244, 540.0461
1142.726, 540.1443
1143.208, 540.1378
1143.690, 539.8787
1144.172, 539.6123
1144.655, 539.7717
1145.137, 540.2576
1145.619, 540.7817
1146.101, 541.3138
1146.583, 541.4440
1147.065, 540.1745
1147.547, 539.3217
1148.029, 539.6755
1148.511, 541.0297
1148.994, 543.3719
1149.476, 546.4525
1149.958, 547.7775
1150.440, 546.5042
1150.922, 544.8425
1151.404, 543.7579
1151.886, 543.4633
1152.368, 544.5647
1152.851, 546.7619
1153.333, 547.1493
1153.815, 545.7083
1154.297, 544.5658
1154.779, 544.5557
1155.261, 545.0157
1155.743, 545.4865
1156.225, 546.0050
1156.708, 546.8395
1157.190, 548.2663
1157.672, 547.6450
1158.154, 544.6526
1158.636, 542.4717
1159.118, 543.5628
1159.600, 545.6373
1160.082, 546.4529
1160.564, 546.3694
1161.047, 545.9366
1161.529, 544.8366
1162.011, 544.4598
1162.493, 544.9464
1162.975, 545.6162
1163.457, 546.0035
1163.939, 546.2164
1164.421, 546.2903
1164.903, 546.3094
1165.385, 546.5382
1165.868, 547.3792
1166.350, 547.6788
1166.832, 547.1548
1167.314, 546.5911
1167.796, 546.9783
1168.278, 547.8082
1168.760, 548.1639
1169.242, 548.0688
1169.725, 548.0214
1170.207, 548.1904
1170.689, 548.3958
1171.171, 548.5787
1171.653, 548.8624
1172.135, 549.5961
1172.617, 550.5167
1173.099, 551.0427
1173.582, 551.1090
1174.064, 550.9798
1174.546, 550.4655
1175.028, 550.1161
1175.510, 550.0092
1175.992, 550.2189
1176.474, 551.2360
1176.956, 552.6677
1177.438, 553.2004
1177.921, 552.4597
1178.403, 552.0098
1178.885, 552.9720
1179.367, 553.7964
1179.849, 553.7498
1180.331, 553.2152
1180.813, 553.3940
1181.295, 554.1271
1181.778, 554.8296
1182.260, 555.3644
1182.742, 555.7668
1183.224, 556.0154
1183.706, 556.1752
1184.188, 556.3306
1184.670, 556.4248
1185.152, 556.0195
1185.635, 555.2252
1186.117, 554.5874
1186.599, 554.2386
1187.081, 554.2325
1187.563, 554.9338
1188.045, 555.7050
1188.527, 556.0323
1189.009, 555.9598
1189.491, 556.0458
1189.974, 556.2905
1190.456, 556.7052
1190.938, 557.7930
1191.420, 558.3807
1191.902, 556.8895
1192.384, 555.3625
1192.866, 556.2385
1193.348, 559.6082
1193.830, 560.4757
1194.313, 559.0192
1194.795, 557.5471
1195.277, 557.4319
1195.759, 557.6755
1196.241, 557.6901
1196.723, 557.7985
1197.205, 558.6736
1197.687, 560.3704
1198.169, 560.4319
1198.652, 558.8248
1199.134, 557.5701
1199.616, 558.5923
1200.098, 559.8091
1200.580, 559.7902
1201.062, 559.2479
1201.544, 559.4890
1202.026, 560.5496
1202.509, 560.9962
1202.991, 560.6980
1203.473, 560.3487
1203.955, 560.0948
1204.437, 560.3007
1204.919, 561.9526
1205.401, 564.0028
1205.883, 563.6563
1206.365, 560.8186
1206.848, 560.3599
1207.330, 563.0701
1207.812, 565.4498
1208.294, 563.8663
1208.776, 561.8881
1209.258, 562.4664
1209.740, 564.5859
1210.222, 565.2603
1210.705, 564.4827
1211.187, 563.9622
1211.669, 563.9975
1212.151, 564.4141
1212.633, 565.6015
1213.115, 566.6575
1213.597, 566.6342
1214.079, 565.9251
1214.562, 566.0599
1215.044, 567.0123
1215.526, 567.4254
1216.008, 566.8823
1216.490, 566.3492
1216.972, 566.6790
1217.454, 567.2305
1217.936, 567.5202
1218.418, 567.5840
1218.901, 567.5338
1219.383, 567.3890
1219.865, 567.8673
1220.347, 569.3826
1220.829, 570.6897
1221.311, 570.8763
1221.793, 570.4385
1222.275, 569.6110
1222.757, 568.5112
1223.240, 567.8801
1223.722, 567.7017
1224.204, 567.7247
1224.686, 567.9144
1225.168, 568.1691
1225.650, 568.6339
1226.132, 568.9429
1226.614, 568.6633
1227.096, 567.9441
1227.579, 568.1956
1228.061, 569.3278
1228.543, 570.6028
1229.025, 571.9114
1229.507, 572.8541
1229.989, 573.3008
1230.471, 573.1039
1230.953, 571.8209
1231.436, 569.7140
1231.918, 569.6170
1232.400, 571.2777
1232.882, 573.0267
1233.364, 574.4624
1233.846, 575.3109
1234.328, 574.9415
1234.810, 574.3909
1235.292, 574.4628
1235.775, 575.0549
1236.257, 575.3343
1236.739, 575.3344
1237.221, 575.2141
1237.703, 574.8434
1238.185, 574.6904
1238.667, 574.9072
1239.149, 575.4503
1239.632, 576.5226
1240.114, 577.9288
1240.596, 578.3969
1241.078, 578.1646
1241.560, 578.2694
1242.042, 579.7621
1242.524, 580.7604
1243.006, 580.5790
1243.489, 580.0856
1243.971, 579.7427
1244.453, 579.6570
1244.935, 580.7693
1245.417, 582.6306
1245.899, 583.5352
1246.381, 581.8822
1246.863, 580.4662
1247.345, 579.5792
1247.828, 579.2456
1248.310, 579.6733
1248.792, 580.6291
1249.274, 581.7953
1249.756, 582.9639
1250.238, 583.4732
1250.720, 581.7620
1251.202, 581.5825
1251.684, 583.6736
1252.167, 586.1604
1252.649, 587.9168
1253.131, 588.6805
1253.613, 587.2505
1254.095, 584.3610
1254.577, 582.4130
1255.059, 582.6133
1255.541, 582.5466
1256.023, 581.9440
1256.506, 581.5785
1256.988, 582.3832
1257.470, 583.6724
1257.952, 584.4764
1258.434, 584.9436
1258.916, 585.6412
1259.398, 587.1317
1259.880, 587.1989
1260.363, 585.4337
1260.845, 583.9935
1261.327, 585.1663
1261.809, 587.1942
1262.291, 588.5886
1262.773, 589.3029
1263.255, 589.4111
1263.737, 588.8760
1264.219, 587.8993
1264.702, 586.4431
1265.184, 585.2772
1265.666, 584.9725
1266.148, 585.2053
1266.630, 585.9599
1267.112, 587.0153
1267.594, 587.8997
1268.076, 588.6050
1268.559, 589.4448
1269.041, 590.4343
1269.523, 591.2100
1270.005, 591.8531
1270.487, 591.8611
1270.969, 590.0677
1271.451, 587.9666
1271.933, 587.7294
1272.416, 589.2133
1272.898, 590.8324
1273.380, 592.4053
1273.862, 593.1902
1274.344, 591.9021
1274.826, 590.8145
1275.308, 590.8024
1275.790, 591.2573
1276.272, 591.5612
1276.755, 591.6791
1277.237, 591.2363
1277.719, 590.3605
1278.201, 589.9978
1278.683, 590.8865
1279.165, 591.9696
1279.647, 593.2206
1280.129, 594.2728
1280.611, 594.5217
1281.094, 594.3768
1281.576, 594.8908
1282.058, 595.9014
1282.540, 596.3354
1283.022, 595.4694
1283.504, 594.7884
1283.986, 594.3615
1284.468, 594.3930
1284.950, 595.8148
1285.433, 597.3108
1285.915, 596.4521
1286.397, 594.0486
1286.879, 593.6116
1287.361, 596.0377
1287.843, 597.6940
1288.325, 598.2134
1288.807, 598.3525
1289.290, 598.6407
1289.772, 598.9485
1290.254, 599.2452
1290.736, 599.4404
1291.218, 599.2279
1291.700, 598.5140
1292.182, 598.9119
1292.664, 600.5153
1293.146, 601.6999
1293.629, 600.7203
1294.111, 599.6589
1294.593, 600.0433
1295.075, 600.7985
1295.557, 600.2807
1296.039, 598.7761
1296.521, 599.0140
1297.003, 600.8815
1297.486, 602.2274
1297.968, 601.1391
1298.450, 600.5539
1298.932, 601.4026
1299.414, 602.7202
1299.896, 603.5983
1300.378, 604.0738
1300.860, 604.2051
1301.343, 604.0394
1301.825, 603.7173
##END=



