##NAMES=Tantalite-(Mn)
##RRUFFID=R060252
##IDEAL CHEMISTRY=Mn^2+^Ta^5+^_2_O_6_
##LOCALITY=Kohtokay mine, Xinjiang Autonomous Region, China
##OWNER=RRUFF
##SOURCE=William W. Pinch
##DESCRIPTION=Reddish-brown fragment
##STATUS=The identification of this mineral is confirmed by single-crystal X-ray diffraction and chemical analysis.
##URL=rruff.info/R060252
##MEASURED CHEMISTRY=(Mn^2+^_0.93_Fe^2+^_0.07_)_Σ=1_(Ta_1.44_Nb_0.56_)_Σ=2_O_6_
89.60352, 50.61663
90.08563, 55.23972
90.56775, 56.11596
91.04987, 50.80111
91.53198, 43.97666
92.01410, 42.63234
92.49622, 46.45808
92.97833, 49.91170
93.46045, 46.74450
93.94257, 38.76340
94.42468, 32.15501
94.90680, 29.09800
95.38892, 29.09077
95.87103, 30.87952
96.35315, 34.69413
96.83527, 39.34863
97.31738, 43.81348
97.79950, 48.13009
98.28162, 51.27630
98.76373, 52.85028
99.24585, 52.84164
99.72797, 51.12153
100.2101, 46.87748
100.6922, 41.68538
101.1743, 39.30956
101.6564, 40.29575
102.1385, 42.55649
102.6207, 45.47135
103.1028, 49.99471
103.5849, 51.96075
104.0670, 50.12870
104.5491, 45.08970
105.0313, 41.51682
105.5134, 40.68524
105.9955, 39.96735
106.4776, 36.98446
106.9597, 27.77674
107.4418, 21.99811
107.9240, 22.26664
108.4061, 29.57987
108.8882, 35.17228
109.3703, 37.82795
109.8524, 39.22474
110.3345, 41.10022
110.8167, 47.00187
111.2988, 50.16792
111.7809, 47.73260
112.2630, 36.52474
112.7451, 28.72998
113.2272, 26.69167
113.7094, 28.97973
114.1915, 33.23408
114.6736, 43.35228
115.1557, 52.14994
115.6378, 55.64566
116.1199, 49.96463
116.6021, 44.63104
117.0842, 43.08492
117.5663, 44.50738
118.0484, 46.43833
118.5305, 47.87165
119.0126, 49.35681
119.4948, 51.23568
119.9769, 52.41984
120.4590, 55.23986
120.9411, 62.30278
121.4232, 73.07378
121.9053, 83.36211
122.3875, 90.88515
122.8696, 96.20742
123.3517, 100.1129
123.8338, 98.41923
124.3159, 97.74799
124.7980, 106.7857
125.2802, 125.8598
125.7623, 146.6084
126.2444, 161.5279
126.7265, 172.1827
127.2086, 182.7428
127.6907, 194.8747
128.1729, 208.2707
128.6550, 222.9053
129.1371, 239.2830
129.6192, 255.0770
130.1013, 267.3604
130.5834, 276.2833
131.0656, 283.9551
131.5477, 292.5448
132.0298, 301.2446
132.5119, 305.2692
132.9940, 302.8501
133.4761, 297.5679
133.9583, 296.6594
134.4404, 300.4321
134.9225, 305.1667
135.4046, 307.3750
135.8867, 306.9516
136.3688, 310.2287
136.8510, 319.8011
137.3331, 333.1356
137.8152, 340.8626
138.2973, 341.8870
138.7794, 340.3363
139.2615, 338.5894
139.7437, 335.7314
140.2258, 336.9488
140.7079, 345.0262
141.1900, 359.4445
141.6721, 368.4139
142.1542, 370.3612
142.6364, 368.9085
143.1185, 367.5284
143.6006, 365.6490
144.0827, 365.0235
144.5648, 366.1880
145.0469, 369.3981
145.5291, 373.0490
146.0112, 376.9310
146.4933, 381.4028
146.9754, 387.3893
147.4575, 398.8200
147.9396, 406.8948
148.4218, 407.9621
148.9039, 396.3992
149.3860, 391.4584
149.8681, 395.2952
150.3502, 405.5729
150.8323, 417.8206
151.3145, 435.6129
151.7966, 452.2457
152.2787, 465.3283
152.7608, 470.1603
153.2429, 478.4931
153.7250, 494.1436
154.2072, 514.2403
154.6893, 530.7341
155.1714, 532.7526
155.6535, 533.4569
156.1356, 542.6832
156.6177, 566.9750
157.0999, 593.1528
157.5820, 620.3176
158.0641, 647.9490
158.5462, 673.7448
159.0283, 695.2657
159.5104, 715.9413
159.9926, 738.0085
160.4747, 763.2825
160.9568, 788.7429
161.4389, 813.4247
161.9210, 837.1528
162.4031, 861.2861
162.8853, 886.3781
163.3674, 911.8527
163.8495, 937.1808
164.3316, 965.1826
164.8137, 990.5587
165.2958, 1009.912
165.7780, 1023.398
166.2601, 1035.206
166.7422, 1048.262
167.2243, 1060.978
167.7064, 1071.173
168.1885, 1072.167
168.6707, 1074.450
169.1528, 1084.795
169.6349, 1103.543
170.1170, 1129.451
170.5991, 1161.085
171.0812, 1199.537
171.5634, 1246.120
172.0455, 1306.668
172.5276, 1373.190
173.0097, 1440.315
173.4918, 1509.356
173.9739, 1571.132
174.4561, 1623.529
174.9382, 1664.623
175.4203, 1689.620
175.9024, 1698.329
176.3845, 1688.863
176.8666, 1655.872
177.3488, 1596.254
177.8309, 1522.603
178.3130, 1441.775
178.7951, 1355.814
179.2772, 1275.646
179.7593, 1201.346
180.2415, 1137.375
180.7236, 1092.501
181.2057, 1070.058
181.6878, 1060.846
182.1699, 1052.944
182.6520, 1047.006
183.1342, 1046.641
183.6163, 1055.830
184.0984, 1072.646
184.5805, 1091.517
185.0626, 1112.182
185.5447, 1133.836
186.0269, 1155.026
186.5090, 1175.748
186.9911, 1198.263
187.4732, 1223.700
187.9553, 1252.275
188.4374, 1284.086
188.9196, 1320.159
189.4017, 1358.839
189.8838, 1395.770
190.3659, 1431.223
190.8480, 1469.135
191.3301, 1513.169
191.8123, 1563.366
192.2944, 1616.303
192.7765, 1671.429
193.2586, 1728.936
193.7407, 1787.073
194.2228, 1845.487
194.7050, 1907.098
195.1871, 1976.585
195.6692, 2053.858
196.1513, 2128.305
196.6334, 2198.477
197.1155, 2263.765
197.5977, 2323.587
198.0798, 2377.876
198.5619, 2425.809
199.0440, 2469.583
199.5261, 2510.498
200.0082, 2532.427
200.4904, 2533.347
200.9725, 2512.586
201.4546, 2463.778
201.9367, 2383.571
202.4188, 2284.531
202.9009, 2178.662
203.3831, 2065.259
203.8652, 1946.085
204.3473, 1818.680
204.8294, 1684.442
205.3115, 1558.958
205.7936, 1442.366
206.2758, 1334.164
206.7579, 1232.810
207.2400, 1138.344
207.7221, 1054.704
208.2042, 984.0456
208.6863, 925.9447
209.1685, 873.3066
209.6506, 826.0048
210.1327, 783.6503
210.6148, 746.0198
211.0969, 713.9736
211.5790, 684.8849
212.0612, 658.0653
212.5433, 633.7204
213.0254, 611.6965
213.5075, 591.1665
213.9896, 573.9679
214.4717, 563.5125
214.9538, 562.3505
215.4360, 560.6610
215.9181, 555.6761
216.4002, 547.2120
216.8823, 538.7421
217.3644, 529.4406
217.8465, 521.0523
218.3287, 515.7114
218.8108, 514.0095
219.2929, 514.0486
219.7750, 515.8285
220.2571, 519.7039
220.7392, 521.8630
221.2214, 520.8253
221.7035, 519.5787
222.1856, 522.3802
222.6677, 531.3160
223.1498, 539.8931
223.6319, 546.2225
224.1141, 550.1694
224.5962, 553.3052
225.0783, 554.5641
225.5604, 555.9109
226.0425, 560.3478
226.5246, 569.7316
227.0068, 578.5139
227.4889, 584.5676
227.9710, 587.2477
228.4531, 592.2762
228.9352, 601.0333
229.4173, 610.9755
229.8995, 618.2272
230.3816, 620.5975
230.8637, 624.4264
231.3458, 631.6343
231.8279, 642.8889
232.3100, 653.8719
232.7922, 664.5648
233.2743, 674.9625
233.7564, 684.8199
234.2385, 692.2095
234.7206, 702.3997
235.2027, 717.2808
235.6849, 737.6020
236.1670, 757.9398
236.6491, 779.1962
237.1312, 799.7570
237.6133, 817.4866
238.0954, 832.0365
238.5776, 844.7137
239.0597, 856.0299
239.5418, 866.0652
240.0239, 873.6454
240.5060, 879.2577
240.9881, 882.0329
241.4703, 881.0687
241.9524, 877.0690
242.4345, 868.0137
242.9166, 852.1519
243.3987, 828.1974
243.8808, 806.6409
244.3630, 787.5620
244.8451, 770.6161
245.3272, 755.2678
245.8093, 740.7540
246.2914, 729.1412
246.7735, 720.4299
247.2557, 714.4064
247.7378, 713.6705
248.2199, 719.7835
248.7020, 729.6088
249.1841, 739.7896
249.6662, 750.0260
250.1484, 761.1677
250.6305, 773.4394
251.1126, 786.7311
251.5947, 800.9777
252.0768, 815.9327
252.5589, 831.8768
253.0411, 849.1019
253.5232, 867.4334
254.0053, 886.9948
254.4874, 907.8719
254.9695, 930.1671
255.4516, 953.2661
255.9338, 977.0182
256.4159, 1001.740
256.8980, 1026.989
257.3801, 1051.814
257.8622, 1079.840
258.3444, 1110.804
258.8265, 1144.939
259.3086, 1186.055
259.7907, 1234.427
260.2728, 1288.198
260.7549, 1344.865
261.2371, 1404.540
261.7192, 1467.746
262.2013, 1532.868
262.6834, 1601.059
263.1655, 1678.810
263.6476, 1770.688
264.1298, 1865.760
264.6119, 1959.435
265.0940, 2053.069
265.5761, 2138.691
266.0582, 2217.180
266.5403, 2286.320
267.0225, 2335.129
267.5046, 2362.568
267.9867, 2370.902
268.4688, 2360.103
268.9509, 2327.700
269.4330, 2284.924
269.9152, 2229.328
270.3973, 2165.058
270.8794, 2110.814
271.3615, 2068.085
271.8436, 2031.385
272.3257, 1998.987
272.8079, 1971.379
273.2900, 1943.936
273.7721, 1915.850
274.2542, 1887.646
274.7363, 1860.082
275.2184, 1832.909
275.7006, 1807.618
276.1827, 1784.900
276.6648, 1764.393
277.1469, 1750.470
277.6290, 1745.681
278.1111, 1745.089
278.5933, 1737.532
279.0754, 1722.149
279.5575, 1704.429
280.0396, 1689.817
280.5217, 1678.513
281.0038, 1655.368
281.4860, 1619.041
281.9681, 1571.833
282.4502, 1517.157
282.9323, 1454.943
283.4144, 1386.193
283.8965, 1308.361
284.3787, 1223.026
284.8608, 1140.045
285.3429, 1059.032
285.8250, 981.9999
286.3071, 911.4315
286.7892, 847.3301
287.2714, 789.8121
287.7535, 739.3450
288.2356, 695.2899
288.7177, 657.3503
289.1998, 625.4666
289.6819, 597.6481
290.1641, 571.8071
290.6462, 547.9904
291.1283, 526.5158
291.6104, 507.9128
292.0925, 491.7497
292.5746, 478.1361
293.0568, 467.1992
293.5389, 456.3471
294.0210, 441.6664
294.5031, 424.4667
294.9852, 410.2144
295.4673, 401.5941
295.9495, 396.5563
296.4316, 391.0805
296.9137, 385.2430
297.3958, 381.0938
297.8779, 381.9481
298.3600, 385.9054
298.8422, 388.2480
299.3243, 387.4726
299.8064, 384.7845
300.2885, 380.3122
300.7706, 374.6090
301.2527, 371.4127
301.7349, 375.1010
302.2170, 382.8283
302.6991, 389.8303
303.1812, 395.2866
303.6633, 399.5078
304.1454, 402.0693
304.6276, 403.4558
305.1097, 405.4635
305.5918, 409.2275
306.0739, 414.1883
306.5560, 419.8772
307.0381, 426.6349
307.5203, 433.0086
308.0024, 436.6657
308.4845, 438.9420
308.9666, 442.9693
309.4487, 451.3096
309.9308, 461.5195
310.4130, 471.7119
310.8951, 481.7364
311.3772, 491.2322
311.8593, 498.2448
312.3414, 504.7197
312.8235, 513.8113
313.3057, 529.3181
313.7878, 546.0311
314.2699, 560.0433
314.7520, 570.8656
315.2341, 583.7745
315.7162, 601.5823
316.1984, 622.6758
316.6805, 644.9911
317.1626, 669.1627
317.6447, 693.4579
318.1268, 717.7292
318.6089, 742.0485
319.0911, 764.4906
319.5732, 785.4923
320.0553, 803.9021
320.5374, 818.6202
321.0195, 834.1092
321.5016, 841.1229
321.9838, 834.8395
322.4659, 817.3019
322.9480, 798.4520
323.4301, 783.8391
323.9122, 765.7523
324.3943, 739.9262
324.8765, 698.3112
325.3586, 659.7277
325.8407, 624.8697
326.3228, 594.1199
326.8049, 568.3559
327.2870, 550.9620
327.7692, 536.0118
328.2513, 521.7804
328.7334, 509.2867
329.2155, 495.4128
329.6976, 477.0365
330.1797, 458.2682
330.6619, 445.9736
331.1440, 444.9842
331.6261, 443.8323
332.1082, 438.5864
332.5903, 428.0667
333.0724, 422.7350
333.5546, 425.4993
334.0367, 430.7883
334.5188, 432.3788
335.0009, 428.3756
335.4830, 425.0303
335.9651, 423.8472
336.4473, 424.5856
336.9294, 424.2981
337.4115, 422.7418
337.8936, 420.6519
338.3757, 417.9731
338.8578, 413.9701
339.3399, 413.2345
339.8221, 417.1183
340.3042, 424.3123
340.7863, 430.9195
341.2684, 437.2480
341.7505, 441.9810
342.2326, 443.3843
342.7148, 441.4882
343.1969, 441.6996
343.6790, 444.5851
344.1611, 449.3273
344.6432, 454.1981
345.1253, 459.2130
345.6075, 466.0304
346.0896, 477.2837
346.5717, 491.4464
347.0538, 500.4733
347.5359, 503.5585
348.0180, 506.0306
348.5002, 515.5224
348.9823, 530.2399
349.4644, 542.6071
349.9465, 547.4968
350.4286, 549.5682
350.9107, 557.6957
351.3929, 571.6898
351.8750, 586.3591
352.3571, 596.4019
352.8392, 604.3146
353.3213, 614.7511
353.8034, 629.6750
354.2856, 646.4652
354.7677, 662.7726
355.2498, 678.8102
355.7319, 695.6812
356.2140, 715.1284
356.6961, 735.1812
357.1783, 753.9968
357.6604, 770.9495
358.1425, 787.4134
358.6246, 803.6199
359.1067, 820.0687
359.5888, 837.8639
360.0710, 857.8861
360.5531, 879.0414
361.0352, 900.9868
361.5173, 923.7087
361.9994, 946.9099
362.4815, 970.6566
362.9637, 994.7513
363.4458, 1018.984
363.9279, 1042.476
364.4100, 1067.131
364.8921, 1093.960
365.3742, 1122.907
365.8564, 1150.116
366.3385, 1172.508
366.8206, 1194.575
367.3027, 1219.021
367.7848, 1250.946
368.2669, 1279.601
368.7491, 1301.898
369.2312, 1320.178
369.7133, 1340.624
370.1954, 1365.550
370.6775, 1390.278
371.1596, 1412.881
371.6418, 1433.086
372.1239, 1452.336
372.6060, 1469.472
373.0881, 1486.303
373.5702, 1504.965
374.0523, 1523.868
374.5345, 1548.457
375.0166, 1580.748
375.4987, 1620.844
375.9808, 1663.962
376.4629, 1710.185
376.9450, 1760.181
377.4272, 1816.124
377.9093, 1878.585
378.3914, 1942.827
378.8735, 2006.638
379.3556, 2073.176
379.8377, 2154.997
380.3199, 2252.486
380.8020, 2356.141
381.2841, 2459.216
381.7662, 2563.405
382.2483, 2672.155
382.7304, 2786.689
383.2126, 2906.106
383.6947, 3032.449
384.1768, 3165.241
384.6589, 3300.079
385.1410, 3436.242
385.6231, 3574.583
386.1053, 3718.519
386.5874, 3867.480
387.0695, 4023.759
387.5516, 4193.267
388.0337, 4372.897
388.5158, 4555.836
388.9980, 4741.355
389.4801, 4929.962
389.9622, 5121.399
390.4443, 5314.077
390.9264, 5506.323
391.4085, 5702.664
391.8907, 5892.868
392.3728, 6070.289
392.8549, 6232.764
393.3370, 6378.831
393.8191, 6510.806
394.3012, 6623.945
394.7834, 6710.258
395.2655, 6774.676
395.7476, 6805.249
396.2297, 6797.807
396.7118, 6751.938
397.1939, 6668.972
397.6761, 6544.552
398.1582, 6385.520
398.6403, 6197.609
399.1224, 5967.848
399.6045, 5724.432
400.0866, 5467.798
400.5688, 5197.859
401.0509, 4921.476
401.5330, 4626.123
402.0151, 4337.144
402.4972, 4066.216
402.9793, 3815.025
403.4615, 3576.760
403.9436, 3353.777
404.4257, 3143.414
404.9078, 2945.691
405.3899, 2759.089
405.8720, 2586.376
406.3542, 2428.553
406.8363, 2284.901
407.3184, 2156.174
407.8005, 2042.784
408.2826, 1939.381
408.7647, 1840.343
409.2469, 1746.369
409.7290, 1661.697
410.2111, 1588.050
410.6932, 1521.922
411.1753, 1455.902
411.6574, 1390.942
412.1396, 1330.374
412.6217, 1278.068
413.1038, 1232.107
413.5859, 1188.174
414.0680, 1145.581
414.5501, 1106.147
415.0323, 1071.397
415.5144, 1040.760
415.9965, 1012.274
416.4786, 985.9156
416.9607, 961.2249
417.4428, 937.8228
417.9250, 915.8190
418.4071, 894.3674
418.8892, 872.6443
419.3713, 851.6649
419.8534, 832.6379
420.3355, 815.9569
420.8177, 800.6614
421.2998, 786.5086
421.7819, 773.3678
422.2640, 760.5729
422.7461, 747.4130
423.2282, 735.2892
423.7104, 724.7199
424.1925, 716.0854
424.6746, 707.9019
425.1567, 700.7965
425.6388, 693.7330
426.1209, 685.5443
426.6031, 674.4506
427.0852, 665.2151
427.5673, 658.7360
428.0494, 654.6058
428.5315, 651.1175
429.0136, 648.6660
429.4958, 646.0692
429.9779, 642.6922
430.4600, 638.4474
430.9421, 634.0399
431.4242, 629.6534
431.9063, 624.8054
432.3885, 617.9094
432.8706, 608.9778
433.3527, 602.3265
433.8348, 600.5329
434.3169, 601.8524
434.7990, 601.0085
435.2812, 598.0119
435.7633, 594.3414
436.2454, 590.9778
436.7275, 587.9409
437.2096, 585.2487
437.6917, 583.0182
438.1739, 580.8674
438.6560, 578.4495
439.1381, 575.7917
439.6202, 572.9637
440.1023, 569.1564
440.5844, 565.7600
441.0666, 564.3705
441.5487, 565.1873
442.0308, 565.4432
442.5129, 563.3730
442.9950, 560.2416
443.4771, 557.2560
443.9593, 555.3278
444.4414, 552.9446
444.9235, 548.2822
445.4056, 542.5493
445.8877, 539.8753
446.3698, 545.1241
446.8520, 549.8622
447.3341, 550.0156
447.8162, 542.7476
448.2983, 539.6774
448.7804, 544.2128
449.2625, 550.5705
449.7447, 551.6578
450.2268, 544.6349
450.7089, 538.9745
451.1910, 536.9036
451.6731, 537.6611
452.1552, 537.1395
452.6374, 534.9341
453.1195, 533.0016
453.6016, 532.8557
454.0837, 534.4382
454.5658, 535.7069
455.0479, 536.6158
455.5301, 536.9478
456.0122, 535.7099
456.4943, 533.2768
456.9764, 532.0338
457.4585, 533.9000
457.9406, 536.8698
458.4228, 536.4371
458.9049, 533.1066
459.3870, 531.8530
459.8691, 538.4454
460.3512, 548.3793
460.8333, 556.3385
461.3155, 561.6416
461.7976, 564.0819
462.2797, 561.0288
462.7618, 555.3468
463.2439, 552.0929
463.7260, 554.9115
464.2082, 558.9882
464.6903, 562.5731
465.1724, 565.5736
465.6545, 567.8453
466.1366, 569.3519
466.6187, 570.1026
467.1009, 570.0869
467.5830, 567.9762
468.0651, 566.8842
468.5472, 566.8124
469.0293, 567.7677
469.5114, 569.8571
469.9936, 573.3328
470.4757, 577.4485
470.9578, 582.0245
471.4399, 587.0581
471.9220, 592.2507
472.4041, 597.2311
472.8863, 603.2485
473.3684, 612.1366
473.8505, 623.7862
474.3326, 633.9569
474.8147, 642.0809
475.2968, 648.3351
475.7790, 651.5051
476.2611, 652.2990
476.7432, 655.2701
477.2253, 664.1600
477.7074, 676.1624
478.1895, 686.4508
478.6717, 694.9598
479.1538, 704.6463
479.6359, 719.1776
480.1180, 735.7022
480.6001, 750.7229
481.0822, 763.2585
481.5644, 774.4875
482.0465, 783.1869
482.5286, 791.0639
483.0107, 801.8114
483.4928, 820.8521
483.9749, 839.2855
484.4571, 852.5005
484.9392, 859.3522
485.4213, 868.7301
485.9034, 883.6931
486.3855, 899.9115
486.8676, 914.4906
487.3498, 925.4697
487.8319, 938.6100
488.3140, 955.5565
488.7961, 974.1996
489.2782, 989.0404
489.7603, 998.8182
490.2425, 1008.504
490.7246, 1019.593
491.2067, 1032.119
491.6888, 1046.659
492.1709, 1063.517
492.6530, 1080.266
493.1352, 1094.232
493.6173, 1106.105
494.0994, 1118.506
494.5815, 1131.891
495.0636, 1145.836
495.5457, 1159.620
496.0279, 1173.349
496.5100, 1187.248
496.9921, 1201.655
497.4742, 1216.310
497.9563, 1231.241
498.4384, 1246.524
498.9206, 1261.121
499.4027, 1274.007
499.8848, 1286.355
500.3669, 1299.460
500.8490, 1313.692
501.3311, 1328.240
501.8133, 1343.295
502.2954, 1358.573
502.7775, 1373.589
503.2596, 1388.208
503.7417, 1402.962
504.2238, 1418.102
504.7060, 1433.601
505.1881, 1447.826
505.6702, 1459.990
506.1523, 1472.005
506.6344, 1485.229
507.1165, 1499.781
507.5987, 1514.434
508.0808, 1529.029
508.5629, 1543.375
509.0450, 1556.656
509.5271, 1569.012
510.0092, 1582.343
510.4914, 1598.754
510.9735, 1615.843
511.4556, 1628.060
511.9377, 1635.848
512.4199, 1643.779
512.9020, 1653.456
513.3841, 1665.713
513.8662, 1683.536
514.3483, 1709.267
514.8304, 1730.768
515.3126, 1736.176
515.7947, 1734.263
516.2768, 1736.297
516.7589, 1750.188
517.2410, 1763.744
517.7231, 1771.819
518.2053, 1775.872
518.6874, 1783.342
519.1695, 1797.976
519.6516, 1813.461
520.1337, 1827.212
520.6158, 1838.427
521.0980, 1852.047
521.5801, 1869.190
522.0622, 1887.365
522.5443, 1903.942
523.0264, 1918.381
523.5085, 1934.245
523.9907, 1951.139
524.4728, 1970.705
524.9549, 1996.323
525.4370, 2028.153
525.9191, 2066.150
526.4012, 2113.741
526.8834, 2167.218
527.3655, 2216.817
527.8476, 2262.418
528.3297, 2310.821
528.8118, 2365.968
529.2939, 2426.858
529.7761, 2492.757
530.2582, 2564.079
530.7403, 2637.524
531.2224, 2708.595
531.7045, 2780.435
532.1866, 2857.885
532.6688, 2945.355
533.1509, 3036.169
533.6330, 3130.221
534.1151, 3226.506
534.5972, 3323.235
535.0793, 3420.468
535.5615, 3516.996
536.0436, 3611.990
536.5257, 3706.472
537.0078, 3799.779
537.4899, 3893.722
537.9720, 3983.556
538.4542, 4062.464
538.9363, 4131.157
539.4184, 4189.844
539.9005, 4239.405
540.3826, 4277.497
540.8647, 4300.116
541.3469, 4306.558
541.8290, 4291.075
542.3111, 4246.609
542.7932, 4179.333
543.2753, 4097.113
543.7574, 4000.516
544.2396, 3892.833
544.7217, 3776.798
545.2038, 3651.538
545.6859, 3515.236
546.1680, 3362.744
546.6501, 3208.393
547.1323, 3054.247
547.6144, 2903.403
548.0965, 2758.399
548.5786, 2620.663
549.0607, 2487.893
549.5428, 2359.143
550.0250, 2234.688
550.5071, 2117.066
550.9892, 2005.150
551.4713, 1901.838
551.9534, 1808.385
552.4355, 1725.258
552.9177, 1647.687
553.3998, 1576.094
553.8819, 1508.577
554.3640, 1442.537
554.8461, 1378.402
555.3282, 1318.268
555.8104, 1262.980
556.2925, 1212.551
556.7746, 1168.351
557.2567, 1129.505
557.7388, 1093.140
558.2209, 1057.981
558.7031, 1024.858
559.1852, 995.4087
559.6673, 969.4196
560.1494, 944.3748
560.6315, 919.3779
561.1136, 895.1915
561.5958, 872.2208
562.0779, 849.3860
562.5600, 829.9136
563.0421, 815.2496
563.5242, 803.1986
564.0063, 791.1819
564.4885, 779.2623
564.9706, 767.5929
565.4527, 756.6285
565.9348, 745.7872
566.4169, 731.8361
566.8990, 714.2997
567.3812, 698.2362
567.8633, 686.6234
568.3454, 678.6208
568.8275, 671.1444
569.3096, 664.2532
569.7917, 657.0380
570.2739, 648.0677
570.7560, 638.5557
571.2381, 630.5335
571.7202, 624.7504
572.2023, 619.3021
572.6844, 612.1827
573.1666, 604.7767
573.6487, 599.0248
574.1308, 596.6091
574.6129, 594.8871
575.0950, 594.2264
575.5771, 594.0635
576.0593, 590.8733
576.5414, 581.4242
577.0235, 572.9806
577.5056, 568.6420
577.9877, 568.9943
578.4698, 567.5762
578.9520, 563.5758
579.4341, 559.7990
579.9162, 559.6443
580.3983, 562.7585
580.8804, 563.3969
581.3625, 560.2010
581.8447, 556.0321
582.3268, 554.6583
582.8089, 555.5334
583.2910, 557.1198
583.7731, 560.1305
584.2552, 562.3750
584.7373, 560.3431
585.2194, 555.4557
585.7015, 553.0350
586.1837, 558.2144
586.6658, 564.2292
587.1479, 567.2687
587.6300, 566.4207
588.1121, 566.4611
588.5942, 569.0939
589.0764, 571.9615
589.5585, 573.2582
590.0406, 571.0297
590.5227, 572.1117
591.0048, 577.7308
591.4869, 585.4956
591.9691, 591.3994
592.4512, 595.2540
592.9333, 600.3444
593.4154, 608.1483
593.8975, 617.1276
594.3796, 623.4183
594.8618, 627.5210
595.3439, 632.7805
595.8260, 642.2990
596.3081, 653.3292
596.7902, 662.8492
597.2723, 670.7699
597.7545, 678.8507
598.2366, 686.6139
598.7187, 695.7074
599.2008, 707.7787
599.6829, 724.8560
600.1650, 741.0582
600.6472, 753.9769
601.1293, 766.1792
601.6114, 780.4903
602.0935, 797.4542
602.5756, 815.1801
603.0577, 833.5824
603.5399, 852.5879
604.0220, 872.5942
604.5041, 893.4663
604.9862, 915.0714
605.4683, 938.0628
605.9504, 961.5618
606.4326, 982.7917
606.9147, 1001.837
607.3968, 1021.156
607.8789, 1041.958
608.3610, 1064.116
608.8431, 1087.001
609.3253, 1110.667
609.8074, 1135.654
610.2895, 1164.726
610.7716, 1193.963
611.2537, 1219.948
611.7358, 1240.427
612.2180, 1259.118
612.7001, 1276.072
613.1822, 1291.695
613.6643, 1307.328
614.1464, 1324.176
614.6285, 1337.800
615.1107, 1346.906
615.5928, 1352.151
616.0749, 1356.715
616.5570, 1360.731
617.0391, 1362.324
617.5212, 1359.942
618.0034, 1354.318
618.4855, 1348.022
618.9676, 1340.985
619.4497, 1330.350
619.9318, 1312.736
620.4139, 1290.773
620.8961, 1266.955
621.3782, 1240.516
621.8603, 1215.350
622.3424, 1194.254
622.8245, 1174.641
623.3066, 1153.545
623.7888, 1127.822
624.2709, 1103.976
624.7530, 1083.235
625.2351, 1064.471
625.7172, 1044.794
626.1993, 1022.613
626.6815, 1004.277
627.1636, 992.7473
627.6457, 986.3927
628.1278, 978.1368
628.6099, 967.9688
629.0920, 958.6667
629.5742, 951.2112
630.0563, 946.1440
630.5384, 945.5012
631.0205, 949.3937
631.5026, 952.7557
631.9847, 950.1592
632.4669, 946.2781
632.9490, 945.7292
633.4311, 950.3459
633.9132, 956.2123
634.3953, 962.8339
634.8774, 969.9545
635.3596, 977.5174
635.8417, 987.6266
636.3238, 994.3719
636.8059, 995.5912
637.2880, 993.8737
637.7701, 995.9816
638.2523, 1002.545
638.7344, 1008.393
639.2165, 1011.617
639.6986, 1012.825
640.1807, 1014.796
640.6628, 1017.090
641.1450, 1015.462
641.6271, 1004.985
642.1092, 990.3042
642.5913, 977.2155
643.0734, 966.0505
643.5555, 952.6896
644.0377, 934.6063
644.5198, 913.6577
645.0019, 890.8952
645.4840, 864.1574
645.9661, 840.7510
646.4482, 823.4661
646.9304, 807.7548
647.4125, 788.9529
647.8946, 765.8135
648.3767, 743.0968
648.8588, 720.6639
649.3409, 699.5848
649.8231, 681.9615
650.3052, 667.3680
650.7873, 652.9723
651.2694, 637.2273
651.7515, 621.3020
652.2336, 606.8326
652.7158, 593.7383
653.1979, 580.9156
653.6800, 567.1827
654.1621, 554.2642
654.6442, 543.4611
655.1263, 534.8824
655.6085, 526.2460
656.0906, 517.4846
656.5727, 508.1323
657.0548, 497.5121
657.5369, 484.5878
658.0190, 474.8551
658.5012, 468.9510
658.9833, 465.0611
659.4654, 462.1409
659.9475, 460.1244
660.4296, 456.6114
660.9117, 451.2244
661.3939, 444.7510
661.8760, 437.4052
662.3581, 429.7809
662.8402, 423.2896
663.3223, 418.6635
663.8044, 414.9373
664.2866, 411.9666
664.7687, 409.3789
665.2508, 406.3180
665.7329, 402.0533
666.2150, 397.7941
666.6971, 393.5799
667.1793, 389.5563
667.6614, 386.7628
668.1435, 385.6432
668.6256, 384.8278
669.1077, 383.8511
669.5898, 382.7049
670.0720, 381.5115
670.5541, 380.3342
671.0362, 378.2355
671.5183, 372.9324
672.0004, 366.4911
672.4825, 364.0078
672.9647, 366.1302
673.4468, 368.1404
673.9289, 366.6056
674.4110, 363.2647
674.8931, 359.6113
675.3752, 354.7743
675.8574, 352.1042
676.3395, 353.9709
676.8216, 357.7035
677.3037, 360.3679
677.7858, 361.8031
678.2679, 362.3952
678.7501, 361.8322
679.2322, 360.8215
679.7143, 361.4271
680.1964, 363.6038
680.6785, 363.5866
681.1606, 358.9843
681.6428, 352.6736
682.1249, 348.8449
682.6070, 347.3987
683.0891, 348.1086
683.5712, 354.0991
684.0533, 359.4742
684.5355, 358.7192
685.0176, 352.6039
685.4997, 349.7026
685.9818, 356.5371
686.4639, 363.0383
686.9460, 364.4428
687.4282, 359.9019
687.9103, 357.9001
688.3924, 359.1150
688.8745, 361.2337
689.3566, 362.4398
689.8387, 362.8721
690.3209, 364.5646
690.8030, 367.8329
691.2851, 370.5261
691.7672, 368.2835
692.2493, 364.5197
692.7314, 365.7779
693.2136, 375.5680
693.6957, 384.0234
694.1778, 382.9964
694.6599, 378.2902
695.1420, 377.0356
695.6241, 385.0480
696.1063, 390.9627
696.5884, 392.5184
697.0705, 392.0612
697.5526, 394.0959
698.0347, 399.2693
698.5168, 404.2668
698.9990, 408.1471
699.4811, 411.4793
699.9632, 416.0628
700.4453, 421.5672
700.9274, 425.7982
701.4095, 425.4536
701.8917, 424.7713
702.3738, 429.2525
702.8559, 437.8422
703.3380, 445.4905
703.8201, 450.2294
704.3022, 453.3551
704.7844, 454.5364
705.2665, 453.6108
705.7486, 455.5605
706.2307, 462.8282
706.7128, 469.4927
707.1949, 471.8759
707.6771, 469.8077
708.1592, 469.5541
708.6413, 471.2247
709.1234, 473.9794
709.6055, 477.6440
710.0876, 481.7328
710.5698, 485.6130
711.0519, 489.3431
711.5340, 491.2899
712.0161, 488.6977
712.4982, 484.5172
712.9803, 481.8708
713.4625, 482.7077
713.9446, 482.6630
714.4267, 480.0944
714.9088, 476.7214
715.3909, 474.3782
715.8730, 473.7852
716.3552, 472.0881
716.8373, 468.7905
717.3194, 464.6104
717.8015, 460.1736
718.2836, 455.6893
718.7657, 453.2271
719.2479, 454.2936
719.7300, 456.1691
720.2121, 456.0055
720.6942, 454.1972
721.1763, 451.6150
721.6584, 448.2454
722.1406, 444.5699
722.6227, 439.6744
723.1048, 434.4708
723.5869, 432.7056
724.0690, 437.7214
724.5511, 440.8541
725.0333, 438.4748
725.5154, 432.1442
725.9975, 431.3565
726.4796, 436.6227
726.9617, 441.2997
727.4438, 440.8409
727.9260, 437.5264
728.4081, 436.2861
728.8902, 436.8708
729.3723, 437.1128
729.8544, 434.6182
730.3365, 432.0596
730.8187, 431.7300
731.3008, 434.0004
731.7829, 435.5679
732.2650, 434.2787
732.7471, 433.5879
733.2292, 435.4730
733.7114, 440.5811
734.1935, 444.1736
734.6756, 446.0200
735.1577, 447.2191
735.6398, 449.1029
736.1219, 451.2045
736.6041, 451.3240
737.0862, 449.0670
737.5683, 446.9035
738.0504, 446.2006
738.5325, 447.1702
739.0146, 450.6830
739.4968, 458.8022
739.9789, 464.3755
740.4610, 463.6463
740.9431, 460.3632
741.4252, 458.2513
741.9073, 457.4933
742.3895, 457.4269
742.8716, 457.8708
743.3537, 459.2304
743.8358, 462.8309
744.3179, 468.2547
744.8000, 472.4109
745.2822, 474.6684
745.7643, 475.2440
746.2464, 472.8185
746.7285, 469.2189
747.2106, 467.6336
747.6927, 470.2408
748.1749, 473.8245
748.6570, 478.5851
749.1391, 483.3848
749.6212, 485.6504
750.1033, 483.4714
750.5854, 482.5648
751.0676, 484.4720
751.5497, 487.8085
752.0318, 488.6343
752.5139, 487.0487
752.9960, 486.5915
753.4781, 489.3329
753.9603, 493.1075
754.4424, 495.0707
754.9245, 495.4848
755.4066, 495.0543
755.8887, 492.7534
756.3708, 491.0334
756.8530, 491.1761
757.3351, 492.9734
757.8172, 495.2041
758.2993, 498.6357
758.7814, 501.1295
759.2635, 502.1276
759.7457, 501.6812
760.2278, 499.3302
760.7099, 494.9301
761.1920, 491.9297
761.6741, 493.3727
762.1563, 496.9350
762.6384, 498.9881
763.1205, 499.5818
763.6026, 499.0510
764.0847, 495.9993
764.5668, 493.2140
765.0490, 493.1803
765.5311, 495.9722
766.0132, 496.1747
766.4953, 491.4708
766.9774, 487.1154
767.4595, 485.2469
767.9417, 485.8087
768.4238, 488.3938
768.9059, 493.2326
769.3880, 497.0208
769.8701, 496.4320
770.3522, 493.5610
770.8344, 491.8075
771.3165, 491.3325
771.7986, 491.9802
772.2807, 493.9312
772.7628, 496.7532
773.2449, 500.9655
773.7271, 507.3317
774.2092, 509.8281
774.6913, 505.8087
775.1734, 501.3253
775.6555, 500.1396
776.1376, 502.4450
776.6198, 503.5682
777.1019, 503.3686
777.5840, 503.5011
778.0661, 506.6524
778.5482, 510.6834
779.0303, 511.0014
779.5125, 506.9552
779.9946, 504.1812
780.4767, 508.6235
780.9588, 513.7142
781.4409, 513.8722
781.9230, 505.3237
782.4052, 501.7254
782.8873, 505.2628
783.3694, 510.7124
783.8515, 514.3894
784.3336, 516.2755
784.8157, 517.0286
785.2979, 516.5093
785.7800, 516.1661
786.2621, 517.7799
786.7442, 520.3353
787.2263, 522.2416
787.7084, 523.1844
788.1906, 524.0358
788.6727, 525.5374
789.1548, 526.9526
789.6369, 527.5363
790.1190, 526.5059
790.6011, 526.8710
791.0833, 529.4805
791.5654, 532.0782
792.0475, 532.2367
792.5296, 530.1752
793.0117, 528.0795
793.4938, 525.9188
793.9760, 525.3408
794.4581, 530.0964
794.9402, 536.5159
795.4223, 538.9133
795.9044, 535.0311
796.3865, 532.5676
796.8687, 535.6300
797.3508, 540.4038
797.8329, 543.6930
798.3150, 544.9142
798.7971, 546.1106
799.2792, 547.2599
799.7614, 548.4630
800.2435, 550.0179
800.7256, 551.7872
801.2077, 553.0341
801.6898, 553.6317
802.1719, 554.0731
802.6541, 553.9315
803.1362, 554.2986
803.6183, 556.5220
804.1004, 561.3578
804.5825, 566.5211
805.0646, 572.7418
805.5468, 578.2384
806.0289, 581.5428
806.5110, 582.1544
806.9931, 582.6074
807.4752, 582.9235
807.9573, 583.2197
808.4395, 582.3334
808.9216, 581.6359
809.4037, 585.8146
809.8858, 596.1945
810.3679, 605.6288
810.8500, 607.9453
811.3322, 607.5602
811.8143, 608.3085
812.2964, 610.9725
812.7785, 614.3463
813.2606, 618.0883
813.7427, 622.8204
814.2249, 629.2475
814.7070, 637.5057
815.1891, 645.8116
815.6712, 654.2660
816.1533, 661.7250
816.6354, 665.6938
817.1176, 668.4308
817.5997, 673.7377
818.0818, 682.4536
818.5639, 691.7053
819.0460, 700.6604
819.5281, 709.2419
820.0103, 717.0969
820.4924, 723.4687
820.9745, 731.9030
821.4566, 742.9144
821.9387, 754.9532
822.4208, 767.0635
822.9030, 779.1095
823.3851, 789.3361
823.8672, 797.6840
824.3493, 805.0607
824.8314, 810.4510
825.3135, 816.2400
825.7957, 824.6470
826.2778, 836.0255
826.7599, 849.3988
827.2420, 867.2748
827.7241, 884.7347
828.2062, 899.5091
828.6884, 911.3436
829.1705, 921.7805
829.6526, 930.3452
830.1347, 940.1208
830.6168, 954.2963
831.0989, 971.0339
831.5811, 986.9785
832.0632, 1001.880
832.5453, 1016.896
833.0274, 1032.680
833.5095, 1048.620
833.9916, 1063.927
834.4738, 1078.366
834.9559, 1095.029
835.4380, 1115.139
835.9201, 1135.030
836.4022, 1153.020
836.8843, 1169.116
837.3665, 1182.026
837.8486, 1192.026
838.3307, 1204.230
838.8128, 1224.859
839.2949, 1247.331
839.7770, 1264.967
840.2592, 1278.200
840.7413, 1290.664
841.2234, 1301.396
841.7055, 1314.005
842.1876, 1330.867
842.6697, 1350.919
843.1519, 1367.355
843.6340, 1379.892
844.1161, 1390.499
844.5982, 1398.489
845.0803, 1406.304
845.5624, 1419.000
846.0446, 1435.740
846.5267, 1453.481
847.0088, 1472.441
847.4909, 1490.280
847.9730, 1503.938
848.4551, 1515.395
848.9373, 1531.487
849.4194, 1553.967
849.9015, 1577.751
850.3836, 1601.341
850.8657, 1625.549
851.3478, 1651.787
851.8300, 1680.110
852.3121, 1710.835
852.7942, 1743.464
853.2763, 1779.007
853.7584, 1820.092
854.2405, 1864.616
854.7227, 1909.064
855.2048, 1947.631
855.6869, 1991.901
856.1690, 2044.093
856.6511, 2101.568
857.1332, 2162.033
857.6154, 2225.689
858.0975, 2292.885
858.5796, 2363.518
859.0617, 2440.021
859.5438, 2524.434
860.0259, 2616.646
860.5081, 2714.912
860.9902, 2818.020
861.4723, 2928.569
861.9544, 3045.399
862.4365, 3171.031
862.9186, 3304.824
863.4008, 3446.544
863.8829, 3599.566
864.3650, 3762.266
864.8471, 3940.745
865.3292, 4144.245
865.8113, 4369.866
866.2935, 4607.659
866.7756, 4857.647
867.2577, 5133.918
867.7398, 5440.673
868.2219, 5785.273
868.7040, 6175.061
869.1862, 6616.383
869.6683, 7104.231
870.1504, 7632.587
870.6325, 8215.261
871.1146, 8857.826
871.5967, 9561.591
872.0789, 10308.05
872.5610, 11105.36
873.0431, 11939.55
873.5252, 12805.21
874.0073, 13702.50
874.4894, 14620.58
874.9716, 15569.66
875.4537, 16577.86
875.9358, 17628.16
876.4179, 18757.62
876.9000, 19969.04
877.3821, 21268.98
877.8643, 22700.61
878.3464, 24258.41
878.8285, 25894.67
879.3106, 27560.58
879.7927, 29275.52
880.2748, 31123.87
880.7570, 33034.88
881.2391, 34831.45
881.7212, 36515.85
882.2033, 37994.09
882.6854, 39362.05
883.1675, 40454.48
883.6497, 41040.87
884.1318, 41144.83
884.6139, 40574.34
885.0960, 39251.06
885.5781, 37347.62
886.0602, 34954.48
886.5424, 32183.30
887.0245, 29263.77
887.5066, 26153.04
887.9887, 23190.16
888.4708, 20469.73
888.9529, 18017.72
889.4351, 15836.86
889.9172, 13956.41
890.3993, 12305.41
890.8814, 10904.89
891.3635, 9703.983
891.8456, 8665.600
892.3278, 7776.315
892.8099, 7007.959
893.2920, 6364.563
893.7741, 5800.647
894.2562, 5312.242
894.7383, 4883.323
895.2205, 4502.909
895.7026, 4175.786
896.1847, 3880.111
896.6668, 3620.630
897.1489, 3387.218
897.6310, 3180.681
898.1132, 2996.505
898.5953, 2824.482
899.0774, 2665.069
899.5595, 2522.072
900.0416, 2401.957
900.5237, 2293.449
901.0059, 2186.875
901.4880, 2084.663
901.9701, 1993.153
902.4522, 1917.197
902.9343, 1846.341
903.4164, 1778.571
903.8986, 1714.094
904.3807, 1651.427
904.8628, 1591.042
905.3449, 1534.201
905.8270, 1481.206
906.3091, 1432.101
906.7913, 1388.817
907.2734, 1348.871
907.7555, 1308.495
908.2376, 1266.303
908.7197, 1225.066
909.2018, 1184.005
909.6840, 1145.210
910.1661, 1110.336
910.6482, 1079.255
911.1303, 1048.360
911.6124, 1017.337
912.0945, 987.3583
912.5767, 960.0352
913.0588, 933.8426
913.5409, 907.1193
914.0230, 879.5658
914.5051, 853.2327
914.9872, 829.2917
915.4694, 805.3168
915.9515, 779.9033
916.4336, 753.4504
916.9157, 728.1862
917.3978, 704.4047
917.8799, 684.0139
918.3621, 670.4810
918.8442, 659.0328
919.3263, 644.0031
919.8084, 627.1846
920.2905, 613.3806
920.7726, 607.4886
921.2548, 600.0252
921.7369, 588.5203
922.2190, 575.3435
922.7011, 565.3040
923.1832, 558.3204
923.6653, 550.8661
924.1475, 541.7920
924.6296, 533.2855
925.1117, 529.3492
925.5938, 526.4572
926.0759, 519.5470
926.5580, 504.6683
927.0402, 493.1857
927.5223, 488.2425
928.0044, 484.4770
928.4865, 477.5443
928.9686, 467.5362
929.4507, 459.7944
929.9329, 454.4796
930.4150, 449.6402
930.8971, 443.0045
931.3792, 436.6837
931.8613, 433.2849
932.3434, 432.6424
932.8256, 431.1781
933.3077, 428.6658
933.7898, 424.3756
934.2719, 417.4343
934.7540, 408.8106
935.2361, 401.4244
935.7183, 395.3203
936.2004, 392.6772
936.6825, 396.4220
937.1646, 400.3071
937.6467, 397.1700
938.1288, 390.2897
938.6110, 384.8971
939.0931, 384.4574
939.5752, 382.2913
940.0573, 377.4753
940.5394, 371.6789
941.0215, 366.3553
941.5037, 361.6139
941.9858, 359.0370
942.4679, 358.8832
942.9500, 358.5465
943.4321, 354.6237
943.9142, 350.3642
944.3964, 349.2776
944.8785, 352.0858
945.3606, 352.6268
945.8427, 349.9835
946.3248, 345.9052
946.8069, 340.6956
947.2891, 334.7113
947.7712, 329.3402
948.2533, 324.6968
948.7354, 321.7102
949.2175, 321.7408
949.6996, 322.6966
950.1818, 324.2404
950.6639, 325.4881
951.1460, 324.3336
951.6281, 319.3568
952.1102, 314.5522
952.5923, 310.0034
953.0745, 306.3057
953.5566, 304.8477
954.0387, 304.9773
954.5208, 303.9730
955.0029, 301.2045
955.4850, 299.3213
955.9672, 301.8506
956.4493, 304.7189
956.9314, 304.3253
957.4135, 300.0309
957.8956, 296.8791
958.3777, 295.3010
958.8599, 293.5128
959.3420, 289.8530
959.8241, 285.5832
960.3062, 284.5672
960.7883, 286.0544
961.2704, 286.9815
961.7526, 285.1465
962.2347, 283.1826
962.7168, 282.6919
963.1989, 282.7125
963.6810, 281.0254
964.1631, 276.9495
964.6453, 274.4855
965.1274, 274.5414
965.6095, 275.3412
966.0916, 274.5710
966.5737, 272.9682
967.0558, 271.8704
967.5380, 271.5905
968.0201, 271.2854
968.5022, 271.5912
968.9843, 270.8248
969.4664, 267.5307
969.9485, 261.7914
970.4307, 257.8713
970.9128, 255.8212
971.3949, 255.1783
971.8770, 257.1124
972.3591, 259.2915
972.8412, 258.4952
973.3234, 255.5774
973.8055, 252.9955
974.2876, 250.6918
974.7697, 250.1359
975.2518, 252.9351
975.7339, 256.1749
976.2161, 254.2056
976.6982, 247.5908
977.1803, 243.7973
977.6624, 244.4774
978.1445, 245.5047
978.6266, 242.6661
979.1088, 238.8091
979.5909, 236.8025
980.0730, 237.4107
980.5551, 237.9599
981.0372, 238.7509
981.5193, 238.6693
982.0015, 236.9998
982.4836, 234.0709
982.9657, 230.0513
983.4478, 225.5165
983.9299, 223.1599
984.4120, 226.7364
984.8942, 230.3195
985.3763, 230.8380
985.8584, 229.2614
986.3405, 227.6854
986.8226, 226.0827
987.3047, 224.6528
987.7869, 223.4813
988.2690, 222.2626
988.7511, 219.7773
989.2332, 217.2997
989.7153, 217.7701
990.1974, 221.8300
990.6796, 224.7952
991.1617, 224.8132
991.6438, 223.0947
992.1259, 219.7319
992.6080, 215.1138
993.0901, 212.1250
993.5723, 210.7812
994.0544, 209.4881
994.5365, 206.8103
995.0186, 204.7010
995.5007, 206.6733
995.9828, 210.4692
996.4650, 212.0018
996.9471, 207.0151
997.4292, 204.5003
997.9113, 206.2586
998.3934, 208.5965
998.8755, 206.5453
999.3577, 201.2107
999.8398, 199.7774
1000.322, 202.7021
1000.804, 205.0921
1001.286, 202.5379
1001.768, 199.1696
1002.250, 197.9809
1002.732, 198.9037
1003.215, 199.3554
1003.697, 199.5815
1004.179, 198.2416
1004.661, 194.1664
1005.143, 189.5311
1005.625, 188.1514
1006.107, 189.0749
1006.589, 190.3138
1007.072, 191.6820
1007.554, 192.3952
1008.036, 191.9930
1008.518, 191.0100
1009.000, 189.5480
1009.482, 187.4909
1009.964, 186.6642
1010.446, 187.0839
1010.928, 188.2121
1011.411, 190.5939
1011.893, 192.7549
1012.375, 193.0152
1012.857, 191.7085
1013.339, 190.6568
1013.821, 190.6068
1014.303, 189.8924
1014.785, 187.8411
1015.268, 185.5520
1015.750, 184.8164
1016.232, 185.3888
1016.714, 186.9777
1017.196, 190.0120
1017.678, 191.2267
1018.160, 186.2387
1018.642, 180.6245
1019.124, 178.6811
1019.607, 180.5314
1020.089, 182.6066
1020.571, 185.0659
1021.053, 186.5016
1021.535, 185.7244
1022.017, 183.9014
1022.499, 182.6980
1022.981, 181.7566
1023.464, 180.2670
1023.946, 175.7290
1024.428, 174.0361
1024.910, 177.3955
1025.392, 181.7346
1025.874, 181.7209
1026.356, 178.1291
1026.838, 176.5597
1027.320, 177.4583
1027.803, 179.0776
1028.285, 180.8243
1028.767, 182.2736
1029.249, 183.6692
1029.731, 184.6635
1030.213, 182.4140
1030.695, 175.4090
1031.177, 171.2415
1031.660, 172.7275
1032.142, 176.6525
1032.624, 179.1970
1033.106, 180.1396
1033.588, 178.5373
1034.070, 172.5412
1034.552, 168.6568
1035.034, 169.2988
1035.516, 171.6446
1035.999, 174.7966
1036.481, 178.5110
1036.963, 178.9782
1037.445, 176.4245
1037.927, 173.7477
1038.409, 172.8625
1038.891, 172.3040
1039.373, 170.3801
1039.855, 170.9643
1040.338, 168.0820
1040.820, 171.5673
1041.302, 173.7807
1041.784, 174.1077
1042.266, 173.6074
1042.748, 173.6185
1043.230, 173.6201
1043.712, 171.9249
1044.195, 168.3570
1044.677, 167.1070
1045.159, 172.9956
1045.641, 177.6117
1046.123, 177.2103
1046.605, 173.5994
1047.087, 173.2507
1047.569, 175.7802
1048.052, 177.6153
1048.534, 177.4644
1049.016, 176.6876
1049.498, 176.0820
1049.980, 175.5556
1050.462, 174.7568
1050.944, 173.0282
1051.426, 174.1959
1051.908, 179.1509
1052.391, 183.2871
1052.873, 182.2998
1053.355, 179.1999
1053.837, 180.0090
1054.319, 183.4610
1054.801, 185.4467
1055.283, 182.9268
1055.765, 180.8079
1056.247, 179.9308
1056.730, 179.8098
1057.212, 180.0800
1057.694, 180.6147
1058.176, 180.2630
1058.658, 178.8831
1059.140, 177.9035
1059.622, 178.8547
1060.104, 180.1398
1060.587, 180.4559
1061.069, 180.0359
1061.551, 180.6579
1062.033, 182.5071
1062.515, 184.5092
1062.997, 186.7274
1063.479, 188.0017
1063.961, 185.1634
1064.443, 181.0579
1064.926, 180.3585
1065.408, 185.8837
1065.890, 188.5432
1066.372, 185.7650
1066.854, 183.0930
1067.336, 184.2135
1067.818, 187.9119
1068.300, 189.8755
1068.782, 190.1779
1069.265, 189.0605
1069.747, 184.8892
1070.229, 181.3695
1070.711, 179.8987
1071.193, 180.0944
1071.675, 182.2267
1072.157, 186.6745
1072.639, 187.9339
1073.122, 185.5086
1073.604, 183.2697
1074.086, 185.1253
1074.568, 188.1091
1075.050, 189.1272
1075.532, 188.5658
1076.014, 189.9887
1076.496, 195.6768
1076.979, 197.5030
1077.461, 192.7949
1077.943, 186.0139
1078.425, 183.4922
1078.907, 183.8031
1079.389, 184.5078
1079.871, 185.2868
1080.353, 185.6646
1080.835, 185.4670
1081.318, 184.7476
1081.800, 183.0757
1082.282, 181.0400
1082.764, 181.7626
1083.246, 184.6333
1083.728, 185.8316
1084.210, 182.6218
1084.692, 179.9369
1085.174, 182.6504
1085.656, 186.2469
1086.139, 185.3055
1086.621, 178.1491
1087.103, 177.9051
1087.585, 185.2918
1088.067, 191.2013
1088.549, 186.9533
1089.031, 180.1010
1089.513, 178.5887
1089.996, 181.0804
1090.478, 184.0988
1090.960, 188.3457
1091.442, 190.3624
1091.924, 189.3940
1092.406, 187.3513
1092.888, 186.5196
1093.370, 186.1361
1093.853, 184.0144
1094.335, 180.2345
1094.817, 177.6723
1095.299, 178.2436
1095.781, 179.5636
1096.263, 181.6489
1096.745, 183.3855
1097.227, 181.1221
1097.709, 175.8534
1098.192, 173.8792
1098.674, 176.7417
1099.156, 181.0439
1099.638, 187.4719
1100.120, 191.8811
1100.602, 189.7315
1101.084, 181.9430
1101.566, 179.4681
1102.048, 182.6133
1102.531, 184.2603
1103.013, 180.6055
1103.495, 176.1848
1103.977, 176.6555
1104.459, 179.0803
1104.941, 179.3626
1105.423, 175.7482
1105.905, 173.4653
1106.388, 172.7186
1106.870, 172.6358
1107.352, 173.0171
1107.834, 173.4641
1108.316, 172.7167
1108.798, 171.4111
1109.280, 171.2886
1109.762, 174.2607
1110.245, 176.6692
1110.727, 178.5369
1111.209, 179.1203
1111.691, 176.8147
1112.173, 172.5722
1112.655, 169.9712
1113.137, 169.1096
1113.619, 169.2982
1114.101, 171.9165
1114.583, 173.4286
1115.066, 171.3632
1115.548, 167.9397
1116.030, 167.0749
1116.512, 168.6889
1116.994, 172.2664
1117.476, 178.1037
1117.958, 181.2876
1118.440, 175.6957
1118.923, 167.8708
1119.405, 161.8458
1119.887, 157.9135
1120.369, 157.2082
1120.851, 160.2357
1121.333, 162.0831
1121.815, 160.9684
1122.297, 159.4676
1122.780, 161.1261
1123.262, 163.6974
1123.744, 164.2777
1124.226, 161.8766
1124.708, 160.6513
1125.190, 161.0743
1125.672, 161.3261
1126.154, 160.3614
1126.636, 158.9944
1127.119, 158.2951
1127.601, 158.3785
1128.083, 159.6901
1128.565, 164.0157
1129.047, 165.7367
1129.529, 163.3700
1130.011, 160.2471
1130.493, 158.5098
1130.975, 157.8618
1131.458, 158.1544
1131.940, 158.7418
1132.422, 157.1755
1132.904, 149.2991
1133.386, 143.0933
1133.868, 140.2744
1134.350, 140.0454
1134.832, 142.9766
1135.315, 148.3885
1135.797, 149.6453
1136.279, 146.8163
1136.761, 144.3507
1137.243, 145.1615
1137.725, 146.8745
1138.207, 149.3196
1138.689, 151.4317
1139.172, 150.7264
1139.654, 147.0846
1140.136, 146.5396
1140.618, 150.0025
1141.100, 152.3921
1141.582, 147.0717
1142.064, 141.3423
1142.546, 142.1832
1143.028, 147.8668
1143.510, 148.5433
1143.993, 143.2903
1144.475, 139.3586
1144.957, 138.4427
1145.439, 138.7417
1145.921, 138.6022
1146.403, 138.5129
1146.885, 139.0813
1147.367, 140.4111
1147.850, 141.6570
1148.332, 143.0452
1148.814, 143.2759
1149.296, 141.3941
1149.778, 139.3589
1150.260, 141.4787
1150.742, 144.6329
1151.224, 143.1402
1151.707, 133.8416
1152.189, 130.7293
1152.671, 137.2463
1153.153, 143.1924
1153.635, 143.2092
1154.117, 140.3295
1154.599, 140.8920
1155.081, 143.3717
1155.563, 144.4694
1156.046, 143.0632
1156.528, 140.3860
1157.010, 135.2580
1157.492, 131.4553
1157.974, 132.0535
1158.456, 135.6896
1158.938, 138.9833
1159.420, 141.4122
1159.902, 141.2046
1160.385, 134.1870
1160.867, 129.4578
1161.349, 129.5864
1161.831, 131.5634
1162.313, 133.1970
1162.795, 134.4887
1163.277, 135.7957
1163.759, 136.9394
1164.242, 136.8535
1164.724, 133.0353
1165.206, 130.3307
1165.688, 131.4609
1166.170, 133.6532
1166.652, 133.7317
1167.134, 131.8957
1167.616, 129.8572
1168.099, 127.7645
1168.581, 126.3613
1169.063, 126.1721
1169.545, 126.7330
1170.027, 128.1032
1170.509, 129.9379
1170.991, 132.3436
1171.473, 135.2207
1171.955, 134.7782
1172.438, 130.5569
1172.920, 126.7860
1173.402, 127.5293
1173.884, 128.8494
1174.366, 127.5086
1174.848, 128.8587
1175.330, 125.4121
1175.812, 128.9365
1176.294, 130.1851
1176.777, 128.0435
1177.259, 125.8364
1177.741, 126.4167
1178.223, 127.9644
1178.705, 129.4963
1179.187, 130.7968
1179.669, 131.0653
1180.151, 130.2354
1180.634, 129.3439
1181.116, 128.4980
1181.598, 128.3138
1182.080, 131.3124
1182.562, 133.7698
1183.044, 130.5017
1183.526, 122.1659
1184.008, 120.8850
1184.490, 127.5081
1184.973, 133.0473
1185.455, 134.8914
1185.937, 134.1045
1186.419, 129.6209
1186.901, 124.4487
1187.383, 121.8517
1187.865, 122.1509
1188.347, 124.4296
1188.829, 129.2028
1189.312, 131.3616
1189.794, 127.6180
1190.276, 123.2523
1190.758, 125.1959
1191.240, 129.4389
1191.722, 131.1062
1192.204, 129.3831
1192.686, 126.1880
1193.169, 120.9060
1193.651, 118.2700
1194.133, 122.1024
1194.615, 127.0754
1195.097, 126.5253
1195.579, 123.1832
1196.061, 120.5786
1196.543, 118.4831
1197.026, 120.9969
1197.508, 129.2905
1197.990, 135.2440
1198.472, 132.5826
1198.954, 127.0901
1199.436, 124.9500
1199.918, 125.2195
1200.400, 126.7568
1200.882, 130.5336
1201.365, 131.5263
1201.847, 129.2710
1202.329, 126.7858
1202.811, 125.5821
1203.293, 125.6435
1203.775, 128.2758
1204.257, 131.7852
1204.739, 132.8350
1205.221, 129.9427
1205.704, 127.4975
1206.186, 125.5007
1206.668, 123.9621
1207.150, 123.2964
1207.632, 122.7542
1208.114, 119.8990
1208.596, 116.7679
1209.078, 118.6897
1209.561, 129.5786
1210.043, 134.9790
1210.525, 133.9066
1211.007, 130.8061
1211.489, 128.3659
1211.971, 126.3959
1212.453, 124.8947
1212.935, 123.6968
1213.417, 122.3486
1213.900, 120.4414
1214.382, 119.7368
1214.864, 120.5050
1215.346, 121.2956
1215.828, 119.2311
1216.310, 117.9325
1216.792, 123.8093
1217.274, 133.4582
1217.756, 136.0969
1218.239, 129.1468
1218.721, 123.6142
1219.203, 120.2341
1219.685, 118.4422
1220.167, 118.6631
1220.649, 119.4385
1221.131, 118.4271
1221.613, 116.8915
1222.096, 119.3799
1222.578, 127.9484
1223.060, 130.2899
1223.542, 124.5661
1224.024, 119.0585
1224.506, 123.3178
1224.988, 129.0426
1225.470, 127.7910
1225.953, 121.8270
1226.435, 120.2848
1226.917, 124.3406
1227.399, 125.1207
1227.881, 121.4337
1228.363, 117.2500
1228.845, 116.0159
1229.327, 115.7339
1229.809, 114.7085
1230.292, 113.3888
1230.774, 113.1956
1231.256, 114.1696
1231.738, 115.9491
1232.220, 118.5650
1232.702, 120.9078
1233.184, 122.5740
1233.666, 123.2105
1234.148, 121.7060
1234.631, 119.2016
1235.113, 118.4104
1235.595, 119.3527
1236.077, 120.7923
1236.559, 122.5957
1237.041, 124.1466
1237.523, 125.3684
1238.005, 125.8246
1238.488, 125.0380
1238.970, 123.3631
1239.452, 120.7051
1239.934, 117.3344
1240.416, 116.9190
1240.898, 119.9591
1241.380, 122.8958
1241.862, 123.4351
1242.344, 123.1284
1242.827, 122.0949
1243.309, 121.2141
1243.791, 122.9549
1244.273, 126.5976
1244.755, 127.4865
1245.237, 125.0686
1245.719, 122.5355
1246.201, 121.4761
1246.683, 120.8823
1247.166, 120.5301
1247.648, 120.1679
1248.130, 118.9228
1248.612, 117.3115
1249.094, 117.4235
1249.576, 119.4571
1250.058, 121.1300
1250.540, 120.4207
1251.023, 120.7709
1251.505, 123.8124
1251.987, 127.1031
1252.469, 126.2838
1252.951, 122.8191
1253.433, 119.7772
1253.915, 117.5406
1254.397, 116.6976
1254.880, 119.0413
1255.362, 119.7412
1255.844, 116.9901
1256.326, 114.1933
1256.808, 118.2020
1257.290, 124.4072
1257.772, 123.3757
1258.254, 115.1974
1258.736, 111.8149
1259.219, 117.3319
1259.701, 120.8327
1260.183, 120.1325
1260.665, 117.6308
1261.147, 114.7154
1261.629, 112.6381
1262.111, 113.8068
1262.593, 117.7273
1263.075, 119.3054
1263.558, 117.6078
1264.040, 116.7817
1264.522, 117.7022
1265.004, 118.5265
1265.486, 116.4345
1265.968, 114.2315
1266.450, 115.0649
1266.932, 118.2173
1267.415, 119.9242
1267.897, 120.1433
1268.379, 119.3344
1268.861, 117.4939
1269.343, 115.6587
1269.825, 113.6364
1270.307, 112.8867
1270.789, 116.1312
1271.271, 120.7857
1271.754, 121.3713
1272.236, 118.1120
1272.718, 114.5351
1273.200, 111.0886
1273.682, 109.3130
1274.164, 112.6315
1274.646, 114.8473
1275.128, 112.2779
1275.610, 108.1684
1276.093, 108.1053
1276.575, 111.0756
1277.057, 113.1613
1277.539, 114.0050
1278.021, 114.1439
1278.503, 113.7152
1278.985, 112.4518
1279.467, 109.3588
1279.950, 107.1051
1280.432, 110.9767
1280.914, 117.5180
1281.396, 118.1679
1281.878, 113.5839
1282.360, 111.0992
1282.842, 114.9279
1283.324, 116.4159
1283.807, 114.0233
1284.289, 111.0923
1284.771, 111.0072
1285.253, 112.5397
1285.735, 115.0869
1286.217, 117.8532
1286.699, 117.8033
1287.181, 113.5068
1287.663, 111.8442
1288.146, 113.6110
1288.628, 116.0510
1289.110, 118.1680
1289.592, 118.7241
1290.074, 115.1815
1290.556, 109.7815
1291.038, 107.0249
1291.520, 107.0021
1292.002, 108.9189
1292.485, 112.6317
1292.967, 115.4443
1293.449, 114.4793
1293.931, 113.4331
1294.413, 115.3487
1294.895, 117.2880
1295.377, 115.1869
1295.859, 109.9561
1296.342, 108.7794
1296.824, 111.2075
1297.306, 113.6066
1297.788, 114.9687
1298.270, 114.7088
1298.752, 111.6703
1299.234, 109.1379
1299.716, 110.8374
1300.198, 114.8926
1300.681, 116.9055
1301.163, 117.0814
1301.645, 116.2277
1302.127, 114.3480
##END=



