##NAMES=Tantalite-(Mn)
##RRUFFID=R060252
##IDEAL CHEMISTRY=Mn^2+^Ta^5+^_2_O_6_
##LOCALITY=Kohtokay mine, Xinjiang Autonomous Region, China
##OWNER=RRUFF
##SOURCE=William W. Pinch
##DESCRIPTION=Reddish-brown fragment
##STATUS=The identification of this mineral is confirmed by single-crystal X-ray diffraction and chemical analysis.
##URL=rruff.info/R060252
##MEASURED CHEMISTRY=(Mn^2+^_0.93_Fe^2+^_0.07_)_Σ=1_(Ta_1.44_Nb_0.56_)_Σ=2_O_6_
91.18097, 0.0000000E+00
91.66309, 958.3342
92.14520, 965.4279
92.62732, 972.8353
93.10944, 970.7342
93.59155, 965.4203
94.07367, 962.8675
94.55579, 964.5928
95.03790, 965.8109
95.52002, 960.4935
96.00214, 946.9648
96.48425, 935.3446
96.96637, 926.5829
97.44849, 921.1938
97.93060, 920.8135
98.41272, 924.8252
98.89484, 930.0578
99.37695, 931.5764
99.85907, 923.0822
100.3412, 919.4427
100.8233, 923.4972
101.3054, 932.4268
101.7875, 941.9603
102.2697, 949.1881
102.7518, 954.3947
103.2339, 967.4066
103.7160, 989.6570
104.1981, 1015.447
104.6802, 1044.333
105.1624, 1075.357
105.6445, 1105.370
106.1266, 1130.527
106.6087, 1150.840
107.0908, 1173.597
107.5729, 1200.141
108.0551, 1229.038
108.5372, 1257.215
109.0193, 1282.703
109.5014, 1312.513
109.9835, 1353.765
110.4656, 1404.573
110.9478, 1459.506
111.4299, 1515.566
111.9120, 1573.119
112.3941, 1635.500
112.8762, 1708.919
113.3583, 1782.254
113.8405, 1850.417
114.3226, 1912.541
114.8047, 1969.370
115.2868, 2020.751
115.7689, 2066.333
116.2510, 2108.297
116.7332, 2146.161
117.2153, 2181.757
117.6974, 2214.018
118.1795, 2243.250
118.6616, 2273.380
119.1437, 2313.076
119.6259, 2363.082
120.1080, 2423.963
120.5901, 2497.958
121.0722, 2582.156
121.5543, 2674.568
122.0364, 2775.055
122.5186, 2881.281
123.0007, 2978.617
123.4828, 3083.103
123.9649, 3166.213
124.4470, 3223.778
124.9291, 3253.343
125.4113, 3245.689
125.8934, 3191.207
126.3755, 3088.550
126.8576, 2966.141
127.3397, 2814.705
127.8218, 2649.427
128.3040, 2478.613
128.7861, 2300.868
129.2682, 2130.166
129.7503, 1974.630
130.2324, 1832.510
130.7145, 1706.027
131.1967, 1598.589
131.6788, 1507.425
132.1609, 1424.502
132.6430, 1349.106
133.1251, 1283.515
133.6072, 1228.654
134.0894, 1182.779
134.5715, 1142.144
135.0536, 1104.278
135.5357, 1068.983
136.0178, 1037.020
136.4999, 1010.400
136.9821, 985.7391
137.4642, 961.9116
137.9463, 938.8097
138.4284, 917.4169
138.9105, 898.9546
139.3926, 885.0596
139.8748, 869.8013
140.3569, 850.9493
140.8390, 832.4398
141.3211, 816.2886
141.8032, 803.2333
142.2853, 793.4047
142.7675, 787.3636
143.2496, 787.0119
143.7317, 787.3398
144.2138, 788.0270
144.6959, 789.3168
145.1780, 791.7072
145.6602, 795.5076
146.1423, 800.0370
146.6244, 803.8202
147.1065, 806.5502
147.5886, 809.5804
148.0707, 812.3245
148.5529, 815.4879
149.0350, 821.8325
149.5171, 833.8224
149.9992, 848.7241
150.4813, 861.3454
150.9634, 870.2484
151.4456, 880.4289
151.9277, 895.4728
152.4098, 915.4845
152.8919, 940.4539
153.3740, 974.6160
153.8561, 1012.162
154.3383, 1048.967
154.8204, 1083.302
155.3025, 1117.372
155.7846, 1156.081
156.2667, 1202.986
156.7488, 1246.251
157.2310, 1279.774
157.7131, 1310.005
158.1952, 1343.542
158.6773, 1383.534
159.1594, 1428.773
159.6415, 1474.473
160.1237, 1517.923
160.6058, 1565.963
161.0879, 1617.066
161.5700, 1673.531
162.0521, 1739.205
162.5342, 1816.991
163.0164, 1906.400
163.4985, 1992.383
163.9806, 2085.487
164.4627, 2165.562
164.9448, 2226.161
165.4269, 2268.861
165.9091, 2295.931
166.3912, 2307.569
166.8733, 2303.218
167.3554, 2303.326
167.8375, 2296.923
168.3196, 2302.959
168.8018, 2330.325
169.2839, 2379.780
169.7660, 2449.025
170.2481, 2535.703
170.7302, 2642.827
171.2123, 2774.831
171.6945, 2941.031
172.1766, 3127.109
172.6587, 3329.192
173.1408, 3550.868
173.6229, 3759.180
174.1050, 3941.124
174.5872, 4091.816
175.0693, 4173.587
175.5514, 4170.856
176.0335, 4092.726
176.5156, 3950.503
176.9977, 3726.929
177.4799, 3468.933
177.9620, 3191.599
178.4441, 2905.845
178.9262, 2644.085
179.4083, 2424.809
179.8904, 2244.210
180.3726, 2090.399
180.8547, 1970.636
181.3368, 1873.228
181.8189, 1792.367
182.3010, 1727.159
182.7831, 1677.363
183.2653, 1645.135
183.7474, 1631.413
184.2295, 1621.141
184.7116, 1614.735
185.1937, 1611.866
185.6758, 1612.938
186.1580, 1617.753
186.6401, 1625.539
187.1222, 1634.751
187.6043, 1643.523
188.0864, 1662.730
188.5685, 1697.034
189.0507, 1736.269
189.5328, 1775.462
190.0149, 1814.446
190.4970, 1855.545
190.9791, 1902.001
191.4612, 1954.161
191.9434, 2011.127
192.4255, 2070.747
192.9076, 2135.481
193.3897, 2207.887
193.8718, 2287.923
194.3539, 2372.878
194.8361, 2459.315
195.3182, 2547.446
195.8003, 2638.319
196.2824, 2733.476
196.7645, 2830.289
197.2466, 2928.381
197.7288, 3027.772
198.2109, 3123.520
198.6930, 3210.262
199.1751, 3289.635
199.6572, 3352.018
200.1393, 3400.339
200.6215, 3429.199
201.1036, 3431.605
201.5857, 3405.691
202.0678, 3353.269
202.5499, 3268.527
203.0320, 3155.527
203.5142, 3032.169
203.9963, 2903.378
204.4784, 2768.514
204.9605, 2624.783
205.4426, 2466.739
205.9247, 2308.805
206.4069, 2163.617
206.8890, 2029.817
207.3711, 1906.906
207.8532, 1795.994
208.3353, 1695.861
208.8174, 1602.515
209.2996, 1514.143
209.7817, 1435.577
210.2638, 1369.789
210.7459, 1316.160
211.2280, 1269.420
211.7101, 1226.067
212.1923, 1186.218
212.6744, 1151.601
213.1565, 1123.967
213.6386, 1101.243
214.1207, 1082.983
214.6028, 1068.866
215.0850, 1057.499
215.5671, 1047.208
216.0492, 1037.454
216.5313, 1032.907
217.0134, 1038.457
217.4955, 1045.649
217.9777, 1050.811
218.4598, 1054.342
218.9419, 1059.204
219.4240, 1068.221
219.9061, 1081.631
220.3882, 1098.241
220.8704, 1120.800
221.3525, 1144.134
221.8346, 1166.435
222.3167, 1187.439
222.7988, 1207.520
223.2809, 1226.752
223.7631, 1244.490
224.2452, 1264.673
224.7273, 1288.857
225.2094, 1313.579
225.6915, 1336.266
226.1736, 1357.368
226.6558, 1379.637
227.1379, 1406.025
227.6200, 1437.083
228.1021, 1470.006
228.5842, 1503.570
229.0663, 1539.458
229.5485, 1577.805
230.0306, 1618.834
230.5127, 1663.668
230.9948, 1713.450
231.4769, 1769.462
231.9590, 1825.391
232.4412, 1875.244
232.9233, 1929.369
233.4054, 1994.719
233.8875, 2071.385
234.3696, 2156.143
234.8517, 2245.397
235.3339, 2339.950
235.8160, 2439.786
236.2981, 2548.541
236.7802, 2659.750
237.2623, 2773.285
237.7444, 2887.396
238.2266, 2991.512
238.7087, 3079.473
239.1908, 3147.505
239.6729, 3189.463
240.1550, 3205.588
240.6371, 3194.629
241.1193, 3151.287
241.6014, 3075.450
242.0835, 2981.391
242.5656, 2873.890
243.0477, 2755.187
243.5298, 2634.964
244.0120, 2508.693
244.4941, 2385.108
244.9762, 2270.153
245.4583, 2163.245
245.9404, 2070.021
246.4225, 1997.197
246.9047, 1941.153
247.3868, 1893.776
247.8689, 1853.462
248.3510, 1821.563
248.8331, 1802.298
249.3152, 1796.852
249.7974, 1791.891
250.2795, 1777.419
250.7616, 1760.031
251.2437, 1749.256
251.7258, 1748.127
252.2079, 1752.322
252.6901, 1756.399
253.1722, 1759.723
253.6543, 1767.393
254.1364, 1782.809
254.6185, 1803.479
255.1006, 1827.297
255.5828, 1853.349
256.0649, 1883.576
256.5470, 1920.018
257.0291, 1962.775
257.5112, 2011.008
257.9933, 2064.939
258.4755, 2124.642
258.9576, 2190.093
259.4397, 2260.482
259.9218, 2340.120
260.4039, 2432.926
260.8860, 2538.472
261.3682, 2659.395
261.8503, 2799.844
262.3324, 2955.629
262.8145, 3131.063
263.2966, 3326.416
263.7787, 3527.365
264.2609, 3725.980
264.7430, 3927.368
265.2251, 4097.733
265.7072, 4245.592
266.1893, 4347.829
266.6714, 4388.554
267.1536, 4366.694
267.6357, 4292.845
268.1178, 4166.481
268.5999, 3978.186
269.0820, 3794.390
269.5641, 3611.341
270.0463, 3439.107
270.5284, 3284.050
271.0105, 3145.670
271.4926, 3019.310
271.9747, 2900.290
272.4568, 2787.390
272.9390, 2688.426
273.4211, 2608.658
273.9032, 2539.490
274.3853, 2476.365
274.8674, 2420.873
275.3495, 2379.228
275.8317, 2357.438
276.3138, 2355.775
276.7959, 2358.174
277.2780, 2363.594
277.7601, 2374.783
278.2422, 2395.322
278.7244, 2422.282
279.2065, 2451.533
279.6886, 2481.910
280.1707, 2511.907
280.6528, 2524.815
281.1349, 2518.428
281.6171, 2494.229
282.0992, 2452.611
282.5813, 2393.470
283.0634, 2314.258
283.5455, 2212.758
284.0276, 2093.149
284.5098, 1974.072
284.9919, 1851.518
285.4740, 1735.012
285.9561, 1623.875
286.4382, 1519.908
286.9203, 1424.902
287.4025, 1340.117
287.8846, 1264.737
288.3667, 1197.331
288.8488, 1141.710
289.3309, 1089.714
289.8130, 1039.108
290.2952, 992.7044
290.7773, 953.7595
291.2594, 923.3008
291.7415, 898.1991
292.2236, 872.7839
292.7057, 844.5037
293.1879, 820.7659
293.6700, 802.8906
294.1521, 788.0376
294.6342, 774.3152
295.1163, 761.3016
295.5984, 749.6985
296.0806, 740.4764
296.5627, 734.1221
297.0448, 729.0982
297.5269, 723.6438
298.0090, 720.6315
298.4911, 722.1152
298.9733, 727.9279
299.4554, 736.3499
299.9375, 745.6896
300.4196, 755.7932
300.9017, 768.2017
301.3839, 783.6603
301.8660, 800.2635
302.3481, 817.4063
302.8302, 835.1069
303.3123, 854.1848
303.7944, 875.8125
304.2766, 899.7429
304.7587, 918.6190
305.2408, 929.4123
305.7229, 938.9357
306.2050, 948.6230
306.6871, 958.2596
307.1693, 966.6549
307.6514, 972.8910
308.1335, 978.2072
308.6156, 988.0114
309.0977, 1005.409
309.5798, 1023.989
310.0620, 1042.253
310.5441, 1061.784
311.0262, 1084.002
311.5083, 1109.577
311.9904, 1139.069
312.4725, 1173.407
312.9547, 1214.898
313.4368, 1259.310
313.9189, 1303.814
314.4010, 1352.722
314.8831, 1409.557
315.3652, 1475.098
315.8474, 1549.420
316.3295, 1632.553
316.8116, 1728.353
317.2937, 1824.697
317.7758, 1920.009
318.2579, 2016.948
318.7401, 2122.107
319.2222, 2232.458
319.7043, 2336.027
320.1864, 2422.946
320.6685, 2494.804
321.1506, 2533.368
321.6328, 2545.139
322.1149, 2523.901
322.5970, 2461.043
323.0791, 2362.421
323.5612, 2239.230
324.0433, 2095.654
324.5255, 1934.440
325.0076, 1786.182
325.4897, 1652.121
325.9718, 1529.222
326.4539, 1415.476
326.9360, 1312.242
327.4182, 1221.135
327.9003, 1142.533
328.3824, 1075.755
328.8645, 1018.651
329.3466, 976.3450
329.8287, 937.6996
330.3109, 903.4090
330.7930, 871.7472
331.2751, 840.5701
331.7572, 809.5378
332.2393, 781.2375
332.7214, 760.0830
333.2036, 749.6734
333.6857, 738.5045
334.1678, 723.8524
334.6499, 710.6663
335.1320, 702.6276
335.6141, 699.5143
336.0963, 698.4089
336.5784, 696.4228
337.0605, 693.2848
337.5426, 691.5986
338.0247, 694.2248
338.5068, 695.3802
338.9890, 691.2635
339.4711, 684.1435
339.9532, 678.8034
340.4353, 678.4557
340.9174, 682.4930
341.3995, 687.0259
341.8817, 692.3395
342.3638, 697.8310
342.8459, 702.8620
343.3280, 708.2288
343.8101, 715.1025
344.2922, 723.9802
344.7744, 733.9369
345.2565, 742.8271
345.7386, 749.3633
346.2207, 757.4063
346.7028, 765.8566
347.1849, 776.5317
347.6671, 791.3907
348.1492, 810.5369
348.6313, 831.4403
349.1134, 851.4889
349.5955, 870.5973
350.0776, 888.8247
350.5598, 905.6052
351.0419, 922.0358
351.5240, 936.6771
352.0061, 951.0107
352.4882, 969.0247
352.9703, 994.7435
353.4525, 1027.192
353.9346, 1055.241
354.4167, 1075.047
354.8988, 1095.385
355.3809, 1118.032
355.8630, 1142.938
356.3452, 1169.910
356.8273, 1198.987
357.3094, 1229.702
357.7915, 1261.150
358.2736, 1293.154
358.7557, 1325.920
359.2379, 1358.236
359.7200, 1391.906
360.2021, 1429.336
360.6842, 1470.962
361.1663, 1513.352
361.6484, 1552.182
362.1306, 1586.654
362.6127, 1625.502
363.0948, 1674.765
363.5769, 1723.977
364.0590, 1766.826
364.5411, 1804.404
365.0233, 1841.617
365.5054, 1882.187
365.9875, 1925.219
366.4696, 1966.762
366.9517, 2006.631
367.4338, 2045.649
367.9160, 2087.294
368.3981, 2127.907
368.8802, 2161.740
369.3623, 2186.961
369.8444, 2204.581
370.3265, 2215.101
370.8087, 2218.145
371.2908, 2217.752
371.7729, 2214.773
372.2550, 2209.165
372.7371, 2200.499
373.2192, 2188.450
373.7014, 2175.562
374.1835, 2161.905
374.6656, 2148.521
375.1477, 2139.817
375.6298, 2136.525
376.1119, 2138.792
376.5941, 2146.848
377.0762, 2160.149
377.5583, 2177.822
378.0404, 2199.248
378.5225, 2224.944
379.0046, 2255.504
379.4868, 2290.925
379.9689, 2331.411
380.4510, 2376.523
380.9331, 2427.659
381.4152, 2487.652
381.8973, 2558.323
382.3795, 2635.613
382.8616, 2717.522
383.3437, 2804.228
383.8258, 2895.163
384.3079, 2989.132
384.7900, 3089.534
385.2722, 3205.625
385.7543, 3337.635
386.2364, 3477.848
386.7185, 3623.279
387.2006, 3775.403
387.6827, 3938.201
388.1649, 4112.746
388.6470, 4292.870
389.1291, 4471.606
389.6112, 4647.827
390.0933, 4835.727
390.5754, 5044.102
391.0576, 5256.364
391.5397, 5470.264
392.0218, 5680.419
392.5039, 5876.861
392.9860, 6053.759
393.4681, 6211.359
393.9503, 6345.709
394.4324, 6467.153
394.9145, 6554.970
395.3966, 6609.548
395.8787, 6627.741
396.3608, 6606.706
396.8430, 6545.225
397.3251, 6442.205
397.8072, 6294.237
398.2893, 6088.219
398.7714, 5867.331
399.2535, 5629.625
399.7357, 5381.098
400.2178, 5121.083
400.6999, 4852.477
401.1820, 4581.492
401.6641, 4308.400
402.1462, 4035.555
402.6284, 3779.264
403.1105, 3542.038
403.5926, 3320.881
404.0747, 3115.416
404.5568, 2925.424
405.0389, 2751.637
405.5211, 2594.296
406.0032, 2450.360
406.4853, 2316.295
406.9674, 2191.866
407.4495, 2075.275
407.9316, 1965.055
408.4138, 1863.860
408.8959, 1775.985
409.3780, 1699.699
409.8601, 1630.189
410.3422, 1563.223
410.8243, 1499.167
411.3065, 1440.107
411.7886, 1386.485
412.2707, 1337.117
412.7528, 1290.967
413.2349, 1248.360
413.7170, 1210.074
414.1992, 1176.798
414.6813, 1147.041
415.1634, 1119.427
415.6455, 1093.988
416.1276, 1070.154
416.6097, 1048.580
417.0919, 1027.929
417.5740, 1006.397
418.0561, 983.9281
418.5382, 962.7133
419.0203, 944.1852
419.5024, 927.7775
419.9846, 912.3575
420.4667, 897.7660
420.9488, 884.3371
421.4309, 872.6216
421.9130, 862.4336
422.3951, 852.9632
422.8773, 844.2748
423.3594, 836.1520
423.8415, 828.4481
424.3236, 821.1580
424.8057, 814.2960
425.2878, 807.9335
425.7700, 801.7966
426.2521, 795.1417
426.7342, 787.4435
427.2163, 780.7327
427.6984, 775.6887
428.1805, 771.5804
428.6627, 767.5727
429.1448, 763.5738
429.6269, 760.1636
430.1090, 757.8900
430.5911, 756.7867
431.0732, 756.0806
431.5554, 755.8550
432.0375, 755.8466
432.5196, 756.9724
433.0017, 758.0519
433.4838, 756.6710
433.9659, 751.6759
434.4481, 745.1323
434.9302, 741.7686
435.4123, 744.5721
435.8944, 745.1520
436.3765, 741.9664
436.8586, 737.9281
437.3408, 734.2879
437.8229, 731.5204
438.3050, 730.2509
438.7871, 731.6299
439.2692, 735.3546
439.7513, 736.1664
440.2335, 733.1620
440.7156, 728.2711
441.1977, 719.2592
441.6798, 709.9354
442.1619, 705.7213
442.6440, 708.9095
443.1262, 714.7029
443.6083, 716.6764
444.0904, 714.5667
444.5725, 711.8431
445.0546, 708.7070
445.5367, 705.5658
446.0189, 702.5536
446.5010, 699.7407
446.9831, 697.4954
447.4652, 695.7994
447.9473, 694.8683
448.4294, 695.4441
448.9116, 697.7313
449.3937, 699.9922
449.8758, 701.7109
450.3579, 702.4839
450.8400, 701.4852
451.3221, 697.6442
451.8043, 694.1485
452.2864, 692.8071
452.7685, 693.0126
453.2506, 693.3239
453.7327, 693.2915
454.2148, 693.9190
454.6970, 696.3948
455.1791, 701.0078
455.6612, 706.4313
456.1433, 715.0788
456.6254, 722.3694
457.1075, 723.9448
457.5897, 721.6669
458.0718, 721.2401
458.5539, 725.9402
459.0360, 734.2985
459.5181, 741.7677
460.0002, 748.4263
460.4824, 753.9952
460.9645, 758.4274
461.4466, 761.8291
461.9287, 764.5460
462.4108, 766.4622
462.8929, 766.8078
463.3751, 764.6454
463.8572, 759.9569
464.3393, 755.0973
464.8214, 748.8226
465.3035, 744.0029
465.7856, 741.3958
466.2678, 740.6024
466.7499, 741.7195
467.2320, 744.9717
467.7141, 747.9817
468.1962, 746.8830
468.6783, 741.2625
469.1605, 735.9163
469.6426, 731.3439
470.1247, 727.5522
470.6068, 723.2690
471.0889, 719.3468
471.5710, 719.1992
472.0532, 727.1194
472.5353, 738.6033
473.0174, 745.9977
473.4995, 749.1036
473.9816, 753.1182
474.4637, 760.9562
474.9459, 770.9269
475.4280, 779.6649
475.9101, 787.0002
476.3922, 793.6859
476.8743, 799.4454
477.3564, 804.9957
477.8386, 811.0848
478.3207, 817.9093
478.8028, 825.8582
479.2849, 835.2698
479.7670, 846.2145
480.2491, 858.1881
480.7313, 871.4994
481.2134, 885.3880
481.6955, 900.2589
482.1776, 915.3149
482.6597, 928.9240
483.1418, 940.5179
483.6240, 951.9801
484.1061, 966.4505
484.5882, 985.4529
485.0703, 1003.158
485.5524, 1018.730
486.0345, 1033.969
486.5167, 1049.009
486.9988, 1064.292
487.4809, 1080.603
487.9630, 1098.622
488.4451, 1117.513
488.9272, 1135.375
489.4094, 1151.714
489.8915, 1168.471
490.3736, 1186.437
490.8557, 1204.847
491.3378, 1223.547
491.8199, 1242.366
492.3021, 1261.089
492.7842, 1278.694
493.2663, 1296.145
493.7484, 1316.377
494.2305, 1340.313
494.7126, 1363.501
495.1948, 1382.857
495.6769, 1399.662
496.1590, 1417.112
496.6411, 1434.896
497.1232, 1454.242
497.6053, 1477.319
498.0875, 1501.950
498.5696, 1524.349
499.0517, 1543.519
499.5338, 1560.965
500.0159, 1577.644
500.4980, 1593.211
500.9802, 1611.781
501.4623, 1634.829
501.9444, 1658.952
502.4265, 1682.987
502.9086, 1707.285
503.3907, 1732.865
503.8729, 1760.170
504.3550, 1788.102
504.8371, 1814.689
505.3192, 1840.143
505.8013, 1863.954
506.2834, 1884.556
506.7656, 1905.075
507.2477, 1927.262
507.7298, 1950.381
508.2119, 1972.211
508.6940, 1990.826
509.1761, 2008.718
509.6583, 2032.049
510.1404, 2062.016
510.6225, 2090.239
511.1046, 2113.478
511.5867, 2134.583
512.0688, 2155.719
512.5510, 2176.897
513.0331, 2199.258
513.5152, 2225.404
513.9973, 2251.992
514.4794, 2274.545
514.9615, 2292.972
515.4437, 2306.520
515.9258, 2313.700
516.4079, 2316.480
516.8900, 2320.486
517.3721, 2325.551
517.8542, 2331.887
518.3364, 2340.890
518.8185, 2350.394
519.3006, 2358.207
519.7827, 2364.072
520.2648, 2368.862
520.7469, 2373.103
521.2291, 2376.905
521.7112, 2381.913
522.1933, 2389.160
522.6754, 2396.438
523.1575, 2402.136
523.6396, 2408.470
524.1218, 2417.315
524.6039, 2429.230
525.0860, 2443.911
525.5681, 2460.846
526.0502, 2479.990
526.5323, 2503.692
527.0145, 2532.654
527.4966, 2564.922
527.9787, 2597.585
528.4608, 2633.620
528.9429, 2678.416
529.4250, 2734.644
529.9072, 2794.991
530.3893, 2853.037
530.8714, 2910.447
531.3535, 2972.180
531.8356, 3038.517
532.3177, 3112.433
532.7999, 3197.441
533.2820, 3294.169
533.7641, 3394.601
534.2462, 3498.653
534.7283, 3605.768
535.2104, 3716.839
535.6926, 3830.450
536.1747, 3943.668
536.6568, 4055.147
537.1389, 4169.180
537.6210, 4292.866
538.1031, 4434.544
538.5853, 4552.640
539.0674, 4638.947
539.5495, 4711.747
540.0316, 4781.540
540.5137, 4840.977
540.9958, 4879.208
541.4780, 4891.963
541.9601, 4878.742
542.4422, 4837.931
542.9243, 4769.327
543.4064, 4677.513
543.8885, 4559.033
544.3707, 4421.210
544.8528, 4265.591
545.3349, 4096.963
545.8170, 3926.729
546.2991, 3758.067
546.7813, 3590.539
547.2634, 3419.736
547.7455, 3248.546
548.2276, 3086.195
548.7097, 2936.241
549.1918, 2793.619
549.6740, 2651.858
550.1561, 2510.037
550.6382, 2378.574
551.1203, 2257.043
551.6024, 2146.147
552.0845, 2047.673
552.5667, 1959.902
553.0488, 1880.154
553.5309, 1807.673
554.0130, 1739.852
554.4951, 1672.208
554.9772, 1603.299
555.4594, 1539.891
555.9415, 1481.945
556.4236, 1429.841
556.9057, 1386.016
557.3878, 1348.277
557.8699, 1312.107
558.3521, 1275.359
558.8342, 1239.961
559.3163, 1208.601
559.7984, 1181.325
560.2805, 1154.120
560.7626, 1125.933
561.2448, 1098.255
561.7269, 1070.996
562.2090, 1044.764
562.6911, 1023.269
563.1732, 1011.493
563.6553, 1000.633
564.1375, 984.1940
564.6196, 964.1177
565.1017, 944.6130
565.5838, 927.0830
566.0659, 911.9754
566.5480, 900.2933
567.0302, 892.8563
567.5123, 884.9437
567.9944, 875.6766
568.4765, 866.9204
568.9586, 860.0302
569.4407, 853.8998
569.9229, 846.6374
570.4050, 837.4993
570.8871, 828.2420
571.3692, 821.8242
571.8513, 818.4468
572.3334, 813.6871
572.8156, 805.5531
573.2977, 798.6793
573.7798, 796.5291
574.2619, 797.3054
574.7440, 797.8575
575.2261, 797.8230
575.7083, 796.6458
576.1904, 793.0184
576.6725, 788.0154
577.1546, 784.2645
577.6367, 782.3789
578.1188, 781.2642
578.6010, 779.6852
579.0831, 777.6660
579.5652, 777.9221
580.0473, 782.0920
580.5294, 786.2001
581.0115, 788.0192
581.4937, 789.7703
581.9758, 794.6643
582.4579, 803.0723
582.9400, 811.9595
583.4221, 818.3406
583.9042, 822.2491
584.3864, 824.5986
584.8685, 823.3875
585.3506, 824.2499
585.8327, 830.0288
586.3148, 838.1942
586.7969, 846.3496
587.2791, 854.1279
587.7612, 862.1912
588.2433, 871.4453
588.7254, 881.1613
589.2075, 889.5903
589.6896, 896.5854
590.1718, 904.0384
590.6539, 912.9916
591.1360, 923.1913
591.6181, 933.9884
592.1002, 944.6867
592.5823, 957.2371
593.0645, 972.8871
593.5466, 989.7228
594.0287, 1006.172
594.5108, 1022.347
594.9929, 1039.502
595.4750, 1058.501
595.9572, 1078.939
596.4393, 1099.628
596.9214, 1120.411
597.4035, 1142.102
597.8856, 1164.554
598.3677, 1188.391
598.8499, 1213.392
599.3320, 1240.031
599.8141, 1269.790
600.2962, 1304.467
600.7783, 1341.563
601.2604, 1378.057
601.7426, 1414.135
602.2247, 1452.083
602.7068, 1492.994
603.1889, 1534.456
603.6710, 1572.865
604.1531, 1607.528
604.6353, 1647.063
605.1174, 1695.885
605.5995, 1744.865
606.0816, 1788.520
606.5637, 1830.347
607.0458, 1875.445
607.5280, 1925.227
608.0101, 1977.428
608.4922, 2029.123
608.9743, 2080.105
609.4564, 2133.912
609.9385, 2191.942
610.4207, 2250.450
610.9028, 2310.954
611.3849, 2370.038
611.8670, 2423.120
612.3491, 2469.083
612.8312, 2513.806
613.3134, 2563.506
613.7955, 2613.730
614.2776, 2657.509
614.7597, 2694.029
615.2418, 2722.239
615.7239, 2741.381
616.2061, 2751.913
616.6882, 2754.814
617.1703, 2749.914
617.6524, 2737.537
618.1345, 2719.158
618.6166, 2692.014
619.0988, 2652.583
619.5809, 2602.853
620.0630, 2547.658
620.5451, 2489.651
621.0272, 2428.196
621.5093, 2362.200
621.9915, 2291.290
622.4736, 2218.010
622.9557, 2139.760
623.4378, 2063.099
623.9199, 1993.439
624.4020, 1928.616
624.8842, 1863.625
625.3663, 1795.509
625.8484, 1729.279
626.3305, 1668.144
626.8126, 1611.907
627.2947, 1561.578
627.7769, 1517.020
628.2590, 1475.470
628.7411, 1433.929
629.2232, 1392.754
629.7053, 1357.291
630.1874, 1331.363
630.6696, 1306.702
631.1517, 1282.454
631.6338, 1259.300
632.1159, 1236.966
632.5980, 1216.046
633.0801, 1198.725
633.5623, 1187.511
634.0444, 1180.074
634.5265, 1170.990
635.0086, 1160.143
635.4907, 1149.798
635.9728, 1140.685
636.4550, 1132.254
636.9371, 1123.285
637.4192, 1113.894
637.9013, 1107.533
638.3834, 1107.843
638.8655, 1108.111
639.3477, 1105.404
639.8298, 1099.677
640.3119, 1090.843
640.7940, 1078.936
641.2761, 1064.916
641.7582, 1049.777
642.2404, 1033.583
642.7225, 1015.583
643.2046, 994.7967
643.6867, 973.7892
644.1688, 951.6910
644.6509, 930.5116
645.1331, 913.6548
645.6152, 901.0719
646.0973, 886.3556
646.5794, 862.0729
647.0615, 834.8514
647.5436, 817.1499
648.0258, 807.9688
648.5079, 795.2895
648.9900, 773.5590
649.4721, 747.5959
649.9542, 725.3756
650.4363, 707.6879
650.9185, 691.0018
651.4006, 675.9980
651.8827, 661.1196
652.3648, 644.5660
652.8469, 628.1893
653.3290, 615.2047
653.8112, 606.4095
654.2933, 598.8790
654.7754, 589.0207
655.2575, 577.2174
655.7396, 566.7939
656.2217, 557.8866
656.7039, 550.0970
657.1860, 543.8649
657.6681, 538.3411
658.1502, 531.9510
658.6323, 524.4630
659.1144, 517.5546
659.5966, 512.8000
660.0787, 507.9893
660.5608, 500.4219
661.0429, 491.1960
661.5250, 483.6467
662.0071, 479.2067
662.4893, 476.4613
662.9714, 472.9700
663.4535, 468.3788
663.9356, 464.8937
664.4177, 463.4381
664.8998, 461.8820
665.3820, 459.1852
665.8641, 456.0539
666.3462, 453.4637
666.8283, 451.6366
667.3104, 449.8645
667.7925, 447.7679
668.2747, 445.3937
668.7568, 443.0470
669.2389, 440.6496
669.7210, 436.8918
670.2031, 430.6396
670.6852, 424.0221
671.1674, 421.6260
671.6495, 426.0332
672.1316, 427.7956
672.6137, 425.2236
673.0958, 422.1042
673.5779, 419.7197
674.0601, 417.9519
674.5422, 416.3910
675.0243, 414.9142
675.5064, 413.7445
675.9885, 413.1334
676.4706, 413.0216
676.9528, 413.1059
677.4349, 413.3213
677.9170, 414.3577
678.3991, 417.3421
678.8812, 420.6892
679.3633, 420.6219
679.8455, 416.0121
680.3276, 412.3107
680.8097, 409.8432
681.2918, 408.6255
681.7739, 409.4340
682.2560, 411.3324
682.7382, 412.4137
683.2203, 411.9893
683.7024, 411.5565
684.1845, 413.8667
684.6666, 418.7345
685.1487, 420.1391
685.6309, 416.4183
686.1130, 413.5541
686.5951, 414.8714
687.0772, 418.4230
687.5593, 421.2673
688.0414, 423.2699
688.5236, 425.1019
689.0057, 427.5619
689.4878, 429.4125
689.9699, 427.9102
690.4520, 425.1098
690.9341, 426.9054
691.4163, 435.4618
691.8984, 445.4231
692.3805, 448.6713
692.8626, 444.5798
693.3447, 443.8668
693.8268, 448.5179
694.3090, 453.0932
694.7911, 454.6283
695.2732, 455.6691
695.7553, 458.9277
696.2374, 464.6856
696.7195, 471.0734
697.2017, 477.4113
697.6838, 483.9200
698.1659, 491.1143
698.6480, 498.6635
699.1301, 505.4566
699.6122, 511.0793
700.0944, 516.3133
700.5765, 522.1017
701.0586, 528.4318
701.5407, 535.2308
702.0228, 543.4465
702.5049, 550.7186
702.9871, 554.8834
703.4692, 558.9594
703.9513, 566.5948
704.4334, 577.5739
704.9155, 587.2178
705.3976, 591.4481
705.8798, 594.0914
706.3619, 600.0597
706.8440, 608.3499
707.3261, 615.1907
707.8082, 619.4740
708.2903, 622.9833
708.7725, 627.9276
709.2546, 634.2603
709.7367, 637.9762
710.2188, 637.2512
710.7009, 636.3314
711.1830, 636.5726
711.6652, 636.2572
712.1473, 633.5089
712.6294, 628.7245
713.1115, 624.3796
713.5936, 622.6438
714.0757, 620.7357
714.5579, 614.7670
715.0400, 605.7072
715.5221, 596.6395
716.0042, 588.2220
716.4863, 581.0301
716.9684, 575.6980
717.4506, 571.9987
717.9327, 568.1305
718.4148, 564.6041
718.8969, 560.1702
719.3790, 554.1608
719.8611, 547.8006
720.3433, 541.6818
720.8254, 535.8814
721.3075, 530.3647
721.7896, 525.1772
722.2717, 520.0803
722.7538, 514.6248
723.2360, 509.0670
723.7181, 504.3951
724.2002, 500.7568
724.6823, 497.0779
725.1644, 492.4356
725.6465, 487.4459
726.1287, 484.0390
726.6108, 483.8476
727.0929, 482.1363
727.5750, 476.8580
728.0571, 472.2379
728.5392, 471.2672
729.0214, 472.1108
729.5035, 471.1881
729.9856, 467.2707
730.4677, 463.7365
730.9498, 464.8958
731.4319, 468.4420
731.9141, 468.3228
732.3962, 464.4165
732.8783, 461.2976
733.3604, 461.3533
733.8425, 462.4199
734.3246, 460.6572
734.8068, 454.8230
735.2889, 451.7090
735.7710, 452.6303
736.2531, 454.4334
736.7352, 457.4678
737.2173, 460.1691
737.6995, 460.7633
738.1816, 459.0643
738.6637, 456.4073
739.1458, 452.5618
739.6279, 449.0504
740.1100, 448.6210
740.5922, 450.8766
741.0743, 453.9643
741.5564, 457.5235
742.0385, 460.4876
742.5206, 461.8831
743.0027, 461.7028
743.4849, 459.7065
743.9670, 452.9337
744.4491, 448.4590
744.9312, 447.5470
745.4133, 448.5969
745.8954, 451.5675
746.3776, 455.5169
746.8597, 458.0280
747.3418, 457.5809
747.8239, 456.5106
748.3060, 457.6137
748.7881, 459.8770
749.2703, 460.5463
749.7524, 459.3102
750.2345, 457.8309
750.7166, 457.1449
751.1987, 457.0444
751.6808, 457.0106
752.1630, 457.3210
752.6451, 457.0558
753.1272, 454.7651
753.6093, 453.4779
754.0914, 455.0670
754.5735, 458.0718
755.0557, 460.7256
755.5378, 462.7105
756.0199, 463.1506
756.5020, 460.1895
756.9841, 456.2121
757.4662, 454.3229
757.9484, 454.2697
758.4305, 454.5672
758.9126, 454.6676
759.3947, 454.7911
759.8768, 455.2269
760.3589, 455.9789
760.8411, 456.7772
761.3232, 458.1467
761.8053, 458.5976
762.2874, 457.1634
762.7695, 455.1406
763.2516, 453.0496
763.7338, 451.1185
764.2159, 450.2708
764.6980, 451.6598
765.1801, 453.1425
765.6622, 452.8609
766.1443, 451.9745
766.6265, 452.6863
767.1086, 454.9288
767.5907, 456.2734
768.0728, 454.9005
768.5549, 452.2832
769.0370, 452.1972
769.5192, 455.0526
770.0013, 458.0373
770.4834, 461.7250
770.9655, 464.1287
771.4476, 462.4911
771.9297, 459.4130
772.4119, 459.8227
772.8940, 465.1598
773.3761, 468.8620
773.8582, 467.5947
774.3403, 465.5885
774.8224, 466.5651
775.3046, 468.8335
775.7867, 468.3956
776.2688, 464.2929
776.7509, 460.1672
777.2330, 460.2698
777.7151, 463.2919
778.1973, 463.2590
778.6794, 459.6668
779.1615, 459.1146
779.6436, 464.8400
780.1257, 471.3487
780.6078, 472.8828
781.0900, 469.6315
781.5721, 466.9501
782.0542, 463.3752
782.5363, 462.3308
783.0184, 466.7746
783.5005, 472.0159
783.9827, 474.8507
784.4648, 475.1939
784.9469, 473.7999
785.4290, 470.7243
785.9111, 467.5058
786.3932, 465.3372
786.8754, 464.4431
787.3575, 466.2483
787.8396, 470.6948
788.3217, 474.1856
788.8038, 474.8786
789.2859, 473.4714
789.7681, 470.5524
790.2502, 464.7521
790.7323, 464.5348
791.2144, 477.1084
791.6965, 486.1034
792.1786, 484.8833
792.6608, 480.2064
793.1429, 478.6454
793.6250, 480.4765
794.1071, 481.8706
794.5892, 480.4333
795.0714, 478.6823
795.5535, 478.4111
796.0356, 479.3299
796.5177, 481.3537
796.9998, 484.2032
797.4819, 486.6452
797.9641, 487.8357
798.4462, 487.9261
798.9283, 487.0286
799.4104, 484.8628
799.8925, 483.4987
800.3746, 482.5885
800.8568, 483.5621
801.3389, 488.9906
801.8210, 496.0436
802.3031, 499.1611
802.7852, 497.4284
803.2673, 495.9441
803.7495, 496.5621
804.2316, 496.7020
804.7137, 492.6686
805.1958, 488.2589
805.6779, 490.1266
806.1600, 498.8152
806.6422, 507.5179
807.1243, 510.7677
807.6064, 510.5692
808.0885, 510.3057
808.5706, 510.0755
809.0527, 510.6544
809.5349, 512.2045
810.0170, 514.5406
810.4991, 517.4888
810.9812, 521.1491
811.4633, 525.9902
811.9454, 533.3112
812.4276, 539.4193
812.9097, 544.9490
813.3918, 548.6052
813.8739, 547.8655
814.3560, 545.6559
814.8381, 546.2491
815.3203, 550.5345
815.8024, 556.5499
816.2845, 564.1962
816.7666, 572.3281
817.2487, 580.0344
817.7308, 587.2834
818.2130, 593.8881
818.6951, 599.8759
819.1772, 605.8444
819.6593, 612.3766
820.1414, 619.2905
820.6235, 625.6791
821.1057, 631.3085
821.5878, 638.3861
822.0699, 648.1818
822.5520, 657.5422
823.0341, 663.4985
823.5162, 667.5077
823.9984, 674.6294
824.4805, 686.8778
824.9626, 697.2582
825.4447, 703.0816
825.9268, 708.8774
826.4089, 716.3856
826.8911, 725.8524
827.3732, 737.5752
827.8553, 751.5587
828.3374, 766.7384
828.8195, 783.6713
829.3016, 800.4413
829.7838, 813.3522
830.2659, 823.5067
830.7480, 835.0453
831.2301, 848.8931
831.7122, 863.1998
832.1943, 876.2733
832.6765, 888.7009
833.1586, 902.5439
833.6407, 918.2986
834.1228, 933.5970
834.6049, 947.7881
835.0870, 962.0895
835.5692, 977.5360
836.0513, 993.2018
836.5334, 1007.677
837.0155, 1020.612
837.4976, 1033.743
837.9797, 1047.647
838.4619, 1061.631
838.9440, 1076.163
839.4261, 1090.005
839.9082, 1100.687
840.3903, 1108.509
840.8724, 1117.472
841.3546, 1131.036
841.8367, 1146.167
842.3188, 1158.058
842.8009, 1167.192
843.2830, 1175.146
843.7651, 1182.169
844.2473, 1189.424
844.7294, 1197.934
845.2115, 1206.205
845.6936, 1210.288
846.1757, 1208.379
846.6578, 1209.802
847.1400, 1217.140
847.6221, 1223.995
848.1042, 1225.297
848.5863, 1227.197
849.0684, 1236.980
849.5505, 1254.168
850.0327, 1270.046
850.5148, 1278.299
850.9969, 1289.498
851.4790, 1310.384
851.9611, 1335.659
852.4432, 1359.822
852.9254, 1382.676
853.4075, 1406.661
853.8896, 1432.946
854.3717, 1461.658
854.8538, 1492.366
855.3359, 1525.915
855.8181, 1565.537
856.3002, 1611.096
856.7823, 1656.908
857.2644, 1699.904
857.7465, 1745.254
858.2286, 1798.954
858.7108, 1860.870
859.1929, 1925.620
859.6750, 1992.413
860.1571, 2063.392
860.6392, 2135.798
861.1213, 2215.454
861.6035, 2306.015
862.0856, 2406.189
862.5677, 2512.871
863.0498, 2623.250
863.5319, 2746.815
864.0140, 2885.383
864.4962, 3038.647
864.9783, 3205.410
865.4604, 3387.450
865.9425, 3588.485
866.4246, 3808.813
866.9067, 4052.002
867.3889, 4315.748
867.8710, 4605.999
868.3531, 4930.827
868.8352, 5289.809
869.3173, 5682.129
869.7994, 6108.311
870.2816, 6561.938
870.7637, 7038.438
871.2458, 7535.151
871.7279, 8043.999
872.2100, 8564.656
872.6921, 9107.247
873.1743, 9663.418
873.6564, 10251.83
874.1385, 10867.14
874.6206, 11529.73
875.1027, 12243.88
875.5848, 13011.93
876.0670, 13864.08
876.5491, 14775.47
877.0312, 15804.55
877.5133, 16960.59
877.9954, 18239.45
878.4775, 19634.23
878.9597, 21150.84
879.4418, 22823.07
879.9239, 24657.89
880.4060, 26631.71
880.8881, 28817.90
881.3702, 31065.17
881.8524, 33241.72
882.3345, 35269.30
882.8166, 36957.51
883.2987, 38234.08
883.7808, 38888.38
884.2629, 38721.13
884.7451, 37783.30
885.2272, 36212.57
885.7093, 33975.42
886.1914, 31395.70
886.6735, 28404.90
887.1556, 25363.50
887.6378, 22398.53
888.1199, 19588.10
888.6020, 17085.62
889.0841, 14896.70
889.5662, 12994.40
890.0483, 11437.28
890.5305, 10095.52
891.0126, 8972.084
891.4947, 8013.870
891.9768, 7184.770
892.4589, 6473.708
892.9410, 5854.924
893.4232, 5330.882
893.9053, 4873.944
894.3874, 4481.490
894.8695, 4137.337
895.3516, 3828.472
895.8337, 3550.949
896.3159, 3305.073
896.7980, 3087.997
897.2801, 2893.343
897.7622, 2712.616
898.2443, 2548.488
898.7264, 2407.972
899.2086, 2289.998
899.6907, 2183.776
900.1728, 2087.157
900.6549, 1996.223
901.1370, 1908.116
901.6191, 1823.333
902.1013, 1744.314
902.5834, 1671.479
903.0655, 1602.622
903.5476, 1537.095
904.0297, 1476.926
904.5118, 1424.153
904.9940, 1376.485
905.4761, 1331.872
905.9582, 1290.400
906.4403, 1249.367
906.9224, 1207.302
907.4045, 1167.635
907.8867, 1132.411
908.3688, 1098.547
908.8509, 1064.026
909.3330, 1028.794
909.8151, 992.0462
910.2972, 953.4877
910.7794, 917.2322
911.2615, 885.6151
911.7436, 857.5510
912.2257, 833.5205
912.7078, 811.7979
913.1899, 788.6187
913.6721, 763.6749
914.1542, 740.5283
914.6363, 721.7257
915.1184, 705.4379
915.6005, 688.1592
916.0826, 670.3535
916.5648, 654.3519
917.0469, 640.4164
917.5290, 628.3824
918.0111, 618.4100
918.4932, 609.2831
918.9753, 599.6767
919.4575, 589.4774
919.9396, 576.5798
920.4217, 558.8535
920.9038, 544.3173
921.3859, 535.9762
921.8680, 528.3589
922.3502, 517.1813
922.8323, 504.4853
923.3144, 495.0663
923.7965, 489.9121
924.2786, 483.9532
924.7607, 475.6987
925.2429, 467.8050
925.7250, 461.2790
926.2071, 455.5102
926.6892, 450.2749
927.1713, 445.2680
927.6534, 439.5476
928.1356, 432.4510
928.6177, 425.4237
929.0998, 418.5297
929.5819, 412.8424
930.0640, 410.2839
930.5461, 409.6870
931.0283, 408.4140
931.5104, 405.6950
931.9925, 402.5354
932.4746, 400.1212
932.9567, 397.3607
933.4388, 391.5259
933.9210, 383.5529
934.4031, 376.8419
934.8852, 371.9254
935.3673, 369.2409
935.8494, 369.2549
936.3315, 369.7565
936.8137, 366.8033
937.2958, 360.5299
937.7779, 356.3239
938.2600, 354.6070
938.7421, 353.0838
939.2242, 351.7472
939.7064, 349.0427
940.1885, 342.9602
940.6706, 334.7707
941.1527, 329.4001
941.6348, 328.2040
942.1169, 326.6911
942.5991, 324.3338
943.0812, 322.3151
943.5633, 321.8209
944.0454, 321.2694
944.5275, 318.7809
945.0096, 314.5594
945.4918, 310.6270
945.9739, 307.0819
946.4560, 304.3618
946.9381, 303.1888
947.4202, 302.3416
947.9023, 300.4125
948.3845, 298.2957
948.8666, 298.2139
949.3487, 300.4833
949.8308, 301.8141
950.3129, 299.6074
950.7950, 296.0523
951.2772, 292.7968
951.7593, 289.8182
952.2414, 286.9748
952.7235, 284.3691
953.2056, 282.6098
953.6877, 281.9943
954.1699, 281.5267
954.6520, 279.7703
955.1341, 278.5583
955.6162, 276.9969
956.0983, 274.8120
956.5804, 273.3139
957.0626, 270.8637
957.5447, 268.6354
958.0268, 267.5677
958.5089, 267.0805
958.9910, 265.4648
959.4731, 264.9734
959.9553, 264.9370
960.4374, 263.4551
960.9195, 264.5443
961.4016, 263.7522
961.8837, 261.7601
962.3658, 258.9058
962.8480, 255.4698
963.3301, 253.7015
963.8122, 254.8126
964.2943, 254.9869
964.7764, 253.6145
965.2585, 251.8822
965.7407, 249.2395
966.2228, 247.1586
966.7049, 248.1800
967.1870, 252.2898
967.6691, 254.5520
968.1512, 254.0475
968.6334, 252.2105
969.1155, 247.6936
969.5976, 243.5767
970.0797, 243.0776
970.5618, 244.0632
971.0439, 241.7525
971.5261, 235.1261
972.0082, 230.5672
972.4903, 232.8386
972.9724, 235.9636
973.4545, 237.0074
973.9366, 236.1616
974.4188, 233.0914
974.9009, 228.4677
975.3830, 223.4602
975.8651, 218.4241
976.3472, 215.4539
976.8293, 217.7124
977.3115, 222.0951
977.7936, 225.1932
978.2757, 226.8139
978.7578, 226.3570
979.2399, 224.0680
979.7220, 221.5665
980.2042, 219.8373
980.6863, 218.6646
981.1684, 217.6559
981.6505, 216.9533
982.1326, 217.3030
982.6147, 218.5728
983.0969, 219.9731
983.5790, 221.2605
984.0611, 220.5092
984.5432, 215.7170
985.0253, 208.7115
985.5074, 204.4007
985.9896, 202.8408
986.4717, 201.7904
986.9538, 201.2406
987.4359, 200.4919
987.9180, 199.2526
988.4001, 197.7324
988.8823, 195.9247
989.3644, 194.0894
989.8465, 194.3066
990.3286, 198.0793
990.8107, 198.9353
991.2928, 194.5103
991.7750, 191.0892
992.2571, 192.4355
992.7392, 195.2677
993.2213, 194.8534
993.7034, 191.2118
994.1855, 189.9577
994.6677, 193.9638
995.1498, 196.0342
995.6319, 195.2436
996.1140, 192.9762
996.5961, 188.7454
997.0782, 184.0227
997.5604, 180.5198
998.0425, 178.3592
998.5246, 178.4336
999.0067, 183.5831
999.4888, 187.2957
999.9709, 187.3585
1000.453, 185.7453
1000.935, 182.8633
1001.417, 179.7497
1001.899, 178.1534
1002.382, 178.4238
1002.864, 178.9486
1003.346, 179.2370
1003.828, 179.3960
1004.310, 179.3697
1004.792, 179.3337
1005.274, 179.7066
1005.756, 180.1855
1006.238, 179.9937
1006.721, 178.8807
1007.203, 177.4097
1007.685, 174.8920
1008.167, 173.2521
1008.649, 176.1214
1009.131, 180.1086
1009.613, 179.1128
1010.095, 173.9795
1010.578, 170.1510
1011.060, 170.0655
1011.542, 171.1434
1012.024, 170.9660
1012.506, 170.3132
1012.988, 170.7524
1013.470, 171.6004
1013.952, 170.9015
1014.434, 168.6330
1014.917, 166.1509
1015.399, 164.1446
1015.881, 163.5634
1016.363, 167.1871
1016.845, 172.7672
1017.327, 173.2357
1017.809, 169.7100
1018.291, 167.5576
1018.773, 167.8572
1019.256, 169.3298
1019.738, 171.2845
1020.220, 172.8803
1020.702, 172.8569
1021.184, 171.2328
1021.666, 167.1616
1022.148, 160.8420
1022.630, 157.7922
1023.113, 159.3993
1023.595, 162.0722
1024.077, 163.4791
1024.559, 163.5678
1025.041, 161.7621
1025.523, 158.0323
1026.005, 156.0292
1026.487, 155.8374
1026.969, 156.9997
1027.452, 159.8457
1027.934, 161.9055
1028.416, 161.1054
1028.898, 158.6136
1029.380, 157.3521
1029.862, 157.5676
1030.344, 156.7202
1030.826, 154.1539
1031.309, 152.9784
1031.791, 154.6070
1032.273, 156.3291
1032.755, 155.8822
1033.237, 154.1302
1033.719, 153.5701
1034.201, 154.7799
1034.683, 154.2083
1035.166, 149.8226
1035.648, 148.3283
1036.130, 153.6587
1036.612, 158.9818
1037.094, 158.2544
1037.576, 153.7330
1038.058, 152.1034
1038.540, 154.5695
1039.022, 155.6531
1039.505, 154.2350
1039.987, 153.2213
1040.469, 153.8216
1040.951, 154.4934
1041.433, 153.5714
1041.915, 151.8689
1042.397, 151.9362
1042.879, 154.6512
1043.361, 156.2515
1043.844, 155.1309
1044.326, 155.0047
1044.808, 158.7482
1045.290, 161.9145
1045.772, 159.9893
1046.254, 155.1430
1046.736, 153.1118
1047.218, 155.1131
1047.700, 156.4137
1048.183, 156.2882
1048.665, 155.7292
1049.147, 154.3817
1049.629, 153.2776
1050.111, 153.7731
1050.593, 154.9921
1051.075, 154.3648
1051.557, 150.8229
1052.040, 149.9799
1052.522, 156.4197
1053.004, 161.0368
1053.486, 158.9728
1053.968, 155.6445
1054.450, 155.4360
1054.932, 157.3056
1055.414, 158.4125
1055.896, 158.2221
1056.379, 158.1977
1056.861, 158.7001
1057.343, 159.4605
1057.825, 160.7855
1058.307, 161.9449
1058.789, 162.7126
1059.271, 162.7593
1059.753, 161.1773
1060.236, 157.7401
1060.718, 155.1308
1061.200, 153.5866
1061.682, 153.8508
1062.164, 158.4575
1062.646, 162.9144
1063.128, 162.8597
1063.610, 160.2523
1064.093, 158.9572
1064.575, 159.6757
1065.057, 160.7537
1065.539, 161.2841
1066.021, 162.4491
1066.503, 166.5977
1066.985, 169.8170
1067.467, 167.8628
1067.949, 163.2587
1068.432, 160.5004
1068.914, 160.2442
1069.396, 159.8363
1069.878, 157.5322
1070.360, 155.9287
1070.842, 156.6980
1071.324, 158.1007
1071.806, 159.0142
1072.288, 159.4973
1072.771, 159.8975
1073.253, 160.2050
1073.735, 159.8858
1074.217, 158.0139
1074.699, 156.8921
1075.181, 158.8256
1075.663, 160.6618
1076.145, 158.7473
1076.627, 155.9710
1077.110, 157.4388
1077.592, 162.6220
1078.074, 165.4480
1078.556, 162.7757
1079.038, 160.1472
1079.520, 159.9389
1080.002, 160.9287
1080.484, 163.2772
1080.967, 165.6557
1081.449, 166.2782
1081.931, 165.3933
1082.413, 164.7243
1082.895, 164.9977
1083.377, 164.7252
1083.859, 162.0408
1084.341, 159.9623
1084.823, 160.8185
1085.306, 162.9416
1085.788, 165.3838
1086.270, 167.2395
1086.752, 166.2204
1087.234, 161.1942
1087.716, 157.7737
1088.198, 159.1592
1088.680, 161.7912
1089.163, 165.7471
1089.645, 168.3600
1090.127, 165.8319
1090.609, 160.3554
1091.091, 157.1729
1091.573, 157.4270
1092.055, 157.3904
1092.537, 154.4074
1093.020, 152.4658
1093.502, 154.4007
1093.984, 157.0150
1094.466, 158.5881
1094.948, 158.6585
1095.430, 155.7369
1095.912, 150.0778
1096.394, 147.3852
1096.876, 152.1752
1097.359, 156.1428
1097.841, 155.7082
1098.323, 154.4383
1098.805, 154.3850
1099.287, 155.0669
1099.769, 155.7951
1100.251, 156.4533
1100.733, 157.0108
1101.215, 157.8725
1101.698, 157.7474
1102.180, 155.0714
1102.662, 152.7804
1103.144, 152.7422
1103.626, 153.4943
1104.108, 153.4797
1104.590, 152.8300
1105.072, 152.4254
1105.554, 152.3709
1106.037, 152.6664
1106.519, 154.0297
1107.001, 154.8018
1107.483, 154.6315
1107.965, 153.4417
1108.447, 150.0550
1108.929, 145.9172
1109.411, 144.5655
1109.894, 146.8384
1110.376, 148.0662
1110.858, 146.7019
1111.340, 145.8526
1111.822, 147.1284
1112.304, 147.9919
1112.786, 146.3189
1113.268, 143.6399
1113.750, 142.1734
1114.233, 141.9657
1114.715, 142.7243
1115.197, 145.7373
1115.679, 147.5636
1116.161, 146.5722
1116.643, 146.3932
1117.125, 150.2731
1117.607, 153.9395
1118.090, 151.7415
1118.572, 145.0686
1119.054, 141.9871
1119.536, 144.5118
1120.018, 145.6764
1120.500, 145.6005
1120.982, 143.7322
1121.464, 138.5435
1121.947, 133.7211
1122.429, 132.2337
1122.911, 133.3089
1123.393, 135.2915
1123.875, 138.5564
1124.357, 139.5504
1124.839, 137.1556
1125.321, 136.3578
1125.803, 138.5826
1126.286, 141.2660
1126.768, 143.2797
1127.250, 144.0521
1127.732, 142.2702
1128.214, 138.3440
1128.696, 137.5096
1129.178, 140.5118
1129.660, 139.9505
1130.142, 134.2775
1130.625, 130.9923
1131.107, 133.6777
1131.589, 136.9379
1132.071, 134.9586
1132.553, 129.7121
1133.035, 127.0540
1133.517, 126.9243
1133.999, 128.1311
1134.481, 130.5805
1134.964, 132.0659
1135.446, 131.9863
1135.928, 131.9771
1136.410, 133.2473
1136.892, 132.9295
1137.374, 134.6147
1137.856, 133.2492
1138.338, 132.9398
1138.821, 133.1461
1139.303, 130.0456
1139.785, 123.9286
1140.267, 121.4613
1140.749, 125.6195
1141.231, 131.0784
1141.713, 132.4438
1142.195, 131.5259
1142.677, 131.3585
1143.160, 131.4835
1143.642, 131.0572
1144.124, 129.9398
1144.606, 127.4293
1145.088, 123.7687
1145.570, 121.5679
1146.052, 122.6813
1146.534, 125.1569
1147.017, 128.5921
1147.499, 130.8620
1147.981, 127.7554
1148.463, 122.3209
1148.945, 119.9677
1149.427, 120.8017
1149.909, 121.9428
1150.391, 122.2971
1150.874, 122.9152
1151.356, 125.4738
1151.838, 127.3302
1152.320, 125.8059
1152.802, 123.3634
1153.284, 122.4681
1153.766, 122.5769
1154.248, 122.2488
1154.730, 121.2483
1155.213, 120.1876
1155.695, 118.7840
1156.177, 118.2003
1156.659, 119.4277
1157.141, 120.8760
1157.623, 121.5611
1158.105, 122.0690
1158.587, 123.7872
1159.069, 125.9511
1159.552, 125.3193
1160.034, 120.1094
1160.516, 117.0988
1160.998, 118.4156
1161.480, 119.7979
1161.962, 120.5760
1162.444, 120.8839
1162.926, 120.7598
1163.408, 120.2297
1163.891, 119.2093
1164.373, 117.7093
1164.855, 116.6477
1165.337, 115.8039
1165.819, 116.1466
1166.301, 118.3084
1166.783, 120.0400
1167.265, 120.2974
1167.748, 120.4205
1168.230, 121.7711
1168.712, 123.7679
1169.194, 125.0391
1169.676, 125.6477
1170.158, 122.8833
1170.640, 116.4180
1171.122, 114.1882
1171.604, 117.8915
1172.087, 122.3968
1172.569, 125.0517
1173.051, 125.6315
1173.533, 123.4639
1174.015, 119.5155
1174.497, 115.7055
1174.979, 112.5697
1175.461, 113.4942
1175.944, 117.4732
1176.426, 117.8056
1176.908, 113.1976
1177.390, 110.4987
1177.872, 114.9078
1178.354, 120.4201
1178.836, 119.9214
1179.318, 116.2321
1179.801, 111.6626
1180.283, 107.8629
1180.765, 108.6463
1181.247, 112.6826
1181.729, 114.5954
1182.211, 112.6801
1182.693, 110.6856
1183.175, 110.3442
1183.657, 111.3506
1184.140, 115.5457
1184.622, 118.9940
1185.104, 117.1905
1185.586, 113.1772
1186.068, 111.1448
1186.550, 111.4667
1187.032, 113.0914
1187.514, 116.7800
1187.996, 118.7189
1188.479, 116.6773
1188.961, 114.7673
1189.443, 113.8903
1189.925, 114.0372
1190.407, 116.2134
1190.889, 118.8869
1191.371, 119.5231
1191.853, 118.1104
1192.335, 115.7351
1192.818, 111.1966
1193.300, 109.1575
1193.782, 111.0941
1194.264, 111.9469
1194.746, 108.9862
1195.228, 107.3932
1195.710, 112.4295
1196.192, 120.5331
1196.675, 122.7301
1197.157, 119.3352
1197.639, 118.0322
1198.121, 118.6931
1198.603, 116.9475
1199.085, 112.2999
1199.567, 109.5010
1200.049, 110.6865
1200.531, 112.7127
1201.014, 112.5495
1201.496, 110.9209
1201.978, 107.7069
1202.460, 104.6903
1202.942, 106.8797
1203.424, 112.3643
1203.906, 115.9668
1204.388, 116.8255
1204.871, 116.4531
1205.353, 115.4734
1205.835, 114.3548
1206.317, 113.8540
1206.799, 112.8690
1207.281, 108.5133
1207.763, 105.0734
1208.245, 109.4093
1208.728, 116.5819
1209.210, 116.5775
1209.692, 109.3970
1210.174, 105.6697
1210.656, 110.1119
1211.138, 113.2042
1211.620, 111.4356
1212.102, 110.2022
1212.584, 113.1129
1213.067, 115.4816
1213.549, 113.3183
1214.031, 108.7202
1214.513, 105.2768
1214.995, 102.9873
1215.477, 101.6247
1215.959, 101.2005
1216.441, 101.8261
1216.923, 103.8402
1217.406, 105.3486
1217.888, 105.5466
1218.370, 106.0959
1218.852, 108.6609
1219.334, 111.3468
1219.816, 109.6917
1220.298, 104.8735
1220.780, 102.9894
1221.262, 103.6511
1221.745, 105.2888
1222.227, 107.4726
1222.709, 109.6355
1223.191, 111.4820
1223.673, 112.2228
1224.155, 111.1023
1224.637, 109.1053
1225.119, 105.9199
1225.602, 103.7186
1226.084, 106.5418
1226.566, 111.2656
1227.048, 113.0643
1227.530, 112.1736
1228.012, 110.9821
1228.494, 110.1176
1228.976, 109.8126
1229.458, 111.0911
1229.941, 111.5735
1230.423, 110.2043
1230.905, 108.2155
1231.387, 105.5975
1231.869, 103.2553
1232.351, 102.4942
1232.833, 102.7231
1233.315, 101.9184
1233.798, 99.58346
1234.280, 99.43958
1234.762, 102.5174
1235.244, 104.0315
1235.726, 102.6047
1236.208, 102.6763
1236.690, 106.6471
1237.172, 110.8131
1237.655, 111.3608
1238.137, 109.4214
1238.619, 107.1442
1239.101, 104.8917
1239.583, 105.0301
1240.065, 106.8283
1240.547, 106.2511
1241.029, 103.4449
1241.511, 103.4755
1241.994, 108.0977
1242.476, 110.8855
1242.958, 104.8763
1243.440, 98.53858
1243.922, 101.5272
1244.404, 106.7047
1244.886, 106.5937
1245.368, 103.9499
1245.850, 102.9583
1246.333, 103.6727
1246.815, 104.4602
1247.297, 105.0306
1247.779, 105.1828
1248.261, 103.8645
1248.743, 103.6535
1249.225, 107.0965
1249.707, 109.0248
1250.189, 105.6992
1250.672, 102.0076
1251.154, 103.1284
1251.636, 107.0947
1252.118, 108.0784
1252.600, 105.9174
1253.082, 104.3745
1253.564, 103.4791
1254.046, 102.2929
1254.529, 100.6852
1255.011, 101.4086
1255.493, 105.5247
1255.975, 108.6762
1256.457, 106.9091
1256.939, 102.9210
1257.421, 99.65556
1257.903, 97.87579
1258.385, 100.6837
1258.868, 105.0921
1259.350, 104.6556
1259.832, 100.6746
1260.314, 99.19400
1260.796, 101.5930
1261.278, 103.3938
1261.760, 102.2188
1262.242, 100.8659
1262.725, 100.4842
1263.207, 100.1521
1263.689, 97.65800
1264.171, 96.60825
1264.653, 103.1899
1265.135, 100.9765
1265.617, 101.4232
1266.099, 103.7831
1266.582, 100.2314
1267.064, 103.2188
1267.546, 104.8673
1268.028, 104.5107
1268.510, 103.9813
1268.992, 103.7628
1269.474, 104.1697
1269.956, 105.5519
1270.438, 106.4440
1270.921, 103.9663
1271.403, 105.4914
1271.885, 101.6185
1272.367, 105.4691
1272.849, 106.9839
1273.331, 106.2013
1273.813, 104.0646
1274.295, 101.1584
1274.777, 98.35017
1275.260, 95.79322
1275.742, 95.34053
1276.224, 100.3531
1276.706, 104.5143
1277.188, 103.1940
1277.670, 101.6597
1278.152, 105.5692
1278.634, 110.0028
1279.116, 106.5945
1279.599, 98.16145
1280.081, 95.70087
1280.563, 100.4852
1281.045, 103.4844
1281.527, 104.5398
1282.009, 104.1235
1282.491, 101.9756
1282.973, 101.2090
1283.456, 103.2099
1283.938, 105.5017
1284.420, 105.9406
1284.902, 105.2064
1285.384, 104.2438
##END=



