##NAMES=Tantalite-(Fe)
##RRUFFID=R070548
##IDEAL CHEMISTRY=Fe^2+^Ta^5+^_2_O_6_
##LOCALITY=Grizzly Bear Gulch, Black Hills, Custer County, South Dakota, USA
##OWNER=RRUFF
##SOURCE=James Shigley
##DESCRIPTION=Submetallic dark grey fragments with parallel cleavage planes
##STATUS=The identification of this mineral has been made only by X-ray diffraction.
##URL=rruff.info/R070548
153.0481, 1268.605
153.5302, 1280.293
154.0123, 1297.733
154.4944, 1314.826
154.9765, 1325.805
155.4586, 1319.150
155.9408, 1316.399
156.4229, 1324.339
156.9050, 1340.460
157.3871, 1349.898
157.8692, 1355.106
158.3513, 1358.557
158.8335, 1362.666
159.3156, 1369.465
159.7977, 1376.020
160.2798, 1381.116
160.7619, 1384.414
161.2440, 1387.015
161.7262, 1390.093
162.2083, 1392.826
162.6904, 1393.379
163.1725, 1389.307
163.6546, 1383.989
164.1367, 1379.424
164.6189, 1375.438
165.1010, 1372.917
165.5831, 1371.559
166.0652, 1371.672
166.5473, 1374.668
167.0294, 1382.443
167.5116, 1392.718
167.9937, 1403.540
168.4758, 1416.631
168.9579, 1427.865
169.4400, 1434.306
169.9221, 1436.205
170.4043, 1435.863
170.8864, 1429.361
171.3685, 1422.670
171.8506, 1423.725
172.3327, 1444.490
172.8148, 1468.731
173.2970, 1481.793
173.7791, 1483.439
174.2612, 1480.795
174.7433, 1475.299
175.2254, 1469.702
175.7076, 1469.319
176.1897, 1481.853
176.6718, 1498.748
177.1539, 1510.705
177.6360, 1517.635
178.1181, 1517.733
178.6003, 1504.885
179.0824, 1482.551
179.5645, 1462.621
180.0466, 1449.273
180.5287, 1442.343
181.0108, 1444.919
181.4930, 1460.655
181.9751, 1474.979
182.4572, 1463.410
182.9393, 1430.182
183.4214, 1400.759
183.9035, 1396.020
184.3857, 1407.386
184.8678, 1411.106
185.3499, 1401.560
185.8320, 1387.017
186.3141, 1380.751
186.7962, 1382.459
187.2784, 1387.903
187.7605, 1395.555
188.2426, 1404.760
188.7247, 1412.760
189.2068, 1418.677
189.6889, 1423.286
190.1711, 1429.021
190.6532, 1435.985
191.1353, 1441.497
191.6174, 1441.134
192.0995, 1435.792
192.5816, 1434.440
193.0638, 1441.052
193.5459, 1452.636
194.0280, 1458.687
194.5101, 1458.673
194.9922, 1456.670
195.4743, 1456.233
195.9565, 1457.365
196.4386, 1459.657
196.9207, 1462.136
197.4028, 1465.480
197.8849, 1474.646
198.3671, 1490.733
198.8492, 1509.593
199.3313, 1527.876
199.8134, 1546.070
200.2955, 1559.154
200.7776, 1562.972
201.2598, 1558.140
201.7419, 1560.771
202.2240, 1572.777
202.7061, 1588.435
203.1882, 1599.757
203.6703, 1606.278
204.1525, 1610.843
204.6346, 1614.446
205.1167, 1617.093
205.5988, 1618.495
206.0809, 1618.877
206.5630, 1617.695
207.0452, 1613.168
207.5273, 1604.011
208.0094, 1595.987
208.4915, 1592.890
208.9736, 1596.521
209.4557, 1593.802
209.9379, 1582.043
210.4200, 1566.237
210.9021, 1558.562
211.3842, 1563.127
211.8663, 1564.911
212.3484, 1554.469
212.8306, 1527.333
213.3127, 1508.087
213.7948, 1499.519
214.2769, 1498.251
214.7590, 1494.622
215.2411, 1486.806
215.7233, 1480.586
216.2054, 1480.498
216.6875, 1489.926
217.1696, 1493.422
217.6517, 1487.843
218.1338, 1476.058
218.6160, 1468.870
219.0981, 1467.927
219.5802, 1468.483
220.0623, 1467.915
220.5444, 1466.283
221.0265, 1462.808
221.5087, 1454.886
221.9908, 1444.797
222.4729, 1445.920
222.9550, 1466.593
223.4371, 1485.991
223.9192, 1488.143
224.4014, 1462.430
224.8835, 1446.242
225.3656, 1446.901
225.8477, 1461.666
226.3298, 1470.269
226.8119, 1471.219
227.2941, 1468.079
227.7762, 1461.836
228.2583, 1447.201
228.7404, 1442.010
229.2225, 1453.250
229.7046, 1478.532
230.1868, 1490.004
230.6689, 1477.659
231.1510, 1463.219
231.6331, 1465.412
232.1152, 1496.520
232.5974, 1519.097
233.0795, 1525.063
233.5616, 1515.253
234.0437, 1512.992
234.5258, 1522.347
235.0079, 1534.955
235.4901, 1543.105
235.9722, 1542.544
236.4543, 1546.174
236.9364, 1557.575
237.4185, 1576.798
237.9006, 1593.601
238.3828, 1610.762
238.8649, 1622.661
239.3470, 1621.844
239.8291, 1594.808
240.3112, 1580.300
240.7933, 1589.288
241.2755, 1622.643
241.7576, 1647.808
242.2397, 1662.083
242.7218, 1670.724
243.2039, 1679.070
243.6860, 1689.131
244.1682, 1695.014
244.6503, 1695.151
245.1324, 1689.423
245.6145, 1680.789
246.0966, 1665.517
246.5787, 1651.020
247.0609, 1646.420
247.5430, 1659.946
248.0251, 1667.356
248.5072, 1660.866
248.9893, 1639.319
249.4714, 1626.649
249.9536, 1627.155
250.4357, 1632.312
250.9178, 1632.806
251.3999, 1626.492
251.8820, 1619.729
252.3641, 1613.068
252.8463, 1606.337
253.3284, 1603.734
253.8105, 1606.715
254.2926, 1612.345
254.7747, 1618.162
255.2568, 1626.584
255.7390, 1629.933
256.2211, 1624.296
256.7032, 1608.806
257.1853, 1600.836
257.6674, 1603.866
258.1495, 1610.611
258.6317, 1611.848
259.1138, 1602.870
259.5959, 1599.531
260.0780, 1607.458
260.5601, 1627.472
261.0422, 1642.178
261.5244, 1649.863
262.0065, 1654.380
262.4886, 1660.404
262.9707, 1669.834
263.4528, 1675.581
263.9349, 1673.686
264.4171, 1663.629
264.8992, 1665.179
265.3813, 1686.102
265.8634, 1707.426
266.3455, 1704.080
266.8276, 1664.549
267.3098, 1636.820
267.7919, 1635.954
268.2740, 1661.563
268.7561, 1678.448
269.2382, 1685.083
269.7203, 1685.070
270.2025, 1680.809
270.6846, 1670.765
271.1667, 1662.501
271.6488, 1657.618
272.1309, 1656.087
272.6130, 1658.465
273.0952, 1667.714
273.5773, 1674.640
274.0594, 1667.109
274.5415, 1641.990
275.0236, 1620.686
275.5057, 1608.635
275.9879, 1605.168
276.4700, 1605.079
276.9521, 1609.156
277.4342, 1614.519
277.9163, 1619.199
278.3984, 1623.513
278.8806, 1624.172
279.3627, 1619.529
279.8448, 1610.557
280.3269, 1602.008
280.8090, 1593.611
281.2911, 1586.638
281.7733, 1581.728
282.2554, 1578.809
282.7375, 1579.843
283.2196, 1587.761
283.7017, 1599.315
284.1838, 1600.325
284.6660, 1589.266
285.1481, 1576.077
285.6302, 1570.361
286.1123, 1571.663
286.5944, 1570.842
287.0765, 1566.215
287.5587, 1557.997
288.0408, 1543.421
288.5229, 1521.406
289.0050, 1504.663
289.4871, 1509.039
289.9692, 1530.801
290.4514, 1544.924
290.9335, 1544.437
291.4156, 1535.143
291.8977, 1530.032
292.3798, 1529.040
292.8619, 1527.326
293.3441, 1519.267
293.8262, 1506.827
294.3083, 1497.982
294.7904, 1494.507
295.2726, 1494.649
295.7547, 1496.827
296.2368, 1500.762
296.7189, 1503.488
297.2010, 1501.214
297.6831, 1496.130
298.1653, 1493.917
298.6474, 1496.403
299.1295, 1500.368
299.6116, 1501.637
300.0937, 1500.521
300.5758, 1498.726
301.0580, 1496.871
301.5401, 1495.182
302.0222, 1493.928
302.5043, 1493.037
302.9864, 1492.944
303.4685, 1494.003
303.9507, 1496.242
304.4328, 1499.728
304.9149, 1505.178
305.3970, 1511.618
305.8791, 1518.837
306.3612, 1527.688
306.8434, 1533.715
307.3255, 1526.562
307.8076, 1513.049
308.2897, 1508.834
308.7718, 1533.476
309.2539, 1564.973
309.7361, 1581.284
310.2182, 1578.078
310.7003, 1572.480
311.1824, 1575.174
311.6645, 1583.581
312.1466, 1593.239
312.6288, 1606.196
313.1109, 1616.998
313.5930, 1620.467
314.0751, 1615.581
314.5572, 1611.783
315.0393, 1615.359
315.5215, 1622.608
316.0036, 1628.787
316.4857, 1636.049
316.9678, 1638.735
317.4499, 1631.714
317.9320, 1614.524
318.4142, 1599.499
318.8963, 1591.012
319.3784, 1587.018
319.8605, 1585.477
320.3426, 1593.128
320.8247, 1596.164
321.3069, 1584.957
321.7890, 1560.672
322.2711, 1545.988
322.7532, 1557.140
323.2353, 1573.767
323.7174, 1581.157
324.1996, 1566.602
324.6817, 1553.678
325.1638, 1546.450
325.6459, 1544.433
326.1280, 1544.300
326.6101, 1550.698
327.0923, 1555.502
327.5744, 1554.292
328.0565, 1539.203
328.5386, 1527.515
329.0207, 1521.422
329.5028, 1519.451
329.9850, 1515.914
330.4671, 1507.954
330.9492, 1501.298
331.4313, 1498.538
331.9134, 1502.538
332.3955, 1505.114
332.8777, 1505.123
333.3598, 1503.997
333.8419, 1505.119
334.3240, 1510.051
334.8061, 1514.724
335.2882, 1517.611
335.7704, 1518.261
336.2525, 1518.764
336.7346, 1519.475
337.2167, 1519.643
337.6988, 1517.529
338.1809, 1511.755
338.6631, 1507.645
339.1452, 1507.391
339.6273, 1511.128
340.1094, 1514.607
340.5915, 1518.578
341.0736, 1520.874
341.5558, 1517.252
342.0379, 1506.676
342.5200, 1499.322
343.0021, 1497.616
343.4842, 1501.352
343.9663, 1511.822
344.4485, 1530.554
344.9306, 1547.627
345.4127, 1551.568
345.8948, 1543.696
346.3769, 1536.406
346.8590, 1532.753
347.3412, 1531.150
347.8233, 1527.571
348.3054, 1522.094
348.7875, 1517.531
349.2696, 1515.046
349.7517, 1515.103
350.2339, 1519.666
350.7160, 1530.221
351.1981, 1542.888
351.6802, 1552.734
352.1623, 1560.063
352.6444, 1566.842
353.1266, 1574.778
353.6087, 1582.645
354.0908, 1588.388
354.5729, 1591.597
355.0550, 1593.206
355.5371, 1592.646
356.0193, 1591.086
356.5014, 1591.180
356.9835, 1598.789
357.4656, 1605.887
357.9477, 1603.629
358.4298, 1590.679
358.9120, 1579.248
359.3941, 1579.701
359.8762, 1585.296
360.3583, 1587.454
360.8404, 1575.695
361.3225, 1565.973
361.8047, 1569.458
362.2868, 1585.546
362.7689, 1596.793
363.2510, 1590.392
363.7331, 1579.507
364.2152, 1574.730
364.6974, 1587.777
365.1795, 1597.310
365.6616, 1595.939
366.1437, 1586.069
366.6258, 1579.513
367.1079, 1580.277
367.5901, 1583.334
368.0722, 1586.369
368.5543, 1590.846
369.0364, 1592.958
369.5185, 1590.209
370.0006, 1585.228
370.4828, 1584.088
370.9649, 1592.195
371.4470, 1598.058
371.9291, 1596.493
372.4112, 1582.872
372.8933, 1578.250
373.3755, 1587.176
373.8576, 1601.535
374.3397, 1609.955
374.8218, 1609.369
375.3039, 1609.835
375.7861, 1614.866
376.2682, 1624.199
376.7503, 1628.735
377.2324, 1626.740
377.7145, 1623.552
378.1967, 1623.994
378.6788, 1628.252
379.1609, 1634.405
379.6430, 1642.329
380.1251, 1651.821
380.6072, 1663.032
381.0894, 1676.166
381.5715, 1689.065
382.0536, 1700.898
382.5357, 1711.547
383.0178, 1718.871
383.4999, 1721.822
383.9821, 1723.395
384.4642, 1726.839
384.9463, 1732.497
385.4284, 1742.056
385.9105, 1761.605
386.3926, 1784.459
386.8748, 1796.180
387.3569, 1794.488
387.8390, 1793.417
388.3211, 1810.452
388.8032, 1837.725
389.2853, 1858.855
389.7675, 1860.220
390.2496, 1857.498
390.7317, 1865.398
391.2138, 1883.413
391.6959, 1899.961
392.1780, 1908.844
392.6602, 1912.868
393.1423, 1914.549
393.6244, 1909.439
394.1065, 1908.510
394.5886, 1920.321
395.0707, 1941.005
395.5529, 1956.784
396.0350, 1956.639
396.5171, 1955.199
396.9992, 1962.064
397.4813, 1989.092
397.9634, 2002.390
398.4456, 1989.923
398.9277, 1962.002
399.4098, 1936.632
399.8919, 1913.663
400.3740, 1894.802
400.8561, 1882.418
401.3383, 1878.695
401.8204, 1868.177
402.3025, 1845.297
402.7846, 1820.325
403.2667, 1804.026
403.7488, 1802.707
404.2310, 1795.891
404.7131, 1777.396
405.1952, 1750.427
405.6773, 1733.656
406.1594, 1730.240
406.6415, 1728.734
407.1237, 1720.132
407.6058, 1703.590
408.0879, 1693.418
408.5700, 1693.409
409.0521, 1696.179
409.5342, 1684.496
410.0164, 1658.541
410.4985, 1636.042
410.9806, 1627.603
411.4627, 1630.017
411.9448, 1631.671
412.4269, 1632.207
412.9091, 1633.034
413.3912, 1637.177
413.8733, 1642.969
414.3554, 1645.841
414.8375, 1643.570
415.3196, 1638.008
415.8018, 1629.928
416.2839, 1619.833
416.7660, 1610.845
417.2481, 1606.237
417.7302, 1603.551
418.2123, 1599.586
418.6945, 1591.182
419.1766, 1586.326
419.6587, 1594.027
420.1408, 1608.850
420.6229, 1618.455
421.1050, 1611.080
421.5872, 1602.993
422.0693, 1604.269
422.5514, 1619.349
423.0335, 1627.491
423.5156, 1619.483
423.9977, 1604.350
424.4799, 1591.553
424.9620, 1580.821
425.4441, 1574.326
425.9262, 1574.633
426.4083, 1581.102
426.8904, 1582.731
427.3726, 1574.238
427.8547, 1566.502
428.3368, 1567.159
428.8189, 1583.221
429.3010, 1589.419
429.7831, 1579.568
430.2653, 1563.013
430.7474, 1562.035
431.2295, 1581.100
431.7116, 1599.148
432.1937, 1607.145
432.6758, 1605.509
433.1580, 1602.663
433.6401, 1597.980
434.1222, 1594.525
434.6043, 1597.536
435.0864, 1605.910
435.5685, 1611.694
436.0507, 1612.830
436.5328, 1609.725
437.0149, 1599.824
437.4970, 1584.318
437.9791, 1573.098
438.4612, 1576.416
438.9434, 1587.696
439.4255, 1596.856
439.9076, 1601.795
440.3897, 1606.124
440.8718, 1615.494
441.3539, 1626.258
441.8361, 1631.305
442.3182, 1621.218
442.8003, 1609.588
443.2824, 1603.938
443.7645, 1604.784
444.2466, 1609.451
444.7288, 1624.596
445.2109, 1639.189
445.6930, 1643.888
446.1751, 1625.862
446.6572, 1610.573
447.1393, 1601.339
447.6215, 1597.754
448.1036, 1598.249
448.5857, 1607.478
449.0678, 1615.779
449.5499, 1619.168
450.0320, 1615.665
450.5142, 1613.707
450.9963, 1613.818
451.4784, 1615.046
451.9605, 1615.526
452.4426, 1614.162
452.9247, 1616.627
453.4069, 1626.951
453.8890, 1642.388
454.3711, 1645.695
454.8532, 1635.231
455.3353, 1622.748
455.8174, 1616.950
456.2996, 1617.209
456.7817, 1620.809
457.2638, 1628.397
457.7459, 1636.351
458.2281, 1638.293
458.7102, 1635.752
459.1923, 1634.956
459.6744, 1644.693
460.1565, 1655.364
460.6386, 1651.010
461.1208, 1631.156
461.6029, 1614.404
462.0850, 1617.118
462.5671, 1628.871
463.0492, 1637.656
463.5313, 1638.677
464.0135, 1637.793
464.4956, 1636.498
464.9777, 1635.245
465.4598, 1635.442
465.9419, 1638.817
466.4240, 1642.627
466.9062, 1645.406
467.3883, 1646.279
467.8704, 1648.167
468.3525, 1652.838
468.8346, 1657.681
469.3167, 1659.661
469.7989, 1655.264
470.2810, 1654.070
470.7631, 1660.016
471.2452, 1671.257
471.7273, 1673.082
472.2094, 1661.630
472.6916, 1650.267
473.1737, 1647.873
473.6558, 1654.887
474.1379, 1663.185
474.6200, 1673.990
475.1021, 1682.424
475.5843, 1675.784
476.0664, 1656.406
476.5485, 1646.439
477.0306, 1660.387
477.5127, 1687.265
477.9948, 1706.491
478.4770, 1718.313
478.9591, 1727.221
479.4412, 1738.402
479.9233, 1748.198
480.4054, 1749.900
480.8875, 1737.594
481.3697, 1726.973
481.8518, 1731.937
482.3339, 1745.850
482.8160, 1755.300
483.2981, 1751.462
483.7802, 1744.992
484.2624, 1740.718
484.7445, 1739.038
485.2266, 1737.551
485.7087, 1736.610
486.1908, 1735.242
486.6729, 1732.597
487.1551, 1724.655
487.6372, 1721.385
488.1193, 1726.013
488.6014, 1735.206
489.0835, 1740.241
489.5656, 1740.620
490.0478, 1737.968
490.5299, 1732.315
491.0120, 1723.540
491.4941, 1714.849
491.9762, 1705.749
492.4583, 1698.130
492.9405, 1692.376
493.4226, 1688.936
493.9047, 1694.171
494.3868, 1713.587
494.8689, 1736.567
495.3510, 1745.499
495.8332, 1741.659
496.3153, 1732.746
496.7974, 1717.399
497.2795, 1702.272
497.7616, 1697.020
498.2437, 1702.950
498.7259, 1710.900
499.2080, 1717.761
499.6901, 1722.218
500.1722, 1722.779
500.6543, 1716.857
501.1364, 1709.248
501.6186, 1698.218
502.1007, 1685.935
502.5828, 1680.775
503.0649, 1693.123
503.5470, 1705.204
504.0291, 1709.295
504.5113, 1702.823
504.9934, 1696.823
505.4755, 1688.023
505.9576, 1682.633
506.4397, 1689.881
506.9218, 1716.696
507.4040, 1733.516
507.8861, 1731.863
508.3682, 1717.923
508.8503, 1712.816
509.3324, 1717.222
509.8145, 1723.536
510.2967, 1727.527
510.7788, 1729.621
511.2609, 1731.546
511.7430, 1733.338
512.2252, 1735.102
512.7073, 1733.636
513.1894, 1732.364
513.6715, 1739.418
514.1536, 1765.871
514.6357, 1792.296
515.1179, 1798.063
515.6000, 1788.811
516.0821, 1784.827
516.5642, 1800.547
517.0463, 1820.709
517.5284, 1836.011
518.0106, 1844.143
518.4927, 1853.049
518.9748, 1867.895
519.4569, 1882.681
519.9390, 1890.872
520.4211, 1885.590
520.9033, 1883.366
521.3854, 1884.843
521.8675, 1890.618
522.3496, 1904.477
522.8317, 1931.180
523.3138, 1954.682
523.7960, 1964.419
524.2781, 1960.035
524.7602, 1968.152
525.2423, 1991.549
525.7244, 2016.427
526.2065, 2026.105
526.6887, 2023.182
527.1708, 2020.975
527.6529, 2022.439
528.1350, 2026.645
528.6171, 2032.567
529.0992, 2040.250
529.5814, 2049.686
530.0635, 2067.257
530.5456, 2082.430
531.0277, 2084.159
531.5098, 2070.918
531.9919, 2057.260
532.4741, 2046.053
532.9562, 2039.152
533.4383, 2038.011
533.9204, 2058.602
534.4025, 2066.457
534.8846, 2048.395
535.3668, 2014.455
535.8489, 1990.197
536.3310, 1981.918
536.8131, 1973.329
537.2952, 1957.768
537.7773, 1935.089
538.2595, 1923.755
538.7416, 1928.387
539.2237, 1932.302
539.7058, 1918.812
540.1879, 1888.733
540.6700, 1863.667
541.1522, 1846.692
541.6343, 1834.766
542.1164, 1823.356
542.5985, 1813.161
543.0806, 1807.027
543.5627, 1810.594
544.0449, 1816.187
544.5270, 1815.234
545.0091, 1808.168
545.4912, 1798.820
545.9733, 1788.636
546.4554, 1777.542
546.9376, 1765.155
547.4197, 1750.744
547.9018, 1737.197
548.3839, 1723.915
548.8660, 1712.491
549.3481, 1705.123
549.8303, 1702.368
550.3124, 1703.416
550.7945, 1710.793
551.2766, 1722.541
551.7587, 1727.103
552.2408, 1721.902
552.7230, 1715.717
553.2051, 1712.829
553.6872, 1713.294
554.1693, 1715.197
554.6514, 1718.865
555.1335, 1722.552
555.6157, 1726.288
556.0978, 1728.798
556.5799, 1724.157
557.0620, 1707.617
557.5441, 1688.507
558.0262, 1676.224
558.5084, 1670.469
558.9905, 1670.103
559.4726, 1682.702
559.9547, 1694.216
560.4368, 1691.647
560.9189, 1673.947
561.4011, 1662.451
561.8832, 1672.304
562.3653, 1685.766
562.8474, 1690.338
563.3295, 1674.703
563.8116, 1663.863
564.2938, 1660.397
564.7759, 1660.540
565.2580, 1657.258
565.7401, 1647.732
566.2222, 1642.763
566.7043, 1647.673
567.1865, 1659.250
567.6686, 1658.733
568.1507, 1644.786
568.6328, 1633.271
569.1149, 1638.976
569.5970, 1655.803
570.0792, 1664.801
570.5613, 1664.097
571.0434, 1658.685
571.5255, 1647.213
572.0076, 1635.488
572.4897, 1633.104
572.9719, 1651.244
573.4540, 1669.660
573.9361, 1676.932
574.4182, 1675.749
574.9003, 1673.360
575.3824, 1669.678
575.8646, 1667.122
576.3467, 1667.568
576.8288, 1671.621
577.3109, 1672.607
577.7930, 1669.055
578.2751, 1664.163
578.7573, 1659.954
579.2394, 1656.446
579.7215, 1653.501
580.2036, 1650.768
580.6857, 1649.208
581.1678, 1650.601
581.6500, 1654.796
582.1321, 1660.126
582.6142, 1666.814
583.0963, 1673.608
583.5784, 1678.651
584.0605, 1682.025
584.5427, 1684.167
585.0248, 1685.902
585.5069, 1686.151
585.9890, 1682.700
586.4711, 1674.708
586.9532, 1669.229
587.4354, 1671.806
587.9175, 1676.745
588.3996, 1679.135
588.8817, 1671.741
589.3638, 1670.205
589.8459, 1680.297
590.3281, 1695.044
590.8102, 1699.859
591.2923, 1689.208
591.7744, 1682.617
592.2565, 1688.122
592.7386, 1702.495
593.2208, 1705.555
593.7029, 1696.189
594.1850, 1686.695
594.6671, 1687.131
595.1492, 1694.288
595.6313, 1699.462
596.1135, 1701.872
596.5956, 1703.260
597.0777, 1705.614
597.5598, 1707.925
598.0419, 1708.513
598.5240, 1704.881
599.0062, 1702.286
599.4883, 1702.984
599.9704, 1706.472
600.4525, 1711.617
600.9346, 1722.398
601.4167, 1730.274
601.8989, 1730.511
602.3810, 1723.348
602.8631, 1724.185
603.3452, 1737.818
603.8273, 1751.083
604.3094, 1755.599
604.7916, 1750.706
605.2737, 1744.151
605.7558, 1735.183
606.2379, 1727.769
606.7200, 1727.322
607.2021, 1732.513
607.6843, 1738.729
608.1664, 1746.513
608.6485, 1751.887
609.1306, 1747.845
609.6127, 1737.897
610.0948, 1730.741
610.5770, 1732.700
611.0591, 1736.651
611.5412, 1739.856
612.0233, 1742.071
612.5054, 1741.526
612.9875, 1739.100
613.4697, 1732.575
613.9518, 1719.349
614.4339, 1693.607
614.9160, 1679.919
615.3981, 1681.735
615.8802, 1690.913
616.3624, 1700.177
616.8445, 1709.769
617.3266, 1713.717
617.8087, 1709.210
618.2908, 1701.581
618.7729, 1700.705
619.2551, 1705.220
619.7372, 1709.154
620.2193, 1709.407
620.7014, 1707.788
621.1835, 1705.018
621.6656, 1701.561
622.1478, 1700.196
622.6299, 1706.467
623.1120, 1712.165
623.5941, 1711.501
624.0762, 1701.707
624.5583, 1693.052
625.0405, 1685.262
625.5226, 1679.932
626.0047, 1678.664
626.4868, 1682.877
626.9689, 1687.372
627.4510, 1692.234
627.9332, 1696.425
628.4153, 1696.753
628.8974, 1693.277
629.3795, 1692.450
629.8616, 1698.131
630.3438, 1706.545
630.8259, 1710.246
631.3080, 1710.062
631.7901, 1710.544
632.2722, 1718.218
632.7543, 1725.321
633.2365, 1724.660
633.7186, 1715.401
634.2007, 1704.168
634.6828, 1687.062
635.1649, 1672.866
635.6470, 1668.718
636.1292, 1682.921
636.6113, 1693.718
637.0934, 1699.761
637.5755, 1703.450
638.0576, 1708.587
638.5397, 1716.025
639.0219, 1720.243
639.5040, 1719.432
639.9861, 1715.470
640.4682, 1712.659
640.9503, 1710.752
641.4324, 1707.831
641.9146, 1700.766
642.3967, 1693.232
642.8788, 1689.673
643.3609, 1690.042
643.8430, 1692.849
644.3251, 1698.721
644.8073, 1705.699
645.2894, 1713.793
645.7715, 1725.857
646.2536, 1729.466
646.7357, 1710.906
647.2178, 1691.208
647.7000, 1688.853
648.1821, 1713.981
648.6642, 1729.554
649.1463, 1730.314
649.6284, 1723.167
650.1105, 1721.906
650.5927, 1726.190
651.0748, 1723.446
651.5569, 1703.826
652.0390, 1680.237
652.5211, 1677.935
653.0032, 1692.444
653.4854, 1704.695
653.9675, 1701.162
654.4496, 1693.339
654.9317, 1689.299
655.4138, 1689.549
655.8959, 1691.633
656.3781, 1697.778
656.8602, 1703.273
657.3423, 1704.711
657.8244, 1699.313
658.3065, 1698.310
658.7886, 1705.926
659.2708, 1712.603
659.7529, 1704.232
660.2350, 1679.047
660.7171, 1665.463
661.1992, 1669.572
661.6813, 1682.862
662.1635, 1694.547
662.6456, 1704.317
663.1277, 1711.126
663.6099, 1715.513
664.0920, 1715.880
664.5741, 1706.965
665.0562, 1692.017
665.5383, 1682.678
666.0204, 1688.267
666.5026, 1696.209
666.9847, 1701.679
667.4668, 1704.293
667.9489, 1704.245
668.4310, 1699.137
668.9131, 1694.671
669.3953, 1695.330
669.8774, 1702.382
670.3595, 1703.062
670.8416, 1695.412
671.3237, 1687.899
671.8058, 1692.993
672.2880, 1706.176
672.7701, 1711.935
673.2522, 1705.115
673.7343, 1695.585
674.2164, 1690.623
674.6985, 1689.603
675.1807, 1691.487
675.6628, 1696.949
676.1449, 1704.086
676.6270, 1715.198
677.1091, 1727.913
677.5912, 1733.765
678.0734, 1726.948
678.5555, 1721.481
679.0376, 1721.107
679.5197, 1725.574
680.0018, 1733.996
680.4839, 1747.653
680.9661, 1757.845
681.4482, 1757.506
681.9303, 1749.326
682.4124, 1739.635
682.8945, 1728.627
683.3766, 1721.834
683.8588, 1728.673
684.3409, 1739.718
684.8230, 1743.702
685.3051, 1735.757
685.7872, 1728.995
686.2693, 1729.794
686.7515, 1733.395
687.2336, 1734.033
687.7157, 1727.710
688.1978, 1725.031
688.6799, 1727.661
689.1620, 1733.730
689.6442, 1739.497
690.1263, 1744.831
690.6084, 1751.346
691.0905, 1761.392
691.5726, 1770.923
692.0547, 1769.413
692.5369, 1759.282
693.0190, 1751.805
693.5011, 1756.101
693.9832, 1763.599
694.4653, 1767.153
694.9474, 1766.886
695.4296, 1767.612
695.9117, 1774.726
696.3938, 1780.069
696.8759, 1778.402
697.3580, 1767.917
697.8401, 1760.776
698.3223, 1757.611
698.8044, 1756.683
699.2865, 1756.099
699.7686, 1755.886
700.2507, 1760.030
700.7328, 1769.510
701.2150, 1780.138
701.6971, 1789.427
702.1792, 1795.923
702.6613, 1795.287
703.1434, 1781.423
703.6255, 1770.150
704.1077, 1775.653
704.5898, 1789.457
705.0719, 1797.904
705.5540, 1793.562
706.0361, 1788.411
706.5182, 1783.647
707.0004, 1779.858
707.4825, 1778.560
707.9646, 1779.881
708.4467, 1783.663
708.9288, 1790.853
709.4109, 1800.229
709.8931, 1808.922
710.3752, 1816.625
710.8573, 1818.931
711.3394, 1806.128
711.8215, 1790.256
712.3036, 1788.897
712.7858, 1801.938
713.2679, 1811.128
713.7500, 1801.870
714.2321, 1789.854
714.7142, 1785.004
715.1964, 1790.465
715.6785, 1797.011
716.1606, 1805.427
716.6427, 1813.758
717.1248, 1821.099
717.6069, 1827.710
718.0891, 1829.467
718.5712, 1825.500
719.0533, 1818.577
719.5354, 1810.417
720.0175, 1802.108
720.4996, 1796.459
720.9818, 1793.487
721.4639, 1794.964
721.9460, 1806.249
722.4281, 1822.075
722.9102, 1833.707
723.3923, 1837.035
723.8745, 1838.066
724.3566, 1837.066
724.8387, 1834.844
725.3208, 1834.066
725.8029, 1836.799
726.2850, 1834.184
726.7672, 1820.056
727.2493, 1800.130
727.7314, 1795.382
728.2135, 1804.873
728.6956, 1817.094
729.1777, 1830.604
729.6599, 1839.974
730.1420, 1832.984
730.6241, 1812.251
731.1062, 1801.465
731.5883, 1822.565
732.0704, 1848.450
732.5526, 1864.179
733.0347, 1867.026
733.5168, 1867.121
733.9989, 1862.844
734.4810, 1858.432
734.9631, 1855.617
735.4453, 1854.230
735.9274, 1860.840
736.4095, 1877.100
736.8916, 1893.108
737.3737, 1895.240
737.8558, 1890.091
738.3380, 1892.883
738.8201, 1909.715
739.3022, 1921.474
739.7843, 1907.143
740.2664, 1884.459
740.7485, 1873.474
741.2307, 1891.664
741.7128, 1904.872
742.1949, 1907.999
742.6770, 1907.119
743.1591, 1912.640
743.6412, 1927.060
744.1234, 1934.640
744.6055, 1930.862
745.0876, 1920.756
745.5697, 1911.754
746.0518, 1904.184
746.5339, 1899.515
747.0161, 1898.395
747.4982, 1900.395
747.9803, 1906.930
748.4624, 1916.523
748.9445, 1924.590
749.4266, 1931.193
749.9088, 1934.529
750.3909, 1931.488
750.8730, 1924.044
751.3551, 1924.268
751.8372, 1934.871
752.3193, 1945.436
752.8015, 1951.760
753.2836, 1954.284
753.7657, 1952.798
754.2478, 1947.671
754.7299, 1943.653
755.2120, 1940.846
755.6942, 1942.773
756.1763, 1956.531
756.6584, 1982.166
757.1405, 2003.355
757.6226, 2014.538
758.1047, 2018.817
758.5869, 2016.272
759.0690, 2004.624
759.5511, 1999.377
760.0332, 2003.963
760.5153, 2007.996
760.9974, 1999.826
761.4796, 1981.592
761.9617, 1977.302
762.4438, 1989.945
762.9259, 2002.334
763.4080, 1992.936
763.8901, 1974.980
764.3723, 1967.355
764.8544, 1976.425
765.3365, 1987.804
765.8186, 1997.594
766.3007, 2005.981
766.7828, 2012.903
767.2650, 2017.499
767.7471, 2022.278
768.2292, 2027.163
768.7113, 2032.190
769.1934, 2039.166
769.6755, 2047.540
770.1577, 2048.696
770.6398, 2038.901
771.1219, 2026.616
771.6040, 2020.276
772.0861, 2019.271
772.5682, 2022.783
773.0504, 2037.493
773.5325, 2048.156
774.0146, 2043.552
774.4967, 2032.138
774.9788, 2031.860
775.4609, 2052.166
775.9431, 2066.333
776.4252, 2069.375
776.9073, 2064.076
777.3894, 2054.868
777.8715, 2042.116
778.3536, 2033.136
778.8358, 2031.962
779.3179, 2034.707
779.8000, 2034.824
780.2821, 2034.421
780.7642, 2039.430
781.2463, 2060.444
781.7285, 2079.508
782.2106, 2086.576
782.6927, 2083.893
783.1748, 2087.036
783.6569, 2102.477
784.1390, 2109.828
784.6212, 2096.916
785.1033, 2071.617
785.5854, 2074.104
786.0675, 2102.973
786.5496, 2129.743
787.0317, 2139.405
787.5139, 2136.092
787.9960, 2116.486
788.4781, 2084.795
788.9602, 2064.747
789.4423, 2076.007
789.9244, 2093.049
790.4066, 2105.534
790.8887, 2112.997
791.3708, 2113.688
791.8529, 2103.491
792.3350, 2096.248
792.8171, 2102.781
793.2993, 2119.808
793.7814, 2122.885
794.2635, 2112.344
794.7456, 2101.534
795.2277, 2103.123
795.7098, 2107.585
796.1920, 2103.025
796.6741, 2088.573
797.1562, 2077.603
797.6383, 2077.161
798.1204, 2079.644
798.6025, 2081.200
799.0847, 2081.789
799.5668, 2080.539
800.0489, 2075.829
800.5310, 2073.820
801.0131, 2081.615
801.4952, 2096.331
801.9774, 2105.261
802.4595, 2107.638
802.9416, 2108.010
803.4237, 2110.455
803.9058, 2112.199
804.3879, 2109.037
804.8701, 2098.550
805.3522, 2093.648
805.8343, 2104.587
806.3164, 2115.798
806.7985, 2117.698
807.2806, 2107.564
807.7628, 2101.240
808.2449, 2098.418
808.7270, 2100.820
809.2091, 2115.836
809.6912, 2136.522
810.1733, 2143.792
810.6555, 2134.262
811.1376, 2125.457
811.6197, 2133.883
812.1018, 2145.557
812.5839, 2146.879
813.0660, 2128.520
813.5482, 2119.291
814.0303, 2125.597
814.5124, 2135.036
814.9945, 2136.778
815.4766, 2130.440
815.9587, 2127.571
816.4409, 2129.416
816.9230, 2131.479
817.4051, 2131.424
817.8872, 2127.780
818.3693, 2113.502
818.8514, 2081.631
819.3336, 2066.568
819.8157, 2100.988
820.2978, 2148.927
820.7799, 2177.559
821.2620, 2176.144
821.7441, 2178.329
822.2263, 2184.881
822.7084, 2193.356
823.1905, 2203.395
823.6726, 2213.911
824.1547, 2216.466
824.6368, 2209.083
825.1190, 2200.713
825.6011, 2197.242
826.0832, 2198.242
826.5653, 2204.681
827.0474, 2221.212
827.5295, 2230.898
828.0117, 2222.940
828.4938, 2211.834
828.9760, 2209.564
829.4581, 2219.128
829.9402, 2223.073
830.4223, 2219.881
830.9044, 2214.176
831.3865, 2210.338
831.8687, 2207.938
832.3508, 2205.251
832.8329, 2201.517
833.3150, 2200.612
833.7971, 2208.852
834.2792, 2218.811
834.7614, 2223.015
835.2435, 2214.312
835.7256, 2213.396
836.2077, 2224.867
836.6898, 2237.699
837.1719, 2238.634
837.6541, 2228.694
838.1362, 2231.847
838.6183, 2251.429
839.1004, 2272.751
839.5825, 2285.312
840.0646, 2289.222
840.5468, 2281.900
841.0289, 2258.996
841.5110, 2241.935
841.9931, 2241.209
842.4752, 2246.716
842.9573, 2250.422
843.4395, 2250.271
843.9216, 2256.288
844.4037, 2269.488
844.8858, 2285.061
845.3679, 2299.314
845.8500, 2312.160
846.3322, 2323.773
846.8143, 2334.250
847.2964, 2341.917
847.7785, 2342.590
848.2606, 2341.968
848.7427, 2344.851
849.2249, 2352.814
849.7070, 2361.432
850.1891, 2371.314
850.6712, 2380.865
851.1533, 2387.842
851.6354, 2392.577
852.1176, 2402.864
852.5997, 2419.031
853.0818, 2438.585
853.5639, 2463.037
854.0460, 2487.491
854.5281, 2505.660
855.0103, 2516.631
855.4924, 2526.126
855.9745, 2525.953
856.4566, 2534.270
856.9387, 2563.671
857.4208, 2616.433
857.9030, 2656.525
858.3851, 2681.870
858.8672, 2704.816
859.3493, 2732.527
859.8314, 2765.003
860.3135, 2803.976
860.7957, 2849.277
861.2778, 2894.185
861.7599, 2933.071
862.2420, 2972.281
862.7241, 3015.491
863.2062, 3063.057
863.6884, 3115.080
864.1705, 3171.163
864.6526, 3233.454
865.1347, 3306.417
865.6168, 3386.804
866.0989, 3455.167
866.5811, 3514.107
867.0632, 3583.743
867.5453, 3683.783
868.0274, 3796.306
868.5095, 3907.509
868.9916, 4018.214
869.4738, 4130.977
869.9559, 4249.072
870.4380, 4367.399
870.9201, 4485.187
871.4022, 4600.479
871.8843, 4700.957
872.3665, 4785.744
872.8486, 4875.444
873.3307, 4984.808
873.8128, 5099.836
874.2949, 5200.422
874.7770, 5287.904
875.2592, 5364.855
875.7413, 5440.055
876.2234, 5495.955
876.7055, 5526.137
877.1876, 5532.019
877.6697, 5514.423
878.1519, 5473.579
878.6340, 5406.634
879.1161, 5312.234
879.5982, 5191.762
880.0803, 5040.791
880.5624, 4865.750
881.0446, 4683.463
881.5267, 4496.353
882.0088, 4308.913
882.4909, 4115.170
882.9730, 3923.679
883.4551, 3749.075
883.9373, 3600.350
884.4194, 3447.256
884.9015, 3282.184
885.3836, 3119.899
885.8657, 2982.053
886.3478, 2866.998
886.8300, 2763.578
887.3121, 2670.434
887.7942, 2584.175
888.2763, 2498.825
888.7584, 2419.260
889.2405, 2350.805
889.7227, 2298.287
890.2048, 2252.177
890.6869, 2214.905
891.1690, 2179.440
891.6511, 2136.037
892.1332, 2086.190
892.6154, 2049.803
893.0975, 2028.735
893.5796, 2013.389
894.0617, 1997.902
894.5438, 1981.427
895.0259, 1962.745
895.5081, 1941.192
895.9902, 1920.911
896.4723, 1903.005
896.9544, 1886.807
897.4365, 1873.654
897.9186, 1863.443
898.4008, 1844.939
898.8829, 1817.267
899.3650, 1795.963
899.8471, 1800.171
900.3292, 1812.029
900.8113, 1804.954
901.2935, 1780.952
901.7756, 1761.465
902.2577, 1755.638
902.7398, 1755.325
903.2219, 1759.246
903.7040, 1765.994
904.1862, 1768.399
904.6683, 1766.229
905.1504, 1760.021
905.6325, 1746.127
906.1146, 1732.082
906.5967, 1734.897
907.0789, 1748.350
907.5610, 1755.082
908.0431, 1739.237
908.5252, 1724.870
909.0073, 1723.100
909.4894, 1727.476
909.9716, 1724.507
910.4537, 1710.753
910.9358, 1706.263
911.4179, 1717.772
911.9000, 1732.795
912.3821, 1730.246
912.8643, 1716.602
913.3464, 1706.232
913.8285, 1704.118
914.3106, 1703.244
914.7927, 1699.777
915.2748, 1696.304
915.7570, 1695.608
916.2391, 1698.721
916.7212, 1701.704
917.2033, 1704.314
917.6854, 1707.349
918.1675, 1716.124
918.6497, 1725.323
919.1318, 1717.711
919.6139, 1691.148
920.0960, 1667.352
920.5781, 1662.101
921.0602, 1661.685
921.5424, 1654.250
922.0245, 1637.632
922.5066, 1638.396
922.9887, 1663.320
923.4708, 1686.077
923.9529, 1691.755
924.4351, 1684.189
924.9172, 1669.345
925.3993, 1649.385
925.8814, 1637.226
926.3635, 1647.335
926.8456, 1660.067
927.3278, 1663.472
927.8099, 1659.701
928.2920, 1660.730
928.7741, 1669.093
929.2562, 1675.656
929.7383, 1677.678
930.2205, 1677.386
930.7026, 1681.715
931.1847, 1687.882
931.6668, 1685.918
932.1489, 1665.900
932.6310, 1648.464
933.1132, 1648.351
933.5953, 1656.874
934.0774, 1662.095
934.5595, 1662.605
935.0416, 1661.511
935.5237, 1658.364
936.0059, 1655.134
936.4880, 1654.208
936.9701, 1655.029
937.4522, 1656.377
937.9343, 1658.283
938.4164, 1658.553
938.8986, 1653.316
939.3807, 1647.795
939.8628, 1646.472
940.3449, 1650.172
940.8270, 1652.228
941.3091, 1651.988
941.7913, 1651.944
942.2734, 1655.272
942.7555, 1659.474
943.2376, 1654.691
943.7197, 1642.929
944.2018, 1635.468
944.6840, 1641.212
945.1661, 1650.090
945.6482, 1658.911
946.1303, 1666.637
946.6124, 1671.204
947.0945, 1673.079
947.5767, 1669.609
948.0588, 1658.262
948.5409, 1644.735
949.0230, 1638.026
949.5051, 1637.670
949.9872, 1643.686
950.4694, 1663.452
950.9515, 1674.729
951.4336, 1658.973
951.9157, 1633.853
952.3978, 1619.275
952.8799, 1618.023
953.3621, 1618.637
953.8442, 1620.733
954.3263, 1624.901
954.8084, 1635.437
955.2905, 1647.262
955.7726, 1648.877
956.2548, 1639.150
956.7369, 1629.697
957.2190, 1624.913
957.7011, 1623.089
958.1832, 1622.925
958.6653, 1624.481
959.1475, 1631.323
959.6296, 1644.308
960.1117, 1655.674
960.5938, 1661.010
961.0759, 1663.172
961.5580, 1667.199
962.0402, 1671.972
962.5223, 1674.518
963.0044, 1672.007
963.4865, 1669.189
963.9686, 1667.621
964.4507, 1666.304
964.9329, 1662.624
965.4150, 1656.124
965.8971, 1655.424
966.3792, 1663.161
966.8613, 1671.299
967.3434, 1670.572
967.8256, 1664.684
968.3077, 1657.981
968.7898, 1650.298
969.2719, 1645.507
969.7540, 1645.843
970.2361, 1647.551
970.7183, 1648.998
971.2004, 1650.143
971.6825, 1647.592
972.1646, 1641.514
972.6467, 1640.186
973.1288, 1656.475
973.6110, 1674.216
974.0931, 1677.951
974.5752, 1669.600
975.0573, 1659.879
975.5394, 1647.252
976.0215, 1638.962
976.5037, 1636.879
976.9858, 1639.290
977.4679, 1644.488
977.9500, 1651.424
978.4321, 1654.323
978.9142, 1650.727
979.3964, 1644.904
979.8785, 1638.869
980.3606, 1632.931
980.8427, 1627.167
981.3248, 1619.836
981.8069, 1617.192
982.2891, 1619.289
982.7712, 1626.033
983.2533, 1642.597
983.7354, 1662.888
984.2175, 1666.513
984.6996, 1654.368
985.1818, 1647.040
985.6639, 1664.563
986.1460, 1681.760
986.6281, 1684.633
987.1102, 1675.364
987.5923, 1660.589
988.0745, 1637.478
988.5566, 1625.672
989.0387, 1634.796
989.5208, 1652.875
990.0029, 1665.703
990.4850, 1672.778
990.9672, 1672.180
991.4493, 1651.905
991.9314, 1643.473
992.4135, 1667.871
992.8957, 1695.212
993.3778, 1695.448
993.8599, 1667.177
994.3420, 1652.067
994.8242, 1652.725
995.3063, 1657.441
995.7884, 1657.044
996.2705, 1655.483
996.7526, 1657.850
997.2347, 1664.196
997.7169, 1666.176
998.1990, 1659.153
998.6811, 1653.950
999.1632, 1655.294
999.6453, 1659.651
1000.127, 1653.563
1000.610, 1640.090
1001.092, 1634.148
1001.574, 1646.310
1002.056, 1660.022
1002.538, 1668.582
1003.020, 1670.762
1003.502, 1663.030
1003.984, 1636.571
1004.466, 1627.566
1004.949, 1641.170
1005.431, 1658.793
1005.913, 1660.228
1006.395, 1653.044
1006.877, 1653.228
1007.359, 1661.523
1007.841, 1667.643
1008.323, 1663.015
1008.806, 1659.281
1009.288, 1662.171
1009.770, 1670.046
1010.252, 1676.855
1010.734, 1682.616
1011.216, 1682.441
1011.698, 1671.755
1012.180, 1658.987
1012.662, 1655.004
1013.145, 1655.085
1013.627, 1651.693
1014.109, 1634.076
1014.591, 1628.133
1015.073, 1639.166
1015.555, 1654.533
1016.037, 1661.651
1016.519, 1662.374
1017.002, 1668.058
1017.484, 1678.922
1017.966, 1683.784
1018.448, 1668.055
1018.930, 1650.603
1019.412, 1644.317
1019.894, 1647.975
1020.376, 1649.342
1020.858, 1647.502
1021.341, 1647.483
1021.823, 1651.106
1022.305, 1656.814
1022.787, 1663.904
1023.269, 1670.871
1023.751, 1674.810
1024.233, 1675.007
1024.715, 1671.553
1025.198, 1659.026
1025.680, 1648.122
1026.162, 1647.077
1026.644, 1655.844
1027.126, 1672.684
1027.608, 1697.473
1028.090, 1712.617
1028.572, 1693.271
1029.054, 1669.127
1029.536, 1666.234
1030.019, 1681.765
1030.501, 1694.250
1030.983, 1703.974
1031.465, 1706.298
1031.947, 1698.991
1032.429, 1686.372
1032.911, 1673.514
1033.393, 1661.645
1033.876, 1653.328
1034.358, 1649.365
1034.840, 1648.733
1035.322, 1654.460
1035.804, 1660.544
1036.286, 1662.547
1036.768, 1660.246
1037.250, 1660.002
1037.733, 1661.845
1038.215, 1664.081
1038.697, 1664.130
1039.179, 1665.151
1039.661, 1672.450
1040.143, 1683.411
1040.625, 1690.167
1041.107, 1689.928
1041.589, 1687.382
1042.072, 1682.315
1042.554, 1676.530
1043.036, 1670.152
1043.518, 1665.458
1044.000, 1672.118
1044.482, 1693.391
1044.964, 1708.796
1045.446, 1704.563
1045.928, 1692.781
1046.411, 1678.411
1046.893, 1662.370
1047.375, 1659.692
1047.857, 1671.173
1048.339, 1681.366
1048.821, 1681.229
1049.303, 1678.149
1049.785, 1681.695
1050.268, 1688.474
1050.750, 1692.353
1051.232, 1691.321
1051.714, 1686.906
1052.196, 1676.513
1052.678, 1667.626
1053.160, 1669.937
1053.642, 1680.147
1054.125, 1685.800
1054.607, 1686.514
1055.089, 1688.744
1055.571, 1701.490
1056.053, 1711.472
1056.535, 1710.754
1057.017, 1701.810
1057.499, 1690.651
1057.981, 1676.848
1058.464, 1669.090
1058.946, 1671.210
1059.428, 1676.628
1059.910, 1682.821
1060.392, 1685.302
1060.874, 1675.691
1061.356, 1641.090
1061.838, 1628.306
1062.320, 1646.510
1062.803, 1669.907
1063.285, 1680.131
1063.767, 1682.074
1064.249, 1695.252
1064.731, 1716.109
1065.213, 1727.451
1065.695, 1706.045
1066.177, 1690.659
1066.660, 1704.114
1067.142, 1727.869
1067.624, 1732.846
1068.106, 1718.207
1068.588, 1710.559
1069.070, 1714.058
1069.552, 1718.668
1070.034, 1713.298
1070.516, 1706.014
1070.999, 1705.436
1071.481, 1712.696
1071.963, 1715.723
1072.445, 1712.290
1072.927, 1710.116
1073.409, 1713.012
1073.891, 1717.477
1074.373, 1717.631
1074.855, 1713.818
1075.338, 1706.018
1075.820, 1688.368
1076.302, 1678.581
1076.784, 1686.684
1077.266, 1698.224
1077.748, 1703.132
1078.230, 1701.562
1078.713, 1695.623
1079.195, 1685.862
1079.677, 1681.633
1080.159, 1697.710
1080.641, 1712.933
1081.123, 1711.476
1081.605, 1697.798
1082.087, 1686.282
1082.569, 1675.017
1083.052, 1675.329
1083.534, 1691.350
1084.016, 1709.593
1084.498, 1715.430
1084.980, 1713.792
1085.462, 1710.436
1085.944, 1705.887
1086.426, 1703.353
1086.908, 1705.233
1087.391, 1705.686
1087.873, 1701.487
1088.355, 1695.123
1088.837, 1693.611
1089.319, 1696.047
1089.801, 1699.765
1090.283, 1706.678
1090.765, 1709.240
1091.248, 1699.102
1091.730, 1686.974
1092.212, 1682.648
1092.694, 1687.020
1093.176, 1686.153
1093.658, 1679.991
1094.140, 1676.442
1094.622, 1684.338
1095.104, 1694.198
1095.587, 1697.524
1096.069, 1696.406
1096.551, 1697.931
1097.033, 1703.406
1097.515, 1708.466
1097.997, 1712.577
1098.479, 1715.861
1098.961, 1718.931
1099.443, 1721.054
1099.926, 1719.842
1100.408, 1714.787
1100.890, 1713.590
1101.372, 1721.091
1101.854, 1728.729
1102.336, 1735.429
1102.818, 1738.802
1103.300, 1729.449
1103.783, 1710.695
1104.265, 1692.802
1104.747, 1675.776
1105.229, 1668.927
1105.711, 1686.106
1106.193, 1708.224
1106.675, 1721.248
1107.157, 1725.041
1107.640, 1722.203
1108.122, 1712.967
1108.604, 1706.078
1109.086, 1709.154
1109.568, 1714.725
1110.050, 1720.242
1110.532, 1723.133
1111.014, 1716.654
1111.496, 1694.260
1111.979, 1684.304
1112.461, 1690.681
1112.943, 1701.552
1113.425, 1706.956
1113.907, 1708.038
1114.389, 1703.200
1114.871, 1693.490
1115.353, 1692.098
1115.835, 1708.748
1116.318, 1721.445
1116.800, 1725.085
1117.282, 1722.120
1117.764, 1711.850
1118.246, 1699.272
1118.728, 1699.488
1119.210, 1719.288
1119.692, 1733.966
1120.175, 1730.498
1120.657, 1721.472
1121.139, 1710.495
1121.621, 1699.387
1122.103, 1702.518
1122.585, 1717.547
1123.067, 1727.748
1123.549, 1723.799
1124.031, 1716.069
1124.514, 1707.466
1124.996, 1700.574
1125.478, 1698.366
1125.960, 1701.385
1126.442, 1706.722
1126.924, 1714.550
1127.406, 1721.099
1127.888, 1720.601
1128.370, 1719.997
1128.853, 1728.694
1129.335, 1742.585
1129.817, 1747.862
1130.299, 1741.316
1130.781, 1732.285
1131.263, 1720.147
1131.745, 1712.086
1132.227, 1722.321
1132.710, 1738.503
1133.192, 1740.200
1133.674, 1726.065
1134.156, 1717.678
1134.638, 1721.890
1135.120, 1728.316
1135.602, 1736.118
1136.084, 1741.716
1136.567, 1734.651
1137.049, 1720.132
1137.531, 1710.823
1138.013, 1710.206
1138.495, 1712.249
1138.977, 1714.744
1139.459, 1719.745
1139.941, 1730.942
1140.423, 1745.156
1140.906, 1741.021
1141.388, 1722.926
1141.870, 1715.295
1142.352, 1739.383
1142.834, 1758.604
1143.316, 1748.403
1143.798, 1729.346
1144.280, 1721.070
1144.762, 1724.308
1145.245, 1731.633
1145.727, 1742.943
1146.209, 1750.364
1146.691, 1745.000
1147.173, 1737.853
1147.655, 1736.061
1148.137, 1738.557
1148.619, 1742.305
1149.102, 1747.507
1149.584, 1753.489
1150.066, 1760.742
1150.548, 1763.906
1151.030, 1754.372
1151.512, 1740.868
1151.994, 1732.218
1152.476, 1728.439
1152.958, 1723.917
1153.441, 1717.002
1153.923, 1713.051
1154.405, 1713.026
1154.887, 1716.778
1155.369, 1729.485
1155.851, 1743.265
1156.333, 1745.368
1156.815, 1732.654
1157.297, 1721.001
1157.780, 1710.753
1158.262, 1704.621
1158.744, 1703.301
1159.226, 1707.130
1159.708, 1723.057
1160.190, 1743.556
1160.672, 1750.583
1161.154, 1731.794
1161.637, 1720.175
1162.119, 1726.301
1162.601, 1734.024
1163.083, 1734.119
1163.565, 1728.405
1164.047, 1721.515
1164.529, 1714.608
1165.011, 1711.619
1165.494, 1717.081
1165.976, 1722.970
1166.458, 1727.275
1166.940, 1731.105
1167.422, 1737.279
1167.904, 1744.681
1168.386, 1739.366
1168.868, 1722.993
1169.350, 1711.954
1169.833, 1721.207
1170.315, 1731.778
1170.797, 1734.441
1171.279, 1733.925
1171.761, 1737.651
1172.243, 1745.244
1172.725, 1747.077
1173.207, 1742.219
1173.689, 1739.244
1174.172, 1747.734
1174.654, 1756.943
1175.136, 1760.151
1175.618, 1758.655
1176.100, 1755.366
1176.582, 1750.266
1177.064, 1742.162
1177.546, 1729.380
1178.029, 1722.661
1178.511, 1740.801
1178.993, 1761.441
1179.475, 1762.953
1179.957, 1747.546
1180.439, 1736.173
1180.921, 1728.780
1181.403, 1725.060
1181.885, 1725.576
1182.368, 1727.694
1182.850, 1729.778
1183.332, 1731.310
1183.814, 1730.368
1184.296, 1725.997
1184.778, 1731.812
1185.260, 1749.956
1185.742, 1760.954
1186.224, 1750.471
1186.707, 1736.262
1187.189, 1739.621
1187.671, 1752.097
1188.153, 1762.154
1188.635, 1769.664
1189.117, 1767.433
1189.599, 1752.343
1190.081, 1743.593
1190.564, 1764.330
1191.046, 1789.942
1191.528, 1785.301
1192.010, 1762.195
1192.492, 1746.050
1192.974, 1746.020
1193.456, 1739.937
1193.938, 1724.899
1194.421, 1713.370
1194.903, 1717.068
1195.385, 1729.946
1195.867, 1748.763
1196.349, 1769.827
1196.831, 1780.672
1197.313, 1776.172
1197.795, 1766.656
1198.277, 1750.313
1198.760, 1737.922
1199.242, 1748.004
1199.724, 1765.330
1200.206, 1764.519
1200.688, 1746.670
1201.170, 1734.774
1201.652, 1733.622
1202.134, 1736.687
1202.616, 1744.817
1203.099, 1751.687
1203.581, 1746.720
1204.063, 1735.871
1204.545, 1728.048
1205.027, 1724.189
1205.509, 1725.004
1205.991, 1733.450
1206.473, 1739.385
1206.956, 1738.675
1207.438, 1737.323
1207.920, 1749.035
1208.402, 1765.300
1208.884, 1770.097
1209.366, 1758.830
1209.848, 1753.323
1210.330, 1759.778
1210.813, 1764.534
1211.295, 1762.441
1211.777, 1756.008
1212.259, 1748.257
1212.741, 1740.312
1213.223, 1733.427
1213.705, 1725.786
1214.187, 1729.503
1214.669, 1751.950
1215.151, 1770.062
1215.634, 1769.797
1216.116, 1761.070
1216.598, 1766.429
1217.080, 1778.428
1217.562, 1780.479
1218.044, 1759.255
1218.526, 1750.246
1219.008, 1758.377
1219.491, 1773.493
1219.973, 1796.670
1220.455, 1817.573
1220.937, 1806.167
1221.419, 1774.918
1221.901, 1753.235
1222.383, 1756.014
1222.865, 1759.529
1223.348, 1762.465
1223.830, 1766.438
1224.312, 1774.856
1224.794, 1784.182
1225.276, 1786.673
1225.758, 1784.066
1226.240, 1781.114
1226.722, 1780.948
1227.204, 1777.438
1227.687, 1769.135
1228.169, 1760.914
1228.651, 1756.923
1229.133, 1756.059
1229.615, 1756.210
1230.097, 1757.717
1230.579, 1762.250
1231.061, 1774.597
1231.543, 1780.755
1232.026, 1777.763
1232.508, 1773.960
1232.990, 1780.336
1233.472, 1790.047
1233.954, 1791.946
1234.436, 1786.900
1234.918, 1781.710
1235.400, 1779.402
1235.883, 1770.829
1236.365, 1751.890
1236.847, 1736.842
1237.329, 1747.668
1237.811, 1768.186
1238.293, 1778.560
1238.775, 1778.135
1239.257, 1773.087
1239.740, 1760.204
1240.222, 1756.407
1240.704, 1766.606
1241.186, 1778.686
1241.668, 1776.990
1242.150, 1770.459
1242.632, 1770.640
1243.114, 1777.383
1243.596, 1778.063
1244.079, 1770.687
1244.561, 1762.983
1245.043, 1755.311
1245.525, 1753.184
1246.007, 1770.368
1246.489, 1790.916
1246.971, 1796.237
1247.453, 1785.684
1247.936, 1780.226
1248.418, 1780.711
1248.900, 1779.705
1249.382, 1774.398
1249.864, 1770.728
1250.346, 1775.886
1250.828, 1784.912
1251.310, 1795.451
1251.792, 1806.405
1252.275, 1805.825
1252.757, 1793.071
1253.239, 1784.298
1253.721, 1784.761
1254.203, 1788.124
1254.685, 1790.344
1255.167, 1791.787
1255.649, 1793.857
1256.131, 1795.919
1256.614, 1788.395
1257.096, 1772.131
1257.578, 1768.426
1258.060, 1789.169
1258.542, 1807.807
1259.024, 1801.732
1259.506, 1789.015
1259.988, 1783.502
1260.471, 1783.957
1260.953, 1780.382
1261.435, 1773.914
1261.917, 1773.343
1262.399, 1783.696
1262.881, 1794.998
1263.363, 1807.682
1263.845, 1813.011
1264.328, 1800.727
1264.810, 1777.603
1265.292, 1780.187
1265.774, 1802.501
1266.256, 1819.942
1266.738, 1824.191
1267.220, 1822.391
1267.702, 1814.642
1268.184, 1804.036
1268.667, 1789.492
1269.149, 1774.611
1269.631, 1773.956
1270.113, 1783.359
1270.595, 1791.189
1271.077, 1791.339
1271.559, 1795.907
1272.041, 1811.311
1272.523, 1821.609
1273.006, 1814.210
1273.488, 1797.604
1273.970, 1790.340
1274.452, 1789.792
1274.934, 1790.551
1275.416, 1790.034
1275.898, 1795.230
1276.380, 1810.061
1276.863, 1818.329
1277.345, 1802.023
1277.827, 1780.504
1278.309, 1788.778
1278.791, 1811.975
1279.273, 1822.929
1279.755, 1813.448
1280.237, 1802.612
1280.719, 1789.527
1281.202, 1781.167
1281.684, 1785.768
1282.166, 1792.422
1282.648, 1784.770
1283.130, 1774.430
1283.612, 1782.235
1284.094, 1815.329
1284.576, 1823.485
1285.058, 1806.517
1285.541, 1790.770
1286.023, 1793.237
1286.505, 1800.574
1286.987, 1808.436
1287.469, 1812.921
1287.951, 1807.211
1288.433, 1791.079
1288.915, 1793.030
1289.398, 1810.533
1289.880, 1821.310
1290.362, 1804.208
##END=



