##NAMES=Tantalite-(Mn)
##RRUFFID=R050600
##IDEAL CHEMISTRY=Mn^2+^Ta^5+^_2_O_6_
##LOCALITY=Shengus, Pakistan
##OWNER=RRUFF
##SOURCE=Wayne Thompson
##DESCRIPTION=Black tabular crystal associated with white albite and colorless quartz
##STATUS=The identification of this mineral has been made only by X-ray diffraction.
##URL=rruff.info/R050600
92.06543, 543.6437
92.54755, 537.4284
93.02966, 538.5349
93.51178, 545.9769
93.99390, 551.8533
94.47601, 555.8867
94.95813, 558.9879
95.44025, 562.4473
95.92236, 567.3015
96.40448, 573.4633
96.88660, 579.5714
97.36871, 586.3665
97.85082, 593.0673
98.33294, 599.1769
98.81506, 604.3151
99.29717, 607.7508
99.77929, 610.8852
100.2614, 613.9088
100.7435, 618.6815
101.2256, 625.3895
101.7078, 633.9496
102.1899, 644.6264
102.6720, 658.4216
103.1541, 673.1202
103.6362, 686.0205
104.1183, 697.1409
104.6005, 708.9178
105.0826, 723.4229
105.5647, 740.9244
106.0468, 759.1263
106.5289, 776.6564
107.0110, 795.0319
107.4931, 815.0635
107.9753, 837.0812
108.4574, 861.0233
108.9395, 886.9232
109.4216, 915.3890
109.9037, 945.1712
110.3858, 976.3527
110.8680, 1008.516
111.3501, 1041.041
111.8322, 1073.682
112.3143, 1106.402
112.7964, 1139.920
113.2785, 1174.763
113.7607, 1209.808
114.2428, 1245.516
114.7249, 1281.256
115.2070, 1316.177
115.6891, 1349.646
116.1712, 1381.524
116.6534, 1410.185
117.1355, 1435.856
117.6176, 1458.564
118.0997, 1477.442
118.5818, 1492.310
119.0639, 1506.197
119.5461, 1522.023
120.0282, 1539.119
120.5103, 1555.371
120.9924, 1569.488
121.4745, 1582.315
121.9566, 1595.793
122.4388, 1609.734
122.9209, 1624.975
123.4030, 1641.936
123.8851, 1660.373
124.3672, 1679.729
124.8493, 1700.183
125.3315, 1722.002
125.8136, 1741.596
126.2957, 1758.986
126.7778, 1773.506
127.2599, 1785.873
127.7420, 1795.496
128.2242, 1800.327
128.7063, 1797.699
129.1884, 1787.172
129.6705, 1768.462
130.1526, 1743.105
130.6347, 1710.586
131.1169, 1669.115
131.5990, 1618.454
132.0811, 1561.755
132.5632, 1505.973
133.0453, 1451.989
133.5274, 1397.482
134.0096, 1340.679
134.4917, 1283.648
134.9738, 1229.443
135.4559, 1179.238
135.9380, 1132.880
136.4201, 1090.534
136.9023, 1052.226
137.3844, 1016.634
137.8665, 983.7971
138.3486, 953.5314
138.8307, 924.9014
139.3128, 897.7811
139.7950, 872.3126
140.2771, 848.5917
140.7592, 826.8989
141.2413, 806.5641
141.7234, 786.6652
142.2055, 767.0508
142.6877, 749.0837
143.1698, 733.7605
143.6519, 720.5117
144.1340, 709.0652
144.6161, 699.6320
145.0982, 691.7592
145.5803, 684.0998
146.0625, 675.9191
146.5446, 669.3458
147.0267, 665.4454
147.5088, 663.2979
147.9909, 661.4153
148.4730, 658.6320
148.9552, 655.0744
149.4373, 653.3943
149.9194, 654.3666
150.4015, 656.7324
150.8836, 660.8137
151.3657, 666.1487
151.8479, 671.9318
152.3300, 677.4224
152.8121, 682.6149
153.2942, 687.8015
153.7763, 691.3930
154.2584, 696.2665
154.7406, 704.8680
155.2227, 716.8125
155.7048, 729.1174
156.1869, 738.2800
156.6690, 742.7471
157.1511, 749.7258
157.6333, 761.2856
158.1154, 774.1370
158.5975, 784.9028
159.0796, 792.8127
159.5617, 800.3596
160.0438, 811.1437
160.5260, 825.2377
161.0081, 839.3075
161.4902, 851.6012
161.9723, 863.5010
162.4544, 877.6432
162.9365, 894.8015
163.4187, 913.9098
163.9008, 933.7434
164.3829, 954.1737
164.8650, 974.9945
165.3471, 996.8493
165.8292, 1019.369
166.3113, 1039.676
166.7935, 1056.056
167.2756, 1070.912
167.7577, 1086.527
168.2398, 1102.959
168.7219, 1118.363
169.2040, 1131.158
169.6862, 1141.317
170.1683, 1148.864
170.6504, 1153.765
171.1325, 1155.893
171.6146, 1154.889
172.0967, 1150.691
172.5789, 1143.589
173.0610, 1133.894
173.5431, 1121.286
174.0252, 1106.442
174.5073, 1088.122
174.9894, 1068.753
175.4716, 1049.569
175.9537, 1031.179
176.4358, 1013.876
176.9179, 998.4112
177.4000, 986.5197
177.8821, 974.2444
178.3643, 959.7760
178.8464, 945.6240
179.3285, 934.0528
179.8106, 925.9449
180.2927, 921.2783
180.7748, 920.2612
181.2570, 923.9681
181.7391, 929.9504
182.2212, 937.8876
182.7033, 947.9866
183.1854, 960.5656
183.6675, 975.8271
184.1497, 993.5642
184.6318, 1013.392
185.1139, 1034.538
185.5960, 1058.055
186.0781, 1085.419
186.5602, 1115.590
187.0423, 1145.567
187.5245, 1173.521
188.0066, 1200.559
188.4887, 1229.347
188.9708, 1259.608
189.4529, 1291.447
189.9350, 1325.286
190.4172, 1360.888
190.8993, 1397.247
191.3814, 1434.014
191.8635, 1471.258
192.3456, 1509.156
192.8277, 1547.406
193.3099, 1586.634
193.7920, 1627.968
194.2741, 1671.737
194.7562, 1715.742
195.2383, 1758.683
195.7204, 1801.680
196.2026, 1845.652
196.6847, 1891.152
197.1668, 1937.474
197.6489, 1984.249
198.1310, 2032.523
198.6131, 2078.116
199.0953, 2119.926
199.5774, 2158.993
200.0595, 2196.165
200.5416, 2232.173
201.0237, 2265.238
201.5058, 2291.745
201.9880, 2313.590
202.4701, 2323.945
202.9522, 2323.243
203.4343, 2312.062
203.9164, 2290.308
204.3985, 2257.932
204.8807, 2216.178
205.3628, 2168.555
205.8449, 2111.802
206.3270, 2052.862
206.8091, 1991.271
207.2912, 1928.778
207.7733, 1866.363
208.2555, 1804.704
208.7376, 1744.395
209.2197, 1687.724
209.7018, 1634.286
210.1839, 1585.354
210.6660, 1541.974
211.1482, 1503.189
211.6303, 1467.792
212.1124, 1435.139
212.5945, 1405.435
213.0766, 1378.965
213.5587, 1355.202
214.0409, 1334.867
214.5230, 1318.388
215.0051, 1305.401
215.4872, 1294.921
215.9693, 1286.293
216.4514, 1280.155
216.9336, 1279.449
217.4157, 1285.326
217.8978, 1293.512
218.3799, 1302.385
218.8620, 1312.473
219.3441, 1325.027
219.8263, 1340.243
220.3084, 1358.933
220.7905, 1382.566
221.2726, 1411.690
221.7547, 1443.975
222.2368, 1478.390
222.7190, 1515.047
223.2011, 1554.450
223.6832, 1596.984
224.1653, 1642.609
224.6474, 1690.292
225.1295, 1739.894
225.6117, 1791.758
226.0938, 1846.500
226.5759, 1903.955
227.0580, 1961.869
227.5401, 2019.564
228.0222, 2077.244
228.5043, 2135.428
228.9865, 2193.710
229.4686, 2252.927
229.9507, 2312.886
230.4328, 2373.472
230.9149, 2435.721
231.3970, 2498.304
231.8792, 2563.867
232.3613, 2635.196
232.8434, 2712.661
233.3255, 2793.447
233.8076, 2874.735
234.2897, 2956.342
234.7719, 3040.521
235.2540, 3129.174
235.7361, 3220.386
236.2182, 3313.433
236.7003, 3408.360
237.1824, 3504.345
237.6646, 3602.467
238.1467, 3704.716
238.6288, 3800.913
239.1109, 3893.856
239.5930, 3977.296
240.0751, 4048.628
240.5573, 4107.081
241.0394, 4152.183
241.5215, 4184.603
242.0036, 4206.583
242.4857, 4205.994
242.9678, 4180.987
243.4500, 4134.777
243.9321, 4064.730
244.4142, 3972.314
244.8963, 3863.579
245.3784, 3742.789
245.8605, 3605.925
246.3427, 3472.412
246.8248, 3342.051
247.3069, 3215.245
247.7890, 3091.115
248.2711, 2970.155
248.7532, 2855.321
249.2354, 2748.086
249.7175, 2648.471
250.1996, 2558.521
250.6817, 2478.562
251.1638, 2406.690
251.6459, 2342.804
252.1281, 2286.437
252.6102, 2237.153
253.0923, 2194.332
253.5744, 2158.482
254.0565, 2127.692
254.5386, 2100.818
255.0208, 2078.824
255.5029, 2062.629
255.9850, 2051.814
256.4671, 2044.915
256.9492, 2040.654
257.4313, 2038.967
257.9135, 2041.323
258.3956, 2047.577
258.8777, 2056.897
259.3598, 2069.362
259.8419, 2084.690
260.3240, 2102.383
260.8062, 2122.178
261.2883, 2144.117
261.7704, 2167.228
262.2525, 2190.987
262.7346, 2216.345
263.2167, 2244.405
263.6989, 2274.510
264.1810, 2304.889
264.6631, 2334.898
265.1452, 2364.212
265.6273, 2389.974
266.1094, 2411.867
266.5916, 2431.388
267.0737, 2450.640
267.5558, 2467.956
268.0379, 2479.316
268.5200, 2482.155
269.0021, 2477.688
269.4843, 2470.832
269.9664, 2463.009
270.4485, 2451.830
270.9306, 2436.503
271.4127, 2417.293
271.8948, 2393.854
272.3770, 2364.978
272.8591, 2333.703
273.3412, 2307.909
273.8233, 2290.059
274.3054, 2271.251
274.7875, 2246.108
275.2697, 2218.485
275.7518, 2195.625
276.2339, 2180.084
276.7160, 2170.200
277.1981, 2163.644
277.6802, 2159.675
278.1623, 2159.397
278.6444, 2163.522
279.1266, 2171.459
279.6087, 2182.802
280.0908, 2197.932
280.5729, 2214.660
281.0550, 2231.211
281.5371, 2248.032
282.0193, 2260.963
282.5014, 2272.004
282.9835, 2277.555
283.4656, 2272.191
283.9477, 2254.771
284.4298, 2227.948
284.9120, 2192.860
285.3941, 2150.205
285.8762, 2102.335
286.3583, 2047.393
286.8404, 1988.509
287.3225, 1928.186
287.8047, 1866.141
288.2868, 1806.244
288.7689, 1750.638
289.2510, 1699.742
289.7331, 1653.916
290.2152, 1614.145
290.6974, 1579.330
291.1795, 1548.603
291.6616, 1521.935
292.1437, 1499.827
292.6258, 1482.689
293.1079, 1470.666
293.5901, 1463.266
294.0722, 1461.757
294.5543, 1463.448
295.0364, 1466.015
295.5185, 1469.553
296.0006, 1475.857
296.4828, 1487.505
296.9649, 1501.479
297.4470, 1512.393
297.9291, 1519.422
298.4112, 1524.927
298.8933, 1530.638
299.3755, 1536.316
299.8576, 1540.715
300.3397, 1543.668
300.8218, 1544.678
301.3039, 1543.249
301.7860, 1539.165
302.2682, 1534.456
302.7503, 1530.111
303.2324, 1526.005
303.7145, 1521.589
304.1966, 1516.529
304.6787, 1511.464
305.1609, 1506.810
305.6430, 1502.551
306.1251, 1499.194
306.6072, 1496.745
307.0893, 1495.375
307.5714, 1495.169
308.0536, 1495.719
308.5357, 1498.633
309.0178, 1505.406
309.4999, 1515.486
309.9820, 1528.465
310.4641, 1543.274
310.9463, 1561.235
311.4284, 1584.313
311.9105, 1612.625
312.3926, 1645.102
312.8747, 1681.189
313.3568, 1721.035
313.8390, 1765.122
314.3211, 1813.514
314.8032, 1866.266
315.2853, 1924.298
315.7674, 1987.546
316.2495, 2054.114
316.7317, 2125.676
317.2138, 2199.219
317.6959, 2270.344
318.1780, 2339.473
318.6601, 2404.259
319.1422, 2465.380
319.6243, 2522.015
320.1064, 2567.617
320.5886, 2603.619
321.0707, 2621.972
321.5528, 2618.370
322.0349, 2593.484
322.5170, 2546.415
322.9991, 2472.520
323.4813, 2375.993
323.9634, 2265.351
324.4455, 2139.024
324.9276, 2006.652
325.4097, 1876.487
325.8918, 1748.350
326.3740, 1626.807
326.8561, 1511.329
327.3382, 1403.774
327.8203, 1306.400
328.3024, 1219.517
328.7845, 1141.378
329.2667, 1072.349
329.7488, 1011.352
330.2309, 956.2591
330.7130, 907.5078
331.1951, 864.2036
331.6772, 826.0755
332.1594, 793.0883
332.6415, 763.5428
333.1236, 737.0569
333.6057, 713.4064
334.0878, 691.2454
334.5699, 670.5455
335.0521, 651.5596
335.5342, 634.8728
336.0163, 620.2063
336.4984, 605.8126
336.9805, 590.9807
337.4626, 576.4868
337.9448, 563.7893
338.4269, 552.9335
338.9090, 542.2934
339.3911, 530.7892
339.8732, 519.1075
340.3553, 508.7838
340.8375, 500.2807
341.3196, 492.5452
341.8017, 484.2331
342.2838, 475.4507
342.7659, 467.8740
343.2480, 462.6299
343.7302, 458.2809
344.2123, 453.2142
344.6944, 447.3387
345.1765, 441.7365
345.6586, 437.2709
346.1407, 433.8467
346.6229, 430.3127
347.1050, 426.5459
347.5871, 422.8047
348.0692, 419.0095
348.5513, 415.3210
349.0334, 412.3650
349.5156, 410.7104
349.9977, 409.7453
350.4798, 407.6975
350.9619, 403.7694
351.4440, 400.5500
351.9261, 399.4317
352.4083, 399.4471
352.8904, 398.9168
353.3725, 397.2908
353.8546, 395.3766
354.3367, 394.4129
354.8188, 394.7053
355.3010, 394.6450
355.7831, 393.8163
356.2652, 392.7474
356.7473, 391.8279
357.2294, 391.1273
357.7115, 390.6717
358.1937, 390.5454
358.6758, 390.7660
359.1579, 390.6934
359.6400, 390.1305
360.1221, 389.4974
360.6042, 388.7237
361.0863, 388.0209
361.5685, 388.0052
362.0506, 389.1248
362.5327, 391.0066
363.0148, 392.1009
363.4969, 392.1437
363.9790, 391.7977
364.4612, 390.6724
364.9433, 389.3874
365.4254, 388.9685
365.9075, 389.7112
366.3896, 390.6056
366.8717, 389.9674
367.3539, 386.7817
367.8360, 384.3057
368.3181, 382.5146
368.8002, 381.3943
369.2823, 381.3776
369.7644, 382.1992
370.2466, 382.7670
370.7287, 381.9773
371.2108, 379.7017
371.6929, 378.3121
372.1750, 379.2273
372.6571, 379.4423
373.1393, 377.6456
373.6214, 374.5897
374.1035, 371.4688
374.5856, 368.9082
375.0677, 366.9859
375.5498, 365.9597
376.0320, 366.1519
376.5141, 366.8785
376.9962, 368.6392
377.4783, 370.5299
377.9604, 371.7333
378.4425, 372.0683
378.9247, 371.9538
379.4068, 371.6884
379.8889, 370.7729
380.3710, 371.5000
380.8531, 375.3571
381.3352, 379.5269
381.8174, 382.8524
382.2995, 385.4217
382.7816, 387.8593
383.2637, 390.5539
383.7458, 393.5123
384.2279, 396.7655
384.7101, 400.4264
385.1922, 404.2406
385.6743, 407.8834
386.1564, 411.6927
386.6385, 416.3286
387.1206, 422.1444
387.6028, 428.1812
388.0849, 433.0783
388.5670, 436.8171
389.0491, 439.4186
389.5312, 440.0679
390.0133, 440.0982
390.4955, 440.3624
390.9776, 440.9124
391.4597, 441.2593
391.9418, 441.0922
392.4239, 440.4161
392.9060, 439.1633
393.3882, 436.9784
393.8703, 434.8361
394.3524, 433.4165
394.8345, 432.4967
395.3166, 431.6365
395.7987, 430.8093
396.2809, 429.8580
396.7630, 428.7386
397.2451, 427.4800
397.7272, 425.4466
398.2093, 422.1346
398.6914, 417.9266
399.1736, 413.4327
399.6557, 408.4797
400.1378, 403.7515
400.6199, 399.8629
401.1020, 396.5072
401.5841, 392.9207
402.0662, 388.9927
402.5483, 384.6066
403.0305, 379.1420
403.5126, 372.6796
403.9947, 367.4731
404.4768, 364.9965
404.9589, 363.2309
405.4410, 359.8926
405.9232, 355.1064
406.4053, 351.2315
406.8874, 350.2233
407.3695, 351.2941
407.8516, 350.2521
408.3337, 345.1860
408.8159, 340.5454
409.2980, 337.7938
409.7801, 336.3213
410.2622, 335.1891
410.7443, 334.0677
411.2264, 333.1291
411.7086, 332.6845
412.1907, 333.0960
412.6728, 333.1014
413.1549, 332.7513
413.6370, 331.9741
414.1191, 329.9864
414.6013, 327.3024
415.0834, 325.8853
415.5655, 327.5345
416.0476, 331.9909
416.5297, 334.6204
417.0118, 333.6335
417.4940, 332.7906
417.9761, 332.7695
418.4582, 333.2121
418.9403, 333.4329
419.4224, 333.2004
419.9045, 333.2286
420.3867, 334.9984
420.8688, 339.4882
421.3509, 343.0854
421.8330, 345.3437
422.3151, 346.9712
422.7972, 347.8907
423.2794, 348.4022
423.7615, 349.3285
424.2436, 351.5894
424.7257, 354.8611
425.2078, 356.8265
425.6899, 356.4383
426.1721, 356.5772
426.6542, 358.4503
427.1363, 361.2838
427.6184, 364.3383
428.1005, 367.4766
428.5826, 370.3059
429.0648, 371.9467
429.5469, 372.3791
430.0290, 373.8438
430.5111, 377.5864
430.9932, 381.6653
431.4753, 384.1738
431.9575, 385.3086
432.4396, 386.6932
432.9217, 389.4453
433.4038, 392.8089
433.8859, 395.4995
434.3680, 397.4046
434.8502, 399.0269
435.3323, 400.4737
435.8144, 401.9151
436.2965, 403.7527
436.7786, 405.9226
437.2607, 408.6028
437.7429, 412.2874
438.2250, 416.5269
438.7071, 420.2998
439.1892, 423.2845
439.6713, 425.7372
440.1534, 427.8646
440.6356, 429.5062
441.1177, 431.6171
441.5998, 434.6400
442.0819, 437.8281
442.5640, 440.6647
443.0461, 443.1451
443.5282, 445.5580
444.0103, 448.1207
444.4925, 450.7260
444.9746, 452.7271
445.4567, 453.6935
445.9388, 454.5689
446.4209, 455.3120
446.9030, 456.0728
447.3852, 456.9911
447.8673, 458.1031
448.3494, 459.3840
448.8315, 460.8335
449.3136, 462.5045
449.7957, 464.0641
450.2779, 465.3853
450.7600, 466.7243
451.2421, 468.0855
451.7242, 469.5378
452.2063, 471.2473
452.6884, 473.3519
453.1706, 475.6046
453.6527, 477.3896
454.1348, 478.6140
454.6169, 479.6420
455.0990, 479.5051
455.5811, 479.9318
456.0633, 482.5732
456.5454, 487.4489
457.0275, 492.4966
457.5096, 495.8820
457.9917, 498.1920
458.4738, 501.6562
458.9560, 506.6543
459.4381, 512.1378
459.9202, 517.4007
460.4023, 522.6654
460.8844, 528.4785
461.3665, 535.3934
461.8487, 542.1791
462.3308, 547.6272
462.8129, 552.1219
463.2950, 556.9446
463.7771, 562.4763
464.2592, 568.6512
464.7414, 575.6594
465.2235, 583.6913
465.7056, 591.2267
466.1877, 597.3918
466.6698, 603.6093
467.1519, 610.9972
467.6341, 619.5297
468.1162, 628.4504
468.5983, 637.1701
469.0804, 646.0497
469.5625, 656.4149
470.0446, 670.2994
470.5268, 683.1225
471.0089, 693.2405
471.4910, 702.8810
471.9731, 713.8135
472.4552, 726.5038
472.9373, 740.7588
473.4195, 756.6944
473.9016, 774.4922
474.3837, 791.0911
474.8658, 805.0900
475.3479, 819.3058
475.8300, 834.9315
476.3122, 851.0644
476.7943, 866.4039
477.2764, 880.2635
477.7585, 893.8255
478.2406, 908.9080
478.7227, 925.4813
479.2049, 943.4005
479.6870, 964.1184
480.1691, 984.6957
480.6512, 1002.367
481.1333, 1017.722
481.6154, 1033.861
482.0976, 1052.322
482.5797, 1072.433
483.0618, 1093.760
483.5439, 1116.353
484.0260, 1138.068
484.5081, 1157.724
484.9902, 1176.021
485.4724, 1194.634
485.9545, 1213.635
486.4366, 1232.645
486.9187, 1251.277
487.4008, 1270.070
487.8829, 1289.638
488.3651, 1310.123
488.8472, 1331.444
489.3293, 1353.610
489.8114, 1376.726
490.2935, 1398.446
490.7756, 1417.607
491.2578, 1436.937
491.7399, 1456.890
492.2220, 1477.489
492.7041, 1498.924
493.1862, 1521.146
493.6683, 1543.539
494.1505, 1565.179
494.6326, 1585.793
495.1147, 1606.507
495.5968, 1627.006
496.0789, 1647.801
496.5610, 1670.327
497.0432, 1693.093
497.5253, 1713.393
498.0074, 1729.411
498.4895, 1742.929
498.9716, 1756.919
499.4537, 1771.396
499.9359, 1786.403
500.4180, 1802.785
500.9001, 1819.119
501.3822, 1833.700
501.8643, 1846.814
502.3464, 1860.715
502.8286, 1877.434
503.3107, 1895.256
503.7928, 1912.672
504.2749, 1929.574
504.7570, 1943.152
505.2391, 1951.253
505.7213, 1955.438
506.2034, 1959.681
506.6855, 1964.070
507.1676, 1968.309
507.6497, 1971.936
508.1318, 1975.577
508.6140, 1980.912
509.0961, 1987.682
509.5782, 1992.474
510.0603, 1992.064
510.5424, 1986.725
511.0245, 1981.873
511.5067, 1978.313
511.9888, 1974.275
512.4709, 1969.480
512.9530, 1964.040
513.4351, 1957.890
513.9172, 1951.090
514.3994, 1944.204
514.8815, 1938.158
515.3636, 1933.093
515.8457, 1926.703
516.3278, 1917.912
516.8099, 1909.175
517.2921, 1900.663
517.7742, 1893.097
518.2563, 1887.526
518.7384, 1884.259
519.2205, 1883.091
519.7026, 1883.643
520.1848, 1885.993
520.6669, 1890.942
521.1490, 1898.975
521.6311, 1908.967
522.1132, 1919.607
522.5953, 1931.026
523.0775, 1944.645
523.5596, 1961.418
524.0417, 1979.742
524.5238, 1997.725
525.0059, 2016.181
525.4880, 2037.348
525.9702, 2061.945
526.4523, 2090.461
526.9344, 2124.634
527.4165, 2167.394
527.8986, 2207.836
528.3807, 2242.340
528.8629, 2278.282
529.3450, 2320.627
529.8271, 2367.593
530.3092, 2414.522
530.7913, 2458.797
531.2734, 2501.371
531.7556, 2545.141
532.2377, 2590.957
532.7198, 2635.237
533.2019, 2678.656
533.6840, 2719.290
534.1661, 2757.157
534.6483, 2791.689
535.1304, 2821.251
535.6125, 2846.541
536.0946, 2865.441
536.5767, 2874.520
537.0588, 2873.743
537.5410, 2863.637
538.0231, 2844.199
538.5052, 2815.305
538.9873, 2777.697
539.4694, 2731.692
539.9515, 2677.332
540.4337, 2612.441
540.9158, 2540.395
541.3979, 2463.254
541.8800, 2381.891
542.3621, 2297.304
542.8442, 2209.973
543.3264, 2121.055
543.8085, 2034.283
544.2906, 1948.820
544.7726, 1867.786
545.2548, 1793.223
545.7369, 1721.651
546.2190, 1650.311
546.7011, 1579.659
547.1832, 1512.147
547.6653, 1450.316
548.1475, 1393.414
548.6296, 1339.477
549.1117, 1288.375
549.5938, 1240.818
550.0759, 1198.098
550.5580, 1158.475
551.0402, 1120.526
551.5223, 1084.252
552.0044, 1050.546
552.4865, 1020.349
552.9686, 992.7550
553.4507, 965.9701
553.9329, 939.9174
554.4150, 915.6292
554.8971, 893.9037
555.3792, 874.1052
555.8613, 854.9741
556.3434, 836.6525
556.8256, 818.4542
557.3077, 799.1729
557.7898, 780.5823
558.2719, 764.6358
558.7540, 751.1935
559.2361, 739.1504
559.7183, 727.7677
560.2004, 716.9354
560.6825, 705.8236
561.1646, 694.2358
561.6467, 682.8435
562.1288, 671.1375
562.6110, 660.0395
563.0931, 650.2642
563.5752, 641.7449
564.0573, 633.7640
564.5394, 625.9364
565.0215, 618.2322
565.5037, 610.4929
565.9858, 602.6111
566.4679, 595.2042
566.9500, 588.5501
567.4321, 582.4719
567.9142, 576.7174
568.3964, 571.3024
568.8785, 565.9828
569.3606, 560.5901
569.8427, 555.3141
570.3248, 550.2720
570.8069, 545.5080
571.2891, 541.0443
571.7712, 536.9702
572.2533, 533.1238
572.7354, 529.1648
573.2175, 525.0629
573.6996, 520.8563
574.1818, 516.0766
574.6639, 511.5912
575.1460, 508.0418
575.6281, 505.2305
576.1102, 502.6237
576.5923, 499.9391
577.0745, 497.1586
577.5566, 494.1986
578.0387, 491.0133
578.5208, 487.9253
579.0029, 485.0565
579.4850, 482.2813
579.9672, 479.4495
580.4493, 476.6111
580.9314, 473.9816
581.4135, 471.7310
581.8956, 469.6483
582.3777, 467.7185
582.8599, 465.8162
583.3420, 463.2141
583.8241, 459.4995
584.3062, 455.7962
584.7883, 453.7490
585.2704, 453.8614
585.7526, 453.1418
586.2347, 451.1259
586.7168, 448.8341
587.1989, 446.1673
587.6810, 443.6774
588.1631, 442.3924
588.6453, 442.6354
589.1274, 443.2905
589.6095, 442.6318
590.0916, 440.4579
590.5737, 438.8419
591.0558, 438.0081
591.5380, 437.4521
592.0201, 436.8028
592.5022, 436.2953
592.9843, 436.3672
593.4664, 437.2466
593.9485, 438.2490
594.4307, 439.0929
594.9128, 439.6330
595.3949, 439.1205
595.8770, 437.3671
596.3591, 436.3057
596.8412, 437.5808
597.3234, 440.8577
597.8055, 443.6879
598.2876, 445.9709
598.7697, 448.0212
599.2518, 449.4854
599.7339, 451.0107
600.2161, 453.2105
600.6982, 456.1371
601.1803, 459.4257
601.6624, 462.7403
602.1445, 466.2351
602.6266, 470.7531
603.1088, 476.8922
603.5909, 482.4302
604.0730, 485.7415
604.5551, 488.9955
605.0372, 494.0463
605.5193, 500.7720
606.0015, 507.1461
606.4836, 512.0366
606.9657, 516.2038
607.4478, 520.1051
607.9299, 523.9415
608.4120, 528.9171
608.8942, 535.5589
609.3763, 543.3352
609.8584, 551.6448
610.3405, 560.8176
610.8226, 569.1741
611.3047, 576.2969
611.7869, 583.0858
612.2690, 590.0276
612.7511, 596.9078
613.2332, 603.1541
613.7153, 608.5924
614.1974, 613.9759
614.6796, 620.6823
615.1617, 628.8723
615.6438, 635.7159
616.1259, 640.4603
616.6080, 645.0649
617.0901, 651.3181
617.5723, 657.8298
618.0544, 662.4558
618.5365, 664.5865
619.0186, 665.7715
619.5007, 666.2863
619.9828, 666.6551
620.4650, 667.8822
620.9471, 670.0035
621.4292, 672.1119
621.9113, 673.6270
622.3934, 674.6223
622.8755, 675.3649
623.3577, 676.0204
623.8398, 676.1445
624.3219, 675.6307
624.8040, 674.6940
625.2861, 672.7534
625.7682, 670.4930
626.2504, 669.5812
626.7325, 671.0441
627.2145, 674.2225
627.6967, 678.1631
628.1788, 682.9080
628.6609, 687.6344
629.1430, 692.1705
629.6251, 696.6970
630.1072, 701.7178
630.5894, 706.9645
631.0715, 711.3615
631.5536, 713.1305
632.0357, 715.7997
632.5178, 721.7361
632.9999, 729.5502
633.4821, 737.2764
633.9642, 744.3826
634.4463, 751.1656
634.9284, 758.0067
635.4105, 764.8235
635.8926, 770.0098
636.3748, 773.0247
636.8569, 775.1439
637.3390, 776.6563
637.8211, 777.4330
638.3032, 777.5343
638.7853, 776.8666
639.2675, 774.9885
639.7496, 771.9095
640.2317, 767.3051
640.7138, 760.1494
641.1959, 750.6127
641.6780, 740.6649
642.1602, 731.0157
642.6423, 721.1600
643.1244, 710.5183
643.6065, 699.1324
644.0886, 686.2533
644.5707, 670.8827
645.0529, 655.1725
645.5350, 639.4020
646.0171, 624.0208
646.4992, 609.6444
646.9813, 596.4297
647.4634, 583.6480
647.9456, 570.4415
648.4277, 556.9022
648.9098, 544.2060
649.3919, 532.7231
649.8740, 521.2244
650.3561, 508.7732
650.8383, 496.4189
651.3204, 485.6937
651.8025, 476.7687
652.2846, 467.7539
652.7667, 457.5212
653.2488, 447.2281
653.7310, 438.0137
654.2131, 429.7881
654.6952, 422.0161
655.1773, 414.4673
655.6594, 407.4391
656.1415, 401.5043
656.6237, 397.0970
657.1058, 391.8261
657.5879, 384.3071
658.0700, 377.4403
658.5521, 372.0572
659.0342, 367.7297
659.5164, 364.1707
659.9985, 361.2749
660.4806, 358.2284
660.9627, 354.0841
661.4448, 349.3735
661.9269, 345.3564
662.4091, 342.1044
662.8912, 338.8354
663.3733, 334.9947
663.8554, 331.1584
664.3375, 328.6085
664.8196, 328.0659
665.3018, 326.7206
665.7839, 323.7088
666.2660, 320.6803
666.7481, 318.5106
667.2302, 316.9448
667.7123, 315.4897
668.1945, 313.9460
668.6766, 312.3446
669.1587, 310.6967
669.6408, 309.0061
670.1229, 307.3105
670.6050, 305.5934
671.0872, 303.9364
671.5693, 302.2686
672.0514, 300.7713
672.5335, 299.8307
673.0156, 299.6171
673.4977, 299.1495
673.9799, 297.9111
674.4620, 296.4960
674.9441, 295.5182
675.4262, 294.7920
675.9083, 293.6593
676.3904, 291.8213
676.8726, 289.7305
677.3547, 288.0563
677.8368, 286.7909
678.3189, 286.0535
678.8010, 286.4168
679.2831, 286.4688
679.7653, 285.4055
680.2474, 283.8768
680.7295, 282.6532
681.2116, 281.8670
681.6937, 281.2404
682.1758, 280.5960
682.6580, 280.0416
683.1401, 279.8424
683.6222, 279.9081
684.1043, 279.7549
684.5864, 279.1535
685.0685, 278.2404
685.5507, 277.1790
686.0328, 275.7745
686.5149, 275.0059
686.9970, 275.5993
687.4791, 276.0203
687.9612, 275.8471
688.4434, 275.2388
688.9255, 274.2194
689.4076, 272.8234
689.8897, 271.7634
690.3718, 271.8128
690.8539, 272.5005
691.3361, 273.0078
691.8182, 273.2993
692.3003, 273.2374
692.7824, 272.6722
693.2645, 271.9749
693.7466, 271.7715
694.2288, 272.2575
694.7109, 272.4314
695.1930, 271.9081
695.6751, 271.5421
696.1572, 271.7682
696.6393, 272.2578
697.1215, 272.5941
697.6036, 272.6787
698.0857, 272.6782
698.5678, 272.5948
699.0499, 272.5617
699.5320, 273.0804
700.0142, 274.1757
700.4963, 275.2059
700.9784, 276.0079
701.4605, 276.5127
701.9426, 276.5782
702.4247, 276.1475
702.9069, 275.6484
703.3890, 274.5183
703.8711, 273.9758
704.3532, 275.0472
704.8353, 276.6856
705.3174, 277.6451
705.7996, 277.6789
706.2817, 277.2720
706.7638, 276.6869
707.2459, 276.0779
707.7280, 275.9994
708.2101, 276.5071
708.6923, 277.0646
709.1743, 277.6347
709.6564, 278.0283
710.1385, 277.7915
710.6207, 277.0207
711.1028, 276.9919
711.5849, 278.5240
712.0670, 279.9357
712.5491, 280.9341
713.0313, 281.2724
713.5134, 280.2262
713.9955, 278.0463
714.4776, 276.2411
714.9597, 276.0000
715.4418, 276.8036
715.9240, 277.1542
716.4061, 276.9262
716.8882, 277.4469
717.3703, 279.5621
717.8524, 281.5242
718.3345, 281.7954
718.8167, 280.7181
719.2988, 279.3695
719.7809, 277.1297
720.2630, 275.7155
720.7451, 276.5329
721.2272, 277.8900
721.7094, 277.7668
722.1915, 276.4366
722.6736, 275.8085
723.1557, 277.0990
723.6378, 279.2339
724.1199, 279.9703
724.6021, 279.1884
725.0842, 278.5185
725.5663, 277.9664
726.0484, 277.8202
726.5305, 278.3382
727.0126, 279.3731
727.4948, 280.7710
727.9769, 282.9491
728.4590, 284.2039
728.9411, 282.4437
729.4232, 280.8814
729.9053, 283.3087
730.3875, 288.1297
730.8696, 290.9033
731.3517, 289.7651
731.8338, 286.9699
732.3159, 285.5000
732.7980, 285.3589
733.2802, 285.6495
733.7623, 286.6930
734.2444, 287.2158
734.7265, 286.0682
735.2086, 284.5636
735.6907, 284.8072
736.1729, 286.9750
736.6550, 288.3442
737.1371, 287.6078
737.6192, 286.7018
738.1013, 286.7122
738.5834, 287.3601
739.0656, 288.2531
739.5477, 289.2291
740.0298, 290.0578
740.5119, 290.5430
740.9940, 290.6901
741.4761, 290.4193
741.9583, 289.6131
742.4404, 289.0775
742.9225, 289.1275
743.4046, 289.3663
743.8867, 289.3980
744.3688, 289.2696
744.8510, 289.2530
745.3331, 289.0245
745.8152, 289.3486
746.2973, 291.4344
746.7794, 293.5523
747.2615, 293.5445
747.7437, 291.7205
748.2258, 290.0350
748.7079, 289.6325
749.1900, 290.2413
749.6721, 291.8946
750.1542, 294.5540
750.6364, 295.4909
751.1185, 293.9672
751.6006, 292.0757
752.0827, 291.0846
752.5648, 290.6579
753.0469, 289.7982
753.5291, 288.1559
754.0112, 287.0353
754.4933, 286.7047
754.9754, 286.8312
755.4575, 287.7496
755.9396, 288.8100
756.4218, 288.8961
756.9039, 287.6666
757.3860, 285.8909
757.8681, 284.0247
758.3502, 282.2840
758.8323, 281.7499
759.3145, 282.4903
759.7966, 282.7449
760.2787, 281.7791
760.7608, 280.2467
761.2429, 278.9102
761.7250, 277.7733
762.2072, 276.8095
762.6893, 275.9254
763.1714, 275.3253
763.6535, 275.4112
764.1356, 275.5486
764.6177, 274.8965
765.0999, 273.6562
765.5820, 272.9643
766.0641, 273.6006
766.5462, 274.8271
767.0283, 275.9201
767.5104, 276.8010
767.9926, 277.1440
768.4747, 276.8934
768.9568, 276.1601
769.4389, 274.9543
769.9210, 273.4159
770.4031, 271.9955
770.8853, 270.2552
771.3674, 269.5025
771.8495, 270.7473
772.3316, 271.8502
772.8137, 271.8646
773.2958, 271.1772
773.7780, 270.3927
774.2601, 269.6491
774.7422, 268.8656
775.2243, 267.7808
775.7064, 266.7742
776.1885, 266.4775
776.6707, 266.7126
777.1528, 266.6871
777.6349, 266.1260
778.1170, 265.7244
778.5991, 266.4339
779.0812, 268.1659
779.5634, 269.0128
780.0455, 268.5609
780.5276, 268.1415
781.0097, 268.0128
781.4918, 268.0638
781.9739, 268.2477
782.4561, 268.5411
782.9382, 268.8676
783.4203, 269.4065
783.9024, 269.6805
784.3845, 269.1763
784.8666, 268.4665
785.3488, 268.0775
785.8309, 268.1284
786.3130, 268.8798
786.7951, 270.5409
787.2772, 272.1767
787.7593, 271.6021
788.2415, 268.9169
788.7236, 268.5580
789.2057, 271.2801
789.6878, 274.3366
790.1699, 276.6306
790.6520, 278.2905
791.1342, 279.4515
791.6162, 280.0784
792.0983, 280.4820
792.5804, 280.2575
793.0626, 280.3007
793.5447, 281.0225
794.0268, 282.1649
794.5089, 283.4208
794.9910, 284.7539
795.4731, 286.3891
795.9553, 288.7645
796.4374, 291.1081
796.9195, 291.9833
797.4016, 291.7249
797.8837, 291.7150
798.3658, 292.2013
798.8480, 293.2039
799.3301, 294.7708
799.8122, 296.8217
800.2943, 299.0797
800.7764, 301.7616
801.2585, 304.2018
801.7407, 306.1361
802.2228, 308.1010
802.7049, 310.1210
803.1870, 312.3590
803.6691, 315.0308
804.1512, 318.1688
804.6334, 321.6115
805.1155, 325.7303
805.5976, 329.7007
806.0797, 332.5688
806.5618, 334.7160
807.0439, 336.9013
807.5261, 339.3727
808.0082, 342.2830
808.4903, 345.7838
808.9724, 349.7980
809.4545, 354.0571
809.9366, 358.6132
810.4188, 363.1830
810.9009, 367.7192
811.3830, 372.2267
811.8651, 376.8885
812.3472, 381.4946
812.8293, 385.2558
813.3115, 387.2902
813.7936, 390.3302
814.2757, 395.3305
814.7578, 400.8624
815.2399, 406.0018
815.7220, 411.0348
816.2042, 416.6610
816.6863, 423.0215
817.1684, 429.4337
817.6505, 435.2872
818.1326, 440.7410
818.6147, 445.7722
819.0969, 450.5774
819.5790, 456.3256
820.0611, 463.3770
820.5432, 470.7872
821.0253, 477.6112
821.5074, 484.0192
821.9896, 491.1653
822.4717, 500.0258
822.9538, 507.5009
823.4359, 512.4503
823.9180, 516.7590
824.4001, 520.8483
824.8823, 525.1614
825.3644, 530.6464
825.8465, 537.7181
826.3286, 544.7916
826.8107, 551.4097
827.2928, 557.7094
827.7750, 563.3286
828.2571, 568.8254
828.7392, 575.4977
829.2213, 583.5891
829.7034, 591.5654
830.1855, 597.9279
830.6677, 603.1248
831.1498, 608.4357
831.6319, 613.8190
832.1140, 618.8961
832.5961, 623.6019
833.0782, 627.7792
833.5604, 631.1512
834.0425, 633.9650
834.5246, 637.3948
835.0067, 641.5355
835.4888, 646.1059
835.9709, 651.7926
836.4531, 657.0867
836.9352, 660.7646
837.4173, 663.9235
837.8994, 668.4550
838.3815, 674.7347
838.8636, 680.5828
839.3458, 684.0446
839.8279, 687.4017
840.3100, 692.5902
840.7921, 699.2950
841.2742, 707.0452
841.7563, 715.5715
842.2385, 724.2881
842.7206, 732.6121
843.2027, 740.8334
843.6848, 749.6361
844.1669, 758.9760
844.6490, 768.6542
845.1312, 778.4055
845.6133, 789.1621
846.0954, 801.4836
846.5775, 815.0637
847.0596, 829.1389
847.5417, 843.2527
848.0239, 859.2472
848.5060, 878.1111
848.9881, 897.6242
849.4702, 916.7154
849.9523, 936.4236
850.4344, 957.4453
850.9166, 980.1072
851.3987, 1005.319
851.8808, 1034.538
852.3629, 1065.232
852.8450, 1095.014
853.3271, 1125.216
853.8093, 1157.818
854.2914, 1192.922
854.7735, 1230.398
855.2556, 1269.820
855.7377, 1311.900
856.2198, 1357.498
856.7020, 1406.653
857.1841, 1458.121
857.6662, 1511.300
858.1483, 1569.000
858.6304, 1632.106
859.1125, 1699.898
859.5947, 1772.050
860.0768, 1848.442
860.5589, 1928.693
861.0410, 2008.236
861.5231, 2097.868
862.0052, 2201.034
862.4874, 2313.076
862.9695, 2429.964
863.4516, 2553.733
863.9337, 2687.926
864.4158, 2834.374
864.8979, 2992.102
865.3801, 3156.417
865.8622, 3334.484
866.3443, 3532.770
866.8264, 3751.110
867.3085, 3984.088
867.7906, 4229.977
868.2728, 4491.571
868.7549, 4769.403
869.2370, 5064.400
869.7191, 5382.916
870.2012, 5724.393
870.6833, 6080.093
871.1655, 6448.661
871.6476, 6836.876
872.1297, 7247.826
872.6118, 7677.685
873.0939, 8112.837
873.5760, 8538.920
874.0581, 9011.923
874.5402, 9565.391
875.0223, 10122.04
875.5045, 10649.82
875.9866, 11177.09
876.4687, 11738.84
876.9508, 12332.95
877.4329, 12945.03
877.9150, 13595.03
878.3972, 14225.09
878.8793, 14816.11
879.3614, 15362.90
879.8435, 15889.42
880.3256, 16366.09
880.8077, 16727.59
881.2899, 16944.94
881.7720, 17007.40
882.2541, 16910.86
882.7362, 16648.09
883.2183, 16180.84
883.7004, 15518.85
884.1826, 14738.16
884.6647, 13858.88
885.1468, 12920.70
885.6289, 11959.18
886.1110, 10981.09
886.5931, 10027.09
887.0753, 9082.455
887.5574, 8202.437
888.0395, 7381.885
888.5216, 6637.603
889.0037, 5976.157
889.4858, 5392.785
889.9680, 4879.101
890.4501, 4438.582
890.9322, 4045.341
891.4143, 3700.756
891.8964, 3394.195
892.3785, 3128.908
892.8607, 2895.139
893.3428, 2688.226
893.8249, 2503.911
894.3070, 2337.959
894.7891, 2189.300
895.2712, 2054.858
895.7534, 1934.622
896.2355, 1825.965
896.7176, 1726.713
897.1997, 1636.573
897.6818, 1554.572
898.1639, 1480.644
898.6461, 1413.093
899.1282, 1350.342
899.6103, 1292.472
900.0924, 1239.126
900.5745, 1190.516
901.0566, 1144.067
901.5388, 1098.948
902.0209, 1056.449
902.5030, 1017.469
902.9851, 981.7237
903.4672, 948.5524
903.9493, 918.2802
904.4315, 889.2682
904.9136, 861.1855
905.3957, 834.7868
905.8778, 810.2589
906.3599, 787.6176
906.8420, 767.7505
907.3242, 750.3563
907.8063, 732.3836
908.2884, 712.6280
908.7705, 692.9821
909.2526, 674.1225
909.7347, 655.9359
910.2169, 637.9953
910.6990, 620.6774
911.1811, 604.8163
911.6632, 590.7184
912.1453, 577.0157
912.6274, 562.5096
913.1096, 547.6500
913.5917, 532.6896
914.0738, 518.0717
914.5559, 505.0838
915.0380, 493.8658
915.5201, 483.0809
916.0023, 471.6671
916.4844, 460.1966
916.9665, 449.6743
917.4486, 440.0824
917.9307, 431.6204
918.4128, 424.4384
918.8950, 417.0634
919.3771, 408.6307
919.8592, 400.2747
920.3413, 393.6061
920.8234, 388.5183
921.3055, 382.2740
921.7877, 373.6191
922.2698, 366.0307
922.7519, 360.2186
923.2340, 355.2249
923.7161, 350.7818
924.1982, 346.7833
924.6804, 343.2807
925.1625, 340.5008
925.6446, 336.7827
926.1267, 330.6425
926.6088, 324.7275
927.0909, 320.4360
927.5731, 317.0424
928.0552, 314.1934
928.5373, 311.4449
929.0194, 307.5711
929.5015, 301.6028
929.9836, 295.9386
930.4658, 292.8862
930.9479, 291.1839
931.4300, 289.1023
931.9121, 286.6973
932.3942, 284.8866
932.8763, 283.8123
933.3585, 281.8054
933.8406, 276.6955
934.3227, 270.5511
934.8048, 269.8160
935.2869, 273.5672
935.7690, 272.5501
936.2512, 265.3112
936.7333, 258.4490
937.2154, 255.6606
937.6975, 254.7719
938.1796, 252.0130
938.6617, 247.2221
939.1439, 244.3130
939.6260, 244.0758
940.1081, 243.5071
940.5902, 241.6354
941.0723, 239.6851
941.5544, 238.8716
942.0366, 238.7131
942.5187, 237.4593
943.0008, 234.4816
943.4829, 231.9761
943.9650, 230.4707
944.4471, 228.9182
944.9293, 226.7395
945.4114, 224.4497
945.8935, 222.7214
946.3756, 221.4808
946.8577, 220.0020
947.3398, 217.9951
947.8220, 215.8221
948.3041, 213.1476
948.7862, 210.8468
949.2683, 209.9559
949.7504, 209.9885
950.2325, 210.0604
950.7147, 209.8654
951.1968, 209.1985
951.6789, 207.5464
952.1610, 205.7364
952.6431, 204.9608
953.1252, 204.7581
953.6074, 204.2016
954.0895, 203.1754
954.5716, 201.8429
955.0537, 200.2751
955.5358, 198.6814
956.0179, 197.3294
956.5000, 196.1941
956.9821, 195.1235
957.4642, 194.1224
957.9464, 193.3268
958.4285, 192.7157
958.9106, 193.0213
959.3927, 194.9880
959.8748, 197.8273
960.3569, 199.5791
960.8391, 200.3542
961.3212, 199.2534
961.8033, 195.5712
962.2854, 192.0133
962.7675, 189.4338
963.2496, 187.4689
963.7318, 185.8061
964.2139, 184.4405
964.6960, 183.3149
965.1781, 182.6067
965.6602, 181.8541
966.1423, 181.0574
966.6245, 180.2102
967.1066, 179.2612
967.5887, 178.2806
968.0708, 177.1318
968.5529, 175.8669
969.0350, 175.5163
969.5172, 177.9789
969.9993, 179.1075
970.4814, 176.3267
970.9635, 172.8731
971.4456, 171.2564
971.9277, 170.8900
972.4099, 170.3199
972.8920, 169.1908
973.3741, 168.0709
973.8562, 167.4004
974.3383, 166.7356
974.8204, 165.7810
975.3026, 164.5854
975.7847, 163.0011
976.2668, 161.2470
976.7489, 159.9708
977.2310, 159.4708
977.7131, 159.2570
978.1953, 158.8819
978.6774, 158.4405
979.1595, 158.1724
979.6416, 157.9683
980.1237, 157.4351
980.6058, 156.5403
981.0880, 155.6441
981.5701, 154.9632
982.0522, 154.5313
982.5343, 154.7039
983.0164, 155.2383
983.4985, 154.5902
983.9807, 152.7774
984.4628, 151.0572
984.9449, 149.7742
985.4270, 149.1552
985.9091, 149.5438
986.3912, 150.4363
986.8734, 150.2701
987.3555, 148.9324
987.8376, 147.2755
988.3197, 144.9849
988.8018, 143.9026
989.2839, 145.2030
989.7661, 146.9249
990.2482, 146.8651
990.7303, 145.2961
991.2124, 144.2359
991.6945, 144.0302
992.1766, 143.4960
992.6588, 142.2178
993.1409, 141.1492
993.6230, 140.6939
994.1051, 140.6714
994.5872, 141.0788
995.0693, 141.9007
995.5515, 142.0173
996.0336, 140.8321
996.5157, 139.7990
996.9978, 139.3726
997.4799, 138.8262
997.9620, 137.2859
998.4442, 135.6193
998.9263, 135.3090
999.4084, 136.4962
999.8905, 137.3861
1000.373, 137.4232
1000.855, 137.2480
1001.337, 137.1484
1001.819, 136.8635
1002.301, 136.1470
1002.783, 135.0976
1003.265, 133.8180
1003.747, 132.3433
1004.230, 131.1480
1004.712, 130.2564
1005.194, 129.9613
1005.676, 130.9635
1006.158, 132.2999
1006.640, 132.9651
1007.122, 132.9403
1007.604, 132.4731
1008.086, 131.6526
1008.569, 130.8328
1009.051, 130.3088
1009.533, 129.9072
1010.015, 129.4569
1010.497, 128.9876
1010.979, 128.4206
1011.461, 127.8780
1011.943, 127.8841
1012.426, 128.6891
1012.908, 129.4785
1013.390, 129.4019
1013.872, 128.7094
1014.354, 127.6193
1014.836, 126.3405
1015.318, 125.4767
1015.800, 125.0956
1016.282, 124.9008
1016.765, 124.7270
1017.247, 124.5959
1017.729, 124.6012
1018.211, 124.6651
1018.693, 124.4799
1019.175, 124.0796
1019.657, 123.6887
1020.139, 123.3560
1020.622, 123.0459
1021.104, 122.7316
1021.586, 122.4447
1022.068, 122.1618
1022.550, 121.9213
1023.032, 122.3654
1023.514, 123.5175
1023.996, 123.7598
1024.478, 122.6215
1024.961, 121.3577
1025.443, 120.8629
1025.925, 120.8674
1026.407, 120.8721
1026.889, 120.9036
1027.371, 120.2277
1027.853, 118.6262
1028.335, 117.5431
1028.818, 117.3251
1029.300, 117.8995
1029.782, 119.5089
1030.264, 121.4339
1030.746, 121.5939
1031.228, 119.5440
1031.710, 118.5362
1032.192, 119.0408
1032.674, 119.1584
1033.156, 118.1922
1033.639, 117.0709
1034.121, 116.4675
1034.603, 116.3187
1035.085, 116.4806
1035.567, 117.1008
1036.049, 117.4771
1036.531, 117.5399
1037.013, 117.4752
1037.496, 117.1066
1037.978, 116.9218
1038.460, 117.4696
1038.942, 118.4711
1039.424, 119.0535
1039.906, 119.0872
1040.388, 119.0800
1040.870, 118.9791
1041.353, 118.9123
1041.835, 118.9316
1042.317, 118.9752
1042.799, 119.0727
1043.281, 119.1509
1043.763, 118.9808
1044.245, 118.4871
1044.727, 117.9651
1045.209, 117.5050
1045.692, 116.9156
1046.174, 115.7193
1046.656, 114.7596
1047.138, 114.9841
1047.620, 115.9432
1048.102, 116.3089
1048.584, 115.6984
1049.066, 115.5566
1049.548, 116.6544
1050.031, 117.4829
1050.513, 117.2888
1050.995, 116.8797
1051.477, 117.0646
1051.959, 117.5423
1052.441, 117.4124
1052.923, 116.3989
1053.405, 115.5615
1053.888, 114.8921
1054.370, 114.7308
1054.852, 115.6324
1055.334, 116.7125
1055.816, 117.4894
1056.298, 117.7961
1056.780, 117.1745
1057.262, 115.3400
1057.745, 114.1957
1058.227, 114.6239
1058.709, 115.3952
1059.191, 116.4878
1059.673, 117.2858
1060.155, 116.8778
1060.637, 115.8951
1061.119, 115.8992
1061.601, 117.2861
1062.083, 118.1072
1062.566, 117.1810
1063.048, 116.2205
1063.530, 115.9087
1064.012, 115.9437
1064.494, 116.3954
1064.976, 116.8628
1065.458, 116.3223
1065.940, 114.5797
1066.423, 113.8623
1066.905, 116.0565
1067.387, 118.1275
1067.869, 118.8233
1068.351, 118.6922
1068.833, 117.6899
1069.315, 116.4235
1069.797, 115.9703
1070.280, 116.4774
1070.762, 116.8040
1071.244, 116.2363
1071.726, 115.7074
1072.208, 115.7109
1072.690, 115.8615
1073.172, 115.7598
1073.654, 116.0883
1074.136, 115.9266
1074.619, 116.6887
1075.101, 117.2855
1075.583, 117.5821
1076.065, 117.4735
1076.547, 116.5525
1077.029, 115.5649
1077.511, 114.9561
1077.993, 114.7372
1078.475, 115.1053
1078.958, 115.8907
1079.440, 116.1126
1079.922, 115.1137
1080.404, 114.1671
1080.886, 113.4947
1081.368, 113.4928
1081.850, 115.1819
1082.332, 117.2514
1082.814, 117.9773
1083.297, 117.3448
1083.779, 116.3552
1084.261, 115.1263
1084.743, 114.2699
1085.225, 114.0770
1085.707, 114.3396
1086.189, 115.1834
1086.671, 116.2188
1087.154, 117.2563
1087.636, 118.0744
1088.118, 118.0588
1088.600, 116.8255
1089.082, 115.9304
1089.564, 116.5254
1090.046, 117.0178
1090.528, 116.3497
1091.010, 115.2814
1091.493, 114.3244
1091.975, 113.6922
1092.457, 113.8377
1092.939, 114.9413
1093.421, 115.7196
1093.903, 115.2070
1094.385, 114.9019
1094.867, 116.0694
1095.349, 117.1786
1095.832, 116.6913
1096.314, 115.2753
1096.796, 114.2047
1097.278, 113.7049
1097.760, 113.6453
1098.242, 114.5253
1098.724, 115.0861
1099.206, 114.7043
1099.689, 114.0885
1100.171, 113.6701
1100.653, 113.3606
1101.135, 112.8045
1101.617, 112.0699
1102.099, 112.0462
1102.581, 113.0919
1103.063, 114.6068
1103.546, 117.8958
1104.028, 119.9524
1104.510, 118.0343
1104.992, 114.8755
1105.474, 113.3652
1105.956, 113.4943
1106.438, 114.2105
1106.920, 115.7481
1107.402, 116.8901
1107.885, 117.4783
1108.367, 117.6058
1108.849, 116.5824
1109.331, 115.7428
1109.813, 116.8430
1110.295, 118.9725
1110.777, 119.3669
1111.259, 117.2550
1111.741, 115.9222
1112.224, 116.2729
1112.706, 116.4797
1113.188, 116.2371
1113.670, 115.6687
1114.152, 114.5506
1114.634, 113.2921
1115.116, 112.6331
1115.598, 112.6204
1116.081, 112.6795
1116.563, 113.1646
1117.045, 113.0810
1117.527, 111.6454
1118.009, 110.6409
1118.491, 111.3737
1118.973, 112.4917
1119.455, 112.2139
1119.938, 110.7167
1120.420, 109.6411
1120.902, 109.0179
1121.384, 108.8196
1121.866, 109.5194
1122.348, 109.5437
1122.830, 107.9537
1123.312, 106.2413
1123.794, 105.9294
1124.276, 106.4516
1124.759, 105.8663
1125.241, 105.8522
1125.723, 105.9560
1126.205, 104.8507
1126.687, 105.4016
1127.169, 103.7357
1127.651, 101.9854
1128.133, 101.5324
1128.616, 101.9622
1129.098, 102.6275
1129.580, 103.4959
1130.062, 104.1446
1130.544, 104.6142
1131.026, 104.0735
1131.508, 102.2528
1131.990, 101.0361
1132.473, 101.3180
1132.955, 102.6051
1133.437, 104.6506
1133.919, 106.7300
1134.401, 105.8285
1134.883, 102.2884
1135.365, 100.3165
1135.847, 100.1055
1136.329, 99.59653
1136.812, 98.16570
1137.294, 97.16322
1137.776, 97.71605
1138.258, 98.98674
1138.740, 99.63686
1139.222, 99.73901
1139.704, 99.36643
1140.186, 98.65958
1140.668, 98.20445
1141.151, 98.06306
1141.633, 97.85651
1142.115, 97.38728
1142.597, 96.87208
1143.079, 96.59212
1143.561, 96.38197
1144.043, 95.84068
1144.525, 95.73650
1145.008, 95.59380
1145.490, 95.37807
1145.972, 95.53469
1146.454, 95.43085
1146.936, 95.44427
1147.418, 96.03319
1147.900, 96.39636
1148.382, 95.33218
1148.865, 93.99424
1149.347, 93.65074
1149.829, 94.06593
1150.311, 95.12598
1150.793, 96.40150
1151.275, 96.41704
1151.757, 94.26161
1152.239, 92.55856
1152.721, 93.31392
1153.203, 94.39531
1153.686, 94.35055
1154.168, 93.98288
1154.650, 94.33128
1155.132, 95.02126
1155.614, 94.99161
1156.096, 94.03946
1156.578, 93.18676
1157.060, 92.79220
1157.543, 92.43960
1158.025, 92.04823
1158.507, 91.62605
1158.989, 91.05880
1159.471, 90.54035
1159.953, 90.30928
1160.435, 90.35533
1160.917, 90.56518
1161.400, 91.19805
1161.882, 91.41469
1162.364, 90.79958
1162.846, 90.41120
1163.328, 90.78783
1163.810, 91.09978
1164.292, 90.60651
1164.774, 89.76172
1165.256, 89.62379
1165.739, 90.28149
1166.221, 89.88719
1166.703, 87.83619
1167.185, 87.16948
1167.667, 88.70039
1168.149, 90.03377
1168.631, 90.07821
1169.113, 89.45898
1169.595, 88.82631
1170.078, 88.16859
1170.560, 87.25858
1171.042, 86.13206
1171.524, 86.31944
1172.006, 87.82313
1172.488, 88.56360
1172.970, 88.02470
1173.452, 87.29088
1173.934, 87.04781
1174.417, 87.14853
1174.899, 87.57478
1175.381, 88.07587
1175.863, 87.72782
1176.345, 88.21051
1176.827, 87.14978
1177.309, 88.18868
1177.791, 88.50282
1178.274, 87.63718
1178.756, 86.68837
1179.238, 86.33606
1179.720, 86.60588
1180.202, 88.17984
1180.684, 89.84803
1181.166, 89.86097
1181.648, 88.97743
1182.130, 88.55949
1182.613, 88.72259
1183.095, 88.88786
1183.577, 88.83212
1184.059, 88.91769
1184.541, 89.70477
1185.023, 90.20804
1185.505, 89.43156
1185.987, 88.59155
1186.469, 89.05596
1186.952, 90.01265
1187.434, 89.95600
1187.916, 88.78957
1188.398, 87.58820
1188.880, 86.16637
1189.362, 85.31878
1189.844, 85.54089
1190.326, 85.80946
1190.809, 85.92927
1191.291, 85.81718
1191.773, 85.38842
1192.255, 84.68111
1192.737, 83.67890
1193.219, 82.28690
1193.701, 81.75016
1194.183, 82.31840
1194.666, 82.87005
1195.148, 83.36613
1195.630, 83.27259
1196.112, 82.22005
1196.594, 81.02566
1197.076, 80.59414
1197.558, 80.68221
1198.040, 80.59637
1198.522, 80.36841
1199.005, 80.28419
1199.487, 80.33703
1199.969, 80.39287
1200.451, 80.41991
1200.933, 80.44678
1201.415, 80.49136
1201.897, 80.42377
1202.379, 80.04459
1202.861, 79.51817
1203.344, 78.79309
1203.826, 78.29243
1204.308, 79.14599
1204.790, 80.76726
1205.272, 81.53367
1205.754, 81.21569
1206.236, 80.93608
1206.718, 81.29958
1207.201, 81.57698
1207.683, 80.99934
1208.165, 80.55908
1208.647, 81.18863
1209.129, 82.06525
1209.611, 82.45996
1210.093, 82.37866
1210.575, 81.89320
1211.057, 81.00191
1211.540, 80.40037
1212.022, 80.27909
1212.504, 80.30843
1212.986, 80.57447
1213.468, 80.82500
1213.950, 80.98385
1214.432, 81.10421
1214.914, 81.42294
1215.396, 81.58493
1215.879, 80.34409
1216.361, 80.42419
1216.843, 80.66120
1217.325, 79.58293
1217.807, 81.24824
1218.289, 81.35718
1218.771, 80.97225
1219.253, 80.53332
1219.736, 80.17982
1220.218, 80.05405
1220.700, 80.12206
1221.182, 80.47872
1221.664, 80.92742
1222.146, 80.69298
1222.628, 79.96953
1223.110, 79.39072
1223.593, 79.12972
1224.075, 79.33390
1224.557, 80.06153
1225.039, 80.93318
1225.521, 82.00990
1226.003, 82.61682
1226.485, 81.65237
1226.967, 80.35709
1227.449, 80.17609
1227.932, 80.47288
1228.414, 80.10307
1228.896, 79.05227
1229.378, 77.93831
1229.860, 76.69613
1230.342, 76.26099
1230.824, 78.17817
1231.306, 79.05103
1231.788, 76.75500
1232.271, 74.43721
1232.753, 73.90306
1233.235, 74.37495
1233.717, 74.99689
1234.199, 75.70783
1234.681, 76.05500
1235.163, 75.89939
1235.645, 76.18102
1236.128, 77.09116
1236.610, 77.19817
1237.092, 76.07542
1237.574, 75.02684
1238.056, 74.83724
1238.538, 75.04312
1239.020, 75.11389
1239.502, 75.01524
1239.984, 74.44102
1240.467, 73.68906
1240.949, 73.82540
1241.431, 74.55542
1241.913, 74.63796
1242.395, 73.95826
1242.877, 73.59355
1243.359, 74.13266
1243.841, 74.48260
1244.323, 73.52110
1244.806, 72.44689
1245.288, 72.11797
1245.770, 72.12183
1246.252, 72.03115
1246.734, 72.00289
1247.216, 72.48344
1247.698, 73.39448
1248.180, 73.91605
1248.662, 73.83472
1249.145, 73.60755
1249.627, 73.08823
1250.109, 72.71434
1250.591, 72.56267
1251.073, 72.63338
1251.555, 73.11629
1252.037, 73.44765
1252.519, 72.73356
1253.002, 71.30431
1253.484, 70.79546
1253.966, 71.17702
1254.448, 71.21973
1254.930, 70.89754
1255.412, 70.64024
1255.894, 70.53596
1256.376, 70.31960
1256.859, 69.85149
1257.341, 69.68913
1257.823, 70.72591
1258.305, 71.92896
1258.787, 71.81418
1259.269, 71.10589
1259.751, 70.63709
1260.233, 70.39487
1260.715, 70.30258
1261.198, 70.25941
1261.680, 69.97578
1262.162, 69.32022
1262.644, 68.77210
1263.126, 68.39140
1263.608, 68.26513
1264.090, 68.52052
1264.572, 68.92873
1265.054, 69.86015
1265.537, 70.35326
1266.019, 68.93467
1266.501, 66.48695
1266.983, 66.19038
1267.465, 68.34341
1267.947, 69.27587
1268.429, 68.86368
1268.911, 68.74287
1269.394, 69.16785
1269.876, 69.43188
1270.358, 69.24229
1270.840, 68.76464
1271.322, 68.06058
1271.804, 67.49693
1272.286, 67.67126
1272.768, 68.33695
1273.250, 69.50806
1273.733, 70.60235
1274.215, 70.35494
1274.697, 69.16336
1275.179, 68.47649
1275.661, 68.60990
1276.143, 68.64030
1276.625, 68.14830
1277.107, 67.60721
1277.589, 67.04140
1278.072, 66.62441
1278.554, 66.21151
1279.036, 66.22559
1279.518, 67.35478
1280.000, 68.81181
1280.482, 69.19884
1280.964, 69.54130
1281.446, 69.61050
1281.929, 69.00792
1282.411, 68.77641
1282.893, 67.72037
1283.375, 66.93108
1283.857, 66.67667
1284.339, 66.63132
1284.821, 66.60824
1285.303, 66.80505
1285.786, 67.41827
1286.268, 68.43954
##END=



