##NAMES=Taramellite
##RRUFFID=R110043
##IDEAL CHEMISTRY=Ba_4_(Fe^3+^,Ti^4+^)_4_O_2_[B_2_Si_8_O_27_]Cl_0-1_
##LOCALITY=Big Creek, Fresno County, California, USA
##OWNER=RRUFF
##SOURCE=William W Pinch
##DESCRIPTION=Reddish brown blocky crystals frozen in quartz
##STATUS=The identification of this mineral has been confirmed by single-crystal X-ray diffraction.
##URL=rruff.info/R110043
177.2732, 136.5496
177.7553, 136.7574
178.2374, 134.6861
178.7195, 133.5398
179.2017, 135.3819
179.6838, 138.6462
180.1659, 141.3058
180.6480, 143.4323
181.1301, 144.3904
181.6122, 142.9017
182.0944, 139.5928
182.5765, 136.5476
183.0586, 134.0833
183.5407, 132.5615
184.0228, 133.1304
184.5049, 136.0502
184.9871, 139.4621
185.4692, 141.0489
185.9513, 141.0966
186.4334, 141.0265
186.9155, 141.9004
187.3976, 143.2320
187.8798, 143.1891
188.3619, 141.4965
188.8440, 139.2799
189.3261, 138.2091
189.8082, 138.1874
190.2903, 138.1198
190.7725, 136.7669
191.2546, 134.5948
191.7367, 134.8551
192.2188, 138.2235
192.7009, 142.6243
193.1830, 144.4514
193.6652, 143.7021
194.1473, 142.5877
194.6294, 142.0548
195.1115, 142.1029
195.5936, 143.0824
196.0757, 145.4236
196.5579, 147.9931
197.0400, 147.9849
197.5221, 145.0865
198.0042, 142.9443
198.4863, 144.6742
198.9684, 150.3475
199.4506, 152.7067
199.9327, 150.4308
200.4148, 145.6739
200.8969, 143.1246
201.3790, 143.0464
201.8611, 143.5903
202.3433, 143.7042
202.8254, 143.3329
203.3075, 143.1922
203.7896, 143.3227
204.2717, 143.7185
204.7538, 144.4697
205.2360, 145.6902
205.7181, 146.8365
206.2002, 147.5228
206.6823, 147.6590
207.1644, 147.9926
207.6465, 148.8348
208.1287, 149.7726
208.6108, 149.5164
209.0929, 147.8448
209.5750, 145.5937
210.0571, 142.8112
210.5392, 138.9098
211.0214, 137.3150
211.5035, 139.0790
211.9856, 143.0938
212.4677, 145.5422
212.9498, 146.0499
213.4319, 145.8596
213.9141, 145.5926
214.3962, 145.1137
214.8783, 145.1959
215.3604, 146.4983
215.8425, 148.3344
216.3246, 147.2999
216.8067, 141.4667
217.2889, 136.4471
217.7710, 136.3200
218.2531, 143.5200
218.7352, 148.2980
219.2173, 149.2273
219.6994, 147.1246
220.1816, 145.8209
220.6637, 145.5863
221.1458, 145.6314
221.6279, 145.4556
222.1100, 144.9189
222.5921, 144.4966
223.0743, 144.0927
223.5564, 143.8211
224.0385, 144.3459
224.5206, 146.1955
225.0027, 147.9938
225.4848, 148.9761
225.9670, 149.2082
226.4491, 148.3541
226.9312, 145.7321
227.4133, 141.9446
227.8954, 139.8070
228.3775, 139.7511
228.8597, 140.7608
229.3418, 142.6084
229.8239, 146.6538
230.3060, 148.2128
230.7881, 145.7221
231.2702, 140.3206
231.7524, 137.6557
232.2345, 139.0055
232.7166, 141.2941
233.1987, 142.8406
233.6808, 143.6474
234.1629, 143.6396
234.6451, 142.3732
235.1272, 140.2515
235.6093, 139.0382
236.0914, 139.0072
236.5735, 139.5038
237.0556, 140.1479
237.5378, 140.7559
238.0199, 142.0131
238.5020, 144.6140
238.9841, 147.9256
239.4662, 149.0523
239.9483, 146.3771
240.4305, 143.7391
240.9126, 143.2366
241.3947, 145.8948
241.8768, 148.4610
242.3589, 150.8905
242.8410, 153.1208
243.3232, 154.9119
243.8053, 155.9243
244.2874, 156.9527
244.7695, 158.5413
245.2516, 161.5586
245.7337, 163.1073
246.2159, 162.2992
246.6980, 160.0618
247.1801, 159.4836
247.6622, 161.4633
248.1443, 163.7269
248.6264, 165.1948
249.1086, 165.6121
249.5907, 165.8201
250.0728, 165.5604
250.5549, 165.1763
251.0370, 165.6983
251.5191, 167.7955
252.0013, 169.7464
252.4834, 170.8085
252.9655, 170.7491
253.4476, 170.3405
253.9297, 169.2965
254.4118, 168.0350
254.8940, 167.4537
255.3761, 167.6195
255.8582, 168.3508
256.3403, 169.7044
256.8224, 171.9958
257.3046, 173.8020
257.7867, 174.8723
258.2688, 175.5953
258.7509, 176.8635
259.2330, 179.2242
259.7151, 180.9663
260.1973, 181.0754
260.6794, 178.8285
261.1615, 178.3544
261.6436, 180.5259
262.1257, 183.7179
262.6078, 184.9356
263.0900, 183.1352
263.5721, 181.8535
264.0542, 182.5301
264.5363, 185.5771
265.0184, 187.9268
265.5005, 189.5097
265.9827, 190.5430
266.4648, 191.3141
266.9469, 191.7569
267.4290, 192.0895
267.9111, 192.1531
268.3932, 191.8626
268.8754, 192.9193
269.3575, 195.8461
269.8396, 199.3017
270.3217, 201.5168
270.8038, 202.2390
271.2859, 202.6266
271.7681, 202.7272
272.2502, 202.5750
272.7323, 203.6033
273.2144, 206.1777
273.6965, 209.1523
274.1786, 211.3419
274.6608, 212.7016
275.1429, 213.6180
275.6250, 214.1517
276.1071, 214.3165
276.5892, 213.9731
277.0714, 212.8161
277.5535, 212.0426
278.0356, 213.6184
278.5177, 218.0068
278.9998, 219.6910
279.4819, 216.5698
279.9641, 210.0776
280.4462, 206.8396
280.9283, 207.3962
281.4104, 208.8504
281.8925, 209.0776
282.3746, 208.0748
282.8568, 206.1729
283.3389, 202.9714
283.8210, 199.2717
284.3031, 197.6160
284.7852, 198.2205
285.2673, 199.0301
285.7495, 198.7701
286.2316, 197.4695
286.7137, 195.2539
287.1958, 191.8036
287.6779, 187.9487
288.1600, 185.5976
288.6422, 184.7719
289.1243, 183.9756
289.6064, 182.0056
290.0885, 179.1561
290.5706, 177.0109
291.0527, 175.6888
291.5349, 175.1607
292.0170, 176.1127
292.4991, 178.3286
292.9812, 179.4998
293.4633, 177.4772
293.9454, 173.3332
294.4276, 170.4928
294.9097, 169.2557
295.3918, 168.9213
295.8739, 169.2512
296.3560, 169.9750
296.8381, 169.8175
297.3203, 167.0303
297.8024, 163.1588
298.2845, 161.4315
298.7666, 162.0005
299.2487, 163.7841
299.7308, 166.7400
300.2130, 170.2027
300.6951, 172.1908
301.1772, 170.5038
301.6593, 167.5889
302.1414, 167.1622
302.6235, 169.1808
303.1057, 171.6995
303.5878, 173.6757
304.0699, 174.9510
304.5520, 175.1263
305.0341, 173.3896
305.5162, 171.1416
305.9984, 169.5708
306.4805, 168.6998
306.9626, 168.5838
307.4447, 169.9114
307.9268, 171.8258
308.4089, 173.0420
308.8911, 172.4366
309.3732, 172.2780
309.8553, 175.7296
310.3374, 181.5078
310.8195, 185.3240
311.3016, 182.7876
311.7838, 178.1658
312.2659, 175.1201
312.7480, 174.4178
313.2301, 175.2666
313.7122, 178.9975
314.1943, 183.9584
314.6765, 186.5821
315.1586, 182.2860
315.6407, 177.2512
316.1228, 175.7320
316.6049, 179.1138
317.0870, 182.4128
317.5692, 183.5407
318.0513, 183.2140
318.5334, 182.4174
319.0155, 179.9433
319.4976, 178.3749
319.9797, 179.5329
320.4619, 183.8282
320.9440, 187.0297
321.4261, 187.3593
321.9082, 186.2131
322.3903, 184.9043
322.8724, 182.9091
323.3546, 181.5845
323.8367, 181.8373
324.3188, 183.5774
324.8009, 184.2848
325.2830, 182.2066
325.7651, 179.8002
326.2473, 178.6612
326.7294, 179.1440
327.2115, 180.6619
327.6936, 184.1006
328.1757, 188.8668
328.6578, 192.1494
329.1400, 193.4086
329.6221, 193.6238
330.1042, 193.1271
330.5863, 190.9949
331.0684, 189.6702
331.5505, 189.2411
332.0327, 189.6034
332.5148, 190.6173
332.9969, 192.9586
333.4790, 195.0350
333.9611, 196.2690
334.4432, 196.4129
334.9254, 196.6824
335.4075, 197.1658
335.8896, 197.6862
336.3717, 197.9161
336.8538, 197.5659
337.3359, 197.6496
337.8180, 198.7095
338.3001, 200.7132
338.7823, 201.4528
339.2644, 200.3059
339.7465, 199.1152
340.2286, 200.1350
340.7107, 203.9422
341.1928, 206.3680
341.6750, 206.0587
342.1571, 203.9367
342.6392, 203.7311
343.1213, 205.7021
343.6034, 208.1956
344.0855, 210.4471
344.5677, 212.4042
345.0498, 212.9542
345.5319, 211.6017
346.0140, 209.3695
346.4961, 207.8797
346.9782, 207.1426
347.4604, 207.4613
347.9425, 210.1614
348.4246, 214.2444
348.9067, 215.5091
349.3888, 213.3208
349.8709, 210.3837
350.3531, 209.7752
350.8352, 211.1547
351.3173, 213.2491
351.7994, 216.2884
352.2815, 219.4543
352.7636, 221.1557
353.2458, 221.3919
353.7279, 221.4553
354.2100, 222.9595
354.6921, 224.9573
355.1742, 225.6875
355.6563, 223.4229
356.1385, 220.9443
356.6206, 221.5450
357.1027, 224.5833
357.5848, 226.8521
358.0669, 225.4316
358.5490, 222.8528
359.0312, 221.5855
359.5133, 222.5034
359.9954, 223.8798
360.4775, 225.2274
360.9596, 226.3142
361.4417, 226.6315
361.9239, 224.8146
362.4060, 223.0765
362.8881, 222.9429
363.3702, 224.9788
363.8523, 226.4124
364.3344, 226.6208
364.8166, 225.6593
365.2987, 223.5722
365.7808, 217.7268
366.2629, 213.4558
366.7450, 213.1470
367.2271, 216.7881
367.7093, 218.9777
368.1914, 218.7148
368.6735, 217.0453
369.1556, 214.6051
369.6377, 209.8774
370.1198, 206.3997
370.6020, 204.8714
371.0841, 204.7659
371.5662, 204.2016
372.0483, 203.1355
372.5304, 201.6724
373.0125, 199.8787
373.4947, 197.8787
373.9768, 195.0605
374.4589, 190.6025
374.9410, 185.9519
375.4231, 183.7641
375.9052, 185.0154
376.3874, 185.9389
376.8695, 185.2583
377.3516, 183.0151
377.8337, 181.3154
378.3158, 180.1684
378.7979, 179.4737
379.2801, 179.4259
379.7622, 180.0856
380.2443, 180.0207
380.7264, 178.7542
381.2085, 176.7501
381.6906, 175.0441
382.1728, 173.6315
382.6549, 172.8058
383.1370, 173.6150
383.6191, 175.3603
384.1012, 174.8616
384.5833, 171.3027
385.0655, 167.1128
385.5476, 165.7630
386.0297, 166.6102
386.5118, 167.4032
386.9939, 166.9086
387.4760, 165.7755
387.9582, 164.9783
388.4403, 164.5361
388.9224, 164.0167
389.4045, 162.6577
389.8866, 161.1145
390.3687, 160.3253
390.8509, 160.9099
391.3330, 162.0241
391.8151, 163.6885
392.2972, 165.5776
392.7793, 166.4047
393.2614, 164.9382
393.7436, 162.5536
394.2257, 160.0804
394.7078, 157.4645
395.1899, 155.3035
395.6720, 153.6564
396.1541, 152.6210
396.6363, 152.3548
397.1184, 154.0104
397.6005, 155.4022
398.0826, 155.6832
398.5647, 154.6795
399.0468, 153.7052
399.5290, 153.4582
400.0111, 152.9649
400.4932, 151.4024
400.9753, 146.8963
401.4574, 143.8581
401.9395, 143.2145
402.4217, 144.4553
402.9038, 145.2190
403.3859, 145.3362
403.8680, 145.2280
404.3501, 145.2418
404.8322, 145.7654
405.3144, 144.7758
405.7965, 141.4094
406.2786, 137.5693
406.7607, 136.7714
407.2428, 139.6733
407.7249, 142.0045
408.2071, 142.0982
408.6892, 140.3550
409.1713, 139.3475
409.6534, 139.1744
410.1355, 139.1431
410.6176, 138.1311
411.0998, 136.4811
411.5819, 136.5722
412.0640, 139.6252
412.5461, 143.3357
413.0282, 143.4640
413.5103, 140.5599
413.9925, 137.8964
414.4746, 137.5836
414.9567, 138.6404
415.4388, 139.5413
415.9209, 140.1370
416.4030, 140.9101
416.8852, 143.0772
417.3673, 145.5680
417.8494, 146.6566
418.3315, 143.6266
418.8136, 140.6897
419.2957, 140.9599
419.7779, 144.0029
420.2600, 146.8934
420.7421, 148.0937
421.2242, 148.7579
421.7063, 149.7702
422.1884, 151.8988
422.6706, 153.2734
423.1527, 152.8434
423.6348, 151.4311
424.1169, 150.5855
424.5990, 150.2712
425.0811, 150.7919
425.5633, 152.7351
426.0454, 156.5023
426.5275, 158.7284
427.0096, 158.0718
427.4917, 156.9507
427.9738, 157.4972
428.4560, 160.9805
428.9381, 163.3305
429.4202, 163.2869
429.9023, 161.9428
430.3844, 163.5934
430.8665, 169.4650
431.3487, 174.8145
431.8308, 176.7366
432.3129, 174.9970
432.7950, 174.9282
433.2771, 177.1110
433.7592, 179.5426
434.2414, 179.0169
434.7235, 175.8482
435.2056, 173.9201
435.6877, 175.1051
436.1698, 177.8477
436.6519, 178.5945
437.1341, 177.4587
437.6162, 176.4964
438.0983, 178.0621
438.5804, 180.6321
439.0625, 181.2485
439.5446, 178.8933
440.0268, 176.3549
440.5089, 176.1318
440.9910, 177.5614
441.4731, 179.2798
441.9552, 181.7564
442.4373, 183.4791
442.9195, 182.9087
443.4016, 180.0889
443.8837, 177.8888
444.3658, 177.5412
444.8479, 178.2587
445.3300, 179.4684
445.8122, 182.1234
446.2943, 183.8687
446.7764, 183.7406
447.2585, 182.4063
447.7406, 181.5746
448.2227, 181.6044
448.7049, 181.9113
449.1870, 182.3465
449.6691, 182.8964
450.1512, 183.7177
450.6333, 185.2768
451.1154, 186.5973
451.5976, 186.5162
452.0797, 184.3971
452.5618, 183.0495
453.0439, 183.0631
453.5260, 184.0480
454.0081, 184.9041
454.4903, 185.6541
454.9724, 186.1454
455.4545, 185.8142
455.9366, 184.9367
456.4187, 185.8187
456.9008, 188.7726
457.3830, 192.1123
457.8651, 193.5342
458.3472, 193.6241
458.8293, 194.2039
459.3114, 195.9693
459.7935, 198.4118
460.2757, 201.0026
460.7578, 203.7444
461.2399, 206.7097
461.7220, 210.5849
462.2041, 214.3583
462.6862, 216.9960
463.1684, 218.2491
463.6505, 218.8233
464.1326, 218.4644
464.6147, 217.8123
465.0968, 217.6930
465.5789, 217.8106
466.0611, 219.0517
466.5432, 222.7419
467.0253, 228.4934
467.5074, 232.1998
467.9895, 231.0229
468.4716, 229.6113
468.9538, 230.3657
469.4359, 235.2545
469.9180, 237.8705
470.4001, 237.1301
470.8822, 234.8812
471.3643, 233.8172
471.8465, 234.0961
472.3286, 235.2457
472.8107, 237.9338
473.2928, 241.4502
473.7749, 241.0983
474.2570, 236.1878
474.7392, 231.0164
475.2213, 228.9676
475.7034, 229.6245
476.1855, 230.4588
476.6676, 231.5035
477.1497, 231.6723
477.6319, 228.5128
478.1140, 223.0551
478.5961, 218.6985
479.0782, 217.9790
479.5603, 218.4796
480.0424, 217.1231
480.5246, 214.1637
481.0067, 211.7182
481.4888, 211.4793
481.9709, 212.1364
482.4530, 212.5603
482.9352, 212.4738
483.4173, 212.2850
483.8994, 212.2415
484.3815, 212.1737
484.8636, 211.8257
485.3457, 211.1096
485.8279, 210.1415
486.3100, 208.7076
486.7921, 206.8153
487.2742, 205.5809
487.7563, 205.1490
488.2384, 205.2217
488.7206, 205.7671
489.2027, 207.2484
489.6848, 207.9272
490.1669, 207.5945
490.6490, 206.6618
491.1311, 205.5799
491.6133, 204.2538
492.0954, 203.5081
492.5775, 203.6871
493.0596, 204.6190
493.5417, 205.8623
494.0238, 207.4195
494.5060, 208.7103
494.9881, 209.3493
495.4702, 209.3769
495.9523, 208.5906
496.4344, 206.6842
496.9165, 205.2692
497.3987, 206.3294
497.8808, 208.9982
498.3629, 211.6248
498.8450, 213.9780
499.3271, 215.6891
499.8092, 216.1546
500.2914, 215.6007
500.7735, 215.2181
501.2556, 215.8413
501.7377, 216.5072
502.2198, 216.6950
502.7019, 216.3688
503.1841, 215.5132
503.6662, 213.1123
504.1483, 210.6100
504.6304, 209.7988
505.1125, 212.2821
505.5946, 213.8513
506.0768, 213.6199
506.5589, 211.9494
507.0410, 210.5799
507.5231, 209.4564
508.0052, 208.7819
508.4873, 209.0826
508.9695, 210.3705
509.4516, 209.9810
509.9337, 207.6002
510.4158, 204.7804
510.8979, 203.5557
511.3800, 203.5188
511.8622, 202.7866
512.3443, 200.4146
512.8264, 197.7709
513.3085, 196.6774
513.7906, 196.8720
514.2728, 197.4144
514.7549, 198.4193
515.2370, 199.1270
515.7191, 198.8527
516.2012, 197.5214
516.6833, 195.6527
517.1655, 192.8398
517.6476, 189.9335
518.1297, 187.6653
518.6118, 186.6834
519.0939, 185.7299
519.5760, 184.5699
520.0582, 183.3182
520.5403, 182.2078
521.0224, 181.2412
521.5045, 180.4269
521.9866, 179.7628
522.4688, 179.2460
522.9509, 178.8687
523.4330, 178.5468
523.9151, 178.5440
524.3972, 179.6477
524.8793, 181.9103
525.3615, 181.6198
525.8436, 177.7616
526.3257, 173.1587
526.8078, 172.3869
527.2899, 174.7613
527.7720, 177.1054
528.2542, 178.2947
528.7363, 178.6578
529.2184, 178.4207
529.7005, 177.6686
530.1826, 176.8537
530.6647, 175.9492
531.1469, 175.2922
531.6290, 175.2862
532.1111, 176.1426
532.5932, 176.8883
533.0753, 176.9862
533.5574, 176.8517
534.0396, 176.9141
534.5217, 177.3492
535.0038, 177.8735
535.4859, 178.5747
535.9680, 179.3482
536.4501, 179.9206
536.9323, 180.5568
537.4144, 180.5237
537.8965, 179.2847
538.3786, 176.7979
538.8607, 175.2094
539.3428, 174.7053
539.8250, 174.5584
540.3071, 174.0702
540.7892, 173.3020
541.2713, 172.7781
541.7534, 172.5635
542.2355, 172.6641
542.7177, 173.5418
543.1998, 174.8308
543.6819, 175.3382
544.1640, 173.7034
544.6461, 171.6091
545.1282, 170.5718
545.6104, 170.4987
546.0925, 170.7415
546.5746, 171.6306
547.0567, 172.2538
547.5388, 171.5009
548.0209, 168.1652
548.5031, 167.1080
548.9852, 172.3458
549.4673, 178.9129
549.9494, 181.4400
550.4315, 176.0714
550.9136, 172.6382
551.3958, 172.9875
551.8779, 175.7073
552.3600, 176.2984
552.8421, 173.9635
553.3242, 172.3376
553.8063, 173.5181
554.2885, 176.9691
554.7706, 178.3311
555.2527, 177.5005
555.7348, 175.6953
556.2169, 173.2807
556.6990, 170.7448
557.1812, 169.5575
557.6633, 170.2882
558.1454, 171.0773
558.6275, 169.7947
559.1096, 167.3682
559.5917, 165.4029
560.0739, 165.1259
560.5560, 164.9442
561.0381, 163.8339
561.5202, 162.0733
562.0023, 160.8664
562.4844, 161.1869
562.9666, 161.5476
563.4487, 161.2153
563.9308, 159.9902
564.4129, 159.0564
564.8950, 158.6737
565.3771, 158.2952
565.8593, 157.5300
566.3414, 156.4224
566.8235, 154.6050
567.3056, 151.7819
567.7877, 148.6004
568.2698, 146.2637
568.7520, 144.7135
569.2341, 143.2403
569.7162, 141.0158
570.1983, 139.0593
570.6804, 140.1984
571.1625, 143.8833
571.6447, 146.3172
572.1268, 144.0391
572.6089, 139.8848
573.0910, 136.3822
573.5731, 133.7635
574.0552, 132.0320
574.5374, 131.5855
575.0195, 131.8028
575.5016, 132.0975
575.9837, 132.6184
576.4658, 132.8884
576.9479, 133.0163
577.4301, 132.8321
577.9122, 131.8523
578.3943, 129.2720
578.8764, 127.5201
579.3585, 127.5629
579.8406, 129.0601
580.3228, 129.3976
580.8049, 128.3512
581.2870, 127.5884
581.7691, 128.9668
582.2512, 131.6829
582.7333, 132.2142
583.2155, 130.2029
583.6976, 127.5913
584.1797, 125.8791
584.6617, 124.8557
585.1439, 124.1364
585.6260, 123.5127
586.1081, 123.3610
586.5902, 124.5545
587.0723, 126.3202
587.5544, 127.1510
588.0366, 125.0343
588.5187, 123.5365
589.0008, 124.0556
589.4829, 126.5231
589.9650, 128.7627
590.4471, 130.6728
590.9293, 132.4920
591.4114, 134.4498
591.8935, 136.7083
592.3756, 137.7158
592.8577, 136.9709
593.3398, 136.3334
593.8220, 138.3523
594.3041, 142.5835
594.7862, 145.3491
595.2683, 145.6165
595.7504, 145.1981
596.2325, 146.3145
596.7147, 148.6470
597.1968, 151.3306
597.6789, 154.7004
598.1610, 157.7113
598.6431, 159.4589
599.1252, 160.1287
599.6074, 160.6383
600.0895, 160.9373
600.5716, 161.4833
601.0537, 162.6728
601.5358, 164.7852
602.0179, 166.1903
602.5001, 166.1523
602.9822, 166.1214
603.4643, 167.4406
603.9464, 170.8511
604.4285, 172.4465
604.9106, 171.3217
605.3928, 169.5696
605.8749, 170.8333
606.3570, 174.8601
606.8391, 178.2628
607.3212, 179.9938
607.8033, 180.5850
608.2855, 179.8364
608.7676, 178.3940
609.2497, 178.6193
609.7318, 183.7913
610.2139, 189.7018
610.6960, 192.7994
611.1782, 193.0009
611.6603, 193.2128
612.1424, 194.0749
612.6245, 195.5514
613.1066, 197.8699
613.5887, 202.3681
614.0709, 204.5501
614.5530, 203.1745
615.0351, 200.6225
615.5172, 199.4416
615.9993, 199.9954
616.4814, 200.1049
616.9636, 199.1342
617.4457, 198.0591
617.9278, 199.4704
618.4099, 203.0308
618.8920, 205.2729
619.3741, 204.0973
619.8563, 201.2886
620.3384, 199.3075
620.8205, 198.0242
621.3026, 196.7962
621.7847, 195.0776
622.2668, 193.3901
622.7490, 192.3639
623.2311, 192.1490
623.7132, 191.3404
624.1953, 189.8914
624.6774, 187.4934
625.1595, 183.7328
625.6417, 176.4392
626.1238, 172.2198
626.6059, 172.2538
627.0880, 174.1163
627.5701, 175.0527
628.0522, 175.1572
628.5344, 173.0634
629.0165, 167.5178
629.4986, 161.0640
629.9807, 159.6701
630.4628, 162.3281
630.9449, 163.6469
631.4271, 159.2030
631.9092, 153.1986
632.3913, 150.2762
632.8734, 150.0685
633.3555, 150.1506
633.8376, 149.0731
634.3198, 148.0813
634.8019, 148.2172
635.2840, 150.0063
635.7661, 150.6087
636.2482, 148.3936
636.7303, 146.0263
637.2125, 145.3139
637.6946, 146.6535
638.1767, 148.7648
638.6588, 152.1374
639.1409, 155.3386
639.6230, 155.6261
640.1052, 153.2555
640.5873, 152.1458
641.0694, 153.5511
641.5515, 156.2439
642.0336, 158.8856
642.5157, 161.3265
642.9979, 163.1689
643.4800, 163.5650
643.9621, 163.8083
644.4442, 165.2540
644.9263, 167.5656
645.4084, 168.6843
645.8906, 166.5040
646.3727, 164.2301
646.8548, 163.4406
647.3369, 164.3327
647.8190, 165.3057
648.3011, 166.7596
648.7833, 167.6818
649.2654, 167.2782
649.7475, 165.4776
650.2296, 162.7224
650.7117, 158.6889
651.1938, 155.0283
651.6760, 154.2001
652.1581, 155.5004
652.6402, 156.9431
653.1223, 158.4019
653.6044, 159.0064
654.0865, 156.9178
654.5687, 153.5456
655.0508, 151.5901
655.5329, 152.7078
656.0150, 154.7302
656.4971, 157.7575
656.9792, 161.2957
657.4614, 162.8355
657.9435, 160.3734
658.4256, 158.6473
658.9077, 159.6006
659.3898, 163.0696
659.8719, 164.9049
660.3541, 164.8894
660.8362, 164.2583
661.3183, 163.5386
661.8004, 162.8833
662.2825, 163.0411
662.7646, 164.0993
663.2468, 165.1483
663.7289, 164.7782
664.2110, 164.1545
664.6931, 164.9964
665.1752, 168.3459
665.6573, 171.4164
666.1395, 172.8538
666.6216, 173.4084
667.1037, 174.0025
667.5858, 175.5406
668.0679, 176.0134
668.5500, 174.3356
669.0322, 171.9178
669.5143, 172.0887
669.9964, 175.3446
670.4785, 178.8057
670.9606, 181.8491
671.4427, 184.3338
671.9249, 185.8653
672.4070, 186.4587
672.8891, 186.1499
673.3712, 183.8278
673.8533, 181.2822
674.3354, 180.7598
674.8176, 182.1711
675.2997, 184.0120
675.7818, 186.3383
676.2639, 188.2250
676.7460, 188.9821
677.2281, 188.2112
677.7103, 187.5246
678.1924, 187.3146
678.6745, 186.8807
679.1566, 185.3555
679.6387, 182.1134
680.1208, 181.1048
680.6030, 183.1153
681.0851, 185.8121
681.5672, 185.7821
682.0493, 183.7718
682.5314, 183.2421
683.0135, 185.6709
683.4957, 188.3105
683.9778, 187.9832
684.4599, 185.8058
684.9420, 183.9023
685.4241, 182.4331
685.9063, 182.0254
686.3884, 183.7307
686.8705, 186.7994
687.3526, 188.5889
687.8347, 187.6646
688.3168, 187.4150
688.7990, 189.0392
689.2811, 192.1699
689.7632, 194.2406
690.2453, 195.1746
690.7274, 195.5666
691.2095, 195.4636
691.6917, 195.0949
692.1738, 195.0815
692.6559, 195.4331
693.1380, 196.1908
693.6201, 197.5663
694.1022, 199.2449
694.5844, 201.2568
695.0665, 203.8076
695.5486, 205.1145
696.0307, 203.0115
696.5128, 200.4175
696.9949, 199.6267
697.4771, 201.2248
697.9592, 203.6492
698.4413, 207.7161
698.9234, 211.5369
699.4055, 212.1608
699.8876, 209.5065
700.3698, 208.6764
700.8519, 211.1039
701.3340, 214.1701
701.8161, 213.4803
702.2982, 210.4981
702.7803, 208.9114
703.2625, 210.7019
703.7446, 213.5919
704.2267, 216.8901
704.7088, 220.1147
705.1909, 222.1726
705.6730, 220.7955
706.1552, 220.4380
706.6373, 222.7422
707.1194, 226.9870
707.6015, 229.7322
708.0836, 230.4532
708.5657, 231.1770
709.0479, 232.6631
709.5300, 234.8269
710.0121, 237.5757
710.4942, 240.8820
710.9763, 243.8557
711.4584, 245.7679
711.9406, 247.1104
712.4227, 248.3573
712.9048, 249.5606
713.3869, 251.0307
713.8690, 253.6299
714.3511, 256.0272
714.8333, 257.1136
715.3154, 255.9254
715.7975, 256.3140
716.2796, 259.1231
716.7617, 262.5096
717.2438, 265.1495
717.7260, 266.9923
718.2081, 268.3920
718.6902, 269.2904
719.1723, 270.0348
719.6544, 271.4281
720.1365, 272.9542
720.6187, 272.9178
721.1008, 270.1568
721.5829, 268.1893
722.0650, 270.6109
722.5471, 275.0965
723.0292, 278.5846
723.5114, 279.9483
723.9935, 280.4578
724.4756, 279.7864
724.9577, 278.5686
725.4398, 277.7952
725.9219, 277.4532
726.4041, 277.6328
726.8862, 278.4196
727.3683, 279.6686
727.8504, 281.1840
728.3325, 282.8949
728.8146, 284.3004
729.2968, 284.6705
729.7789, 285.0366
730.2610, 286.7012
730.7431, 289.3777
731.2252, 292.1164
731.7073, 295.0438
732.1895, 297.4301
732.6716, 298.3471
733.1537, 298.0103
733.6358, 299.4909
734.1179, 304.1425
734.6000, 308.3453
735.0822, 310.4380
735.5643, 310.6530
736.0464, 310.9937
736.5285, 311.4492
737.0106, 312.2805
737.4927, 314.3277
737.9749, 316.6320
738.4570, 317.1388
738.9391, 315.8144
739.4212, 314.9671
739.9033, 316.2252
740.3854, 318.2784
740.8676, 320.2627
741.3497, 322.0883
741.8318, 323.8173
742.3139, 325.7832
742.7960, 327.3166
743.2781, 327.7444
743.7603, 326.7863
744.2424, 326.7391
744.7245, 327.7301
745.2066, 329.3675
745.6887, 331.7912
746.1708, 334.5286
746.6530, 336.0725
747.1351, 335.9122
747.6172, 335.9125
748.0993, 337.4185
748.5814, 339.8621
749.0635, 342.6327
749.5457, 346.2412
750.0278, 349.1515
750.5099, 350.2532
750.9920, 351.1127
751.4741, 353.9312
751.9562, 359.5957
752.4384, 363.1547
752.9205, 363.5116
753.4026, 362.3535
753.8847, 361.6575
754.3668, 361.6236
754.8489, 363.1645
755.3311, 367.1219
755.8132, 371.6624
756.2953, 375.8331
756.7774, 379.3182
757.2595, 381.4755
757.7416, 379.7552
758.2238, 379.4979
758.7059, 383.3644
759.1880, 389.1706
759.6701, 392.1922
760.1522, 391.4888
760.6343, 391.1538
761.1165, 392.3091
761.5986, 394.3936
762.0807, 396.2356
762.5628, 397.8225
763.0449, 399.0689
763.5270, 400.0108
764.0092, 400.5255
764.4913, 400.2539
764.9734, 399.4274
765.4555, 398.7667
765.9376, 398.6186
766.4197, 398.5936
766.9019, 399.0860
767.3840, 399.7114
767.8661, 398.4353
768.3482, 394.7044
768.8303, 390.6721
769.3124, 387.0476
769.7946, 383.8542
770.2767, 381.0318
770.7588, 378.5914
771.2409, 376.6351
771.7230, 376.6978
772.2051, 376.2443
772.6873, 371.8617
773.1694, 364.0915
773.6515, 357.4790
774.1336, 354.6851
774.6157, 352.3179
775.0978, 349.0246
775.5800, 344.8232
776.0621, 340.2271
776.5442, 335.0602
777.0263, 329.9843
777.5084, 325.4875
777.9905, 321.4174
778.4727, 317.1122
778.9548, 312.5865
779.4369, 308.1432
779.9190, 304.4081
780.4011, 300.5921
780.8832, 295.3593
781.3654, 288.7158
781.8475, 283.2746
782.3296, 281.1097
782.8117, 279.2595
783.2938, 276.1608
783.7759, 271.6784
784.2581, 267.4680
784.7402, 263.5126
785.2223, 259.9861
785.7044, 257.2795
786.1865, 255.1225
786.6686, 252.1854
787.1508, 248.4325
787.6329, 244.7872
788.1150, 242.7166
788.5971, 240.5233
789.0792, 235.9273
789.5613, 228.1568
790.0435, 222.6568
790.5256, 222.6923
791.0077, 223.5982
791.4898, 223.0633
791.9719, 220.9770
792.4540, 218.0716
792.9362, 214.2451
793.4183, 210.2110
793.9004, 206.4473
794.3825, 202.9853
794.8646, 199.9804
795.3467, 197.4165
795.8289, 195.4433
796.3110, 195.0719
796.7931, 194.7552
797.2752, 193.1139
797.7573, 189.6629
798.2394, 186.1905
798.7216, 182.1243
799.2037, 178.9256
799.6858, 177.8552
800.1679, 179.3003
800.6500, 179.8895
801.1321, 179.5892
801.6143, 178.7165
802.0964, 177.9776
802.5785, 176.7656
803.0606, 173.2888
803.5427, 167.1713
804.0248, 161.8123
804.5070, 159.6119
804.9891, 158.6431
805.4712, 157.4146
805.9533, 155.4292
806.4354, 154.3836
806.9175, 155.0286
807.3997, 155.5241
807.8818, 154.2972
808.3639, 151.4028
808.8460, 148.9671
809.3281, 147.0793
809.8102, 145.4211
810.2924, 143.2370
810.7745, 141.3208
811.2566, 141.2600
811.7387, 143.5407
812.2208, 144.7586
812.7029, 142.7354
813.1851, 139.7264
813.6672, 137.1535
814.1493, 134.9638
814.6314, 133.6008
815.1135, 133.1356
815.5956, 133.3489
816.0778, 134.7412
816.5599, 136.7923
817.0420, 136.7150
817.5241, 134.3200
818.0062, 131.6827
818.4883, 129.8032
818.9705, 128.8389
819.4526, 129.2863
819.9347, 131.4409
820.4168, 133.0555
820.8989, 134.2154
821.3810, 134.1421
821.8632, 131.7711
822.3453, 126.5717
822.8274, 124.8102
823.3095, 126.9815
823.7916, 129.7366
824.2737, 130.1942
824.7559, 129.3901
825.2380, 129.5482
825.7201, 130.7657
826.2022, 131.6928
826.6843, 130.9558
827.1664, 130.0784
827.6486, 130.3477
828.1307, 132.1784
828.6128, 132.6702
829.0949, 131.0873
829.5770, 129.4242
830.0591, 128.7316
830.5413, 128.9512
831.0234, 129.3336
831.5055, 129.8821
831.9876, 130.9061
832.4697, 133.5588
832.9518, 136.2175
833.4340, 136.6165
833.9161, 134.8387
834.3982, 133.9068
834.8803, 135.5844
835.3624, 137.6719
835.8445, 139.4731
836.3267, 140.9502
836.8088, 140.9648
837.2909, 139.1334
837.7730, 137.5999
838.2551, 137.4650
838.7372, 138.5169
839.2194, 140.9381
839.7015, 144.3628
840.1836, 146.6692
840.6657, 145.3350
841.1478, 143.6650
841.6299, 144.2245
842.1121, 146.6820
842.5942, 147.3116
843.0763, 144.8078
843.5584, 142.4348
844.0405, 141.1172
844.5226, 140.7371
845.0048, 140.9785
845.4869, 141.8132
845.9690, 142.8213
846.4511, 143.7248
846.9332, 144.7398
847.4153, 146.5304
847.8975, 148.6545
848.3796, 149.8601
848.8617, 149.0402
849.3438, 147.9854
849.8259, 146.9022
850.3080, 146.0218
850.7902, 146.1052
851.2723, 147.3326
851.7544, 148.4741
852.2365, 149.2801
852.7186, 149.6627
853.2007, 149.1223
853.6829, 148.0157
854.1650, 147.2935
854.6471, 147.0207
855.1292, 147.6006
855.6113, 150.3268
856.0934, 153.7659
856.5756, 155.2246
857.0577, 153.4167
857.5398, 152.1466
858.0219, 151.9697
858.5040, 152.2523
858.9861, 152.0516
859.4683, 151.4130
859.9504, 150.4165
860.4325, 148.8283
860.9146, 147.7582
861.3967, 148.7895
861.8788, 150.7002
862.3610, 152.0198
862.8431, 152.4433
863.3252, 152.0497
863.8073, 149.7441
864.2894, 147.8021
864.7715, 149.3622
865.2537, 154.7648
865.7358, 156.1770
866.2179, 152.5766
866.7000, 148.0960
867.1821, 146.3125
867.6642, 146.5688
868.1464, 148.6173
868.6285, 152.9097
869.1106, 155.5344
869.5927, 153.4214
870.0748, 150.4165
870.5569, 149.0352
871.0391, 149.4986
871.5212, 150.1869
872.0033, 151.1888
872.4854, 152.0245
872.9675, 151.7239
873.4496, 151.1130
873.9318, 152.7432
874.4139, 156.4501
874.8960, 159.4665
875.3781, 160.1763
875.8602, 159.6703
876.3423, 158.0735
876.8245, 155.4774
877.3066, 154.0773
877.7887, 154.3292
878.2708, 154.7646
878.7529, 154.8133
879.2350, 154.6010
879.7172, 154.6059
880.1993, 154.7746
880.6814, 154.7403
881.1635, 153.8033
881.6456, 153.0409
882.1277, 153.6954
882.6099, 155.2011
883.0920, 155.8488
883.5741, 154.2927
884.0562, 153.2907
884.5383, 153.3721
885.0204, 154.1542
885.5026, 155.0168
885.9847, 155.9186
886.4668, 156.2092
886.9489, 155.4631
887.4310, 154.5831
887.9131, 154.7120
888.3953, 155.3259
888.8774, 155.6092
889.3595, 154.5383
889.8416, 154.3981
890.3237, 156.4389
890.8058, 158.7323
891.2880, 158.9453
891.7701, 156.8178
892.2522, 156.0903
892.7343, 157.2016
893.2164, 158.9104
893.6985, 160.3121
894.1807, 161.3150
894.6628, 161.9495
895.1449, 162.3071
895.6270, 161.5571
896.1091, 157.4158
896.5912, 153.8340
897.0734, 153.5075
897.5555, 156.8363
898.0376, 158.5863
898.5197, 158.7074
899.0018, 157.4965
899.4839, 153.5947
899.9661, 149.1391
900.4482, 148.7965
900.9303, 152.0385
901.4124, 154.9926
901.8945, 155.2382
902.3766, 155.2859
902.8588, 156.8592
903.3409, 159.3738
903.8230, 159.9723
904.3051, 158.2416
904.7872, 156.1333
905.2693, 153.9743
905.7515, 152.1727
906.2336, 151.7624
906.7157, 152.4042
907.1978, 153.1274
907.6799, 153.7172
908.1620, 154.0625
908.6442, 154.0108
909.1263, 153.7148
909.6084, 153.4506
910.0905, 153.3069
910.5726, 153.0779
911.0547, 152.9198
911.5369, 152.2468
912.0190, 149.4663
912.5011, 145.5797
912.9832, 143.4603
913.4653, 143.6895
913.9474, 145.1048
914.4296, 148.7934
914.9117, 152.1279
915.3938, 152.3578
915.8759, 148.1725
916.3580, 146.2498
916.8401, 147.3478
917.3223, 148.8275
917.8044, 148.8384
918.2865, 147.7437
918.7686, 146.6186
919.2507, 145.5467
919.7328, 145.1283
920.2150, 146.3162
920.6971, 147.7579
921.1792, 148.9561
921.6613, 149.7390
922.1434, 149.3035
922.6255, 147.1199
923.1077, 144.8386
923.5898, 142.4516
924.0719, 140.7745
924.5540, 142.8540
925.0361, 147.5731
925.5182, 150.2039
926.0004, 147.6580
926.4825, 144.7675
926.9646, 144.7988
927.4467, 146.3165
927.9288, 147.1177
928.4109, 146.2158
928.8931, 146.4229
929.3752, 148.3113
929.8573, 150.4153
930.3394, 151.0968
930.8215, 150.6042
931.3036, 149.6347
931.7858, 148.2180
932.2679, 147.1771
932.7500, 146.7789
933.2321, 147.2071
933.7142, 149.1496
934.1964, 153.0452
934.6785, 154.5591
935.1606, 152.9183
935.6427, 150.7303
936.1248, 148.9512
936.6069, 147.7864
937.0891, 148.4499
937.5712, 150.6016
938.0533, 152.5021
938.5354, 152.9394
939.0175, 153.1140
939.4996, 153.7209
939.9818, 154.5824
940.4639, 155.0646
940.9460, 154.6883
941.4281, 155.3643
941.9102, 158.0512
942.3923, 160.7127
942.8745, 158.7172
943.3566, 153.9753
943.8387, 152.4050
944.3208, 156.2009
944.8029, 160.4460
945.2850, 163.8687
945.7672, 165.4857
946.2493, 163.6118
946.7314, 156.4560
947.2135, 153.9309
947.6956, 157.1612
948.1777, 161.1890
948.6599, 161.6706
949.1420, 160.1778
949.6241, 160.5801
950.1062, 162.7786
950.5883, 165.0924
951.0704, 166.5747
951.5526, 167.9938
952.0347, 170.3174
952.5168, 172.9508
952.9989, 173.1680
953.4810, 170.2927
953.9631, 168.1720
954.4453, 167.8863
954.9274, 168.9456
955.4095, 171.3118
955.8916, 174.2878
956.3737, 176.3355
956.8558, 176.2422
957.3380, 176.5473
957.8201, 179.1218
958.3022, 181.8102
958.7843, 182.3547
959.2664, 180.1461
959.7485, 179.2219
960.2307, 179.7410
960.7128, 181.2280
961.1949, 184.1584
961.6770, 187.3455
962.1591, 188.8996
962.6412, 188.7909
963.1234, 188.5755
963.6055, 188.3624
964.0876, 188.6737
964.5697, 190.0603
965.0518, 192.0579
965.5339, 192.1483
966.0161, 190.3335
966.4982, 189.8808
966.9803, 192.8305
967.4624, 196.3882
967.9445, 197.4595
968.4266, 196.9270
968.9088, 196.2294
969.3909, 194.5779
969.8730, 194.6235
970.3551, 197.3996
970.8372, 200.7355
971.3193, 202.4926
971.8015, 202.7733
972.2836, 202.1248
972.7657, 200.5338
973.2478, 200.1720
973.7299, 204.7495
974.2120, 209.7635
974.6942, 210.8960
975.1763, 207.7979
975.6584, 206.2878
976.1405, 207.2581
976.6226, 208.4146
977.1047, 208.8980
977.5869, 209.0119
978.0690, 209.5489
978.5511, 210.4361
979.0332, 211.4545
979.5153, 212.9369
979.9974, 213.9223
980.4796, 213.1065
980.9617, 211.8390
981.4438, 212.1223
981.9259, 214.7856
982.4080, 216.5484
982.8901, 217.1992
983.3723, 217.2119
983.8544, 216.3435
984.3365, 215.4315
984.8186, 216.5224
985.3007, 219.7132
985.7828, 222.2355
986.2650, 223.0173
986.7471, 222.6490
987.2292, 220.9108
987.7113, 218.2826
988.1934, 217.5046
988.6755, 218.6526
989.1577, 219.8006
989.6398, 220.0948
990.1219, 220.2235
990.6040, 221.2448
991.0861, 222.6151
991.5682, 223.4380
992.0504, 224.3059
992.5325, 223.0745
993.0146, 218.4653
993.4967, 213.3346
993.9788, 209.9825
994.4609, 208.3846
994.9431, 208.8486
995.4252, 211.3809
995.9073, 213.7414
996.3894, 214.4094
996.8715, 214.1996
997.3536, 213.6396
997.8358, 212.7473
998.3179, 211.3451
998.8000, 208.9203
999.2821, 207.3907
999.7642, 207.5294
1000.246, 208.5437
1000.728, 208.9556
1001.211, 208.9283
1001.693, 208.9740
1002.175, 209.7926
1002.657, 209.5049
1003.139, 205.7790
1003.621, 201.6418
1004.103, 199.9881
1004.585, 201.3647
1005.068, 202.0946
1005.550, 202.1510
1006.032, 201.8573
1006.514, 200.9511
1006.996, 200.1622
1007.478, 200.7054
1007.960, 202.3348
1008.442, 203.4874
1008.924, 204.2920
1009.407, 203.6735
1009.889, 200.7390
1010.371, 196.8786
1010.853, 195.0813
1011.335, 195.0626
1011.817, 195.0161
1012.299, 194.4108
1012.781, 194.1966
1013.263, 196.2557
1013.746, 198.3191
1014.228, 197.8479
1014.710, 194.0573
1015.192, 191.1909
1015.674, 189.1510
1016.156, 188.4497
1016.638, 190.3985
1017.120, 193.4112
1017.603, 193.7161
1018.085, 191.9742
1018.567, 190.5138
1019.049, 191.0384
1019.531, 191.1419
1020.013, 189.3294
1020.495, 187.2009
1020.977, 187.3275
1021.459, 189.7661
1021.942, 192.0701
1022.424, 194.0351
1022.906, 195.0451
1023.388, 193.8513
1023.870, 191.8940
1024.352, 190.5486
1024.834, 190.0026
1025.316, 189.7548
1025.799, 189.8660
1026.281, 190.0186
1026.763, 189.9757
1027.245, 189.9896
1027.727, 191.3249
1028.209, 193.3589
1028.691, 193.9133
1029.173, 190.9666
1029.656, 188.2400
1030.138, 187.8565
1030.620, 186.2086
1031.102, 187.8510
1031.584, 185.9692
1032.066, 185.8721
1032.548, 187.7246
1033.030, 190.3479
1033.512, 194.0473
1033.995, 197.0999
1034.477, 196.6433
1034.959, 193.2131
1035.441, 190.7907
1035.923, 191.1525
1036.405, 191.2228
1036.887, 190.2340
1037.369, 188.8262
1037.851, 188.0595
1038.334, 187.9420
1038.816, 188.7151
1039.298, 190.7762
1039.780, 192.1471
1040.262, 190.5678
1040.744, 188.6316
1041.226, 188.8503
1041.708, 191.4897
1042.191, 191.3866
1042.673, 188.2225
1043.155, 185.0681
1043.637, 183.2225
1044.119, 182.6228
1044.601, 184.1917
1045.083, 186.8347
1045.565, 187.9916
1046.047, 184.6738
1046.530, 183.2503
1047.012, 185.2818
1047.494, 187.8177
1047.976, 186.6418
1048.458, 182.9049
1048.940, 182.9636
1049.422, 187.1686
1049.904, 190.5696
1050.386, 189.5832
1050.869, 187.3045
1051.351, 184.8991
1051.833, 182.7390
1052.315, 182.5469
1052.797, 184.7053
1053.279, 185.8036
1053.761, 184.6543
1054.243, 182.8471
1054.726, 182.0726
1055.208, 182.0629
1055.690, 182.6336
1056.172, 184.2743
1056.654, 184.5947
1057.136, 182.5697
1057.618, 180.8282
1058.100, 181.4025
1058.583, 183.4462
1059.065, 183.2173
1059.547, 181.2497
1060.029, 180.0074
1060.511, 182.5686
1060.993, 184.0636
1061.475, 180.8926
1061.957, 176.2592
1062.439, 174.8034
1062.922, 177.0050
1063.404, 177.8770
1063.886, 176.8840
1064.368, 175.9674
1064.850, 177.5354
1065.332, 179.5535
1065.814, 179.5998
1066.296, 177.7345
1066.778, 177.0195
1067.261, 178.1316
1067.743, 179.4194
1068.225, 180.5099
1068.707, 181.4691
1069.189, 182.6207
1069.671, 183.6885
1070.153, 183.9028
1070.635, 182.8374
1071.118, 181.8098
1071.600, 181.4509
1072.082, 181.2081
1072.564, 180.7052
1073.046, 180.0011
1073.528, 179.5942
1074.010, 179.5269
1074.492, 180.3869
1074.974, 183.6562
1075.457, 186.6384
1075.939, 187.0214
1076.421, 185.8618
1076.903, 184.8657
1077.385, 183.8543
1077.867, 184.0517
1078.349, 185.7752
1078.831, 187.5662
1079.313, 188.0727
1079.796, 187.7850
1080.278, 187.1601
1080.760, 186.3355
1081.242, 186.0047
1081.724, 186.7608
1082.206, 187.5957
1082.688, 188.4540
1083.170, 189.1047
1083.652, 189.0215
1084.135, 188.3485
1084.617, 187.5329
1085.099, 186.6026
1085.581, 185.9846
1086.063, 186.7302
1086.545, 187.1039
1087.027, 185.7119
1087.509, 182.8254
1087.992, 181.2391
1088.474, 180.9647
1088.956, 180.9838
1089.438, 180.9277
1089.920, 180.9184
1090.402, 180.7936
1090.884, 180.9118
1091.366, 181.9421
1091.849, 184.9619
1092.331, 185.9991
1092.813, 184.6090
1093.295, 182.7417
1093.777, 181.6519
1094.259, 181.1423
1094.741, 181.3787
1095.223, 181.9219
1095.705, 181.2758
1096.188, 177.2611
1096.670, 174.2265
1097.152, 172.8803
1097.634, 172.7329
1098.116, 173.5579
1098.598, 175.0769
1099.080, 176.0556
1099.562, 176.3817
1100.044, 176.0598
1100.527, 173.8691
1101.009, 172.2765
1101.491, 172.8521
1101.973, 175.0223
1102.455, 177.6795
1102.937, 180.8709
1103.419, 181.5039
1103.901, 178.4077
1104.384, 174.2043
1104.866, 170.3245
1105.348, 167.3750
1105.830, 166.1107
1106.312, 166.7802
1106.794, 168.0217
1107.276, 170.2428
1107.758, 171.3112
1108.240, 169.5424
1108.723, 166.9633
1109.205, 167.5887
1109.687, 169.6192
1110.169, 169.4950
1110.651, 164.0833
1111.133, 160.4007
1111.615, 158.9815
1112.097, 159.1585
1112.579, 161.5373
1113.062, 164.9812
1113.544, 165.1308
1114.026, 162.4768
1114.508, 159.5476
1114.990, 155.9531
1115.472, 154.3850
1115.954, 156.9146
1116.436, 160.8382
1116.919, 162.8968
1117.401, 163.1793
1117.883, 162.4317
1118.365, 160.7211
1118.847, 159.0087
1119.329, 157.9348
1119.811, 157.1366
1120.293, 156.3657
1120.776, 155.6753
1121.258, 155.4594
1121.740, 155.8404
1122.222, 155.2908
1122.704, 153.2458
1123.186, 151.2566
1123.668, 151.0164
1124.150, 151.5751
1124.632, 152.2844
1125.115, 153.1301
1125.597, 152.0056
1126.079, 148.0373
1126.561, 145.0066
1127.043, 144.5258
1127.525, 145.4484
1128.007, 146.2639
1128.489, 146.9934
1128.971, 147.7209
1129.454, 148.7127
1129.936, 148.9489
1130.418, 148.0406
1130.900, 147.0252
1131.382, 146.7063
1131.864, 146.6849
1132.346, 145.5275
1132.828, 143.5614
1133.311, 141.8679
1133.793, 140.3245
1134.275, 139.9712
1134.757, 141.7252
1135.239, 143.9204
1135.721, 145.1931
1136.203, 145.5422
1136.685, 144.5909
1137.167, 142.5027
1137.650, 141.1286
1138.132, 142.1763
1138.614, 143.5538
1139.096, 144.6984
1139.578, 145.3040
1140.060, 144.7285
1140.542, 142.9475
1141.024, 140.6669
1141.506, 137.8745
1141.989, 136.2716
1142.471, 138.8350
1142.953, 141.6726
1143.435, 141.3750
1143.917, 138.5889
1144.399, 137.0780
1144.881, 136.9793
1145.363, 137.3714
1145.846, 138.1225
1146.328, 138.9921
1146.810, 140.1127
1147.292, 140.9373
1147.774, 140.7845
1148.256, 139.4815
1148.738, 137.9923
1149.220, 135.9343
1149.703, 135.2790
1150.185, 137.2280
1150.667, 139.8897
1151.149, 140.7019
1151.631, 140.2253
1152.113, 139.2630
1152.595, 137.7856
1153.077, 136.5235
1153.559, 135.5674
1154.042, 134.6661
1154.524, 133.2117
1155.006, 134.6466
1155.488, 134.1552
1155.970, 138.1800
1156.452, 141.5229
1156.934, 144.3941
1157.416, 144.2393
1157.898, 139.4180
1158.381, 134.1648
1158.863, 131.3239
1159.345, 130.7005
1159.827, 132.5991
1160.309, 136.2452
1160.791, 138.4724
1161.273, 136.5895
1161.755, 134.6530
1162.238, 133.0291
1162.720, 132.4738
1163.202, 134.9101
1163.684, 139.4771
1164.166, 139.9565
1164.648, 136.5186
1165.130, 133.4084
1165.612, 133.3082
1166.094, 133.7545
1166.577, 133.5052
1167.059, 133.3030
1167.541, 134.7543
1168.023, 137.6567
1168.505, 139.0370
1168.987, 138.5909
1169.469, 138.0991
1169.951, 139.5361
1170.433, 140.5722
1170.916, 139.2320
1171.398, 136.5651
1171.880, 135.1561
1172.362, 134.9805
1172.844, 134.7549
1173.326, 134.2091
1173.808, 133.8539
1174.290, 134.5144
1174.773, 135.2026
1175.255, 134.7415
1175.737, 133.5123
1176.219, 134.0615
1176.701, 136.5450
1177.183, 137.3077
1177.665, 134.8344
1178.147, 132.2640
1178.630, 133.1679
1179.112, 135.0502
1179.594, 135.2668
1180.076, 133.6955
1180.558, 133.1221
1181.040, 133.6250
1181.522, 134.3358
1182.004, 134.9067
1182.486, 135.5831
1182.969, 137.0926
1183.451, 138.6015
1183.933, 138.8852
1184.415, 137.5200
1184.897, 137.0828
1185.379, 137.6624
1185.861, 138.6025
1186.343, 139.7079
1186.825, 140.8007
1187.308, 142.0674
1187.790, 143.0258
1188.272, 142.7165
1188.754, 140.2160
1189.236, 139.0679
1189.718, 139.5144
1190.200, 140.1180
1190.682, 140.1164
1191.165, 139.6183
1191.647, 138.0233
1192.129, 136.2053
1192.611, 136.0716
1193.093, 139.4480
1193.575, 140.8954
1194.057, 139.9097
1194.539, 138.7693
1195.021, 139.9923
1195.504, 141.6192
1195.986, 140.0472
1196.468, 136.6281
1196.950, 135.5721
1197.432, 139.2686
1197.914, 141.4807
1198.396, 141.6989
1198.878, 140.8910
1199.360, 139.2161
1199.843, 137.5665
1200.325, 137.6940
1200.807, 139.1156
1201.289, 139.6163
1201.771, 138.2517
1202.253, 137.2533
1202.735, 136.8792
1203.217, 136.8867
1203.700, 137.5174
1204.182, 138.0627
1204.664, 137.0518
1205.146, 134.7539
1205.628, 133.4903
1206.110, 133.7833
1206.592, 134.7966
1207.074, 136.6719
1207.557, 138.4473
1208.039, 138.6076
1208.521, 138.0721
1209.003, 138.3338
1209.485, 139.4371
1209.967, 139.8339
1210.449, 139.0000
1210.931, 138.2997
1211.413, 138.0078
1211.896, 137.9663
1212.378, 137.9625
1212.860, 138.0624
1213.342, 138.3779
1213.824, 138.9253
1214.306, 139.6058
1214.788, 140.6022
1215.270, 141.1288
1215.752, 140.7820
1216.235, 140.3834
1216.717, 141.6543
1217.199, 143.3692
1217.681, 143.6810
1218.163, 142.2429
1218.645, 140.4831
1219.127, 138.1550
1219.609, 136.6426
1220.092, 136.4313
1220.574, 137.1029
1221.056, 138.6127
1221.538, 140.3095
1222.020, 141.1500
1222.502, 140.8076
1222.984, 140.9133
1223.466, 141.8589
1223.948, 142.0389
1224.431, 140.4750
1224.913, 138.6642
1225.395, 139.0862
1225.877, 140.5119
1226.359, 141.1789
1226.841, 140.5540
1227.323, 140.5735
1227.805, 141.5458
1228.287, 141.9012
1228.770, 140.7497
1229.252, 139.0921
1229.734, 137.8791
1230.216, 137.2423
1230.698, 137.5664
1231.180, 139.2262
1231.662, 140.0778
1232.144, 140.0418
1232.627, 139.6476
1233.109, 138.8851
1233.591, 138.3090
1234.073, 139.0274
1234.555, 140.1151
1235.037, 140.0671
1235.519, 138.3435
1236.001, 138.5395
1236.484, 140.9643
1236.966, 142.4727
1237.448, 140.7326
1237.930, 138.5434
1238.412, 138.9172
1238.894, 140.4803
1239.376, 141.3894
1239.858, 141.4855
1240.340, 141.4221
1240.823, 141.1895
1241.305, 140.9834
1241.787, 141.0239
1242.269, 140.9622
1242.751, 140.4212
1243.233, 139.6387
1243.715, 138.6528
1244.197, 137.2486
1244.679, 138.7042
1245.162, 142.9439
1245.644, 145.7427
1246.126, 144.1432
1246.608, 141.3023
1247.090, 137.9520
1247.572, 135.4991
1248.054, 135.7123
1248.536, 138.7356
1249.019, 140.3040
1249.501, 140.5096
1249.983, 140.3475
1250.465, 139.9973
1250.947, 139.8749
1251.429, 140.1778
1251.911, 140.8455
1252.393, 142.1990
1252.875, 141.8122
1253.358, 143.7486
1253.840, 141.4467
1254.322, 139.4949
1254.804, 138.9973
1255.286, 139.1942
1255.768, 140.3945
1256.250, 141.5776
1256.732, 141.8680
1257.214, 141.3707
1257.697, 140.4820
1258.179, 139.3427
1258.661, 138.5875
1259.143, 138.3133
1259.625, 138.8363
1260.107, 140.7641
1260.589, 142.5406
1261.071, 142.6053
1261.554, 141.5145
1262.036, 140.7827
1262.518, 140.4589
1263.000, 140.6253
1263.482, 141.8680
1263.964, 142.7381
1264.446, 143.0178
1264.928, 143.1335
1265.411, 143.6198
1265.893, 144.0878
1266.375, 143.8328
1266.857, 142.9270
1267.339, 141.5534
1267.821, 138.6787
1268.303, 137.5697
1268.785, 138.7211
1269.267, 140.0145
1269.750, 139.3462
1270.232, 138.1775
1270.714, 139.1286
1271.196, 140.9455
1271.678, 140.3339
1272.160, 135.4800
1272.642, 133.6252
1273.124, 135.2435
1273.606, 137.2986
1274.089, 137.3782
1274.571, 137.1253
1275.053, 138.4990
1275.535, 138.2122
1276.017, 138.1441
1276.499, 138.5815
1276.981, 137.6049
1277.463, 137.6238
1277.946, 137.6108
1278.428, 136.1906
1278.910, 135.3266
1279.392, 137.2307
1279.874, 139.7107
1280.356, 139.7523
1280.838, 141.4077
1281.320, 138.3203
1281.802, 141.9354
1282.285, 144.2273
1282.767, 142.1427
1283.249, 139.3592
1283.731, 136.0866
1284.213, 133.8685
1284.695, 134.8866
1285.177, 138.2154
1285.659, 139.4521
1286.141, 138.8902
1286.624, 137.8702
1287.106, 136.5337
1287.588, 135.4029
1288.070, 134.4758
1288.552, 133.8893
1289.034, 133.5103
1289.516, 133.6822
1289.998, 136.2879
1290.481, 140.0000
1290.963, 141.3884
1291.445, 137.0270
1291.927, 134.8551
1292.409, 135.4847
1292.891, 136.0091
1293.373, 133.2614
1293.855, 130.1077
1294.338, 130.5843
1294.820, 133.2147
1295.302, 135.1626
1295.784, 135.8426
1296.266, 137.6197
1296.748, 140.6061
1297.230, 142.6535
1297.712, 141.6995
1298.194, 140.1743
1298.677, 140.1439
1299.159, 140.5224
1299.641, 140.1013
1300.123, 138.8806
1300.605, 136.2702
1301.087, 132.5070
1301.569, 129.7012
1302.051, 128.9024
1302.533, 129.3291
1303.016, 130.8581
##END=



