##NAMES=Taramite
##RRUFFID=R061101
##IDEAL CHEMISTRY=Na(NaCa)(Mg_3_Al_2_)(Si_6_Al_2_)O_22_(OH)_2_
##LOCALITY=Monte Beigua, 11 km north of Varazze, Savona, Liguria, Italy
##OWNER=RRUFF
##SOURCE=Michael Scott
##DESCRIPTION=Dark green radiating prismatic crystals
##STATUS=The identification of this mineral is confirmed by single-crystal X-ray diffraction and chemical analysis.
##URL=rruff.info/R061101
##MEASURED CHEMISTRY=(Na_0.68_K_0.20_[box]_12_)_Σ=1_(Ca_1.03_Na_0.97_)_Σ=2_(Fe^2+^_2.21_Mg_0.79_)_Σ=3_(Al_0.87_Fe^3+^_0.13_)_Σ=1_(Fe^3+^_0.62_Mg_0.32_Ti_0.05_Mn_0.01_)_Σ=1_(Si_6.37_Al_1.63_)O_22_(OH)_2_
157.9509, 1670.075
158.4330, 1678.546
158.9152, 1686.738
159.3973, 1697.911
159.8794, 1716.716
160.3615, 1743.421
160.8436, 1769.465
161.3257, 1783.790
161.8079, 1783.630
162.2900, 1787.905
162.7721, 1801.834
163.2542, 1819.820
163.7363, 1840.896
164.2184, 1864.426
164.7006, 1886.800
165.1827, 1903.081
165.6648, 1911.734
166.1469, 1920.832
166.6290, 1930.983
167.1111, 1941.993
167.5933, 1955.063
168.0754, 1969.918
168.5575, 1983.356
169.0396, 1989.553
169.5217, 1983.823
170.0038, 1986.030
170.4860, 2002.941
170.9681, 2023.364
171.4502, 2042.614
171.9323, 2059.224
172.4144, 2072.677
172.8965, 2081.896
173.3787, 2085.831
173.8608, 2088.290
174.3429, 2085.354
174.8250, 2084.058
175.3071, 2091.863
175.7892, 2108.140
176.2714, 2123.375
176.7535, 2123.642
177.2356, 2100.517
177.7177, 2084.391
178.1998, 2080.357
178.6819, 2078.231
179.1641, 2069.917
179.6462, 2055.631
180.1283, 2043.529
180.6104, 2045.070
181.0925, 2068.060
181.5746, 2082.296
182.0567, 2082.056
182.5389, 2079.391
183.0210, 2081.513
183.5031, 2088.923
183.9852, 2097.099
184.4673, 2100.109
184.9494, 2093.983
185.4316, 2096.086
185.9137, 2116.025
186.3958, 2134.668
186.8779, 2138.278
187.3600, 2127.849
187.8421, 2116.113
188.3243, 2117.580
188.8064, 2137.113
189.2885, 2150.218
189.7706, 2155.122
190.2527, 2156.652
190.7348, 2155.558
191.2170, 2152.972
191.6991, 2151.745
192.1812, 2155.426
192.6633, 2166.202
193.1454, 2168.942
193.6275, 2160.406
194.1097, 2148.538
194.5918, 2134.505
195.0739, 2120.073
195.5560, 2108.869
196.0381, 2104.282
196.5202, 2106.796
197.0024, 2112.304
197.4845, 2121.100
197.9666, 2131.854
198.4487, 2149.063
198.9308, 2168.863
199.4129, 2179.630
199.8951, 2170.420
200.3772, 2140.326
200.8593, 2122.582
201.3414, 2122.783
201.8235, 2126.642
202.3056, 2131.041
202.7878, 2134.646
203.2699, 2135.611
203.7520, 2132.565
204.2341, 2125.622
204.7162, 2117.195
205.1983, 2106.166
205.6805, 2095.159
206.1626, 2081.139
206.6447, 2067.655
207.1268, 2063.625
207.6089, 2075.995
208.0910, 2100.998
208.5732, 2112.257
209.0553, 2100.008
209.5374, 2087.265
210.0195, 2079.990
210.5016, 2076.165
210.9837, 2070.918
211.4659, 2061.208
211.9480, 2049.674
212.4301, 2047.130
212.9122, 2065.488
213.3943, 2077.905
213.8764, 2078.151
214.3586, 2070.094
214.8407, 2057.672
215.3228, 2042.153
215.8049, 2026.497
216.2870, 2018.835
216.7691, 2022.112
217.2513, 2029.305
217.7334, 2047.500
218.2155, 2066.569
218.6976, 2073.018
219.1797, 2062.157
219.6618, 2041.469
220.1440, 2024.744
220.6261, 2013.156
221.1082, 2004.089
221.5903, 1995.794
222.0724, 1990.846
222.5546, 1994.606
223.0367, 2007.922
223.5188, 2022.113
224.0009, 2024.060
224.4830, 2004.017
224.9651, 1995.088
225.4473, 2008.143
225.9294, 2025.143
226.4115, 2030.868
226.8936, 2023.515
227.3757, 2012.345
227.8578, 2008.104
228.3400, 2014.012
228.8221, 2013.524
229.3042, 2000.461
229.7863, 1986.661
230.2684, 1979.200
230.7505, 1978.321
231.2327, 1980.306
231.7148, 1982.237
232.1969, 1984.286
232.6790, 1983.938
233.1611, 1977.681
233.6432, 1972.782
234.1254, 1973.331
234.6075, 1978.290
235.0896, 1984.677
235.5717, 1991.083
236.0538, 1997.175
236.5359, 1995.126
237.0181, 1971.366
237.5002, 1955.196
237.9823, 1963.124
238.4644, 1984.319
238.9465, 1997.810
239.4286, 1991.036
239.9108, 1968.728
240.3929, 1952.849
240.8750, 1945.167
241.3571, 1941.873
241.8392, 1945.531
242.3213, 1952.470
242.8035, 1958.535
243.2856, 1961.955
243.7677, 1962.922
244.2498, 1961.907
244.7319, 1959.233
245.2140, 1953.696
245.6962, 1941.575
246.1783, 1928.627
246.6604, 1920.251
247.1425, 1917.991
247.6246, 1919.229
248.1067, 1919.864
248.5889, 1918.753
249.0710, 1919.564
249.5531, 1923.792
250.0352, 1928.560
250.5173, 1933.031
250.9994, 1936.502
251.4816, 1937.431
251.9637, 1933.741
252.4458, 1924.171
252.9279, 1915.347
253.4100, 1902.757
253.8921, 1894.823
254.3743, 1899.984
254.8564, 1914.107
255.3385, 1924.959
255.8206, 1921.755
256.3027, 1904.481
256.7849, 1890.750
257.2670, 1883.398
257.7491, 1876.945
258.2312, 1869.599
258.7133, 1862.382
259.1954, 1856.890
259.6776, 1853.922
260.1597, 1853.765
260.6418, 1858.345
261.1239, 1874.653
261.6060, 1885.783
262.0881, 1888.898
262.5703, 1885.854
263.0524, 1876.285
263.5345, 1859.786
264.0166, 1842.819
264.4987, 1839.875
264.9808, 1858.787
265.4630, 1874.400
265.9451, 1882.870
266.4272, 1887.584
266.9093, 1890.801
267.3914, 1893.045
267.8735, 1893.562
268.3557, 1890.984
268.8378, 1884.725
269.3199, 1878.447
269.8020, 1871.741
270.2841, 1865.654
270.7662, 1858.886
271.2484, 1852.531
271.7305, 1850.729
272.2126, 1861.567
272.6947, 1883.986
273.1768, 1892.352
273.6589, 1873.842
274.1411, 1857.431
274.6232, 1855.337
275.1053, 1865.084
275.5874, 1882.061
276.0695, 1911.094
276.5516, 1942.471
277.0338, 1943.451
277.5159, 1896.761
277.9980, 1862.557
278.4801, 1882.777
278.9622, 1925.306
279.4443, 1952.194
279.9265, 1949.121
280.4086, 1932.175
280.8907, 1917.375
281.3728, 1903.901
281.8549, 1902.633
282.3370, 1928.104
282.8192, 1961.027
283.3013, 1980.924
283.7834, 1985.001
284.2655, 1983.356
284.7476, 1983.112
285.2297, 1983.478
285.7119, 1978.992
286.1940, 1964.311
286.6761, 1950.994
287.1582, 1952.515
287.6403, 1967.784
288.1224, 1984.322
288.6046, 2001.025
289.0867, 2014.710
289.5688, 2018.505
290.0509, 2010.519
290.5330, 1999.047
291.0151, 1989.625
291.4973, 1982.318
291.9794, 1977.577
292.4615, 1978.681
292.9436, 1980.026
293.4257, 1975.923
293.9078, 1966.906
294.3900, 1958.076
294.8721, 1951.569
295.3542, 1948.014
295.8363, 1949.090
296.3184, 1960.784
296.8005, 1969.263
297.2827, 1965.182
297.7648, 1954.318
298.2469, 1949.069
298.7290, 1954.670
299.2111, 1965.869
299.6932, 1972.431
300.1754, 1972.225
300.6575, 1972.166
301.1396, 1974.611
301.6217, 1976.547
302.1038, 1974.603
302.5859, 1968.325
303.0681, 1960.040
303.5501, 1951.867
304.0323, 1943.295
304.5144, 1938.046
304.9965, 1937.888
305.4786, 1938.938
305.9607, 1939.864
306.4428, 1940.382
306.9250, 1940.830
307.4071, 1941.848
307.8892, 1942.809
308.3713, 1938.038
308.8534, 1916.938
309.3355, 1901.856
309.8177, 1901.574
310.2998, 1907.249
310.7819, 1905.836
311.2640, 1891.908
311.7461, 1874.458
312.2282, 1873.794
312.7104, 1902.912
313.1925, 1921.232
313.6746, 1923.767
314.1567, 1917.881
314.6388, 1904.570
315.1209, 1886.005
315.6031, 1869.399
316.0852, 1865.325
316.5673, 1875.662
317.0494, 1874.587
317.5315, 1849.613
318.0136, 1826.283
318.4958, 1814.517
318.9779, 1812.487
319.4600, 1815.844
319.9421, 1824.807
320.4242, 1835.760
320.9063, 1837.312
321.3885, 1824.733
321.8706, 1815.977
322.3527, 1823.070
322.8348, 1836.247
323.3169, 1846.240
323.7990, 1851.202
324.2812, 1851.454
324.7633, 1846.186
325.2454, 1835.677
325.7275, 1823.345
326.2096, 1807.408
326.6917, 1793.302
327.1739, 1787.166
327.6560, 1789.002
328.1381, 1792.845
328.6202, 1796.220
329.1023, 1799.902
329.5844, 1807.028
330.0666, 1818.893
330.5487, 1826.930
331.0308, 1819.938
331.5129, 1800.533
331.9950, 1792.143
332.4771, 1808.740
332.9593, 1826.131
333.4414, 1826.656
333.9235, 1813.362
334.4056, 1798.030
334.8877, 1785.555
335.3698, 1777.005
335.8520, 1776.948
336.3341, 1794.702
336.8162, 1806.095
337.2983, 1799.935
337.7804, 1788.459
338.2625, 1788.840
338.7447, 1804.741
339.2268, 1821.666
339.7089, 1818.351
340.1910, 1782.190
340.6731, 1769.975
341.1552, 1807.155
341.6374, 1841.511
342.1195, 1840.994
342.6016, 1813.424
343.0837, 1787.073
343.5658, 1782.619
344.0479, 1796.466
344.5301, 1802.491
345.0122, 1790.631
345.4943, 1784.485
345.9764, 1794.605
346.4585, 1809.289
346.9406, 1814.047
347.4228, 1803.998
347.9049, 1790.116
348.3870, 1790.622
348.8691, 1809.612
349.3512, 1822.193
349.8333, 1822.962
350.3155, 1817.900
350.7976, 1806.093
351.2797, 1789.876
351.7618, 1778.718
352.2439, 1781.386
352.7260, 1794.236
353.2082, 1805.945
353.6903, 1817.061
354.1724, 1825.233
354.6545, 1830.586
355.1366, 1831.636
355.6187, 1823.404
356.1009, 1796.249
356.5830, 1772.123
357.0651, 1773.624
357.5472, 1796.795
358.0293, 1819.320
358.5114, 1834.646
358.9936, 1844.167
359.4757, 1848.112
359.9578, 1844.899
360.4399, 1846.022
360.9220, 1859.955
361.4041, 1876.847
361.8863, 1885.775
362.3684, 1885.255
362.8505, 1878.514
363.3326, 1867.131
363.8147, 1851.036
364.2968, 1838.819
364.7790, 1827.337
365.2611, 1822.435
365.7432, 1831.288
366.2253, 1847.357
366.7074, 1859.676
367.1895, 1863.337
367.6717, 1860.462
368.1538, 1855.262
368.6359, 1841.975
369.1180, 1836.920
369.6001, 1845.506
370.0822, 1857.453
370.5644, 1865.509
371.0465, 1869.464
371.5286, 1874.507
372.0107, 1887.743
372.4928, 1908.517
372.9749, 1915.191
373.4571, 1895.990
373.9392, 1878.742
374.4213, 1875.118
374.9034, 1878.687
375.3855, 1879.646
375.8676, 1873.070
376.3498, 1866.070
376.8319, 1871.423
377.3140, 1890.110
377.7961, 1901.341
378.2782, 1896.576
378.7603, 1884.561
379.2425, 1872.935
379.7246, 1861.758
380.2067, 1855.227
380.6888, 1858.689
381.1709, 1866.896
381.6530, 1871.354
382.1352, 1871.198
382.6173, 1869.191
383.0994, 1867.632
383.5815, 1865.814
384.0636, 1860.445
384.5457, 1844.806
385.0279, 1832.910
385.5100, 1832.142
385.9921, 1839.044
386.4742, 1848.636
386.9563, 1859.370
387.4384, 1867.784
387.9206, 1867.114
388.4027, 1848.686
388.8848, 1842.016
389.3669, 1860.734
389.8490, 1878.826
390.3311, 1877.861
390.8133, 1861.024
391.2954, 1843.450
391.7775, 1836.262
392.2596, 1838.084
392.7417, 1840.594
393.2238, 1844.785
393.7060, 1848.085
394.1881, 1853.541
394.6702, 1856.110
395.1523, 1848.406
395.6344, 1828.840
396.1165, 1808.197
396.5987, 1800.192
397.0808, 1804.580
397.5629, 1805.513
398.0450, 1800.052
398.5271, 1792.658
399.0092, 1783.721
399.4914, 1775.030
399.9735, 1772.282
400.4556, 1783.132
400.9377, 1796.999
401.4198, 1799.912
401.9019, 1792.688
402.3841, 1787.009
402.8662, 1789.668
403.3483, 1795.029
403.8304, 1789.994
404.3125, 1770.174
404.7946, 1754.757
405.2768, 1752.470
405.7589, 1754.899
406.2410, 1752.779
406.7231, 1744.861
407.2052, 1734.837
407.6873, 1725.546
408.1695, 1716.984
408.6516, 1710.961
409.1337, 1702.477
409.6158, 1701.936
410.0979, 1722.435
410.5800, 1748.817
411.0622, 1759.355
411.5443, 1746.138
412.0264, 1722.142
412.5085, 1708.411
412.9906, 1707.788
413.4727, 1706.943
413.9549, 1703.583
414.4370, 1701.351
414.9191, 1702.392
415.4012, 1706.052
415.8833, 1710.050
416.3654, 1712.422
416.8476, 1714.841
417.3297, 1722.739
417.8118, 1737.647
418.2939, 1747.073
418.7760, 1744.126
419.2581, 1733.783
419.7403, 1721.873
420.2224, 1706.916
420.7045, 1698.179
421.1866, 1703.966
421.6687, 1717.338
422.1508, 1728.010
422.6330, 1734.494
423.1151, 1737.712
423.5972, 1737.679
424.0793, 1734.574
424.5614, 1733.707
425.0435, 1735.370
425.5257, 1738.606
426.0078, 1744.407
426.4899, 1751.177
426.9720, 1757.694
427.4541, 1763.345
427.9362, 1765.676
428.4184, 1758.793
428.9005, 1735.394
429.3826, 1726.378
429.8647, 1748.863
430.3468, 1769.090
430.8289, 1770.536
431.3111, 1758.893
431.7932, 1748.698
432.2753, 1748.245
432.7574, 1753.127
433.2395, 1754.686
433.7216, 1752.579
434.2038, 1748.661
434.6859, 1739.096
435.1680, 1731.714
435.6501, 1735.564
436.1322, 1751.008
436.6143, 1766.044
437.0965, 1777.233
437.5786, 1783.662
438.0607, 1782.004
438.5428, 1772.204
439.0249, 1762.007
439.5070, 1756.303
439.9892, 1754.266
440.4713, 1751.890
440.9534, 1744.035
441.4355, 1742.329
441.9176, 1756.766
442.3997, 1774.906
442.8819, 1780.459
443.3640, 1771.241
443.8461, 1759.926
444.3282, 1761.366
444.8103, 1777.137
445.2924, 1784.404
445.7746, 1774.585
446.2567, 1765.291
446.7388, 1763.083
447.2209, 1763.166
447.7030, 1756.524
448.1852, 1739.048
448.6673, 1723.372
449.1494, 1730.619
449.6315, 1760.796
450.1136, 1780.193
450.5957, 1781.357
451.0779, 1773.948
451.5600, 1761.619
452.0421, 1746.558
452.5242, 1737.275
453.0063, 1739.765
453.4884, 1746.192
453.9706, 1751.552
454.4527, 1755.287
454.9348, 1753.524
455.4169, 1742.935
455.8990, 1731.824
456.3811, 1736.839
456.8633, 1773.256
457.3454, 1787.742
457.8275, 1753.913
458.3096, 1719.874
458.7917, 1722.219
459.2738, 1752.714
459.7560, 1780.152
460.2381, 1784.432
460.7202, 1771.835
461.2023, 1762.349
461.6844, 1755.541
462.1665, 1752.909
462.6487, 1763.379
463.1308, 1771.387
463.6129, 1760.674
464.0950, 1733.565
464.5771, 1713.170
465.0592, 1722.494
465.5414, 1748.860
466.0235, 1760.214
466.5056, 1754.661
466.9877, 1746.405
467.4698, 1741.183
467.9519, 1738.610
468.4341, 1737.698
468.9162, 1739.186
469.3983, 1740.269
469.8804, 1740.347
470.3625, 1739.325
470.8446, 1736.784
471.3268, 1732.825
471.8089, 1728.027
472.2910, 1722.300
472.7731, 1716.108
473.2552, 1715.118
473.7373, 1723.015
474.2195, 1732.090
474.7016, 1743.668
475.1837, 1754.824
475.6658, 1763.523
476.1479, 1769.037
476.6300, 1770.601
477.1122, 1766.719
477.5943, 1757.682
478.0764, 1746.423
478.5585, 1729.774
479.0406, 1717.595
479.5227, 1719.892
480.0049, 1728.312
480.4870, 1731.551
480.9691, 1726.808
481.4512, 1719.576
481.9333, 1710.974
482.4154, 1702.840
482.8976, 1699.863
483.3797, 1703.084
483.8618, 1707.095
484.3439, 1706.704
484.8260, 1701.955
485.3081, 1700.386
485.7903, 1701.647
486.2724, 1705.956
486.7545, 1717.376
487.2366, 1730.047
487.7187, 1735.915
488.2008, 1733.302
488.6830, 1728.685
489.1651, 1730.771
489.6472, 1740.115
490.1293, 1743.825
490.6114, 1733.902
491.0935, 1730.355
491.5757, 1749.293
492.0578, 1776.253
492.5399, 1789.652
493.0220, 1781.002
493.5041, 1768.774
493.9862, 1768.073
494.4684, 1775.932
494.9505, 1784.149
495.4326, 1791.438
495.9147, 1797.652
496.3968, 1801.800
496.8789, 1804.180
497.3611, 1810.432
497.8432, 1824.812
498.3253, 1837.845
498.8074, 1844.246
499.2895, 1848.407
499.7716, 1857.217
500.2538, 1871.944
500.7359, 1886.742
501.2180, 1893.193
501.7001, 1890.354
502.1822, 1897.175
502.6643, 1922.681
503.1465, 1945.395
503.6286, 1959.320
504.1107, 1966.135
504.5928, 1965.853
505.0749, 1957.271
505.5570, 1950.738
506.0392, 1956.082
506.5213, 1970.504
507.0034, 1985.991
507.4855, 2001.542
507.9676, 2017.726
508.4497, 2037.140
508.9319, 2057.938
509.4140, 2068.962
509.8961, 2053.732
510.3782, 2049.739
510.8603, 2079.052
511.3424, 2118.711
511.8246, 2142.831
512.3067, 2146.544
512.7888, 2139.134
513.2709, 2126.654
513.7531, 2110.070
514.2352, 2111.219
514.7173, 2139.687
515.1994, 2170.447
515.6815, 2197.948
516.1636, 2223.350
516.6458, 2249.481
517.1279, 2276.713
517.6100, 2297.463
518.0921, 2299.697
518.5742, 2293.121
519.0563, 2300.500
519.5385, 2324.012
520.0206, 2346.611
520.5027, 2358.060
520.9848, 2361.302
521.4669, 2365.770
521.9490, 2367.493
522.4312, 2376.923
522.9133, 2406.910
523.3954, 2437.037
523.8775, 2446.748
524.3596, 2438.238
524.8417, 2429.340
525.3239, 2432.537
525.8060, 2445.616
526.2881, 2461.728
526.7702, 2483.817
527.2523, 2500.984
527.7344, 2507.453
528.2166, 2510.573
528.6987, 2513.413
529.1808, 2516.825
529.6629, 2524.276
530.1450, 2544.067
530.6271, 2564.561
531.1093, 2565.951
531.5914, 2552.434
532.0735, 2528.556
532.5556, 2543.096
533.0377, 2550.459
533.5198, 2551.031
534.0020, 2524.470
534.4841, 2532.946
534.9662, 2527.380
535.4483, 2521.239
535.9304, 2534.645
536.4125, 2512.031
536.8947, 2525.126
537.3768, 2523.968
537.8589, 2550.170
538.3410, 2553.076
538.8231, 2540.091
539.3052, 2529.087
539.7874, 2521.748
540.2695, 2516.771
540.7516, 2518.992
541.2337, 2522.601
541.7158, 2512.258
542.1979, 2472.972
542.6801, 2437.785
543.1622, 2433.299
543.6443, 2444.187
544.1264, 2440.967
544.6085, 2418.388
545.0906, 2397.229
545.5728, 2398.976
546.0549, 2422.191
546.5370, 2430.772
547.0191, 2418.240
547.5012, 2398.294
547.9833, 2364.376
548.4655, 2329.643
548.9476, 2307.463
549.4297, 2298.654
549.9117, 2291.831
550.3939, 2276.909
550.8760, 2257.554
551.3581, 2242.739
551.8402, 2232.554
552.3223, 2227.164
552.8044, 2229.136
553.2866, 2233.526
553.7687, 2231.102
554.2508, 2221.431
554.7329, 2209.365
555.2150, 2193.421
555.6971, 2177.249
556.1793, 2160.055
556.6614, 2144.927
557.1435, 2141.113
557.6256, 2153.611
558.1077, 2169.879
558.5898, 2165.611
559.0720, 2136.822
559.5541, 2107.228
560.0362, 2073.686
560.5183, 2045.297
561.0004, 2026.158
561.4825, 2015.102
561.9647, 2011.002
562.4468, 2018.307
562.9289, 2022.164
563.4110, 2004.360
563.8931, 1976.993
564.3752, 1968.419
564.8574, 1983.049
565.3395, 1996.340
565.8216, 1986.476
566.3037, 1956.771
566.7858, 1936.335
567.2679, 1931.999
567.7501, 1928.485
568.2322, 1925.665
568.7143, 1922.385
569.1964, 1918.246
569.6785, 1912.917
570.1606, 1905.494
570.6428, 1894.828
571.1249, 1882.115
571.6070, 1869.301
572.0891, 1856.416
572.5712, 1844.710
573.0533, 1834.829
573.5355, 1825.783
574.0176, 1816.516
574.4997, 1807.024
574.9818, 1782.457
575.4639, 1793.833
575.9460, 1798.032
576.4282, 1795.438
576.9103, 1765.714
577.3924, 1771.024
577.8745, 1762.295
578.3566, 1752.989
578.8387, 1763.231
579.3209, 1737.451
579.8030, 1747.384
580.2851, 1743.060
580.7672, 1745.261
581.2493, 1733.335
581.7314, 1725.772
582.2136, 1732.340
582.6957, 1731.084
583.1778, 1717.532
583.6599, 1720.147
584.1420, 1693.875
584.6241, 1692.953
585.1063, 1702.966
585.5884, 1675.504
586.0705, 1688.508
586.5526, 1694.336
587.0347, 1693.372
587.5168, 1665.276
587.9990, 1672.215
588.4811, 1665.114
588.9632, 1657.438
589.4453, 1669.308
589.9274, 1645.159
590.4095, 1656.719
590.8917, 1654.024
591.3738, 1657.854
591.8559, 1647.557
592.3380, 1641.623
592.8201, 1649.821
593.3022, 1650.194
593.7844, 1638.270
594.2665, 1642.515
594.7486, 1617.872
595.2307, 1618.578
595.7128, 1630.221
596.1949, 1619.008
596.6771, 1623.510
597.1592, 1622.028
597.6413, 1593.343
598.1234, 1611.965
598.6055, 1583.891
599.0876, 1598.319
599.5698, 1605.569
600.0519, 1606.029
600.5340, 1579.357
601.0161, 1587.720
601.4982, 1582.043
601.9803, 1575.790
602.4625, 1589.084
602.9446, 1566.358
603.4267, 1579.343
603.9088, 1578.072
604.3909, 1583.325
604.8730, 1574.452
605.3552, 1569.941
605.8373, 1579.563
606.3194, 1581.359
606.8015, 1554.408
607.2836, 1547.854
607.7657, 1547.637
608.2479, 1552.040
608.7300, 1562.084
609.2121, 1569.687
609.6942, 1571.539
610.1763, 1572.205
610.6584, 1580.556
611.1406, 1593.827
611.6227, 1592.937
612.1048, 1557.522
612.5869, 1526.723
613.0690, 1523.589
613.5511, 1535.084
614.0333, 1543.677
614.5154, 1545.282
614.9975, 1543.620
615.4796, 1541.318
615.9617, 1539.053
616.4438, 1541.808
616.9260, 1552.768
617.4081, 1559.166
617.8902, 1552.750
618.3723, 1544.761
618.8544, 1545.876
619.3365, 1555.299
619.8187, 1564.386
620.3008, 1574.887
620.7829, 1580.070
621.2650, 1571.331
621.7471, 1554.736
622.2292, 1540.456
622.7114, 1531.667
623.1935, 1529.738
623.6756, 1537.996
624.1577, 1555.166
624.6398, 1561.438
625.1219, 1550.448
625.6041, 1541.345
626.0862, 1538.302
626.5683, 1539.748
627.0504, 1547.117
627.5325, 1559.434
628.0146, 1567.885
628.4968, 1564.653
628.9789, 1560.021
629.4610, 1565.878
629.9431, 1577.135
630.4252, 1579.873
630.9073, 1570.384
631.3895, 1558.569
631.8716, 1556.126
632.3537, 1562.755
632.8358, 1563.560
633.3179, 1552.064
633.8000, 1545.997
634.2822, 1553.589
634.7643, 1565.164
635.2464, 1574.436
635.7285, 1580.521
636.2106, 1582.273
636.6927, 1573.053
637.1749, 1564.313
637.6570, 1570.154
638.1391, 1585.194
638.6212, 1594.872
639.1033, 1594.963
639.5854, 1591.018
640.0676, 1588.638
640.5497, 1587.833
641.0318, 1589.884
641.5139, 1599.676
641.9960, 1604.069
642.4781, 1593.725
642.9603, 1582.054
643.4424, 1582.706
643.9245, 1594.284
644.4066, 1600.445
644.8887, 1585.845
645.3708, 1569.540
645.8530, 1570.898
646.3351, 1584.514
646.8172, 1598.005
647.2993, 1607.895
647.7814, 1614.726
648.2635, 1618.686
648.7457, 1620.032
649.2278, 1622.807
649.7099, 1628.967
650.1920, 1633.001
650.6741, 1635.006
651.1563, 1633.674
651.6384, 1624.515
652.1205, 1609.835
652.6026, 1601.603
653.0847, 1591.114
653.5668, 1611.606
654.0490, 1624.923
654.5311, 1631.448
655.0132, 1610.840
655.4953, 1625.268
655.9774, 1625.656
656.4595, 1625.467
656.9417, 1644.827
657.4238, 1628.167
657.9059, 1647.215
658.3880, 1652.010
658.8701, 1663.328
659.3522, 1660.519
659.8344, 1662.075
660.3165, 1677.761
660.7986, 1685.622
661.2807, 1681.187
661.7628, 1692.920
662.2449, 1675.765
662.7271, 1691.136
663.2092, 1692.001
663.6913, 1687.536
664.1734, 1684.420
664.6555, 1688.031
665.1376, 1695.498
665.6198, 1697.213
666.1019, 1691.809
666.5840, 1685.372
667.0661, 1675.907
667.5482, 1668.923
668.0303, 1669.995
668.5125, 1675.793
668.9946, 1678.396
669.4767, 1670.255
669.9588, 1685.235
670.4409, 1693.039
670.9230, 1694.051
671.4052, 1667.931
671.8873, 1676.846
672.3694, 1671.721
672.8515, 1666.020
673.3336, 1679.866
673.8157, 1657.693
674.2979, 1671.229
674.7800, 1670.511
675.2621, 1676.317
675.7442, 1660.812
676.2263, 1658.321
676.7084, 1652.964
677.1906, 1649.570
677.6727, 1648.529
678.1548, 1648.477
678.6369, 1649.578
679.1190, 1651.122
679.6011, 1652.517
680.0833, 1653.950
680.5654, 1655.501
681.0475, 1657.258
681.5296, 1660.466
682.0117, 1669.532
682.4938, 1682.431
682.9760, 1684.130
683.4581, 1672.678
683.9402, 1660.962
684.4223, 1654.254
684.9044, 1650.252
685.3865, 1644.669
685.8687, 1636.102
686.3508, 1633.709
686.8329, 1647.565
687.3150, 1656.182
687.7971, 1646.196
688.2792, 1629.096
688.7614, 1621.056
689.2435, 1610.387
689.7256, 1624.146
690.2077, 1630.726
690.6898, 1630.516
691.1719, 1603.174
691.6541, 1610.866
692.1362, 1604.518
692.6183, 1597.595
693.1004, 1610.219
693.5825, 1596.761
694.0646, 1593.690
694.5468, 1594.672
695.0289, 1609.273
695.5110, 1614.073
695.9931, 1598.000
696.4752, 1578.943
696.9573, 1570.146
697.4395, 1569.869
697.9216, 1568.609
698.4037, 1562.617
698.8858, 1554.301
699.3679, 1543.490
699.8500, 1532.558
700.3322, 1527.384
700.8143, 1527.910
701.2964, 1526.536
701.7785, 1517.515
702.2606, 1506.122
702.7427, 1508.531
703.2249, 1531.996
703.7070, 1540.497
704.1891, 1519.052
704.6712, 1500.981
705.1533, 1509.992
705.6354, 1530.843
706.1176, 1538.497
706.5997, 1526.759
707.0818, 1517.636
707.5639, 1522.598
708.0460, 1529.766
708.5281, 1528.212
709.0103, 1521.344
709.4924, 1517.835
709.9745, 1520.705
710.4566, 1526.211
710.9387, 1530.098
711.4208, 1532.791
711.9030, 1539.117
712.3851, 1550.844
712.8672, 1550.380
713.3493, 1524.723
713.8314, 1496.580
714.3135, 1497.116
714.7957, 1529.610
715.2778, 1542.477
715.7599, 1520.393
716.2420, 1499.064
716.7241, 1481.682
717.2062, 1472.706
717.6884, 1480.386
718.1705, 1501.231
718.6526, 1520.303
719.1347, 1530.578
719.6168, 1533.827
720.0989, 1528.845
720.5811, 1518.754
721.0632, 1511.986
721.5453, 1509.925
722.0274, 1512.039
722.5095, 1518.778
722.9916, 1527.590
723.4738, 1530.638
723.9559, 1525.530
724.4380, 1521.491
724.9201, 1518.791
725.4022, 1517.284
725.8843, 1519.429
726.3665, 1521.641
726.8486, 1516.488
727.3307, 1500.649
727.8128, 1491.721
728.2949, 1503.908
728.7770, 1518.763
729.2592, 1521.721
729.7413, 1515.665
730.2234, 1507.305
730.7055, 1499.065
731.1876, 1491.077
731.6697, 1482.703
732.1519, 1474.865
732.6340, 1470.722
733.1161, 1470.038
733.5982, 1478.444
734.0803, 1501.984
734.5624, 1523.832
735.0446, 1524.964
735.5267, 1506.594
736.0088, 1494.882
736.4909, 1492.925
736.9730, 1492.945
737.4551, 1496.197
737.9373, 1499.332
738.4194, 1498.275
738.9015, 1495.219
739.3836, 1496.817
739.8657, 1507.114
740.3478, 1517.390
740.8300, 1520.056
741.3121, 1518.101
741.7942, 1516.482
742.2763, 1515.269
742.7584, 1511.908
743.2405, 1505.059
743.7227, 1496.538
744.2048, 1488.266
744.6869, 1479.871
745.1690, 1479.086
745.6511, 1491.431
746.1332, 1496.817
746.6154, 1482.551
747.0975, 1462.346
747.5796, 1452.032
748.0617, 1451.426
748.5438, 1456.985
749.0259, 1478.344
749.5081, 1493.643
749.9902, 1492.985
750.4723, 1483.642
750.9544, 1468.192
751.4365, 1450.901
751.9186, 1444.156
752.4008, 1459.291
752.8829, 1477.358
753.3650, 1468.133
753.8471, 1442.383
754.3292, 1436.401
754.8113, 1453.816
755.2935, 1465.941
755.7756, 1454.552
756.2577, 1431.436
756.7398, 1423.090
757.2219, 1434.429
757.7040, 1440.676
758.1862, 1441.556
758.6683, 1437.741
759.1504, 1420.615
759.6325, 1403.949
760.1146, 1407.807
760.5967, 1434.047
761.0789, 1448.066
761.5610, 1426.213
762.0431, 1407.651
762.5252, 1418.615
763.0073, 1441.566
763.4894, 1455.686
763.9716, 1457.447
764.4537, 1450.833
764.9358, 1435.249
765.4179, 1419.844
765.9000, 1423.337
766.3821, 1440.442
766.8643, 1445.747
767.3464, 1435.457
767.8285, 1426.221
768.3106, 1428.792
768.7927, 1438.241
769.2748, 1443.719
769.7570, 1445.782
770.2391, 1441.313
770.7212, 1423.279
771.2033, 1408.773
771.6854, 1404.189
772.1675, 1406.334
772.6497, 1413.460
773.1318, 1425.504
773.6139, 1435.577
774.0960, 1443.684
774.5781, 1447.424
775.0602, 1441.824
775.5424, 1433.229
776.0245, 1430.033
776.5066, 1432.469
776.9887, 1434.765
777.4708, 1432.784
777.9529, 1430.127
778.4351, 1434.384
778.9172, 1442.676
779.3993, 1442.168
779.8814, 1431.524
780.3635, 1423.330
780.8456, 1424.885
781.3278, 1432.773
781.8099, 1440.522
782.2920, 1447.825
782.7741, 1456.824
783.2562, 1470.818
783.7383, 1480.839
784.2205, 1484.504
784.7026, 1482.106
785.1847, 1471.499
785.6668, 1453.167
786.1489, 1438.908
786.6310, 1428.860
787.1132, 1425.504
787.5953, 1434.933
788.0774, 1447.834
788.5595, 1455.996
789.0416, 1458.730
789.5237, 1458.358
790.0059, 1455.658
790.4880, 1451.863
790.9701, 1447.240
791.4522, 1442.862
791.9343, 1441.387
792.4164, 1442.762
792.8986, 1444.876
793.3807, 1446.750
793.8628, 1435.115
794.3449, 1450.692
794.8270, 1459.092
795.3091, 1460.701
795.7913, 1435.178
796.2734, 1444.691
796.7555, 1440.162
797.2376, 1435.058
797.7197, 1449.501
798.2018, 1427.925
798.6840, 1442.058
799.1661, 1441.936
799.6482, 1448.339
800.1303, 1440.614
800.6124, 1437.253
801.0945, 1448.023
801.5767, 1450.969
802.0588, 1441.618
802.5409, 1448.435
803.0230, 1426.365
803.5051, 1429.644
803.9872, 1443.860
804.4694, 1435.219
804.9515, 1442.295
805.4336, 1430.312
805.9157, 1419.410
806.3978, 1411.967
806.8799, 1423.112
807.3621, 1443.546
807.8442, 1442.199
808.3263, 1419.409
808.8084, 1412.784
809.2905, 1432.327
809.7726, 1448.293
810.2548, 1439.042
810.7369, 1414.349
811.2190, 1398.987
811.7011, 1392.964
812.1832, 1396.517
812.6653, 1420.943
813.1475, 1440.734
813.6296, 1445.540
814.1117, 1443.366
814.5938, 1442.864
815.0759, 1444.436
815.5580, 1443.588
816.0402, 1437.715
816.5223, 1430.868
817.0044, 1407.175
817.4865, 1420.049
817.9686, 1425.886
818.4507, 1425.064
818.9329, 1397.638
819.4150, 1404.566
819.8971, 1397.726
820.3792, 1390.322
820.8613, 1402.084
821.3434, 1395.601
821.8256, 1408.733
822.3077, 1423.981
822.7898, 1434.669
823.2719, 1438.528
823.7540, 1430.833
824.2361, 1414.477
824.7183, 1410.506
825.2004, 1421.596
825.6825, 1428.268
826.1646, 1425.839
826.6467, 1420.254
827.1288, 1415.341
827.6110, 1410.982
828.0931, 1406.630
828.5752, 1400.197
829.0573, 1398.005
829.5394, 1405.377
830.0215, 1410.668
830.5037, 1404.741
830.9858, 1396.995
831.4679, 1401.745
831.9500, 1419.661
832.4321, 1431.451
832.9142, 1425.785
833.3964, 1417.430
833.8785, 1413.375
834.3606, 1412.056
834.8427, 1411.342
835.3248, 1411.348
835.8069, 1414.084
836.2891, 1420.973
836.7712, 1427.930
837.2533, 1428.872
837.7354, 1427.069
838.2175, 1431.191
838.6996, 1440.034
839.1818, 1444.147
839.6639, 1440.177
840.1460, 1434.961
840.6281, 1436.994
841.1102, 1443.672
841.5923, 1438.777
842.0745, 1419.702
842.5566, 1412.635
843.0387, 1427.219
843.5208, 1438.047
844.0029, 1423.086
844.4850, 1395.623
844.9672, 1392.945
845.4493, 1430.110
845.9314, 1450.376
846.4135, 1438.754
846.8956, 1428.540
847.3777, 1430.109
847.8599, 1437.043
848.3420, 1445.386
848.8241, 1453.927
849.3062, 1455.494
849.7883, 1438.686
850.2704, 1427.276
850.7526, 1435.377
851.2347, 1448.294
851.7168, 1455.831
852.1989, 1456.716
852.6810, 1448.329
853.1631, 1429.044
853.6453, 1417.545
854.1274, 1437.823
854.6095, 1467.437
855.0916, 1478.338
855.5737, 1474.186
856.0558, 1463.069
856.5380, 1448.733
857.0201, 1440.192
857.5022, 1445.528
857.9843, 1457.848
858.4664, 1463.637
858.9485, 1463.213
859.4307, 1456.339
859.9128, 1442.478
860.3949, 1438.197
860.8770, 1453.488
861.3591, 1474.657
861.8412, 1480.666
862.3234, 1471.331
862.8055, 1461.146
863.2876, 1446.164
863.7697, 1442.168
864.2518, 1460.268
864.7339, 1478.995
865.2161, 1478.835
865.6982, 1465.594
866.1803, 1462.575
866.6624, 1477.515
867.1445, 1486.339
867.6266, 1483.043
868.1088, 1479.594
868.5909, 1481.920
869.0730, 1486.201
869.5551, 1486.795
870.0372, 1483.685
870.5193, 1483.404
871.0015, 1492.618
871.4836, 1499.615
871.9657, 1495.811
872.4478, 1489.374
872.9299, 1491.013
873.4120, 1496.901
873.8942, 1493.994
874.3763, 1477.144
874.8584, 1460.489
875.3405, 1456.576
875.8226, 1459.214
876.3047, 1443.729
876.7869, 1460.208
877.2690, 1469.651
877.7511, 1472.434
878.2332, 1448.615
878.7153, 1459.148
879.1974, 1455.914
879.6796, 1452.115
880.1617, 1467.483
880.6438, 1447.533
881.1259, 1462.597
881.6080, 1463.683
882.0901, 1460.762
882.5723, 1478.049
883.0544, 1488.297
883.5365, 1491.887
884.0186, 1468.874
884.5007, 1480.213
884.9828, 1477.785
885.4650, 1474.793
885.9471, 1490.967
886.4292, 1471.823
886.9113, 1487.693
887.3934, 1489.586
887.8755, 1497.876
888.3577, 1492.315
888.8398, 1491.031
889.3219, 1503.604
889.8040, 1508.505
890.2861, 1501.348
890.7682, 1510.045
891.2504, 1490.417
891.7325, 1495.645
892.2146, 1511.596
892.6967, 1505.136
893.1788, 1514.086
893.6609, 1517.167
894.1431, 1493.576
894.6252, 1490.000
895.1073, 1478.434
895.5894, 1468.346
896.0715, 1463.686
896.5536, 1471.892
897.0358, 1479.687
897.5179, 1465.083
898.0000, 1482.517
898.4821, 1492.914
898.9642, 1496.652
899.4464, 1473.787
899.9285, 1485.275
900.4106, 1482.995
900.8927, 1480.151
901.3748, 1496.473
901.8569, 1477.478
902.3391, 1493.496
902.8212, 1495.538
903.3033, 1503.976
903.7854, 1498.562
904.2675, 1497.427
904.7496, 1510.148
905.2318, 1515.197
905.7139, 1508.189
906.1960, 1517.034
906.6781, 1497.555
907.1602, 1502.930
907.6423, 1519.030
908.1245, 1512.718
908.6066, 1521.817
909.0887, 1525.046
909.5708, 1501.603
910.0529, 1524.546
910.5350, 1527.428
911.0172, 1509.714
911.4993, 1531.067
911.9814, 1516.192
912.4635, 1514.248
912.9456, 1522.035
913.4277, 1519.678
913.9099, 1533.316
914.3920, 1531.545
914.8741, 1526.422
915.3562, 1531.783
915.8383, 1538.889
916.3204, 1548.145
916.8026, 1557.146
917.2847, 1558.867
917.7668, 1537.688
918.2489, 1553.941
918.7310, 1563.265
919.2131, 1566.032
919.6953, 1542.607
920.1774, 1553.005
920.6595, 1549.847
921.1416, 1546.134
921.6237, 1561.292
922.1058, 1541.676
922.5880, 1556.536
923.0701, 1557.633
923.5522, 1565.028
924.0343, 1558.785
924.5164, 1556.755
924.9985, 1568.367
925.4807, 1572.426
925.9628, 1564.613
926.4449, 1572.409
926.9270, 1555.597
927.4091, 1555.133
927.8912, 1556.408
928.3734, 1564.218
928.8555, 1573.307
929.3376, 1572.389
929.8197, 1559.162
930.3018, 1545.656
930.7839, 1534.206
931.2661, 1530.877
931.7482, 1549.561
932.2303, 1574.210
932.7124, 1579.871
933.1945, 1570.114
933.6766, 1566.345
934.1588, 1577.488
934.6409, 1590.029
935.1230, 1587.951
935.6051, 1582.180
936.0872, 1591.251
936.5693, 1608.865
937.0515, 1622.198
937.5336, 1627.864
938.0157, 1621.270
938.4978, 1598.274
938.9799, 1575.770
939.4620, 1579.966
939.9442, 1601.397
940.4263, 1615.453
940.9084, 1622.849
941.3905, 1633.437
941.8726, 1648.893
942.3547, 1655.126
942.8369, 1639.328
943.3190, 1614.819
943.8011, 1610.108
944.2832, 1622.063
944.7653, 1630.155
945.2474, 1633.414
945.7296, 1636.718
946.2117, 1641.820
946.6938, 1646.119
947.1759, 1646.820
947.6580, 1644.958
948.1401, 1644.751
948.6223, 1646.337
949.1044, 1643.204
949.5865, 1634.089
950.0686, 1625.105
950.5507, 1617.451
951.0328, 1617.911
951.5150, 1638.746
951.9971, 1674.690
952.4792, 1679.952
952.9613, 1646.011
953.4434, 1624.908
953.9255, 1623.929
954.4077, 1633.044
954.8898, 1650.481
955.3719, 1669.346
955.8540, 1679.059
956.3361, 1679.491
956.8182, 1677.549
957.3004, 1671.729
957.7825, 1667.889
958.2646, 1668.494
958.7467, 1668.292
959.2288, 1664.320
959.7109, 1657.162
960.1931, 1646.011
960.6752, 1628.064
961.1573, 1626.358
961.6394, 1652.209
962.1215, 1673.870
962.6036, 1689.778
963.0858, 1694.566
963.5679, 1677.889
964.0500, 1649.477
964.5321, 1632.888
965.0142, 1628.963
965.4963, 1633.710
965.9785, 1660.881
966.4606, 1677.882
966.9427, 1668.086
967.4248, 1654.856
967.9069, 1660.410
968.3890, 1675.703
968.8712, 1672.798
969.3533, 1640.516
969.8354, 1620.294
970.3175, 1623.493
970.7996, 1628.063
971.2817, 1626.793
971.7639, 1624.516
972.2460, 1623.237
972.7281, 1624.596
973.2102, 1634.777
973.6923, 1661.823
974.1744, 1678.166
974.6566, 1671.022
975.1387, 1662.745
975.6208, 1664.424
976.1029, 1667.663
976.5850, 1658.528
977.0671, 1642.303
977.5493, 1644.936
978.0314, 1685.455
978.5135, 1709.768
978.9956, 1689.100
979.4777, 1667.983
979.9598, 1674.548
980.4420, 1687.901
980.9241, 1680.791
981.4062, 1656.164
981.8883, 1639.933
982.3704, 1640.042
982.8525, 1645.124
983.3347, 1653.811
983.8168, 1664.183
984.2989, 1682.567
984.7810, 1697.188
985.2631, 1687.923
985.7452, 1658.972
986.2274, 1642.600
986.7095, 1656.049
987.1916, 1666.674
987.6737, 1658.778
988.1558, 1648.330
988.6379, 1643.683
989.1201, 1644.088
989.6022, 1652.613
990.0843, 1665.812
990.5664, 1664.542
991.0485, 1628.901
991.5306, 1605.501
992.0128, 1625.746
992.4949, 1652.518
992.9770, 1662.223
993.4591, 1660.574
993.9412, 1653.838
994.4233, 1645.358
994.9055, 1645.590
995.3876, 1666.802
995.8697, 1680.551
996.3518, 1662.872
996.8339, 1644.269
997.3160, 1653.513
997.7982, 1672.978
998.2803, 1674.122
998.7624, 1655.725
999.2445, 1638.843
999.7266, 1628.480
1000.209, 1626.684
1000.691, 1641.155
1001.173, 1657.724
1001.655, 1665.927
1002.137, 1669.144
1002.619, 1674.814
1003.101, 1682.462
1003.584, 1681.889
1004.066, 1662.185
1004.548, 1648.067
1005.030, 1657.435
1005.512, 1670.481
1005.994, 1674.641
1006.476, 1671.657
1006.958, 1663.376
1007.440, 1651.443
1007.923, 1641.104
1008.405, 1633.066
1008.887, 1629.600
1009.369, 1640.201
1009.851, 1646.912
1010.333, 1629.468
1010.815, 1604.411
1011.297, 1595.679
1011.780, 1603.863
1012.262, 1613.353
1012.744, 1622.796
1013.226, 1623.677
1013.708, 1600.074
1014.190, 1580.010
1014.672, 1585.710
1015.154, 1603.928
1015.636, 1620.722
1016.119, 1632.451
1016.601, 1633.585
1017.083, 1614.622
1017.565, 1604.099
1018.047, 1626.313
1018.529, 1644.563
1019.011, 1627.108
1019.493, 1600.133
1019.976, 1598.266
1020.458, 1618.412
1020.940, 1631.563
1021.422, 1629.571
1021.904, 1622.699
1022.386, 1610.646
1022.868, 1598.686
1023.350, 1589.596
1023.832, 1581.939
1024.315, 1572.172
1024.797, 1562.280
1025.279, 1560.810
1025.761, 1573.179
1026.243, 1582.239
1026.725, 1581.575
1027.207, 1579.613
1027.689, 1581.555
1028.172, 1582.476
1028.654, 1574.049
1029.136, 1560.794
1029.618, 1558.639
1030.100, 1574.866
1030.582, 1583.259
1031.064, 1574.949
1031.546, 1564.421
1032.028, 1550.469
1032.511, 1541.517
1032.993, 1548.886
1033.475, 1565.584
1033.957, 1573.205
1034.439, 1568.147
1034.921, 1564.385
1035.403, 1561.300
1035.885, 1561.858
1036.368, 1579.255
1036.850, 1588.065
1037.332, 1558.770
1037.814, 1512.781
1038.296, 1495.201
1038.778, 1510.282
1039.260, 1528.435
1039.742, 1561.140
1040.224, 1577.950
1040.707, 1565.876
1041.189, 1548.034
1041.671, 1533.939
1042.153, 1524.462
1042.635, 1520.618
1043.117, 1522.343
1043.599, 1533.788
1044.081, 1568.137
1044.563, 1580.454
1045.046, 1552.530
1045.528, 1528.351
1046.010, 1532.040
1046.492, 1546.496
1046.974, 1549.223
1047.456, 1541.432
1047.938, 1537.743
1048.420, 1538.818
1048.902, 1542.738
1049.385, 1552.589
1049.867, 1552.977
1050.349, 1532.990
1050.831, 1514.244
1051.313, 1522.860
1051.795, 1549.693
1052.277, 1552.409
1052.759, 1526.702
1053.242, 1518.448
1053.724, 1532.712
1054.206, 1540.016
1054.688, 1530.094
1055.170, 1515.190
1055.652, 1504.807
1056.134, 1500.146
1056.616, 1507.028
1057.099, 1524.475
1057.581, 1533.552
1058.063, 1533.964
1058.545, 1526.589
1059.027, 1511.697
1059.509, 1497.760
1059.991, 1490.208
1060.473, 1489.361
1060.955, 1500.950
1061.438, 1519.166
1061.920, 1516.278
1062.402, 1497.722
1062.884, 1492.356
1063.366, 1503.649
1063.848, 1516.984
1064.330, 1525.005
1064.812, 1527.115
1065.294, 1518.094
1065.777, 1506.432
1066.259, 1515.322
1066.741, 1532.468
1067.223, 1522.596
1067.705, 1491.159
1068.187, 1474.348
1068.669, 1484.155
1069.151, 1498.884
1069.634, 1502.774
1070.116, 1500.421
1070.598, 1495.582
1071.080, 1488.763
1071.562, 1477.449
1072.044, 1465.791
1072.526, 1463.310
1073.008, 1471.010
1073.490, 1480.983
1073.973, 1490.514
1074.455, 1497.280
1074.937, 1503.193
1075.419, 1502.092
1075.901, 1477.833
1076.383, 1449.682
1076.865, 1448.424
1077.347, 1470.392
1077.829, 1486.078
1078.312, 1486.839
1078.794, 1478.984
1079.276, 1456.557
1079.758, 1436.457
1080.240, 1426.002
1080.722, 1422.432
1081.204, 1425.018
1081.686, 1431.671
1082.169, 1438.290
1082.651, 1444.486
1083.133, 1450.253
1083.615, 1460.322
1084.097, 1463.107
1084.579, 1452.098
1085.061, 1437.668
1085.543, 1424.679
1086.026, 1412.495
1086.508, 1398.100
1086.990, 1381.732
1087.472, 1379.840
1087.954, 1405.058
1088.436, 1412.488
1088.918, 1385.652
1089.400, 1373.081
1089.882, 1401.866
1090.365, 1436.272
1090.847, 1438.923
1091.329, 1418.200
1091.811, 1406.446
1092.293, 1405.924
1092.775, 1390.617
1093.257, 1357.078
1093.739, 1337.237
1094.221, 1340.548
1094.704, 1346.637
1095.186, 1340.786
1095.668, 1331.026
1096.150, 1333.689
1096.632, 1344.883
1097.114, 1341.679
1097.596, 1327.356
1098.078, 1323.788
1098.561, 1332.572
1099.043, 1337.633
1099.525, 1331.789
1100.007, 1323.377
1100.489, 1320.094
1100.971, 1320.608
1101.453, 1323.942
1101.935, 1328.857
1102.417, 1332.892
1102.900, 1336.343
1103.382, 1344.148
1103.864, 1355.021
1104.346, 1351.819
1104.828, 1317.594
1105.310, 1287.522
1105.792, 1293.886
1106.274, 1312.948
1106.756, 1331.018
1107.239, 1342.558
1107.721, 1339.495
1108.203, 1324.712
1108.685, 1307.097
1109.167, 1286.315
1109.649, 1280.251
1110.131, 1318.091
1110.613, 1341.260
1111.096, 1305.067
1111.578, 1266.849
1112.060, 1277.752
1112.542, 1313.379
1113.024, 1328.623
1113.506, 1320.341
1113.988, 1305.367
1114.470, 1275.119
1114.953, 1254.852
1115.435, 1247.069
1115.917, 1248.003
1116.399, 1260.248
1116.881, 1274.588
1117.363, 1282.275
1117.845, 1284.316
1118.327, 1284.778
1118.809, 1284.551
1119.292, 1274.174
1119.774, 1251.660
1120.256, 1236.676
1120.738, 1234.466
1121.220, 1232.769
1121.702, 1223.411
1122.184, 1214.683
1122.666, 1220.303
1123.148, 1235.568
1123.631, 1244.876
1124.113, 1249.222
1124.595, 1254.097
1125.077, 1258.706
1125.559, 1252.505
1126.041, 1233.671
1126.523, 1223.438
1127.005, 1242.421
1127.488, 1265.584
1127.970, 1262.948
1128.452, 1248.095
1128.934, 1231.107
1129.416, 1218.977
1129.898, 1227.209
1130.380, 1250.870
1130.862, 1265.318
1131.344, 1261.307
1131.827, 1251.432
1132.309, 1230.925
1132.791, 1219.941
1133.273, 1242.483
1133.755, 1265.310
1134.237, 1255.880
1134.719, 1230.008
1135.201, 1219.019
1135.683, 1225.297
1136.166, 1227.658
1136.648, 1219.563
1137.130, 1216.404
1137.612, 1222.265
1138.094, 1227.082
1138.576, 1228.340
1139.058, 1225.134
1139.540, 1213.325
1140.023, 1200.053
1140.505, 1208.444
1140.987, 1240.533
1141.469, 1246.167
1141.951, 1222.794
1142.433, 1216.607
1142.915, 1236.265
1143.397, 1249.605
1143.880, 1240.066
1144.362, 1226.353
1144.844, 1230.408
1145.326, 1243.929
1145.808, 1248.685
1146.290, 1248.547
1146.772, 1256.319
1147.254, 1267.809
1147.736, 1265.099
1148.219, 1247.396
1148.701, 1235.418
1149.183, 1241.854
1149.665, 1247.000
1150.147, 1230.641
1150.629, 1212.048
1151.111, 1205.432
1151.593, 1206.447
1152.075, 1213.055
1152.558, 1221.689
1153.040, 1227.165
1153.522, 1228.542
1154.004, 1224.377
1154.486, 1204.417
1154.968, 1194.283
1155.450, 1208.923
1155.932, 1220.091
1156.415, 1212.487
1156.897, 1201.576
1157.379, 1201.444
1157.861, 1209.254
1158.343, 1217.523
1158.825, 1227.460
1159.307, 1225.923
1159.789, 1211.281
1160.271, 1192.467
1160.754, 1168.937
1161.236, 1168.836
1161.718, 1207.931
1162.200, 1252.653
1162.682, 1264.613
1163.164, 1253.916
1163.646, 1238.664
1164.128, 1220.951
1164.610, 1203.834
1165.093, 1189.749
1165.575, 1187.745
1166.057, 1196.412
1166.539, 1199.943
1167.021, 1189.983
1167.503, 1178.682
1167.985, 1174.708
1168.467, 1173.193
1168.950, 1169.771
1169.432, 1167.709
1169.914, 1168.956
1170.396, 1174.626
1170.878, 1188.213
1171.360, 1209.216
1171.842, 1226.185
1172.324, 1243.764
1172.807, 1245.210
1173.289, 1216.319
1173.771, 1193.002
1174.253, 1186.409
1174.735, 1186.880
1175.217, 1189.927
1175.699, 1191.373
1176.181, 1180.285
1176.663, 1158.893
1177.146, 1162.537
1177.628, 1190.965
1178.110, 1210.739
1178.592, 1218.112
1179.074, 1208.821
1179.556, 1182.698
1180.038, 1165.219
1180.520, 1178.137
1181.002, 1200.720
1181.485, 1208.526
1181.967, 1204.996
1182.449, 1189.198
1182.931, 1169.324
1183.413, 1155.165
1183.895, 1150.077
1184.377, 1163.096
1184.859, 1195.311
1185.342, 1212.090
1185.824, 1184.510
1186.306, 1159.893
1186.788, 1146.431
1187.270, 1148.403
1187.752, 1184.562
1188.234, 1223.450
1188.716, 1232.948
1189.198, 1219.944
1189.681, 1200.525
1190.163, 1171.540
1190.645, 1166.841
1191.127, 1194.079
1191.609, 1205.468
1192.091, 1192.277
1192.573, 1180.976
1193.055, 1182.732
1193.537, 1191.200
1194.020, 1201.062
1194.502, 1211.358
1194.984, 1226.981
1195.466, 1238.285
1195.948, 1211.537
1196.430, 1164.580
1196.912, 1140.593
1197.394, 1142.972
1197.877, 1160.048
1198.359, 1187.003
1198.841, 1205.710
1199.323, 1199.780
1199.805, 1191.719
1200.287, 1195.082
1200.769, 1197.046
1201.251, 1186.314
1201.734, 1171.928
1202.216, 1164.033
1202.698, 1161.819
1203.180, 1159.510
1203.662, 1155.528
1204.144, 1163.321
1204.626, 1189.347
1205.108, 1203.743
1205.590, 1201.304
1206.073, 1192.606
1206.555, 1181.032
1207.037, 1173.520
1207.519, 1177.836
1208.001, 1185.866
1208.483, 1174.916
1208.965, 1157.880
1209.447, 1181.196
1209.929, 1223.224
1210.412, 1223.185
1210.894, 1185.412
1211.376, 1152.318
1211.858, 1138.297
1212.340, 1138.470
1212.822, 1158.989
1213.304, 1177.638
1213.786, 1183.819
1214.269, 1184.498
1214.751, 1179.721
1215.233, 1175.000
1215.715, 1175.104
1216.197, 1179.818
1216.679, 1190.596
1217.161, 1208.612
1217.643, 1206.536
1218.125, 1177.267
1218.608, 1161.073
1219.090, 1162.823
1219.572, 1169.241
1220.054, 1176.043
1220.536, 1183.617
1221.018, 1193.124
1221.500, 1198.287
1221.982, 1183.897
1222.464, 1162.371
1222.947, 1159.809
1223.429, 1166.962
1223.911, 1166.658
1224.393, 1160.553
1224.875, 1156.536
1225.357, 1156.809
1225.839, 1162.458
1226.321, 1178.289
1226.804, 1187.563
1227.286, 1177.484
1227.768, 1169.870
1228.250, 1178.381
1228.732, 1185.738
1229.214, 1177.398
1229.696, 1165.764
1230.178, 1170.736
1230.661, 1187.825
1231.143, 1187.751
1231.625, 1169.777
1232.107, 1161.713
1232.589, 1164.448
1233.071, 1177.215
1233.553, 1197.577
1234.035, 1200.997
1234.517, 1175.401
1235.000, 1151.894
1235.482, 1167.575
1235.964, 1186.817
1236.446, 1163.426
1236.928, 1131.597
1237.410, 1127.241
1237.892, 1138.410
1238.374, 1146.836
1238.856, 1151.761
1239.339, 1159.183
1239.821, 1170.284
1240.303, 1182.303
1240.785, 1200.421
1241.267, 1208.350
1241.749, 1204.369
1242.231, 1188.908
1242.713, 1158.526
1243.196, 1130.710
1243.678, 1120.223
1244.160, 1120.822
1244.642, 1122.390
1245.124, 1124.928
##END=



