##NAMES=Taramellite
##RRUFFID=R110043
##IDEAL CHEMISTRY=Ba_4_(Fe^3+^,Ti^4+^)_4_O_2_[B_2_Si_8_O_27_]Cl_0-1_
##LOCALITY=Big Creek, Fresno County, California, USA
##OWNER=RRUFF
##SOURCE=William W Pinch
##DESCRIPTION=Reddish brown blocky crystals frozen in quartz
##STATUS=The identification of this mineral has been confirmed by single-crystal X-ray diffraction.
##URL=rruff.info/R110043
184.1699, 1686.628
184.6520, 1679.422
185.1342, 1674.892
185.6163, 1674.962
186.0984, 1677.053
186.5805, 1678.590
187.0626, 1678.825
187.5447, 1678.301
188.0269, 1677.894
188.5090, 1677.760
188.9911, 1677.172
189.4732, 1675.293
189.9553, 1672.948
190.4374, 1671.897
190.9196, 1673.104
191.4017, 1674.671
191.8838, 1673.420
192.3659, 1669.163
192.8480, 1665.433
193.3301, 1664.796
193.8123, 1666.219
194.2944, 1665.668
194.7765, 1660.979
195.2586, 1655.335
195.7407, 1652.292
196.2228, 1651.896
196.7050, 1651.739
197.1871, 1649.902
197.6692, 1646.480
198.1513, 1643.609
198.6334, 1642.750
199.1155, 1641.650
199.5977, 1638.409
200.0798, 1633.032
200.5619, 1627.535
201.0440, 1624.115
201.5261, 1623.165
202.0082, 1621.601
202.4904, 1618.629
202.9725, 1615.225
203.4546, 1611.553
203.9367, 1607.758
204.4188, 1604.250
204.9009, 1601.807
205.3831, 1601.155
205.8652, 1599.300
206.3473, 1595.426
206.8294, 1590.982
207.3115, 1586.848
207.7936, 1583.139
208.2758, 1579.310
208.7579, 1574.531
209.2400, 1568.060
209.7221, 1562.274
210.2042, 1557.490
210.6863, 1553.054
211.1685, 1548.613
211.6506, 1544.051
212.1327, 1539.326
212.6148, 1534.262
213.0969, 1528.282
213.5790, 1523.392
214.0612, 1520.706
214.5433, 1518.353
215.0254, 1514.491
215.5075, 1508.810
215.9896, 1502.777
216.4718, 1498.653
216.9539, 1497.894
217.4360, 1495.441
217.9181, 1489.623
218.4002, 1482.860
218.8823, 1477.504
219.3645, 1474.144
219.8466, 1471.750
220.3287, 1468.997
220.8108, 1465.756
221.2929, 1462.832
221.7750, 1460.962
222.2572, 1459.231
222.7393, 1456.156
223.2214, 1451.237
223.7035, 1446.169
224.1856, 1443.519
224.6677, 1443.089
225.1499, 1442.135
225.6320, 1439.909
226.1141, 1436.745
226.5962, 1432.998
227.0783, 1428.507
227.5604, 1424.063
228.0426, 1420.480
228.5247, 1417.613
229.0068, 1414.940
229.4889, 1412.177
229.9710, 1409.499
230.4531, 1407.442
230.9353, 1406.440
231.4174, 1405.253
231.8995, 1402.356
232.3816, 1398.431
232.8637, 1395.426
233.3458, 1394.953
233.8280, 1396.188
234.3101, 1396.370
234.7922, 1394.972
235.2743, 1393.260
235.7564, 1391.714
236.2385, 1390.423
236.7207, 1389.607
237.2028, 1389.706
237.6849, 1390.408
238.1670, 1390.360
238.6491, 1389.269
239.1312, 1387.786
239.6134, 1385.968
240.0955, 1384.030
240.5776, 1382.277
241.0597, 1380.866
241.5418, 1379.797
242.0239, 1379.129
242.5061, 1379.169
242.9882, 1379.213
243.4703, 1379.061
243.9524, 1378.775
244.4345, 1378.344
244.9166, 1377.641
245.3988, 1376.919
245.8809, 1377.463
246.3630, 1380.533
246.8451, 1383.310
247.3272, 1385.736
247.8093, 1387.418
248.2915, 1387.688
248.7736, 1386.101
249.2557, 1383.181
249.7378, 1381.076
250.2199, 1380.313
250.7020, 1379.799
251.1842, 1379.705
251.6663, 1379.677
252.1484, 1379.351
252.6305, 1378.551
253.1126, 1377.319
253.5947, 1375.736
254.0769, 1373.355
254.5590, 1371.169
255.0411, 1369.046
255.5232, 1367.221
256.0053, 1365.994
256.4874, 1365.496
256.9695, 1365.506
257.4517, 1365.496
257.9338, 1365.181
258.4159, 1365.208
258.8980, 1365.348
259.3801, 1365.924
259.8622, 1367.600
260.3444, 1370.565
260.8265, 1373.887
261.3086, 1375.801
261.7907, 1375.288
262.2728, 1374.821
262.7549, 1374.306
263.2371, 1373.900
263.7192, 1373.877
264.2013, 1374.292
264.6834, 1374.751
265.1655, 1374.640
265.6476, 1373.615
266.1298, 1372.833
266.6119, 1372.355
267.0940, 1372.113
267.5761, 1371.895
268.0582, 1371.692
268.5403, 1372.029
269.0225, 1373.778
269.5046, 1377.519
269.9867, 1379.845
270.4688, 1379.413
270.9509, 1378.331
271.4330, 1378.532
271.9152, 1380.207
272.3973, 1382.086
272.8794, 1382.941
273.3615, 1382.670
273.8436, 1382.600
274.3257, 1382.609
274.8079, 1382.918
275.2900, 1384.182
275.7721, 1386.293
276.2542, 1387.561
276.7363, 1386.204
277.2184, 1382.657
277.7006, 1380.990
278.1827, 1382.544
278.6648, 1384.927
279.1469, 1387.043
279.6290, 1388.750
280.1111, 1389.157
280.5933, 1387.092
281.0754, 1383.481
281.5575, 1381.620
282.0396, 1382.758
282.5217, 1384.114
283.0038, 1383.935
283.4860, 1382.456
283.9681, 1380.918
284.4502, 1379.971
284.9323, 1379.210
285.4144, 1377.714
285.8965, 1375.079
286.3787, 1372.717
286.8608, 1372.113
287.3429, 1372.594
287.8250, 1371.406
288.3071, 1366.814
288.7892, 1361.315
289.2714, 1358.666
289.7535, 1359.103
290.2356, 1359.795
290.7177, 1359.898
291.1998, 1359.272
291.6819, 1357.188
292.1641, 1352.754
292.6462, 1348.267
293.1283, 1346.857
293.6104, 1348.111
294.0925, 1348.550
294.5746, 1346.509
295.0568, 1342.774
295.5389, 1338.536
296.0210, 1333.515
296.5031, 1329.260
296.9852, 1327.821
297.4673, 1328.308
297.9495, 1328.417
298.4316, 1326.916
298.9137, 1324.803
299.3958, 1323.592
299.8779, 1323.426
300.3600, 1323.636
300.8422, 1324.247
301.3243, 1324.868
301.8064, 1324.669
302.2885, 1322.616
302.7706, 1320.495
303.2527, 1321.079
303.7349, 1324.655
304.2170, 1326.801
304.6991, 1324.045
305.1812, 1319.278
305.6633, 1316.547
306.1454, 1316.913
306.6276, 1317.946
307.1097, 1317.296
307.5918, 1315.094
308.0739, 1313.634
308.5560, 1313.926
309.0381, 1315.125
309.5203, 1316.382
310.0024, 1317.730
310.4845, 1318.611
310.9666, 1318.492
311.4487, 1317.524
311.9308, 1316.371
312.4130, 1314.836
312.8951, 1313.639
313.3772, 1313.508
313.8593, 1314.311
314.3414, 1315.274
314.8235, 1316.267
315.3057, 1317.126
315.7878, 1317.353
316.2699, 1316.709
316.7520, 1315.896
317.2341, 1315.413
317.7162, 1315.158
318.1984, 1314.941
318.6805, 1315.089
319.1626, 1315.063
319.6447, 1313.557
320.1268, 1310.125
320.6089, 1307.500
321.0911, 1308.101
321.5732, 1310.264
322.0553, 1311.871
322.5374, 1312.735
323.0195, 1312.561
323.5016, 1310.356
323.9838, 1306.082
324.4659, 1302.896
324.9480, 1302.884
325.4301, 1303.978
325.9122, 1303.322
326.3943, 1300.341
326.8765, 1297.836
327.3586, 1298.350
327.8407, 1301.319
328.3228, 1303.539
328.8049, 1304.019
329.2870, 1303.875
329.7692, 1304.674
330.2513, 1306.273
330.7334, 1306.721
331.2155, 1303.748
331.6976, 1299.065
332.1797, 1296.963
332.6619, 1298.554
333.1440, 1300.853
333.6261, 1300.851
334.1082, 1299.594
334.5903, 1299.724
335.0724, 1303.841
335.5546, 1308.857
336.0367, 1310.437
336.5188, 1308.289
337.0009, 1305.617
337.4830, 1304.124
337.9651, 1303.343
338.4473, 1302.307
338.9294, 1300.488
339.4115, 1299.085
339.8936, 1299.419
340.3758, 1301.253
340.8579, 1302.782
341.3400, 1303.268
341.8221, 1303.192
342.3042, 1303.298
342.7863, 1303.586
343.2685, 1304.010
343.7506, 1304.615
344.2327, 1305.335
344.7148, 1306.214
345.1969, 1307.526
345.6790, 1308.279
346.1612, 1306.531
346.6433, 1302.731
347.1254, 1299.959
347.6075, 1298.820
348.0896, 1299.230
348.5717, 1302.013
349.0539, 1307.372
349.5360, 1311.752
350.0181, 1311.944
350.5002, 1308.828
350.9823, 1306.925
351.4644, 1307.371
351.9466, 1308.336
352.4287, 1308.675
352.9108, 1308.482
353.3929, 1308.142
353.8750, 1307.687
354.3571, 1307.361
354.8393, 1307.933
355.3214, 1310.235
355.8035, 1311.500
356.2856, 1309.906
356.7677, 1306.758
357.2498, 1304.513
357.7320, 1303.965
358.2141, 1303.905
358.6962, 1302.523
359.1783, 1299.522
359.6604, 1297.136
360.1425, 1295.844
360.6247, 1295.129
361.1068, 1294.876
361.5889, 1294.959
362.0710, 1294.492
362.5531, 1292.620
363.0352, 1289.338
363.5174, 1286.412
363.9995, 1283.952
364.4816, 1281.682
364.9637, 1279.711
365.4458, 1277.848
365.9279, 1275.602
366.4101, 1272.686
366.8922, 1269.294
367.3743, 1266.082
367.8564, 1262.765
368.3385, 1259.994
368.8206, 1258.405
369.3028, 1257.164
369.7849, 1255.412
370.2670, 1252.898
370.7491, 1249.724
371.2312, 1246.021
371.7133, 1241.777
372.1955, 1236.964
372.6776, 1230.473
373.1597, 1224.396
373.6418, 1220.469
374.1239, 1218.318
374.6060, 1215.986
375.0882, 1211.733
375.5703, 1205.676
376.0524, 1201.322
376.5345, 1199.752
377.0166, 1198.573
377.4987, 1198.034
377.9809, 1197.351
378.4630, 1195.141
378.9451, 1190.752
379.4272, 1185.410
379.9093, 1182.147
380.3914, 1182.919
380.8736, 1182.518
381.3557, 1180.122
381.8378, 1177.068
382.3199, 1174.164
382.8020, 1171.601
383.2841, 1169.307
383.7663, 1167.289
384.2484, 1165.626
384.7305, 1163.580
385.2126, 1160.294
385.6947, 1157.426
386.1768, 1155.992
386.6590, 1155.349
387.1411, 1154.103
387.6232, 1151.275
388.1053, 1147.435
388.5874, 1144.718
389.0695, 1143.766
389.5517, 1142.763
390.0338, 1141.199
390.5159, 1139.445
390.9980, 1137.827
391.4801, 1136.434
391.9622, 1135.195
392.4444, 1134.122
392.9265, 1133.277
393.4086, 1132.063
393.8907, 1130.259
394.3728, 1128.186
394.8549, 1126.127
395.3371, 1124.006
395.8192, 1121.493
396.3013, 1117.772
396.7834, 1113.507
397.2655, 1111.094
397.7477, 1111.086
398.2298, 1111.505
398.7119, 1111.531
399.1940, 1111.292
399.6761, 1110.975
400.1582, 1110.756
400.6404, 1110.179
401.1225, 1108.437
401.6046, 1105.609
402.0867, 1103.333
402.5688, 1101.965
403.0509, 1101.554
403.5331, 1102.470
404.0152, 1104.763
404.4973, 1106.281
404.9794, 1105.632
405.4615, 1103.726
405.9436, 1101.966
406.4258, 1100.480
406.9079, 1099.501
407.3900, 1099.469
407.8721, 1100.199
408.3542, 1100.625
408.8363, 1100.344
409.3185, 1100.046
409.8006, 1100.075
410.2827, 1100.444
410.7648, 1101.318
411.2469, 1102.946
411.7290, 1104.775
412.2112, 1105.433
412.6933, 1104.514
413.1754, 1103.657
413.6575, 1102.358
414.1396, 1101.663
414.6217, 1103.242
415.1039, 1107.165
415.5860, 1111.253
416.0681, 1113.328
416.5502, 1113.181
417.0323, 1113.041
417.5144, 1112.844
417.9966, 1112.711
418.4787, 1111.977
418.9608, 1111.419
419.4429, 1112.905
419.9250, 1117.521
420.4071, 1123.691
420.8893, 1126.964
421.3714, 1124.599
421.8535, 1123.361
422.3356, 1124.956
422.8177, 1126.641
423.2998, 1125.924
423.7820, 1122.739
424.2641, 1119.115
424.7462, 1117.020
425.2283, 1116.482
425.7104, 1117.001
426.1925, 1120.558
426.6747, 1123.005
427.1568, 1122.474
427.6389, 1120.225
428.1210, 1118.210
428.6031, 1117.355
429.0852, 1117.211
429.5674, 1116.734
430.0495, 1115.561
430.5316, 1115.359
431.0137, 1117.470
431.4958, 1120.068
431.9779, 1122.310
432.4601, 1124.037
432.9422, 1124.978
433.4243, 1124.653
433.9064, 1123.312
434.3885, 1122.047
434.8706, 1120.982
435.3528, 1119.809
435.8349, 1118.296
436.3170, 1116.541
436.7991, 1114.603
437.2812, 1112.225
437.7633, 1110.056
438.2455, 1108.656
438.7276, 1107.988
439.2097, 1108.021
439.6918, 1109.138
440.1739, 1110.364
440.6560, 1109.912
441.1382, 1107.625
441.6203, 1106.021
442.1024, 1106.755
442.5845, 1108.015
443.0666, 1107.421
443.5487, 1104.871
444.0309, 1102.325
444.5130, 1101.180
444.9951, 1101.369
445.4772, 1102.018
445.9593, 1103.186
446.4414, 1104.666
446.9236, 1107.122
447.4057, 1109.646
447.8878, 1110.702
448.3699, 1109.793
448.8520, 1107.951
449.3341, 1106.669
449.8163, 1105.897
450.2984, 1105.952
450.7805, 1107.392
451.2626, 1109.012
451.7447, 1110.232
452.2268, 1111.095
452.7090, 1111.849
453.1911, 1112.601
453.6732, 1113.465
454.1553, 1115.024
454.6374, 1118.235
455.1195, 1120.466
455.6017, 1120.232
456.0838, 1119.658
456.5659, 1120.626
457.0480, 1123.436
457.5301, 1126.884
458.0122, 1129.667
458.4944, 1131.817
458.9765, 1134.578
459.4586, 1138.405
459.9407, 1142.220
460.4228, 1144.982
460.9049, 1147.409
461.3871, 1150.968
461.8692, 1156.785
462.3513, 1162.914
462.8334, 1166.906
463.3155, 1168.821
463.7976, 1170.031
464.2798, 1170.289
464.7619, 1170.832
465.2440, 1173.211
465.7261, 1177.401
466.2082, 1182.296
466.6903, 1188.851
467.1725, 1195.227
467.6546, 1198.690
468.1367, 1199.181
468.6188, 1199.486
469.1009, 1201.551
469.5830, 1204.895
470.0652, 1207.122
470.5473, 1207.082
471.0294, 1207.521
471.5115, 1209.846
471.9936, 1212.730
472.4757, 1214.747
472.9579, 1215.457
473.4400, 1214.756
473.9221, 1212.302
474.4042, 1207.610
474.8863, 1203.966
475.3684, 1201.808
475.8506, 1200.058
476.3327, 1198.674
476.8148, 1197.360
477.2969, 1195.687
477.7790, 1193.452
478.2611, 1190.849
478.7433, 1188.316
479.2254, 1185.939
479.7075, 1183.416
480.1896, 1180.000
480.6717, 1177.039
481.1538, 1175.648
481.6360, 1175.538
482.1181, 1175.341
482.6002, 1174.202
483.0823, 1172.293
483.5644, 1169.941
484.0465, 1167.018
484.5287, 1164.155
485.0108, 1161.331
485.4929, 1158.896
485.9750, 1157.419
486.4571, 1157.152
486.9392, 1156.891
487.4214, 1155.802
487.9035, 1154.208
488.3856, 1152.867
488.8677, 1151.915
489.3498, 1151.013
489.8319, 1150.064
490.3141, 1148.948
490.7962, 1146.941
491.2783, 1142.538
491.7604, 1138.826
492.2425, 1137.896
492.7246, 1138.509
493.2068, 1138.195
493.6889, 1136.089
494.1710, 1133.403
494.6531, 1132.125
495.1352, 1133.102
495.6173, 1132.792
496.0995, 1130.041
496.5816, 1127.318
497.0637, 1125.908
497.5458, 1125.467
498.0279, 1125.166
498.5100, 1124.582
498.9922, 1123.591
499.4743, 1121.678
499.9564, 1118.189
500.4385, 1115.446
500.9206, 1113.787
501.4027, 1112.933
501.8849, 1113.442
502.3670, 1114.893
502.8491, 1115.489
503.3312, 1113.650
503.8133, 1110.148
504.2954, 1107.046
504.7776, 1104.444
505.2597, 1101.813
505.7418, 1098.610
506.2239, 1095.453
506.7060, 1093.113
507.1881, 1091.637
507.6703, 1090.999
508.1524, 1092.487
508.6345, 1094.386
509.1166, 1093.347
509.5987, 1088.858
510.0808, 1083.874
510.5630, 1080.663
511.0451, 1079.146
511.5272, 1077.931
512.0093, 1077.110
512.4914, 1076.426
512.9735, 1075.536
513.4556, 1074.840
513.9377, 1075.035
514.4199, 1076.237
514.9020, 1077.777
515.3841, 1079.016
515.8662, 1080.207
516.3483, 1079.364
516.8304, 1074.523
517.3126, 1069.681
517.7947, 1065.590
518.2768, 1062.314
518.7589, 1059.967
519.2410, 1058.631
519.7231, 1057.697
520.2053, 1055.998
520.6874, 1053.399
521.1695, 1052.244
521.6516, 1054.171
522.1337, 1055.884
522.6158, 1054.692
523.0980, 1051.502
523.5801, 1048.953
524.0622, 1048.727
524.5443, 1048.799
525.0264, 1046.401
525.5085, 1042.087
525.9907, 1039.432
526.4728, 1040.016
526.9549, 1042.031
527.4370, 1042.947
527.9191, 1042.714
528.4012, 1041.904
528.8834, 1040.033
529.3655, 1038.066
529.8476, 1036.968
530.3297, 1036.367
530.8118, 1034.883
531.2939, 1031.659
531.7761, 1027.791
532.2582, 1026.177
532.7403, 1028.460
533.2224, 1030.006
533.7045, 1030.845
534.1866, 1030.917
534.6688, 1029.936
535.1509, 1028.127
535.6330, 1026.052
536.1151, 1023.974
536.5972, 1022.006
537.0793, 1020.452
537.5615, 1019.384
538.0436, 1018.497
538.5257, 1018.171
539.0078, 1017.636
539.4899, 1016.070
539.9720, 1013.511
540.4542, 1011.008
540.9363, 1008.954
541.4184, 1007.330
541.9005, 1006.321
542.3826, 1005.885
542.8647, 1005.158
543.3469, 1003.530
543.8290, 1001.480
544.3111, 1000.283
544.7932, 1000.206
545.2753, 1000.191
545.7574, 1000.332
546.2396, 1000.297
546.7217, 999.5116
547.2038, 998.1819
547.6859, 997.3353
548.1680, 997.7986
548.6501, 999.1042
549.1323, 999.0836
549.6144, 996.4828
550.0965, 994.7321
550.5786, 994.9374
551.0607, 995.4495
551.5428, 994.6730
552.0250, 992.8260
552.5071, 991.7980
552.9892, 993.7612
553.4713, 997.2940
553.9534, 997.9811
554.4355, 995.2849
554.9177, 992.3563
555.3998, 989.8573
555.8819, 988.2256
556.3640, 988.5205
556.8461, 991.1899
557.3282, 992.1705
557.8104, 988.2952
558.2925, 982.8290
558.7746, 979.7998
559.2567, 979.2136
559.7388, 978.8270
560.2209, 977.3284
560.7031, 974.9915
561.1852, 972.6878
561.6673, 970.2543
562.1494, 968.0641
562.6315, 966.4565
563.1136, 964.8339
563.5958, 962.5375
564.0779, 959.7573
564.5600, 957.3597
565.0421, 956.0025
565.5242, 955.3774
566.0063, 954.5800
566.4885, 953.8340
566.9706, 952.2686
567.4527, 948.8986
567.9348, 945.2009
568.4169, 942.0002
568.8990, 939.3884
569.3812, 937.3151
569.8633, 936.1467
570.3454, 935.3271
570.8275, 934.0208
571.3096, 932.2578
571.7917, 930.5474
572.2739, 929.1439
572.7560, 927.8125
573.2381, 926.0136
573.7202, 923.4643
574.2023, 921.5693
574.6844, 920.8423
575.1666, 920.4720
575.6487, 920.3291
576.1308, 920.0689
576.6129, 918.8277
577.0950, 916.0969
577.5771, 912.7236
578.0593, 910.6123
578.5414, 910.1978
579.0235, 909.8507
579.5056, 909.1211
579.9877, 908.8002
580.4698, 909.9171
580.9520, 911.6897
581.4341, 912.2458
581.9162, 910.3719
582.3983, 907.7108
582.8804, 906.7764
583.3625, 907.3328
583.8447, 906.6102
584.3268, 903.3438
584.8089, 900.0770
585.2910, 899.9715
585.7732, 902.6509
586.2553, 904.1368
586.7374, 903.2385
587.2195, 901.9651
587.7017, 901.1417
588.1838, 900.7107
588.6659, 900.5314
589.1480, 900.5590
589.6301, 900.8189
590.1122, 901.3755
590.5944, 902.2673
591.0765, 903.0787
591.5586, 903.8582
592.0407, 904.4841
592.5228, 904.9958
593.0049, 905.3018
593.4871, 905.0433
593.9692, 904.1667
594.4513, 903.6925
594.9334, 905.0343
595.4155, 907.6778
595.8976, 909.2782
596.3798, 909.5309
596.8619, 909.5317
597.3440, 909.8842
597.8261, 910.4246
598.3082, 910.6149
598.7903, 909.9460
599.2725, 910.2205
599.7546, 913.0859
600.2367, 916.5259
600.7188, 918.1041
601.2009, 917.8970
601.6830, 917.8737
602.1652, 919.4760
602.6473, 922.0102
603.1294, 922.7491
603.6115, 919.8281
604.0936, 918.5654
604.5757, 920.4649
605.0579, 922.9256
605.5400, 924.7284
606.0221, 925.7006
606.5042, 925.8004
606.9863, 924.5447
607.4684, 923.0939
607.9506, 923.6624
608.4327, 926.1916
608.9148, 928.2950
609.3969, 929.5279
609.8790, 929.8176
610.3611, 928.5562
610.8433, 925.9171
611.3254, 924.2018
611.8075, 924.3577
612.2896, 924.7570
612.7717, 924.5150
613.2538, 923.9423
613.7360, 923.6710
614.2181, 923.8634
614.7002, 924.0827
615.1823, 923.8196
615.6644, 923.0576
616.1465, 922.0859
616.6287, 920.5569
617.1108, 919.3070
617.5929, 919.0173
618.0750, 918.8287
618.5571, 917.6208
619.0392, 915.2416
619.5214, 913.0666
620.0035, 912.4747
620.4856, 912.7525
620.9677, 912.2204
621.4498, 910.7901
621.9319, 909.3755
622.4141, 908.5452
622.8962, 907.8840
623.3783, 906.3261
623.8604, 903.3442
624.3425, 901.2538
624.8246, 901.3138
625.3068, 901.4703
625.7889, 900.4026
626.2710, 898.2687
626.7531, 895.5567
627.2352, 892.4971
627.7173, 889.5206
628.1995, 887.6644
628.6816, 887.2822
629.1637, 885.9543
629.6458, 882.7776
630.1279, 879.6355
630.6100, 877.2670
631.0922, 875.5963
631.5743, 874.5045
632.0564, 873.9617
632.5385, 873.9918
633.0206, 874.9473
633.5027, 876.4047
633.9849, 877.8068
634.4670, 879.0378
634.9491, 879.1154
635.4312, 876.9348
635.9133, 873.2701
636.3954, 871.7818
636.8776, 874.8970
637.3597, 877.0027
637.8418, 877.4837
638.3239, 877.2608
638.8060, 876.4562
639.2881, 875.5071
639.7703, 875.4518
640.2524, 877.0965
640.7345, 879.4875
641.2166, 880.6049
641.6987, 880.3724
642.1808, 880.7148
642.6630, 882.2475
643.1451, 884.0564
643.6272, 885.4744
644.1093, 886.5238
644.5914, 887.1639
645.0735, 886.8936
645.5557, 886.7778
646.0378, 887.4598
646.5199, 888.5413
647.0020, 889.8177
647.4841, 891.0612
647.9662, 891.1414
648.4484, 888.6623
648.9305, 884.3215
649.4126, 883.3279
649.8947, 888.4241
650.3768, 891.7126
650.8589, 890.8306
651.3411, 888.5672
651.8232, 886.3028
652.3053, 884.3291
652.7874, 883.0179
653.2695, 882.5170
653.7516, 882.8004
654.2338, 884.6153
654.7159, 887.4047
655.1980, 888.2950
655.6801, 886.2427
656.1622, 883.4207
656.6443, 882.2188
657.1265, 882.7462
657.6086, 882.8909
658.0907, 881.9822
658.5728, 881.5868
659.0549, 882.4649
659.5370, 883.8052
660.0192, 884.9142
660.5013, 885.6049
660.9834, 885.7861
661.4655, 884.9370
661.9476, 883.7737
662.4297, 884.9662
662.9119, 888.8945
663.3940, 892.1696
663.8761, 893.6786
664.3582, 894.1774
664.8403, 894.3360
665.3224, 894.1858
665.8046, 894.1245
666.2867, 894.4003
666.7688, 894.5855
667.2509, 894.0245
667.7330, 893.3522
668.2151, 893.7790
668.6973, 895.5371
669.1794, 897.6517
669.6615, 899.2708
670.1436, 900.3499
670.6257, 900.1381
671.1078, 897.6940
671.5900, 895.9051
672.0721, 896.6835
672.5542, 897.6299
673.0363, 896.4100
673.5184, 893.1682
674.0005, 890.6324
674.4827, 890.6442
674.9648, 891.3186
675.4469, 891.0591
675.9290, 889.8966
676.4111, 887.5104
676.8932, 883.7608
677.3754, 880.6456
677.8575, 880.8782
678.3396, 884.6786
678.8217, 886.1240
679.3038, 882.5389
679.7859, 879.9821
680.2681, 880.7761
680.7502, 882.1537
681.2323, 881.3808
681.7144, 878.3997
682.1965, 875.3107
682.6786, 873.2703
683.1608, 872.1209
683.6429, 872.1252
684.1250, 873.0660
684.6071, 872.8246
685.0892, 870.4444
685.5714, 867.8260
686.0535, 867.1099
686.5356, 868.3971
687.0177, 869.9978
687.4998, 872.9508
687.9819, 874.8741
688.4641, 874.3145
688.9462, 872.9733
689.4283, 872.7941
689.9104, 873.8270
690.3925, 874.4654
690.8746, 873.2852
691.3568, 871.0780
691.8389, 869.8662
692.3210, 869.7080
692.8031, 869.0596
693.2852, 867.2363
693.7673, 865.3370
694.2495, 864.6069
694.7316, 864.9659
695.2137, 864.9909
695.6958, 864.1735
696.1779, 863.5732
696.6600, 863.6345
697.1422, 864.0523
697.6243, 864.7714
698.1064, 865.5734
698.5885, 865.6874
699.0706, 864.3290
699.5527, 862.2043
700.0349, 861.6017
700.5170, 862.8942
700.9991, 863.1721
701.4812, 861.0976
701.9633, 858.9432
702.4454, 859.0877
702.9276, 860.7982
703.4097, 861.6078
703.8918, 860.2123
704.3739, 859.2156
704.8560, 859.8702
705.3381, 861.4085
705.8203, 863.2909
706.3024, 865.1999
706.7845, 866.3713
707.2666, 866.1775
707.7487, 865.2561
708.2308, 865.5693
708.7130, 867.6075
709.1951, 868.4929
709.6772, 866.9891
710.1593, 865.4635
710.6414, 865.9634
711.1235, 867.4620
711.6057, 867.6006
712.0878, 865.2184
712.5699, 863.2959
713.0520, 863.3743
713.5341, 864.6520
714.0162, 866.8489
714.4984, 869.4577
714.9805, 870.8817
715.4626, 870.1413
715.9447, 868.2181
716.4268, 867.1164
716.9089, 866.8971
717.3911, 867.2437
717.8732, 868.5197
718.3553, 869.8584
718.8374, 870.9881
719.3195, 871.8757
719.8016, 872.5068
720.2838, 872.9154
720.7659, 872.8608
721.2480, 872.3135
721.7301, 871.1875
722.2122, 868.7195
722.6943, 865.5106
723.1765, 863.6158
723.6586, 863.9418
724.1407, 865.3850
724.6228, 866.3044
725.1049, 866.6469
725.5870, 866.9941
726.0692, 867.1800
726.5513, 867.6406
727.0334, 869.0373
727.5155, 870.4532
727.9976, 870.8141
728.4797, 870.0535
728.9619, 869.3178
729.4440, 868.6038
729.9261, 868.5321
730.4082, 870.0157
730.8903, 872.5496
731.3724, 875.2036
731.8546, 877.6385
732.3367, 879.2177
732.8188, 879.0764
733.3009, 877.4210
733.7830, 876.8434
734.2651, 878.1414
734.7473, 878.7969
735.2294, 877.3221
735.7115, 875.7949
736.1936, 875.7602
736.6757, 877.0112
737.1578, 878.3912
737.6400, 879.8108
738.1221, 880.9207
738.6042, 881.4818
739.0863, 881.5795
739.5684, 881.1397
740.0505, 880.2754
740.5327, 879.5886
741.0148, 879.5207
741.4969, 879.9279
741.9790, 880.4480
742.4611, 881.2103
742.9432, 881.5656
743.4254, 881.0398
743.9075, 880.6147
744.3896, 880.4018
744.8717, 880.7691
745.3538, 882.7470
745.8359, 887.2735
746.3181, 890.8489
746.8002, 890.8490
747.2823, 889.8809
747.7644, 891.0284
748.2465, 893.7042
748.7286, 895.1315
749.2108, 894.0417
749.6929, 892.3093
750.1750, 892.8679
750.6571, 895.8459
751.1392, 898.6759
751.6213, 901.8730
752.1035, 903.7145
752.5856, 902.5024
753.0677, 900.2592
753.5498, 899.2844
754.0319, 899.6210
754.5140, 900.8040
754.9962, 903.3676
755.4783, 906.0648
755.9604, 908.2906
756.4425, 910.0801
756.9246, 911.3390
757.4067, 912.1761
757.8889, 913.2859
758.3710, 915.4485
758.8531, 918.1595
759.3352, 919.4808
759.8173, 919.1746
760.2994, 919.6035
760.7816, 921.7546
761.2637, 923.8575
761.7458, 924.0745
762.2279, 922.8983
762.7100, 922.7755
763.1921, 924.5452
763.6743, 926.1557
764.1564, 927.5042
764.6385, 928.2187
765.1206, 927.5399
765.6027, 925.9897
766.0848, 924.8329
766.5670, 924.6425
767.0491, 925.2014
767.5312, 926.9686
768.0133, 929.4289
768.4954, 929.3995
768.9775, 926.4431
769.4597, 923.0554
769.9418, 920.3004
770.4239, 917.9537
770.9060, 915.6302
771.3881, 913.2949
771.8702, 911.1527
772.3524, 909.2857
772.8345, 907.4882
773.3166, 906.0333
773.7987, 904.4145
774.2808, 901.9244
774.7629, 898.5768
775.2451, 895.1444
775.7272, 892.0906
776.2093, 889.3106
776.6914, 886.7429
777.1735, 884.3384
777.6556, 882.0873
778.1378, 880.0050
778.6199, 877.2260
779.1020, 872.7430
779.5841, 867.1415
780.0662, 863.6067
780.5483, 864.0192
781.0305, 862.9133
781.5126, 858.5318
781.9947, 854.0437
782.4768, 851.1401
782.9589, 849.1769
783.4410, 846.9267
783.9232, 844.1267
784.4053, 840.7768
784.8874, 836.1974
785.3695, 831.5184
785.8516, 828.3937
786.3337, 826.4928
786.8159, 824.2766
787.2980, 821.1404
787.7801, 818.0524
788.2622, 816.4330
788.7443, 816.2230
789.2264, 814.9639
789.7086, 811.9796
790.1907, 809.8954
790.6728, 810.3442
791.1549, 811.1370
791.6370, 809.9876
792.1191, 807.1404
792.6013, 804.2871
793.0834, 801.9207
793.5655, 799.2591
794.0476, 795.2711
794.5297, 791.3649
795.0118, 789.3048
795.4940, 788.7672
795.9761, 788.0689
796.4582, 786.2820
796.9403, 783.8857
797.4224, 781.6592
797.9045, 779.4954
798.3867, 776.4799
798.8688, 772.3851
799.3509, 768.9570
799.8330, 767.2195
800.3151, 766.4747
800.7972, 765.5530
801.2794, 764.5478
801.7615, 762.9659
802.2436, 760.4384
802.7257, 757.8468
803.2078, 755.2557
803.6899, 752.8583
804.1721, 750.7855
804.6542, 749.0803
805.1363, 747.7737
805.6184, 747.0671
806.1005, 746.5724
806.5826, 746.0906
807.0648, 745.4794
807.5469, 744.3671
808.0290, 742.7137
808.5111, 740.7160
808.9932, 738.4077
809.4753, 736.1878
809.9575, 735.2652
810.4396, 736.0510
810.9217, 736.2637
811.4038, 735.6832
811.8859, 734.7023
812.3680, 733.3651
812.8502, 731.8054
813.3323, 730.0804
813.8144, 728.0928
814.2965, 726.6993
814.7786, 726.3197
815.2607, 726.3386
815.7429, 726.7326
816.2250, 727.1423
816.7071, 727.0938
817.1892, 726.5157
817.6713, 725.5889
818.1534, 724.2244
818.6356, 722.9457
819.1177, 723.0441
819.5998, 724.3067
820.0819, 725.1525
820.5640, 725.3255
821.0461, 724.7489
821.5283, 723.1223
822.0104, 720.9738
822.4925, 720.0148
822.9746, 721.3387
823.4567, 721.3857
823.9388, 718.7504
824.4210, 716.4614
824.9031, 716.0972
825.3852, 716.4265
825.8673, 715.4275
826.3494, 712.8788
826.8315, 711.6620
827.3137, 714.5950
827.7958, 718.0202
828.2779, 718.9182
828.7600, 718.0526
829.2421, 716.3392
829.7242, 714.3090
830.2064, 713.5042
830.6885, 715.3828
831.1706, 718.4846
831.6527, 718.8149
832.1348, 716.2468
832.6169, 714.7137
833.0991, 714.7516
833.5812, 715.6096
834.0633, 717.1283
834.5454, 718.9579
835.0275, 720.3892
835.5096, 721.4053
835.9918, 721.9805
836.4739, 722.1329
836.9560, 721.8179
837.4381, 720.6245
837.9202, 719.1985
838.4023, 718.0830
838.8845, 717.4327
839.3666, 717.4675
839.8487, 719.0672
840.3308, 720.4645
840.8129, 718.8803
841.2950, 716.0898
841.7772, 716.2577
842.2593, 719.5013
842.7414, 722.2347
843.2235, 722.1740
843.7056, 720.3639
844.1877, 718.6094
844.6699, 716.8331
845.1520, 716.2821
845.6341, 717.4014
846.1162, 718.6478
846.5983, 719.8166
847.0804, 720.3590
847.5626, 719.0234
848.0447, 715.6109
848.5268, 713.6678
849.0089, 714.4103
849.4910, 715.2473
849.9731, 714.6716
850.4553, 714.4918
850.9374, 717.5400
851.4195, 722.5334
851.9016, 724.8693
852.3837, 721.9574
852.8658, 718.0778
853.3480, 717.3224
853.8301, 718.1659
854.3122, 717.9548
854.7943, 716.6797
855.2764, 715.3766
855.7585, 714.4938
856.2407, 713.9277
856.7228, 713.5173
857.2049, 713.2829
857.6870, 713.5736
858.1691, 714.5424
858.6512, 715.5602
859.1334, 717.1732
859.6155, 717.6113
860.0976, 714.1317
860.5797, 707.8680
861.0618, 705.1981
861.5439, 708.3966
862.0261, 711.2868
862.5082, 713.6229
862.9903, 715.0881
863.4724, 714.9802
863.9545, 714.0812
864.4366, 713.6689
864.9188, 714.0446
865.4009, 714.3842
865.8830, 714.0670
866.3651, 713.4935
866.8472, 712.8456
867.3293, 712.3618
867.8115, 712.9949
868.2936, 714.7153
868.7757, 715.6565
869.2578, 714.2766
869.7399, 711.5367
870.2220, 709.6932
870.7042, 708.7582
871.1863, 708.7000
871.6684, 709.8622
872.1505, 710.5543
872.6326, 709.6054
873.1147, 708.0375
873.5969, 707.6916
874.0790, 708.9629
874.5611, 709.3028
875.0432, 707.6530
875.5253, 706.5047
876.0074, 706.6844
876.4896, 707.3746
876.9717, 708.2598
877.4538, 709.0438
877.9359, 708.8977
878.4180, 707.0789
878.9001, 705.4440
879.3823, 705.7236
879.8644, 706.3630
880.3465, 705.2614
880.8286, 702.9710
881.3107, 701.2930
881.7928, 700.8915
882.2750, 701.2330
882.7571, 701.9442
883.2392, 702.8651
883.7213, 703.3909
884.2034, 703.5588
884.6855, 703.9185
885.1677, 704.5579
885.6498, 705.9018
886.1319, 708.7494
886.6140, 712.0341
887.0961, 711.8069
887.5782, 705.7928
888.0604, 702.1871
888.5425, 703.0948
889.0246, 703.5618
889.5067, 700.1202
889.9888, 696.0805
890.4709, 695.9229
890.9531, 699.7574
891.4352, 702.0017
891.9173, 700.9194
892.3994, 698.7770
892.8815, 695.2307
893.3636, 692.0101
893.8458, 691.0314
894.3279, 691.9017
894.8100, 693.0623
895.2921, 693.8932
895.7742, 694.5328
896.2563, 695.3689
896.7385, 695.9699
897.2206, 695.3146
897.7027, 693.6854
898.1848, 692.0471
898.6669, 690.7540
899.1490, 690.5876
899.6312, 692.6555
900.1133, 695.9937
900.5954, 696.6989
901.0775, 694.5289
901.5596, 692.4561
902.0417, 690.8458
902.5239, 689.4586
903.0060, 688.0651
903.4881, 686.8973
903.9702, 686.5771
904.4523, 687.5840
904.9344, 687.4745
905.4166, 684.8785
905.8987, 682.9333
906.3808, 682.2750
906.8629, 682.5722
907.3450, 684.2588
907.8271, 686.7331
908.3093, 687.7366
908.7914, 686.1066
909.2735, 684.1746
909.7556, 682.7366
910.2377, 681.6545
910.7198, 681.0511
911.2020, 680.6354
911.6841, 679.6786
912.1662, 678.0695
912.6483, 676.9228
913.1304, 677.6318
913.6125, 678.9568
914.0947, 678.7179
914.5768, 677.3799
915.0589, 676.5482
915.5410, 676.4250
916.0231, 675.8165
916.5052, 673.8242
916.9874, 671.7256
917.4695, 672.4883
917.9516, 676.2833
918.4337, 678.0224
918.9158, 677.3317
919.3979, 676.1329
919.8801, 674.8542
920.3622, 673.7505
920.8443, 673.1017
921.3264, 672.8851
921.8085, 672.8947
922.2906, 673.6563
922.7728, 673.7814
923.2549, 673.1288
923.7370, 671.9540
924.2191, 669.7200
924.7012, 667.3367
925.1833, 666.2158
925.6655, 666.5482
926.1476, 667.2250
926.6297, 668.5529
927.1118, 669.3987
927.5939, 668.5205
928.0760, 667.3344
928.5582, 667.5572
929.0403, 668.9698
929.5224, 670.2125
930.0045, 670.6838
930.4866, 670.8904
930.9688, 671.5155
931.4509, 672.0378
931.9330, 671.3088
932.4151, 669.7552
932.8972, 668.6188
933.3793, 668.3118
933.8615, 669.0878
934.3436, 671.4093
934.8257, 674.4230
935.3078, 676.0730
935.7899, 676.4090
936.2720, 675.9413
936.7542, 674.6349
937.2363, 673.7526
937.7184, 674.1475
938.2005, 674.4766
938.6826, 672.2892
939.1647, 667.4584
939.6469, 666.4929
940.1290, 671.9875
940.6111, 674.9243
941.0932, 671.8576
941.5753, 668.1092
942.0574, 667.6259
942.5396, 669.2379
943.0217, 669.6645
943.5038, 668.3795
943.9859, 667.5235
944.4680, 667.4928
944.9501, 667.6483
945.4323, 667.7324
945.9144, 667.9034
946.3965, 668.2819
946.8786, 668.9059
947.3607, 669.8653
947.8428, 671.3699
948.3250, 672.8341
948.8071, 673.7955
949.2892, 674.6882
949.7713, 676.4076
950.2534, 678.2220
950.7355, 678.1239
951.2177, 675.9111
951.6998, 674.4534
952.1819, 676.4180
952.6640, 679.6531
953.1461, 681.3895
953.6282, 682.0622
954.1104, 682.7189
954.5925, 683.4078
955.0746, 683.3552
955.5567, 682.1600
956.0388, 680.8834
956.5209, 681.0182
957.0031, 682.3231
957.4852, 683.5800
957.9673, 684.7998
958.4494, 686.2725
958.9315, 688.1286
959.4136, 689.7800
959.8958, 690.7806
960.3779, 691.3151
960.8600, 691.8195
961.3421, 692.2462
961.8242, 692.9151
962.3063, 694.0402
962.7885, 694.8362
963.2706, 694.7900
963.7527, 694.6433
964.2348, 695.1104
964.7169, 696.1383
965.1990, 697.3527
965.6812, 698.9572
966.1633, 700.4340
966.6454, 701.7380
967.1275, 702.9642
967.6096, 704.5292
968.0917, 705.8276
968.5739, 705.8338
969.0560, 704.5811
969.5381, 703.7875
970.0202, 704.2405
970.5023, 704.7117
970.9844, 704.5436
971.4666, 704.4241
971.9487, 705.2512
972.4308, 706.4619
972.9129, 706.6445
973.3950, 705.4681
973.8771, 704.8021
974.3593, 706.9459
974.8414, 708.8730
975.3235, 706.6882
975.8056, 703.2601
976.2877, 703.1165
976.7698, 706.0812
977.2520, 709.5045
977.7341, 712.2023
978.2162, 713.5915
978.6983, 712.0025
979.1804, 709.2105
979.6625, 708.7581
980.1447, 710.1229
980.6268, 711.1818
981.1089, 711.5689
981.5910, 712.7558
982.0731, 715.9039
982.5552, 719.5201
983.0374, 721.2716
983.5195, 721.1180
984.0016, 717.9627
984.4837, 711.8025
984.9658, 707.6036
985.4479, 707.0750
985.9301, 707.4811
986.4122, 706.1840
986.8943, 706.8495
987.3764, 704.2245
987.8585, 707.4245
988.3406, 709.2394
988.8228, 709.2521
989.3049, 708.4366
989.7870, 706.7147
990.2691, 705.2578
990.7512, 705.8809
991.2333, 704.2894
991.7155, 702.9460
992.1976, 703.3356
992.6797, 702.3536
993.1618, 700.9711
993.6439, 701.9410
994.1260, 702.3925
994.6082, 702.2659
995.0903, 701.2903
995.5724, 699.4282
996.0545, 697.9452
996.5366, 697.3636
997.0187, 696.4792
997.5009, 694.0214
997.9830, 692.3098
998.4651, 693.7160
998.9472, 696.4385
999.4293, 697.2669
999.9114, 695.7054
1000.394, 694.0767
1000.876, 693.0012
1001.358, 692.0051
1001.840, 690.9616
1002.322, 689.8671
1002.804, 688.4162
1003.286, 686.9851
1003.768, 686.6439
1004.250, 687.7819
1004.733, 688.2213
1005.215, 686.1576
1005.697, 683.6548
1006.179, 681.6638
1006.661, 680.5432
1007.143, 681.4515
1007.625, 683.6061
1008.107, 684.3329
1008.590, 682.4081
1009.072, 680.3502
1009.554, 680.7711
1010.036, 681.8024
1010.518, 680.8625
1011.000, 678.9256
1011.482, 678.0816
1011.964, 678.5062
1012.446, 679.0657
1012.929, 679.1590
1013.411, 678.9974
1013.893, 679.0664
1014.375, 678.9579
1014.857, 677.2496
1015.339, 674.6207
1015.821, 673.6380
1016.303, 674.7181
1016.786, 676.1094
1017.268, 676.6670
1017.750, 676.6020
1018.232, 676.1146
1018.714, 675.3073
1019.196, 674.6077
1019.678, 674.0131
1020.160, 673.3305
1020.642, 672.5033
1021.125, 671.6520
1021.607, 670.8593
1022.089, 670.1307
1022.571, 669.4936
1023.053, 668.9382
1023.535, 668.3262
1024.017, 667.6407
1024.499, 667.3598
1024.981, 667.7387
1025.464, 667.6935
1025.946, 666.0355
1026.428, 663.5746
1026.910, 663.0886
1027.392, 664.8700
1027.874, 665.7470
1028.356, 665.4333
1028.838, 665.0339
1029.321, 664.8102
1029.803, 665.0430
1030.285, 666.2745
1030.767, 668.0208
1031.249, 668.0058
1031.731, 665.6870
1032.213, 663.5838
1032.695, 661.5237
1033.177, 660.3217
1033.660, 660.4974
1034.142, 661.3221
1034.624, 662.2361
1035.106, 663.1316
1035.588, 663.2601
1036.070, 662.1790
1036.552, 661.4518
1037.034, 661.7460
1037.516, 661.2330
1037.999, 658.2834
1038.481, 655.2457
1038.963, 655.1205
1039.445, 657.3749
1039.927, 657.8379
1040.409, 655.1664
1040.891, 653.0737
1041.373, 651.5496
1041.856, 650.6536
1042.338, 650.4990
1042.820, 650.9338
1043.302, 652.3138
1043.784, 654.3620
1044.266, 654.9822
1044.748, 653.3398
1045.230, 651.5761
1045.713, 649.0081
1046.195, 647.2963
1046.677, 647.2209
1047.159, 648.2361
1047.641, 650.8456
1048.123, 654.3660
1048.605, 654.5491
1049.087, 647.9756
1049.569, 643.4547
1050.052, 644.0215
1050.534, 644.7943
1051.016, 643.3533
1051.498, 641.0937
1051.980, 639.4000
1052.462, 638.3998
1052.944, 638.0229
1053.426, 638.2455
1053.908, 639.1023
1054.391, 641.3214
1054.873, 643.3403
1055.355, 644.8572
1055.837, 645.4164
1056.319, 644.1530
1056.801, 641.4058
1057.283, 638.8221
1057.765, 636.1497
1058.248, 635.2118
1058.730, 638.4781
1059.212, 641.4156
1059.694, 641.2099
1060.176, 639.5085
1060.658, 638.2473
1061.140, 637.4491
1061.622, 636.0836
1062.104, 633.4422
1062.587, 631.4765
1063.069, 631.3369
1063.551, 631.5696
1064.033, 631.3604
1064.515, 631.0395
1064.997, 631.2360
1065.479, 631.7398
1065.961, 631.4582
1066.443, 629.5927
1066.926, 628.6895
1067.408, 630.9803
1067.890, 633.1633
1068.372, 632.9528
1068.854, 631.7881
1069.336, 630.9176
1069.818, 630.7211
1070.300, 631.8836
1070.783, 635.0608
1071.265, 637.3245
1071.747, 636.7221
1072.229, 635.6045
1072.711, 635.2132
1073.193, 635.1910
1073.675, 635.1352
1074.157, 635.0425
1074.640, 635.1500
1075.122, 635.5998
1075.604, 635.6510
1076.086, 634.4071
1076.568, 633.3328
1077.050, 633.6299
1077.532, 634.2561
1078.014, 634.0231
1078.496, 633.1922
1078.979, 632.6212
1079.461, 632.5211
1079.943, 632.8425
1080.425, 633.8054
1080.907, 634.8885
1081.389, 636.3080
1081.871, 637.2767
1082.353, 636.8804
1082.836, 635.4871
1083.318, 633.8994
1083.800, 632.3092
1084.282, 630.7656
1084.764, 628.8221
1085.246, 627.5318
1085.728, 627.8522
1086.210, 628.6526
1086.693, 628.9099
1087.175, 628.9344
1087.657, 629.7535
1088.139, 631.4093
1088.621, 631.9275
1089.103, 629.6984
1089.585, 627.3303
1090.067, 625.3860
1090.549, 624.2791
1091.031, 625.4142
1091.514, 627.0242
1091.996, 625.8705
1092.478, 622.0338
1092.960, 619.7013
1093.442, 620.9741
1093.924, 622.6185
1094.406, 624.1473
1094.888, 624.8917
1095.371, 624.4245
1095.853, 622.9206
1096.335, 619.9758
1096.817, 616.1027
1097.299, 613.7473
1097.781, 614.5379
1098.263, 614.3549
1098.745, 610.7891
1099.228, 607.2420
1099.710, 604.8032
1100.192, 603.8273
1100.674, 605.7538
1101.156, 609.3610
1101.638, 610.6243
1102.120, 608.2201
1102.602, 605.6064
1103.084, 602.7372
1103.567, 600.9231
1104.049, 601.8561
1104.531, 602.9850
1105.013, 601.8153
1105.495, 599.1891
1105.977, 597.2959
1106.459, 596.4143
1106.941, 596.0905
1107.423, 596.8997
1107.906, 597.3536
1108.388, 596.6052
1108.870, 595.8506
1109.352, 596.2262
1109.834, 596.9869
1110.316, 596.9557
1110.798, 596.0782
1111.280, 594.1944
1111.763, 589.7548
1112.245, 586.6370
1112.727, 586.4453
1113.209, 586.3661
1113.691, 584.4459
1114.173, 582.2635
1114.655, 582.2689
1115.137, 584.2198
1115.620, 584.7175
1116.102, 582.6213
1116.584, 581.0866
1117.066, 580.6953
1117.548, 580.0315
1118.030, 578.1384
1118.512, 576.2795
1118.994, 575.8864
1119.476, 574.6879
1119.958, 573.9828
1120.441, 574.1297
1120.923, 573.2636
1121.405, 574.1658
1121.887, 574.7606
1122.369, 574.3895
1122.851, 573.8577
1123.333, 573.9244
1123.815, 574.0479
1124.298, 572.7782
1124.780, 569.8585
1125.262, 569.0889
1125.744, 571.1713
1126.226, 572.8956
1126.708, 573.8307
1127.190, 573.9450
1127.672, 573.1271
1128.155, 571.6711
1128.637, 569.8730
1129.119, 567.8463
1129.601, 566.7692
1130.083, 566.7856
1130.565, 565.7564
1131.047, 563.2366
1131.529, 562.1144
1132.011, 563.7744
1132.494, 565.5380
1132.976, 564.4977
1133.458, 565.2856
1133.940, 565.0615
1134.422, 563.8626
1134.904, 563.7829
1135.386, 561.4954
1135.868, 559.5779
1136.350, 558.7399
1136.833, 558.7003
1137.315, 559.3141
1137.797, 560.2568
1138.279, 561.1453
1138.761, 561.8759
1139.243, 562.1085
1139.725, 561.8456
1140.207, 560.8987
1140.690, 559.3845
1141.172, 558.1078
1141.654, 557.4503
1142.136, 557.2557
1142.618, 557.4164
1143.100, 557.8682
1143.582, 558.8767
1144.064, 559.9269
1144.547, 559.8742
1145.029, 558.8455
1145.511, 557.3918
1145.993, 555.7887
1146.475, 554.6517
1146.957, 554.5499
1147.439, 554.6790
1147.921, 554.2149
1148.403, 553.5584
1148.885, 553.0364
1149.368, 552.7674
1149.850, 553.2842
1150.332, 554.2533
1150.814, 554.0371
1151.296, 551.6847
1151.778, 549.8231
1152.260, 550.8942
1152.742, 552.0006
1153.225, 550.7772
1153.707, 548.8881
1154.189, 547.9540
1154.671, 547.9425
1155.153, 548.4870
1155.635, 549.5226
1156.117, 550.2914
1156.599, 550.7178
1157.082, 550.6125
1157.564, 549.3333
1158.046, 548.1424
1158.528, 547.8722
1159.010, 548.1261
1159.492, 548.4379
1159.974, 548.7539
1160.456, 548.9568
1160.938, 549.0348
1161.421, 548.9939
1161.903, 548.5533
1162.385, 548.4037
1162.867, 549.2090
1163.349, 549.7822
1163.831, 548.7885
1164.313, 547.1345
1164.795, 547.2877
1165.277, 549.7004
1165.760, 549.7966
1166.242, 546.1968
1166.724, 544.9730
1167.206, 547.9219
1167.688, 550.4631
1168.170, 550.0679
1168.652, 551.4352
1169.134, 548.9768
1169.617, 550.3331
1170.099, 549.5526
1170.581, 546.5909
1171.063, 545.5051
1171.545, 546.5521
1172.027, 547.6149
1172.509, 548.0515
1172.991, 548.6281
1173.474, 550.0187
1173.956, 551.3713
1174.438, 551.2895
1174.920, 549.9460
1175.402, 547.0589
1175.884, 543.4699
1176.366, 542.6553
1176.848, 544.5224
1177.330, 545.7611
1177.813, 544.9776
1178.295, 543.7608
1178.777, 543.2546
1179.259, 543.4546
1179.741, 545.2423
1180.223, 547.0966
1180.705, 546.4229
1181.187, 544.1589
1181.669, 542.3469
1182.152, 541.4770
1182.634, 541.3959
1183.116, 542.3041
1183.598, 542.9696
1184.080, 542.1135
1184.562, 541.4147
1185.044, 542.3688
1185.526, 543.7400
1186.009, 544.3699
1186.491, 544.2807
1186.973, 543.7693
1187.455, 542.8640
1187.937, 541.9252
1188.419, 540.2454
1188.901, 539.6935
1189.383, 542.3284
1189.865, 544.1819
1190.348, 542.3889
1190.830, 539.4699
1191.312, 537.9321
1191.794, 537.6231
1192.276, 537.8408
1192.758, 538.8809
1193.240, 539.4278
1193.722, 539.3483
1194.204, 539.1945
1194.687, 539.1619
1195.169, 538.7916
1195.651, 537.6463
1196.133, 536.4302
1196.615, 536.4073
1197.097, 535.6781
1197.579, 535.3101
1198.061, 535.4559
1198.544, 534.8909
1199.026, 535.3447
1199.508, 535.4772
1199.990, 534.8656
1200.472, 534.5201
1200.954, 535.3257
1201.436, 536.4196
1201.918, 536.4749
1202.401, 535.8900
1202.883, 535.2061
1203.365, 534.6383
1203.847, 534.6248
1204.329, 535.1593
1204.811, 536.2555
1205.293, 537.8527
1205.775, 538.5258
1206.257, 536.5569
1206.740, 534.3563
1207.222, 533.4713
1207.704, 533.3377
1208.186, 534.2047
1208.668, 535.0222
1209.150, 533.8459
1209.632, 531.0936
1210.114, 529.6619
1210.596, 530.6349
1211.079, 531.4732
1211.561, 531.6292
1212.043, 531.6501
1212.525, 532.1104
1213.007, 532.0070
1213.489, 529.9310
1213.971, 527.4774
1214.453, 527.3561
1214.936, 529.3935
1215.418, 530.4294
1215.900, 530.1805
1216.382, 529.9838
1216.864, 529.9357
1217.346, 529.8204
1217.828, 529.5771
1218.310, 529.2042
1218.792, 528.6731
1219.275, 528.0999
1219.757, 527.4202
1220.239, 526.9359
1220.721, 528.9620
1221.203, 532.6158
1221.685, 532.9617
1222.167, 530.0486
1222.649, 527.6712
1223.131, 527.1554
1223.614, 527.2345
1224.096, 527.0420
1224.578, 526.7364
1225.060, 526.1440
1225.542, 525.8440
1226.024, 527.1652
1226.506, 528.8738
1226.988, 528.9984
1227.471, 527.6911
1227.953, 525.9515
1228.435, 524.0171
1228.917, 522.9437
1229.399, 524.1384
1229.881, 524.8181
1230.363, 523.9362
1230.845, 522.4306
1231.328, 519.9236
1231.810, 517.7769
1232.292, 518.0764
1232.774, 520.0934
1233.256, 520.8345
1233.738, 519.7459
1234.220, 519.8914
1234.702, 521.9065
1235.184, 522.9578
1235.667, 522.2126
1236.149, 521.8603
1236.631, 523.2384
1237.113, 524.5270
1237.595, 523.4076
1238.077, 520.7513
1238.559, 518.9213
1239.041, 517.9044
1239.523, 518.1445
1240.006, 519.1714
1240.488, 518.3569
1240.970, 515.5693
1241.452, 513.5150
1241.934, 513.5211
1242.416, 514.2238
1242.898, 514.5743
1243.380, 514.7665
1243.863, 514.8591
1244.345, 515.0164
1244.827, 515.6189
1245.309, 516.3177
1245.791, 516.5170
1246.273, 516.1927
1246.755, 515.6929
1247.237, 515.0409
1247.719, 514.4379
1248.202, 514.0385
1248.684, 513.5367
1249.166, 512.6669
1249.648, 511.8840
1250.130, 511.5407
1250.612, 511.3181
1251.094, 510.6438
1251.576, 509.7141
1252.058, 509.9654
1252.541, 511.6823
1253.023, 512.5013
1253.505, 512.3185
1253.987, 511.5836
1254.469, 510.3795
1254.951, 509.6707
1255.433, 510.0249
1255.915, 510.8670
1256.398, 511.4579
1256.880, 512.1229
1257.362, 513.6281
1257.844, 515.6049
1258.326, 517.7924
1258.808, 519.6546
1259.290, 520.3213
1259.772, 519.5428
1260.255, 516.5468
1260.737, 510.4076
1261.219, 507.1065
1261.701, 513.0795
1262.183, 518.2578
1262.665, 515.4022
1263.147, 512.4933
1263.629, 516.6609
1264.111, 523.5853
1264.594, 527.4047
1265.076, 528.1053
1265.558, 526.8738
1266.040, 523.2784
1266.522, 518.9975
1267.004, 513.1512
1267.486, 509.9666
1267.968, 510.7660
1268.450, 511.7533
1268.933, 510.9770
1269.415, 511.1877
1269.897, 509.5014
1270.379, 509.6976
1270.861, 508.4334
1271.343, 506.4757
1271.825, 506.2990
1272.307, 507.4926
1272.790, 508.8940
1273.272, 510.0400
1273.754, 510.1083
1274.236, 508.8322
1274.718, 507.6911
1275.200, 508.0612
1275.682, 508.2477
1276.164, 506.6938
1276.646, 505.2069
1277.129, 505.0628
1277.611, 505.7354
1278.093, 506.7888
1278.575, 508.0505
1279.057, 509.2322
1279.539, 510.4543
1280.021, 510.7438
1280.503, 509.7710
1280.985, 508.3362
1281.468, 506.2505
1281.950, 505.5971
1282.432, 507.4604
1282.914, 508.9800
1283.396, 507.6508
1283.878, 505.1081
1284.360, 504.2036
1284.842, 504.3432
1285.325, 503.9381
1285.807, 503.0797
##END=



