##NAMES=Tarbuttite
##RRUFFID=R050621
##IDEAL CHEMISTRY=Zn^2+^_2_(P^5+^O_4_)(OH)
##LOCALITY=Broken Hill, Rhodesia
##OWNER=RRUFF
##SOURCE=University of Arizona Mineral Museum
##DESCRIPTION=Colorless prismatic crystals
##STATUS=The identification of this mineral has been confirmed by X-ray diffraction and chemical analysis
##URL=rruff.info/R050621
##MEASURED CHEMISTRY=Zn_2.00_(P_1.00_O_4_)(OH)
91.11523, 27.46917
91.59735, 27.63242
92.07947, 27.56002
92.56158, 27.29547
93.04370, 26.97367
93.52582, 26.57206
94.00793, 26.17437
94.49006, 25.96917
94.97218, 25.97874
95.45429, 26.17948
95.93641, 26.63711
96.41853, 27.34403
96.90064, 27.99133
97.38276, 28.23057
97.86488, 28.11623
98.34699, 28.36278
98.82911, 29.31191
99.31123, 30.57643
99.79334, 30.62890
100.2755, 29.16143
100.7576, 27.54771
101.2397, 27.21306
101.7218, 28.51424
102.2039, 29.34550
102.6861, 29.08935
103.1682, 27.75925
103.6503, 27.02143
104.1324, 27.09472
104.6145, 27.51032
105.0966, 27.63619
105.5788, 27.01871
106.0609, 26.91181
106.5430, 27.80898
107.0251, 30.18596
107.5072, 31.86037
107.9893, 32.17963
108.4715, 31.96741
108.9536, 32.70630
109.4357, 35.28203
109.9178, 38.02708
110.3999, 40.43188
110.8820, 42.05115
111.3642, 44.02827
111.8463, 46.40615
112.3284, 49.17666
112.8105, 52.32257
113.2926, 55.62360
113.7747, 59.49728
114.2569, 64.11047
114.7390, 69.32048
115.2211, 75.49535
115.7032, 81.95345
116.1853, 89.09325
116.6674, 98.89159
117.1496, 111.8518
117.6317, 127.9862
118.1138, 147.1408
118.5959, 171.4117
119.0780, 197.0404
119.5602, 222.7405
120.0423, 248.6697
120.5244, 273.8578
121.0065, 296.3953
121.4886, 318.2057
121.9707, 341.9308
122.4529, 368.6635
122.9350, 397.4813
123.4171, 426.9511
123.8992, 456.8338
124.3813, 489.7049
124.8634, 527.6193
125.3456, 570.1160
125.8277, 616.3529
126.3098, 673.1765
126.7919, 730.9976
127.2740, 777.9487
127.7561, 814.6603
128.2383, 834.0282
128.7204, 817.1248
129.2025, 770.0906
129.6846, 725.1653
130.1667, 696.6155
130.6488, 685.0094
131.1310, 690.5840
131.6131, 713.8405
132.0952, 753.5193
132.5773, 805.9767
133.0594, 871.4606
133.5415, 955.1135
134.0237, 1060.363
134.5058, 1187.848
134.9879, 1339.193
135.4700, 1522.371
135.9521, 1725.880
136.4343, 1947.845
136.9164, 2211.884
137.3985, 2398.566
137.8806, 2389.914
138.3627, 2161.059
138.8448, 1893.512
139.3270, 1595.359
139.8091, 1275.670
140.2912, 1035.287
140.7733, 885.5467
141.2554, 791.1328
141.7375, 721.6923
142.2197, 681.5830
142.7018, 653.3450
143.1839, 634.6479
143.6660, 625.9442
144.1481, 620.5065
144.6302, 618.6293
145.1124, 619.8279
145.5945, 623.5852
146.0766, 630.4019
146.5587, 639.0800
147.0408, 649.0464
147.5230, 659.6388
148.0051, 673.6608
148.4872, 687.9628
148.9693, 701.5005
149.4514, 718.3297
149.9335, 738.7491
150.4157, 762.0411
150.8978, 787.2514
151.3799, 813.3275
151.8620, 844.2131
152.3441, 884.0032
152.8262, 928.3023
153.3084, 967.9835
153.7905, 1020.949
154.2726, 1054.609
154.7547, 1056.780
155.2368, 1013.387
155.7189, 961.5029
156.2011, 896.4005
156.6832, 824.8868
157.1653, 765.6619
157.6474, 723.0763
158.1295, 692.5303
158.6116, 672.0023
159.0938, 664.8254
159.5759, 662.0893
160.0580, 662.3013
160.5401, 665.2795
161.0222, 670.5071
161.5044, 679.3917
161.9865, 689.4990
162.4686, 699.1649
162.9507, 707.3948
163.4328, 715.7861
163.9149, 724.9141
164.3971, 734.8086
164.8792, 745.2187
165.3613, 755.6497
165.8434, 766.7153
166.3255, 779.0303
166.8076, 792.8852
167.2898, 807.7764
167.7719, 823.6152
168.2540, 840.3822
168.7361, 857.9026
169.2182, 875.4037
169.7003, 893.7904
170.1825, 914.1435
170.6646, 936.2570
171.1467, 960.8298
171.6288, 989.0428
172.1109, 1020.592
172.5931, 1054.348
173.0752, 1088.650
173.5573, 1124.617
174.0394, 1164.260
174.5215, 1208.016
175.0036, 1255.758
175.4858, 1307.215
175.9679, 1362.853
176.4500, 1420.045
176.9321, 1479.825
177.4142, 1540.421
177.8963, 1596.718
178.3785, 1652.556
178.8606, 1701.841
179.3427, 1735.740
179.8248, 1755.057
180.3069, 1755.935
180.7890, 1731.644
181.2712, 1685.113
181.7533, 1625.181
182.2354, 1550.166
182.7175, 1465.468
183.1996, 1382.756
183.6818, 1300.552
184.1639, 1224.756
184.6460, 1159.548
185.1281, 1104.964
185.6102, 1058.014
186.0923, 1017.480
186.5745, 983.5716
187.0566, 959.4913
187.5387, 946.0328
188.0208, 938.8311
188.5029, 931.9395
188.9850, 925.5354
189.4672, 921.3123
189.9493, 919.4002
190.4314, 920.1223
190.9135, 925.7185
191.3956, 937.0187
191.8777, 951.3492
192.3599, 965.3758
192.8420, 979.0394
193.3241, 992.6925
193.8062, 1007.658
194.2883, 1023.628
194.7704, 1035.552
195.2526, 1043.018
195.7347, 1046.625
196.2168, 1048.097
196.6989, 1047.670
197.1810, 1042.181
197.6632, 1028.815
198.1453, 1007.473
198.6274, 984.8512
199.1095, 960.9017
199.5916, 936.2803
200.0737, 912.5655
200.5559, 889.6266
201.0380, 867.7083
201.5201, 846.8782
202.0022, 826.9201
202.4843, 808.6786
202.9664, 792.2010
203.4486, 777.4723
203.9307, 764.4366
204.4128, 753.2382
204.8949, 743.6365
205.3770, 735.5641
205.8591, 729.0330
206.3413, 723.9103
206.8234, 720.2498
207.3055, 717.9180
207.7876, 716.6394
208.2697, 716.4665
208.7519, 717.1627
209.2340, 718.7916
209.7161, 721.5621
210.1982, 724.4205
210.6803, 728.1021
211.1624, 731.3919
211.6446, 730.9713
212.1267, 726.5954
212.6088, 719.1608
213.0909, 708.3849
213.5730, 693.0876
214.0551, 679.0175
214.5373, 666.3625
215.0194, 655.1959
215.5015, 645.4571
215.9836, 637.3238
216.4657, 630.1984
216.9478, 623.6319
217.4300, 617.5453
217.9121, 612.2028
218.3942, 607.5802
218.8763, 603.7324
219.3584, 600.9365
219.8405, 599.3425
220.3227, 598.5275
220.8048, 598.1764
221.2869, 597.9485
221.7690, 599.3632
222.2511, 603.6453
222.7333, 609.2588
223.2154, 611.2953
223.6975, 607.9982
224.1796, 604.1520
224.6617, 602.0469
225.1438, 602.1840
225.6260, 602.7835
226.1081, 603.8242
226.5902, 605.3211
227.0723, 607.3231
227.5544, 610.1449
228.0365, 613.0318
228.5187, 615.4796
229.0008, 616.7654
229.4829, 619.4212
229.9650, 624.0007
230.4471, 629.8229
230.9292, 635.0091
231.4114, 638.7924
231.8935, 643.1868
232.3756, 649.1464
232.8577, 657.6669
233.3398, 665.4352
233.8220, 671.4831
234.3041, 677.0949
234.7862, 685.3561
235.2683, 697.1657
235.7504, 710.1761
236.2325, 723.6212
236.7147, 737.0755
237.1968, 751.6003
237.6789, 767.5443
238.1610, 784.4567
238.6431, 801.1669
239.1252, 817.1984
239.6074, 834.1245
240.0895, 852.8616
240.5716, 874.0615
241.0537, 894.6490
241.5358, 914.1334
242.0179, 933.2522
242.5001, 953.2122
242.9822, 973.0805
243.4643, 995.2698
243.9464, 1020.622
244.4285, 1049.473
244.9106, 1080.555
245.3928, 1113.722
245.8749, 1149.341
246.3570, 1187.897
246.8391, 1228.681
247.3212, 1273.514
247.8034, 1322.675
248.2855, 1375.967
248.7676, 1435.276
249.2497, 1501.551
249.7318, 1573.526
250.2139, 1649.628
250.6961, 1731.381
251.1782, 1814.897
251.6603, 1900.449
252.1424, 1989.291
252.6245, 2075.536
253.1066, 2163.741
253.5888, 2246.067
254.0709, 2314.485
254.5530, 2370.829
255.0351, 2409.658
255.5172, 2428.490
255.9993, 2426.878
256.4815, 2410.505
256.9636, 2373.822
257.4457, 2328.548
257.9278, 2286.145
258.4099, 2243.711
258.8921, 2210.434
259.3742, 2187.180
259.8563, 2174.046
260.3384, 2174.569
260.8205, 2188.486
261.3026, 2216.373
261.7848, 2259.381
262.2669, 2317.550
262.7490, 2389.985
263.2311, 2477.219
263.7132, 2579.062
264.1953, 2688.659
264.6775, 2807.488
265.1596, 2930.494
265.6417, 3057.093
266.1238, 3193.286
266.6059, 3312.372
267.0880, 3413.401
267.5702, 3494.332
268.0523, 3536.608
268.5344, 3542.137
269.0165, 3505.423
269.4986, 3417.741
269.9807, 3270.585
270.4629, 3104.121
270.9450, 2917.893
271.4271, 2716.844
271.9092, 2526.021
272.3913, 2344.258
272.8734, 2175.965
273.3556, 2023.921
273.8377, 1888.268
274.3198, 1768.496
274.8019, 1664.171
275.2840, 1574.718
275.7661, 1498.598
276.2483, 1437.391
276.7304, 1383.488
277.2125, 1333.777
277.6946, 1287.877
278.1768, 1248.514
278.6589, 1216.673
279.1410, 1190.370
279.6231, 1165.706
280.1052, 1142.286
280.5873, 1121.636
281.0695, 1105.246
281.5516, 1092.994
282.0337, 1081.234
282.5158, 1069.381
282.9979, 1059.059
283.4800, 1053.334
283.9622, 1052.343
284.4443, 1052.781
284.9264, 1053.486
285.4085, 1054.441
285.8906, 1055.354
286.3727, 1055.950
286.8549, 1057.436
287.3370, 1061.990
287.8191, 1069.455
288.3012, 1076.626
288.7833, 1081.672
289.2654, 1085.464
289.7476, 1091.212
290.2297, 1098.960
290.7118, 1108.376
291.1939, 1119.353
291.6760, 1131.743
292.1581, 1145.243
292.6403, 1159.988
293.1224, 1175.641
293.6045, 1191.598
294.0866, 1207.723
294.5687, 1224.991
295.0508, 1243.710
295.5330, 1264.212
296.0151, 1287.413
296.4972, 1314.530
296.9793, 1343.740
297.4614, 1371.481
297.9435, 1398.037
298.4257, 1423.833
298.9078, 1449.699
299.3899, 1474.906
299.8720, 1497.482
300.3541, 1517.712
300.8362, 1534.406
301.3184, 1546.930
301.8005, 1555.091
302.2826, 1557.560
302.7647, 1553.700
303.2469, 1543.701
303.7290, 1527.332
304.2111, 1504.357
304.6932, 1476.308
305.1753, 1443.924
305.6574, 1407.777
306.1396, 1370.460
306.6217, 1331.042
307.1038, 1291.776
307.5859, 1254.755
308.0680, 1219.775
308.5501, 1187.141
309.0323, 1156.553
309.5144, 1128.444
309.9965, 1103.600
310.4786, 1083.161
310.9607, 1065.231
311.4428, 1048.418
311.9250, 1032.769
312.4071, 1018.570
312.8892, 1005.393
313.3713, 994.3242
313.8534, 986.4575
314.3355, 983.7521
314.8177, 983.0085
315.2998, 982.8827
315.7819, 983.4100
316.2640, 984.8079
316.7461, 986.2104
317.2282, 989.0526
317.7104, 994.4980
318.1925, 1003.578
318.6746, 1014.114
319.1567, 1025.453
319.6388, 1037.737
320.1209, 1051.064
320.6031, 1064.205
321.0852, 1079.331
321.5673, 1098.120
322.0494, 1122.604
322.5315, 1146.483
323.0136, 1167.004
323.4958, 1186.375
323.9779, 1208.181
324.4600, 1233.973
324.9421, 1261.575
325.4242, 1289.766
325.9064, 1318.144
326.3885, 1349.358
326.8706, 1385.374
327.3527, 1423.556
327.8348, 1461.581
328.3170, 1496.316
328.7991, 1534.363
329.2812, 1576.586
329.7633, 1623.201
330.2454, 1672.012
330.7275, 1722.090
331.2097, 1774.505
331.6918, 1829.998
332.1739, 1890.228
332.6560, 1951.301
333.1381, 2012.218
333.6202, 2073.170
334.1024, 2133.255
334.5845, 2193.101
335.0666, 2250.069
335.5487, 2304.112
336.0308, 2358.236
336.5129, 2399.525
336.9951, 2428.206
337.4772, 2443.534
337.9593, 2444.488
338.4414, 2429.938
338.9235, 2404.406
339.4056, 2368.880
339.8878, 2323.576
340.3699, 2269.886
340.8520, 2205.915
341.3341, 2136.694
341.8162, 2065.197
342.2983, 1991.658
342.7805, 1919.324
343.2626, 1849.509
343.7447, 1781.778
344.2268, 1717.465
344.7089, 1655.913
345.1910, 1597.699
345.6732, 1544.395
346.1553, 1495.088
346.6374, 1448.509
347.1195, 1403.866
347.6016, 1361.648
348.0837, 1322.891
348.5659, 1287.214
349.0480, 1253.472
349.5301, 1221.638
350.0122, 1191.157
350.4944, 1161.795
350.9765, 1133.665
351.4586, 1106.461
351.9407, 1080.203
352.4228, 1054.919
352.9049, 1030.691
353.3871, 1007.003
353.8692, 984.6257
354.3513, 964.9374
354.8334, 948.0707
355.3155, 932.2687
355.7976, 915.6742
356.2798, 899.1288
356.7619, 883.8149
357.2440, 870.7631
357.7261, 858.8167
358.2082, 846.9608
358.6903, 835.3438
359.1725, 825.0479
359.6546, 817.0261
360.1367, 810.3779
360.6188, 804.4680
361.1009, 799.6041
361.5830, 794.8288
362.0652, 789.2635
362.5473, 783.4597
363.0294, 778.7719
363.5115, 776.2924
363.9936, 774.5573
364.4757, 772.7433
364.9579, 770.3977
365.4400, 769.1276
365.9221, 769.5919
366.4042, 771.2018
366.8863, 773.2092
367.3684, 776.3312
367.8506, 779.0361
368.3327, 780.7119
368.8148, 781.2167
369.2969, 782.3631
369.7790, 784.1504
370.2611, 786.5984
370.7433, 789.7121
371.2254, 793.1815
371.7075, 797.7209
372.1896, 803.3229
372.6717, 810.0505
373.1538, 818.1992
373.6360, 828.5422
374.1181, 839.0018
374.6002, 848.3229
375.0823, 856.0007
375.5645, 864.4370
376.0466, 873.3253
376.5287, 883.1865
377.0108, 895.0609
377.4929, 908.9489
377.9750, 923.9294
378.4572, 940.0613
378.9393, 957.1530
379.4214, 973.0683
379.9035, 987.9248
380.3856, 1000.596
380.8677, 1010.112
381.3499, 1016.434
381.8320, 1019.149
382.3141, 1018.555
382.7962, 1013.911
383.2783, 1002.662
383.7604, 985.0475
384.2426, 964.8495
384.7247, 943.9083
385.2068, 922.3110
385.6889, 898.5632
386.1710, 872.0645
386.6531, 846.0502
387.1353, 823.4670
387.6174, 803.9288
388.0995, 786.2157
388.5816, 769.7921
389.0637, 754.7447
389.5458, 740.7977
390.0280, 727.8504
390.5101, 716.4905
390.9922, 707.4990
391.4743, 700.1534
391.9564, 693.6030
392.4385, 688.2070
392.9207, 682.8719
393.4028, 676.3938
393.8849, 669.4474
394.3670, 664.0501
394.8491, 662.2594
395.3312, 661.3419
395.8134, 659.7735
396.2955, 657.1108
396.7776, 654.4592
397.2597, 652.1229
397.7418, 649.9384
398.2239, 647.6743
398.7061, 645.2783
399.1882, 642.8506
399.6703, 640.3076
400.1524, 637.6284
400.6346, 635.3383
401.1167, 633.3268
401.5988, 631.8254
402.0809, 631.1071
402.5630, 631.9704
403.0451, 631.9757
403.5273, 630.5002
404.0094, 628.1904
404.4915, 627.0430
404.9736, 627.5699
405.4557, 627.9880
405.9378, 627.4784
406.4200, 625.9603
406.9021, 624.3253
407.3842, 622.4677
407.8663, 620.7831
408.3484, 620.0391
408.8305, 620.2644
409.3127, 619.9541
409.7948, 618.3735
410.2769, 616.1790
410.7590, 615.4637
411.2411, 616.2439
411.7232, 616.9200
412.2054, 615.6995
412.6875, 613.4131
413.1696, 612.6776
413.6517, 614.2556
414.1338, 616.1090
414.6159, 615.5183
415.0981, 613.2198
415.5802, 611.2238
416.0623, 610.9081
416.5444, 611.1690
417.0265, 610.7224
417.5086, 609.5275
417.9908, 608.7758
418.4729, 610.0908
418.9550, 611.8900
419.4371, 612.4025
419.9192, 609.5910
420.4013, 607.2838
420.8835, 607.7479
421.3656, 610.0919
421.8477, 611.6422
422.3298, 610.2965
422.8119, 609.0332
423.2940, 609.4756
423.7762, 612.6292
424.2583, 614.8607
424.7404, 615.3121
425.2225, 614.8118
425.7047, 614.3275
426.1868, 613.9575
426.6689, 613.4647
427.1510, 612.5068
427.6331, 611.2152
428.1152, 611.2238
428.5974, 613.5246
429.0795, 615.6412
429.5616, 615.8604
430.0437, 613.5214
430.5258, 612.0530
431.0079, 611.6026
431.4901, 612.0850
431.9722, 613.8192
432.4543, 617.0002
432.9364, 619.3492
433.4185, 619.7518
433.9006, 618.5655
434.3828, 617.0624
434.8649, 615.1719
435.3470, 613.8438
435.8291, 614.4122
436.3112, 616.3200
436.7933, 617.6328
437.2755, 617.6976
437.7576, 617.6497
438.2397, 619.2304
438.7218, 621.9949
439.2039, 624.4382
439.6860, 625.1750
440.1682, 625.5085
440.6503, 626.8576
441.1324, 629.3503
441.6145, 631.9139
442.0966, 634.2852
442.5787, 636.2188
443.0609, 637.4364
443.5430, 636.3883
444.0251, 636.1376
444.5072, 638.0957
444.9893, 641.7906
445.4714, 645.5286
445.9536, 649.1146
446.4357, 652.5416
446.9178, 655.7452
447.3999, 658.5348
447.8820, 661.6758
448.3641, 665.1371
448.8463, 669.0175
449.3284, 673.5853
449.8105, 679.4900
450.2926, 684.8065
450.7747, 688.8961
451.2569, 692.0844
451.7390, 696.1087
452.2211, 700.8804
452.7032, 706.7906
453.1853, 714.6249
453.6674, 724.6288
454.1496, 732.7934
454.6317, 738.5139
455.1138, 743.6348
455.5959, 750.8225
456.0780, 759.9781
456.5602, 769.3364
457.0423, 778.0408
457.5244, 786.6865
458.0065, 797.2894
458.4886, 809.5417
458.9707, 820.9787
459.4529, 829.5263
459.9350, 836.1420
460.4171, 842.1238
460.8992, 848.0349
461.3813, 852.5105
461.8634, 854.9172
462.3456, 855.1556
462.8277, 853.0039
463.3098, 847.6796
463.7919, 840.5227
464.2740, 831.7112
464.7561, 821.3627
465.2383, 810.8424
465.7204, 800.7576
466.2025, 790.4521
466.6846, 779.5750
467.1667, 767.5461
467.6488, 755.8347
468.1310, 744.0364
468.6131, 732.6775
469.0952, 722.3175
469.5773, 713.0492
470.0594, 704.6901
470.5415, 697.3203
471.0237, 690.9378
471.5058, 684.3067
471.9879, 677.0880
472.4700, 670.3694
472.9521, 665.0909
473.4342, 661.2712
473.9164, 658.1135
474.3985, 655.6472
474.8806, 653.5395
475.3627, 651.4570
475.8448, 649.3453
476.3270, 646.5841
476.8091, 642.0922
477.2912, 637.1302
477.7733, 634.4844
478.2554, 634.0392
478.7375, 634.0534
479.2197, 633.5176
479.7018, 632.5252
480.1839, 631.0888
480.6660, 628.9799
481.1481, 627.1044
481.6302, 626.2917
482.1124, 626.0833
482.5945, 625.7036
483.0766, 624.5725
483.5587, 623.4778
484.0408, 622.7587
484.5229, 622.4233
485.0051, 622.2327
485.4872, 622.1714
485.9693, 622.2228
486.4514, 622.3612
486.9335, 622.3559
487.4156, 622.8607
487.8978, 624.2705
488.3799, 625.9837
488.8620, 627.0582
489.3441, 627.2637
489.8262, 627.3986
490.3083, 627.5602
490.7905, 627.8100
491.2726, 628.6207
491.7547, 630.0604
492.2368, 631.7582
492.7189, 633.2899
493.2010, 634.7618
493.6832, 636.9211
494.1653, 639.9957
494.6474, 643.1884
495.1295, 645.2090
495.6116, 646.4883
496.0938, 648.4016
496.5759, 651.6059
497.0580, 655.5909
497.5401, 660.1943
498.0222, 665.2557
498.5044, 669.7316
498.9865, 672.2501
499.4686, 674.4962
499.9507, 677.8120
500.4328, 682.5090
500.9149, 687.8260
501.3971, 694.0502
501.8792, 700.5997
502.3613, 706.8033
502.8434, 712.3514
503.3255, 717.8541
503.8076, 723.1837
504.2898, 728.4809
504.7719, 734.4576
505.2540, 741.2963
505.7361, 748.4985
506.2182, 756.0129
506.7003, 763.8803
507.1825, 771.3942
507.6646, 778.2740
508.1467, 785.4021
508.6288, 793.8427
509.1109, 803.5976
509.5930, 813.9392
510.0752, 825.3089
510.5573, 836.3493
511.0394, 843.7487
511.5215, 848.0526
512.0037, 852.6581
512.4858, 860.8751
512.9679, 869.9118
513.4500, 875.7267
513.9321, 878.1995
514.4142, 879.1369
514.8964, 879.7991
515.3785, 879.5713
515.8606, 877.7546
516.3427, 873.8132
516.8248, 868.9007
517.3069, 863.3410
517.7891, 857.1237
518.2712, 850.2039
518.7533, 842.8654
519.2354, 834.5837
519.7175, 825.0282
520.1996, 814.2083
520.6818, 803.3430
521.1639, 792.0410
521.6460, 781.1400
522.1281, 771.4498
522.6102, 763.4665
523.0923, 754.3767
523.5745, 743.5590
524.0566, 732.4893
524.5387, 723.3047
525.0208, 715.9594
525.5029, 709.2440
525.9850, 702.7436
526.4672, 696.7142
526.9493, 691.9131
527.4314, 688.1572
527.9135, 684.2489
528.3956, 679.2263
528.8777, 673.5798
529.3599, 667.7524
529.8420, 661.6658
530.3241, 656.4388
530.8062, 653.1959
531.2883, 650.9818
531.7704, 648.8030
532.2526, 646.1693
532.7347, 643.7630
533.2168, 641.9233
533.6989, 640.4576
534.1810, 638.8597
534.6631, 637.4373
535.1453, 635.4675
535.6274, 632.4111
536.1095, 628.1667
536.5916, 625.4295
537.0737, 624.7706
537.5558, 624.6949
538.0380, 624.2470
538.5201, 623.3788
539.0022, 622.3965
539.4843, 621.3125
539.9664, 620.1473
540.4485, 618.8220
540.9307, 617.3901
541.4128, 616.3317
541.8949, 616.0485
542.3770, 615.9851
542.8591, 614.9951
543.3412, 613.2861
543.8234, 611.9138
544.3055, 611.6520
544.7876, 611.9484
545.2697, 612.4527
545.7518, 613.1678
546.2339, 613.5121
546.7161, 613.1805
547.1982, 612.3680
547.6803, 611.2306
548.1624, 609.2228
548.6445, 607.6548
549.1266, 607.0026
549.6088, 606.8856
550.0909, 606.5008
550.5730, 605.4626
551.0551, 604.8470
551.5372, 605.1703
552.0193, 606.2845
552.5015, 606.6193
552.9836, 606.1006
553.4657, 605.0774
553.9478, 603.2612
554.4299, 600.8441
554.9120, 600.2110
555.3942, 601.7444
555.8763, 603.6635
556.3584, 603.6304
556.8405, 602.3724
557.3226, 601.7862
557.8047, 602.6663
558.2869, 604.0759
558.7690, 605.6688
559.2511, 607.1396
559.7332, 607.6924
560.2154, 606.4169
560.6975, 604.6149
561.1796, 602.6193
561.6617, 600.4547
562.1439, 599.2051
562.6260, 599.5418
563.1081, 600.5499
563.5902, 601.7346
564.0723, 603.3943
564.5544, 604.6097
565.0366, 605.3527
565.5187, 605.6879
566.0008, 605.4830
566.4829, 604.5078
566.9650, 604.2990
567.4471, 605.4030
567.9293, 607.2516
568.4114, 608.3564
568.8935, 608.7668
569.3756, 609.1771
569.8577, 610.1050
570.3398, 611.2420
570.8220, 612.1090
571.3041, 612.6996
571.7862, 612.8772
572.2683, 611.6335
572.7504, 610.4146
573.2325, 610.8788
573.7147, 614.1003
574.1968, 617.0264
574.6789, 618.0809
575.1610, 618.3528
575.6431, 619.2628
576.1252, 621.6998
576.6074, 623.9890
577.0895, 625.9228
577.5716, 627.5586
578.0537, 628.9131
578.5358, 629.3131
579.0179, 631.0381
579.5001, 635.4009
579.9822, 642.2346
580.4643, 648.0891
580.9464, 652.8102
581.4285, 657.5696
581.9106, 663.3483
582.3928, 670.0372
582.8749, 677.3309
583.3570, 685.3253
583.8391, 693.4014
584.3212, 700.8854
584.8033, 708.1133
585.2855, 715.6945
585.7676, 723.3605
586.2497, 731.9723
586.7318, 742.1160
587.2139, 753.6063
587.6960, 765.9128
588.1782, 778.3694
588.6603, 792.1342
589.1424, 807.7977
589.6245, 825.5127
590.1066, 843.5995
590.5887, 861.5803
591.0709, 880.3381
591.5530, 900.3053
592.0351, 921.3215
592.5172, 945.0197
592.9993, 971.9606
593.4814, 1000.078
593.9636, 1027.240
594.4457, 1053.283
594.9278, 1078.960
595.4099, 1105.443
595.8920, 1129.910
596.3741, 1149.992
596.8563, 1165.137
597.3384, 1173.570
597.8205, 1173.661
598.3026, 1167.318
598.7847, 1154.269
599.2668, 1135.066
599.7490, 1114.282
600.2311, 1090.724
600.7132, 1067.964
601.1953, 1047.552
601.6774, 1029.307
602.1595, 1013.563
602.6417, 1000.016
603.1238, 988.9100
603.6059, 981.1420
604.0880, 977.3165
604.5701, 972.9541
605.0522, 967.4860
605.5344, 961.4799
606.0165, 956.6734
606.4986, 952.6609
606.9807, 946.9635
607.4628, 938.4477
607.9449, 928.0511
608.4271, 917.1320
608.9092, 905.5280
609.3913, 892.9484
609.8735, 878.4943
610.3556, 863.6309
610.8377, 849.1884
611.3198, 835.3112
611.8019, 821.4381
612.2841, 806.3001
612.7662, 791.8160
613.2483, 778.9996
613.7304, 768.4410
614.2125, 758.6848
614.6946, 749.8418
615.1768, 741.5333
615.6589, 733.0925
616.1410, 724.2433
616.6231, 716.8163
617.1052, 711.4675
617.5873, 707.1528
618.0695, 701.8323
618.5516, 695.7459
619.0337, 690.3500
619.5158, 686.7903
619.9979, 683.9772
620.4800, 680.6098
620.9622, 676.8063
621.4443, 673.2507
621.9264, 670.1064
622.4085, 667.4482
622.8906, 665.3498
623.3727, 663.8729
623.8549, 662.6177
624.3370, 661.7172
624.8191, 660.8422
625.3012, 659.8056
625.7833, 658.6360
626.2654, 657.1863
626.7476, 655.4398
627.2297, 653.4158
627.7118, 650.8926
628.1939, 647.8403
628.6760, 645.5908
629.1581, 644.6362
629.6403, 644.3331
630.1224, 643.8193
630.6045, 643.0541
631.0866, 641.8527
631.5687, 639.2687
632.0508, 636.8514
632.5330, 636.6537
633.0151, 638.1818
633.4972, 638.7367
633.9793, 635.9622
634.4614, 632.9443
634.9435, 631.4523
635.4257, 632.0432
635.9078, 631.9763
636.3899, 630.4245
636.8720, 628.9519
637.3541, 628.7802
637.8362, 630.2751
638.3184, 631.3332
638.8005, 631.7977
639.2826, 631.9522
639.7647, 632.3710
640.2468, 632.9110
640.7289, 632.3982
641.2111, 630.0326
641.6932, 627.5834
642.1753, 627.2239
642.6574, 628.4788
643.1395, 630.1865
643.6216, 633.1218
644.1038, 635.1794
644.5859, 634.5674
645.0680, 631.8547
645.5501, 629.7335
646.0322, 629.7031
646.5143, 629.4905
646.9965, 627.9651
647.4786, 624.9567
647.9607, 623.6888
648.4428, 624.8126
648.9249, 626.3319
649.4070, 626.9834
649.8892, 626.7777
650.3713, 626.3221
650.8534, 625.6117
651.3355, 624.8165
651.8176, 623.9924
652.2997, 623.2314
652.7819, 622.6961
653.2640, 622.3555
653.7461, 622.4377
654.2282, 623.9874
654.7103, 625.8466
655.1924, 626.2925
655.6746, 622.9053
656.1567, 620.1688
656.6388, 619.5812
657.1209, 620.5345
657.6030, 621.3118
658.0851, 621.7734
658.5673, 622.3561
659.0494, 623.3239
659.5316, 624.5358
660.0137, 625.0085
660.4958, 624.6757
660.9779, 624.3051
661.4600, 624.6552
661.9421, 625.2728
662.4243, 624.6946
662.9064, 622.9187
663.3885, 621.4256
663.8706, 621.8660
664.3527, 622.8594
664.8348, 622.9107
665.3170, 621.5065
665.7991, 620.3542
666.2812, 619.8536
666.7633, 619.9540
667.2454, 620.6689
667.7275, 622.4972
668.2097, 624.0468
668.6918, 625.4157
669.1739, 626.3750
669.6560, 626.4383
670.1381, 625.5272
670.6202, 624.5361
671.1024, 623.5710
671.5845, 622.8195
672.0666, 622.6221
672.5487, 622.9498
673.0308, 623.7083
673.5129, 625.5651
673.9951, 627.2692
674.4772, 627.4512
674.9593, 626.4388
675.4414, 625.6742
675.9235, 625.4966
676.4056, 625.8907
676.8878, 627.3253
677.3699, 629.9453
677.8520, 630.9012
678.3341, 629.2445
678.8162, 627.3264
679.2983, 626.4244
679.7805, 626.5813
680.2626, 627.3114
680.7447, 628.7514
681.2268, 629.9749
681.7089, 629.7375
682.1910, 628.5833
682.6732, 627.8765
683.1553, 627.8179
683.6374, 628.2637
684.1195, 629.9807
684.6016, 631.7986
685.0837, 632.2176
685.5659, 629.2396
686.0480, 627.0549
686.5301, 627.2604
687.0122, 628.7180
687.4943, 629.4366
687.9764, 628.9883
688.4586, 628.6655
688.9407, 628.6362
689.4228, 628.9017
689.9049, 629.5693
690.3870, 630.6508
690.8691, 631.6252
691.3513, 632.2237
691.8334, 632.5989
692.3155, 633.2031
692.7976, 633.8938
693.2797, 634.0344
693.7618, 632.5964
694.2440, 631.0126
694.7261, 630.3089
695.2082, 630.5300
695.6903, 630.8482
696.1724, 630.9042
696.6545, 631.2078
697.1367, 632.2410
697.6188, 634.3100
698.1009, 634.8059
698.5830, 633.1091
699.0651, 631.2701
699.5472, 631.0126
700.0294, 632.1677
700.5115, 633.3737
700.9936, 634.5463
701.4757, 635.5938
701.9578, 636.2448
702.4399, 636.7474
702.9221, 637.5735
703.4042, 639.0197
703.8863, 640.2266
704.3684, 640.5731
704.8505, 640.4891
705.3326, 640.4806
705.8148, 641.0143
706.2969, 641.0488
706.7790, 640.0395
707.2611, 638.8167
707.7432, 639.1074
708.2253, 641.2244
708.7075, 642.8490
709.1896, 643.4016
709.6718, 643.1638
710.1539, 642.2165
710.6360, 640.8517
711.1181, 640.2424
711.6002, 642.1728
712.0823, 644.1361
712.5645, 643.1303
713.0466, 640.1462
713.5287, 638.8614
714.0108, 642.1145
714.4929, 645.8065
714.9750, 648.7798
715.4572, 650.9797
715.9393, 651.0779
716.4214, 648.0530
716.9035, 645.0416
717.3856, 643.6652
717.8677, 643.7559
718.3499, 643.5978
718.8320, 643.1707
719.3141, 642.9961
719.7962, 643.4716
720.2783, 644.4579
720.7604, 646.0100
721.2426, 648.1580
721.7247, 649.8207
722.2068, 649.9816
722.6889, 649.6886
723.1710, 649.8825
723.6531, 651.3307
724.1353, 651.4113
724.6174, 648.7659
725.0995, 646.0206
725.5816, 645.5637
726.0637, 647.7879
726.5458, 649.8364
727.0280, 651.6429
727.5101, 652.8323
727.9922, 652.4307
728.4743, 651.0204
728.9564, 650.3328
729.4385, 650.9525
729.9207, 651.9053
730.4028, 652.3139
730.8849, 652.5911
731.3670, 653.3072
731.8491, 656.4612
732.3312, 657.8474
732.8134, 654.6058
733.2955, 649.8127
733.7776, 648.7274
734.2597, 652.7444
734.7418, 656.1494
735.2239, 657.8145
735.7061, 658.1221
736.1882, 657.3070
736.6703, 655.6130
737.1524, 654.9269
737.6345, 656.8793
738.1166, 659.3279
738.5988, 659.6129
739.0809, 658.4001
739.5630, 657.5872
740.0451, 658.2891
740.5272, 659.2233
741.0093, 660.1059
741.4915, 660.8243
741.9736, 660.7047
742.4557, 658.9684
742.9378, 657.8953
743.4199, 658.4994
743.9020, 660.4576
744.3842, 662.0723
744.8663, 663.3542
745.3484, 663.9808
745.8305, 663.1605
746.3126, 661.8623
746.7947, 661.5897
747.2769, 662.2941
747.7590, 663.2516
748.2411, 664.7039
748.7232, 665.7863
749.2053, 665.7945
749.6874, 664.5038
750.1696, 663.7333
750.6517, 663.4901
751.1338, 663.8303
751.6159, 665.1104
752.0980, 667.4237
752.5801, 668.1063
753.0623, 666.9476
753.5444, 665.8223
754.0265, 666.5590
754.5086, 668.3695
754.9907, 669.7870
755.4728, 670.6667
755.9550, 671.2642
756.4371, 671.7175
756.9192, 671.9749
757.4013, 671.9620
757.8835, 671.5354
758.3656, 671.2269
758.8477, 671.1411
759.3298, 671.1115
759.8120, 671.0133
760.2941, 670.8519
760.7762, 670.5106
761.2583, 669.8482
761.7404, 669.6267
762.2225, 671.2946
762.7047, 673.9844
763.1868, 675.5500
763.6689, 675.3901
764.1510, 675.0143
764.6331, 675.2707
765.1152, 675.9377
765.5974, 676.8058
766.0795, 678.4777
766.5616, 679.2587
767.0437, 678.3320
767.5258, 677.0975
768.0079, 677.2797
768.4901, 679.0483
768.9722, 680.6035
769.4543, 681.5768
769.9364, 682.5925
770.4185, 685.0969
770.9006, 688.3063
771.3828, 690.0176
771.8649, 688.8052
772.3470, 687.7413
772.8291, 689.3349
773.3112, 692.1813
773.7933, 694.3390
774.2755, 694.9828
774.7576, 695.4509
775.2397, 695.6019
775.7218, 695.8500
776.2039, 696.9852
776.6860, 699.1359
777.1682, 701.1508
777.6503, 702.8756
778.1324, 704.2029
778.6145, 704.2889
779.0966, 703.8181
779.5787, 704.6992
780.0609, 708.5070
780.5430, 712.5214
781.0251, 714.8189
781.5072, 716.2638
781.9893, 718.4000
782.4714, 721.6400
782.9536, 725.5452
783.4357, 730.3719
783.9178, 735.6166
784.3999, 740.0851
784.8820, 743.6956
785.3641, 748.0519
785.8463, 753.6855
786.3284, 760.2511
786.8105, 767.3469
787.2926, 774.8046
787.7747, 782.1027
788.2568, 788.9918
788.7390, 795.5602
789.2211, 800.6627
789.7032, 805.4872
790.1853, 813.2229
790.6674, 826.5298
791.1495, 838.7662
791.6317, 848.4647
792.1138, 856.6924
792.5959, 865.5189
793.0780, 875.0242
793.5601, 885.5899
794.0422, 897.6811
794.5244, 910.6947
795.0065, 924.3209
795.4886, 938.4543
795.9707, 952.4532
796.4528, 967.0266
796.9349, 980.6203
797.4171, 991.9730
797.8992, 1001.985
798.3813, 1013.093
798.8634, 1027.811
799.3455, 1038.294
799.8276, 1042.345
800.3098, 1041.476
800.7919, 1039.389
801.2740, 1035.898
801.7561, 1029.478
802.2382, 1019.461
802.7203, 1006.510
803.2025, 990.0990
803.6846, 971.2836
804.1667, 952.3406
804.6488, 933.7220
805.1309, 915.5229
805.6130, 897.4420
806.0952, 879.9899
806.5773, 863.7557
807.0594, 848.9352
807.5416, 834.9327
808.0237, 821.4064
808.5058, 808.8666
808.9879, 798.9570
809.4700, 791.1290
809.9521, 783.2096
810.4343, 773.5051
810.9164, 764.2640
811.3985, 757.3588
811.8806, 752.1710
812.3627, 747.4055
812.8448, 742.2109
813.3270, 738.1645
813.8091, 736.2862
814.2912, 735.3307
814.7733, 732.3847
815.2554, 727.2103
815.7375, 722.4374
816.2197, 718.6209
816.7018, 715.7894
817.1839, 714.5472
817.6660, 714.3593
818.1481, 714.0002
818.6302, 712.8616
819.1124, 711.6124
819.5945, 710.2184
820.0766, 708.9920
820.5587, 708.6910
821.0408, 710.8183
821.5229, 710.8638
822.0051, 707.3465
822.4872, 702.5621
822.9693, 700.8665
823.4514, 701.9749
823.9335, 702.9268
824.4156, 702.9035
824.8978, 702.4844
825.3799, 701.8125
825.8620, 701.2848
826.3441, 701.5680
826.8262, 703.7294
827.3083, 705.5787
827.7905, 706.6129
828.2726, 707.0783
828.7547, 707.0740
829.2368, 706.2719
829.7189, 706.5956
830.2010, 708.6780
830.6832, 710.9679
831.1653, 710.7956
831.6474, 709.0859
832.1295, 708.4592
832.6116, 709.8800
833.0938, 711.6142
833.5759, 712.4550
834.0580, 713.0510
834.5401, 714.1207
835.0222, 715.5566
835.5043, 718.0879
835.9865, 722.6932
836.4686, 727.1721
836.9507, 728.7917
837.4328, 727.6701
837.9149, 726.8019
838.3970, 726.5175
838.8792, 726.4835
839.3613, 726.8262
839.8434, 726.9998
840.3255, 726.1208
840.8076, 723.7556
841.2897, 721.4434
841.7719, 719.7168
842.2540, 718.2120
842.7361, 716.5629
843.2182, 714.5089
843.7003, 713.4636
844.1824, 713.6440
844.6646, 714.0522
845.1467, 713.5430
845.6288, 712.5961
846.1109, 712.7829
846.5930, 714.2448
847.0751, 715.1407
847.5573, 713.1251
848.0394, 710.9001
848.5215, 710.5451
849.0036, 712.5770
849.4857, 714.8925
849.9678, 717.9925
850.4500, 720.4486
850.9321, 721.2629
851.4142, 720.6080
851.8963, 720.2172
852.3784, 720.0997
852.8605, 720.6207
853.3427, 722.5144
853.8248, 724.8575
854.3069, 726.6269
854.7890, 727.8553
855.2711, 729.3019
855.7532, 731.3767
856.2354, 733.4949
856.7175, 735.4178
857.1996, 737.1671
857.6818, 739.0603
858.1639, 741.1052
858.6460, 743.2159
859.1281, 745.4006
859.6102, 747.6059
860.0923, 749.8820
860.5745, 752.1415
861.0566, 754.0170
861.5387, 754.8041
862.0208, 755.7574
862.5029, 757.3790
862.9850, 759.6589
863.4672, 762.3893
863.9493, 765.6845
864.4314, 769.2698
864.9135, 773.2150
865.3956, 777.3269
865.8777, 781.2229
866.3599, 784.9818
866.8420, 788.6016
867.3241, 791.7764
867.8062, 795.4889
868.2883, 800.1559
868.7704, 805.9363
869.2526, 813.0036
869.7347, 822.7533
870.2168, 831.8982
870.6989, 840.0264
871.1810, 847.5427
871.6631, 854.6155
872.1453, 861.3087
872.6274, 869.3002
873.1095, 878.8040
873.5916, 889.6613
874.0737, 902.2975
874.5558, 915.7704
875.0380, 929.1057
875.5201, 942.0335
876.0022, 954.9642
876.4843, 966.9354
876.9664, 979.7807
877.4485, 994.7725
877.9307, 1012.172
878.4128, 1030.914
878.8949, 1051.384
879.3770, 1070.882
879.8591, 1085.980
880.3412, 1099.142
880.8234, 1114.499
881.3055, 1132.309
881.7876, 1149.819
882.2697, 1166.828
882.7518, 1182.411
883.2339, 1196.729
883.7161, 1209.685
884.1982, 1217.986
884.6803, 1221.245
885.1624, 1221.378
885.6445, 1219.290
886.1266, 1214.744
886.6088, 1206.766
887.0909, 1195.636
887.5730, 1182.749
888.0551, 1169.016
888.5372, 1153.395
889.0193, 1134.308
889.5015, 1112.834
889.9836, 1092.408
890.4657, 1073.557
890.9478, 1054.238
891.4299, 1033.479
891.9120, 1012.814
892.3942, 994.4836
892.8763, 978.2858
893.3584, 964.2975
893.8405, 952.7216
894.3226, 942.2325
894.8047, 932.7660
895.2869, 923.5416
895.7690, 913.5831
896.2511, 901.3601
896.7332, 890.6721
897.2153, 881.8085
897.6974, 874.3421
898.1796, 868.3572
898.6617, 863.6231
899.1438, 858.9622
899.6259, 854.2418
900.1080, 849.3810
900.5901, 843.9316
901.0723, 838.5779
901.5544, 833.8030
902.0365, 829.6863
902.5186, 826.4875
903.0007, 824.6152
903.4828, 823.0887
903.9650, 821.5538
904.4471, 819.9692
904.9292, 818.0012
905.4113, 815.6295
905.8935, 812.8893
906.3756, 808.9229
906.8577, 805.2590
907.3398, 803.5348
907.8220, 803.4960
908.3041, 804.0550
908.7862, 805.5642
909.2683, 806.8372
909.7504, 807.5428
910.2325, 807.8969
910.7147, 808.5263
911.1968, 809.4196
911.6789, 809.8660
912.1610, 809.4970
912.6431, 808.9682
913.1252, 809.0969
913.6074, 809.5353
914.0895, 809.7332
914.5716, 809.1904
915.0537, 808.9799
915.5358, 809.0635
916.0179, 809.7001
916.5001, 811.3770
916.9822, 814.1790
917.4643, 816.4949
917.9464, 818.2686
918.4285, 819.2412
918.9106, 817.9904
919.3928, 816.4576
919.8749, 817.3729
920.3570, 821.0939
920.8391, 824.4201
921.3212, 826.3934
921.8033, 827.7754
922.2855, 828.7189
922.7676, 829.3016
923.2497, 830.1879
923.7318, 831.3734
924.2139, 832.9622
924.6960, 835.1262
925.1782, 837.6326
925.6603, 839.9976
926.1424, 842.4263
926.6245, 845.4656
927.1066, 849.3241
927.5887, 853.8074
928.0709, 859.4343
928.5530, 865.2815
929.0351, 869.5301
929.5172, 872.1424
929.9993, 874.2595
930.4814, 875.8304
930.9636, 877.9503
931.4457, 882.2722
931.9278, 887.7513
932.4099, 892.9676
932.8920, 897.4622
933.3741, 902.0765
933.8563, 907.1433
934.3384, 912.2464
934.8205, 916.8264
935.3026, 920.8739
935.7847, 925.9225
936.2668, 932.0139
936.7490, 939.0851
937.2311, 947.7294
937.7132, 956.9529
938.1953, 964.7001
938.6774, 971.4934
939.1595, 980.2161
939.6417, 993.4882
940.1238, 1006.734
940.6059, 1018.547
941.0880, 1029.440
941.5701, 1040.611
942.0522, 1052.121
942.5344, 1065.819
943.0165, 1082.573
943.4986, 1101.670
943.9807, 1124.509
944.4628, 1148.506
944.9449, 1169.582
945.4271, 1182.980
945.9092, 1200.128
946.3913, 1221.566
946.8734, 1247.320
947.3555, 1277.835
947.8376, 1312.842
948.3198, 1349.860
948.8019, 1388.533
949.2840, 1431.955
949.7661, 1481.315
950.2482, 1536.979
950.7303, 1598.672
951.2125, 1666.438
951.6946, 1742.902
952.1767, 1828.544
952.6588, 1921.689
953.1409, 2022.447
953.6230, 2129.825
954.1052, 2242.960
954.5873, 2362.233
955.0695, 2490.053
955.5516, 2627.851
956.0337, 2774.512
956.5158, 2926.967
956.9979, 3086.633
957.4800, 3257.687
957.9622, 3439.528
958.4443, 3633.618
958.9264, 3839.387
959.4085, 4059.487
959.8906, 4301.825
960.3727, 4564.484
960.8549, 4835.664
961.3370, 5116.505
961.8191, 5403.510
962.3012, 5711.362
962.7833, 6015.524
963.2654, 6301.554
963.7476, 6569.807
964.2297, 6805.224
964.7118, 7016.373
965.1939, 7153.693
965.6760, 7198.237
966.1581, 7151.624
966.6403, 7006.003
967.1224, 6772.634
967.6045, 6479.743
968.0866, 6117.381
968.5687, 5728.360
969.0508, 5299.813
969.5330, 4864.862
970.0151, 4458.599
970.4972, 4083.465
970.9793, 3740.366
971.4614, 3431.455
971.9435, 3154.235
972.4257, 2909.032
972.9078, 2693.236
973.3899, 2501.916
973.8720, 2335.811
974.3541, 2187.668
974.8362, 2056.288
975.3184, 1939.709
975.8005, 1839.136
976.2826, 1752.394
976.7647, 1674.176
977.2468, 1604.732
977.7289, 1540.692
978.2111, 1480.492
978.6932, 1426.097
979.1753, 1381.701
979.6574, 1344.302
980.1395, 1308.191
980.6216, 1270.481
981.1038, 1236.318
981.5859, 1206.520
982.0680, 1179.683
982.5501, 1154.738
983.0322, 1131.604
983.5143, 1110.495
983.9965, 1091.319
984.4786, 1074.037
984.9607, 1058.793
985.4428, 1045.277
985.9249, 1033.477
986.4070, 1023.456
986.8892, 1013.965
987.3713, 1004.943
987.8534, 996.7740
988.3355, 989.5933
988.8176, 983.3740
989.2997, 978.3578
989.7819, 974.2713
990.2640, 970.2649
990.7461, 965.4090
991.2282, 961.5458
991.7103, 960.1160
992.1924, 959.7248
992.6746, 958.5383
993.1567, 956.0525
993.6388, 955.4951
994.1209, 957.1174
994.6030, 960.0458
995.0851, 962.7334
995.5673, 966.6572
996.0494, 973.6140
996.5315, 983.7684
997.0136, 996.7678
997.4957, 1011.333
997.9778, 1030.646
998.4600, 1054.898
998.9421, 1084.420
999.4242, 1119.328
999.9063, 1159.569
1000.388, 1208.567
1000.871, 1270.561
1001.353, 1334.489
1001.835, 1390.468
1002.317, 1442.780
1002.799, 1496.651
1003.281, 1551.116
1003.763, 1611.525
1004.245, 1677.528
1004.728, 1751.404
1005.210, 1832.728
1005.692, 1924.427
1006.174, 2033.937
1006.656, 2162.216
1007.138, 2313.531
1007.620, 2488.305
1008.102, 2690.077
1008.584, 2925.373
1009.067, 3191.414
1009.549, 3483.912
1010.031, 3808.868
1010.513, 4156.304
1010.995, 4542.537
1011.477, 4881.428
1011.959, 5126.701
1012.441, 5226.247
1012.924, 5085.639
1013.406, 4648.138
1013.888, 4147.657
1014.370, 3559.652
1014.852, 3010.740
1015.334, 2556.038
1015.816, 2193.510
1016.298, 1905.827
1016.780, 1691.664
1017.263, 1523.219
1017.745, 1400.711
1018.227, 1304.125
1018.709, 1228.421
1019.191, 1169.658
1019.673, 1120.002
1020.155, 1079.830
1020.637, 1045.227
1021.120, 1016.041
1021.602, 991.0059
1022.084, 968.9642
1022.566, 949.9923
1023.048, 934.8477
1023.530, 923.5614
1024.012, 913.1185
1024.494, 901.8198
1024.976, 891.9190
1025.458, 884.5469
1025.941, 879.1567
1026.423, 873.3616
1026.905, 867.2370
1027.387, 862.9632
1027.869, 862.2298
1028.351, 861.7000
1028.833, 857.7631
1029.316, 852.4025
1029.798, 848.0814
1030.280, 845.2815
1030.762, 843.3254
1031.244, 842.2709
1031.726, 841.9330
1032.208, 842.6320
1032.690, 843.8340
1033.172, 843.7139
1033.655, 842.5795
1034.137, 842.1783
1034.619, 843.4880
1035.101, 845.6234
1035.583, 848.4335
1036.065, 851.7230
1036.547, 854.9654
1037.029, 858.0935
1037.511, 862.5890
1037.994, 868.7138
1038.476, 875.9298
1038.958, 883.4637
1039.440, 891.7883
1039.922, 901.1427
1040.404, 911.6399
1040.886, 923.8076
1041.368, 938.4710
1041.851, 953.0178
1042.333, 966.0127
1042.815, 978.6941
1043.297, 993.8956
1043.779, 1011.518
1044.261, 1030.722
1044.743, 1051.307
1045.225, 1073.211
1045.708, 1094.865
1046.190, 1118.852
1046.672, 1147.460
1047.154, 1180.765
1047.636, 1218.343
1048.118, 1260.610
1048.600, 1304.367
1049.082, 1349.117
1049.564, 1392.906
1050.047, 1438.056
1050.529, 1481.621
1051.011, 1507.034
1051.493, 1513.191
1051.975, 1502.448
1052.457, 1473.617
1052.939, 1431.219
1053.421, 1376.503
1053.903, 1315.136
1054.386, 1257.028
1054.868, 1203.818
1055.350, 1158.262
1055.832, 1121.452
1056.314, 1093.525
1056.796, 1074.876
1057.278, 1064.776
1057.760, 1058.268
1058.243, 1055.273
1058.725, 1054.637
1059.207, 1055.237
1059.689, 1059.003
1060.171, 1067.844
1060.653, 1080.876
1061.135, 1097.157
1061.617, 1117.165
1062.099, 1138.180
1062.582, 1159.942
1063.064, 1183.701
1063.546, 1210.287
1064.028, 1239.932
1064.510, 1273.671
1064.992, 1311.085
1065.474, 1350.380
1065.956, 1393.896
1066.438, 1435.939
1066.921, 1476.971
1067.403, 1514.253
1067.885, 1545.900
1068.367, 1571.225
1068.849, 1582.979
1069.331, 1580.476
1069.813, 1563.015
1070.295, 1526.333
1070.778, 1477.342
1071.260, 1418.000
1071.742, 1349.225
1072.224, 1284.509
1072.706, 1223.597
1073.188, 1168.464
1073.670, 1119.343
1074.152, 1076.218
1074.635, 1038.764
1075.117, 1006.689
1075.599, 978.9021
1076.081, 957.0233
1076.563, 936.6163
1077.045, 916.6608
1077.527, 899.4055
1078.009, 887.5466
1078.491, 879.7918
1078.974, 870.8545
1079.456, 861.0427
1079.938, 852.0114
1080.420, 844.6892
1080.902, 837.9193
1081.384, 831.1147
1081.866, 824.7230
1082.348, 819.1443
1082.831, 814.3831
1083.313, 811.5370
1083.795, 810.8334
1084.277, 809.9288
1084.759, 806.2976
1085.241, 802.1164
1085.723, 799.3585
1086.205, 797.9294
1086.688, 795.7708
1087.170, 792.3179
1087.652, 790.0326
1088.134, 789.8654
1088.616, 790.1751
1089.098, 788.1451
1089.580, 785.1042
1090.062, 783.4265
1090.544, 783.8944
1091.026, 783.7313
1091.509, 781.8373
1091.991, 780.0450
1092.473, 779.2189
1092.955, 779.0943
1093.437, 778.9010
1093.919, 778.5806
1094.401, 777.9007
1094.883, 776.6983
1095.366, 775.2261
1095.848, 772.6348
1096.330, 770.5419
1096.812, 770.9355
1097.294, 774.3209
1097.776, 774.2950
1098.258, 770.8047
1098.740, 767.9974
1099.223, 769.7089
1099.705, 772.2818
1100.187, 772.9294
1100.669, 772.0034
1101.151, 770.4634
1101.633, 767.8115
1102.115, 766.4206
1102.597, 766.7073
1103.079, 767.3748
1103.562, 767.3010
1104.044, 766.5859
1104.526, 764.8393
1105.008, 762.2247
1105.490, 761.1253
1105.972, 763.5749
1106.454, 765.2852
1106.936, 765.1838
1107.418, 763.9427
1107.901, 762.2661
1108.383, 760.5467
1108.865, 760.0539
1109.347, 761.2010
1109.829, 762.5847
1110.311, 764.0449
1110.793, 765.0878
1111.275, 765.5716
1111.758, 765.4385
1112.240, 764.1008
1112.722, 761.6836
1113.204, 759.5567
1113.686, 758.0520
1114.168, 757.3201
1114.650, 758.2394
1115.132, 759.5208
1115.615, 759.5728
1116.097, 757.9651
1116.579, 758.1613
1117.061, 760.3300
1117.543, 762.0430
1118.025, 761.0803
1118.507, 759.3919
1118.989, 759.2129
1119.471, 759.8506
1119.953, 759.7170
1120.436, 758.1748
1120.918, 756.8022
1121.400, 755.6290
1121.882, 754.7856
1122.364, 754.4318
1122.846, 754.4754
1123.328, 754.8852
1123.810, 755.5928
1124.293, 756.2216
1124.775, 757.1816
1125.257, 757.1586
1125.739, 755.3742
1126.221, 753.4020
1126.703, 754.3251
1127.185, 756.9969
1127.667, 757.7424
1128.150, 756.0549
1128.632, 754.3784
1129.114, 753.4041
1129.596, 753.3351
1130.078, 754.7261
1130.560, 756.7623
1131.042, 756.4321
1131.524, 754.2003
1132.006, 753.3099
1132.489, 754.9609
1132.971, 756.4697
1133.453, 755.1051
1133.935, 753.6462
1134.417, 754.6740
1134.899, 757.9953
1135.381, 758.6539
1135.863, 756.6577
1136.346, 755.5236
1136.828, 757.4247
1137.310, 759.5188
1137.792, 758.7610
1138.274, 756.8682
1138.756, 756.2057
1139.238, 757.2634
1139.720, 757.7367
1140.203, 757.5490
1140.685, 757.3381
1141.167, 757.4457
1141.649, 757.8231
1142.131, 758.8000
1142.613, 759.9344
1143.095, 760.2465
1143.577, 758.4811
1144.059, 758.2081
1144.542, 759.9990
1145.024, 761.8898
1145.506, 761.8372
1145.988, 760.7914
1146.470, 760.1755
1146.952, 760.0572
1147.434, 760.4554
1147.916, 761.5565
1148.398, 763.0710
1148.881, 765.3613
1149.363, 767.3094
1149.845, 766.7469
1150.327, 764.8403
1150.809, 764.8262
1151.291, 766.8471
1151.773, 768.3429
1152.255, 767.0632
1152.738, 766.6326
1153.220, 768.4772
1153.702, 771.3654
1154.184, 773.0297
1154.666, 773.6559
1155.148, 773.8662
1155.630, 773.7249
1156.112, 773.6458
1156.594, 773.5732
1157.077, 773.9262
1157.559, 774.9216
1158.041, 776.4194
1158.523, 778.0486
1159.005, 779.7706
1159.487, 781.1349
1159.969, 781.7057
1160.451, 783.1757
1160.933, 788.7500
1161.416, 793.8203
1161.898, 794.5079
1162.380, 791.3350
1162.862, 789.8526
1163.344, 790.0309
1163.826, 790.9041
1164.308, 792.4218
1164.790, 793.8233
1165.273, 794.3787
1165.755, 794.5739
1166.237, 794.9815
1166.719, 795.6707
1167.201, 795.9842
1167.683, 795.9113
1168.165, 795.3458
1168.647, 793.4182
1169.130, 791.9332
1169.612, 793.1638
1170.094, 795.6971
1170.576, 797.4699
1171.058, 798.5371
1171.540, 798.0395
1172.022, 795.8052
1172.504, 793.3558
1172.986, 791.1181
1173.469, 789.7380
1173.951, 790.5320
1174.433, 792.6776
1174.915, 794.2067
1175.397, 794.8756
1175.879, 795.0995
1176.361, 794.8404
1176.843, 794.4310
1177.326, 794.1938
1177.808, 793.9433
1178.290, 793.2366
1178.772, 792.2640
1179.254, 791.8708
1179.736, 792.4955
1180.218, 792.6908
1180.700, 792.1031
1181.182, 791.7487
1181.665, 793.3611
1182.147, 795.5519
1182.629, 796.0008
1183.111, 794.8616
1183.593, 794.1414
1184.075, 794.4142
1184.557, 794.7219
1185.039, 795.0277
1185.521, 795.0115
1186.004, 794.2357
1186.486, 792.8494
1186.968, 790.6130
1187.450, 787.6110
1187.932, 786.1594
1188.414, 787.5486
1188.896, 788.9365
1189.378, 789.8123
1189.861, 790.0645
1190.343, 788.8792
1190.825, 787.1743
1191.307, 786.8041
1191.789, 788.1389
1192.271, 789.2303
1192.753, 789.7791
1193.235, 789.8135
1193.718, 789.1348
1194.200, 788.2841
1194.682, 788.2629
1195.164, 788.8512
1195.646, 789.8571
1196.128, 791.5107
1196.610, 791.7934
1197.092, 789.3074
1197.574, 787.0856
1198.057, 786.2914
1198.539, 786.4873
1199.021, 786.9062
1199.503, 787.4788
1199.985, 788.0387
1200.467, 788.5016
1200.949, 789.1418
1201.431, 790.3312
1201.913, 791.1348
1202.396, 790.8591
1202.878, 790.0950
1203.360, 790.4219
1203.842, 791.5129
1204.324, 792.5189
1204.806, 793.1891
1205.288, 793.8348
1205.770, 794.7715
1206.253, 795.2259
1206.735, 794.3956
1207.217, 792.9638
1207.699, 793.0445
1208.181, 794.1511
1208.663, 794.9397
1209.145, 794.3651
1209.627, 794.7503
1210.109, 797.2888
1210.592, 799.2225
1211.074, 797.9101
1211.556, 794.8456
1212.038, 794.9726
1212.520, 797.3032
1213.002, 799.0554
1213.484, 798.9294
1213.966, 798.5408
1214.448, 797.8033
1214.931, 797.4156
1215.413, 798.2684
1215.895, 799.7946
1216.377, 799.8271
1216.859, 801.8241
1217.341, 804.2764
1217.823, 805.3519
1218.305, 809.3563
1218.788, 811.4636
1219.270, 812.0108
1219.752, 810.9261
1220.234, 808.6448
1220.716, 805.8311
1221.198, 802.7762
1221.680, 800.4055
1222.162, 799.4854
1222.645, 798.4386
1223.127, 796.3253
1223.609, 795.7165
1224.091, 801.1227
1224.573, 808.9526
1225.055, 811.2902
1225.537, 808.9180
1226.019, 805.7906
1226.501, 801.8993
1226.984, 799.4443
1227.466, 798.8369
1227.948, 799.0973
1228.430, 799.4446
1228.912, 799.8645
1229.394, 800.4755
1229.876, 801.1603
1230.358, 801.4287
1230.841, 800.7604
1231.323, 800.5280
1231.805, 801.0736
1232.287, 801.3964
1232.769, 799.7145
1233.251, 797.5604
1233.733, 798.1440
1234.215, 800.7175
1234.698, 801.0629
1235.180, 797.1284
1235.662, 794.4171
1236.144, 793.5828
1236.626, 793.8286
1237.108, 794.8901
1237.590, 796.1483
1238.072, 796.7870
1238.554, 796.8810
1239.036, 796.9895
1239.519, 797.0236
1240.001, 797.7473
1240.483, 799.5272
1240.965, 800.6086
1241.447, 798.0568
1241.929, 794.7520
1242.411, 793.7297
1242.893, 794.8733
1243.376, 796.7385
1243.858, 799.7694
1244.340, 800.9559
1244.822, 799.7068
1245.304, 797.9598
1245.786, 797.5690
1246.268, 797.4759
1246.750, 796.4291
1247.233, 796.3184
1247.715, 796.2299
1248.197, 795.6511
1248.679, 796.3411
1249.161, 796.2361
1249.643, 796.2524
1250.125, 797.6596
1250.607, 799.0471
1251.089, 799.2366
1251.572, 798.5421
1252.054, 797.7789
1252.536, 796.9379
1253.018, 796.3967
1253.500, 796.2071
1253.982, 796.1282
1254.464, 796.0185
1254.946, 795.9103
1255.428, 795.7454
1255.911, 795.6322
1256.393, 795.9717
1256.875, 796.6717
1257.357, 796.7996
1257.839, 796.2283
1258.321, 795.5120
1258.803, 793.6608
1259.285, 793.5753
1259.768, 797.5804
1260.250, 802.8161
1260.732, 803.3448
1261.214, 800.2689
1261.696, 798.0062
1262.178, 797.1125
1262.660, 796.2529
1263.142, 795.0114
1263.625, 793.2908
1264.107, 790.5872
1264.589, 788.0983
1265.071, 788.2463
1265.553, 789.9938
1266.035, 790.6901
1266.517, 790.0971
1266.999, 789.7958
1267.481, 790.5394
1267.964, 791.1162
1268.446, 791.2175
1268.928, 791.2097
1269.410, 791.7517
1269.892, 792.4719
1270.374, 792.8453
1270.856, 792.8194
1271.338, 792.3721
1271.820, 791.4749
1272.303, 790.2994
1272.785, 788.7533
1273.267, 787.4210
1273.749, 787.2135
1274.231, 787.4705
1274.713, 787.4219
1275.195, 787.0945
1275.677, 787.0945
1276.160, 787.4900
1276.642, 787.8624
1277.124, 788.1248
1277.606, 788.4288
1278.088, 789.3627
1278.570, 789.9993
1279.052, 788.8673
1279.534, 790.0358
1280.016, 787.3669
1280.499, 790.3894
1280.981, 791.6682
1281.463, 790.6038
1281.945, 788.9250
1282.427, 786.8152
1282.909, 785.6512
1283.391, 787.0352
1283.873, 785.8088
1284.356, 788.9617
1284.838, 786.6061
1285.320, 786.2527
1285.802, 788.2225
1286.284, 789.5040
1286.766, 787.1876
1287.248, 785.6370
1287.730, 786.4153
1288.213, 788.1906
1288.695, 789.2516
1289.177, 789.7324
1289.659, 789.8329
1290.141, 789.6442
1290.623, 789.7312
1291.105, 790.9118
1291.587, 791.1712
1292.069, 789.7823
1292.552, 788.6504
1293.034, 791.2087
1293.516, 794.6892
1293.998, 794.3947
1294.480, 790.9366
1294.962, 788.9404
1295.444, 789.1241
1295.926, 789.7624
1296.408, 790.7841
1296.891, 791.4979
1297.373, 790.9003
1297.855, 789.9777
1298.337, 789.5594
1298.819, 789.7177
1299.301, 790.3115
1299.783, 791.4421
1300.265, 791.6060
1300.748, 790.6953
1301.230, 790.2368
1301.712, 792.3207
1302.194, 794.1282
1302.676, 794.5498
##END=



