##NAMES=Teallite
##RRUFFID=R050434
##IDEAL CHEMISTRY=PbSnS_2_
##LOCALITY=Carhuaycollo, Carguaicollo District, Potosi, Bolivia
##OWNER=RRUFF
##SOURCE=University of Arizona Mineral Museum
##DESCRIPTION=Grayish black massive aggregate of thin folia with warped and bent crystals
##STATUS=The identification of this mineral has been confirmed by X-ray diffraction.
##URL=rruff.info/R050434
##MEASURED CHEMISTRY=(Pb_0.71_Sn_1.29_)_Î£=2_S_2.00_
118.003, 1353.604
118.485, 1408.937
118.967, 1515.892
119.449, 1638.489
119.931, 1738.115
120.413, 1816.868
120.896, 1907.164
121.378, 2024.384
121.860, 2169.102
122.342, 2353.406
122.824, 2585.184
123.306, 2858.807
123.788, 3169.676
124.270, 3518.200
124.752, 3895.427
125.234, 4306.817
125.717, 4761.248
126.199, 5193.565
126.681, 5621.923
127.163, 6003.082
127.645, 6329.387
128.127, 6597.099
128.609, 6759.858
129.091, 6722.392
129.574, 6405.080
130.056, 6099.730
130.538, 5863.235
131.020, 5654.201
131.502, 5440.196
131.984, 5210.210
132.466, 4974.944
132.948, 4756.410
133.430, 4560.125
133.913, 4373.402
134.395, 4172.991
134.877, 3987.047
135.359, 3844.926
135.841, 3760.868
136.323, 3722.653
136.805, 3692.139
137.287, 3660.093
137.770, 3650.419
138.252, 3667.259
138.734, 3706.632
139.216, 3765.686
139.698, 3843.933
140.180, 3938.201
140.662, 4031.605
141.144, 4128.452
141.626, 4219.208
142.109, 4306.032
142.591, 4385.242
143.073, 4451.222
143.555, 4501.062
144.037, 4534.626
144.519, 4550.724
145.001, 4561.795
145.483, 4543.842
145.965, 4473.567
146.448, 4368.083
146.930, 4263.079
147.412, 4185.260
147.894, 4134.553
148.376, 4062.396
148.858, 3954.884
149.340, 3843.932
149.822, 3733.219
150.305, 3627.951
150.787, 3536.904
151.269, 3467.150
151.751, 3419.663
152.233, 3387.561
152.715, 3378.699
153.197, 3374.928
153.679, 3369.291
154.161, 3360.917
154.644, 3349.001
155.126, 3329.800
155.608, 3301.850
156.090, 3299.273
156.572, 3342.922
157.054, 3392.676
157.536, 3429.015
158.018, 3449.144
158.501, 3452.010
158.983, 3432.337
159.465, 3385.885
159.947, 3355.865
160.429, 3346.468
160.911, 3349.974
161.393, 3366.209
161.875, 3393.823
162.357, 3419.507
162.840, 3427.584
163.322, 3415.197
163.804, 3418.641
164.286, 3457.198
164.768, 3501.135
165.250, 3522.362
165.732, 3517.327
166.214, 3504.893
166.697, 3507.813
167.179, 3527.096
167.661, 3520.623
168.143, 3463.999
168.625, 3390.136
169.107, 3331.566
169.589, 3293.001
170.071, 3264.987
170.553, 3241.485
171.036, 3222.339
171.518, 3200.143
172.000, 3171.914
172.482, 3140.781
172.964, 3108.759
173.446, 3075.284
173.928, 3046.710
174.410, 3034.726
174.893, 3037.582
175.375, 3031.859
175.857, 3008.726
176.339, 2975.949
176.821, 2942.605
177.303, 2909.635
177.785, 2877.965
178.267, 2846.533
178.749, 2815.751
179.232, 2792.358
179.714, 2779.629
180.196, 2774.683
180.678, 2773.282
181.160, 2774.743
181.642, 2780.342
182.124, 2796.788
182.606, 2821.334
183.089, 2837.157
183.571, 2836.719
184.053, 2825.572
184.535, 2810.658
185.017, 2791.336
185.499, 2773.314
185.981, 2763.075
186.463, 2759.032
186.945, 2757.336
187.428, 2756.194
187.910, 2756.839
188.392, 2761.912
188.874, 2772.473
189.356, 2784.866
189.838, 2796.288
190.320, 2806.872
190.802, 2817.017
191.285, 2826.399
191.767, 2835.483
192.249, 2847.221
192.731, 2864.419
193.213, 2876.008
193.695, 2864.083
194.177, 2836.288
194.659, 2817.418
195.141, 2819.274
195.624, 2833.825
196.106, 2849.096
196.588, 2864.732
197.070, 2879.313
197.552, 2888.711
198.034, 2895.389
198.516, 2907.325
198.998, 2935.906
199.480, 2968.249
199.963, 2980.581
200.445, 2966.555
200.927, 2951.922
201.409, 2962.418
201.891, 2988.910
202.373, 3010.537
202.855, 3018.923
203.337, 3019.914
203.820, 3021.518
204.302, 3024.217
204.784, 3026.501
205.266, 3024.301
205.748, 3020.599
206.230, 3023.168
206.712, 3040.586
207.194, 3062.329
207.676, 3074.424
208.159, 3075.712
208.641, 3073.132
209.123, 3069.883
209.605, 3066.225
210.087, 3062.753
210.569, 3059.526
211.051, 3056.564
211.533, 3053.523
212.016, 3050.270
212.498, 3048.524
212.980, 3053.891
213.462, 3060.824
213.944, 3056.686
214.426, 3029.709
214.908, 2998.282
215.390, 2981.036
215.872, 2978.219
216.355, 2979.686
216.837, 2983.228
217.319, 2986.261
217.801, 2983.451
218.283, 2972.339
218.765, 2957.247
219.247, 2939.847
219.729, 2920.388
220.212, 2904.425
220.694, 2898.925
221.176, 2896.807
221.658, 2882.366
222.140, 2847.248
222.622, 2810.611
223.104, 2786.057
223.586, 2772.359
224.068, 2760.871
224.551, 2748.781
225.033, 2735.942
225.515, 2722.405
225.997, 2709.282
226.479, 2693.614
226.961, 2671.429
227.443, 2644.588
227.925, 2620.106
228.408, 2600.716
228.890, 2584.954
229.372, 2568.802
229.854, 2549.630
230.336, 2536.352
230.818, 2541.505
231.300, 2555.782
231.782, 2553.688
232.264, 2522.927
232.747, 2480.531
233.229, 2457.407
233.711, 2456.875
234.193, 2455.092
234.675, 2444.294
235.157, 2427.394
235.639, 2398.976
236.121, 2382.189
236.604, 2413.888
237.086, 2385.683
237.568, 2421.353
238.050, 2382.139
238.532, 2351.055
239.014, 2320.840
239.496, 2288.565
239.978, 2273.329
240.460, 2280.974
240.943, 2269.781
241.425, 2300.801
241.907, 2280.598
242.389, 2289.971
242.871, 2304.200
243.353, 2298.867
243.835, 2271.545
244.317, 2238.306
244.799, 2212.928
245.282, 2196.473
245.764, 2186.778
246.246, 2192.059
246.728, 2197.441
247.210, 2192.000
247.692, 2176.418
248.174, 2158.499
248.656, 2143.485
249.139, 2131.542
249.621, 2125.176
250.103, 2132.572
250.585, 2136.723
251.067, 2126.207
251.549, 2105.539
252.031, 2088.294
252.513, 2083.565
252.995, 2089.512
253.478, 2090.604
253.960, 2083.660
254.442, 2076.165
254.924, 2070.725
255.406, 2065.878
255.888, 2058.267
256.370, 2045.928
256.852, 2031.197
257.335, 2022.279
257.817, 2028.091
258.299, 2029.351
258.781, 2019.465
259.263, 2006.404
259.745, 1987.734
260.227, 1995.331
260.709, 2010.317
261.191, 1984.357
261.674, 2011.974
262.156, 1955.018
262.638, 1932.805
263.120, 1935.179
263.602, 1947.276
264.084, 1956.173
264.566, 1939.055
265.048, 1930.797
265.530, 1935.159
266.013, 1938.488
266.495, 1946.336
266.977, 1925.181
267.459, 1936.357
267.941, 1911.297
268.423, 1910.326
268.905, 1909.306
269.387, 1902.697
269.870, 1897.333
270.352, 1890.950
270.834, 1883.007
271.316, 1877.721
271.798, 1874.367
272.280, 1873.021
272.762, 1870.860
273.244, 1861.256
273.727, 1855.703
274.209, 1847.933
274.691, 1838.953
275.173, 1831.599
275.655, 1839.943
276.137, 1818.120
276.619, 1817.382
277.101, 1819.123
277.583, 1802.714
278.065, 1864.763
278.548, 1906.669
279.030, 1889.436
279.512, 1849.849
279.994, 1821.966
280.476, 1816.412
280.958, 1818.854
281.440, 1810.168
281.922, 1788.928
282.405, 1775.517
282.887, 1784.766
283.369, 1797.278
283.851, 1793.554
284.333, 1770.942
284.815, 1748.154
285.297, 1739.521
285.779, 1742.623
286.262, 1745.079
286.744, 1743.642
287.226, 1742.601
287.708, 1747.319
288.190, 1757.100
288.672, 1765.162
289.154, 1766.123
289.636, 1764.360
290.118, 1769.493
290.601, 1784.162
291.083, 1796.329
291.565, 1791.490
292.047, 1773.504
292.529, 1764.991
293.011, 1775.220
293.493, 1791.676
293.975, 1805.086
294.457, 1815.200
294.940, 1822.906
295.422, 1828.598
295.904, 1832.217
296.386, 1834.243
296.868, 1833.119
297.350, 1832.213
297.832, 1832.762
298.314, 1834.534
298.797, 1836.212
299.279, 1836.694
299.761, 1838.513
300.243, 1848.834
300.725, 1881.907
301.207, 1901.232
301.689, 1894.839
302.171, 1877.052
302.654, 1860.517
303.136, 1849.185
303.618, 1844.618
304.100, 1850.902
304.582, 1878.660
305.064, 1886.578
305.546, 1857.785
306.028, 1825.635
306.510, 1812.665
306.992, 1816.748
307.475, 1819.445
307.957, 1803.276
308.439, 1767.455
308.921, 1740.066
309.403, 1721.754
309.885, 1712.191
310.367, 1717.170
310.849, 1730.239
311.332, 1741.414
311.814, 1745.241
312.296, 1743.034
312.778, 1738.899
313.260, 1733.432
313.742, 1724.546
314.224, 1709.318
314.706, 1692.271
315.189, 1677.786
315.671, 1667.131
316.153, 1657.888
316.635, 1643.786
317.117, 1622.759
317.599, 1615.613
318.081, 1641.376
318.563, 1669.458
319.045, 1677.888
319.528, 1666.672
320.010, 1651.154
320.492, 1642.202
320.974, 1637.294
321.456, 1625.130
321.938, 1599.990
322.420, 1578.419
322.902, 1578.977
323.384, 1593.903
323.867, 1602.844
324.349, 1594.476
324.831, 1580.495
325.313, 1572.888
325.795, 1571.780
326.277, 1576.004
326.759, 1589.320
327.241, 1605.808
327.724, 1607.438
328.206, 1581.363
328.688, 1558.530
329.170, 1556.325
329.652, 1567.054
330.134, 1573.694
330.616, 1569.817
331.098, 1561.333
331.581, 1559.191
332.063, 1568.085
332.545, 1572.473
333.027, 1571.564
333.509, 1565.602
333.991, 1550.257
334.473, 1527.246
334.955, 1508.583
335.437, 1507.565
335.919, 1527.109
336.402, 1540.772
336.884, 1548.339
337.366, 1551.305
337.848, 1548.514
338.330, 1541.635
338.812, 1532.803
339.294, 1522.802
339.776, 1513.098
340.259, 1509.925
340.741, 1517.857
341.223, 1525.271
341.705, 1529.286
342.187, 1532.551
342.669, 1538.343
343.151, 1547.443
343.633, 1556.082
344.116, 1558.575
344.598, 1554.069
345.080, 1550.969
345.562, 1552.302
346.044, 1553.318
346.526, 1549.536
347.008, 1542.174
347.490, 1537.528
347.973, 1542.779
348.455, 1553.409
348.937, 1556.469
349.419, 1549.891
349.901, 1541.656
350.383, 1536.058
350.865, 1532.432
351.347, 1529.558
351.829, 1526.419
352.311, 1524.893
352.794, 1528.787
353.276, 1536.468
353.758, 1539.965
354.240, 1535.673
354.722, 1526.067
355.204, 1514.888
355.686, 1499.765
356.168, 1489.562
356.651, 1489.943
357.133, 1494.434
357.615, 1495.364
358.097, 1491.464
358.579, 1486.544
359.061, 1484.554
359.543, 1485.901
360.025, 1487.719
360.508, 1488.592
360.990, 1491.227
361.472, 1518.348
361.954, 1510.170
362.436, 1516.698
362.918, 1514.582
363.400, 1506.925
363.882, 1505.641
364.364, 1520.630
364.847, 1507.965
365.329, 1503.907
365.811, 1511.470
366.293, 1484.655
366.775, 1485.711
367.257, 1507.206
367.739, 1531.325
368.221, 1517.136
368.703, 1497.564
369.186, 1492.534
369.668, 1501.851
370.150, 1499.937
370.632, 1494.542
371.114, 1490.164
371.596, 1487.282
372.078, 1499.139
372.560, 1491.009
373.043, 1490.469
373.525, 1488.438
374.007, 1478.438
374.489, 1480.478
374.971, 1480.849
375.453, 1479.530
375.935, 1476.858
376.417, 1474.927
376.900, 1474.779
377.382, 1475.236
377.864, 1474.466
378.346, 1473.180
378.828, 1468.578
379.310, 1468.461
379.792, 1471.985
380.274, 1467.505
380.756, 1462.448
381.238, 1461.935
381.721, 1453.837
382.203, 1455.782
382.685, 1443.357
383.167, 1438.694
383.649, 1441.167
384.131, 1457.069
384.613, 1472.878
385.095, 1491.813
385.578, 1507.546
386.060, 1512.301
386.542, 1504.266
387.024, 1490.595
387.506, 1479.335
387.988, 1470.083
388.470, 1466.265
388.952, 1474.682
389.435, 1481.976
389.917, 1480.326
390.399, 1471.783
390.881, 1463.024
391.363, 1456.111
391.845, 1452.065
392.327, 1454.157
392.809, 1463.257
393.291, 1472.301
393.774, 1478.888
394.256, 1482.759
394.738, 1483.675
395.220, 1480.609
395.702, 1477.089
396.184, 1474.864
396.666, 1473.428
397.148, 1471.238
397.630, 1467.777
398.113, 1465.572
398.595, 1467.754
399.077, 1475.281
399.559, 1482.232
400.041, 1492.598
400.523, 1498.683
401.005, 1492.073
401.487, 1477.671
401.970, 1468.205
402.452, 1471.310
402.934, 1482.236
403.416, 1485.445
403.898, 1473.975
404.380, 1465.873
404.862, 1462.554
405.344, 1462.809
405.827, 1467.831
406.309, 1476.672
406.791, 1483.940
407.273, 1482.299
407.755, 1472.398
408.237, 1469.579
408.719, 1481.271
409.201, 1487.660
409.683, 1471.399
410.165, 1444.621
410.648, 1428.773
411.130, 1434.129
411.612, 1446.623
412.094, 1452.009
412.576, 1451.367
413.058, 1452.147
413.540, 1457.141
414.022, 1463.959
414.505, 1468.231
414.987, 1469.190
415.469, 1473.179
415.951, 1485.372
416.433, 1498.394
416.915, 1506.478
417.397, 1508.968
417.879, 1505.919
418.362, 1496.132
418.844, 1481.302
419.326, 1475.120
419.808, 1486.894
420.290, 1496.396
420.772, 1500.927
421.254, 1502.102
421.736, 1499.784
422.218, 1494.661
422.701, 1491.529
423.183, 1500.500
423.665, 1525.007
424.147, 1531.630
424.629, 1502.400
425.111, 1475.339
425.593, 1469.578
426.075, 1479.083
426.557, 1490.862
427.040, 1500.954
427.522, 1508.956
428.004, 1514.995
428.486, 1518.986
428.968, 1517.914
429.450, 1507.784
429.932, 1495.393
430.414, 1492.150
430.897, 1499.336
431.379, 1505.322
431.861, 1506.396
432.343, 1505.232
432.825, 1505.639
433.307, 1507.320
433.789, 1504.653
434.271, 1491.617
434.754, 1470.780
435.236, 1465.983
435.718, 1497.586
436.200, 1520.306
436.682, 1524.540
437.164, 1518.745
437.646, 1509.774
438.128, 1500.222
438.610, 1492.532
439.092, 1489.903
439.575, 1492.658
440.057, 1497.254
440.539, 1507.133
441.021, 1514.272
441.503, 1511.797
441.985, 1504.701
442.467, 1503.450
442.949, 1516.223
443.432, 1529.205
443.914, 1522.357
444.396, 1498.417
444.878, 1481.474
445.360, 1478.712
445.842, 1485.976
446.324, 1502.397
446.806, 1530.054
447.289, 1544.620
447.771, 1530.774
448.253, 1511.047
448.735, 1504.583
449.217, 1509.504
449.699, 1512.209
450.181, 1503.719
450.663, 1488.295
451.145, 1482.288
451.628, 1495.698
452.110, 1504.147
452.592, 1502.190
453.074, 1497.865
453.556, 1498.631
454.038, 1504.486
454.520, 1508.591
455.002, 1501.850
455.484, 1487.148
455.967, 1485.281
456.449, 1501.908
456.931, 1518.751
457.413, 1529.566
457.895, 1534.569
458.377, 1531.607
458.859, 1516.604
459.341, 1504.643
459.823, 1509.988
460.306, 1525.234
460.788, 1532.864
461.270, 1528.832
461.752, 1521.919
462.234, 1520.840
462.716, 1526.032
463.198, 1527.757
463.681, 1523.824
464.163, 1519.103
464.645, 1516.384
465.127, 1513.853
465.609, 1506.937
466.091, 1494.093
466.573, 1481.308
467.055, 1479.297
467.537, 1491.652
468.020, 1501.489
468.502, 1510.641
468.984, 1514.765
469.466, 1506.076
469.948, 1491.077
470.430, 1485.302
470.912, 1500.041
471.394, 1521.162
471.876, 1526.167
472.359, 1515.964
472.841, 1512.499
473.323, 1526.977
473.805, 1544.621
474.287, 1541.169
474.769, 1515.687
475.251, 1496.054
475.733, 1486.224
476.216, 1484.941
476.698, 1497.550
477.180, 1518.943
477.662, 1533.402
478.144, 1531.784
478.626, 1518.381
479.108, 1504.388
479.590, 1481.015
480.072, 1473.450
480.555, 1497.177
481.037, 1523.188
481.519, 1532.273
482.001, 1525.251
482.483, 1514.725
482.965, 1507.085
483.447, 1503.460
483.929, 1509.517
484.411, 1528.046
484.894, 1540.910
485.376, 1536.397
485.858, 1525.480
486.340, 1525.910
486.822, 1541.031
487.304, 1549.853
487.786, 1537.488
488.268, 1518.647
488.750, 1509.853
489.233, 1512.241
489.715, 1520.788
490.197, 1533.366
490.679, 1548.033
491.161, 1554.942
491.643, 1544.000
492.125, 1538.275
492.608, 1543.906
493.090, 1552.077
493.572, 1556.960
494.054, 1557.080
494.536, 1552.268
495.018, 1540.788
495.500, 1524.192
495.982, 1509.761
496.464, 1496.820
496.947, 1487.838
497.429, 1481.817
497.911, 1481.740
498.393, 1494.858
498.875, 1526.557
499.357, 1549.594
499.839, 1542.831
500.321, 1523.550
500.803, 1517.791
501.286, 1527.559
501.768, 1536.939
502.250, 1533.707
502.732, 1520.171
503.214, 1512.120
503.696, 1513.001
504.178, 1515.220
504.660, 1520.954
505.142, 1525.964
505.625, 1523.174
506.107, 1513.832
506.589, 1510.052
507.071, 1528.933
507.553, 1563.180
508.035, 1567.819
508.517, 1530.085
509.000, 1501.628
509.482, 1517.128
509.964, 1547.661
510.446, 1551.980
510.928, 1520.359
511.410, 1495.458
511.892, 1504.835
512.374, 1527.875
512.856, 1536.566
513.339, 1529.034
513.821, 1519.830
514.303, 1519.526
514.785, 1525.609
515.267, 1525.312
515.749, 1506.340
516.231, 1497.602
516.713, 1509.236
517.195, 1525.456
517.678, 1534.622
518.160, 1535.497
518.642, 1532.698
519.124, 1528.885
519.606, 1524.483
520.088, 1520.892
520.570, 1518.126
521.052, 1515.780
521.534, 1511.472
522.017, 1509.327
522.499, 1516.869
522.981, 1536.632
523.463, 1550.372
523.945, 1544.927
524.427, 1535.741
524.909, 1542.329
525.391, 1561.255
525.873, 1572.551
526.356, 1563.923
526.838, 1540.875
527.320, 1518.242
527.802, 1484.310
528.284, 1473.729
528.766, 1509.789
529.248, 1547.862
529.731, 1559.126
530.213, 1548.262
530.695, 1538.227
531.177, 1544.020
531.659, 1555.744
532.141, 1556.076
532.623, 1545.243
533.105, 1534.139
533.587, 1526.063
534.070, 1518.847
534.552, 1506.652
535.034, 1488.033
535.516, 1483.973
535.998, 1510.682
536.480, 1539.060
536.962, 1553.256
537.444, 1555.843
537.927, 1553.527
538.409, 1549.145
538.891, 1542.379
539.373, 1530.198
539.855, 1508.464
540.337, 1501.278
540.819, 1521.718
541.301, 1541.810
541.783, 1548.886
542.266, 1547.037
542.748, 1543.673
543.230, 1540.184
543.712, 1537.600
544.194, 1537.828
544.676, 1539.575
545.158, 1538.057
545.640, 1532.036
546.122, 1528.974
546.605, 1537.483
547.087, 1539.867
547.569, 1533.952
548.051, 1548.832
548.533, 1536.784
549.015, 1538.114
549.497, 1542.286
549.979, 1532.581
550.461, 1532.827
550.944, 1540.379
551.426, 1546.973
551.908, 1552.562
552.390, 1561.799
552.872, 1548.567
553.354, 1522.948
553.836, 1510.044
554.318, 1516.321
554.800, 1524.540
555.283, 1530.057
555.765, 1532.732
556.247, 1534.240
556.729, 1533.065
557.211, 1518.477
557.693, 1518.140
558.175, 1518.233
558.657, 1520.654
559.140, 1525.234
559.622, 1532.778
560.104, 1531.493
560.586, 1525.631
561.068, 1537.412
561.550, 1522.225
562.032, 1521.873
562.514, 1530.910
562.997, 1535.024
563.479, 1525.772
563.961, 1515.330
564.443, 1521.274
564.925, 1537.221
565.407, 1537.318
565.889, 1513.893
566.371, 1489.755
566.854, 1487.874
567.336, 1508.290
567.818, 1519.578
568.300, 1510.060
568.782, 1507.151
569.264, 1526.960
569.746, 1550.457
570.228, 1555.297
570.710, 1539.322
571.193, 1520.207
571.675, 1513.513
572.157, 1516.420
572.639, 1517.574
573.121, 1516.486
573.603, 1516.231
574.085, 1518.146
574.567, 1521.418
575.049, 1525.578
575.532, 1531.246
576.014, 1533.570
576.496, 1526.190
576.978, 1519.625
577.460, 1524.251
577.942, 1536.311
578.424, 1545.939
578.906, 1548.638
579.388, 1545.834
579.871, 1538.945
580.353, 1526.714
580.835, 1516.522
581.317, 1507.082
581.799, 1501.850
582.281, 1502.373
582.763, 1507.731
583.245, 1517.543
583.727, 1534.303
584.210, 1547.995
584.692, 1549.121
585.174, 1543.683
585.656, 1542.164
586.138, 1545.776
586.620, 1550.127
587.102, 1552.689
587.584, 1552.689
588.067, 1545.725
588.549, 1520.300
589.031, 1507.120
589.513, 1514.150
589.995, 1527.830
590.477, 1543.553
590.959, 1558.304
591.442, 1565.558
591.924, 1558.665
592.406, 1546.930
592.888, 1543.908
593.370, 1547.924
593.852, 1548.297
594.334, 1541.207
594.816, 1535.344
595.298, 1542.612
595.781, 1564.166
596.263, 1568.687
596.745, 1536.216
597.227, 1513.320
597.709, 1518.240
598.191, 1534.908
598.673, 1546.727
599.155, 1550.472
599.638, 1551.837
600.120, 1557.677
600.602, 1564.464
601.084, 1557.089
601.566, 1533.224
602.048, 1519.592
602.530, 1531.200
603.012, 1551.514
603.494, 1554.355
603.977, 1537.111
604.459, 1526.647
604.941, 1533.298
605.423, 1539.461
605.905, 1528.622
606.387, 1512.482
606.869, 1515.203
607.351, 1543.773
607.833, 1577.043
608.316, 1587.943
608.798, 1577.179
609.280, 1562.643
609.762, 1540.016
610.244, 1525.794
610.726, 1533.646
611.208, 1551.809
611.690, 1561.233
612.172, 1560.560
612.655, 1555.779
613.137, 1543.168
613.619, 1531.477
614.101, 1529.947
614.583, 1535.831
615.065, 1540.976
615.547, 1541.567
616.029, 1538.591
616.511, 1532.764
616.994, 1523.258
617.476, 1516.605
617.958, 1511.776
618.440, 1511.755
618.922, 1521.349
619.404, 1535.671
619.886, 1547.802
620.369, 1557.819
620.851, 1562.915
621.333, 1556.230
621.815, 1547.473
622.297, 1549.399
622.779, 1560.703
623.261, 1572.217
623.743, 1579.114
624.225, 1579.871
624.708, 1567.817
625.190, 1535.090
625.672, 1518.901
626.154, 1535.757
626.636, 1552.606
627.118, 1548.472
627.600, 1533.033
628.082, 1525.607
628.565, 1532.055
629.047, 1542.771
629.529, 1554.367
630.011, 1565.794
630.493, 1577.112
630.975, 1587.385
631.457, 1591.908
631.939, 1587.178
632.421, 1576.007
632.904, 1566.244
633.386, 1557.655
633.868, 1551.164
634.350, 1545.817
634.832, 1543.839
635.314, 1550.208
635.796, 1560.320
636.278, 1563.020
636.760, 1551.390
637.243, 1540.432
637.725, 1543.143
638.207, 1551.611
638.689, 1551.296
639.171, 1541.625
639.653, 1533.436
640.135, 1533.784
640.617, 1541.990
641.099, 1558.193
641.582, 1591.795
642.064, 1608.989
642.546, 1591.073
643.028, 1571.311
643.510, 1567.273
643.992, 1574.839
644.474, 1583.073
644.956, 1588.930
645.438, 1594.909
645.921, 1604.278
646.403, 1614.156
646.885, 1620.595
647.367, 1622.853
647.849, 1619.951
648.331, 1610.396
648.813, 1597.302
649.295, 1590.637
649.778, 1591.730
650.260, 1595.928
650.742, 1612.222
651.224, 1621.476
651.706, 1606.232
652.188, 1577.090
652.670, 1558.858
653.152, 1559.873
653.635, 1567.513
654.117, 1575.909
654.599, 1585.451
655.081, 1598.838
655.563, 1614.831
656.045, 1627.216
656.527, 1632.368
657.009, 1629.405
657.492, 1612.892
657.974, 1575.606
658.456, 1551.877
658.938, 1548.130
659.420, 1554.500
659.902, 1572.123
660.384, 1593.931
660.866, 1605.303
661.348, 1600.717
661.831, 1592.749
662.313, 1584.632
662.795, 1578.004
663.277, 1574.483
663.759, 1574.213
664.241, 1577.331
664.723, 1584.111
665.205, 1592.661
665.687, 1599.067
666.170, 1602.916
666.652, 1608.158
667.134, 1617.523
667.616, 1623.924
668.098, 1617.758
668.580, 1607.552
669.062, 1610.400
669.544, 1633.977
670.026, 1650.664
670.509, 1647.156
670.991, 1637.205
671.473, 1632.128
671.955, 1630.847
672.437, 1626.610
672.919, 1616.400
673.401, 1606.521
673.883, 1608.851
674.365, 1622.719
674.848, 1627.196
675.330, 1618.442
675.812, 1610.882
676.294, 1609.948
676.776, 1615.562
677.258, 1631.146
677.740, 1662.903
678.222, 1677.644
678.705, 1659.436
679.187, 1634.832
679.669, 1612.102
680.151, 1595.709
680.633, 1592.645
681.115, 1604.486
681.597, 1621.202
682.079, 1636.340
682.562, 1648.020
683.044, 1647.200
683.526, 1633.234
684.008, 1619.496
684.490, 1609.416
684.972, 1605.535
685.454, 1613.776
685.936, 1638.342
686.419, 1649.031
686.901, 1630.371
687.383, 1617.929
687.865, 1631.094
688.347, 1649.679
688.829, 1649.070
689.311, 1628.273
689.793, 1609.940
690.275, 1612.417
690.758, 1623.088
691.240, 1622.970
691.722, 1614.741
692.204, 1608.463
692.686, 1606.632
693.168, 1611.945
693.650, 1629.557
694.132, 1657.400
694.614, 1668.486
695.097, 1650.526
695.579, 1637.224
696.061, 1633.236
696.543, 1635.217
697.025, 1648.254
697.507, 1666.271
697.989, 1668.359
698.471, 1636.142
698.953, 1604.926
699.436, 1600.073
699.918, 1611.064
700.400, 1624.424
700.882, 1637.326
701.364, 1649.556
701.846, 1661.188
702.328, 1670.883
702.810, 1674.802
703.292, 1672.203
703.775, 1669.307
704.257, 1669.182
704.739, 1664.098
705.221, 1642.612
705.703, 1614.802
706.185, 1602.107
706.667, 1607.812
707.149, 1621.561
707.632, 1654.358
708.114, 1682.166
708.596, 1682.955
709.078, 1666.210
709.560, 1652.119
710.042, 1648.247
710.524, 1649.202
711.006, 1649.935
711.489, 1650.491
711.971, 1651.142
712.453, 1651.908
712.935, 1651.905
713.417, 1650.065
713.899, 1649.181
714.381, 1654.729
714.863, 1669.216
715.346, 1672.495
715.828, 1650.277
716.310, 1635.301
716.792, 1640.320
717.274, 1652.177
717.756, 1657.783
718.238, 1656.724
718.720, 1657.452
719.202, 1667.366
719.685, 1677.877
720.167, 1680.209
720.649, 1676.553
721.131, 1669.046
721.613, 1659.193
722.095, 1656.661
722.577, 1670.927
723.059, 1695.149
723.541, 1703.792
724.024, 1692.214
724.506, 1682.127
724.988, 1674.799
725.470, 1671.100
725.952, 1675.916
726.434, 1684.181
726.916, 1684.113
727.398, 1670.633
727.880, 1658.819
728.363, 1651.413
728.845, 1648.413
729.327, 1649.161
729.809, 1654.464
730.291, 1669.225
730.773, 1695.110
731.255, 1717.450
731.737, 1716.098
732.219, 1698.043
732.702, 1687.218
733.184, 1684.220
733.666, 1681.262
734.148, 1675.313
734.630, 1667.976
735.112, 1660.399
735.594, 1651.771
736.076, 1652.186
736.559, 1672.217
737.041, 1687.251
737.523, 1675.458
738.005, 1676.218
738.487, 1677.100
738.969, 1678.205
739.451, 1679.674
739.933, 1681.155
740.416, 1682.006
740.898, 1683.914
741.380, 1687.899
741.862, 1689.902
742.344, 1695.736
742.826, 1703.180
743.308, 1704.582
743.790, 1698.395
744.273, 1693.626
744.755, 1687.251
745.237, 1686.095
745.719, 1686.435
746.201, 1685.367
746.683, 1692.157
747.165, 1694.391
747.647, 1698.408
748.129, 1698.808
748.612, 1701.371
749.094, 1702.768
749.576, 1704.051
750.058, 1706.354
750.540, 1705.429
751.022, 1705.849
751.504, 1706.734
751.986, 1707.874
752.468, 1708.417
752.951, 1707.949
753.433, 1710.616
753.915, 1713.163
754.397, 1715.917
754.879, 1719.929
755.361, 1715.747
755.843, 1715.437
756.325, 1722.605
756.807, 1714.212
757.290, 1717.092
757.772, 1722.667
758.254, 1733.729
758.736, 1740.580
759.218, 1731.336
759.700, 1714.155
760.182, 1712.345
760.664, 1734.502
761.146, 1750.499
761.629, 1753.316
762.111, 1750.945
762.593, 1743.218
763.075, 1735.380
763.557, 1738.605
764.039, 1754.695
764.521, 1764.325
765.003, 1745.417
765.486, 1714.542
765.968, 1694.213
766.450, 1685.046
766.932, 1693.135
767.414, 1719.674
767.896, 1742.270
768.378, 1737.945
768.860, 1712.776
769.343, 1698.689
769.825, 1695.649
770.307, 1704.794
770.789, 1735.212
771.271, 1765.464
771.753, 1783.075
772.235, 1788.896
772.717, 1784.057
773.200, 1760.895
773.682, 1744.705
774.164, 1747.090
774.646, 1750.985
775.128, 1743.145
775.610, 1730.227
776.092, 1725.622
776.574, 1732.599
777.056, 1740.062
777.539, 1736.603
778.021, 1729.821
778.503, 1731.539
778.985, 1740.362
779.467, 1753.621
779.949, 1770.138
780.431, 1777.732
780.913, 1762.477
781.395, 1732.178
781.878, 1724.159
782.360, 1744.798
782.842, 1758.412
783.324, 1756.781
783.806, 1753.403
784.288, 1758.414
784.770, 1768.045
785.252, 1771.527
785.734, 1767.086
786.217, 1761.291
786.699, 1750.119
787.181, 1742.805
787.663, 1747.691
788.145, 1757.714
788.627, 1762.059
789.109, 1758.859
789.591, 1756.384
790.073, 1761.199
790.556, 1768.401
791.038, 1774.231
791.520, 1777.707
792.002, 1775.027
792.484, 1766.329
792.966, 1758.595
793.448, 1757.613
793.930, 1760.109
794.413, 1755.220
794.895, 1742.129
795.377, 1742.602
795.859, 1762.093
796.341, 1784.295
796.823, 1802.908
797.305, 1815.804
797.787, 1817.795
798.269, 1804.865
798.752, 1794.435
799.234, 1784.314
799.716, 1779.150
800.198, 1785.418
800.680, 1793.844
801.162, 1795.274
801.644, 1789.265
802.127, 1780.422
802.609, 1764.934
803.091, 1753.982
803.573, 1756.322
804.055, 1766.406
804.537, 1779.228
805.019, 1792.896
805.501, 1805.910
805.983, 1817.818
806.466, 1824.767
806.948, 1819.939
807.430, 1805.598
807.912, 1786.633
808.394, 1763.779
808.876, 1753.225
809.358, 1762.129
809.840, 1782.891
810.322, 1809.243
810.805, 1840.639
811.287, 1849.090
811.769, 1822.848
812.251, 1799.874
812.733, 1782.224
813.215, 1775.589
813.697, 1793.226
814.179, 1825.300
814.661, 1840.584
815.144, 1827.277
815.626, 1816.704
816.108, 1813.040
816.590, 1816.279
817.072, 1837.389
817.554, 1861.122
818.036, 1859.141
818.518, 1825.888
819.000, 1793.721
819.483, 1785.233
819.965, 1789.026
820.447, 1786.825
820.929, 1787.586
821.411, 1824.865
821.893, 1897.138
822.375, 1946.999
822.857, 1930.588
823.340, 1874.492
823.822, 1830.323
824.304, 1798.435
824.786, 1790.317
825.268, 1810.553
825.750, 1831.144
826.232, 1839.083
826.714, 1837.657
827.196, 1830.251
827.679, 1814.408
828.161, 1812.195
828.643, 1838.216
829.125, 1855.072
829.607, 1849.354
830.089, 1835.681
830.571, 1818.143
831.054, 1801.098
831.536, 1801.914
832.018, 1841.489
832.500, 1867.394
832.982, 1850.875
833.464, 1826.684
833.946, 1818.753
834.428, 1824.165
834.910, 1836.874
835.393, 1854.423
835.875, 1863.929
836.357, 1847.256
836.839, 1823.447
837.321, 1820.968
837.803, 1830.679
838.285, 1825.407
838.767, 1802.161
839.250, 1785.957
839.732, 1796.714
840.214, 1821.151
840.696, 1828.064
841.178, 1818.954
841.660, 1821.435
842.142, 1839.599
842.624, 1852.847
843.106, 1849.899
843.589, 1840.331
844.071, 1839.191
844.553, 1847.323
845.035, 1852.005
845.517, 1851.104
845.999, 1850.761
846.481, 1853.487
846.963, 1855.972
847.445, 1854.944
847.928, 1851.555
848.410, 1849.830
848.892, 1851.315
849.374, 1851.957
849.856, 1847.346
850.338, 1845.470
850.820, 1857.428
851.302, 1872.221
851.784, 1869.558
852.267, 1847.278
852.749, 1832.383
853.231, 1851.949
853.713, 1873.271
854.195, 1858.773
854.677, 1832.254
855.159, 1833.907
855.641, 1863.787
856.123, 1894.442
856.606, 1910.570
857.088, 1925.296
857.570, 1971.036
858.052, 1959.564
858.534, 2021.381
859.016, 1954.768
859.498, 1907.268
859.981, 1907.096
860.463, 1922.968
860.945, 1923.512
861.427, 1909.864
861.909, 1881.533
862.391, 1830.157
862.873, 1816.488
863.355, 1864.182
863.837, 1910.459
864.320, 1913.750
864.802, 1893.360
865.284, 1892.446
865.766, 1919.879
866.248, 1932.731
866.730, 1921.593
867.212, 1907.628
867.694, 1885.962
868.177, 1871.013
868.659, 1881.810
869.141, 1912.237
869.623, 1930.842
870.105, 1928.810
870.587, 1919.448
871.069, 1896.596
871.551, 1877.566
872.033, 1879.256
872.516, 1892.313
872.998, 1899.768
873.480, 1897.569
873.962, 1893.136
874.444, 1886.366
874.926, 1884.080
875.408, 1901.252
875.890, 1923.645
876.372, 1924.195
876.855, 1903.731
877.337, 1883.119
877.819, 1873.271
878.301, 1872.839
878.783, 1886.715
879.265, 1907.332
879.747, 1909.629
880.229, 1895.323
880.711, 1880.895
881.194, 1871.440
881.676, 1875.397
882.158, 1905.381
882.640, 1948.597
883.122, 1950.588
883.604, 1906.005
884.086, 1890.436
884.568, 1919.619
885.050, 1945.835
885.533, 1942.293
886.015, 1924.387
886.497, 1917.693
886.979, 1923.464
887.461, 1928.593
887.943, 1941.735
888.425, 1936.802
888.907, 1885.274
889.390, 1838.531
889.872, 1844.729
890.354, 1886.069
890.836, 1911.009
891.318, 1911.485
891.800, 1911.620
892.282, 1909.759
892.764, 1912.757
893.247, 1931.743
893.729, 1951.873
894.211, 1952.400
894.693, 1934.972
895.175, 1925.326
895.657, 1938.022
896.139, 1951.078
896.621, 1954.363
897.104, 1953.293
897.586, 1952.146
898.068, 1950.860
898.550, 1948.448
899.032, 1944.569
899.514, 1938.770
899.996, 1926.906
900.478, 1916.371
900.960, 1917.471
901.443, 1924.839
901.925, 1927.569
902.407, 1925.745
902.889, 1928.786
903.371, 1942.292
903.853, 1956.862
904.335, 1958.992
904.817, 1953.309
905.299, 1954.729
905.782, 1960.815
906.264, 1950.780
906.746, 1920.002
907.228, 1899.396
907.710, 1917.278
908.192, 1957.315
908.674, 1977.038
909.156, 1977.005
909.638, 1975.529
910.121, 1974.232
910.603, 1966.373
911.085, 1946.336
911.567, 1929.722
912.049, 1938.945
912.531, 1934.081
913.013, 1936.641
913.495, 1957.819
913.977, 1952.683
914.460, 1982.961
914.942, 2005.554
915.424, 1988.947
915.906, 1953.572
916.388, 1940.103
916.870, 1953.446
917.352, 1960.832
917.834, 1956.633
918.317, 1955.131
918.799, 1959.585
919.281, 1967.368
919.763, 1984.270
920.245, 2002.632
920.727, 1996.865
921.209, 1948.715
921.692, 1921.535
922.174, 1937.083
922.656, 1956.828
923.138, 1966.497
923.620, 1971.597
924.102, 1978.387
924.584, 1986.833
925.066, 1993.803
925.548, 2001.224
926.031, 2001.714
926.513, 1983.749
926.995, 1966.607
927.477, 1963.833
927.959, 1971.619
928.441, 1986.932
928.923, 2006.868
929.405, 2016.658
929.888, 2000.338
930.370, 1982.706
930.852, 1981.996
931.334, 1988.596
931.816, 1994.421
932.298, 1997.346
932.780, 1992.785
933.262, 1980.010
933.744, 1973.576
934.227, 1993.337
934.709, 2018.443
935.191, 2024.619
935.673, 2017.703
936.155, 2003.329
936.637, 1986.433
937.119, 1980.918
937.601, 1993.798
938.083, 2011.487
938.566, 2019.469
939.048, 2020.509
939.530, 2019.121
940.012, 2015.925
940.494, 2012.496
940.976, 2009.242
941.458, 2005.577
941.940, 2000.612
942.422, 1998.345
942.905, 2008.396
943.387, 2027.031
943.869, 2037.917
944.351, 2041.021
944.833, 2042.743
945.315, 2044.936
945.797, 2041.705
946.279, 2026.490
946.761, 2006.681
947.244, 2002.215
947.726, 2012.593
948.208, 2023.963
948.690, 2036.121
949.172, 2039.395
949.654, 2028.575
950.136, 2017.984
950.619, 2024.047
951.101, 2041.536
951.583, 2046.249
952.065, 2036.914
952.547, 2022.016
953.029, 1998.253
953.511, 1987.101
953.993, 2001.860
954.475, 2024.718
954.958, 2032.588
955.440, 2026.788
955.922, 2023.825
956.404, 2023.705
956.886, 2026.647
957.368, 2033.587
957.850, 2041.456
958.332, 2048.448
958.815, 2056.109
959.297, 2069.743
959.779, 2090.509
960.261, 2087.332
960.743, 2039.066
961.225, 2012.248
961.707, 2028.207
962.189, 2049.727
962.671, 2058.076
963.154, 2055.939
963.636, 2044.723
964.118, 2019.820
964.600, 2016.170
965.082, 2052.171
965.564, 2081.188
966.046, 2096.386
966.528, 2101.677
967.010, 2092.190
967.493, 2076.545
967.975, 2076.479
968.457, 2100.980
968.939, 2103.214
969.421, 2050.196
969.903, 2017.250
970.385, 2036.201
970.867, 2067.081
971.349, 2082.835
971.832, 2087.218
972.314, 2092.119
972.796, 2099.740
973.278, 2103.006
973.760, 2096.804
974.242, 2091.548
974.724, 2096.942
975.206, 2099.191
975.688, 2074.383
976.171, 2037.764
976.653, 2038.414
977.135, 2100.006
977.617, 2139.119
978.099, 2120.902
978.581, 2098.648
979.063, 2092.857
979.545, 2094.581
980.028, 2095.792
980.510, 2096.188
980.992, 2098.019
981.474, 2103.001
981.956, 2105.173
982.438, 2099.066
982.920, 2094.206
983.402, 2097.864
983.885, 2103.249
984.367, 2102.460
984.849, 2096.610
985.331, 2092.696
985.813, 2093.585
986.295, 2092.853
986.777, 2080.379
987.259, 2074.673
987.742, 2099.000
988.224, 2126.719
988.706, 2124.417
989.188, 2096.300
989.670, 2070.600
990.152, 2052.833
990.634, 2046.548
991.116, 2062.776
991.598, 2080.221
992.081, 2087.065
992.563, 2086.692
993.045, 2078.764
993.527, 2067.896
994.009, 2070.264
994.491, 2097.375
994.973, 2117.767
995.455, 2110.098
995.937, 2099.673
996.420, 2104.556
996.902, 2115.190
997.384, 2121.069
997.866, 2120.294
998.348, 2111.520
998.830, 2090.077
999.312, 2074.378
999.794, 2070.779
1000.276, 2077.926
1000.759, 2108.834
1001.241, 2140.726
1001.723, 2136.816
1002.205, 2105.629
1002.687, 2095.322
1003.169, 2127.637
1003.651, 2161.591
1004.133, 2183.988
1004.616, 2194.897
1005.098, 2190.674
1005.580, 2177.443
1006.062, 2157.172
1006.544, 2134.615
1007.026, 2121.744
1007.508, 2122.613
1007.990, 2132.945
1008.472, 2168.918
1008.955, 2193.563
1009.437, 2170.594
1009.919, 2131.710
1010.401, 2102.861
1010.883, 2093.833
1011.365, 2126.039
1011.847, 2219.487
1012.329, 2294.666
1012.812, 2324.313
1013.294, 2317.748
1013.776, 2248.491
1014.258, 2169.260
1014.740, 2139.589
1015.222, 2151.475
1015.704, 2162.142
1016.186, 2159.589
1016.668, 2159.401
1017.151, 2168.608
1017.633, 2180.422
1018.115, 2198.220
1018.597, 2211.317
1019.079, 2203.653
1019.561, 2183.258
1020.043, 2175.868
1020.525, 2191.034
1021.008, 2195.223
1021.490, 2157.224
1021.972, 2131.433
1022.454, 2155.684
1022.936, 2190.820
1023.418, 2204.705
1023.900, 2200.157
1024.382, 2189.035
1024.864, 2172.368
1025.347, 2157.773
1025.829, 2144.585
1026.311, 2137.428
1026.793, 2136.665
1027.275, 2143.830
1027.757, 2168.222
1028.239, 2198.589
1028.721, 2212.770
1029.203, 2207.056
1029.686, 2199.077
1030.168, 2184.558
1030.650, 2178.724
1031.132, 2195.444
1031.614, 2211.677
1032.096, 2209.906
1032.578, 2199.107
1033.060, 2193.334
1033.542, 2193.580
1034.025, 2200.585
1034.507, 2231.866
1034.989, 2243.960
1035.471, 2210.566
1035.953, 2179.014
1036.435, 2176.434
1036.917, 2188.002
1037.399, 2195.624
1037.882, 2198.829
1038.364, 2195.777
1038.846, 2171.992
1039.328, 2165.582
1039.810, 2195.796
1040.292, 2220.052
1040.774, 2216.074
1041.256, 2203.052
1041.739, 2201.324
1042.221, 2209.538
1042.703, 2218.185
1043.185, 2230.006
1043.667, 2235.852
1044.149, 2231.132
1044.631, 2229.733
1045.113, 2243.796
1045.595, 2251.001
1046.078, 2223.775
1046.560, 2175.578
1047.042, 2159.007
1047.524, 2183.426
1048.006, 2202.267
1048.488, 2212.929
1048.970, 2226.577
1049.452, 2249.932
1049.934, 2266.772
1050.417, 2262.380
1050.899, 2246.548
1051.381, 2243.161
1051.863, 2253.683
1052.345, 2252.966
1052.827, 2239.234
1053.309, 2222.182
1053.791, 2200.379
1054.274, 2195.239
1054.756, 2223.415
1055.238, 2262.932
1055.720, 2278.397
1056.202, 2271.898
1056.684, 2256.861
1057.166, 2233.229
1057.648, 2222.171
1058.130, 2226.898
1058.613, 2224.563
1059.095, 2202.975
1059.577, 2189.857
1060.059, 2223.759
1060.541, 2283.679
1061.023, 2306.670
1061.505, 2295.867
1061.987, 2255.833
1062.469, 2194.076
1062.952, 2160.569
1063.434, 2171.986
1063.916, 2200.397
1064.398, 2225.156
1064.880, 2242.881
1065.362, 2243.143
1065.844, 2233.857
1066.326, 2237.028
1066.809, 2248.783
1067.291, 2251.832
1067.773, 2243.187
1068.255, 2249.256
1068.737, 2249.966
1069.219, 2244.408
1069.701, 2245.921
1070.183, 2261.006
1070.666, 2269.899
1071.148, 2268.254
1071.630, 2265.022
1072.112, 2260.489
1072.594, 2254.817
1073.076, 2260.240
1073.558, 2279.591
1074.040, 2284.196
1074.522, 2277.557
1075.005, 2276.126
1075.487, 2280.101
1075.969, 2283.353
1076.451, 2289.362
1076.933, 2283.343
1077.415, 2280.689
1077.897, 2287.210
1078.379, 2290.554
1078.862, 2295.851
1079.344, 2297.962
1079.826, 2299.015
1080.308, 2298.769
1080.790, 2307.502
1081.272, 2300.037
1081.754, 2304.907
1082.236, 2312.971
1082.719, 2313.169
1083.201, 2310.203
1083.683, 2311.716
1084.165, 2314.477
1084.647, 2317.907
1085.129, 2315.008
1085.611, 2315.522
1086.093, 2317.613
1086.575, 2315.093
1087.057, 2305.015
1087.540, 2302.610
1088.022, 2312.615
1088.504, 2321.205
1088.986, 2328.774
1089.468, 2328.007
1089.950, 2308.281
1090.432, 2286.917
1090.914, 2295.819
1091.397, 2332.244
1091.879, 2336.949
1092.361, 2302.021
1092.843, 2282.829
1093.325, 2285.781
1093.807, 2297.606
1094.289, 2312.201
1094.771, 2340.285
1095.254, 2398.132
1095.736, 2465.343
1096.218, 2481.605
1096.700, 2451.980
1097.182, 2413.933
1097.664, 2371.286
1098.146, 2343.506
1098.628, 2334.921
1099.110, 2334.180
1099.593, 2334.183
1100.075, 2337.186
1100.557, 2348.465
1101.039, 2363.705
1101.521, 2376.924
1102.003, 2385.787
1102.485, 2383.447
1102.967, 2371.430
1103.449, 2356.722
1103.932, 2342.293
1104.414, 2332.021
1104.896, 2328.888
1105.378, 2330.786
1105.860, 2340.795
1106.342, 2350.473
1106.824, 2346.231
1107.306, 2336.609
1107.789, 2339.596
1108.271, 2355.194
1108.753, 2343.570
1109.235, 2345.147
1109.717, 2354.883
1110.199, 2338.257
1110.681, 2356.054
1111.163, 2366.896
1111.646, 2345.353
1112.128, 2332.188
1112.610, 2342.376
1113.092, 2358.420
1113.574, 2352.982
1114.056, 2363.242
1114.538, 2356.586
1115.020, 2365.440
1115.502, 2353.611
1115.984, 2357.216
1116.467, 2358.033
1116.949, 2371.124
1117.431, 2359.422
1117.913, 2377.929
1118.395, 2375.600
1118.877, 2366.293
1119.359, 2354.249
1119.841, 2359.484
1120.324, 2359.273
1120.806, 2375.491
1121.288, 2374.950
1121.770, 2375.239
1122.252, 2387.115
1122.734, 2380.928
1123.216, 2380.366
1123.698, 2379.903
1124.181, 2378.794
1124.663, 2390.045
1125.145, 2382.493
1125.627, 2388.593
1126.109, 2394.542
1126.591, 2392.777
1127.073, 2403.909
1127.555, 2404.055
1128.037, 2400.674
1128.520, 2395.179
1129.002, 2382.933
1129.484, 2397.370
1129.966, 2392.009
1130.448, 2399.330
1130.930, 2393.661
1131.412, 2393.549
1131.894, 2407.166
1132.376, 2398.312
1132.859, 2410.200
1133.341, 2417.146
1133.823, 2429.607
1134.305, 2427.717
1134.787, 2400.719
1135.269, 2371.709
1135.751, 2380.683
1136.233, 2404.616
1136.716, 2405.646
1137.198, 2403.681
1137.680, 2397.701
1138.162, 2411.891
1138.644, 2397.319
1139.126, 2420.236
1139.608, 2413.177
1140.090, 2413.192
1140.573, 2413.228
1141.055, 2412.404
1141.537, 2424.019
1142.019, 2416.052
1142.501, 2422.644
1142.983, 2427.587
1143.465, 2420.231
1143.947, 2418.432
1144.429, 2416.949
1144.911, 2435.188
1145.394, 2420.585
1145.876, 2423.661
1146.358, 2425.365
1146.840, 2407.691
1147.322, 2419.390
1147.804, 2428.318
1148.286, 2433.686
1148.768, 2440.178
1149.251, 2451.108
1149.733, 2457.225
1150.215, 2442.641
1150.697, 2428.744
1151.179, 2443.199
1151.661, 2461.420
1152.143, 2450.898
1152.625, 2422.895
1153.108, 2403.795
1153.590, 2398.118
1154.072, 2398.880
1154.554, 2404.658
1155.036, 2416.107
1155.518, 2444.231
1156.000, 2464.102
1156.482, 2460.566
1156.964, 2449.674
1157.447, 2440.886
1157.929, 2436.133
1158.411, 2440.863
1158.893, 2455.879
1159.375, 2471.380
1159.857, 2489.815
1160.339, 2492.112
1160.821, 2472.659
1161.303, 2463.853
1161.786, 2480.882
1162.268, 2502.142
1162.750, 2507.649
1163.232, 2498.528
1163.714, 2465.454
1164.196, 2423.043
1164.678, 2423.644
1165.160, 2453.939
1165.643, 2467.131
1166.125, 2458.443
1166.607, 2449.363
1167.089, 2448.939
1167.571, 2450.814
1168.053, 2448.388
1168.535, 2448.724
1169.017, 2461.350
1169.500, 2475.256
1169.982, 2483.493
1170.464, 2484.191
1170.946, 2470.708
1171.428, 2447.290
1171.910, 2433.999
1172.392, 2434.225
1172.874, 2444.643
1173.356, 2478.368
1173.839, 2501.933
1174.321, 2506.526
1174.803, 2504.194
1175.285, 2501.449
1175.767, 2494.691
1176.249, 2475.897
1176.731, 2450.510
1177.213, 2452.001
1177.695, 2481.698
1178.178, 2488.675
1178.660, 2471.511
1179.142, 2463.076
1179.624, 2470.914
1180.106, 2481.297
1180.588, 2486.280
1181.070, 2490.035
1181.552, 2502.580
1182.035, 2511.563
1182.517, 2483.532
1182.999, 2448.415
1183.481, 2461.497
1183.963, 2504.374
1184.445, 2531.571
1184.927, 2535.760
1185.409, 2534.344
1185.891, 2533.076
1186.374, 2529.232
1186.856, 2516.794
1187.338, 2508.218
1187.820, 2509.111
1188.302, 2515.272
1188.784, 2531.676
1189.266, 2546.040
1189.748, 2536.542
1190.230, 2507.017
1190.713, 2494.361
1191.195, 2503.508
1191.677, 2508.738
1192.159, 2509.135
1192.641, 2504.524
1193.123, 2493.447
1193.605, 2497.642
1194.087, 2532.610
1194.570, 2566.591
1195.052, 2550.534
1195.534, 2569.713
1196.016, 2574.579
1196.498, 2562.342
1196.980, 2573.679
1197.462, 2561.894
1197.944, 2541.604
1198.427, 2519.701
1198.909, 2505.676
1199.391, 2502.962
1199.873, 2513.252
1200.355, 2554.343
1200.837, 2586.374
1201.319, 2579.380
1201.801, 2566.014
1202.283, 2571.996
1202.766, 2586.251
1203.248, 2590.812
1203.730, 2587.121
1204.212, 2584.146
1204.694, 2580.101
1205.176, 2585.884
1205.658, 2607.298
1206.140, 2609.897
1206.622, 2583.255
1207.105, 2563.268
1207.587, 2568.311
1208.069, 2588.332
1208.551, 2617.035
1209.033, 2641.450
1209.515, 2629.229
1209.997, 2594.829
1210.479, 2565.402
1210.962, 2544.431
1211.444, 2539.553
1211.926, 2546.181
1212.408, 2541.457
1212.890, 2517.552
1213.372, 2510.206
1213.854, 2559.775
1214.336, 2598.739
1214.818, 2591.750
1215.301, 2574.292
1215.783, 2561.457
1216.265, 2553.605
1216.747, 2548.569
1217.229, 2548.761
1217.711, 2562.647
1218.193, 2591.508
1218.675, 2611.626
1219.157, 2623.295
1219.640, 2621.812
1220.122, 2605.787
1220.604, 2589.899
1221.086, 2579.242
1221.568, 2575.384
1222.050, 2580.044
1222.532, 2588.905
1223.014, 2596.769
1223.497, 2604.156
1223.979, 2616.891
1224.461, 2626.480
1224.943, 2609.753
1225.425, 2581.707
1225.907, 2581.202
1226.389, 2611.173
1226.871, 2635.109
1227.354, 2639.817
1227.836, 2642.176
1228.318, 2646.547
1228.800, 2648.750
1229.282, 2654.060
1229.764, 2646.224
1230.246, 2602.091
1230.728, 2562.199
1231.210, 2586.207
1231.693, 2652.150
1232.175, 2668.957
1232.657, 2639.210
1233.139, 2613.513
1233.621, 2594.262
1234.103, 2590.707
1234.585, 2602.492
1235.067, 2620.432
1235.549, 2639.619
1236.032, 2646.921
1236.514, 2623.729
1236.996, 2603.330
1237.478, 2622.882
1237.960, 2648.790
1238.442, 2654.868
1238.924, 2649.257
1239.406, 2635.880
1239.889, 2621.955
1240.371, 2624.225
1240.853, 2645.265
1241.335, 2657.037
1241.817, 2654.665
1242.299, 2656.924
1242.781, 2667.281
1243.263, 2670.478
1243.745, 2661.152
1244.228, 2653.236
1244.710, 2655.683
1245.192, 2662.540
1245.674, 2667.777
1246.156, 2669.420
1246.638, 2662.167
1247.120, 2649.044
1247.602, 2629.058
1248.084, 2610.952
1248.567, 2614.674
1249.049, 2636.961
1249.531, 2657.525
1250.013, 2670.886
1250.495, 2676.801
1250.977, 2668.943
1251.459, 2663.184
1251.941, 2661.770
1252.424, 2665.483
##END=



