##NAMES=Teallite
##RRUFFID=R060487
##IDEAL CHEMISTRY=PbSnS_2_
##LOCALITY=Porvenir mine, Huanuni, Department of Oruro, Bolivia
##OWNER=RRUFF
##SOURCE=Michael Scott
##DESCRIPTION=Grayish black platy metallic mass
##STATUS=The identification of this mineral has been confirmed by X-ray diffraction and chemical analysis
##URL=rruff.info/R060487
##MEASURED CHEMISTRY=(Pb_0.62_Sn_1.38_)_Î£=2_S_2.00_
115.1836, 87.32832
115.6658, 87.29933
116.1479, 87.12153
116.6300, 86.72049
117.1121, 86.05811
117.5942, 85.26182
118.0763, 84.62050
118.5584, 84.06611
119.0406, 83.72883
119.5227, 83.74890
120.0048, 84.03249
120.4869, 84.33447
120.9690, 84.57661
121.4511, 84.73994
121.9333, 84.81081
122.4154, 84.73869
122.8975, 84.65888
123.3796, 84.69321
123.8617, 84.85133
124.3438, 85.03620
124.8260, 85.31104
125.3081, 85.54842
125.7902, 85.59348
126.2723, 85.33803
126.7544, 84.92701
127.2365, 84.68252
127.7187, 84.64212
128.2008, 84.73094
128.6829, 84.84227
129.1650, 85.05691
129.6471, 85.53548
130.1292, 86.45169
130.6114, 87.74520
131.0935, 88.51180
131.5756, 88.36977
132.0577, 88.03480
132.5398, 87.40874
133.0219, 86.69048
133.5041, 86.28459
133.9862, 86.59371
134.4683, 87.79136
134.9504, 88.57442
135.4325, 88.64604
135.9146, 88.62781
136.3968, 88.90363
136.8789, 89.49690
137.3610, 90.14891
137.8431, 90.56120
138.3252, 90.68263
138.8073, 90.77753
139.2895, 90.77285
139.7716, 90.78210
140.2537, 91.00492
140.7358, 91.53823
141.2179, 92.07244
141.7000, 92.12978
142.1821, 91.75805
142.6643, 91.40310
143.1464, 91.35126
143.6285, 91.48741
144.1106, 91.35024
144.5927, 90.60428
145.0748, 89.82899
145.5570, 89.60225
146.0391, 89.92547
146.5212, 90.27528
147.0033, 90.21020
147.4854, 89.69872
147.9675, 89.07298
148.4497, 88.13000
148.9318, 87.25112
149.4139, 86.72974
149.8960, 86.61099
150.3781, 86.59862
150.8602, 86.23543
151.3424, 85.32058
151.8245, 84.47066
152.3066, 83.81524
152.7887, 83.19582
153.2708, 82.43668
153.7529, 81.48399
154.2351, 80.47025
154.7172, 79.73530
155.1993, 79.66634
155.6814, 79.43351
156.1635, 78.99350
156.6456, 78.37260
157.1278, 77.57243
157.6099, 76.58293
158.0920, 75.46397
158.5741, 74.47444
159.0562, 73.59863
159.5383, 72.84177
160.0205, 72.20745
160.5026, 71.69634
160.9847, 71.32402
161.4668, 71.12550
161.9489, 71.06611
162.4310, 70.97194
162.9131, 71.00220
163.3953, 70.86079
163.8774, 70.25357
164.3595, 69.22796
164.8416, 68.25599
165.3237, 67.59461
165.8058, 67.21773
166.2880, 67.02790
166.7701, 67.17565
167.2522, 67.37994
167.7343, 67.27727
168.2164, 66.79921
168.6985, 66.34037
169.1807, 66.15402
169.6628, 66.11988
170.1449, 66.10449
170.6270, 66.04263
171.1091, 65.97879
171.5912, 66.05053
172.0734, 66.40461
172.5555, 66.61409
173.0376, 66.53083
173.5197, 66.22648
174.0018, 65.75485
174.4839, 65.05447
174.9661, 64.22431
175.4482, 63.90444
175.9303, 64.66948
176.4124, 65.33309
176.8945, 65.64047
177.3766, 65.62095
177.8588, 65.34595
178.3409, 64.84055
178.8230, 64.10125
179.3051, 63.41973
179.7872, 62.87811
180.2693, 62.31216
180.7515, 61.55448
181.2336, 60.71108
181.7157, 60.09765
182.1978, 60.05712
182.6799, 60.72468
183.1620, 60.54558
183.6441, 58.80936
184.1263, 57.05717
184.6084, 56.07956
185.0905, 55.85461
185.5726, 55.85184
186.0547, 55.56538
186.5368, 54.93222
187.0190, 54.69041
187.5011, 55.31023
187.9832, 55.97643
188.4653, 56.06170
188.9474, 55.50693
189.4296, 54.69117
189.9117, 53.86650
190.3938, 53.05221
190.8759, 52.52087
191.3580, 52.42617
191.8401, 52.57595
192.3223, 52.82340
192.8044, 53.18631
193.2865, 53.46743
193.7686, 53.36290
194.2507, 52.99044
194.7328, 52.69867
195.2150, 52.66467
195.6971, 52.77043
196.1792, 52.75320
196.6613, 52.51241
197.1434, 52.32885
197.6255, 52.50719
198.1077, 52.91608
198.5898, 53.21358
199.0719, 53.09583
199.5540, 52.68960
200.0361, 52.55457
200.5182, 52.83427
201.0004, 53.22478
201.4825, 53.56525
201.9646, 53.87181
202.4467, 54.18883
202.9288, 54.58410
203.4109, 55.04655
203.8930, 55.36543
204.3752, 55.46789
204.8573, 55.48207
205.3394, 55.36287
205.8215, 55.18624
206.3036, 55.11635
206.7857, 55.32633
207.2679, 55.83762
207.7500, 56.20924
208.2321, 56.37514
208.7142, 56.45118
209.1963, 56.41146
209.6784, 56.29916
210.1606, 56.20115
210.6427, 56.19461
211.1248, 56.28680
211.6069, 56.40742
212.0890, 56.54063
212.5711, 56.71213
213.0533, 57.02405
213.5354, 57.40755
214.0175, 57.67639
214.4996, 57.65574
214.9817, 57.31366
215.4638, 56.86473
215.9460, 56.13621
216.4281, 55.47502
216.9102, 55.16737
217.3923, 55.14001
217.8744, 55.00908
218.3565, 54.38307
218.8387, 53.17269
219.3208, 52.31350
219.8029, 52.10971
220.2850, 51.96185
220.7671, 51.52601
221.2492, 50.78662
221.7314, 49.87527
222.2135, 48.82256
222.6956, 47.63418
223.1777, 46.85850
223.6598, 47.08410
224.1419, 47.28930
224.6240, 46.49646
225.1062, 44.70814
225.5883, 43.00673
226.0704, 42.37390
226.5525, 42.68681
227.0346, 42.68520
227.5167, 42.13058
227.9989, 41.33368
228.4810, 40.52202
228.9631, 39.70464
229.4452, 38.95010
229.9273, 38.26108
230.4094, 37.68745
230.8916, 37.36241
231.3737, 37.52584
231.8558, 37.83068
232.3379, 37.89767
232.8200, 37.71069
233.3021, 37.39749
233.7843, 36.91578
234.2664, 36.37817
234.7485, 35.96785
235.2306, 35.78720
235.7127, 35.70588
236.1948, 35.47112
236.6770, 34.98557
237.1591, 34.75245
237.6412, 35.38843
238.1233, 36.31312
238.6054, 36.89230
239.0875, 36.89784
239.5697, 36.52294
240.0518, 35.99066
240.5339, 35.19608
241.0160, 34.58017
241.4981, 34.35755
241.9802, 34.36769
242.4624, 34.50962
242.9445, 34.77279
243.4266, 35.08033
243.9087, 35.30207
244.3908, 35.42060
244.8729, 35.49538
245.3550, 35.55465
245.8372, 35.57602
246.3193, 35.53340
246.8014, 35.41657
247.2835, 35.24738
247.7656, 35.03751
248.2477, 34.72014
248.7299, 34.53249
249.2120, 34.57488
249.6941, 34.70948
250.1762, 34.83671
250.6583, 34.92611
251.1404, 35.00969
251.6226, 35.19428
252.1047, 35.69155
252.5868, 35.77878
253.0689, 35.06697
253.5510, 34.20543
254.0331, 33.66931
254.5153, 33.57048
254.9974, 33.66363
255.4795, 33.53870
255.9616, 32.93482
256.4437, 32.69908
256.9258, 33.13271
257.4080, 33.66024
257.8901, 33.91698
258.3722, 33.83324
258.8543, 33.56883
259.3364, 33.32284
259.8185, 33.07061
260.3007, 32.90891
260.7828, 32.85944
261.2649, 32.86094
261.7470, 32.89165
262.2291, 32.94053
262.7112, 32.99850
263.1934, 33.07247
263.6755, 33.22195
264.1576, 33.14510
264.6397, 32.68362
265.1218, 32.17598
265.6039, 31.80043
266.0861, 31.56567
266.5682, 31.38117
267.0503, 31.15404
267.5324, 30.86402
268.0145, 30.67698
268.4966, 30.69174
268.9788, 30.69797
269.4609, 30.63533
269.9430, 30.48040
270.4251, 30.17450
270.9072, 29.62498
271.3893, 28.81537
271.8715, 28.39422
272.3536, 28.79060
272.8357, 29.06963
273.3178, 28.67881
273.7999, 27.81616
274.2820, 27.08026
274.7642, 26.89528
275.2463, 27.20633
275.7284, 27.34225
276.2105, 27.28444
276.6926, 27.12209
277.1747, 26.79872
277.6568, 26.39051
278.1389, 26.06295
278.6211, 25.91175
279.1032, 25.89992
279.5853, 25.87316
280.0674, 25.90222
280.5495, 25.84038
281.0316, 25.56765
281.5138, 25.18892
281.9959, 24.91286
282.4780, 24.84644
282.9601, 24.87716
283.4422, 24.69354
283.9243, 24.10557
284.4065, 23.68950
284.8886, 23.69931
285.3707, 23.91558
285.8528, 23.99831
286.3349, 23.82503
286.8170, 23.56032
287.2992, 23.51333
287.7813, 23.79492
288.2634, 23.90258
288.7455, 23.68793
289.2276, 23.28544
289.7097, 22.77774
290.1919, 22.17276
290.6740, 21.67914
291.1561, 21.60615
291.6382, 22.01928
292.1203, 22.35587
292.6024, 22.53162
293.0846, 22.62383
293.5667, 22.75142
294.0488, 22.92573
294.5309, 22.95513
295.0130, 22.57053
295.4951, 21.77345
295.9773, 21.30227
296.4594, 21.36495
296.9415, 21.63028
297.4236, 21.96031
297.9057, 22.31497
298.3878, 22.45582
298.8700, 22.12693
299.3521, 21.42013
299.8342, 20.98783
300.3163, 21.01510
300.7984, 21.14382
301.2805, 21.19187
301.7627, 21.16860
302.2448, 21.11541
302.7269, 21.02296
303.2090, 20.94110
303.6911, 21.02204
304.1732, 21.42791
304.6554, 21.72304
305.1375, 21.64358
305.6196, 21.30082
306.1017, 20.99985
306.5838, 20.88497
307.0659, 20.80861
307.5481, 20.40707
308.0302, 19.53809
308.5123, 18.93472
308.9944, 18.98455
309.4765, 19.42247
309.9586, 19.85029
310.4408, 20.19497
310.9229, 20.38755
311.4050, 20.24431
311.8871, 19.75320
312.3692, 19.37247
312.8513, 19.17701
313.3335, 19.14531
313.8156, 19.32513
314.2977, 19.73342
314.7798, 20.11074
315.2619, 20.19541
315.7440, 20.00048
316.2262, 19.82789
316.7083, 19.72232
317.1904, 19.63279
317.6725, 19.53923
318.1546, 19.43501
318.6367, 19.26326
319.1188, 18.94183
319.6010, 18.52694
320.0831, 18.26932
320.5652, 18.20617
321.0473, 18.25450
321.5294, 18.44479
322.0115, 18.72786
322.4937, 18.92492
322.9758, 18.93603
323.4579, 18.82773
323.9400, 18.76944
324.4221, 18.77476
324.9042, 18.78878
325.3864, 18.84562
325.8685, 18.89102
326.3506, 18.79041
326.8327, 18.47478
327.3148, 18.09967
327.7969, 17.89606
328.2791, 17.85638
328.7612, 17.95358
329.2433, 18.40585
329.7254, 18.89049
330.2075, 18.98061
330.6896, 18.60257
331.1718, 18.08415
331.6539, 17.72315
332.1360, 17.53666
332.6181, 17.41028
333.1002, 17.40471
333.5823, 17.41056
334.0645, 17.31636
334.5466, 17.13762
335.0287, 17.01016
335.5108, 17.03902
335.9929, 17.20391
336.4750, 17.33062
336.9572, 17.45187
337.4393, 17.50854
337.9214, 17.41750
338.4035, 17.24071
338.8856, 17.14026
339.3677, 17.20616
339.8499, 17.35888
340.3320, 17.37845
340.8141, 17.22534
341.2962, 17.03671
341.7783, 16.65458
342.2604, 16.31609
342.7426, 16.47629
343.2247, 17.26612
343.7068, 18.11909
344.1889, 18.20019
344.6710, 17.09236
345.1531, 16.39259
345.6353, 16.34557
346.1174, 16.54996
346.5995, 16.78179
347.0816, 16.98433
347.5637, 17.09910
348.0458, 17.05947
348.5280, 16.85541
349.0101, 16.68603
349.4922, 16.55783
349.9743, 16.45098
350.4564, 16.34782
350.9385, 16.26013
351.4207, 16.21749
351.9028, 16.23979
352.3849, 16.31521
352.8670, 16.39503
353.3491, 16.45919
353.8312, 16.55221
354.3134, 16.81470
354.7955, 17.05585
355.2776, 16.97696
355.7597, 16.48632
356.2418, 15.87416
356.7239, 15.64934
357.2061, 16.14381
357.6882, 16.35234
358.1703, 15.96155
358.6524, 15.54601
359.1345, 15.65140
359.6166, 16.21958
360.0987, 16.63881
360.5808, 16.22586
361.0630, 14.82016
361.5451, 14.15604
362.0272, 14.88726
362.5093, 15.62873
362.9914, 15.98175
363.4735, 16.00130
363.9557, 15.82136
364.4378, 15.50048
364.9199, 15.11371
365.4020, 14.99807
365.8841, 15.52176
366.3662, 15.80977
366.8484, 15.51174
367.3305, 15.06740
367.8126, 14.96783
368.2947, 15.35149
368.7768, 15.88647
369.2589, 15.99373
369.7411, 15.37446
370.2232, 15.15195
370.7053, 15.84684
371.1874, 16.51705
371.6695, 16.61638
372.1516, 16.18398
372.6338, 15.63380
373.1159, 15.31336
373.5980, 15.21680
374.0801, 15.13593
374.5622, 15.04040
375.0443, 15.00442
375.5265, 15.16126
376.0086, 15.36631
376.4907, 15.36069
376.9728, 14.96693
377.4549, 14.41599
377.9370, 14.25001
378.4192, 14.60388
378.9013, 14.96389
379.3834, 15.29714
379.8655, 15.51709
380.3476, 15.49072
380.8297, 15.19617
381.3119, 14.86797
381.7940, 14.74124
382.2761, 14.81232
382.7582, 14.93827
383.2403, 15.21873
383.7224, 15.40176
384.2046, 15.22977
384.6867, 14.80647
385.1688, 14.50412
385.6509, 14.66689
386.1330, 15.06616
386.6151, 15.14786
387.0973, 14.83149
387.5794, 14.48507
388.0615, 14.28339
388.5436, 14.19248
389.0257, 14.19457
389.5078, 14.34797
389.9900, 14.48117
390.4721, 14.41277
390.9542, 14.16769
391.4363, 13.93943
391.9184, 13.77848
392.4005, 13.67909
392.8827, 13.62556
393.3648, 13.61419
393.8469, 13.65695
394.3290, 13.73727
394.8111, 13.88156
395.2932, 14.19961
395.7754, 14.73407
396.2575, 15.17467
396.7396, 15.18093
397.2217, 14.79516
397.7038, 14.59838
398.1859, 14.76921
398.6681, 14.99926
399.1501, 15.12978
399.6323, 15.15606
400.1144, 15.07726
400.5965, 14.88324
401.0786, 14.59928
401.5607, 14.28252
402.0428, 13.79924
402.5250, 13.51509
403.0071, 13.59201
403.4892, 13.85578
403.9713, 14.17283
404.4534, 14.49449
404.9355, 14.70037
405.4177, 14.60938
405.8998, 14.10806
406.3819, 13.89885
406.8640, 14.22646
407.3461, 14.57415
407.8282, 14.68117
408.3104, 14.59608
408.7925, 14.48348
409.2746, 14.43984
409.7567, 14.46332
410.2388, 14.55005
410.7209, 14.94067
411.2031, 15.06745
411.6852, 14.72442
412.1673, 14.19056
412.6494, 13.62310
413.1315, 13.10706
413.6136, 12.82211
414.0958, 13.14351
414.5779, 14.38180
415.0600, 14.97787
415.5421, 14.24903
416.0242, 13.49427
416.5063, 13.20218
416.9885, 13.29268
417.4706, 13.47793
417.9527, 13.58139
418.4348, 13.63746
418.9169, 13.78871
419.3990, 14.12505
419.8812, 14.35197
420.3633, 14.35810
420.8454, 14.23268
421.3275, 13.97113
421.8096, 13.56235
422.2917, 13.28590
422.7739, 13.61213
423.2560, 14.49278
423.7381, 14.88435
424.2202, 14.33295
424.7023, 13.66581
425.1844, 13.59658
425.6666, 13.96815
426.1487, 14.20822
426.6308, 13.92911
427.1129, 13.44795
427.5950, 13.24871
428.0771, 13.34566
428.5593, 13.50189
429.0414, 13.63904
429.5235, 13.73018
430.0056, 13.71413
430.4877, 13.50856
430.9698, 13.38303
431.4520, 13.53381
431.9341, 13.84910
432.4162, 14.13936
432.8983, 14.36917
433.3804, 14.46927
433.8625, 14.27512
434.3447, 13.71748
434.8268, 13.52549
435.3089, 14.19824
435.7910, 14.83915
436.2731, 14.67933
436.7552, 13.92844
437.2374, 13.41209
437.7195, 13.64639
438.2016, 14.40079
438.6837, 14.79286
439.1658, 14.59504
439.6479, 14.31677
440.1301, 13.80467
440.6122, 13.33212
441.0943, 13.25264
441.5764, 13.58691
442.0585, 13.95878
442.5406, 13.89972
443.0227, 13.31094
443.5049, 13.01469
443.9870, 13.30336
444.4691, 13.58644
444.9512, 13.68716
445.4333, 13.65951
445.9154, 13.61813
446.3976, 13.62349
446.8797, 13.63421
447.3618, 13.55062
447.8439, 13.34120
448.3260, 13.13102
448.8081, 12.88740
449.2903, 12.69036
449.7724, 12.55044
450.2545, 12.48875
450.7366, 12.59902
451.2187, 13.12588
451.7008, 13.91871
452.1830, 14.28097
452.6651, 14.07400
453.1472, 13.74815
453.6293, 13.44450
454.1114, 13.21920
454.5935, 13.20444
455.0757, 13.54093
455.5578, 13.87279
456.0399, 13.83178
456.5220, 13.51195
457.0041, 13.33777
457.4862, 13.45956
457.9684, 13.70216
458.4505, 13.84973
458.9326, 13.90567
459.4147, 13.94632
459.8968, 14.02260
460.3789, 14.06162
460.8611, 13.95153
461.3432, 13.72246
461.8253, 13.55163
462.3074, 13.55589
462.7895, 13.69238
463.2716, 13.78383
463.7538, 13.92328
464.2359, 13.90143
464.7180, 13.51594
465.2001, 13.05386
465.6822, 12.78381
466.1643, 12.76765
466.6465, 12.96012
467.1286, 13.36110
467.6107, 14.03058
468.0928, 14.35014
468.5749, 13.88165
469.0570, 13.52729
469.5392, 13.57510
470.0213, 13.87770
470.5034, 14.26893
470.9855, 14.68915
471.4676, 14.97013
471.9497, 14.71602
472.4319, 13.75049
472.9140, 13.02442
473.3961, 12.65258
473.8782, 12.59975
474.3603, 13.04254
474.8424, 13.84273
475.3246, 14.50020
475.8067, 14.70393
476.2888, 14.56738
476.7709, 14.29318
477.2530, 13.85911
477.7351, 13.42925
478.2173, 13.02944
478.6994, 12.71285
479.1815, 12.56783
479.6636, 12.63735
480.1457, 12.73374
480.6278, 12.76168
481.1100, 12.75369
481.5920, 12.79502
482.0742, 12.90533
482.5563, 12.94972
483.0384, 12.75900
483.5205, 12.34463
484.0026, 12.16604
484.4847, 12.38999
484.9669, 12.65259
485.4490, 12.84196
485.9311, 12.96249
486.4132, 13.03025
486.8953, 13.05181
487.3774, 13.02689
487.8596, 12.94735
488.3417, 12.76859
488.8238, 12.65785
489.3059, 12.65960
489.7880, 12.67510
490.2701, 12.61301
490.7523, 12.52718
491.2344, 12.56484
491.7165, 12.83763
492.1986, 13.22554
492.6807, 13.40634
493.1628, 13.36139
493.6450, 13.15944
494.1271, 12.45366
494.6092, 11.85866
495.0913, 11.89952
495.5734, 12.54711
496.0555, 13.22646
496.5377, 13.56221
497.0198, 13.62418
497.5019, 13.57176
497.9840, 13.38789
498.4661, 13.18135
498.9482, 12.96359
499.4304, 12.78062
499.9125, 12.72324
500.3946, 12.84099
500.8767, 12.97312
501.3588, 13.03840
501.8409, 13.06529
502.3231, 13.10804
502.8052, 13.17780
503.2873, 13.24805
503.7694, 13.29994
504.2515, 13.33313
504.7336, 13.31198
505.2158, 13.22055
505.6979, 13.09972
506.1800, 12.91814
506.6621, 12.72998
507.1442, 12.62086
507.6263, 12.61998
508.1085, 12.68110
508.5906, 12.73734
509.0727, 12.79000
509.5548, 12.83299
510.0369, 12.86096
510.5190, 12.88438
511.0012, 12.86396
511.4833, 12.84799
511.9654, 12.93738
512.4475, 13.20052
512.9296, 13.53373
513.4117, 13.80127
513.8939, 14.02869
514.3760, 13.97078
514.8581, 13.25617
515.3402, 12.56174
515.8223, 12.54230
516.3044, 13.09888
516.7866, 13.54352
517.2687, 13.50600
517.7508, 13.24853
518.2329, 13.07733
518.7150, 12.99556
519.1971, 12.95210
519.6793, 12.90857
520.1614, 12.90632
520.6435, 13.09787
521.1256, 13.64841
521.6077, 13.88694
522.0898, 13.39343
522.5720, 12.75692
523.0541, 12.49193
523.5362, 12.61016
524.0183, 12.87270
524.5004, 13.13352
524.9825, 13.36116
525.4647, 13.38034
525.9468, 12.88381
526.4289, 12.62226
526.9110, 12.91513
527.3931, 13.27909
527.8752, 13.28685
528.3574, 12.91714
528.8395, 12.46787
529.3216, 12.14639
529.8037, 11.96402
530.2858, 12.03139
530.7679, 12.47539
531.2501, 12.87421
531.7322, 13.07557
532.2143, 13.12312
532.6964, 12.97207
533.1785, 12.56457
533.6606, 12.32020
534.1428, 12.70771
534.6249, 13.41586
535.1070, 13.76815
535.5891, 13.66622
536.0712, 13.36809
536.5533, 13.01527
537.0355, 12.62608
537.5176, 12.31667
537.9997, 11.82555
538.4818, 11.72012
538.9639, 12.62367
539.4460, 13.78865
539.9282, 14.21067
540.4103, 13.72365
540.8924, 12.94488
541.3745, 12.50285
541.8566, 12.40570
542.3387, 12.36329
542.8209, 12.49903
543.3029, 12.53987
543.7850, 12.35540
544.2672, 12.08492
544.7493, 11.87595
545.2314, 11.76955
545.7135, 11.72942
546.1956, 11.74350
546.6777, 11.80419
547.1599, 11.81584
547.6420, 11.75672
548.1241, 11.68430
548.6062, 11.58320
549.0883, 11.50357
549.5704, 11.56415
550.0526, 11.89343
550.5347, 12.13125
551.0168, 11.91667
551.4989, 11.47210
551.9810, 11.28883
552.4631, 11.47346
552.9453, 11.76142
553.4274, 11.92860
553.9095, 11.97402
554.3916, 11.90783
554.8737, 11.68047
555.3558, 11.41927
555.8380, 11.02577
556.3201, 10.67650
556.8022, 10.64113
557.2843, 10.96167
557.7664, 11.38248
558.2485, 11.61848
558.7307, 11.66359
559.2128, 11.65586
559.6949, 11.45998
560.1770, 11.41462
560.6591, 11.89742
561.1412, 12.45824
561.6234, 12.45574
562.1055, 11.68090
562.5876, 10.87048
563.0697, 10.70024
563.5518, 11.01478
564.0339, 11.31281
564.5161, 11.54228
564.9982, 11.73844
565.4803, 11.97103
565.9624, 12.18336
566.4445, 12.16409
566.9266, 11.67347
567.4088, 11.29380
567.8909, 11.33091
568.3730, 11.53770
568.8551, 11.56229
569.3372, 11.36696
569.8193, 11.23270
570.3015, 11.46351
570.7836, 12.02392
571.2657, 12.20696
571.7478, 11.67784
572.2299, 11.20628
572.7120, 10.89819
573.1942, 10.70398
573.6763, 10.57795
574.1584, 10.51042
574.6405, 10.51366
575.1226, 10.62891
575.6047, 10.82754
576.0869, 11.00417
576.5690, 11.17102
577.0511, 11.25812
577.5332, 11.16225
578.0153, 11.00558
578.4974, 11.03900
578.9796, 11.35795
579.4617, 11.45103
579.9438, 10.89736
580.4259, 10.15268
580.9080, 9.700304
581.3901, 9.577618
581.8723, 9.676250
582.3544, 9.963253
582.8365, 10.35432
583.3186, 10.55698
583.8007, 10.30929
584.2828, 10.27580
584.7650, 10.66115
585.2471, 11.08803
585.7292, 11.38289
586.2113, 11.49866
586.6934, 11.37702
587.1755, 10.92614
587.6577, 10.32054
588.1398, 9.961002
588.6219, 9.868910
589.1040, 9.874599
589.5861, 9.927926
590.0682, 10.08407
590.5504, 10.52740
591.0325, 11.17772
591.5146, 11.48621
591.9967, 11.01468
592.4788, 10.36409
592.9609, 9.960902
593.4431, 9.798690
593.9252, 9.902362
594.4073, 10.30470
594.8894, 10.72891
595.3715, 10.75499
595.8536, 10.23434
596.3358, 9.992219
596.8179, 10.23790
597.3000, 10.48644
597.7821, 10.55727
598.2642, 10.52821
598.7463, 10.52211
599.2285, 10.58125
599.7106, 10.66580
600.1927, 10.80010
600.6748, 10.97264
601.1569, 10.77866
601.6390, 9.966483
602.1212, 9.288032
602.6033, 9.253656
603.0854, 9.607733
603.5675, 10.03793
604.0496, 10.59748
604.5317, 10.96838
605.0139, 10.86697
605.4960, 10.53449
605.9781, 10.31415
606.4602, 10.24489
606.9423, 10.19055
607.4244, 10.03169
607.9066, 9.833437
608.3887, 9.899367
608.8708, 10.60126
609.3529, 11.03464
609.8350, 10.98336
610.3171, 10.81073
610.7993, 10.77338
611.2814, 10.85604
611.7635, 10.91257
612.2456, 10.87558
612.7277, 10.71455
613.2098, 10.26532
613.6920, 9.478019
614.1741, 8.979175
614.6562, 8.998504
615.1383, 9.253774
615.6204, 9.502479
616.1025, 9.746308
616.5847, 9.993085
617.0668, 10.26087
617.5489, 10.51546
618.0310, 10.74248
618.5131, 10.93874
618.9952, 11.11760
619.4774, 11.27990
619.9595, 11.35490
620.4416, 11.22507
620.9237, 10.86054
621.4058, 10.74606
621.8879, 11.23627
622.3701, 11.54153
622.8522, 11.42815
623.3343, 11.09476
623.8164, 10.70170
624.2985, 10.29714
624.7806, 9.939287
625.2628, 9.652756
625.7448, 9.453516
626.2269, 9.375997
626.7090, 9.418027
627.1912, 9.648916
627.6733, 10.20803
628.1554, 10.87275
628.6375, 11.22168
629.1196, 11.24461
629.6017, 11.10881
630.0839, 10.59873
630.5660, 10.15080
631.0481, 10.12923
631.5302, 10.41228
632.0123, 10.68176
632.4944, 10.79088
632.9766, 10.80704
633.4587, 10.82306
633.9408, 10.82106
634.4229, 10.92748
634.9050, 11.34070
635.3871, 11.59680
635.8693, 11.40159
636.3514, 10.96850
636.8335, 10.61635
637.3156, 10.42697
637.7977, 10.29688
638.2798, 10.21222
638.7620, 10.11981
639.2441, 9.825151
639.7262, 9.325350
640.2083, 9.056971
640.6904, 9.377516
641.1725, 10.05508
641.6547, 10.31012
642.1368, 9.623361
642.6189, 9.273443
643.1010, 9.546840
643.5831, 9.900518
644.0652, 10.02712
644.5474, 9.939996
645.0295, 9.719813
645.5116, 9.368522
645.9937, 9.098160
646.4758, 9.403368
646.9579, 10.27636
647.4401, 10.70467
647.9222, 10.36112
648.4043, 9.925620
648.8864, 9.911100
649.3685, 10.22025
649.8506, 10.56433
650.3328, 11.06291
650.8149, 11.37590
651.2970, 11.24616
651.7791, 10.92534
652.2612, 10.67127
652.7433, 10.53544
653.2255, 10.50807
653.7076, 10.59013
654.1897, 10.75688
654.6718, 10.92360
655.1539, 11.10457
655.6360, 11.24936
656.1182, 11.46843
656.6003, 11.54142
657.0824, 11.18336
657.5645, 10.56056
658.0466, 10.18644
658.5287, 10.33961
659.0109, 10.67182
659.4930, 10.95210
659.9751, 11.14561
660.4572, 11.08982
660.9393, 10.74090
661.4214, 10.43330
661.9036, 10.49511
662.3857, 10.87550
662.8678, 11.02264
663.3499, 10.51134
663.8320, 10.33285
664.3141, 10.96546
664.7963, 11.66049
665.2784, 11.74137
665.7605, 11.29399
666.2426, 10.90321
666.7247, 10.94602
667.2068, 11.22158
667.6890, 11.38252
668.1711, 11.43153
668.6532, 11.46288
669.1353, 11.50199
669.6174, 11.51419
670.0995, 11.43243
670.5817, 11.27693
671.0638, 11.24037
671.5459, 11.56050
672.0280, 11.71067
672.5101, 11.34052
672.9922, 10.82476
673.4744, 10.54114
673.9565, 10.54728
674.4386, 10.76460
674.9207, 11.20332
675.4028, 11.69206
675.8849, 11.53153
676.3671, 10.45886
676.8492, 9.936283
677.3313, 10.64912
677.8134, 11.54608
678.2955, 11.77795
678.7776, 11.49312
679.2598, 11.20728
679.7419, 10.99128
680.2240, 10.86096
680.7061, 10.85836
681.1882, 10.93506
681.6703, 11.03122
682.1525, 11.12870
682.6346, 11.22087
683.1167, 11.32094
683.5988, 11.38783
684.0809, 11.17737
684.5630, 10.43121
685.0452, 9.974612
685.5273, 10.03803
686.0094, 10.32002
686.4915, 10.85213
686.9736, 11.47115
687.4557, 11.73013
687.9379, 11.30532
688.4200, 10.74347
688.9021, 10.46512
689.3842, 10.43041
689.8663, 10.65438
690.3484, 11.12711
690.8306, 11.43314
691.3127, 11.19722
691.7948, 10.56334
692.2769, 10.26084
692.7590, 10.56491
693.2411, 10.76781
693.7233, 10.77921
694.2054, 10.73849
694.6875, 10.69310
695.1696, 10.66828
695.6517, 10.73735
696.1339, 10.99530
696.6160, 11.16042
697.0981, 10.73871
697.5802, 9.949286
698.0623, 9.590322
698.5444, 9.798178
699.0266, 10.23327
699.5087, 10.72946
699.9908, 11.22651
700.4729, 11.48481
700.9550, 11.30015
701.4371, 11.18212
701.9193, 11.16546
702.4014, 11.19043
702.8835, 11.25216
703.3656, 11.32159
703.8477, 11.34866
704.3298, 11.31038
704.8120, 11.23741
705.2941, 11.14243
705.7762, 11.04035
706.2583, 11.02926
706.7404, 11.13794
707.2225, 11.18989
707.7046, 11.04015
708.1867, 10.79590
708.6688, 10.73623
709.1509, 10.92281
709.6331, 11.12443
710.1152, 11.44664
710.5973, 11.66334
711.0794, 11.53630
711.5615, 11.23609
712.0436, 11.09727
712.5258, 11.23648
713.0079, 11.41657
713.4900, 11.32735
713.9721, 11.02736
714.4542, 10.82786
714.9363, 10.73627
715.4185, 10.76535
715.9006, 10.96071
716.3827, 11.24056
716.8648, 11.48974
717.3469, 11.72330
717.8290, 11.84450
718.3112, 11.83933
718.7933, 11.72529
719.2754, 11.39119
719.7575, 11.00408
720.2396, 10.81040
720.7217, 10.86377
721.2039, 11.00713
721.6860, 11.14438
722.1681, 11.23511
722.6502, 11.00859
723.1323, 10.38214
723.6144, 10.15634
724.0966, 10.76233
724.5787, 11.60417
725.0608, 11.97592
725.5429, 11.88985
726.0250, 11.84729
726.5071, 11.99269
726.9893, 12.04443
727.4714, 11.72841
727.9535, 11.36711
728.4356, 11.44163
728.9177, 11.91190
729.3998, 12.22589
729.8820, 11.92473
730.3641, 11.30548
730.8462, 11.03818
731.3283, 11.13188
731.8104, 11.39484
732.2925, 11.90991
732.7747, 12.30266
733.2568, 12.15665
733.7389, 11.60618
734.2210, 11.38520
734.7031, 11.79621
735.1852, 12.06776
735.6674, 12.06051
736.1495, 11.84173
736.6316, 11.26863
737.1137, 10.53934
737.5958, 10.13540
738.0779, 10.30381
738.5601, 10.78540
739.0422, 11.31534
739.5243, 11.86025
740.0064, 12.03730
740.4885, 11.73036
740.9706, 11.44775
741.4528, 11.48228
741.9349, 11.71352
742.4170, 11.90665
742.8991, 12.11509
743.3812, 12.11547
743.8633, 11.62218
744.3455, 11.19504
744.8276, 11.14665
745.3097, 11.35236
745.7918, 11.69086
746.2739, 12.08927
746.7560, 12.29867
747.2382, 11.92927
747.7203, 11.20774
748.2024, 10.84231
748.6845, 10.83920
749.1666, 10.93999
749.6487, 11.07897
750.1309, 11.24430
750.6130, 11.45832
751.0951, 11.73135
751.5772, 11.79267
752.0593, 11.34339
752.5414, 11.08757
753.0236, 11.40761
753.5057, 11.82080
753.9878, 11.80029
754.4699, 11.41880
754.9520, 11.19013
755.4341, 11.43989
755.9163, 11.90438
756.3984, 12.31621
756.8805, 12.63807
757.3626, 12.63903
757.8447, 12.26345
758.3268, 11.86311
758.8090, 11.68474
759.2911, 11.67013
759.7732, 11.62480
760.2553, 11.54771
760.7374, 11.44008
761.2195, 11.21103
761.7017, 11.04984
762.1838, 11.09889
762.6659, 11.25595
763.1480, 11.36569
763.6301, 11.38595
764.1122, 11.34754
764.5944, 11.14669
765.0765, 10.96746
765.5586, 11.19489
766.0407, 11.75733
766.5228, 12.21690
767.0049, 12.41061
767.4871, 12.38255
767.9692, 12.14808
768.4513, 11.68837
768.9334, 11.46920
769.4155, 11.60405
769.8976, 11.79714
770.3798, 12.04263
770.8619, 12.27335
771.3440, 12.43403
771.8261, 12.52821
772.3082, 12.58847
772.7903, 12.57736
773.2725, 12.60111
773.7546, 12.84750
774.2367, 13.12669
774.7188, 13.10180
775.2009, 12.76655
775.6830, 12.37353
776.1652, 12.08038
776.6473, 11.87037
777.1294, 11.67541
777.6115, 11.46169
778.0936, 11.52379
778.5757, 12.08505
779.0579, 12.54528
779.5400, 12.50467
780.0221, 12.18803
780.5042, 11.95275
780.9863, 11.80672
781.4684, 11.74438
781.9506, 11.77268
782.4327, 11.87543
782.9148, 12.14572
783.3969, 12.44651
783.8790, 12.48996
784.3611, 12.24134
784.8433, 12.04920
785.3254, 12.28988
785.8075, 12.79745
786.2896, 13.07625
786.7717, 13.12304
787.2538, 13.09987
787.7360, 13.05377
788.2181, 12.91054
788.7002, 12.51148
789.1823, 11.92728
789.6644, 11.77550
790.1465, 12.60124
790.6286, 13.05418
791.1107, 12.69933
791.5928, 12.25340
792.0750, 12.18765
792.5571, 12.39503
793.0392, 12.56963
793.5213, 12.59928
794.0034, 12.60397
794.4855, 12.76393
794.9677, 12.93992
795.4498, 12.76185
795.9319, 12.28867
796.4140, 12.07186
796.8961, 12.35730
797.3782, 12.79808
797.8604, 12.92585
798.3425, 12.73159
798.8246, 12.40165
799.3067, 11.66692
799.7888, 11.28152
800.2709, 11.74889
800.7531, 12.38710
801.2352, 12.69057
801.7173, 12.70780
802.1994, 12.76331
802.6815, 13.02624
803.1636, 13.22132
803.6458, 13.08481
804.1279, 12.87704
804.6100, 12.99943
805.0921, 13.36744
805.5742, 13.52002
806.0563, 13.19437
806.5385, 12.71093
807.0206, 12.61300
807.5027, 12.86686
807.9848, 12.97983
808.4669, 12.88742
808.9490, 12.92319
809.4312, 13.37569
809.9133, 13.83531
810.3954, 13.58923
810.8775, 12.45535
811.3596, 11.82917
811.8417, 12.00869
812.3239, 12.30863
812.8060, 12.69220
813.2881, 13.00742
813.7702, 13.07930
814.2523, 12.93937
814.7344, 12.76861
815.2166, 12.61914
815.6987, 12.55424
816.1808, 12.70463
816.6629, 12.97455
817.1450, 13.14257
817.6271, 13.19180
818.1093, 13.25232
818.5914, 13.40647
819.0735, 13.56508
819.5556, 13.53944
820.0377, 13.29224
820.5198, 13.08072
821.0020, 12.83754
821.4841, 12.75957
821.9662, 13.11554
822.4483, 13.53582
822.9304, 13.53099
823.4125, 13.11871
823.8947, 12.93010
824.3768, 13.34152
824.8589, 13.69852
825.3410, 13.69196
825.8231, 13.49894
826.3052, 13.24048
826.7874, 12.98985
827.2695, 12.87784
827.7516, 12.98877
828.2337, 13.21477
828.7158, 13.42569
829.1979, 13.62192
829.6801, 13.84277
830.1622, 14.09165
830.6443, 14.16948
831.1264, 13.95211
831.6085, 13.57758
832.0906, 13.24360
832.5728, 12.92591
833.0549, 12.84092
833.5370, 13.21170
834.0191, 13.49502
834.5012, 13.55404
834.9833, 13.49590
835.4655, 13.35525
835.9476, 13.16605
836.4297, 13.05728
836.9118, 13.15952
837.3939, 13.20362
837.8760, 12.93096
838.3582, 12.59567
838.8403, 12.52335
839.3224, 12.67321
839.8045, 12.80349
840.2866, 12.79993
840.7687, 12.75656
841.2509, 12.83255
841.7330, 12.99055
842.2151, 12.96860
842.6972, 12.74549
843.1793, 12.63305
843.6614, 12.75577
844.1436, 13.00168
844.6257, 13.27101
845.1078, 13.56067
845.5899, 13.70952
846.0720, 13.44359
846.5541, 13.44212
847.0363, 14.15801
847.5184, 14.77542
848.0005, 14.68323
848.4826, 14.11642
848.9647, 13.64841
849.4468, 13.43402
849.9290, 13.28161
850.4111, 13.06020
850.8932, 12.87149
851.3753, 12.82181
851.8574, 12.88878
852.3395, 13.01518
852.8217, 13.17899
853.3038, 13.38284
853.7859, 13.66141
854.2680, 13.95107
854.7501, 14.03045
855.2322, 13.90013
855.7144, 13.72525
856.1965, 13.52623
856.6786, 13.34488
857.1607, 13.22347
857.6428, 13.13615
858.1249, 12.98635
858.6071, 12.63593
859.0892, 12.52742
859.5713, 12.90710
860.0534, 13.23388
860.5355, 13.27291
861.0176, 13.18150
861.4998, 13.16859
861.9819, 13.25136
862.4640, 13.26316
862.9461, 12.97137
863.4282, 12.76456
863.9103, 13.10740
864.3925, 13.59480
864.8746, 13.53189
865.3567, 12.98135
865.8388, 12.62648
866.3209, 12.87765
866.8030, 13.40599
867.2852, 13.79716
867.7673, 14.03356
868.2494, 13.93364
868.7315, 13.47349
869.2136, 13.18149
869.6957, 13.32162
870.1779, 13.55948
870.6600, 13.42529
871.1421, 12.91420
871.6242, 12.59702
872.1063, 12.56834
872.5884, 12.56711
873.0705, 12.44505
873.5526, 12.44045
874.0347, 12.84668
874.5168, 13.46255
874.9990, 13.78693
875.4811, 13.65800
875.9632, 13.48071
876.4453, 13.43477
876.9274, 13.35344
877.4095, 13.04205
877.8917, 12.63481
878.3738, 12.34095
878.8559, 12.21956
879.3380, 12.25729
879.8201, 12.56923
880.3022, 12.88599
880.7844, 12.55418
881.2665, 11.83378
881.7486, 11.85790
882.2307, 12.75122
882.7128, 13.37315
883.1949, 12.95536
883.6771, 12.02763
884.1592, 11.72368
884.6413, 12.14610
885.1234, 12.42222
885.6055, 12.54316
886.0876, 12.53364
886.5698, 12.35438
887.0519, 12.09707
887.5340, 11.80484
888.0161, 11.49264
888.4982, 11.37451
888.9803, 11.57462
889.4625, 11.80197
889.9446, 12.04701
890.4267, 12.26680
890.9088, 12.42334
891.3909, 12.53466
891.8730, 12.69221
892.3552, 12.93398
892.8373, 12.94120
893.3194, 12.18853
893.8015, 11.37009
894.2836, 11.28912
894.7657, 11.70364
895.2479, 12.18569
895.7300, 12.57779
896.2121, 12.67009
896.6942, 12.25874
897.1763, 11.61512
897.6584, 11.26587
898.1406, 11.19417
898.6227, 11.23835
899.1048, 11.39075
899.5869, 11.59081
900.0690, 11.83090
900.5511, 12.04655
901.0333, 12.13435
901.5154, 12.08764
901.9975, 12.07061
902.4796, 12.17576
902.9617, 12.13673
903.4438, 11.79725
903.9260, 11.40171
904.4081, 11.06137
904.8902, 10.79933
905.3723, 10.69659
905.8544, 10.83515
906.3365, 10.92370
906.8187, 10.75178
907.3008, 10.65827
907.7829, 10.97254
908.2650, 11.42505
908.7471, 11.63765
909.2292, 11.56081
909.7114, 11.40153
910.1935, 11.25958
910.6756, 11.12110
911.1577, 10.93681
911.6398, 10.75956
912.1219, 10.68139
912.6041, 10.71076
913.0862, 10.88832
913.5683, 11.23411
914.0504, 11.46275
914.5325, 11.02077
915.0146, 10.11102
915.4968, 10.02897
915.9789, 10.81099
916.4610, 11.35161
916.9431, 11.36339
917.4252, 11.11784
917.9073, 10.78028
918.3895, 10.41399
918.8716, 10.24945
919.3537, 10.32592
919.8358, 10.51004
920.3179, 10.91188
920.8000, 11.26182
921.2822, 11.46110
921.7643, 11.54978
922.2464, 11.51866
922.7285, 11.37868
923.2106, 11.34224
923.6927, 11.48028
924.1749, 11.66836
924.6570, 11.98008
925.1391, 12.23227
925.6212, 12.28814
926.1033, 12.16901
926.5854, 11.91473
927.0676, 11.53320
927.5497, 11.15840
928.0318, 10.76072
928.5139, 10.51877
928.9960, 10.76317
929.4781, 11.24561
929.9603, 11.47999
930.4424, 11.40961
930.9245, 11.29129
931.4066, 11.29219
931.8887, 11.30896
932.3708, 11.09238
932.8530, 10.74694
933.3351, 10.76996
933.8172, 11.16364
934.2993, 11.54280
934.7814, 11.77894
935.2635, 11.76189
935.7457, 11.29574
936.2278, 10.51632
936.7099, 10.28317
937.1920, 10.76045
937.6741, 11.05279
938.1563, 10.97635
938.6384, 10.89930
939.1205, 11.08822
939.6026, 11.34668
940.0847, 11.28856
940.5668, 10.82788
941.0490, 10.56088
941.5311, 10.47065
942.0132, 10.58739
942.4953, 11.15105
942.9774, 11.71273
943.4595, 11.98610
943.9417, 11.98862
944.4238, 11.74834
944.9059, 11.14252
945.3880, 10.78911
945.8701, 11.22942
946.3522, 11.64935
946.8344, 11.36384
947.3165, 10.80534
947.7986, 10.62118
948.2807, 10.84060
948.7628, 10.99088
949.2449, 10.74596
949.7271, 10.53861
950.2092, 10.90480
950.6913, 11.50500
951.1734, 11.93726
951.6555, 12.11032
952.1376, 11.77057
952.6198, 10.88768
953.1019, 10.07572
953.5840, 9.929922
954.0661, 10.26124
954.5482, 10.73609
955.0303, 11.30024
955.5124, 11.57745
955.9945, 11.51585
956.4766, 11.26883
956.9587, 10.88949
957.4409, 10.53306
957.9230, 10.48145
958.4051, 10.72620
958.8872, 10.78156
959.3693, 10.59062
959.8514, 10.45233
960.3336, 10.42896
960.8157, 10.47099
961.2978, 10.51595
961.7799, 10.61813
962.2620, 10.98185
962.7441, 11.88188
963.2263, 12.18560
963.7084, 11.31539
964.1905, 10.63025
964.6726, 10.61198
965.1547, 10.82124
965.6368, 10.91808
966.1190, 10.91435
966.6011, 10.91446
967.0832, 10.92517
967.5653, 10.95280
968.0474, 11.17859
968.5295, 11.22707
969.0117, 10.53035
969.4938, 9.725515
969.9759, 9.888814
970.4580, 10.96802
970.9401, 11.53621
971.4222, 10.44855
971.9044, 9.535328
972.3865, 10.41896
972.8686, 11.69289
973.3507, 11.77357
973.8328, 10.98936
974.3149, 10.28657
974.7971, 9.984639
975.2792, 10.04435
975.7613, 10.71187
976.2434, 11.41994
976.7255, 11.27458
977.2076, 10.63387
977.6898, 10.22885
978.1719, 10.13319
978.6540, 10.16052
979.1361, 10.22113
979.6182, 10.29143
980.1003, 10.32631
980.5825, 10.35303
981.0646, 10.46922
981.5467, 10.66661
982.0288, 10.93246
982.5109, 11.26235
982.9930, 11.37871
983.4752, 11.06377
983.9573, 10.59990
984.4394, 10.55863
984.9215, 10.94365
985.4036, 11.19551
985.8857, 11.31118
986.3679, 11.28348
986.8500, 11.06508
987.3321, 10.83849
987.8142, 10.72514
988.2963, 10.74245
988.7784, 10.97750
989.2606, 11.55815
989.7427, 11.90426
990.2248, 12.01003
990.7069, 11.87031
991.1890, 11.22047
991.6711, 10.61678
992.1533, 10.73344
992.6354, 11.40428
993.1175, 11.62787
993.5996, 11.03087
994.0817, 10.66048
994.5638, 10.69374
995.0460, 10.75955
995.5281, 10.67597
996.0102, 10.58158
996.4923, 10.63846
996.9744, 10.83736
997.4565, 11.05155
997.9387, 11.35492
998.4208, 11.50827
998.9029, 11.19689
999.3850, 10.98331
999.8671, 11.43883
1000.349, 12.10138
1000.831, 12.21696
1001.313, 11.75012
1001.796, 11.41964
1002.278, 11.63585
1002.760, 11.88196
1003.242, 11.90263
1003.724, 11.80311
1004.206, 11.59920
1004.688, 11.38045
1005.170, 11.33349
1005.653, 11.47875
1006.135, 11.54810
1006.617, 11.27135
1007.099, 10.98442
1007.581, 11.09250
1008.063, 11.33237
1008.545, 11.35226
1009.027, 11.15358
1009.509, 10.77362
1009.992, 10.26239
1010.474, 9.986990
1010.956, 10.43510
1011.438, 11.12524
1011.920, 11.29525
1012.402, 11.14864
1012.884, 11.14810
1013.366, 11.32894
1013.849, 11.55224
1014.331, 11.75487
1014.813, 11.89649
1015.295, 11.95962
1015.777, 11.90726
1016.259, 11.49630
1016.741, 10.86206
1017.223, 10.73149
1017.705, 11.16647
1018.188, 11.59997
1018.670, 11.74604
1019.152, 11.65242
1019.634, 11.27560
1020.116, 10.74771
1020.598, 10.84588
1021.080, 11.53479
1021.562, 11.79385
1022.044, 11.42065
1022.527, 11.14026
1023.009, 11.39825
1023.491, 11.83588
1023.973, 11.84269
1024.455, 11.45673
1024.937, 11.34137
1025.419, 11.53412
1025.901, 11.69200
1026.384, 11.76065
1026.866, 11.73991
1027.348, 11.60210
1027.830, 11.43721
1028.312, 11.43160
1028.794, 11.59743
1029.276, 11.60640
1029.758, 11.41354
1030.240, 11.22153
1030.723, 11.07019
1031.205, 10.91184
1031.687, 10.67376
1032.169, 10.45578
1032.651, 10.48296
1033.133, 10.79782
1033.615, 10.99927
1034.097, 11.06507
1034.579, 11.05528
1035.062, 10.88936
1035.544, 10.78805
1036.026, 10.89713
1036.508, 11.17154
1036.990, 11.55822
1037.472, 12.12321
1037.954, 12.42345
1038.436, 12.29186
1038.919, 12.16170
1039.401, 12.20340
1039.883, 12.16146
1040.365, 11.72892
1040.847, 11.14136
1041.329, 10.91963
1041.811, 11.13798
1042.293, 11.32120
1042.776, 11.49423
1043.258, 11.58471
1043.740, 11.51700
1044.222, 11.42528
1044.704, 11.37040
1045.186, 11.36106
1045.668, 11.40803
1046.150, 11.51108
1046.632, 11.67638
1047.115, 12.09548
1047.597, 12.31307
1048.079, 11.95192
1048.561, 11.61260
1049.043, 11.87596
1049.525, 12.39530
1050.007, 12.44986
1050.489, 11.91277
1050.971, 11.49074
1051.454, 11.37884
1051.936, 11.32010
1052.418, 11.15120
1052.900, 11.09414
1053.382, 11.48997
1053.864, 12.04370
1054.346, 12.12416
1054.828, 11.62677
1055.311, 11.41529
1055.793, 11.98296
1056.275, 12.51188
1056.757, 12.75409
1057.239, 12.82619
1057.721, 12.82197
1058.203, 12.70918
1058.685, 12.34680
1059.167, 11.72580
1059.650, 11.27570
1060.132, 11.12281
1060.614, 11.18275
1061.096, 11.70942
1061.578, 12.15738
1062.060, 11.96983
1062.542, 11.47986
1063.024, 11.27672
1063.506, 11.44037
1063.989, 11.62403
1064.471, 11.74248
1064.953, 11.80124
1065.435, 11.83789
1065.917, 11.78099
1066.399, 11.44791
1066.881, 11.04878
1067.363, 10.92026
1067.846, 11.09156
1068.328, 11.32053
1068.810, 11.63249
1069.292, 11.78424
1069.774, 11.52178
1070.256, 11.20593
1070.738, 11.05381
1071.220, 11.05267
1071.703, 11.19842
1072.185, 11.45780
1072.667, 11.69265
1073.149, 11.87025
1073.631, 11.97488
1074.113, 12.01440
1074.595, 11.96181
1075.077, 11.73213
1075.559, 11.43980
1076.042, 11.18995
1076.524, 11.02075
1077.006, 11.00980
1077.488, 11.24678
1077.970, 11.43748
1078.452, 11.35945
1078.934, 11.28359
1079.416, 11.48877
1079.898, 11.73457
1080.380, 11.63183
1080.863, 11.28870
1081.345, 11.23143
1081.827, 11.71374
1082.309, 12.01884
1082.791, 11.63491
1083.273, 11.19783
1083.755, 11.01616
1084.237, 11.04582
1084.720, 11.33708
1085.202, 11.76254
1085.684, 12.01454
1086.166, 11.99368
1086.648, 11.98921
1087.130, 12.26299
1087.612, 12.40999
1088.094, 12.07292
1088.577, 11.64028
1089.059, 11.42542
1089.541, 11.42472
1090.023, 11.64035
1090.505, 12.07434
1090.987, 12.26332
1091.469, 11.85500
1091.951, 11.40684
1092.433, 10.95374
1092.916, 10.74928
1093.398, 11.20365
1093.880, 11.95157
1094.362, 12.39748
1094.844, 12.46151
1095.326, 12.42053
1095.808, 12.39247
1096.290, 12.22436
1096.772, 11.68160
1097.255, 11.18199
1097.737, 10.98350
1098.219, 10.99144
1098.701, 11.07936
1099.183, 11.22940
1099.665, 11.46023
1100.147, 11.91161
1100.629, 12.15896
1101.112, 11.95646
1101.594, 11.68581
1102.076, 11.44501
1102.558, 11.29844
1103.040, 11.39262
1103.522, 11.63657
1104.004, 11.68632
1104.486, 11.44136
1104.969, 11.16496
1105.451, 10.68227
1105.933, 10.46423
1106.415, 10.97711
1106.897, 11.53989
1107.379, 11.45448
1107.861, 11.02400
1108.343, 11.12192
1108.825, 11.99200
1109.307, 12.34101
1109.790, 11.48536
1110.272, 10.91406
1110.754, 11.04804
1111.236, 11.41705
1111.718, 11.90980
1112.200, 12.37526
1112.682, 12.55332
1113.164, 12.42945
1113.647, 12.26594
1114.129, 12.00348
1114.611, 11.79989
1115.093, 11.63474
1115.575, 11.57584
1116.057, 11.72471
1116.539, 11.92956
1117.021, 12.04479
1117.504, 12.06393
1117.986, 11.91998
1118.468, 11.42837
1118.950, 11.22882
1119.432, 11.48187
1119.914, 11.71925
1120.396, 11.80666
1120.878, 11.80449
1121.360, 11.71838
1121.843, 11.61663
1122.325, 11.72652
1122.807, 12.11487
1123.289, 12.31480
1123.771, 12.32589
1124.253, 12.10380
1124.735, 11.51302
1125.217, 11.08259
1125.699, 11.18606
1126.182, 11.57092
1126.664, 11.82161
1127.146, 11.94158
1127.628, 11.94719
1128.110, 11.79884
1128.592, 11.99076
1129.074, 12.67685
1129.556, 12.92492
1130.039, 12.22929
1130.521, 11.41312
1131.003, 11.43010
1131.485, 12.06130
1131.967, 12.66361
1132.449, 13.21104
1132.931, 13.09141
1133.413, 12.29556
1133.896, 11.84381
1134.378, 12.04690
1134.860, 12.22644
1135.342, 11.82515
1135.824, 11.25039
1136.306, 11.28588
1136.788, 11.77530
1137.270, 12.19627
1137.752, 12.51295
1138.234, 12.51090
1138.717, 12.21801
1139.199, 12.15322
1139.681, 12.58406
1140.163, 13.00543
1140.645, 12.77171
1141.127, 12.22950
1141.609, 11.99727
1142.091, 11.95984
1142.574, 11.82913
1143.056, 11.64706
1143.538, 11.69775
1144.020, 12.04146
1144.502, 12.39864
1144.984, 12.63133
1145.466, 12.65407
1145.948, 12.13141
1146.431, 11.54681
1146.913, 11.54469
1147.395, 11.93383
1147.877, 12.44161
1148.359, 12.91177
1148.841, 13.01288
1149.323, 12.54908
1149.805, 12.06209
1150.287, 11.80260
1150.770, 11.74512
1151.252, 12.00353
1151.734, 12.34570
1152.216, 12.55240
1152.698, 12.62747
1153.180, 12.59841
1153.662, 12.47310
1154.144, 12.49006
1154.626, 12.82460
1155.109, 13.17864
1155.591, 13.64662
1156.073, 13.89308
1156.555, 13.53771
1157.037, 12.95118
1157.519, 12.59768
1158.001, 12.48019
1158.483, 12.38250
1158.966, 12.23009
1159.448, 12.21057
1159.930, 12.48759
1160.412, 12.68751
1160.894, 12.58540
1161.376, 12.51924
1161.858, 12.80940
1162.340, 13.27060
1162.822, 13.49401
1163.305, 13.45868
1163.787, 13.41613
1164.269, 13.37471
1164.751, 13.29635
1165.233, 13.15858
1165.715, 13.02841
1166.197, 12.91858
1166.679, 12.88892
1167.161, 13.04454
1167.644, 13.30359
1168.126, 13.30591
1168.608, 13.04157
1169.090, 12.84621
1169.572, 12.73907
1170.054, 12.44623
1170.536, 11.88369
1171.018, 11.63390
1171.500, 12.13695
1171.983, 12.90195
1172.465, 13.13170
1172.947, 12.98355
1173.429, 12.99677
1173.911, 13.10279
1174.393, 12.98594
1174.875, 12.66983
1175.357, 12.49984
1175.840, 12.59511
1176.322, 12.71666
1176.804, 12.64966
1177.286, 12.55099
1177.768, 12.66204
1178.250, 12.83156
1178.732, 12.82792
1179.214, 12.71265
1179.697, 12.55735
1180.179, 12.44062
1180.661, 12.65313
1181.143, 13.39423
1181.625, 13.81602
1182.107, 12.95382
1182.589, 12.14234
1183.071, 12.46193
1183.553, 13.06348
1184.036, 13.11597
1184.518, 12.82081
1185.000, 12.60815
1185.482, 12.55717
1185.964, 12.78249
1186.446, 13.76305
1186.928, 14.28837
1187.410, 13.75193
1187.892, 13.22831
1188.375, 13.27181
1188.857, 13.43698
1189.339, 13.27074
1189.821, 12.90675
1190.303, 12.72993
1190.785, 12.75849
1191.267, 12.87346
1191.749, 13.10575
1192.232, 13.36064
1192.714, 13.69782
1193.196, 13.80516
1193.678, 13.45795
1194.160, 13.00131
1194.642, 12.84517
1195.124, 12.94787
1195.606, 13.18073
1196.089, 13.53712
1196.571, 13.88224
1197.053, 14.19889
1197.535, 14.28006
1198.017, 14.08572
1198.499, 13.88255
1198.981, 13.83937
1199.463, 13.81364
1199.945, 13.56552
1200.427, 13.24237
1200.910, 13.13817
1201.392, 13.18930
1201.874, 13.21978
1202.356, 13.27370
1202.838, 13.69787
1203.320, 14.46732
1203.802, 14.71081
1204.284, 13.69292
1204.767, 12.70213
1205.249, 12.76602
1205.731, 13.20659
1206.213, 13.68913
1206.695, 14.04915
1207.177, 14.05973
1207.659, 13.82903
1208.141, 13.64362
1208.624, 13.55664
1209.106, 13.56972
1209.588, 13.87541
1210.070, 13.99303
1210.552, 13.46330
1211.034, 13.15132
1211.516, 13.79346
1211.998, 14.59823
1212.480, 14.78096
1212.963, 14.46459
1213.445, 14.09178
1213.927, 13.62705
1214.409, 13.25710
1214.891, 12.92067
1215.373, 12.97405
1215.855, 13.56684
1216.337, 14.17912
1216.819, 14.56112
1217.302, 14.67750
1217.784, 14.42184
1218.266, 13.96903
1218.748, 13.89254
1219.230, 14.11482
1219.712, 14.25887
1220.194, 14.31610
1220.676, 14.39731
1221.159, 14.50507
1221.641, 14.44119
1222.123, 14.08851
1222.605, 13.79194
1223.087, 14.00454
1223.569, 14.34886
1224.051, 14.38781
1224.533, 14.29864
1225.016, 14.36021
1225.498, 14.46158
1225.980, 14.26628
1226.462, 13.79872
1226.944, 13.55911
1227.426, 13.83842
1227.908, 14.01044
1228.390, 13.64509
1228.872, 13.41290
1229.354, 13.83239
1229.837, 14.26126
1230.319, 14.01956
1230.801, 13.52999
1231.283, 13.62059
1231.765, 14.26746
1232.247, 14.62122
1232.729, 14.59933
1233.211, 14.52264
1233.694, 14.37152
1234.176, 14.29517
1234.658, 14.35870
1235.140, 14.39478
1235.622, 14.25415
1236.104, 14.14251
1236.586, 14.53341
1237.068, 15.19348
1237.551, 15.01351
1238.033, 14.20929
1238.515, 13.71651
1238.997, 13.58641
1239.479, 13.47961
1239.961, 13.32160
1240.443, 13.41020
1240.925, 13.99567
1241.407, 14.56459
1241.890, 14.61250
1242.372, 14.41775
1242.854, 14.11850
1243.336, 13.84721
1243.818, 13.75209
1244.300, 13.80574
1244.782, 13.96628
1245.264, 14.20734
1245.746, 14.32919
1246.229, 14.17813
1246.711, 14.09319
1247.193, 14.10154
1247.675, 14.23174
1248.157, 14.77922
1248.639, 15.08717
1249.121, 14.48582
1249.603, 13.55544
1250.085, 13.39664
1250.568, 13.94905
1251.050, 14.09612
1251.532, 13.77521
1252.014, 13.77328
1252.496, 14.16281
1252.978, 14.45059
1253.460, 14.49008
1253.942, 14.72680
1254.425, 15.49716
1254.907, 16.27747
1255.389, 16.32674
1255.871, 15.88572
1256.353, 15.14638
1256.835, 14.39788
1257.317, 14.27794
1257.799, 14.61433
1258.281, 14.88725
1258.764, 14.98744
1259.246, 15.09665
1259.728, 15.30886
1260.210, 15.47017
1260.692, 15.46595
1261.174, 15.45088
1261.656, 15.50148
1262.138, 15.56630
1262.620, 15.62826
1263.103, 15.66355
1263.585, 15.64099
1264.067, 15.56154
1264.549, 15.42261
1265.031, 15.17177
1265.513, 15.02423
1265.995, 14.96031
1266.477, 15.16352
1266.960, 15.74457
1267.442, 16.06632
1267.924, 15.74414
1268.406, 15.26586
1268.888, 15.19007
1269.370, 15.41923
1269.852, 15.93644
1270.334, 16.48683
1270.817, 16.23212
1271.299, 15.49250
1271.781, 15.28274
1272.263, 15.61436
1272.745, 15.74108
1273.227, 15.37768
1273.709, 15.01260
1274.191, 14.88327
1274.673, 14.89916
1275.156, 15.09955
1275.638, 15.33261
1276.120, 15.56408
1276.602, 15.72186
1277.084, 15.58508
1277.566, 15.33698
1278.048, 15.64501
1278.530, 16.64049
1279.012, 16.94035
1279.495, 16.31553
1279.977, 15.77775
1280.459, 15.38357
1280.941, 15.40270
1281.423, 15.97541
1281.905, 16.62844
1282.387, 17.01407
1282.869, 17.12967
1283.352, 16.82744
1283.834, 16.32898
1284.316, 16.10837
1284.798, 16.16637
##END=



