##NAMES=Tellurium
##RRUFFID=R070376
##IDEAL CHEMISTRY=Te
##LOCALITY=North of Bennett Lake, Rainy River District, Ontario, Canada
##OWNER=RRUFF
##SOURCE=Royal Ontario Museum
##DESCRIPTION=Steel gray metallic fragment
##STATUS=The identification of this mineral has been confirmed by X-ray diffraction and chemical analysis
##URL=rruff.info/R070376
##MEASURED CHEMISTRY=Te
114.9494, 210.0078
115.4315, 219.3999
115.9136, 231.3489
116.3958, 248.6814
116.8779, 268.8899
117.3600, 289.4825
117.8421, 308.0460
118.3242, 327.8779
118.8063, 350.9097
119.2885, 377.3409
119.7706, 405.9434
120.2527, 434.4164
120.7348, 464.5525
121.2169, 499.7843
121.6990, 545.8473
122.1812, 595.6777
122.6633, 641.2667
123.1454, 680.2461
123.6275, 718.7017
124.1096, 762.0585
124.5917, 809.8267
125.0739, 860.0039
125.5560, 914.0289
126.0381, 969.1415
126.5202, 1020.791
127.0023, 1066.862
127.4844, 1110.198
127.9666, 1155.914
128.4487, 1203.965
128.9308, 1251.017
129.4129, 1295.697
129.8950, 1337.524
130.3772, 1370.981
130.8593, 1387.818
131.3414, 1395.614
131.8235, 1422.294
132.3056, 1469.352
132.7877, 1527.616
133.2699, 1584.981
133.7520, 1641.352
134.2341, 1705.776
134.7162, 1780.360
135.1983, 1865.356
135.6804, 1965.322
136.1626, 2081.943
136.6447, 2209.584
137.1268, 2340.373
137.6089, 2475.990
138.0910, 2605.346
138.5731, 2732.643
139.0553, 2874.978
139.5374, 2942.687
140.0195, 2925.001
140.5016, 2829.288
140.9837, 2677.974
141.4658, 2446.756
141.9480, 2195.841
142.4301, 1964.121
142.9122, 1748.203
143.3943, 1559.562
143.8764, 1399.298
144.3585, 1268.536
144.8407, 1158.072
145.3228, 1072.852
145.8049, 1004.997
146.2870, 948.7825
146.7691, 912.2360
147.2512, 877.6432
147.7334, 841.0413
148.2155, 799.7737
148.6976, 766.9956
149.1797, 745.2953
149.6618, 731.3259
150.1439, 720.7826
150.6261, 716.8955
151.1082, 713.6578
151.5903, 709.1542
152.0724, 701.1862
152.5545, 696.8204
153.0366, 698.3063
153.5188, 703.7058
154.0009, 709.1844
154.4830, 719.1633
154.9651, 725.4819
155.4472, 723.9435
155.9293, 706.0668
156.4115, 692.1240
156.8936, 689.1772
157.3757, 694.0480
157.8578, 695.6461
158.3399, 687.4416
158.8221, 676.8640
159.3042, 668.6818
159.7863, 665.7278
160.2684, 663.6782
160.7505, 660.3056
161.2326, 656.0305
161.7148, 654.3778
162.1969, 661.2265
162.6790, 669.7360
163.1611, 673.2376
163.6432, 665.4887
164.1253, 655.4611
164.6075, 646.7054
165.0896, 639.3067
165.5717, 634.8018
166.0538, 635.3165
166.5359, 639.0636
167.0180, 643.4537
167.5002, 648.3486
167.9823, 652.9316
168.4644, 656.2648
168.9465, 658.0724
169.4286, 660.0720
169.9107, 665.5079
170.3929, 672.1323
170.8750, 675.3442
171.3571, 669.6945
171.8392, 660.7383
172.3213, 654.1813
172.8034, 650.8524
173.2856, 649.7587
173.7677, 651.1247
174.2498, 654.3286
174.7319, 657.2085
175.2140, 660.1645
175.6961, 661.6071
176.1783, 658.2504
176.6604, 647.6260
177.1425, 635.4839
177.6246, 629.6997
178.1067, 629.4470
178.5888, 628.9711
179.0710, 623.6073
179.5531, 614.9991
180.0352, 606.9359
180.5173, 601.0170
180.9994, 595.4230
181.4815, 586.7239
181.9637, 574.9429
182.4458, 563.2167
182.9279, 553.7980
183.4100, 546.4973
183.8921, 540.4296
184.3742, 535.4423
184.8564, 531.4671
185.3385, 529.1828
185.8206, 528.7540
186.3027, 527.7795
186.7848, 523.2743
187.2669, 515.6594
187.7491, 508.1014
188.2312, 502.7944
188.7133, 498.4830
189.1954, 489.2744
189.6775, 474.3093
190.1596, 458.5421
190.6418, 448.3179
191.1239, 443.5620
191.6060, 439.0674
192.0881, 431.7586
192.5702, 422.2803
193.0524, 417.0783
193.5345, 417.2162
194.0166, 418.8907
194.4987, 415.6304
194.9808, 407.0733
195.4629, 399.0181
195.9451, 395.2124
196.4272, 395.4807
196.9093, 392.4270
197.3914, 384.5253
197.8735, 375.3350
198.3556, 372.0517
198.8378, 375.3901
199.3199, 380.0830
199.8020, 383.6947
200.2841, 386.1805
200.7662, 387.4824
201.2483, 386.8652
201.7305, 385.7283
202.2126, 388.5334
202.6947, 396.6942
203.1768, 403.5190
203.6589, 403.8658
204.1410, 396.4958
204.6232, 391.3945
205.1053, 389.5157
205.5874, 390.4320
206.0695, 393.2390
206.5516, 398.6810
207.0337, 404.0586
207.5159, 407.4959
207.9980, 408.6259
208.4801, 409.2809
208.9622, 409.7016
209.4443, 409.8145
209.9264, 408.9636
210.4086, 406.4686
210.8907, 404.3742
211.3728, 404.7092
211.8549, 408.5647
212.3370, 411.0019
212.8191, 410.6634
213.3013, 408.0577
213.7834, 407.6371
214.2655, 410.1914
214.7476, 413.6734
215.2297, 416.0099
215.7118, 416.2092
216.1940, 418.3223
216.6761, 424.3554
217.1582, 433.9633
217.6403, 438.2934
218.1224, 435.4524
218.6045, 429.8113
219.0867, 425.3514
219.5688, 422.3620
220.0509, 419.8719
220.5330, 417.1946
221.0151, 414.2173
221.4972, 415.2716
221.9794, 423.3250
222.4615, 432.1083
222.9436, 434.6617
223.4257, 428.3007
223.9078, 421.0976
224.3899, 414.6365
224.8721, 408.8142
225.3542, 404.1270
225.8363, 401.4203
226.3184, 399.0105
226.8005, 394.7243
227.2827, 387.7012
227.7648, 380.4525
228.2469, 373.3325
228.7290, 366.2085
229.2111, 360.4297
229.6932, 356.2790
230.1754, 353.3103
230.6575, 351.0602
231.1396, 350.1714
231.6217, 348.8686
232.1038, 346.4215
232.5859, 342.4149
233.0681, 339.6245
233.5502, 338.8917
234.0323, 338.7796
234.5144, 336.9455
234.9965, 331.7821
235.4786, 327.6600
235.9608, 326.2454
236.4429, 328.3847
236.9250, 329.3374
237.4071, 328.7096
237.8892, 327.1277
238.3713, 325.3880
238.8535, 322.7077
239.3356, 321.1966
239.8177, 321.7859
240.2998, 325.1779
240.7819, 327.9798
241.2640, 330.0297
241.7462, 331.6289
242.2283, 333.2638
242.7104, 334.7829
243.1925, 336.5578
243.6746, 338.2694
244.1567, 338.8929
244.6389, 343.4538
245.1210, 354.3139
245.6031, 367.6828
246.0852, 376.6035
246.5673, 379.0140
247.0494, 380.4460
247.5316, 382.2091
248.0137, 383.2277
248.4958, 388.6098
248.9779, 400.3802
249.4600, 415.3596
249.9421, 427.4619
250.4243, 436.1248
250.9064, 443.0246
251.3885, 447.5620
251.8706, 446.9045
252.3527, 454.2894
252.8348, 473.8135
253.3170, 498.7904
253.7991, 515.8637
254.2812, 520.8278
254.7633, 525.6266
255.2454, 535.3525
255.7275, 552.1867
256.2097, 565.4357
256.6918, 574.0915
257.1739, 579.7107
257.6560, 584.6313
258.1381, 587.3311
258.6202, 592.5815
259.1024, 603.9851
259.5845, 624.8895
260.0666, 636.9420
260.5487, 636.7173
261.0308, 630.2060
261.5129, 628.8767
261.9951, 635.2579
262.4772, 640.7866
262.9593, 641.3046
263.4414, 635.0609
263.9235, 632.7170
264.4056, 636.3643
264.8878, 641.9351
265.3699, 642.2802
265.8520, 636.4055
266.3341, 628.1082
266.8162, 617.6801
267.2983, 604.2924
267.7805, 595.2131
268.2626, 592.2246
268.7447, 591.6536
269.2268, 587.2799
269.7089, 578.5960
270.1910, 567.9352
270.6732, 555.1207
271.1553, 539.6931
271.6374, 527.5134
272.1195, 519.3047
272.6016, 513.2641
273.0837, 507.1433
273.5659, 501.0775
274.0480, 494.1464
274.5301, 486.0410
275.0122, 476.8006
275.4943, 465.3006
275.9764, 450.2703
276.4586, 435.3723
276.9407, 426.7122
277.4228, 425.0117
277.9049, 424.1186
278.3870, 421.8732
278.8691, 418.3301
279.3513, 415.2849
279.8334, 413.4413
280.3155, 410.2842
280.7976, 401.1505
281.2798, 385.8250
281.7619, 371.3881
282.2440, 360.3663
282.7261, 352.5296
283.2082, 346.5129
283.6903, 342.6076
284.1725, 339.4504
284.6546, 335.6138
285.1367, 331.1285
285.6188, 325.8774
286.1009, 319.3656
286.5830, 312.0145
287.0652, 305.3203
287.5473, 299.2285
288.0294, 294.4758
288.5115, 292.6313
288.9936, 293.3401
289.4757, 293.7310
289.9579, 292.7475
290.4400, 290.7821
290.9221, 288.8830
291.4042, 287.0677
291.8863, 285.0990
292.3684, 282.5160
292.8506, 279.5028
293.3327, 276.8195
293.8148, 274.7311
294.2969, 273.0862
294.7790, 271.9826
295.2611, 271.4147
295.7433, 270.0464
296.2254, 265.2067
296.7075, 258.4294
297.1896, 254.3541
297.6717, 255.6900
298.1538, 259.1020
298.6360, 259.2761
299.1181, 256.4646
299.6002, 253.6346
300.0823, 253.7406
300.5644, 255.3488
301.0465, 255.6454
301.5287, 253.2766
302.0108, 250.0778
302.4929, 248.1633
302.9750, 247.3299
303.4571, 246.5227
303.9392, 244.8391
304.4214, 242.7998
304.9035, 240.9962
305.3856, 239.3866
305.8677, 238.4141
306.3498, 239.1066
306.8319, 240.9700
307.3141, 242.2716
307.7962, 241.3565
308.2783, 239.6641
308.7604, 238.6278
309.2425, 238.7619
309.7246, 239.1351
310.2068, 239.3047
310.6889, 239.2681
311.1710, 239.0252
311.6531, 239.2103
312.1352, 238.8025
312.6173, 236.3773
313.0995, 230.3715
313.5816, 226.3616
314.0637, 229.8022
314.5458, 236.8806
315.0279, 240.4500
315.5100, 235.3329
315.9922, 227.8246
316.4743, 220.3352
316.9564, 212.3088
317.4385, 207.7932
317.9206, 211.0739
318.4027, 217.9972
318.8849, 222.7578
319.3670, 221.4442
319.8491, 219.7750
320.3312, 220.4296
320.8133, 224.3062
321.2954, 226.1788
321.7776, 223.0048
322.2597, 218.1278
322.7418, 215.1115
323.2239, 217.0730
323.7060, 218.3404
324.1881, 217.1974
324.6703, 213.3535
325.1524, 210.1899
325.6345, 208.0576
326.1166, 206.6644
326.5987, 205.7696
327.0808, 206.3998
327.5630, 206.2940
328.0451, 204.2998
328.5272, 200.6106
329.0093, 199.5949
329.4914, 203.5960
329.9735, 208.1588
330.4557, 210.2676
330.9378, 207.9468
331.4199, 206.6961
331.9020, 207.7629
332.3841, 210.3628
332.8662, 210.3042
333.3484, 205.5783
333.8305, 201.2416
334.3126, 200.4741
334.7947, 204.9912
335.2768, 207.7879
335.7589, 208.2696
336.2411, 206.9740
336.7232, 204.8292
337.2053, 201.2167
337.6874, 198.6131
338.1695, 198.5257
338.6516, 201.2910
339.1338, 203.8763
339.6159, 206.5884
340.0980, 208.5060
340.5801, 206.9109
341.0622, 201.1830
341.5443, 197.6189
342.0265, 200.6268
342.5086, 209.0811
342.9907, 211.7777
343.4728, 207.6917
343.9549, 201.7731
344.4370, 200.2789
344.9192, 202.7999
345.4013, 205.4706
345.8834, 207.0960
346.3655, 207.8378
346.8476, 207.8496
347.3297, 207.1128
347.8119, 206.2210
348.2940, 206.0190
348.7761, 206.1493
349.2582, 205.4408
349.7403, 202.8646
350.2225, 199.9962
350.7046, 199.3431
351.1867, 200.6699
351.6688, 202.2050
352.1509, 202.2678
352.6331, 201.8271
353.1152, 202.6600
353.5973, 206.1978
354.0794, 209.1423
354.5615, 207.4003
355.0436, 202.3953
355.5258, 198.4600
356.0079, 199.4055
356.4900, 201.6690
356.9721, 201.9270
357.4542, 199.0725
357.9363, 196.2386
358.4185, 195.9551
358.9006, 196.7997
359.3827, 196.3117
359.8648, 191.4039
360.3469, 186.6029
360.8290, 184.2683
361.3112, 184.7869
361.7933, 186.4365
362.2754, 190.3409
362.7575, 194.4714
363.2396, 196.6316
363.7217, 194.5584
364.2039, 192.2038
364.6860, 190.1077
365.1681, 188.2941
365.6502, 187.9606
366.1323, 193.2354
366.6144, 197.6236
367.0966, 196.5658
367.5787, 180.6246
368.0608, 170.7388
368.5429, 171.1552
369.0250, 179.6013
369.5071, 184.3579
369.9893, 183.2728
370.4714, 181.0058
370.9535, 179.6135
371.4356, 178.9333
371.9177, 179.6776
372.3998, 182.6817
372.8820, 186.7047
373.3641, 189.0968
373.8462, 189.8599
374.3283, 188.9333
374.8104, 185.1426
375.2925, 177.8319
375.7747, 175.9778
376.2568, 181.4411
376.7389, 188.6414
377.2210, 188.7761
377.7031, 181.1857
378.1852, 176.2316
378.6674, 178.5000
379.1495, 185.8586
379.6316, 188.8441
380.1137, 187.0743
380.5958, 184.1649
381.0779, 183.9768
381.5601, 185.7622
382.0422, 185.4867
382.5243, 180.9772
383.0064, 175.6099
383.4885, 175.7333
383.9706, 180.7114
384.4528, 185.8404
384.9349, 188.0692
385.4170, 188.3469
385.8991, 188.1068
386.3812, 187.3451
386.8633, 186.7876
387.3455, 187.6238
387.8276, 189.2064
388.3097, 190.0619
388.7918, 188.8849
389.2739, 187.0295
389.7560, 184.7328
390.2382, 181.7568
390.7203, 181.4829
391.2024, 190.2691
391.6845, 201.2147
392.1666, 206.4542
392.6487, 195.9298
393.1309, 186.1235
393.6130, 184.7477
394.0951, 191.1055
394.5772, 196.1022
395.0593, 195.6850
395.5414, 194.2829
396.0236, 194.6730
396.5057, 200.9181
396.9878, 204.6040
397.4699, 203.9036
397.9520, 199.9214
398.4341, 196.1222
398.9163, 191.7338
399.3984, 188.3344
399.8805, 186.5352
400.3626, 186.6385
400.8447, 187.6078
401.3268, 190.4343
401.8090, 193.3912
402.2911, 193.7584
402.7732, 190.3391
403.2553, 187.4500
403.7374, 186.2994
404.2195, 186.8024
404.7017, 187.4483
405.1838, 188.2408
405.6659, 189.1774
406.1480, 190.9263
406.6301, 193.5482
407.1122, 193.5087
407.5944, 189.2859
408.0765, 182.9414
408.5586, 179.7368
409.0407, 179.5987
409.5228, 179.5848
410.0049, 176.8483
410.4871, 172.7207
410.9692, 171.2543
411.4513, 173.2654
411.9334, 176.3001
412.4155, 178.6425
412.8976, 179.9104
413.3798, 178.9981
413.8619, 172.6281
414.3440, 165.4431
414.8261, 162.8322
415.3082, 164.8852
415.7903, 167.2174
416.2725, 166.7834
416.7546, 165.1099
417.2367, 163.8768
417.7188, 163.1110
418.2009, 163.4741
418.6830, 166.7867
419.1652, 171.9102
419.6473, 174.5357
420.1294, 169.7763
420.6115, 164.7085
421.0937, 163.5196
421.5758, 169.3423
422.0579, 173.5155
422.5400, 174.2694
423.0221, 172.8560
423.5042, 171.3086
423.9864, 168.8942
424.4685, 167.2676
424.9506, 166.8000
425.4327, 167.5331
425.9148, 169.3043
426.3969, 173.9116
426.8791, 177.5123
427.3612, 175.9379
427.8433, 166.7023
428.3254, 160.2842
428.8075, 158.9391
429.2896, 161.1081
429.7718, 161.0644
430.2539, 158.1747
430.7360, 156.3889
431.2181, 159.5322
431.7002, 167.0392
432.1823, 170.0309
432.6645, 167.3046
433.1466, 162.6015
433.6287, 161.0483
434.1108, 162.1107
434.5929, 163.1532
435.0750, 162.8225
435.5572, 161.9087
436.0393, 161.9662
436.5214, 162.9451
437.0035, 163.7865
437.4856, 163.4980
437.9677, 162.6008
438.4499, 161.9376
438.9320, 162.2891
439.4141, 161.9565
439.8962, 158.4436
440.3783, 153.1900
440.8604, 149.8040
441.3426, 150.8617
441.8247, 153.5406
442.3068, 156.8202
442.7889, 161.0616
443.2710, 163.5841
443.7531, 162.7770
444.2353, 160.2313
444.7174, 157.6908
445.1995, 154.1793
445.6816, 152.0565
446.1637, 152.1345
446.6458, 154.2122
447.1280, 156.4444
447.6101, 160.4747
448.0922, 162.8432
448.5743, 161.0078
449.0564, 152.0780
449.5385, 146.6835
450.0207, 145.7578
450.5028, 147.8760
450.9849, 151.3614
451.4670, 156.9564
451.9491, 159.8728
452.4312, 156.6022
452.9134, 148.4064
453.3955, 145.7484
453.8776, 149.2031
454.3597, 154.0826
454.8418, 156.1561
455.3239, 155.8250
455.8061, 154.5644
456.2882, 152.4134
456.7703, 149.9220
457.2524, 147.8536
457.7345, 146.1318
458.2166, 144.3960
458.6988, 140.2488
459.1809, 137.0958
459.6630, 140.3839
460.1451, 151.8514
460.6272, 161.0562
461.1093, 159.2346
461.5915, 151.9493
462.0736, 146.1253
462.5557, 143.6224
463.0378, 143.3852
463.5199, 146.8679
464.0020, 153.2501
464.4842, 156.7426
464.9663, 153.4468
465.4484, 148.9062
465.9305, 146.0281
466.4126, 145.8466
466.8947, 145.6490
467.3769, 145.2113
467.8590, 144.8543
468.3411, 145.1051
468.8232, 146.0625
469.3053, 147.4993
469.7874, 149.7421
470.2696, 152.6711
470.7517, 153.9704
471.2338, 153.4222
471.7159, 151.9206
472.1980, 149.6326
472.6801, 146.6053
473.1623, 145.3143
473.6444, 146.5164
474.1265, 148.7700
474.6086, 149.8333
475.0907, 149.7812
475.5728, 149.0998
476.0550, 147.3283
476.5371, 145.3357
477.0192, 144.7410
477.5013, 145.6073
477.9834, 146.6951
478.4655, 146.8623
478.9477, 146.7372
479.4298, 147.1872
479.9119, 149.2116
480.3940, 150.9406
480.8761, 151.2318
481.3582, 150.4314
481.8404, 149.5217
482.3225, 146.6316
482.8046, 145.5142
483.2867, 149.3115
483.7688, 161.4731
484.2509, 167.4421
484.7331, 161.0994
485.2152, 150.5164
485.6973, 142.8529
486.1794, 138.4188
486.6615, 136.5080
487.1436, 137.8032
487.6258, 141.5696
488.1079, 144.3815
488.5900, 146.0760
489.0721, 147.2109
489.5542, 148.0971
490.0363, 148.7428
490.5185, 148.8254
491.0006, 148.2859
491.4827, 147.3497
491.9648, 146.0570
492.4470, 144.5246
492.9291, 143.4386
493.4112, 143.2043
493.8933, 143.4175
494.3754, 143.7141
494.8575, 144.0217
495.3397, 143.8696
495.8218, 141.7277
496.3039, 139.5517
496.7860, 139.8080
497.2681, 143.4602
497.7502, 147.1370
498.2324, 150.2524
498.7145, 151.9951
499.1966, 151.3174
499.6787, 144.2510
500.1608, 138.3879
500.6429, 136.2308
501.1251, 137.6591
501.6072, 139.9011
502.0893, 145.1167
502.5714, 149.0452
503.0535, 149.3179
503.5356, 143.3804
504.0178, 140.0197
504.4999, 140.2282
504.9820, 142.1489
505.4641, 143.1823
505.9462, 143.3436
506.4283, 142.3493
506.9105, 139.1410
507.3926, 134.9381
507.8747, 135.6051
508.3568, 141.4266
508.8389, 146.9533
509.3210, 147.5955
509.8032, 144.8707
510.2853, 143.1146
510.7674, 143.0878
511.2495, 143.0929
511.7316, 140.5650
512.2137, 136.8163
512.6959, 134.5463
513.1780, 135.8206
513.6601, 138.1356
514.1422, 140.0872
514.6243, 141.6937
515.1064, 143.2346
515.5886, 146.3039
516.0707, 148.3020
516.5528, 147.2537
517.0349, 140.5639
517.5170, 135.7337
517.9991, 134.2349
518.4813, 134.7076
518.9634, 135.5999
519.4455, 137.2527
519.9276, 138.7254
520.4097, 139.7251
520.8918, 140.3514
521.3740, 141.8000
521.8561, 144.7230
522.3382, 146.3084
522.8203, 143.3946
523.3024, 136.4341
523.7845, 133.4266
524.2667, 135.4993
524.7488, 138.8713
525.2309, 138.5152
525.7130, 135.4756
526.1951, 133.3927
526.6772, 133.7408
527.1594, 135.4382
527.6415, 138.0146
528.1236, 141.0988
528.6057, 143.1044
529.0878, 142.8114
529.5699, 141.2708
530.0521, 138.9824
530.5342, 135.7021
531.0163, 133.0167
531.4984, 130.8564
531.9805, 129.7668
532.4626, 130.3081
532.9448, 136.4263
533.4269, 139.4103
533.9090, 135.8253
534.3911, 128.1311
534.8732, 126.5593
535.3553, 134.5415
535.8375, 142.2220
536.3196, 145.0351
536.8017, 142.7730
537.2838, 140.8203
537.7659, 139.1612
538.2480, 137.8053
538.7302, 137.0090
539.2123, 136.6349
539.6944, 135.5403
540.1765, 132.8752
540.6586, 130.4888
541.1407, 131.8923
541.6229, 136.0230
542.1050, 139.0792
542.5871, 137.7831
543.0692, 135.3118
543.5513, 134.2460
544.0334, 134.7412
544.5156, 136.3545
544.9977, 141.5307
545.4798, 146.2164
545.9619, 146.9881
546.4440, 139.7945
546.9261, 133.7508
547.4083, 130.1146
547.8904, 128.4007
548.3725, 127.7970
548.8546, 128.6006
549.3367, 130.0677
549.8188, 132.4023
550.3010, 135.4354
550.7831, 136.9696
551.2652, 136.6093
551.7473, 136.0702
552.2294, 137.1279
552.7115, 139.4720
553.1937, 139.3797
553.6758, 136.0239
554.1579, 132.4447
554.6400, 133.2661
555.1221, 137.0155
555.6042, 139.3671
556.0864, 137.2677
556.5685, 134.6659
557.0506, 136.4669
557.5327, 141.3185
558.0148, 144.1533
558.4969, 140.1101
558.9791, 135.0840
559.4612, 132.7672
559.9433, 134.0110
560.4254, 135.5470
560.9075, 138.0329
561.3896, 139.8344
561.8718, 139.4605
562.3539, 134.7067
562.8360, 131.5200
563.3181, 130.5501
563.8002, 131.3287
564.2823, 133.1024
564.7645, 136.2155
565.2466, 138.7266
565.7287, 139.9600
566.2108, 139.9614
566.6929, 138.2925
567.1750, 134.8700
567.6572, 131.9701
568.1393, 131.6361
568.6214, 133.2121
569.1035, 135.9019
569.5856, 140.1195
570.0677, 143.3001
570.5499, 141.9588
571.0320, 138.4862
571.5141, 136.6587
571.9962, 139.2427
572.4783, 142.3535
572.9604, 145.1240
573.4426, 147.3161
573.9247, 147.9155
574.4068, 144.9805
574.8889, 142.0328
575.3710, 140.7493
575.8531, 141.8459
576.3353, 140.6310
576.8174, 135.6756
577.2995, 130.5459
577.7816, 128.4323
578.2637, 129.4492
578.7458, 133.0965
579.2280, 140.4251
579.7101, 148.2958
580.1922, 150.4280
580.6743, 147.6762
581.1564, 144.8670
581.6385, 144.8603
582.1207, 145.7226
582.6028, 144.4979
583.0849, 141.5114
583.5670, 139.2251
584.0491, 139.1542
584.5313, 140.3288
585.0134, 142.6236
585.4955, 147.2119
585.9776, 148.9601
586.4597, 142.7587
586.9418, 134.6271
587.4240, 131.5966
587.9061, 138.0419
588.3882, 143.0515
588.8703, 145.6667
589.3524, 146.0478
589.8345, 143.7982
590.3167, 137.6863
590.7988, 133.7696
591.2809, 136.0391
591.7630, 142.8918
592.2451, 145.4196
592.7272, 143.4584
593.2094, 141.1860
593.6915, 143.4665
594.1736, 147.6276
594.6557, 147.9444
595.1378, 142.6225
595.6199, 137.1653
596.1021, 136.3555
596.5842, 137.8445
597.0663, 138.2837
597.5485, 135.0014
598.0306, 132.1299
598.5127, 130.7701
598.9948, 130.8569
599.4769, 132.0553
599.9590, 135.7176
600.4412, 138.8468
600.9233, 140.8307
601.4054, 141.7895
601.8875, 139.3373
602.3696, 132.1661
602.8517, 124.8336
603.3339, 121.4060
603.8160, 121.6182
604.2981, 122.7781
604.7802, 124.7074
605.2623, 127.0746
605.7444, 129.3552
606.2266, 131.7246
606.7087, 134.6476
607.1908, 140.4545
607.6729, 144.7085
608.1550, 142.4447
608.6371, 135.4749
609.1193, 129.6105
609.6014, 126.1741
610.0835, 125.3035
610.5656, 128.6995
611.0477, 137.5717
611.5298, 141.3535
612.0120, 136.1226
612.4941, 129.3215
612.9762, 125.8268
613.4583, 126.3893
613.9404, 127.7646
614.4225, 130.2484
614.9047, 132.7748
615.3868, 133.5415
615.8689, 132.7049
616.3510, 132.4321
616.8331, 134.1015
617.3152, 135.6857
617.7974, 132.5904
618.2795, 126.2638
618.7616, 122.1591
619.2437, 125.3432
619.7258, 130.3609
620.2079, 133.1376
620.6901, 133.4465
621.1722, 133.8499
621.6543, 135.9386
622.1364, 137.9222
622.6185, 138.4497
623.1006, 136.1895
623.5828, 135.3543
624.0649, 136.5697
624.5470, 138.6364
625.0291, 140.3579
625.5112, 141.8832
625.9933, 142.0038
626.4755, 139.8560
626.9576, 137.0622
627.4397, 138.1745
627.9218, 142.4874
628.4039, 144.6175
628.8860, 139.1914
629.3682, 131.4716
629.8503, 128.8779
630.3324, 130.9100
630.8145, 133.7159
631.2966, 134.3916
631.7787, 135.4706
632.2609, 139.5754
632.7430, 148.6026
633.2251, 154.4260
633.7072, 153.2563
634.1893, 149.5203
634.6714, 146.6681
635.1536, 144.3333
635.6357, 143.9588
636.1178, 146.6101
636.5999, 150.2614
637.0820, 150.5817
637.5641, 147.3861
638.0463, 145.5634
638.5284, 147.7403
639.0105, 151.3398
639.4926, 149.9531
639.9747, 144.6190
640.4568, 141.3690
640.9390, 146.6435
641.4211, 153.8450
641.9032, 156.5122
642.3853, 154.1890
642.8674, 151.7169
643.3495, 149.2395
643.8317, 148.4891
644.3138, 151.1974
644.7959, 162.6215
645.2780, 167.3048
645.7601, 161.5453
646.2422, 152.3043
646.7244, 147.5846
647.2065, 148.0290
647.6886, 150.1075
648.1707, 153.7547
648.6528, 157.9469
649.1349, 160.6714
649.6171, 162.0480
650.0992, 163.0262
650.5813, 163.8556
651.0634, 164.6483
651.5455, 165.6720
652.0276, 166.8473
652.5098, 167.6971
652.9919, 167.5455
653.4740, 167.3182
653.9561, 167.8394
654.4382, 169.4780
654.9203, 170.0399
655.4025, 167.8632
655.8846, 165.6656
656.3667, 165.4925
656.8488, 168.4845
657.3309, 169.9094
657.8130, 169.1392
658.2952, 167.6338
658.7773, 167.2859
659.2594, 168.0540
659.7415, 169.6642
660.2236, 172.6143
660.7057, 175.4249
661.1879, 175.4149
661.6700, 173.4508
662.1521, 171.9446
662.6342, 173.7792
663.1163, 174.9634
663.5984, 172.5355
664.0806, 166.8563
664.5627, 161.3114
665.0448, 155.8860
665.5269, 151.6403
666.0090, 149.0436
666.4911, 148.2306
666.9733, 148.2940
667.4554, 149.4476
667.9375, 151.0543
668.4196, 153.2467
668.9017, 155.9335
669.3839, 155.6559
669.8660, 151.5952
670.3481, 147.0043
670.8302, 145.9637
671.3123, 147.2320
671.7944, 148.1819
672.2766, 148.1345
672.7587, 147.3294
673.2408, 145.5076
673.7229, 143.0903
674.2050, 140.8672
674.6871, 138.1496
675.1693, 136.6548
675.6514, 137.4134
676.1335, 139.9256
676.6156, 141.4763
677.0977, 141.2856
677.5798, 141.9951
678.0620, 146.0134
678.5441, 152.5578
679.0262, 152.2980
679.5083, 144.7980
679.9904, 137.6087
680.4725, 138.1618
680.9547, 142.7211
681.4368, 144.6043
681.9189, 142.8308
682.4010, 140.3109
682.8831, 138.1793
683.3652, 136.6971
683.8474, 136.2476
684.3295, 138.1851
684.8116, 139.1326
685.2937, 137.1990
685.7758, 134.6439
686.2579, 134.7487
686.7401, 139.0526
687.2222, 141.7660
687.7043, 141.6838
688.1864, 139.5641
688.6685, 136.3286
689.1506, 132.1473
689.6328, 129.8198
690.1149, 132.1558
690.5970, 136.0422
691.0791, 136.7300
691.5612, 134.6695
692.0433, 132.1756
692.5255, 129.5570
693.0076, 127.6130
693.4897, 127.1941
693.9718, 128.5243
694.4539, 129.1964
694.9360, 127.1617
695.4182, 125.9989
695.9003, 128.4590
696.3824, 136.5298
696.8645, 138.8428
697.3466, 133.7682
697.8287, 127.2124
698.3109, 125.8241
698.7930, 128.7047
699.2751, 131.0789
699.7572, 132.0050
700.2393, 132.6258
700.7214, 134.3098
701.2036, 136.4623
701.6857, 138.1156
702.1678, 139.9018
702.6499, 139.9897
703.1320, 136.1422
703.6141, 130.1196
704.0963, 126.3526
704.5784, 125.6397
705.0605, 126.2729
705.5426, 128.4527
706.0247, 131.6700
706.5068, 133.7206
706.9890, 134.6105
707.4711, 134.3987
707.9532, 132.6308
708.4353, 129.8844
708.9174, 127.1158
709.3995, 124.4589
709.8817, 123.4073
710.3638, 126.1793
710.8459, 130.2528
711.3280, 134.0541
711.8101, 137.6965
712.2922, 138.5749
712.7744, 132.8257
713.2565, 126.3757
713.7386, 123.1702
714.2207, 124.3016
714.7028, 125.9400
715.1849, 128.1704
715.6671, 130.7902
716.1492, 134.1527
716.6313, 138.0602
717.1134, 140.1626
717.5955, 139.5956
718.0776, 138.5548
718.5598, 140.9857
719.0419, 144.7287
719.5240, 145.5122
720.0061, 139.1410
720.4882, 132.7513
720.9703, 128.9454
721.4525, 127.5198
721.9346, 128.0128
722.4167, 132.6871
722.8988, 136.2309
723.3809, 137.4120
723.8630, 136.7559
724.3452, 136.0612
724.8273, 135.1837
725.3094, 135.3575
725.7915, 138.2801
726.2736, 142.2731
726.7557, 142.2767
727.2379, 138.7849
727.7200, 135.6870
728.2021, 136.1894
728.6842, 137.6667
729.1663, 137.8161
729.6484, 136.3978
730.1306, 135.4589
730.6127, 137.3477
731.0948, 138.3502
731.5769, 135.9121
732.0590, 128.3507
732.5411, 124.5164
733.0233, 125.1865
733.5054, 127.8402
733.9875, 131.2381
734.4696, 134.9824
734.9517, 135.2918
735.4338, 131.1837
735.9160, 127.0945
736.3981, 128.5292
736.8802, 132.5791
737.3623, 134.8992
737.8444, 133.6509
738.3266, 131.8541
738.8087, 130.1601
739.2908, 128.7629
739.7729, 127.9890
740.2551, 128.1291
740.7372, 128.3582
741.2193, 128.6878
741.7014, 128.9697
742.1835, 128.8155
742.6656, 128.2202
743.1478, 127.6738
743.6299, 127.3203
744.1120, 127.1116
744.5941, 126.5533
745.0762, 126.0147
745.5583, 126.6287
746.0405, 131.2814
746.5226, 135.0712
747.0047, 134.7129
747.4868, 130.8301
747.9689, 127.2010
748.4510, 123.0239
748.9332, 120.9084
749.4153, 122.7835
749.8974, 128.0323
750.3795, 128.4248
750.8616, 123.1634
751.3438, 119.2108
751.8259, 123.2145
752.3080, 131.2988
752.7901, 134.1301
753.2722, 131.6475
753.7543, 127.5490
754.2365, 121.2430
754.7186, 116.4468
755.2007, 117.2229
755.6828, 125.2764
756.1649, 131.2042
756.6470, 132.9740
757.1292, 132.6474
757.6113, 130.8954
758.0934, 126.9173
758.5755, 125.5507
759.0576, 127.4678
759.5397, 129.7127
760.0219, 128.4257
760.5040, 124.8957
760.9861, 123.7741
761.4682, 126.3432
761.9503, 128.2861
762.4324, 123.3991
762.9146, 117.1508
763.3967, 116.3507
763.8788, 128.7353
764.3609, 136.6665
764.8430, 133.6935
765.3251, 126.8293
765.8073, 124.0367
766.2894, 126.5778
766.7715, 128.3103
767.2536, 128.4545
767.7357, 127.3214
768.2178, 124.9672
768.7000, 121.6665
769.1821, 118.4592
769.6642, 114.8469
770.1463, 112.7563
770.6284, 115.0216
771.1105, 119.8525
771.5927, 123.7878
772.0748, 125.2641
772.5569, 126.3051
773.0390, 127.4254
773.5211, 128.4404
774.0032, 128.6919
774.4854, 127.8630
774.9675, 127.5270
775.4496, 128.4425
775.9317, 129.8990
776.4138, 130.4792
776.8959, 130.1016
777.3781, 128.3544
777.8602, 122.4435
778.3423, 117.1502
778.8244, 117.4030
779.3065, 122.0095
779.7886, 125.7656
780.2708, 127.3380
780.7529, 127.4642
781.2350, 125.9823
781.7171, 123.1430
782.1992, 121.5768
782.6813, 121.7948
783.1635, 121.2627
783.6456, 117.3251
784.1277, 111.8540
784.6098, 111.5302
785.0919, 115.9526
785.5740, 121.0272
786.0562, 125.0935
786.5383, 128.0162
787.0204, 129.9651
787.5025, 130.9437
787.9846, 129.5684
788.4667, 120.9871
788.9489, 114.4577
789.4310, 115.0345
789.9131, 123.3535
790.3952, 125.9994
790.8773, 121.9083
791.3594, 117.0074
791.8416, 116.2048
792.3237, 117.9502
792.8058, 117.6496
793.2879, 115.1260
793.7700, 113.6024
794.2521, 116.5171
794.7343, 120.5668
795.2164, 123.3090
795.6985, 124.5918
796.1806, 123.7293
796.6627, 118.6417
797.1448, 113.7343
797.6270, 112.2624
798.1091, 114.8546
798.5912, 115.5232
799.0733, 113.9054
799.5554, 112.1368
800.0375, 112.3747
800.5197, 113.9183
801.0018, 115.6765
801.4839, 117.5884
801.9660, 118.8708
802.4481, 119.0881
802.9302, 118.4439
803.4124, 116.8267
803.8945, 112.5246
804.3766, 111.5003
804.8587, 115.9604
805.3408, 120.7866
805.8229, 120.8508
806.3051, 116.1875
806.7872, 111.5814
807.2693, 107.0297
807.7514, 105.0353
808.2335, 111.1377
808.7156, 120.4103
809.1978, 125.0183
809.6799, 122.1209
810.1620, 118.6188
810.6441, 116.5670
811.1262, 115.7301
811.6083, 116.0702
812.0905, 118.9675
812.5726, 119.5097
813.0547, 116.7074
813.5368, 113.2641
814.0189, 112.7184
814.5010, 114.5273
814.9832, 115.3284
815.4653, 114.3613
815.9474, 113.4188
816.4295, 115.5590
816.9116, 118.1083
817.3937, 117.3735
817.8759, 109.6911
818.3580, 104.1691
818.8401, 103.7707
819.3222, 105.6678
819.8043, 107.3619
820.2864, 108.6525
820.7686, 111.0879
821.2507, 115.3822
821.7328, 119.0353
822.2149, 117.2080
822.6970, 112.2432
823.1791, 110.5663
823.6613, 114.7818
824.1434, 118.6045
824.6255, 116.5090
825.1076, 112.3449
825.5897, 110.4245
826.0718, 114.6793
826.5540, 116.5421
827.0361, 115.1113
827.5182, 112.3236
828.0003, 110.2520
828.4824, 108.9100
828.9645, 108.1133
829.4467, 107.8579
829.9288, 108.0855
830.4109, 109.7287
830.8930, 111.4920
831.3751, 111.0027
831.8572, 105.9591
832.3394, 102.5235
832.8215, 103.8434
833.3036, 107.3384
833.7857, 110.2354
834.2678, 112.8230
834.7499, 113.6826
835.2321, 112.2812
835.7142, 110.1516
836.1963, 108.6385
836.6784, 107.9519
837.1605, 109.5064
837.6426, 114.2332
838.1248, 118.1073
838.6069, 116.6442
839.0890, 113.2607
839.5711, 111.8789
840.0532, 115.5505
840.5353, 116.9604
841.0175, 114.2115
841.4996, 110.6107
841.9817, 109.6143
842.4638, 111.3104
842.9459, 113.2994
843.4280, 115.4662
843.9102, 117.3328
844.3923, 118.4064
844.8744, 118.8187
845.3565, 118.6390
845.8386, 117.6643
846.3207, 116.9369
846.8029, 117.4237
847.2850, 117.9855
847.7671, 117.6285
848.2492, 116.1004
848.7313, 114.1535
849.2134, 111.4991
849.6956, 109.2004
850.1777, 108.1669
850.6598, 108.3510
851.1419, 110.1795
851.6240, 113.9625
852.1061, 116.7152
852.5883, 114.6718
853.0704, 111.4863
853.5525, 110.7917
854.0346, 114.4698
854.5167, 116.3841
854.9988, 115.2149
855.4810, 113.5066
855.9631, 113.2673
856.4452, 114.5334
856.9273, 114.5428
857.4094, 113.1581
857.8915, 111.5436
858.3737, 111.1390
858.8558, 110.9138
859.3379, 108.6690
859.8200, 103.8648
860.3021, 101.9237
860.7842, 108.9153
861.2664, 115.8607
861.7485, 117.1563
862.2306, 111.9927
862.7127, 109.6302
863.1948, 110.4408
863.6769, 112.3340
864.1591, 115.0141
864.6412, 117.3989
865.1233, 115.8322
865.6054, 110.6088
866.0875, 107.0118
866.5696, 110.0105
867.0518, 114.0936
867.5339, 116.0910
868.0160, 115.6670
868.4981, 113.4953
868.9802, 107.8066
869.4623, 104.1874
869.9445, 106.4467
870.4266, 112.8791
870.9087, 115.3556
871.3908, 114.1964
871.8729, 112.5273
872.3550, 112.0686
872.8372, 112.0627
873.3193, 111.7346
873.8014, 111.2199
874.2835, 111.3920
874.7656, 113.6312
875.2477, 115.1196
875.7299, 114.8153
876.2120, 113.2966
876.6941, 112.9213
877.1762, 113.6864
877.6583, 114.3789
878.1404, 114.3064
878.6226, 114.0529
879.1047, 115.3884
879.5869, 117.1760
880.0690, 116.5299
880.5511, 106.9206
881.0332, 101.0613
881.5153, 105.5725
881.9974, 115.2731
882.4796, 119.7123
882.9617, 118.0053
883.4438, 115.8174
883.9259, 114.0691
884.4080, 113.3012
884.8901, 114.7572
885.3723, 117.8561
885.8544, 121.4870
886.3365, 127.1451
886.8186, 130.1173
887.3007, 125.4280
887.7828, 117.9768
888.2650, 114.8223
888.7471, 118.1455
889.2292, 120.2579
889.7113, 120.4975
890.1934, 119.4674
890.6755, 116.9009
891.1577, 113.6975
891.6398, 113.1389
892.1219, 116.4405
892.6040, 119.2774
893.0861, 116.6985
893.5682, 113.3532
894.0504, 114.2806
894.5325, 124.1150
895.0146, 127.4768
895.4967, 121.8759
895.9788, 114.4134
896.4609, 110.8418
896.9431, 110.6831
897.4252, 111.7768
897.9073, 114.0391
898.3894, 115.3276
898.8715, 112.1006
899.3536, 108.5934
899.8358, 108.9390
900.3179, 113.8939
900.8000, 117.7687
901.2821, 121.0250
901.7642, 121.5044
902.2463, 116.6689
902.7285, 107.8278
903.2106, 104.9964
903.6927, 108.0119
904.1748, 111.9748
904.6569, 115.1144
905.1390, 116.8525
905.6212, 115.4953
906.1033, 111.9446
906.5854, 110.0049
907.0675, 112.1156
907.5496, 114.3775
908.0317, 115.8789
908.5139, 116.8832
908.9960, 118.8342
909.4781, 121.7307
909.9602, 121.8456
910.4423, 115.7863
910.9244, 109.7134
911.4066, 113.0699
911.8887, 121.4592
912.3708, 126.8312
912.8529, 124.3938
913.3350, 121.2016
913.8171, 117.9930
914.2993, 115.0878
914.7814, 112.9134
915.2635, 111.4771
915.7456, 110.5940
916.2277, 110.1515
916.7098, 110.6406
917.1920, 113.6056
917.6741, 117.4855
918.1562, 119.8716
918.6383, 119.8789
919.1204, 119.7391
919.6025, 121.2467
920.0847, 121.8536
920.5668, 119.3079
921.0489, 112.7918
921.5310, 108.8893
922.0131, 107.7000
922.4952, 108.3145
922.9774, 111.0199
923.4595, 114.5765
923.9416, 117.6145
924.4237, 119.9347
924.9058, 120.5152
925.3879, 116.6736
925.8701, 113.3441
926.3522, 112.5175
926.8343, 113.9954
927.3164, 116.9978
927.7985, 122.0068
928.2806, 124.0636
928.7628, 118.4904
929.2449, 110.9187
929.7270, 110.8721
930.2091, 116.1385
930.6912, 120.7256
931.1733, 122.5186
931.6555, 122.8275
932.1376, 121.0084
932.6197, 118.3697
933.1018, 117.4333
933.5839, 118.6458
934.0660, 117.8716
934.5482, 113.8933
935.0303, 109.1517
935.5124, 105.3026
935.9945, 103.2869
936.4766, 105.7255
936.9587, 116.4556
937.4409, 122.6346
937.9230, 115.3845
938.4051, 105.5879
938.8872, 101.5058
939.3693, 104.0003
939.8514, 107.6992
940.3336, 112.8813
940.8157, 116.7955
941.2978, 115.6931
941.7799, 112.6233
942.2620, 112.3180
942.7441, 114.9029
943.2263, 117.0851
943.7084, 117.9513
944.1905, 117.6475
944.6726, 115.8100
945.1547, 112.8294
945.6368, 111.1761
946.1190, 110.8804
946.6011, 111.2092
947.0832, 111.9368
947.5653, 112.9990
948.0474, 114.7265
948.5295, 116.7053
949.0117, 117.9721
949.4938, 117.6206
949.9759, 117.2325
950.4580, 117.0603
950.9401, 117.0510
951.4222, 117.3088
951.9044, 117.8525
952.3865, 117.4075
952.8686, 115.4993
953.3507, 113.8780
953.8328, 114.8156
954.3149, 116.9575
954.7971, 118.8055
955.2792, 120.3026
955.7613, 120.4608
956.2434, 118.9607
956.7255, 116.3332
957.2076, 111.7971
957.6898, 105.5273
958.1719, 105.3342
958.6540, 111.1192
959.1361, 116.2878
959.6182, 114.7537
960.1003, 111.7780
960.5825, 112.8321
961.0646, 117.1934
961.5467, 119.5356
962.0288, 117.2346
962.5109, 115.4245
962.9930, 115.6744
963.4752, 116.8514
963.9573, 115.5225
964.4394, 112.2581
964.9215, 110.6594
965.4036, 112.6236
965.8857, 115.1926
966.3679, 116.3496
966.8500, 116.5261
967.3321, 116.2523
967.8142, 115.1632
968.2963, 114.3827
968.7784, 113.7665
969.2606, 113.7731
969.7427, 115.4543
970.2248, 118.1700
970.7069, 119.6591
971.1890, 119.7505
971.6711, 118.9132
972.1533, 116.4969
972.6354, 114.0501
973.1175, 113.0083
973.5996, 113.3362
974.0817, 111.7992
974.5638, 107.2607
975.0460, 104.9918
975.5281, 107.9806
976.0102, 113.8729
976.4923, 118.7792
976.9744, 122.4193
977.4565, 123.9720
977.9387, 121.5869
978.4208, 118.7990
978.9029, 115.0992
979.3850, 112.5861
979.8671, 115.1101
980.3492, 124.1674
980.8314, 129.3244
981.3135, 129.2314
981.7956, 126.1010
982.2777, 120.0721
982.7598, 113.6027
983.2419, 110.7603
983.7241, 112.6319
984.2062, 113.8829
984.6883, 112.5498
985.1704, 110.5310
985.6525, 107.9055
986.1346, 105.0302
986.6168, 106.7693
987.0989, 112.9504
987.5810, 118.1712
988.0631, 119.1632
988.5452, 117.9122
989.0273, 114.6297
989.5095, 110.6417
989.9916, 109.4588
990.4737, 115.1355
990.9558, 118.0296
991.4379, 115.6454
991.9200, 111.9659
992.4022, 114.3831
992.8843, 121.1687
993.3664, 124.4689
993.8485, 122.3053
994.3306, 119.8155
994.8127, 121.7151
995.2949, 124.0432
995.7770, 122.4545
996.2591, 115.7051
996.7412, 113.6533
997.2233, 117.4816
997.7054, 121.7694
998.1876, 124.3280
998.6697, 124.5922
999.1518, 119.0833
999.6339, 109.6577
1000.116, 103.6486
1000.598, 107.3456
1001.080, 111.5050
1001.562, 112.6384
1002.044, 112.3582
1002.527, 113.6891
1003.009, 116.7473
1003.491, 119.6015
1003.973, 121.8474
1004.455, 123.8404
1004.937, 126.9466
1005.419, 129.5106
1005.901, 128.8181
1006.384, 123.1601
1006.866, 119.7241
1007.348, 120.6914
1007.830, 121.8719
1008.312, 120.2901
1008.794, 116.8063
1009.276, 117.2808
1009.758, 121.2101
1010.240, 124.4011
1010.723, 124.4380
1011.205, 122.9330
1011.687, 120.0994
1012.169, 116.5574
1012.651, 113.7238
1013.133, 111.1304
1013.615, 110.8970
1014.097, 113.8678
1014.580, 117.8885
1015.062, 120.6429
1015.544, 122.0643
1016.026, 121.5277
1016.508, 118.4423
1016.990, 116.2741
1017.472, 117.4716
1017.954, 119.0026
1018.436, 118.7963
1018.919, 117.0161
1019.401, 117.8791
1019.883, 121.3947
1020.365, 124.0868
1020.847, 123.4550
1021.329, 121.4569
1021.811, 119.5744
1022.293, 117.8928
1022.776, 116.5554
1023.258, 114.9585
1023.740, 114.8323
1024.222, 116.6018
1024.704, 119.4840
1025.186, 122.8690
1025.668, 126.4669
1026.150, 129.6479
1026.632, 132.4951
1027.115, 132.8077
1027.597, 126.5585
1028.079, 119.5914
1028.561, 116.0496
1029.043, 115.7974
1029.525, 114.4653
1030.007, 111.6707
1030.489, 111.2462
1030.972, 116.4044
1031.454, 123.2793
1031.936, 127.4927
1032.418, 129.1895
1032.900, 128.6496
1033.382, 123.7523
1033.864, 119.5128
1034.346, 115.5256
1034.828, 113.5233
1035.311, 117.2046
1035.793, 125.2847
1036.275, 128.6805
1036.757, 126.6722
1037.239, 123.2064
1037.721, 119.1835
1038.203, 116.3387
1038.685, 116.3666
1039.167, 119.0364
1039.650, 122.0302
1040.132, 125.8311
1040.614, 127.4733
1041.096, 124.9752
1041.578, 121.4335
1042.060, 122.1072
1042.542, 125.3159
1043.024, 127.9743
1043.507, 129.1853
1043.989, 129.7013
1044.471, 129.7129
1044.953, 129.0728
1045.435, 127.4193
1045.917, 124.8602
1046.399, 122.6301
1046.881, 120.7672
1047.364, 119.3465
1047.846, 119.2067
1048.328, 118.7983
1048.810, 115.8681
1049.292, 111.6321
1049.774, 111.3009
1050.256, 116.1361
1050.738, 120.6284
1051.220, 123.8254
1051.703, 125.8691
1052.185, 125.9769
1052.667, 125.3339
1053.149, 126.3425
1053.631, 130.1653
1054.113, 132.2883
1054.595, 130.6558
1055.077, 127.9525
1055.559, 124.9254
1056.042, 121.8974
1056.524, 121.9944
1057.006, 124.6675
1057.488, 125.4291
1057.970, 119.0383
1058.452, 112.8551
1058.934, 112.2207
1059.416, 114.7391
1059.899, 115.5232
1060.381, 113.3466
1060.863, 113.9321
1061.345, 118.4826
1061.827, 122.6741
1062.309, 121.0220
1062.791, 116.6784
1063.273, 114.2481
1063.755, 114.1013
1064.238, 114.3701
1064.720, 114.6885
1065.202, 115.1717
1065.684, 115.8444
1066.166, 116.7084
1066.648, 118.2904
1067.130, 120.1835
1067.612, 120.4349
1068.094, 117.6743
1068.577, 114.9300
1069.059, 114.3156
1069.541, 114.3861
1070.023, 113.5000
1070.505, 111.1707
1070.987, 110.5495
1071.469, 111.6537
1071.951, 114.1603
1072.434, 119.6938
1072.916, 125.1784
1073.398, 127.4145
1073.880, 126.5351
1074.362, 123.1346
1074.844, 112.8227
1075.326, 107.8035
1075.808, 110.7706
1076.291, 117.3746
1076.773, 123.0046
1077.255, 127.1702
1077.737, 127.7043
1078.219, 124.1399
1078.701, 120.3920
1079.183, 116.9142
1079.665, 115.5125
1080.147, 117.7891
1080.630, 122.8063
1081.112, 124.8705
1081.594, 124.0628
1082.076, 122.8002
1082.558, 121.6883
1083.040, 121.0457
1083.522, 121.9465
1084.004, 123.1376
1084.486, 122.8516
1084.969, 120.4819
1085.451, 117.4308
1085.933, 113.0019
1086.415, 110.6022
1086.897, 115.6667
1087.379, 123.0957
1087.861, 122.6983
1088.343, 116.1819
1088.826, 111.5389
1089.308, 113.4231
1089.790, 115.1360
1090.272, 115.1973
1090.754, 114.8474
1091.236, 116.3112
1091.718, 119.1363
1092.200, 121.6638
1092.682, 123.7522
1093.165, 123.7823
1093.647, 117.5566
1094.129, 111.8945
1094.611, 112.1275
1095.093, 117.0736
1095.575, 117.6913
1096.057, 113.7614
1096.539, 110.9713
1097.022, 111.6806
1097.504, 113.9480
1097.986, 116.5848
1098.468, 119.2129
1098.950, 121.4993
1099.432, 124.6188
1099.914, 123.2468
1100.396, 115.7524
1100.879, 109.1377
1101.361, 109.8106
1101.843, 114.2461
1102.325, 115.9750
1102.807, 115.3738
1103.289, 114.1081
1103.771, 111.4568
1104.253, 110.0415
1104.735, 110.3341
1105.218, 111.8748
1105.700, 115.2446
1106.182, 119.5181
1106.664, 119.2811
1107.146, 113.8667
1107.628, 108.9229
1108.110, 107.7160
1108.592, 108.1498
1109.074, 109.6215
1109.557, 111.7000
1110.039, 112.6614
1110.521, 112.4969
1111.003, 112.6352
1111.485, 113.8537
1111.967, 114.4034
1112.449, 110.9960
1112.931, 106.9555
1113.414, 106.2307
1113.896, 109.9814
1114.378, 113.1612
1114.860, 115.9348
1115.342, 117.4005
1115.824, 116.6908
1116.306, 114.6709
1116.788, 111.8796
1117.271, 108.9669
1117.753, 107.3507
1118.235, 108.3706
1118.717, 109.6651
1119.199, 111.6912
1119.681, 112.8056
1120.163, 109.9829
1120.645, 105.1465
1121.127, 104.5883
1121.609, 108.1381
1122.092, 111.4429
1122.574, 111.8830
1123.056, 112.3029
1123.538, 114.4629
1124.020, 116.6014
1124.502, 113.8066
1124.984, 107.0080
1125.466, 104.9913
1125.949, 109.9734
1126.431, 114.3959
1126.913, 111.3655
1127.395, 107.1941
1127.877, 106.8300
1128.359, 109.7492
1128.841, 111.3558
1129.323, 111.6108
1129.806, 111.2509
1130.288, 110.4985
1130.770, 109.3517
1131.252, 107.0523
1131.734, 104.7148
1132.216, 104.0189
1132.698, 105.7988
1133.180, 106.6292
1133.662, 106.2774
1134.145, 105.9345
1134.627, 106.2182
1135.109, 107.0748
1135.591, 109.2990
1136.073, 111.9851
1136.555, 112.7817
1137.037, 106.6213
1137.519, 105.9409
1138.001, 113.6895
1138.484, 122.2871
1138.966, 123.1207
1139.448, 118.8509
1139.930, 116.0985
1140.412, 114.8848
1140.894, 112.0960
1141.376, 102.3937
1141.858, 96.23423
1142.341, 96.83998
1142.823, 101.6366
1143.305, 107.1667
1143.787, 112.8953
1144.269, 116.6024
1144.751, 117.9167
1145.233, 117.2082
1145.715, 112.8117
1146.198, 108.2929
1146.680, 105.4682
1147.162, 104.1348
1147.644, 103.6855
1148.126, 104.0574
1148.608, 104.2968
1149.090, 103.7559
1149.572, 103.9346
1150.054, 108.5109
1150.536, 112.4858
1151.019, 109.7913
1151.501, 99.48903
1151.983, 96.64397
1152.465, 101.5245
1152.947, 106.7550
1153.429, 109.3044
1153.911, 109.3566
1154.393, 104.2695
1154.876, 97.64866
1155.358, 96.34624
1155.840, 102.9858
1156.322, 107.9224
1156.804, 111.0557
1157.286, 112.0782
1157.768, 109.3511
1158.250, 105.3448
1158.733, 102.9540
1159.215, 102.0150
1159.697, 101.5690
1160.179, 102.0727
1160.661, 101.3363
1161.143, 98.37762
1161.625, 96.21384
1162.107, 99.73808
1162.589, 105.7740
1163.072, 108.8815
1163.554, 108.7837
1164.036, 108.4172
1164.518, 108.1603
1165.000, 108.3685
1165.482, 109.4862
1165.964, 110.5385
1166.446, 109.0718
1166.928, 106.3206
1167.411, 105.4652
1167.893, 107.5360
1168.375, 108.1210
1168.857, 103.5465
1169.339, 100.1082
1169.821, 100.7352
1170.303, 103.8044
1170.785, 104.9976
1171.268, 104.5647
1171.750, 103.1036
1172.232, 99.91921
1172.714, 98.06963
1173.196, 100.7310
1173.678, 103.2093
1174.160, 102.2673
1174.642, 98.60011
1175.125, 96.71360
1175.607, 96.42600
1176.089, 96.82434
1176.571, 97.36781
1177.053, 98.64468
1177.535, 101.6751
1178.017, 105.0011
1178.499, 107.5816
1178.981, 109.4214
1179.464, 108.7544
1179.946, 105.7543
1180.428, 103.3014
1180.910, 103.4098
1181.392, 104.3264
1181.874, 105.5604
1182.356, 106.7972
1182.838, 107.7136
1183.320, 108.3343
1183.803, 107.6379
1184.285, 105.4869
1184.767, 104.0759
1185.249, 105.7247
1185.731, 108.0242
1186.213, 109.6126
1186.695, 110.4706
1187.177, 110.4261
1187.660, 109.3549
1188.142, 109.4074
1188.624, 111.0161
1189.106, 113.0814
1189.588, 116.5879
1190.070, 118.5362
1190.552, 114.6123
1191.034, 106.1349
1191.516, 102.8768
1191.999, 105.2832
1192.481, 109.0482
1192.963, 113.5532
1193.445, 117.3519
1193.927, 119.0727
1194.409, 119.3061
1194.891, 118.5125
1195.373, 116.7390
1195.855, 113.8102
1196.338, 109.4674
1196.820, 106.0484
1197.302, 104.4341
1197.784, 104.2374
1198.266, 106.5544
1198.748, 109.2543
1199.230, 108.9612
1199.712, 104.3608
1200.195, 104.2117
1200.677, 109.3317
1201.159, 113.0793
1201.641, 110.6439
1202.123, 106.6130
1202.605, 105.7748
1203.087, 107.1243
1203.569, 109.0882
1204.052, 111.6184
1204.534, 115.1784
1205.016, 120.6569
1205.498, 121.9918
1205.980, 109.0550
1206.462, 94.53288
1206.944, 94.97430
1207.426, 104.8567
1207.908, 111.5058
1208.391, 113.2395
1208.873, 112.8203
1209.355, 109.9346
1209.837, 107.1641
1210.319, 107.3012
1210.801, 108.3003
1211.283, 107.4036
1211.765, 105.3284
1212.247, 104.9243
1212.730, 106.7505
1213.212, 108.9954
1213.694, 111.5563
1214.176, 114.1075
1214.658, 117.2898
1215.140, 119.6718
1215.622, 118.9606
1216.104, 115.6739
1216.587, 113.5324
1217.069, 113.2631
1217.551, 112.1208
1218.033, 109.2634
1218.515, 107.1648
1218.997, 109.7923
1219.479, 113.8770
1219.961, 115.5990
1220.443, 114.7947
1220.926, 114.5908
1221.408, 115.4967
1221.890, 115.3811
1222.372, 113.5484
1222.854, 111.2432
1223.336, 109.5133
1223.818, 108.4274
1224.300, 108.5498
1224.782, 109.9590
1225.265, 109.1310
1225.747, 105.2847
1226.229, 102.9858
1226.711, 103.8568
1227.193, 106.2151
1227.675, 108.1956
1228.157, 110.4068
1228.639, 114.5681
1229.122, 121.3579
1229.604, 121.3218
1230.086, 113.1601
1230.568, 106.9927
1231.050, 107.4619
1231.532, 110.0123
1232.014, 109.3834
1232.496, 107.7825
1232.979, 108.1855
1233.461, 111.0866
1233.943, 113.2584
1234.425, 114.6770
1234.907, 115.2819
1235.389, 113.9675
1235.871, 113.5808
1236.353, 120.3776
1236.835, 127.9549
1237.318, 126.3454
1237.800, 113.4527
1238.282, 107.4973
1238.764, 108.7857
1239.246, 111.6038
1239.728, 112.6027
1240.210, 114.0729
1240.692, 120.1960
1241.175, 126.6571
1241.657, 127.1059
1242.139, 120.1773
1242.621, 116.1031
1243.103, 114.8627
1243.585, 114.3343
1244.067, 113.7911
1244.549, 112.8311
1245.031, 109.5402
1245.514, 106.6637
1245.996, 108.6965
1246.478, 116.4743
1246.960, 118.0539
1247.442, 113.5510
1247.924, 109.2732
1248.406, 110.6002
1248.888, 111.8652
1249.370, 108.9863
1249.853, 104.7187
1250.335, 102.0913
1250.817, 101.1621
1251.299, 104.7115
1251.781, 112.4400
1252.263, 118.4268
1252.745, 118.3723
1253.227, 116.4433
1253.710, 112.8546
1254.192, 109.7246
1254.674, 110.5984
1255.156, 114.6894
1255.638, 116.0463
1256.120, 114.5291
1256.602, 112.9782
1257.084, 113.1429
1257.567, 113.2904
1258.049, 112.8488
1258.531, 112.1351
1259.013, 111.3873
1259.495, 110.7484
1259.977, 111.1004
1260.459, 112.3505
1260.941, 112.8102
1261.423, 109.6439
1261.906, 108.7281
1262.388, 112.4204
1262.870, 117.0827
1263.352, 116.6070
1263.834, 113.2901
1264.316, 112.9394
1264.798, 115.7429
1265.280, 117.0170
1265.762, 113.7764
1266.245, 111.4633
1266.727, 111.1142
1267.209, 111.8338
1267.691, 113.5354
1268.173, 114.9123
1268.655, 112.4158
1269.137, 106.2223
1269.619, 104.9344
1270.102, 111.4070
1270.584, 116.9587
1271.066, 119.7241
1271.548, 121.1706
1272.030, 123.2640
1272.512, 124.9231
1272.994, 124.7694
1273.476, 122.6824
1273.958, 119.7481
1274.441, 115.7695
1274.923, 112.0195
1275.405, 108.5035
1275.887, 106.6695
1276.369, 110.6548
1276.851, 115.0037
1277.333, 113.3726
1277.815, 106.8145
1278.297, 103.4979
1278.780, 103.5946
1279.262, 103.4779
1279.744, 102.0424
1280.226, 102.1157
1280.708, 109.0165
1281.190, 115.4116
1281.672, 114.0196
1282.154, 108.1465
1282.637, 111.5951
1283.119, 122.9841
1283.601, 128.3472
1284.083, 124.0044
1284.565, 119.3224
1285.047, 121.9733
1285.529, 123.2694
1286.011, 118.1066
1286.494, 109.3492
1286.976, 104.6411
1287.458, 103.4399
1287.940, 104.5520
1288.422, 108.0719
1288.904, 110.9883
1289.386, 111.1836
1289.868, 112.1059
1290.350, 115.4784
1290.833, 119.3195
1291.315, 119.2406
1291.797, 116.7700
1292.279, 115.0053
1292.761, 114.6816
1293.243, 113.1611
1293.725, 108.9200
1294.207, 107.0341
1294.689, 109.9956
1295.172, 114.0763
1295.654, 113.5389
1296.136, 110.9355
1296.618, 109.8203
1297.100, 110.8644
1297.582, 110.2049
1298.064, 107.4767
1298.546, 105.2447
1299.029, 104.1837
1299.511, 104.2956
1299.993, 107.0686
1300.475, 109.9180
##END=



