##NAMES=Tellurite
##RRUFFID=R070606
##IDEAL CHEMISTRY=Te^4+^O_2_
##LOCALITY=Moctezuma mine, Moctezuma, Sonora, Mexico
##OWNER=RRUFF
##SOURCE=James Shigley
##DESCRIPTION=Colorless massive crystalline, associated with quartz and tellurium
##STATUS=The identification of this mineral has been confirmed by single-crystal X-ray diffraction.
##URL=rruff.info/R070606
131.9271, 5813.669
132.4093, 5866.132
132.8914, 5923.721
133.3735, 5980.952
133.8556, 6036.908
134.3377, 6096.550
134.8198, 6159.238
135.3020, 6224.347
135.7841, 6303.342
136.2662, 6393.585
136.7483, 6500.318
137.2304, 6636.161
137.7125, 6808.652
138.1947, 6993.581
138.6768, 7195.459
139.1589, 7447.348
139.6410, 7611.167
140.1231, 7669.979
140.6052, 7628.555
141.0874, 7512.920
141.5695, 7293.429
142.0516, 7035.510
142.5337, 6795.666
143.0158, 6570.297
143.4979, 6360.643
143.9801, 6133.340
144.4622, 5921.700
144.9443, 5715.752
145.4264, 5492.904
145.9085, 5286.603
146.3906, 5145.155
146.8728, 5124.024
147.3549, 5104.438
147.8370, 5053.314
148.3191, 4944.155
148.8012, 4859.279
149.2833, 4802.795
149.7655, 4768.918
150.2476, 4747.410
150.7297, 4735.112
151.2118, 4736.440
151.6939, 4753.572
152.1760, 4804.587
152.6582, 4848.852
153.1403, 4879.351
153.6224, 4898.644
154.1045, 4920.933
154.5866, 4929.503
155.0687, 4952.306
155.5508, 5007.917
156.0330, 5118.506
156.5151, 5243.589
156.9972, 5363.288
157.4793, 5476.726
157.9614, 5629.001
158.4435, 5811.316
158.9257, 6047.046
159.4078, 6361.933
159.8899, 6730.507
160.3720, 7204.355
160.8541, 7830.409
161.3362, 8630.929
161.8184, 9476.467
162.3005, 10372.46
162.7826, 11269.94
163.2647, 12083.54
163.7468, 12706.63
164.2289, 13276.78
164.7111, 13888.59
165.1932, 14575.86
165.6753, 15274.41
166.1574, 15960.93
166.6395, 16633.58
167.1216, 17271.25
167.6038, 17854.54
168.0859, 18410.07
168.5680, 18961.38
169.0501, 19536.85
169.5322, 20090.97
170.0143, 20584.53
170.4965, 21017.48
170.9786, 21420.55
171.4607, 21762.41
171.9428, 22095.82
172.4249, 22501.70
172.9070, 23007.10
173.3892, 23597.07
173.8713, 24238.11
174.3534, 24922.71
174.8355, 25718.45
175.3176, 26590.14
175.7997, 27608.87
176.2818, 28942.67
176.7640, 30656.61
177.2461, 32737.67
177.7282, 35381.61
178.2103, 38779.05
178.6924, 41891.58
179.1745, 43731.43
179.6567, 44357.59
180.1388, 44015.68
180.6209, 42333.36
181.1030, 39798.80
181.5851, 37584.71
182.0672, 35912.30
182.5494, 34407.21
183.0315, 32562.65
183.5136, 30377.67
183.9957, 28058.39
184.4778, 25606.04
184.9599, 23083.61
185.4421, 20715.80
185.9242, 18520.90
186.4063, 16525.50
186.8884, 14751.47
187.3705, 13213.34
187.8526, 11886.88
188.3348, 10803.20
188.8169, 9950.100
189.2990, 9219.175
189.7811, 8602.182
190.2632, 8085.903
190.7453, 7618.726
191.2275, 7203.150
191.7096, 6836.544
192.1917, 6522.152
192.6738, 6256.261
193.1559, 6024.558
193.6380, 5819.626
194.1202, 5643.027
194.6023, 5502.638
195.0844, 5401.234
195.5665, 5330.903
196.0486, 5280.952
196.5307, 5250.653
197.0129, 5246.663
197.4950, 5276.473
197.9771, 5340.578
198.4592, 5409.574
198.9413, 5480.368
199.4234, 5560.696
199.9055, 5660.899
200.3877, 5779.007
200.8698, 5926.633
201.3519, 6112.870
201.8340, 6341.734
202.3161, 6576.273
202.7982, 6810.619
203.2804, 7053.314
203.7625, 7328.701
204.2446, 7643.030
204.7267, 7970.389
205.2088, 8290.604
205.6909, 8591.794
206.1731, 8929.801
206.6552, 9304.946
207.1373, 9720.934
207.6194, 10201.56
208.1015, 10757.25
208.5836, 11342.50
209.0658, 11927.19
209.5479, 12502.81
210.0300, 13091.09
210.5121, 13706.23
210.9942, 14336.74
211.4763, 14936.24
211.9585, 15501.21
212.4406, 16043.99
212.9227, 16564.39
213.4048, 17058.05
213.8869, 17555.15
214.3690, 18070.28
214.8512, 18598.63
215.3333, 19107.27
215.8154, 19580.48
216.2975, 20053.24
216.7796, 20574.79
217.2617, 21173.64
217.7439, 21763.63
218.2260, 22344.61
218.7081, 22916.50
219.1902, 23422.19
219.6723, 23850.76
220.1544, 24222.75
220.6366, 24564.82
221.1187, 24848.14
221.6008, 25153.69
222.0829, 25499.66
222.5650, 25887.15
223.0471, 26334.04
223.5293, 26894.03
224.0114, 27481.39
224.4935, 27986.28
224.9756, 28490.68
225.4577, 28765.98
225.9398, 28726.00
226.4220, 28355.52
226.9041, 27725.51
227.3862, 26819.53
227.8683, 25661.10
228.3504, 24302.01
228.8325, 22649.81
229.3147, 20935.92
229.7968, 19269.67
230.2789, 17594.62
230.7610, 16078.41
231.2431, 14721.04
231.7252, 13514.82
232.2074, 12422.17
232.6895, 11433.72
233.1716, 10554.89
233.6537, 9789.823
234.1358, 9176.178
234.6179, 8613.741
235.1001, 8093.963
235.5822, 7620.266
236.0643, 7197.973
236.5464, 6834.664
237.0285, 6513.079
237.5106, 6223.354
237.9928, 5972.540
238.4749, 5747.263
238.9570, 5557.555
239.4391, 5397.037
239.9212, 5221.013
240.4033, 5009.290
240.8855, 4806.242
241.3676, 4642.625
241.8497, 4533.800
242.3318, 4436.892
242.8139, 4350.414
243.2960, 4273.460
243.7781, 4195.738
244.2603, 4117.489
244.7424, 4038.235
245.2245, 3956.549
245.7066, 3866.543
246.1887, 3784.748
246.6708, 3710.259
247.1530, 3643.468
247.6351, 3596.726
248.1172, 3582.032
248.5993, 3574.004
249.0814, 3549.438
249.5635, 3500.597
250.0457, 3451.075
250.5278, 3401.799
251.0099, 3352.610
251.4920, 3317.921
251.9741, 3304.418
252.4562, 3298.331
252.9384, 3286.125
253.4205, 3264.679
253.9026, 3243.643
254.3847, 3225.790
254.8668, 3211.265
255.3489, 3192.425
255.8311, 3165.068
256.3132, 3137.888
256.7953, 3122.657
257.2774, 3126.584
257.7595, 3124.996
258.2416, 3108.796
258.7238, 3076.180
259.2059, 3056.785
259.6880, 3054.547
260.1701, 3060.670
260.6522, 3064.857
261.1343, 3066.668
261.6165, 3067.948
262.0986, 3072.175
262.5807, 3080.881
263.0628, 3069.683
263.5449, 3028.982
264.0270, 2980.404
264.5092, 2953.118
264.9913, 2953.343
265.4734, 2957.157
265.9555, 2957.466
266.4376, 2953.929
266.9197, 2954.302
267.4019, 2963.036
267.8840, 2969.591
268.3661, 2953.912
268.8482, 2907.515
269.3303, 2870.256
269.8124, 2860.698
270.2946, 2881.121
270.7767, 2887.140
271.2588, 2875.265
271.7409, 2854.320
272.2230, 2835.938
272.7051, 2819.873
273.1873, 2807.759
273.6694, 2802.825
274.1515, 2805.548
274.6336, 2799.900
275.1157, 2784.451
275.5978, 2763.501
276.0800, 2740.926
276.5620, 2715.365
277.0442, 2698.052
277.5263, 2699.440
278.0084, 2719.287
278.4905, 2720.215
278.9726, 2697.764
279.4547, 2666.773
279.9369, 2649.935
280.4190, 2648.097
280.9011, 2647.266
281.3832, 2641.891
281.8653, 2632.215
282.3474, 2620.459
282.8296, 2605.726
283.3117, 2591.703
283.7938, 2586.126
284.2759, 2588.907
284.7580, 2588.247
285.2401, 2576.357
285.7223, 2555.325
286.2044, 2537.731
286.6865, 2523.531
287.1686, 2513.864
287.6507, 2514.142
288.1328, 2523.209
288.6150, 2528.214
289.0971, 2520.256
289.5792, 2502.860
290.0613, 2489.167
290.5434, 2479.709
291.0255, 2473.292
291.5077, 2468.165
291.9898, 2464.533
292.4719, 2463.747
292.9540, 2470.252
293.4361, 2479.885
293.9182, 2480.956
294.4004, 2472.210
294.8825, 2459.967
295.3646, 2449.977
295.8467, 2442.179
296.3288, 2436.550
296.8109, 2436.529
297.2931, 2437.896
297.7752, 2430.463
298.2573, 2412.565
298.7394, 2396.771
299.2215, 2400.717
299.7036, 2417.629
300.1858, 2429.578
300.6679, 2425.217
301.1500, 2412.701
301.6321, 2399.899
302.1142, 2386.617
302.5963, 2379.641
303.0785, 2391.085
303.5606, 2412.965
304.0427, 2429.280
304.5248, 2427.993
305.0069, 2420.630
305.4890, 2417.875
305.9712, 2420.269
306.4533, 2424.720
306.9354, 2427.483
307.4175, 2431.082
307.8996, 2439.388
308.3817, 2455.557
308.8639, 2475.933
309.3460, 2500.483
309.8281, 2529.449
310.3102, 2553.318
310.7923, 2564.421
311.2744, 2567.869
311.7566, 2570.082
312.2387, 2571.189
312.7208, 2573.509
313.2029, 2577.684
313.6850, 2583.733
314.1671, 2593.221
314.6493, 2612.661
315.1314, 2633.575
315.6135, 2647.094
316.0956, 2641.977
316.5777, 2636.866
317.0598, 2639.854
317.5420, 2651.032
318.0241, 2660.647
318.5062, 2664.144
318.9883, 2665.594
319.4704, 2668.368
319.9525, 2670.517
320.4347, 2676.790
320.9168, 2691.025
321.3989, 2712.742
321.8810, 2730.539
322.3631, 2736.360
322.8452, 2741.289
323.3273, 2753.202
323.8094, 2782.814
324.2916, 2808.435
324.7737, 2831.120
325.2558, 2850.039
325.7379, 2853.588
326.2200, 2830.931
326.7021, 2800.324
327.1843, 2771.177
327.6664, 2729.836
328.1485, 2709.571
328.6306, 2731.234
329.1127, 2782.409
329.5948, 2789.191
330.0770, 2721.594
330.5591, 2641.735
331.0412, 2584.833
331.5233, 2555.415
332.0054, 2538.091
332.4875, 2535.843
332.9697, 2544.805
333.4518, 2550.590
333.9339, 2548.624
334.4160, 2551.811
334.8981, 2568.934
335.3802, 2604.988
335.8624, 2635.673
336.3445, 2657.698
336.8266, 2675.429
337.3087, 2700.527
337.7908, 2734.092
338.2729, 2769.802
338.7551, 2804.956
339.2372, 2838.884
339.7193, 2872.313
340.2014, 2903.972
340.6835, 2936.760
341.1656, 2975.019
341.6478, 3019.197
342.1299, 3067.191
342.6120, 3123.208
343.0941, 3184.606
343.5762, 3229.090
344.0583, 3253.066
344.5405, 3272.980
345.0226, 3315.250
345.5047, 3376.870
345.9868, 3431.925
346.4689, 3461.739
346.9510, 3477.322
347.4332, 3512.210
347.9153, 3568.677
348.3974, 3624.099
348.8795, 3652.781
349.3616, 3660.793
349.8438, 3665.048
350.3259, 3673.578
350.8080, 3681.571
351.2901, 3680.868
351.7722, 3671.600
352.2543, 3662.421
352.7365, 3664.469
353.2186, 3670.384
353.7007, 3668.756
354.1828, 3657.493
354.6649, 3635.635
355.1470, 3597.377
355.6292, 3544.545
356.1113, 3492.354
356.5934, 3440.645
357.0755, 3397.794
357.5576, 3373.044
358.0397, 3387.073
358.5219, 3398.877
359.0040, 3387.830
359.4861, 3357.828
359.9682, 3325.096
360.4503, 3290.884
360.9324, 3259.016
361.4146, 3232.382
361.8967, 3216.415
362.3788, 3198.322
362.8609, 3174.766
363.3430, 3146.927
363.8251, 3118.151
364.3073, 3083.881
364.7894, 3053.252
365.2715, 3031.278
365.7536, 3027.361
366.2357, 3015.151
366.7178, 2985.255
367.1999, 2947.981
367.6820, 2921.342
368.1642, 2913.633
368.6463, 2906.964
369.1284, 2895.470
369.6105, 2876.968
370.0926, 2862.641
370.5747, 2853.777
371.0569, 2848.142
371.5390, 2842.709
372.0211, 2837.537
372.5032, 2832.336
372.9853, 2826.680
373.4674, 2820.498
373.9496, 2816.625
374.4317, 2815.518
374.9138, 2815.748
375.3959, 2818.922
375.8780, 2826.846
376.3601, 2821.473
376.8423, 2792.865
377.3244, 2748.902
377.8065, 2724.516
378.2886, 2721.264
378.7707, 2725.180
379.2528, 2722.823
379.7350, 2716.118
380.2171, 2720.109
380.6992, 2743.159
381.1813, 2770.735
381.6634, 2775.151
382.1455, 2758.089
382.6277, 2736.602
383.1098, 2715.503
383.5919, 2699.516
384.0740, 2701.669
384.5561, 2729.639
385.0382, 2759.242
385.5204, 2758.963
386.0025, 2738.242
386.4846, 2723.759
386.9667, 2736.782
387.4488, 2758.829
387.9309, 2771.694
388.4131, 2772.603
388.8952, 2771.814
389.3773, 2775.741
389.8594, 2782.106
390.3415, 2787.622
390.8236, 2792.256
391.3058, 2794.497
391.7879, 2789.104
392.2700, 2775.308
392.7521, 2773.343
393.2342, 2805.936
393.7163, 2845.816
394.1985, 2868.181
394.6806, 2847.477
395.1627, 2830.273
395.6448, 2829.009
396.1269, 2842.248
396.6090, 2849.902
397.0912, 2844.875
397.5733, 2837.964
398.0554, 2834.521
398.5375, 2830.629
399.0196, 2836.585
399.5017, 2858.627
399.9839, 2890.231
400.4660, 2911.522
400.9481, 2919.968
401.4302, 2922.315
401.9123, 2919.731
402.3944, 2909.217
402.8766, 2906.998
403.3587, 2916.920
403.8408, 2930.373
404.3229, 2929.605
404.8050, 2911.021
405.2871, 2901.218
405.7693, 2913.204
406.2514, 2944.370
406.7335, 2974.552
407.2156, 3004.354
407.6977, 3029.081
408.1798, 3038.638
408.6620, 3036.020
409.1441, 3039.170
409.6262, 3057.989
410.1083, 3082.582
410.5904, 3091.253
411.0725, 3085.160
411.5546, 3081.076
412.0367, 3092.463
412.5189, 3114.359
413.0010, 3138.679
413.4831, 3165.266
413.9652, 3191.108
414.4473, 3212.834
414.9294, 3231.490
415.4116, 3251.520
415.8937, 3271.423
416.3758, 3295.943
416.8579, 3331.268
417.3400, 3381.880
417.8221, 3429.651
418.3043, 3461.094
418.7864, 3485.610
419.2685, 3517.259
419.7506, 3562.338
420.2327, 3612.925
420.7148, 3665.000
421.1970, 3718.092
421.6791, 3778.866
422.1612, 3856.076
422.6433, 3937.015
423.1254, 4010.560
423.6075, 4068.275
424.0897, 4130.798
424.5718, 4201.165
425.0539, 4278.276
425.5360, 4357.539
426.0181, 4439.557
426.5002, 4522.062
426.9824, 4602.552
427.4645, 4678.656
427.9466, 4762.762
428.4287, 4857.608
428.9108, 4958.291
429.3929, 5056.705
429.8751, 5152.256
430.3572, 5246.790
430.8393, 5341.128
431.3214, 5435.130
431.8035, 5522.756
432.2856, 5603.555
432.7678, 5683.922
433.2499, 5770.372
433.7320, 5862.830
434.2141, 5962.057
434.6962, 6076.140
435.1783, 6191.013
435.6605, 6284.022
436.1426, 6356.119
436.6247, 6418.773
437.1068, 6483.676
437.5889, 6542.952
438.0710, 6585.475
438.5532, 6601.694
439.0353, 6610.770
439.5174, 6637.313
439.9995, 6667.945
440.4816, 6665.814
440.9637, 6600.867
441.4459, 6509.606
441.9280, 6411.849
442.4101, 6313.778
442.8922, 6200.425
443.3743, 6062.469
443.8564, 5908.719
444.3386, 5752.923
444.8207, 5588.748
445.3028, 5429.562
445.7849, 5277.263
446.2670, 5132.584
446.7491, 4994.104
447.2313, 4861.199
447.7134, 4733.341
448.1955, 4612.628
448.6776, 4501.657
449.1597, 4387.212
449.6418, 4266.238
450.1240, 4142.057
450.6061, 4025.806
451.0882, 3916.249
451.5703, 3822.246
452.0524, 3758.442
452.5345, 3721.218
453.0167, 3666.999
453.4988, 3590.916
453.9809, 3509.808
454.4630, 3446.738
454.9451, 3399.366
455.4272, 3356.837
455.9094, 3317.297
456.3914, 3278.437
456.8736, 3235.116
457.3557, 3187.873
457.8378, 3140.032
458.3199, 3090.413
458.8020, 3044.110
459.2841, 3007.317
459.7663, 2984.431
460.2484, 2968.217
460.7305, 2960.848
461.2126, 2958.015
461.6947, 2947.105
462.1768, 2907.034
462.6590, 2870.446
463.1411, 2857.772
463.6232, 2884.708
464.1053, 2896.212
464.5874, 2869.417
465.0695, 2827.719
465.5517, 2802.295
466.0338, 2811.428
466.5159, 2813.586
466.9980, 2794.541
467.4801, 2755.786
467.9622, 2743.786
468.4444, 2771.280
468.9265, 2804.974
469.4086, 2820.538
469.8907, 2814.282
470.3728, 2808.469
470.8549, 2805.048
471.3371, 2803.429
471.8192, 2800.356
472.3013, 2795.619
472.7834, 2797.826
473.2655, 2819.117
473.7477, 2851.490
474.2298, 2867.510
474.7119, 2865.538
475.1940, 2854.443
475.6761, 2837.568
476.1582, 2818.319
476.6404, 2804.206
477.1225, 2801.914
477.6046, 2802.200
478.0867, 2797.846
478.5688, 2789.142
479.0509, 2777.536
479.5331, 2760.424
480.0152, 2742.795
480.4973, 2728.578
480.9794, 2720.570
481.4615, 2711.512
481.9436, 2700.296
482.4258, 2686.517
482.9079, 2669.508
483.3900, 2642.127
483.8721, 2618.506
484.3542, 2602.538
484.8363, 2594.952
485.3185, 2588.656
485.8006, 2584.751
486.2827, 2580.907
486.7648, 2576.083
487.2469, 2571.942
487.7290, 2559.401
488.2112, 2532.310
488.6933, 2499.690
489.1754, 2490.624
489.6575, 2507.612
490.1396, 2524.102
490.6217, 2525.354
491.1039, 2513.659
491.5860, 2497.261
492.0681, 2475.310
492.5502, 2455.255
493.0323, 2446.633
493.5144, 2446.173
493.9966, 2445.336
494.4787, 2437.768
494.9608, 2431.228
495.4429, 2436.433
495.9250, 2451.037
496.4071, 2461.417
496.8893, 2453.931
497.3714, 2443.057
497.8535, 2441.951
498.3356, 2461.027
498.8177, 2471.470
499.2998, 2456.181
499.7820, 2428.906
500.2641, 2412.366
500.7462, 2419.401
501.2283, 2427.000
501.7104, 2429.774
502.1925, 2427.501
502.6746, 2426.055
503.1567, 2426.879
503.6389, 2426.673
504.1210, 2421.432
504.6031, 2408.344
505.0852, 2403.146
505.5673, 2410.202
506.0494, 2422.979
506.5316, 2425.837
507.0137, 2418.582
507.4958, 2413.385
507.9779, 2418.067
508.4600, 2429.689
508.9421, 2441.307
509.4243, 2453.267
509.9064, 2459.400
510.3885, 2446.004
510.8706, 2424.237
511.3527, 2414.422
511.8348, 2430.584
512.3170, 2450.929
512.7991, 2459.437
513.2812, 2458.938
513.7633, 2458.799
514.2454, 2463.228
514.7275, 2468.971
515.2097, 2475.396
515.6918, 2484.427
516.1739, 2487.349
516.6560, 2471.218
517.1381, 2453.216
517.6202, 2453.546
518.1024, 2488.081
518.5845, 2516.407
519.0666, 2532.291
519.5487, 2536.953
520.0308, 2536.478
520.5129, 2527.781
520.9951, 2521.623
521.4772, 2526.687
521.9593, 2543.084
522.4414, 2552.742
522.9235, 2553.025
523.4056, 2551.661
523.8878, 2561.754
524.3699, 2580.478
524.8520, 2594.317
525.3341, 2592.349
525.8162, 2586.554
526.2983, 2597.386
526.7805, 2622.278
527.2626, 2640.797
527.7447, 2632.517
528.2268, 2615.814
528.7089, 2606.367
529.1910, 2605.073
529.6732, 2616.425
530.1553, 2655.239
530.6374, 2704.826
531.1195, 2739.724
531.6016, 2739.567
532.0837, 2739.532
532.5659, 2747.409
533.0480, 2763.254
533.5301, 2782.681
534.0122, 2809.304
534.4943, 2835.262
534.9764, 2855.549
535.4586, 2869.668
535.9407, 2880.191
536.4228, 2885.292
536.9049, 2890.110
537.3870, 2904.859
537.8691, 2929.372
538.3513, 2954.709
538.8334, 2978.921
539.3155, 3000.838
539.7976, 3016.835
540.2797, 3027.064
540.7618, 3036.949
541.2440, 3049.714
541.7261, 3064.975
542.2082, 3082.013
542.6903, 3100.026
543.1724, 3121.224
543.6545, 3147.573
544.1367, 3178.029
544.6188, 3210.997
545.1009, 3244.611
545.5830, 3281.524
546.0651, 3324.297
546.5472, 3373.448
547.0294, 3418.825
547.5115, 3456.069
547.9936, 3493.863
548.4757, 3538.322
548.9578, 3593.236
549.4399, 3644.200
549.9221, 3688.930
550.4042, 3731.706
550.8863, 3778.723
551.3684, 3829.640
551.8505, 3889.827
552.3326, 3965.098
552.8148, 4050.978
553.2969, 4130.086
553.7790, 4203.305
554.2611, 4276.865
554.7432, 4354.327
555.2253, 4435.697
555.7075, 4519.752
556.1896, 4603.823
556.6717, 4698.273
557.1538, 4814.791
557.6359, 4944.241
558.1180, 5070.063
558.6002, 5182.163
559.0823, 5294.117
559.5644, 5406.636
560.0465, 5519.968
560.5286, 5654.088
561.0107, 5822.987
561.4929, 5997.099
561.9750, 6159.212
562.4571, 6301.695
562.9392, 6454.584
563.4213, 6624.590
563.9034, 6798.931
564.3856, 6959.751
564.8677, 7105.403
565.3498, 7250.788
565.8319, 7401.411
566.3140, 7555.297
566.7961, 7712.531
567.2783, 7873.461
567.7604, 8033.105
568.2424, 8178.888
568.7245, 8325.705
569.2067, 8507.757
569.6888, 8737.566
570.1709, 8956.376
570.6530, 9124.420
571.1351, 9257.170
571.6172, 9376.954
572.0994, 9466.406
572.5815, 9567.710
573.0636, 9707.194
573.5457, 9876.805
574.0278, 10011.04
574.5099, 10090.44
574.9921, 10156.16
575.4742, 10226.73
575.9563, 10307.85
576.4384, 10365.51
576.9205, 10400.31
577.4026, 10408.29
577.8848, 10376.96
578.3669, 10307.02
578.8490, 10237.68
579.3311, 10184.12
579.8132, 10126.91
580.2953, 10029.84
580.7775, 9897.482
581.2596, 9751.816
581.7417, 9608.611
582.2238, 9456.566
582.7059, 9284.605
583.1880, 9092.709
583.6702, 8883.992
584.1523, 8645.383
584.6344, 8400.795
585.1165, 8168.393
585.5986, 7955.761
586.0807, 7750.818
586.5629, 7555.671
587.0450, 7366.659
587.5271, 7176.137
588.0092, 6979.683
588.4913, 6788.971
588.9734, 6604.156
589.4556, 6425.903
589.9377, 6264.594
590.4198, 6121.974
590.9019, 5987.847
591.3840, 5852.819
591.8661, 5719.142
592.3483, 5595.610
592.8304, 5483.791
593.3125, 5377.235
593.7946, 5268.754
594.2767, 5160.250
594.7589, 5055.196
595.2410, 4948.576
595.7231, 4852.453
596.2052, 4781.188
596.6873, 4729.777
597.1694, 4675.294
597.6516, 4600.497
598.1337, 4528.950
598.6158, 4473.635
599.0979, 4441.740
599.5800, 4405.005
600.0621, 4361.635
600.5443, 4315.747
601.0264, 4269.182
601.5085, 4219.562
601.9906, 4181.167
602.4727, 4158.268
602.9548, 4145.002
603.4370, 4128.405
603.9191, 4108.584
604.4012, 4089.517
604.8833, 4070.847
605.3654, 4054.810
605.8475, 4046.442
606.3297, 4045.579
606.8118, 4044.015
607.2939, 4029.564
607.7760, 4015.432
608.2581, 4015.709
608.7402, 4043.455
609.2224, 4064.604
609.7045, 4056.442
610.1866, 4039.583
610.6687, 4048.217
611.1508, 4102.332
611.6329, 4153.526
612.1151, 4191.930
612.5972, 4220.273
613.0793, 4251.589
613.5614, 4285.333
614.0435, 4323.833
614.5256, 4366.889
615.0078, 4415.293
615.4899, 4480.954
615.9720, 4565.495
616.4541, 4647.677
616.9362, 4697.433
617.4183, 4729.973
617.9005, 4772.037
618.3826, 4827.027
618.8647, 4901.188
619.3468, 5011.033
619.8289, 5142.279
620.3110, 5263.396
620.7932, 5349.339
621.2753, 5438.568
621.7574, 5541.590
622.2395, 5658.378
622.7216, 5793.101
623.2037, 5948.617
623.6859, 6117.567
624.1680, 6298.479
624.6501, 6492.544
625.1322, 6688.206
625.6143, 6880.927
626.0964, 7086.437
626.5786, 7327.265
627.0607, 7599.873
627.5428, 7889.975
628.0249, 8198.334
628.5070, 8518.729
628.9891, 8836.979
629.4713, 9159.731
629.9534, 9508.140
630.4355, 9911.367
630.9176, 10332.09
631.3997, 10729.94
631.8818, 11102.92
632.3640, 11513.72
632.8461, 12005.62
633.3282, 12518.69
633.8103, 13006.24
634.2924, 13439.55
634.7745, 13923.62
635.2567, 14473.06
635.7388, 15050.70
636.2209, 15600.83
636.7030, 16123.70
637.1851, 16675.61
637.6672, 17282.75
638.1494, 17929.32
638.6315, 18560.91
639.1136, 19190.30
639.5957, 19837.65
640.0778, 20516.89
640.5599, 21228.98
641.0421, 21976.95
641.5242, 22768.96
642.0063, 23550.41
642.4884, 24330.56
642.9705, 25077.00
643.4526, 25782.72
643.9348, 26405.24
644.4169, 27040.49
644.8990, 27698.47
645.3811, 28358.58
645.8632, 28975.66
646.3453, 29551.65
646.8275, 30102.97
647.3096, 30624.43
647.7917, 31137.56
648.2738, 31707.25
648.7559, 32323.93
649.2380, 32906.85
649.7202, 33355.79
650.2023, 33759.52
650.6844, 34245.94
651.1665, 34821.92
651.6486, 35402.96
652.1307, 35891.74
652.6129, 36398.73
653.0950, 37021.31
653.5771, 37812.85
654.0592, 38658.99
654.5413, 39523.90
655.0234, 40434.07
655.5056, 41431.88
655.9877, 42557.90
656.4698, 43663.98
656.9519, 44732.32
657.4340, 45765.57
657.9161, 46825.89
658.3982, 47919.50
658.8803, 48866.97
659.3624, 49669.91
659.8445, 50239.85
660.3267, 50424.34
660.8088, 50220.55
661.2909, 49636.39
661.7730, 48652.09
662.2551, 47304.82
662.7372, 45594.45
663.2194, 43442.75
663.7015, 41122.25
664.1836, 38579.69
664.6657, 35949.11
665.1478, 33384.42
665.6299, 30843.14
666.1121, 28439.90
666.5942, 26156.66
667.0763, 24025.15
667.5584, 22069.40
668.0405, 20289.54
668.5226, 18686.56
669.0048, 17286.13
669.4869, 16045.67
669.9690, 14911.54
670.4511, 13874.59
670.9332, 12947.44
671.4153, 12171.51
671.8975, 11491.91
672.3796, 10846.45
672.8617, 10217.83
673.3438, 9653.591
673.8259, 9196.621
674.3080, 8795.158
674.7902, 8405.412
675.2723, 8006.219
675.7544, 7646.696
676.2365, 7339.717
676.7186, 7068.433
677.2007, 6808.655
677.6829, 6557.917
678.1650, 6320.843
678.6471, 6098.955
679.1292, 5890.885
679.6113, 5700.182
680.0934, 5524.796
680.5756, 5363.021
681.0577, 5213.564
681.5398, 5075.731
682.0219, 4945.651
682.5040, 4823.842
682.9861, 4708.999
683.4683, 4603.757
683.9504, 4502.488
684.4325, 4399.275
684.9146, 4288.744
685.3967, 4187.572
685.8788, 4095.174
686.3610, 4010.518
686.8431, 3933.229
687.3252, 3863.020
687.8073, 3793.719
688.2894, 3722.478
688.7715, 3653.392
689.2537, 3598.995
689.7358, 3555.751
690.2179, 3511.768
690.7000, 3455.126
691.1821, 3399.354
691.6642, 3355.996
692.1464, 3324.150
692.6285, 3294.251
693.1106, 3267.932
693.5927, 3239.135
694.0748, 3202.470
694.5569, 3153.673
695.0391, 3120.262
695.5212, 3111.119
696.0033, 3103.287
696.4854, 3071.008
696.9675, 3013.929
697.4496, 2976.445
697.9318, 2966.087
698.4139, 2965.785
698.8960, 2955.154
699.3781, 2937.482
699.8602, 2920.564
700.3423, 2907.475
700.8245, 2895.514
701.3066, 2882.580
701.7887, 2869.260
702.2708, 2857.130
702.7529, 2845.442
703.2350, 2836.261
703.7172, 2830.536
704.1993, 2828.055
704.6814, 2826.344
705.1635, 2825.008
705.6456, 2825.588
706.1277, 2829.666
706.6099, 2836.833
707.0920, 2843.585
707.5741, 2849.884
708.0562, 2855.897
708.5383, 2857.871
709.0204, 2860.810
709.5026, 2873.934
709.9847, 2902.973
710.4668, 2929.651
710.9489, 2943.667
711.4310, 2950.266
711.9131, 2956.314
712.3953, 2957.078
712.8774, 2964.792
713.3595, 2980.745
713.8416, 3004.229
714.3237, 3036.135
714.8058, 3079.754
715.2880, 3114.725
715.7701, 3130.710
716.2522, 3135.704
716.7343, 3151.844
717.2164, 3177.620
717.6985, 3202.739
718.1807, 3222.237
718.6628, 3236.796
719.1449, 3244.097
719.6270, 3243.991
720.1091, 3248.435
720.5912, 3269.744
721.0734, 3291.082
721.5555, 3300.441
722.0376, 3292.158
722.5197, 3288.736
723.0018, 3293.965
723.4839, 3298.436
723.9661, 3289.601
724.4482, 3267.963
724.9303, 3250.833
725.4124, 3242.111
725.8945, 3235.300
726.3766, 3226.266
726.8588, 3212.287
727.3409, 3186.825
727.8230, 3133.835
728.3051, 3082.582
728.7872, 3051.320
729.2693, 3034.016
729.7515, 3012.686
730.2336, 2983.205
730.7157, 2949.698
731.1978, 2909.874
731.6799, 2865.688
732.1620, 2834.215
732.6442, 2818.007
733.1263, 2802.514
733.6084, 2777.950
734.0905, 2747.145
734.5726, 2719.572
735.0547, 2695.391
735.5369, 2671.833
736.0190, 2643.974
736.5011, 2616.891
736.9832, 2596.741
737.4653, 2587.158
737.9474, 2575.673
738.4296, 2558.073
738.9117, 2537.206
739.3938, 2516.419
739.8759, 2496.794
740.3580, 2473.174
740.8401, 2442.156
741.3223, 2411.032
741.8044, 2392.937
742.2865, 2386.957
742.7686, 2383.549
743.2507, 2382.492
743.7328, 2378.871
744.2150, 2363.063
744.6971, 2339.410
745.1792, 2319.856
745.6613, 2308.608
746.1434, 2303.395
746.6255, 2307.043
747.1077, 2318.013
747.5898, 2322.136
748.0718, 2317.984
748.5540, 2308.479
749.0361, 2291.723
749.5182, 2268.710
750.0003, 2257.614
750.4824, 2259.333
750.9645, 2264.924
751.4467, 2271.049
751.9288, 2275.120
752.4109, 2271.167
752.8930, 2258.210
753.3751, 2243.414
753.8572, 2224.823
754.3394, 2210.267
754.8215, 2209.098
755.3036, 2240.320
755.7857, 2249.785
756.2678, 2220.511
756.7499, 2180.809
757.2321, 2164.546
757.7142, 2175.632
758.1963, 2184.935
758.6784, 2188.677
759.1605, 2187.602
759.6426, 2182.445
760.1248, 2173.354
760.6069, 2159.950
761.0890, 2132.623
761.5711, 2111.846
762.0532, 2120.151
762.5353, 2146.867
763.0175, 2164.118
763.4996, 2154.456
763.9817, 2145.499
764.4638, 2145.226
764.9459, 2151.802
765.4280, 2154.179
765.9102, 2151.588
766.3923, 2147.636
766.8744, 2143.716
767.3565, 2139.821
767.8386, 2137.104
768.3207, 2135.273
768.8029, 2130.323
769.2850, 2113.718
769.7671, 2096.335
770.2492, 2090.110
770.7313, 2097.623
771.2134, 2102.537
771.6956, 2093.143
772.1777, 2085.727
772.6598, 2092.687
773.1419, 2123.844
773.6240, 2135.124
774.1061, 2121.708
774.5883, 2100.383
775.0704, 2088.938
775.5525, 2084.900
776.0346, 2076.935
776.5167, 2061.580
776.9988, 2047.828
777.4810, 2045.735
777.9631, 2049.867
778.4452, 2052.638
778.9273, 2051.019
779.4094, 2048.834
779.8915, 2043.935
780.3737, 2039.910
780.8558, 2044.188
781.3379, 2061.973
781.8200, 2071.363
782.3021, 2065.853
782.7842, 2051.798
783.2664, 2042.464
783.7485, 2037.263
784.2306, 2032.435
784.7127, 2021.262
785.1948, 2013.762
785.6769, 2025.219
786.1591, 2049.177
786.6412, 2061.966
787.1233, 2044.278
787.6054, 2025.874
788.0875, 2017.829
788.5696, 2019.075
789.0518, 2016.198
789.5339, 2007.038
790.0160, 2001.145
790.4981, 2007.390
790.9802, 2021.568
791.4623, 2024.045
791.9445, 2015.408
792.4266, 2008.242
792.9087, 2019.102
793.3908, 2030.977
793.8729, 2023.942
794.3550, 1992.438
794.8372, 1973.006
795.3193, 1986.832
795.8014, 2005.838
796.2835, 2013.480
796.7656, 2006.629
797.2477, 2000.610
797.7299, 1994.455
798.2120, 1991.983
798.6941, 2002.364
799.1762, 2019.621
799.6583, 2023.180
800.1404, 2006.409
800.6226, 1991.742
801.1047, 2000.060
801.5868, 2018.215
802.0689, 2031.809
802.5510, 2040.841
803.0331, 2039.141
803.5153, 2019.024
803.9974, 1993.698
804.4795, 1980.906
804.9616, 1982.169
805.4437, 1984.716
805.9258, 1987.291
806.4080, 1988.307
806.8901, 1982.937
807.3722, 1973.961
807.8543, 1968.940
808.3364, 1974.424
808.8185, 1980.017
809.3007, 1979.055
809.7828, 1974.058
810.2649, 1970.517
810.7470, 1970.917
811.2291, 1970.317
811.7112, 1966.812
812.1934, 1962.261
812.6755, 1962.595
813.1576, 1967.911
813.6397, 1973.291
814.1218, 1976.583
814.6039, 1978.833
815.0861, 1981.555
815.5682, 1984.608
816.0503, 1987.547
816.5324, 1992.984
817.0145, 1995.567
817.4966, 1991.006
817.9788, 1979.965
818.4609, 1971.677
818.9430, 1965.911
819.4251, 1963.787
819.9072, 1968.108
820.3893, 1976.640
820.8715, 1976.018
821.3536, 1966.587
821.8357, 1957.340
822.3178, 1953.607
822.7999, 1953.554
823.2820, 1956.198
823.7642, 1961.317
824.2463, 1965.632
824.7284, 1968.684
825.2105, 1969.960
825.6926, 1968.795
826.1747, 1964.832
826.6569, 1961.925
827.1390, 1959.591
827.6211, 1959.817
828.1032, 1967.124
828.5853, 1977.991
829.0674, 1980.655
829.5496, 1974.368
830.0317, 1966.455
830.5138, 1958.649
830.9959, 1954.015
831.4780, 1956.822
831.9601, 1971.469
832.4423, 1978.427
832.9244, 1972.370
833.4065, 1963.087
833.8886, 1956.577
834.3707, 1952.743
834.8528, 1955.836
835.3350, 1967.706
835.8171, 1976.539
836.2992, 1964.459
836.7813, 1943.277
837.2634, 1933.821
837.7455, 1943.082
838.2276, 1950.059
838.7097, 1941.356
839.1918, 1927.702
839.6740, 1918.592
840.1561, 1913.042
840.6382, 1915.485
841.1203, 1928.364
841.6024, 1944.523
842.0845, 1956.759
842.5667, 1965.259
843.0488, 1971.950
843.5309, 1977.810
844.0130, 1979.108
844.4951, 1965.483
844.9772, 1948.096
845.4594, 1941.408
845.9415, 1959.719
846.4236, 1971.326
846.9057, 1968.544
847.3878, 1960.361
847.8699, 1956.912
848.3521, 1958.949
848.8342, 1960.822
849.3163, 1962.407
849.7984, 1961.881
850.2805, 1952.563
850.7626, 1939.854
851.2448, 1936.033
851.7269, 1950.250
852.2090, 1963.558
852.6911, 1966.883
853.1732, 1963.822
853.6553, 1958.882
854.1375, 1946.846
854.6196, 1945.744
855.1017, 1961.161
855.5838, 1982.474
856.0659, 1993.020
856.5480, 1993.714
857.0302, 1990.363
857.5123, 1983.696
857.9944, 1975.324
858.4765, 1962.698
858.9586, 1950.353
859.4407, 1945.325
859.9229, 1956.690
860.4050, 1966.696
860.8871, 1973.319
861.3692, 1977.130
861.8513, 1978.409
862.3334, 1976.791
862.8156, 1976.905
863.2977, 1980.782
863.7798, 1984.530
864.2619, 1981.373
864.7440, 1973.865
865.2261, 1967.602
865.7083, 1964.891
866.1904, 1963.500
866.6725, 1961.566
867.1546, 1960.781
867.6367, 1965.098
868.1188, 1979.893
868.6010, 1985.242
869.0831, 1974.834
869.5652, 1958.433
870.0473, 1953.422
870.5294, 1957.822
871.0115, 1963.394
871.4937, 1968.100
871.9758, 1971.949
872.4579, 1974.683
872.9400, 1976.570
873.4221, 1978.124
873.9042, 1979.107
874.3864, 1980.003
874.8685, 1979.842
875.3506, 1980.405
875.8327, 1986.580
876.3148, 1998.163
876.7969, 2006.766
877.2791, 2010.288
877.7612, 2009.745
878.2433, 2004.152
878.7254, 1995.733
879.2075, 1988.557
879.6896, 1988.232
880.1718, 1983.989
880.6539, 1965.638
881.1360, 1945.491
881.6181, 1946.930
882.1002, 1975.939
882.5823, 1991.691
883.0645, 1983.057
883.5466, 1964.293
884.0287, 1953.208
884.5108, 1949.491
884.9929, 1953.117
885.4750, 1969.961
885.9572, 1985.549
886.4393, 1995.772
886.9214, 1999.648
887.4035, 1994.491
887.8856, 1972.315
888.3677, 1962.384
888.8499, 1972.518
889.3320, 1988.095
889.8141, 1981.632
890.2962, 1959.505
890.7783, 1945.917
891.2604, 1950.646
891.7426, 1958.889
892.2247, 1961.210
892.7068, 1960.055
893.1889, 1958.870
893.6710, 1958.211
894.1531, 1957.529
894.6353, 1956.870
895.1174, 1956.025
895.5995, 1954.125
896.0816, 1951.454
896.5637, 1950.447
897.0458, 1951.545
897.5280, 1954.652
898.0101, 1964.499
898.4922, 1974.495
898.9743, 1974.902
899.4564, 1950.473
899.9385, 1939.112
900.4207, 1953.131
900.9028, 1973.459
901.3849, 1978.142
901.8670, 1966.139
902.3491, 1959.606
902.8312, 1961.932
903.3134, 1964.995
903.7955, 1958.298
904.2776, 1947.212
904.7597, 1938.440
905.2418, 1930.884
905.7239, 1932.946
906.2061, 1960.781
906.6882, 1989.443
907.1703, 1997.482
907.6524, 1979.469
908.1345, 1969.751
908.6166, 1970.496
909.0988, 1974.063
909.5809, 1975.144
910.0630, 1972.961
910.5451, 1964.054
911.0272, 1946.540
911.5093, 1933.414
911.9915, 1932.839
912.4736, 1937.397
912.9557, 1941.584
913.4378, 1944.659
913.9199, 1951.370
914.4020, 1963.651
914.8842, 1972.640
915.3663, 1968.749
915.8484, 1956.722
916.3305, 1947.416
916.8126, 1941.533
917.2947, 1936.883
917.7769, 1932.299
918.2590, 1928.469
918.7411, 1924.243
919.2232, 1918.943
919.7053, 1925.058
920.1874, 1947.753
920.6696, 1967.559
921.1517, 1970.101
921.6338, 1960.464
922.1159, 1956.388
922.5980, 1957.350
923.0801, 1959.527
923.5623, 1961.083
924.0444, 1962.647
924.5265, 1965.627
925.0086, 1969.715
925.4907, 1969.904
925.9728, 1965.967
926.4550, 1958.323
926.9371, 1945.484
927.4191, 1929.899
927.9012, 1918.409
928.3834, 1911.172
928.8655, 1908.532
929.3476, 1915.113
929.8297, 1922.311
930.3118, 1923.323
930.7939, 1920.142
931.2761, 1921.909
931.7582, 1935.202
932.2403, 1940.728
932.7224, 1930.968
933.2045, 1913.703
933.6866, 1907.042
934.1688, 1909.947
934.6509, 1918.406
935.1330, 1936.027
935.6151, 1951.470
936.0972, 1952.842
936.5793, 1946.882
937.0615, 1946.798
937.5436, 1961.219
938.0257, 1968.920
938.5078, 1967.158
938.9899, 1958.481
939.4720, 1942.858
939.9542, 1922.641
940.4363, 1911.496
940.9184, 1914.390
941.4005, 1921.249
941.8826, 1926.658
942.3647, 1930.419
942.8469, 1932.133
943.3290, 1928.590
943.8111, 1928.970
944.2932, 1935.036
944.7753, 1942.276
945.2574, 1946.103
945.7396, 1947.078
946.2217, 1948.642
946.7038, 1951.350
947.1859, 1952.054
947.6680, 1942.833
948.1501, 1934.105
948.6323, 1937.236
949.1144, 1959.308
949.5965, 1967.734
950.0786, 1955.320
950.5607, 1941.989
951.0428, 1943.594
951.5250, 1956.200
952.0071, 1954.041
952.4892, 1938.024
952.9713, 1926.246
953.4534, 1936.363
953.9355, 1950.656
954.4177, 1956.798
954.8998, 1954.169
955.3819, 1950.719
955.8640, 1945.387
956.3461, 1942.635
956.8282, 1945.216
957.3104, 1951.106
957.7925, 1955.430
958.2746, 1957.652
958.7567, 1954.780
959.2388, 1936.522
959.7209, 1921.359
960.2031, 1923.926
960.6852, 1938.024
961.1673, 1944.851
961.6494, 1940.358
962.1315, 1935.693
962.6136, 1931.295
963.0958, 1930.273
963.5779, 1942.394
964.0600, 1962.985
964.5421, 1977.180
965.0242, 1977.213
965.5063, 1976.002
965.9885, 1983.801
966.4706, 1993.012
966.9527, 1993.272
967.4348, 1980.020
967.9169, 1969.740
968.3990, 1963.173
968.8812, 1959.756
969.3633, 1960.128
969.8454, 1962.936
970.3275, 1964.856
970.8096, 1965.258
971.2917, 1966.266
971.7739, 1965.600
972.2560, 1968.637
972.7381, 1974.951
973.2202, 1981.124
973.7023, 2035.093
974.1844, 2155.783
974.6666, 2238.028
975.1487, 2171.906
975.6308, 2036.748
976.1129, 1976.821
976.5950, 1987.277
977.0771, 2000.890
977.5593, 1987.242
978.0414, 1970.528
978.5235, 1958.393
979.0056, 1951.334
979.4877, 1953.662
979.9698, 1966.318
980.4520, 1977.518
980.9341, 1982.606
981.4162, 1984.197
981.8983, 1987.036
982.3804, 1989.037
982.8625, 1985.673
983.3447, 1963.346
983.8268, 1951.752
984.3089, 1961.289
984.7910, 1978.999
985.2731, 1985.695
985.7552, 1981.424
986.2374, 1977.289
986.7195, 1974.736
987.2016, 1974.013
987.6837, 1978.166
988.1658, 1982.871
988.6479, 1982.325
989.1301, 1971.910
989.6122, 1966.519
990.0943, 1967.715
990.5764, 1972.975
991.0585, 1983.464
991.5406, 1997.551
992.0228, 2000.402
992.5049, 1992.130
992.9870, 1985.175
993.4691, 1993.733
993.9512, 2002.341
994.4333, 1996.869
994.9155, 1977.442
995.3976, 1966.976
995.8797, 1967.435
996.3618, 1973.528
996.8439, 1986.004
997.3260, 2000.492
997.8082, 2005.941
998.2903, 2003.998
998.7724, 2000.649
999.2545, 1994.842
999.7366, 1992.464
1000.219, 2000.213
1000.701, 2011.702
1001.183, 2014.914
1001.665, 2006.869
1002.147, 2003.906
1002.629, 2009.072
1003.111, 2017.245
1003.594, 2025.828
1004.076, 2031.555
1004.558, 2026.620
1005.040, 2005.227
1005.522, 1990.135
1006.004, 1993.349
1006.486, 2001.331
1006.968, 2006.179
1007.451, 2007.659
1007.933, 2012.414
1008.415, 2020.611
1008.897, 2025.426
1009.379, 2018.951
1009.861, 2008.780
1010.343, 2000.724
1010.825, 1995.448
1011.307, 1995.735
1011.790, 2006.752
1012.272, 2015.761
1012.754, 2019.232
1013.236, 2018.656
1013.718, 2017.526
1014.200, 2015.875
1014.682, 2013.692
1015.164, 2009.440
1015.646, 2006.957
1016.129, 2009.858
1016.611, 2015.536
1017.093, 2020.061
1017.575, 2023.188
1018.057, 2025.272
1018.539, 2026.129
1019.021, 2026.570
1019.503, 2027.619
1019.985, 2028.888
1020.468, 2030.814
1020.950, 2033.933
1021.432, 2031.794
1021.914, 2008.146
1022.396, 1991.905
1022.878, 2002.223
1023.360, 2037.547
1023.842, 2057.458
1024.325, 2061.718
1024.807, 2059.495
1025.289, 2049.717
1025.771, 2041.274
1026.253, 2049.782
1026.735, 2068.192
1027.217, 2072.882
1027.699, 2044.840
1028.182, 2024.098
1028.664, 2019.036
1029.146, 2021.350
1029.628, 2015.111
1030.110, 2002.474
1030.592, 1991.516
1031.074, 1981.937
1031.556, 1982.271
1032.038, 2011.575
1032.521, 2044.991
1033.003, 2056.295
1033.485, 2036.859
1033.967, 2030.312
1034.449, 2039.584
1034.931, 2048.526
1035.413, 2040.853
1035.895, 2026.287
1036.377, 2019.069
1036.860, 2019.941
1037.342, 2028.127
1037.824, 2056.844
1038.306, 2076.620
1038.788, 2076.522
1039.270, 2061.751
1039.752, 2044.392
1040.234, 2025.534
1040.717, 2020.956
1041.199, 2045.427
1041.681, 2068.652
1042.163, 2056.420
1042.645, 2029.345
1043.127, 2017.849
1043.609, 2040.085
1044.091, 2047.917
1044.573, 2036.414
1045.056, 2020.944
1045.538, 2016.651
1046.020, 2020.576
1046.502, 2027.875
1046.984, 2038.029
1047.466, 2044.782
1047.948, 2041.356
1048.430, 2037.421
1048.912, 2037.356
1049.395, 2040.901
1049.877, 2047.764
1050.359, 2058.069
1050.841, 2064.643
1051.323, 2063.120
1051.805, 2057.846
1052.287, 2052.497
1052.769, 2046.928
1053.252, 2040.702
1053.734, 2029.821
1054.216, 2025.279
1054.698, 2029.777
1055.180, 2036.907
1055.662, 2036.593
1056.144, 2032.621
1056.626, 2040.698
1057.109, 2063.894
1057.591, 2078.087
1058.073, 2057.733
1058.555, 2034.868
1059.037, 2030.159
1059.519, 2042.516
1060.001, 2054.406
1060.483, 2066.143
1060.965, 2070.947
1061.448, 2059.164
1061.930, 2044.434
1062.412, 2043.517
1062.894, 2051.892
1063.376, 2058.962
1063.858, 2059.108
1064.340, 2063.295
1064.822, 2076.308
1065.304, 2087.461
1065.786, 2077.461
1066.269, 2053.397
1066.751, 2041.422
1067.233, 2046.636
1067.715, 2051.180
1068.197, 2038.177
1068.679, 2027.042
1069.161, 2033.835
1069.643, 2057.927
1070.126, 2064.184
1070.608, 2051.207
1071.090, 2040.884
1071.572, 2049.647
1072.054, 2063.213
1072.536, 2065.983
1073.018, 2061.027
1073.500, 2055.939
1073.983, 2051.811
1074.465, 2048.342
1074.947, 2044.794
1075.429, 2043.257
1075.911, 2049.346
1076.393, 2059.583
1076.875, 2062.267
1077.357, 2054.604
1077.839, 2049.436
1078.322, 2060.692
1078.804, 2069.648
1079.286, 2061.912
1079.768, 2039.118
1080.250, 2034.272
1080.732, 2047.597
1081.214, 2062.249
1081.696, 2071.925
1082.178, 2076.084
1082.661, 2068.599
1083.143, 2055.958
1083.625, 2054.292
1084.107, 2075.094
1084.589, 2086.394
1085.071, 2083.588
1085.553, 2074.569
1086.035, 2065.833
1086.518, 2059.256
1087.000, 2060.620
1087.482, 2071.499
1087.964, 2079.339
1088.446, 2073.663
1088.928, 2069.204
1089.410, 2075.865
1089.892, 2090.082
1090.375, 2084.384
1090.857, 2061.120
1091.339, 2048.850
1091.821, 2072.027
1092.303, 2098.879
1092.785, 2106.016
1093.267, 2100.947
1093.749, 2098.220
1094.231, 2101.580
1094.714, 2096.320
1095.196, 2079.085
1095.678, 2062.358
1096.160, 2062.565
1096.642, 2070.410
1097.124, 2070.594
1097.606, 2061.469
1098.088, 2057.084
1098.570, 2061.092
1099.053, 2070.729
1099.535, 2088.747
1100.017, 2109.674
1100.499, 2117.104
1100.981, 2112.301
1101.463, 2100.437
1101.945, 2076.679
1102.427, 2056.898
1102.910, 2050.521
1103.392, 2051.748
1103.874, 2054.507
1104.356, 2059.268
1104.838, 2061.995
1105.320, 2062.442
1105.802, 2062.641
1106.284, 2062.827
1106.766, 2064.633
1107.249, 2071.898
1107.731, 2083.691
1108.213, 2088.058
1108.695, 2081.303
1109.177, 2075.532
1109.659, 2074.047
1110.141, 2075.154
1110.623, 2075.885
1111.105, 2076.946
1111.588, 2079.869
1112.070, 2085.535
1112.552, 2092.311
1113.034, 2102.035
1113.516, 2110.268
1113.998, 2114.442
1114.480, 2114.546
1114.962, 2108.146
1115.445, 2096.166
1115.927, 2086.957
1116.409, 2090.014
1116.891, 2092.889
1117.373, 2084.507
1117.855, 2071.780
1118.337, 2072.920
1118.819, 2089.966
1119.302, 2100.581
1119.784, 2099.128
1120.266, 2095.676
1120.748, 2105.891
1121.230, 2116.911
1121.712, 2111.073
1122.194, 2079.227
1122.676, 2067.777
1123.158, 2083.896
1123.641, 2101.300
1124.123, 2108.317
1124.605, 2106.273
1125.087, 2092.644
1125.569, 2072.096
1126.051, 2057.761
1126.533, 2058.021
1127.015, 2060.519
1127.497, 2062.542
1127.980, 2066.588
1128.462, 2080.003
1128.944, 2098.880
1129.426, 2099.861
1129.908, 2080.453
1130.390, 2067.348
1130.872, 2089.666
1131.354, 2109.377
1131.837, 2100.964
1132.319, 2072.385
1132.801, 2059.890
1133.283, 2063.466
1133.765, 2072.599
1134.247, 2087.482
1134.729, 2098.371
1135.211, 2090.927
1135.693, 2076.774
1136.176, 2071.798
1136.658, 2081.084
1137.140, 2084.023
1137.622, 2079.383
1138.104, 2074.141
1138.586, 2072.307
1139.068, 2073.752
1139.550, 2081.970
1140.032, 2094.200
1140.515, 2098.182
1140.997, 2085.367
1141.479, 2073.172
1141.961, 2062.208
1142.443, 2056.150
1142.925, 2068.015
1143.407, 2087.686
1143.889, 2087.198
1144.372, 2057.945
1144.854, 2037.844
1145.336, 2055.237
1145.818, 2070.582
1146.300, 2061.605
1146.782, 2036.927
1147.264, 2043.385
1147.746, 2075.405
1148.229, 2100.036
1148.711, 2096.773
1149.193, 2089.756
1149.675, 2092.500
1150.157, 2096.749
1150.639, 2090.880
1151.121, 2073.186
1151.603, 2067.047
1152.085, 2073.920
1152.568, 2080.990
1153.050, 2076.222
1153.532, 2069.205
1154.014, 2069.765
1154.496, 2075.755
1154.978, 2071.153
1155.460, 2052.119
1155.942, 2040.534
1156.424, 2042.611
1156.906, 2050.440
1157.389, 2055.675
1157.871, 2060.136
1158.353, 2067.613
1158.835, 2081.564
1159.317, 2083.207
1159.799, 2065.536
1160.281, 2053.495
1160.763, 2067.091
1161.246, 2090.739
1161.728, 2088.893
1162.210, 2069.479
1162.692, 2053.314
1163.174, 2049.911
1163.656, 2047.222
1164.138, 2042.251
1164.620, 2039.604
1165.103, 2047.407
1165.585, 2061.427
1166.067, 2065.315
1166.549, 2058.633
1167.031, 2055.255
1167.513, 2066.492
1167.995, 2077.074
1168.477, 2081.425
1168.959, 2081.443
1169.442, 2080.984
1169.924, 2080.333
1170.406, 2082.060
1170.888, 2087.982
1171.370, 2091.621
1171.852, 2087.766
1172.334, 2080.725
1172.816, 2073.445
1173.298, 2065.953
1173.781, 2059.996
1174.263, 2055.577
1174.745, 2054.675
1175.227, 2061.235
1175.709, 2068.457
1176.191, 2071.299
1176.673, 2071.694
1177.155, 2074.073
1177.638, 2080.755
1178.120, 2075.510
1178.602, 2055.519
1179.084, 2041.150
1179.566, 2059.692
1180.048, 2084.886
1180.530, 2090.726
1181.012, 2078.092
1181.495, 2066.012
1181.977, 2054.408
1182.459, 2046.330
1182.941, 2042.184
1183.423, 2042.555
1183.905, 2051.646
1184.387, 2064.060
1184.869, 2071.929
1185.351, 2072.542
1185.833, 2076.541
1186.316, 2086.030
1186.798, 2094.519
1187.280, 2100.393
1187.762, 2101.952
1188.244, 2091.558
1188.726, 2074.820
1189.208, 2064.534
1189.690, 2068.719
1190.173, 2073.726
1190.655, 2078.821
1191.137, 2084.292
1191.619, 2092.316
1192.101, 2100.455
1192.583, 2099.176
1193.065, 2090.458
1193.547, 2088.152
1194.030, 2111.395
1194.512, 2122.419
1194.994, 2108.345
1195.476, 2085.310
1195.958, 2082.302
1196.440, 2092.406
1196.922, 2092.810
1197.404, 2078.948
1197.886, 2067.183
1198.369, 2066.456
1198.851, 2067.412
1199.333, 2064.589
1199.815, 2061.212
1200.297, 2072.829
1200.779, 2094.962
1201.261, 2107.545
1201.743, 2100.707
1202.225, 2090.595
1202.708, 2078.443
1203.190, 2071.483
1203.672, 2077.905
1204.154, 2096.247
1204.636, 2104.874
1205.118, 2104.386
1205.600, 2100.277
1206.082, 2092.498
1206.565, 2085.444
1207.047, 2077.574
1207.529, 2074.103
1208.011, 2086.651
1208.493, 2114.477
1208.975, 2124.368
1209.457, 2113.472
1209.939, 2100.596
1210.422, 2097.961
1210.904, 2098.656
1211.386, 2098.618
1211.868, 2098.334
1212.350, 2099.339
1212.832, 2101.623
1213.314, 2107.803
1213.796, 2120.377
1214.278, 2128.081
1214.760, 2115.769
1215.243, 2099.536
1215.725, 2094.557
1216.207, 2100.021
1216.689, 2095.202
1217.171, 2080.059
1217.653, 2073.223
1218.135, 2088.672
1218.617, 2105.688
1219.100, 2108.608
1219.582, 2103.379
1220.064, 2097.146
1220.546, 2089.336
1221.028, 2086.494
1221.510, 2088.863
1221.992, 2090.866
1222.474, 2085.444
1222.957, 2081.335
1223.439, 2089.066
1223.921, 2102.417
1224.403, 2106.147
1224.885, 2098.637
1225.367, 2090.437
1225.849, 2082.180
1226.331, 2077.621
1226.813, 2081.169
1227.296, 2089.021
1227.778, 2101.087
1228.260, 2115.247
1228.742, 2119.687
1229.224, 2113.264
1229.706, 2105.100
1230.188, 2096.499
1230.670, 2089.649
1231.152, 2085.712
1231.635, 2085.339
1232.117, 2091.151
1232.599, 2103.365
1233.081, 2109.381
1233.563, 2108.733
1234.045, 2106.269
1234.527, 2099.853
1235.009, 2099.567
1235.492, 2131.049
1235.974, 2167.701
1236.456, 2166.480
1236.938, 2113.984
1237.420, 2088.585
1237.902, 2092.183
1238.384, 2102.771
1238.866, 2111.740
1239.349, 2115.471
1239.831, 2103.748
1240.313, 2086.153
1240.795, 2084.729
1241.277, 2104.109
1241.759, 2120.314
1242.241, 2131.941
1242.723, 2136.387
1243.205, 2127.375
1243.688, 2113.352
1244.170, 2097.746
1244.652, 2083.573
1245.134, 2080.564
1245.616, 2089.709
1246.098, 2106.442
1246.580, 2133.518
1247.062, 2150.483
1247.544, 2124.096
1248.026, 2088.893
1248.509, 2079.416
1248.991, 2094.760
1249.473, 2102.788
1249.955, 2102.587
1250.437, 2110.491
1250.919, 2137.030
1251.401, 2160.194
1251.883, 2158.617
1252.366, 2143.827
1252.848, 2124.536
1253.330, 2100.161
1253.812, 2099.552
1254.294, 2123.346
1254.776, 2140.710
1255.258, 2132.323
1255.740, 2116.719
1256.223, 2102.125
1256.705, 2092.122
1257.187, 2092.023
1257.669, 2103.916
1258.151, 2108.800
1258.633, 2106.332
1259.115, 2104.420
1259.597, 2109.334
1260.079, 2115.476
1260.562, 2110.843
1261.044, 2109.112
1261.526, 2144.059
1262.008, 2216.745
1262.490, 2233.008
1262.972, 2182.623
1263.454, 2146.108
1263.936, 2219.584
1264.418, 2285.015
1264.901, 2252.162
1265.383, 2165.407
1265.865, 2123.868
1266.347, 2123.836
1266.829, 2130.633
1267.311, 2139.541
1267.793, 2140.916
1268.275, 2119.066
1268.758, 2097.129
1269.240, 2087.054
1269.722, 2087.819
1270.204, 2099.969
1270.686, 2121.052
1271.168, 2138.900
1271.650, 2150.689
1272.132, 2155.769
1272.615, 2147.075
1273.097, 2138.085
1273.579, 2137.406
1274.061, 2142.663
1274.543, 2139.478
1275.025, 2131.245
1275.507, 2132.149
1275.989, 2155.389
1276.471, 2175.299
1276.953, 2188.908
1277.436, 2192.658
1277.918, 2178.452
1278.400, 2152.146
1278.882, 2138.002
1279.364, 2133.744
1279.846, 2130.473
1280.328, 2120.733
1280.810, 2117.840
1281.293, 2125.703
1281.775, 2136.534
1282.257, 2144.743
1282.739, 2149.076
1283.221, 2142.283
1283.703, 2127.021
1284.185, 2120.064
1284.667, 2129.382
1285.150, 2144.667
1285.632, 2168.809
1286.114, 2188.080
1286.596, 2178.465
1287.078, 2156.010
1287.560, 2144.758
1288.042, 2146.382
1288.524, 2150.848
1289.006, 2158.558
1289.489, 2163.408
##END=



