##NAMES=Tellurite
##RRUFFID=R050285
##IDEAL CHEMISTRY=Te^4+^O_2_
##LOCALITY=Mina Bambollita, Moctezuma, Sonora, Mexico
##OWNER=RRUFF
##SOURCE=Marcus Origlieri
##DESCRIPTION=Orange acicular crystals filling a fracture
##STATUS=The identification of this mineral is confirmed by single-crystal X-ray diffraction and chemical analysis.
##URL=rruff.info/R050285
##MEASURED CHEMISTRY=Te_1.00_O_2_ 
92.35352, 54.84963
92.83563, 52.48508
93.31775, 51.47905
93.79987, 52.24751
94.28198, 54.43017
94.76410, 56.98053
95.24622, 59.58311
95.72833, 62.54694
96.21045, 66.09536
96.69257, 70.17760
97.17468, 75.79800
97.65680, 83.54843
98.13892, 93.45469
98.62103, 105.7887
99.10315, 119.5915
99.58527, 135.5085
100.0674, 157.5187
100.5495, 185.5649
101.0316, 219.4423
101.5137, 258.6089
101.9958, 303.6032
102.4780, 352.9529
102.9601, 406.6715
103.4422, 465.4379
103.9243, 524.2092
104.4064, 584.8513
104.8885, 644.6477
105.3707, 700.0826
105.8528, 749.8547
106.3349, 796.3990
106.8170, 840.1403
107.2991, 880.7125
107.7813, 919.1095
108.2634, 953.9846
108.7455, 986.6686
109.2276, 1020.336
109.7097, 1054.364
110.1918, 1090.169
110.6740, 1128.399
111.1561, 1163.772
111.6382, 1207.524
112.1203, 1261.389
112.6024, 1325.101
113.0845, 1394.142
113.5667, 1459.677
114.0488, 1534.441
114.5309, 1627.894
115.0130, 1742.398
115.4951, 1874.889
115.9772, 2021.609
116.4594, 2184.087
116.9415, 2372.803
117.4236, 2592.516
117.9057, 2840.364
118.3878, 3112.083
118.8699, 3425.046
119.3521, 3750.618
119.8342, 4092.146
120.3163, 4454.688
120.7984, 4776.904
121.2805, 5040.285
121.7626, 5236.864
122.2448, 5353.031
122.7269, 5379.121
123.2090, 5323.281
123.6911, 5184.930
124.1732, 4956.699
124.6553, 4676.521
125.1375, 4348.255
125.6196, 3988.594
126.1017, 3650.362
126.5838, 3348.834
127.0659, 3092.231
127.5480, 2895.713
128.0302, 2764.866
128.5123, 2683.633
128.9944, 2635.670
129.4765, 2620.315
129.9586, 2631.364
130.4407, 2670.867
130.9229, 2734.972
131.4050, 2808.536
131.8871, 2886.652
132.3692, 2972.385
132.8513, 3070.261
133.3334, 3175.072
133.8156, 3279.147
134.2977, 3388.650
134.7798, 3514.354
135.2619, 3644.050
135.7440, 3775.016
136.2261, 3906.760
136.7083, 4049.794
137.1904, 4206.185
137.6725, 4368.716
138.1546, 4530.909
138.6367, 4691.966
139.1188, 4860.623
139.6010, 5038.851
140.0831, 5225.800
140.5652, 5430.503
141.0473, 5653.112
141.5294, 5895.503
142.0115, 6154.165
142.4937, 6424.455
142.9758, 6725.512
143.4579, 7066.078
143.9400, 7445.598
144.4221, 7857.831
144.9042, 8308.096
145.3864, 8787.838
145.8685, 9279.004
146.3506, 9837.209
146.8327, 10339.07
147.3148, 10762.33
147.7969, 11148.79
148.2791, 11360.89
148.7612, 11384.01
149.2433, 11239.24
149.7254, 10966.72
150.2075, 10478.04
150.6896, 9942.229
151.1718, 9420.518
151.6539, 8875.397
152.1360, 8396.564
152.6181, 8001.271
153.1002, 7674.772
153.5823, 7375.368
154.0645, 7147.259
154.5466, 6907.661
155.0287, 6619.165
155.5108, 6259.717
155.9929, 5867.535
156.4750, 5431.285
156.9572, 4961.767
157.4393, 4512.786
157.9214, 4075.121
158.4035, 3668.787
158.8856, 3304.819
159.3677, 2984.853
159.8499, 2706.257
160.3320, 2478.242
160.8141, 2296.568
161.2962, 2137.445
161.7783, 1997.347
162.2604, 1875.489
162.7426, 1771.204
163.2247, 1688.957
163.7068, 1619.898
164.1889, 1561.054
164.6710, 1512.721
165.1531, 1472.913
165.6353, 1441.827
166.1174, 1418.385
166.5995, 1401.428
167.0816, 1390.453
167.5637, 1385.800
168.0458, 1387.800
168.5280, 1396.409
169.0101, 1411.124
169.4922, 1432.732
169.9743, 1459.866
170.4564, 1490.539
170.9385, 1527.911
171.4207, 1566.095
171.9028, 1601.788
172.3849, 1634.886
172.8670, 1661.113
173.3491, 1680.240
173.8312, 1690.378
174.3134, 1687.832
174.7955, 1667.926
175.2776, 1635.906
175.7597, 1597.727
176.2418, 1553.383
176.7239, 1502.535
177.2061, 1442.154
177.6882, 1373.567
178.1703, 1301.692
178.6524, 1221.867
179.1345, 1141.073
179.6166, 1072.129
180.0988, 1015.455
180.5809, 968.3158
181.0630, 929.0394
181.5451, 896.6787
182.0272, 869.1543
182.5093, 844.4738
182.9915, 823.4979
183.4736, 808.8180
183.9557, 800.6405
184.4378, 797.9919
184.9199, 801.2017
185.4020, 809.5975
185.8842, 818.9155
186.3663, 826.3706
186.8484, 832.7472
187.3305, 841.1784
187.8126, 852.7142
188.2947, 864.4606
188.7769, 873.3615
189.2590, 879.3120
189.7411, 879.7293
190.2232, 871.1478
190.7053, 854.8431
191.1874, 838.7849
191.6696, 823.4656
192.1517, 808.5760
192.6338, 793.2880
193.1159, 777.5724
193.5980, 762.2257
194.0801, 747.6307
194.5623, 733.8403
195.0444, 720.9877
195.5265, 709.5824
196.0086, 698.5596
196.4907, 685.4730
196.9728, 670.1313
197.4550, 654.3102
197.9371, 638.5055
198.4192, 622.6832
198.9013, 608.4766
199.3834, 595.4316
199.8655, 584.6994
200.3477, 579.6836
200.8298, 581.2443
201.3119, 584.7733
201.7940, 587.7550
202.2761, 590.1402
202.7582, 592.5015
203.2404, 594.7151
203.7225, 597.0696
204.2046, 600.5608
204.6867, 605.5007
205.1688, 610.5422
205.6509, 614.9713
206.1331, 618.8750
206.6152, 621.8033
207.0973, 623.6968
207.5794, 624.6083
208.0615, 624.8121
208.5436, 624.5261
209.0258, 622.9529
209.5079, 619.2057
209.9900, 612.7094
210.4721, 606.7692
210.9542, 601.5236
211.4363, 597.0453
211.9185, 594.0640
212.4006, 593.6770
212.8827, 592.3671
213.3648, 587.5123
213.8469, 577.7122
214.3290, 569.4615
214.8112, 563.8249
215.2933, 559.9738
215.7754, 554.6991
216.2575, 547.5536
216.7396, 539.7925
217.2217, 531.9838
217.7038, 523.7650
218.1860, 516.6535
218.6681, 510.8212
219.1502, 506.1935
219.6323, 502.7629
220.1144, 501.0929
220.5965, 499.7128
221.0787, 497.7275
221.5608, 494.7138
222.0429, 492.2673
222.5250, 490.5003
223.0071, 489.3761
223.4892, 488.5794
223.9714, 487.1535
224.4535, 487.5465
224.9356, 491.3927
225.4177, 500.1487
225.8998, 508.8246
226.3819, 517.0892
226.8641, 525.1530
227.3462, 533.4904
227.8283, 542.2584
228.3104, 551.0360
228.7925, 559.8390
229.2746, 570.2206
229.7568, 577.1959
230.2389, 579.7669
230.7210, 579.0107
231.2031, 578.5858
231.6852, 580.4121
232.1673, 579.7404
232.6495, 574.0648
233.1316, 561.8102
233.6137, 548.0547
234.0958, 533.0280
234.5779, 516.6982
235.0600, 499.0023
235.5422, 478.6532
236.0243, 458.5115
236.5064, 439.9124
236.9885, 423.8358
237.4706, 407.0541
237.9527, 389.0578
238.4349, 370.6917
238.9170, 354.2700
239.3991, 340.2057
239.8812, 327.4627
240.3633, 315.5675
240.8454, 304.2684
241.3276, 294.5390
241.8097, 287.0766
242.2918, 281.0529
242.7739, 274.7234
243.2560, 267.7328
243.7381, 260.9841
244.2203, 254.7932
244.7024, 249.1727
245.1845, 244.0859
245.6666, 239.5784
246.1487, 235.5939
246.6308, 231.9677
247.1130, 228.8437
247.5951, 225.8260
248.0772, 222.7602
248.5593, 219.4995
249.0414, 216.7396
249.5235, 214.9544
250.0057, 213.3726
250.4878, 210.5033
250.9699, 205.2957
251.4520, 200.6640
251.9341, 197.7316
252.4162, 196.8975
252.8984, 195.6958
253.3805, 194.0176
253.8626, 192.0397
254.3447, 190.0481
254.8268, 187.9612
255.3089, 185.9561
255.7911, 184.0049
256.2732, 182.0243
256.7553, 180.7932
257.2374, 180.7251
257.7195, 180.9971
258.2017, 180.5213
258.6838, 178.8654
259.1659, 177.4610
259.6480, 176.8259
260.1301, 177.0220
260.6122, 176.3989
261.0944, 174.5115
261.5765, 172.3514
262.0586, 171.0177
262.5407, 170.8137
263.0228, 170.5874
263.5049, 169.9865
263.9871, 169.0434
264.4692, 168.7742
264.9513, 169.4604
265.4334, 170.3670
265.9155, 170.6950
266.3976, 170.0871
266.8798, 170.1050
267.3619, 171.1411
267.8440, 173.0847
268.3261, 174.9666
268.8082, 176.7315
269.2903, 178.5410
269.7725, 180.5399
270.2546, 182.7516
270.7367, 184.9402
271.2188, 187.1130
271.7009, 189.2080
272.1830, 190.9298
272.6652, 192.1192
273.1473, 193.3353
273.6294, 194.9977
274.1115, 197.1690
274.5936, 199.3947
275.0757, 201.6088
275.5579, 203.8808
276.0400, 206.3409
276.5221, 208.9902
277.0042, 211.8147
277.4863, 214.7651
277.9684, 217.8245
278.4506, 221.2515
278.9327, 225.1244
279.4148, 229.2957
279.8969, 233.3799
280.3790, 237.3173
280.8611, 241.5916
281.3433, 246.4674
281.8254, 251.9668
282.3075, 257.8076
282.7896, 264.0473
283.2717, 270.5620
283.7538, 277.5209
284.2360, 284.9796
284.7181, 291.5195
285.2002, 296.7582
285.6823, 300.6455
286.1644, 302.9583
286.6465, 303.8929
287.1287, 302.4866
287.6108, 297.0173
288.0929, 287.6160
288.5750, 276.6011
289.0571, 263.8442
289.5392, 250.0776
290.0214, 238.5450
290.5035, 229.3943
290.9856, 221.5625
291.4677, 213.6541
291.9498, 205.9197
292.4319, 200.2144
292.9141, 197.6541
293.3962, 197.1118
293.8783, 196.0340
294.3604, 194.4178
294.8425, 192.8453
295.3246, 191.9078
295.8068, 191.4303
296.2889, 190.8583
296.7710, 190.0885
297.2531, 189.1182
297.7352, 187.9475
298.2173, 186.5839
298.6995, 185.0271
299.1816, 183.1273
299.6637, 181.0502
300.1458, 179.1780
300.6279, 177.5496
301.1100, 176.1636
301.5922, 175.1342
302.0743, 174.3936
302.5564, 173.6767
303.0385, 172.8171
303.5206, 171.8799
304.0027, 170.9160
304.4849, 169.9178
304.9670, 168.9826
305.4491, 168.2771
305.9312, 167.7233
306.4133, 167.1341
306.8954, 166.4514
307.3776, 165.6720
307.8597, 164.7450
308.3418, 163.6424
308.8239, 162.6249
309.3060, 161.8726
309.7881, 161.3290
310.2703, 160.9271
310.7524, 160.7755
311.2345, 160.6497
311.7166, 160.1757
312.1987, 159.3839
312.6808, 159.1175
313.1630, 160.4374
313.6451, 162.3102
314.1272, 163.6317
314.6093, 163.4834
315.0914, 163.2077
315.5735, 163.2680
316.0557, 163.6867
316.5378, 164.5894
317.0199, 166.3629
317.5020, 168.4388
317.9841, 170.4082
318.4662, 171.8787
318.9484, 173.6275
319.4305, 176.2012
319.9126, 179.2760
320.3947, 182.0003
320.8768, 184.3236
321.3589, 186.0877
321.8411, 187.0391
322.3232, 186.5638
322.8053, 186.6927
323.2874, 188.3872
323.7695, 190.8147
324.2516, 192.6563
324.7338, 192.5452
325.2159, 192.8897
325.6980, 194.6526
326.1801, 198.2997
326.6622, 201.4745
327.1443, 203.1017
327.6265, 204.5951
328.1086, 207.4027
328.5907, 213.4164
329.0728, 218.6058
329.5549, 222.0245
330.0370, 223.6634
330.5192, 225.8712
331.0013, 228.7770
331.4834, 232.1564
331.9655, 235.8476
332.4476, 239.4864
332.9297, 244.1483
333.4119, 250.4414
333.8940, 257.8669
334.3761, 264.2500
334.8582, 269.6224
335.3403, 273.6976
335.8224, 276.0873
336.3046, 276.1439
336.7867, 276.6600
337.2688, 278.5635
337.7509, 280.2971
338.2330, 278.4597
338.7151, 272.3091
339.1973, 264.9328
339.6794, 257.2203
340.1615, 249.2188
340.6436, 241.2336
341.1257, 233.1863
341.6078, 225.5129
342.0899, 218.9054
342.5721, 213.5461
343.0542, 208.2786
343.5363, 202.5545
344.0184, 196.7340
344.5005, 192.4404
344.9826, 189.8349
345.4648, 187.8346
345.9469, 185.2934
346.4290, 182.3546
346.9111, 180.4610
347.3932, 180.0405
347.8753, 180.5525
348.3575, 181.2215
348.8396, 182.0124
349.3217, 182.5783
349.8038, 182.2828
350.2859, 181.5959
350.7680, 181.7294
351.2502, 182.9155
351.7323, 184.5741
352.2144, 185.9835
352.6965, 187.3101
353.1786, 189.0174
353.6607, 191.4332
354.1429, 194.3194
354.6250, 197.4885
355.1071, 200.9432
355.5892, 204.3871
356.0713, 207.4449
356.5534, 210.3802
357.0356, 213.5703
357.5177, 216.5511
357.9998, 220.3628
358.4819, 226.1173
358.9640, 233.5334
359.4461, 240.9212
359.9283, 247.2120
360.4104, 253.1924
360.8925, 259.4485
361.3746, 265.8264
361.8567, 272.9851
362.3388, 281.2512
362.8210, 290.4597
363.3031, 300.4239
363.7852, 311.0217
364.2673, 322.3963
364.7494, 334.7243
365.2315, 348.2162
365.7137, 361.9946
366.1958, 374.8395
366.6779, 388.1001
367.1600, 403.4813
367.6421, 423.3217
368.1242, 443.0645
368.6064, 460.9953
369.0885, 476.9809
369.5706, 495.8083
370.0527, 519.1394
370.5348, 544.1243
371.0169, 569.2076
371.4991, 593.2179
371.9812, 618.8397
372.4633, 646.2261
372.9454, 675.4747
373.4275, 706.3842
373.9096, 739.7498
374.3918, 774.0319
374.8739, 807.6461
375.3560, 840.4139
375.8381, 874.9920
376.3202, 911.1345
376.8023, 948.8781
377.2845, 988.5046
377.7666, 1029.924
378.2487, 1072.031
378.7308, 1113.401
379.2129, 1154.770
379.6950, 1197.424
380.1772, 1241.862
380.6593, 1286.811
381.1414, 1332.007
381.6235, 1377.043
382.1056, 1422.058
382.5877, 1466.795
383.0699, 1511.316
383.5520, 1555.579
384.0341, 1599.944
384.5162, 1643.909
384.9983, 1689.588
385.4804, 1734.751
385.9626, 1775.254
386.4447, 1810.738
386.9268, 1841.275
387.4089, 1865.777
387.8910, 1885.462
388.3731, 1902.494
388.8553, 1918.648
389.3374, 1932.156
389.8195, 1941.735
390.3016, 1947.179
390.7837, 1947.477
391.2658, 1940.892
391.7480, 1929.216
392.2301, 1914.259
392.7122, 1896.302
393.1943, 1875.550
393.6764, 1853.429
394.1585, 1828.801
394.6407, 1798.921
395.1228, 1760.367
395.6049, 1718.246
396.0870, 1674.196
396.5691, 1628.058
397.0512, 1582.060
397.5334, 1536.746
398.0155, 1491.554
398.4976, 1446.401
398.9797, 1400.420
399.4618, 1354.927
399.9439, 1309.696
400.4261, 1264.735
400.9082, 1221.750
401.3903, 1181.492
401.8724, 1142.460
402.3545, 1103.195
402.8366, 1061.957
403.3188, 1025.374
403.8009, 995.2916
404.2830, 969.4506
404.7651, 941.5886
405.2472, 910.5910
405.7293, 881.5472
406.2115, 856.7303
406.6936, 836.4355
407.1757, 817.4689
407.6578, 799.9911
408.1399, 783.2967
408.6220, 766.2922
409.1042, 748.9951
409.5863, 732.0450
410.0684, 715.2546
410.5505, 699.2294
411.0326, 684.8566
411.5147, 672.0439
411.9969, 659.7898
412.4790, 647.8676
412.9611, 635.7699
413.4432, 622.1110
413.9253, 606.1397
414.4074, 590.2799
414.8896, 577.4531
415.3717, 566.7183
415.8538, 555.9517
416.3359, 544.5663
416.8180, 532.5026
417.3001, 519.5201
417.7823, 505.5034
418.2644, 491.9981
418.7465, 479.7340
419.2286, 468.1415
419.7107, 456.7615
420.1928, 444.5882
420.6750, 433.5836
421.1571, 425.5778
421.6392, 419.3376
422.1213, 411.8752
422.6034, 400.8193
423.0855, 389.7631
423.5677, 379.8848
424.0498, 371.2353
424.5319, 364.2144
425.0140, 360.5446
425.4961, 357.6717
425.9782, 352.9280
426.4604, 344.1943
426.9425, 336.7184
427.4246, 331.5627
427.9067, 328.3740
428.3888, 325.0827
428.8709, 321.8743
429.3531, 318.2556
429.8352, 313.5579
430.3173, 307.3594
430.7994, 302.6518
431.2815, 299.7793
431.7636, 297.9856
432.2458, 296.4116
432.7279, 295.1032
433.2100, 293.1143
433.6921, 289.5861
434.1742, 285.1826
434.6563, 282.7864
435.1385, 282.4296
435.6206, 282.1181
436.1027, 279.8799
436.5848, 276.3399
437.0669, 273.2106
437.5490, 270.8712
438.0312, 268.8826
438.5133, 266.5027
438.9954, 264.0085
439.4775, 262.1655
439.9596, 262.2914
440.4417, 262.6647
440.9239, 261.5844
441.4060, 258.9540
441.8881, 256.1474
442.3702, 253.6512
442.8523, 251.5265
443.3344, 249.8376
443.8166, 249.5405
444.2987, 248.5767
444.7808, 245.6488
445.2629, 241.4809
445.7450, 238.1745
446.2271, 236.7197
446.7093, 235.7821
447.1914, 235.0402
447.6735, 234.7537
448.1556, 233.6950
448.6377, 231.4519
449.1198, 228.7252
449.6020, 226.1005
450.0841, 223.2350
450.5662, 221.3803
451.0483, 221.2105
451.5304, 222.1781
452.0125, 221.7286
452.4947, 219.5005
452.9768, 216.9588
453.4589, 214.7964
453.9410, 213.0005
454.4231, 211.5767
454.9052, 210.5476
455.3874, 209.7344
455.8695, 209.0345
456.3516, 208.3947
456.8337, 207.4161
457.3158, 205.6449
457.7979, 203.7182
458.2801, 203.1603
458.7622, 203.7455
459.2443, 203.8462
459.7264, 201.5081
460.2085, 198.3505
460.6906, 196.8045
461.1728, 197.5887
461.6549, 198.2511
462.1370, 196.5461
462.6191, 193.7057
463.1012, 191.5694
463.5833, 191.3495
464.0655, 191.4818
464.5476, 191.4270
465.0297, 191.1642
465.5118, 190.6712
465.9939, 189.7193
466.4760, 188.7002
466.9582, 187.8540
467.4403, 187.4538
467.9224, 186.7362
468.4045, 185.3615
468.8866, 183.8047
469.3687, 182.7195
469.8509, 182.2220
470.3330, 182.0325
470.8151, 182.1554
471.2972, 182.5639
471.7793, 183.0620
472.2614, 183.8183
472.7436, 184.2228
473.2257, 183.6103
473.7078, 181.9536
474.1899, 180.9318
474.6720, 180.8049
475.1541, 180.9510
475.6363, 180.2714
476.1184, 178.9301
476.6005, 177.9869
477.0826, 177.9882
477.5647, 178.5689
478.0468, 179.5436
478.5290, 180.7912
479.0111, 181.2088
479.4932, 179.1693
479.9753, 176.2289
480.4574, 174.3012
480.9395, 173.9720
481.4217, 173.8517
481.9038, 172.7549
482.3859, 171.4046
482.8680, 170.8833
483.3501, 172.9146
483.8322, 174.5033
484.3144, 174.2672
484.7965, 172.3154
485.2786, 170.6540
485.7607, 169.3803
486.2428, 168.6440
486.7249, 168.5972
487.2071, 169.8406
487.6892, 170.4809
488.1713, 170.3657
488.6534, 169.7565
489.1355, 168.9747
489.6176, 167.9306
490.0998, 166.9525
490.5819, 166.0049
491.0640, 165.1830
491.5461, 165.1878
492.0282, 166.1569
492.5103, 166.9568
492.9925, 166.6691
493.4746, 165.4854
493.9567, 164.4059
494.4388, 163.4899
494.9209, 162.6654
495.4030, 161.8312
495.8852, 161.0129
496.3673, 160.2377
496.8494, 159.2824
497.3315, 158.6031
497.8136, 159.0945
498.2957, 160.3947
498.7779, 161.0027
499.2600, 159.2441
499.7421, 157.1308
500.2242, 156.1690
500.7063, 156.7950
501.1884, 157.3865
501.6706, 157.6781
502.1527, 157.6018
502.6348, 157.0785
503.1169, 155.4397
503.5990, 154.1441
504.0811, 153.3935
504.5633, 153.1100
505.0454, 153.1044
505.5275, 153.8916
506.0096, 154.0463
506.4917, 152.6288
506.9738, 149.3736
507.4560, 147.9021
507.9381, 148.7243
508.4202, 149.9519
508.9023, 149.3631
509.3844, 147.0922
509.8665, 145.5059
510.3487, 145.1175
510.8308, 145.4691
511.3129, 146.1402
511.7950, 146.9979
512.2772, 147.4188
512.7593, 146.8424
513.2414, 145.7719
513.7235, 144.6773
514.2056, 143.5864
514.6877, 142.7162
515.1699, 142.3843
515.6520, 142.2424
516.1341, 141.9479
516.6162, 141.2820
517.0983, 140.7379
517.5804, 140.5130
518.0626, 140.4998
518.5447, 140.5228
519.0268, 140.6477
519.5089, 140.7049
519.9910, 140.7076
520.4731, 140.6446
520.9553, 140.2445
521.4374, 139.0725
521.9195, 138.2185
522.4016, 138.4754
522.8837, 140.1701
523.3658, 141.2101
523.8480, 141.4630
524.3301, 141.3105
524.8122, 141.1115
525.2943, 140.8868
525.7764, 140.9945
526.2585, 141.6393
526.7407, 142.5495
527.2228, 143.2748
527.7049, 143.8360
528.1870, 144.3329
528.6691, 144.9526
529.1512, 145.4821
529.6334, 145.4671
530.1155, 144.8474
530.5976, 144.6246
531.0797, 145.8564
531.5618, 147.5608
532.0439, 148.7483
532.5261, 148.9242
533.0082, 148.9380
533.4903, 148.6534
533.9724, 148.3828
534.4545, 148.8001
534.9366, 150.6388
535.4188, 152.3966
535.9009, 153.7014
536.3830, 154.5659
536.8651, 155.4733
537.3472, 156.3866
537.8293, 157.4173
538.3115, 158.6355
538.7936, 160.0422
539.2757, 161.7063
539.7578, 163.8010
540.2399, 165.6427
540.7220, 165.7600
541.2042, 164.5647
541.6863, 164.5467
542.1684, 167.1804
542.6505, 170.5279
543.1326, 171.4392
543.6147, 170.5207
544.0969, 170.1160
544.5790, 172.0471
545.0611, 174.7630
545.5432, 177.1210
546.0253, 179.0149
546.5074, 180.5360
546.9896, 181.2815
547.4717, 181.8992
547.9538, 182.9174
548.4359, 184.7774
548.9180, 186.5631
549.4001, 188.1250
549.8823, 189.6063
550.3644, 191.2453
550.8465, 193.1111
551.3286, 195.0596
551.8107, 197.1667
552.2928, 199.3640
552.7750, 200.9012
553.2571, 201.6013
553.7392, 202.5487
554.2213, 204.7083
554.7034, 207.8128
555.1855, 210.4558
555.6677, 212.5639
556.1498, 214.2572
556.6319, 215.2455
557.1140, 215.9385
557.5961, 217.1760
558.0782, 219.2560
558.5604, 221.8629
559.0425, 225.1861
559.5246, 228.8255
560.0067, 231.8685
560.4888, 232.8084
560.9709, 234.0691
561.4531, 237.0297
561.9352, 241.7345
562.4173, 245.9694
562.8994, 249.1964
563.3815, 252.0683
563.8636, 254.8355
564.3458, 257.1157
564.8279, 260.3505
565.3100, 264.9004
565.7921, 269.9962
566.2742, 274.5540
566.7563, 278.5230
567.2385, 282.5982
567.7206, 286.6575
568.2027, 291.2177
568.6848, 297.4210
569.1669, 305.1831
569.6490, 313.2746
570.1312, 320.9581
570.6133, 328.7206
571.0954, 337.2663
571.5775, 346.6740
572.0596, 356.1744
572.5417, 364.9702
573.0239, 373.9586
573.5060, 383.7578
573.9881, 394.5966
574.4702, 406.1739
574.9523, 418.9516
575.4344, 432.3802
575.9166, 445.5944
576.3987, 458.2424
576.8808, 471.3678
577.3629, 485.2726
577.8450, 499.7935
578.3271, 514.5969
578.8093, 529.6445
579.2914, 544.9305
579.7735, 560.1559
580.2556, 575.2894
580.7377, 591.8160
581.2198, 609.6864
581.7020, 628.6495
582.1841, 649.3061
582.6662, 670.7277
583.1483, 691.0038
583.6304, 709.4349
584.1125, 727.4258
584.5947, 746.7366
585.0768, 766.2103
585.5589, 784.1686
586.0410, 800.3670
586.5231, 814.6058
587.0052, 825.9689
587.4873, 835.2191
587.9694, 844.1766
588.4515, 856.3724
588.9337, 865.1183
589.4158, 868.6644
589.8979, 867.0090
590.3800, 861.7969
590.8621, 853.2049
591.3442, 840.6569
591.8264, 823.5314
592.3085, 801.5923
592.7906, 777.0859
593.2727, 749.4511
593.7548, 721.1835
594.2369, 695.0125
594.7191, 670.3091
595.2012, 645.1406
595.6833, 618.3923
596.1654, 591.8439
596.6475, 566.7032
597.1296, 543.3880
597.6118, 522.2713
598.0939, 504.1493
598.5760, 487.7870
599.0581, 472.4879
599.5402, 458.5030
600.0223, 445.8160
600.5045, 434.5717
600.9866, 424.5839
601.4687, 415.5129
601.9508, 407.1259
602.4329, 400.7819
602.9150, 397.2702
603.3972, 394.7713
603.8793, 391.3637
604.3614, 386.7692
604.8435, 384.1698
605.3256, 384.2855
605.8077, 385.7273
606.2899, 386.1100
606.7720, 385.8020
607.2541, 386.5776
607.7362, 389.5189
608.2183, 393.4074
608.7004, 396.4266
609.1826, 399.0684
609.6647, 402.9303
610.1468, 409.4789
610.6289, 417.0565
611.1110, 424.4879
611.5931, 431.7676
612.0753, 439.9225
612.5574, 450.4450
613.0395, 460.9997
613.5216, 469.9018
614.0037, 475.2701
614.4858, 484.3225
614.9680, 498.3392
615.4501, 514.3048
615.9322, 528.3038
616.4143, 540.0834
616.8964, 553.4833
617.3785, 569.0958
617.8607, 586.6555
618.3428, 606.0022
618.8249, 626.9792
619.3070, 648.9432
619.7891, 670.9600
620.2712, 694.2699
620.7534, 719.9327
621.2355, 748.0782
621.7176, 778.2366
622.1997, 810.8856
622.6818, 844.9672
623.1639, 879.2955
623.6461, 913.0563
624.1282, 952.3770
624.6103, 999.4476
625.0924, 1050.869
625.5745, 1103.971
626.0566, 1157.310
626.5388, 1218.268
627.0209, 1286.784
627.5030, 1362.127
627.9851, 1443.573
628.4672, 1530.413
628.9493, 1621.910
629.4315, 1716.223
629.9136, 1818.358
630.3957, 1935.991
630.8778, 2067.095
631.3599, 2204.367
631.8420, 2344.156
632.3242, 2488.845
632.8063, 2640.425
633.2884, 2797.775
633.7705, 2961.781
634.2526, 3135.108
634.7347, 3312.883
635.2169, 3493.926
635.6990, 3675.733
636.1811, 3866.775
636.6632, 4063.599
637.1453, 4274.913
637.6274, 4506.232
638.1096, 4761.692
638.5917, 5020.596
639.0738, 5282.703
639.5559, 5552.278
640.0380, 5843.195
640.5201, 6152.212
641.0023, 6458.860
641.4844, 6765.278
641.9665, 7060.178
642.4486, 7345.145
642.9307, 7616.858
643.4128, 7863.569
643.8950, 8100.541
644.3771, 8295.264
644.8592, 8441.922
645.3413, 8536.802
645.8234, 8569.686
646.3055, 8544.813
646.7877, 8447.776
647.2698, 8270.710
647.7519, 8011.044
648.2340, 7692.759
648.7161, 7306.877
649.1982, 6889.509
649.6804, 6462.645
650.1625, 6027.796
650.6446, 5595.741
651.1267, 5166.847
651.6088, 4753.852
652.0909, 4370.814
652.5731, 4019.514
653.0552, 3698.156
653.5373, 3408.487
654.0194, 3149.876
654.5015, 2920.285
654.9836, 2716.808
655.4658, 2533.552
655.9479, 2374.562
656.4300, 2230.066
656.9121, 2096.554
657.3942, 1974.853
657.8763, 1869.847
658.3585, 1785.556
658.8406, 1706.870
659.3227, 1628.833
659.8048, 1552.194
660.2869, 1484.890
660.7690, 1427.033
661.2512, 1374.785
661.7333, 1328.200
662.2154, 1285.217
662.6975, 1241.787
663.1796, 1197.859
663.6617, 1156.608
664.1439, 1122.477
664.6260, 1090.697
665.1081, 1056.187
665.5902, 1016.622
666.0723, 980.9250
666.5544, 953.8015
667.0366, 930.2037
667.5187, 905.1934
668.0008, 876.8397
668.4829, 851.0464
668.9650, 828.3011
669.4471, 808.3999
669.9293, 791.2705
670.4114, 776.9349
670.8935, 763.4155
671.3756, 750.3485
671.8577, 737.5336
672.3398, 724.0793
672.8220, 710.2567
673.3041, 697.2464
673.7862, 685.7662
674.2683, 675.1794
674.7504, 665.0016
675.2325, 655.2731
675.7147, 646.5157
676.1968, 640.2388
676.6789, 633.5449
677.1610, 624.9545
677.6431, 614.2759
678.1252, 604.7991
678.6074, 597.0030
679.0895, 589.6671
679.5716, 582.1627
680.0537, 574.4310
680.5358, 566.9731
681.0179, 559.8890
681.5001, 552.6058
681.9822, 544.4899
682.4643, 535.8358
682.9464, 527.3882
683.4285, 519.1608
683.9106, 511.3130
684.3928, 504.3718
684.8749, 497.6271
685.3570, 490.1209
685.8391, 480.5937
686.3212, 471.4699
686.8033, 463.2618
687.2855, 455.5649
687.7676, 447.7722
688.2497, 439.7638
688.7318, 431.6842
689.2139, 423.3773
689.6960, 415.0834
690.1782, 407.7334
690.6603, 401.2964
691.1424, 395.1822
691.6245, 389.0937
692.1066, 383.0861
692.5887, 377.2827
693.0709, 371.6767
693.5530, 366.2062
694.0351, 361.3333
694.5172, 356.2406
694.9993, 350.2300
695.4814, 343.2332
695.9636, 336.5600
696.4457, 330.0307
696.9278, 324.2302
697.4099, 319.6808
697.8920, 316.7043
698.3741, 312.6140
698.8563, 307.0394
699.3384, 301.4924
699.8205, 297.6636
700.3026, 295.1372
700.7847, 291.6354
701.2668, 286.8096
701.7490, 281.8917
702.2311, 278.0121
702.7132, 274.7911
703.1953, 271.7556
703.6774, 268.9574
704.1595, 265.9527
704.6417, 262.1382
705.1238, 258.1300
705.6059, 254.8388
706.0880, 252.2948
706.5701, 250.4516
707.0522, 249.5643
707.5344, 249.1853
708.0165, 248.2356
708.4986, 246.6394
708.9807, 245.7687
709.4628, 246.3826
709.9449, 247.5225
710.4271, 246.9869
710.9092, 245.3006
711.3913, 244.3926
711.8734, 245.7348
712.3555, 247.8228
712.8376, 249.7646
713.3198, 251.5753
713.8019, 253.3813
714.2840, 255.1973
714.7661, 257.0620
715.2482, 258.9425
715.7303, 260.8444
716.2125, 263.0594
716.6946, 265.8431
717.1767, 268.2856
717.6588, 269.6158
718.1409, 270.0291
718.6230, 271.1960
719.1052, 273.1606
719.5873, 274.5461
720.0694, 274.1456
720.5515, 272.6014
721.0336, 270.5471
721.5157, 268.0078
721.9979, 265.6114
722.4800, 263.4372
722.9621, 261.6357
723.4442, 260.3694
723.9263, 259.9745
724.4084, 259.4096
724.8906, 258.6355
725.3727, 257.7265
725.8548, 256.6750
726.3369, 255.4423
726.8190, 254.4546
727.3011, 253.7170
727.7833, 253.4181
728.2654, 254.5480
728.7475, 256.2790
729.2296, 256.4801
729.7117, 253.8640
730.1938, 251.0343
730.6760, 249.9828
731.1581, 249.8261
731.6402, 249.1825
732.1223, 247.8699
732.6044, 245.8608
733.0865, 243.3251
733.5687, 240.0844
734.0508, 235.6031
734.5329, 229.5746
735.0150, 223.5316
735.4971, 217.8873
735.9792, 212.3918
736.4614, 206.5351
736.9435, 200.3303
737.4256, 193.8458
737.9077, 186.3664
738.3898, 179.1756
738.8719, 173.6584
739.3541, 169.5019
739.8362, 165.7000
740.3183, 162.0398
740.8004, 158.5241
741.2825, 154.9220
741.7646, 151.3257
742.2468, 148.9146
742.7289, 148.2615
743.2110, 147.3505
743.6931, 144.9215
744.1752, 141.4049
744.6573, 139.1484
745.1395, 138.1649
745.6216, 138.2674
746.1037, 140.4704
746.5858, 143.0659
747.0679, 143.4809
747.5500, 141.7146
748.0322, 140.5974
748.5143, 141.6419
748.9964, 143.5612
749.4785, 145.7519
749.9606, 148.3127
750.4427, 150.3947
750.9249, 151.6876
751.4070, 153.0782
751.8891, 155.1197
752.3712, 157.8261
752.8533, 161.1284
753.3354, 165.1161
753.8176, 169.0976
754.2997, 172.1772
754.7818, 174.9167
755.2639, 178.1498
755.7460, 181.9453
756.2281, 186.4428
756.7103, 192.2031
757.1924, 198.3792
757.6745, 204.0843
758.1566, 208.1436
758.6387, 213.9980
759.1208, 222.5584
759.6030, 231.8977
760.0851, 240.0767
760.5672, 247.1315
761.0493, 253.7502
761.5314, 259.8683
762.0135, 266.1619
762.4957, 274.5092
762.9778, 283.3686
763.4599, 289.7096
763.9420, 291.8690
764.4241, 293.4951
764.9063, 297.7455
765.3884, 302.1321
765.8705, 303.5674
766.3526, 299.3198
766.8347, 295.4776
767.3168, 292.8284
767.7990, 290.1640
768.2811, 285.2678
768.7632, 277.9995
769.2453, 271.4415
769.7274, 266.3684
770.2095, 262.0035
770.6917, 257.1249
771.1738, 252.1665
771.6559, 248.0543
772.1380, 245.6814
772.6201, 243.4883
773.1022, 239.9323
773.5844, 236.1625
774.0665, 234.3037
774.5486, 236.0719
775.0307, 237.6138
775.5128, 238.2934
775.9949, 238.6002
776.4771, 239.8092
776.9592, 241.9837
777.4413, 243.4157
777.9234, 243.1724
778.4055, 242.6565
778.8876, 244.6107
779.3698, 248.0616
779.8519, 250.5121
780.3340, 249.9801
780.8161, 249.0466
781.2982, 249.5012
781.7803, 250.4727
782.2625, 249.4491
782.7446, 244.9548
783.2267, 240.8214
783.7088, 238.2370
784.1909, 236.2561
784.6730, 231.9158
785.1552, 225.2212
785.6373, 218.2486
786.1194, 211.7113
786.6015, 205.5273
787.0836, 199.8165
787.5657, 194.4579
788.0479, 189.1406
788.5300, 183.6416
789.0121, 178.3679
789.4942, 173.4468
789.9763, 168.9389
790.4584, 165.0977
790.9406, 162.3694
791.4227, 159.4698
791.9048, 155.9375
792.3869, 152.0799
792.8690, 148.9264
793.3511, 146.4223
793.8333, 144.1248
794.3154, 141.9855
794.7975, 139.7989
795.2796, 137.0721
795.7617, 134.0523
796.2438, 131.6598
796.7260, 131.0692
797.2081, 130.3068
797.6902, 128.4216
798.1723, 125.7253
798.6544, 123.3548
799.1365, 121.2589
799.6187, 119.7103
800.1008, 119.0099
800.5829, 118.7855
801.0650, 117.7903
801.5471, 116.1582
802.0292, 114.7234
802.5114, 114.5638
802.9935, 114.3110
803.4756, 112.4544
803.9577, 109.4108
804.4398, 106.6177
804.9219, 104.1735
805.4041, 102.4292
805.8862, 101.9411
806.3683, 102.2118
806.8504, 100.9126
807.3325, 97.60913
807.8146, 94.86188
808.2968, 93.79881
808.7789, 93.74269
809.2610, 93.47820
809.7431, 92.94461
810.2252, 91.89299
810.7073, 89.48293
811.1895, 87.17464
811.6716, 86.11240
812.1537, 85.95174
812.6358, 85.36612
813.1179, 83.39804
813.6000, 82.08076
814.0822, 82.25436
814.5643, 83.29691
815.0464, 82.72423
815.5285, 80.50611
816.0106, 78.57981
816.4927, 77.93269
816.9749, 77.82225
817.4570, 77.03371
817.9391, 75.83713
818.4212, 74.98764
818.9033, 75.17221
819.3854, 75.42187
819.8676, 75.59184
820.3497, 75.51093
820.8318, 74.58150
821.3139, 72.12086
821.7960, 70.49186
822.2781, 70.52163
822.7603, 71.50728
823.2424, 71.79346
823.7245, 71.45409
824.2066, 70.95833
824.6887, 70.40629
825.1708, 69.88708
825.6530, 69.61935
826.1351, 69.42934
826.6172, 68.94405
827.0993, 67.36304
827.5814, 66.33137
828.0635, 66.26481
828.5457, 66.86684
829.0278, 67.71010
829.5099, 68.92824
829.9920, 69.40692
830.4741, 68.73648
830.9562, 67.47462
831.4384, 66.19266
831.9205, 65.03681
832.4026, 64.38471
832.8847, 64.63206
833.3668, 65.03047
833.8489, 65.30869
834.3311, 65.45725
834.8132, 65.42652
835.2953, 64.93126
835.7774, 64.85837
836.2595, 65.50303
836.7416, 66.33952
837.2238, 66.50060
837.7059, 66.03986
838.1880, 65.37680
838.6701, 64.48521
839.1522, 63.79224
839.6343, 63.94118
840.1165, 64.49525
840.5986, 64.82092
841.0807, 64.52965
841.5628, 64.36498
842.0449, 64.76236
842.5270, 65.15349
843.0092, 64.82603
843.4913, 63.53991
843.9734, 63.04569
844.4555, 63.69691
844.9376, 64.41090
845.4197, 63.55120
845.9019, 61.86222
846.3840, 60.92850
846.8661, 61.14390
847.3482, 61.65930
847.8303, 62.27523
848.3124, 62.80462
848.7946, 63.07707
849.2767, 63.07736
849.7588, 62.79341
850.2409, 62.07965
850.7230, 61.35633
851.2051, 60.97645
851.6873, 60.91659
852.1694, 61.05317
852.6515, 61.38595
853.1336, 61.73711
853.6157, 62.15435
854.0978, 62.39799
854.5800, 62.17052
855.0621, 61.38338
855.5442, 60.61065
856.0263, 59.65549
856.5084, 59.09742
856.9905, 59.47854
857.4727, 60.80082
857.9548, 60.81069
858.4369, 59.36813
858.9190, 58.14732
859.4011, 58.75881
859.8832, 60.12769
860.3654, 60.50884
860.8475, 59.94722
861.3296, 59.31161
861.8117, 58.95617
862.2938, 58.66185
862.7759, 58.29631
863.2581, 57.88029
863.7402, 57.56968
864.2223, 57.34982
864.7044, 57.30441
865.1865, 57.54924
865.6686, 57.93643
866.1508, 58.14348
866.6329, 58.16347
867.1150, 57.95949
867.5971, 57.28900
868.0792, 56.60532
868.5613, 56.08216
869.0435, 55.75278
869.5256, 55.76147
870.0077, 56.36681
870.4898, 56.84225
870.9719, 57.10933
871.4540, 57.12393
871.9362, 56.61287
872.4183, 55.66998
872.9004, 55.06129
873.3825, 55.12816
873.8646, 55.39008
874.3467, 55.55996
874.8289, 55.56550
875.3110, 55.29195
875.7931, 54.23284
876.2752, 53.54256
876.7573, 53.30529
877.2394, 53.46103
877.7216, 54.15619
878.2037, 55.45668
878.6858, 55.96627
879.1679, 55.42927
879.6500, 54.55543
880.1321, 53.86758
880.6143, 53.43618
881.0964, 53.49282
881.5785, 54.25365
882.0606, 54.67176
882.5427, 54.03853
883.0248, 53.19521
883.5070, 52.74558
883.9891, 52.77649
884.4712, 52.60643
884.9533, 52.17823
885.4354, 51.84599
885.9175, 52.03695
886.3997, 52.47812
886.8818, 52.67300
887.3639, 52.59313
887.8460, 52.20560
888.3281, 50.90978
888.8102, 49.82957
889.2924, 49.83192
889.7745, 50.82586
890.2566, 51.19990
890.7387, 50.70594
891.2208, 50.35552
891.7029, 50.72348
892.1851, 51.42032
892.6672, 51.33556
893.1493, 50.63057
893.6314, 50.00638
894.1135, 49.85673
894.5956, 49.84614
895.0778, 49.81020
895.5599, 49.76711
896.0420, 49.77652
896.5241, 49.90635
897.0062, 49.93581
897.4883, 49.77431
897.9705, 49.57497
898.4526, 49.70371
898.9347, 50.06800
899.4168, 50.22763
899.8989, 50.04055
900.3810, 49.72486
900.8632, 49.33272
901.3453, 48.96662
901.8274, 48.74702
902.3095, 48.85853
902.7916, 48.80728
903.2737, 48.45953
903.7559, 48.14003
904.2380, 48.20229
904.7201, 48.59735
905.2022, 48.85360
905.6843, 48.93881
906.1664, 48.95735
906.6486, 49.05369
907.1307, 49.07911
907.6128, 48.78976
908.0949, 48.13684
908.5770, 47.83489
909.0591, 48.30865
909.5413, 48.67538
910.0234, 48.50665
910.5055, 47.91820
910.9876, 47.67820
911.4697, 47.76548
911.9518, 47.77656
912.4340, 47.18429
912.9161, 46.64460
913.3982, 47.18441
913.8803, 48.33799
914.3624, 48.80315
914.8445, 47.44440
915.3267, 46.34669
915.8088, 45.91373
916.2909, 45.90223
916.7730, 45.83774
917.2551, 45.72414
917.7372, 45.75669
918.2194, 46.01845
918.7015, 46.31274
919.1836, 46.33019
919.6657, 46.28393
920.1478, 46.49950
920.6299, 47.28633
921.1121, 47.82174
921.5942, 47.98109
922.0763, 47.88890
922.5584, 47.63143
923.0405, 47.20910
923.5226, 46.46043
924.0048, 45.34618
924.4869, 44.54702
924.9690, 44.87676
925.4511, 45.65375
925.9332, 46.19484
926.4153, 46.44705
926.8975, 46.43778
927.3796, 45.70588
927.8617, 45.25994
928.3438, 45.64968
928.8259, 46.59315
929.3080, 46.41148
929.7902, 45.13036
930.2723, 44.21773
930.7544, 44.56604
931.2365, 45.32604
931.7186, 45.58103
932.2007, 45.49696
932.6829, 45.41436
933.1650, 45.45231
933.6471, 45.47471
934.1292, 45.45802
934.6113, 45.42371
935.0934, 45.40985
935.5756, 45.41589
936.0577, 45.41294
936.5398, 45.41768
937.0219, 45.28005
937.5040, 44.58923
937.9861, 43.81280
938.4683, 43.58364
938.9504, 44.14625
939.4325, 44.47499
939.9146, 44.22530
940.3967, 43.93785
940.8788, 43.93731
941.3610, 44.18483
941.8431, 44.11280
942.3252, 43.73312
942.8073, 43.40546
943.2894, 43.46711
943.7715, 43.60090
944.2537, 43.42869
944.7358, 43.06412
945.2179, 42.94354
945.7000, 43.44862
946.1821, 43.80519
946.6642, 43.84724
947.1464, 43.70637
947.6285, 43.70367
948.1106, 43.80019
948.5927, 43.66421
949.0748, 43.14846
949.5569, 42.59146
950.0391, 42.22791
950.5212, 42.02248
951.0033, 41.93326
951.4854, 41.92534
951.9675, 42.15155
952.4496, 42.77520
952.9318, 43.34471
953.4139, 43.48100
953.8960, 43.24666
954.3781, 42.99252
954.8602, 42.72642
955.3423, 42.41822
955.8245, 41.93021
956.3066, 41.49610
956.7887, 41.31738
957.2708, 41.36889
957.7529, 41.38534
958.2350, 41.37556
958.7172, 41.26772
959.1993, 40.98111
959.6814, 40.66499
960.1635, 40.67835
960.6456, 40.94034
961.1277, 41.22028
961.6099, 41.55202
962.0920, 41.65921
962.5741, 41.13171
963.0562, 40.43298
963.5383, 40.11099
964.0204, 40.31840
964.5026, 40.57404
964.9847, 40.98988
965.4668, 41.04432
965.9489, 39.62927
966.4310, 37.70045
966.9131, 37.49137
967.3953, 39.00594
967.8774, 40.38798
968.3595, 40.62714
968.8416, 40.58015
969.3237, 40.63688
969.8058, 40.75715
970.2880, 40.68201
970.7701, 40.38075
971.2522, 40.15813
971.7343, 40.19563
972.2164, 40.22318
972.6985, 39.63036
973.1807, 38.78093
973.6628, 38.39574
974.1449, 39.07229
974.6270, 39.58893
975.1091, 39.56673
975.5912, 39.43563
976.0734, 39.65923
976.5555, 40.25094
977.0376, 40.43564
977.5197, 40.15728
978.0018, 39.81912
978.4839, 39.76099
978.9661, 39.79681
979.4482, 39.70564
979.9303, 39.48869
980.4124, 39.41753
980.8945, 39.55721
981.3766, 39.80994
981.8588, 40.18762
982.3409, 40.63148
982.8230, 40.99821
983.3051, 41.28593
983.7872, 41.47813
984.2693, 41.53027
984.7515, 41.55968
985.2336, 41.70890
985.7157, 41.85687
986.1978, 41.83021
986.6799, 41.51911
987.1620, 41.24990
987.6442, 40.98354
988.1263, 40.86922
988.6084, 41.17523
989.0905, 41.70677
989.5726, 41.97073
990.0547, 41.96133
990.5369, 41.89164
991.0190, 41.79475
991.5011, 41.74363
991.9832, 41.81289
992.4653, 41.95495
992.9474, 41.97308
993.4296, 41.84015
993.9117, 41.87298
994.3938, 42.25782
994.8759, 42.64257
995.3580, 42.33886
995.8401, 41.78093
996.3223, 41.70967
996.8044, 42.70233
997.2865, 43.31915
997.7686, 43.27111
998.2507, 42.90834
998.7328, 42.35235
999.2150, 41.63223
999.6971, 41.43684
1000.179, 41.75409
1000.661, 42.00050
1001.143, 41.67094
1001.626, 41.20131
1002.108, 40.79512
1002.590, 40.52296
1003.072, 40.66746
1003.554, 41.47271
1004.036, 42.10622
1004.518, 42.39951
1005.000, 42.43621
1005.482, 42.29090
1005.965, 42.00373
1006.447, 41.66227
1006.929, 41.25589
1007.411, 40.92476
1007.893, 40.58648
1008.375, 40.48637
1008.857, 40.89434
1009.339, 41.88660
1009.822, 42.28207
1010.304, 42.04229
1010.786, 41.62883
1011.268, 41.13108
1011.750, 40.77011
1012.232, 41.00695
1012.714, 41.62516
1013.196, 42.00029
1013.678, 41.52354
1014.161, 41.39250
1014.643, 41.97087
1015.125, 42.72865
1015.607, 42.81855
1016.089, 42.35638
1016.571, 42.09314
1017.053, 42.16112
1017.535, 42.17003
1018.018, 41.63172
1018.500, 41.06210
1018.982, 40.92122
1019.464, 41.24638
1019.946, 41.45020
1020.428, 41.54289
1020.910, 41.45829
1021.392, 41.05070
1021.874, 40.57651
1022.357, 40.56616
1022.839, 40.88472
1023.321, 41.22772
1023.803, 41.71836
1024.285, 41.86770
1024.767, 41.18758
1025.249, 40.42744
1025.731, 40.43064
1026.214, 41.20934
1026.696, 41.38993
1027.178, 40.89621
1027.660, 40.29161
1028.142, 39.72803
1028.624, 39.47454
1029.106, 40.09148
1029.588, 41.39765
1030.070, 41.87469
1030.553, 41.08112
1031.035, 40.33517
1031.517, 39.94275
1031.999, 39.77158
1032.481, 39.58239
1032.963, 39.41599
1033.445, 39.35617
1033.927, 39.39384
1034.410, 39.64570
1034.892, 40.69457
1035.374, 41.49915
1035.856, 41.20716
1036.338, 39.78232
1036.820, 39.01765
1037.302, 38.93233
1037.784, 39.10155
1038.266, 39.41811
1038.749, 39.74582
1039.231, 40.02151
1039.713, 40.19288
1040.195, 40.11328
1040.677, 39.53126
1041.159, 39.07079
1041.641, 38.70331
1042.123, 38.62565
1042.605, 39.50100
1043.088, 40.81630
1043.570, 40.78265
1044.052, 39.21708
1044.534, 38.07250
1045.016, 38.91710
1045.498, 39.94123
1045.980, 40.29762
1046.462, 40.04870
1046.945, 39.25807
1047.427, 37.88050
1047.909, 37.18848
1048.391, 37.85489
1048.873, 38.77975
1049.355, 38.76282
1049.837, 38.29102
1050.319, 38.00219
1050.802, 38.00381
1051.284, 38.34146
1051.766, 39.24566
1052.248, 39.94981
1052.730, 39.70724
1053.212, 38.85796
1053.694, 38.37136
1054.176, 38.24026
1054.658, 38.41061
1055.141, 39.34979
1055.623, 40.00305
1056.105, 39.73607
1056.587, 39.11201
1057.069, 38.96302
1057.551, 39.30284
1058.033, 39.65916
1058.515, 39.98627
1058.997, 40.22588
1059.480, 40.37295
1059.962, 40.37847
1060.444, 40.05107
1060.926, 39.39088
1061.408, 39.27372
1061.890, 39.95060
1062.372, 40.55879
1062.854, 40.81845
1063.337, 40.82484
1063.819, 40.61203
1064.301, 40.30579
1064.783, 40.23418
1065.265, 40.72300
1065.747, 40.87696
1066.229, 39.97615
1066.711, 39.08483
1067.193, 38.94925
1067.676, 39.52104
1068.158, 39.79452
1068.640, 39.79120
1069.122, 39.81856
1069.604, 40.15488
1070.086, 40.49632
1070.568, 40.68267
1071.050, 40.71601
1071.532, 40.56066
1072.015, 40.02110
1072.497, 40.09084
1072.979, 41.00235
1073.461, 41.94483
1073.943, 41.91073
1074.425, 41.44608
1074.907, 41.38755
1075.389, 41.77885
1075.872, 41.88120
1076.354, 41.27048
1076.836, 40.68051
1077.318, 40.28160
1077.800, 40.05313
1078.282, 40.03305
1078.764, 40.14286
1079.246, 40.02531
1079.729, 39.44685
1080.211, 39.14315
1080.693, 39.94643
1081.175, 40.81857
1081.657, 40.89820
1082.139, 40.18671
1082.621, 39.85864
1083.103, 39.91576
1083.585, 40.12723
1084.068, 40.52488
1084.550, 40.85252
1085.032, 40.65946
1085.514, 40.27358
1085.996, 40.33774
1086.478, 41.40467
1086.960, 41.77051
1087.442, 41.20461
1087.924, 40.49559
1088.406, 40.43248
1088.889, 40.71752
1089.371, 40.79132
1089.853, 40.66636
1090.335, 40.60468
1090.817, 40.89408
1091.299, 40.99488
1091.781, 40.70797
1092.263, 40.25086
1092.746, 39.99002
1093.228, 39.91069
1093.710, 39.99457
1094.192, 40.26002
1094.674, 40.46856
1095.156, 40.35423
1095.638, 40.22925
1096.120, 40.30792
1096.603, 40.56651
1097.085, 40.95385
1097.567, 41.49034
1098.049, 41.54305
1098.531, 40.62439
1099.013, 39.67135
1099.495, 39.72240
1099.977, 40.29779
1100.459, 40.80890
1100.942, 41.19601
1101.424, 41.44643
1101.906, 41.62429
1102.388, 41.45034
1102.870, 40.29815
1103.352, 38.91238
1103.834, 38.83012
1104.316, 39.72672
1104.798, 40.69085
1105.281, 41.84325
1105.763, 42.37700
1106.245, 42.01686
1106.727, 41.30593
1107.209, 40.74681
1107.691, 40.35278
1108.173, 40.30639
1108.655, 40.58667
1109.138, 40.78797
1109.620, 40.73071
1110.102, 40.47659
1110.584, 39.79122
1111.066, 39.04628
1111.548, 39.18346
1112.030, 40.18052
1112.512, 40.72270
1112.995, 40.51192
1113.477, 40.27349
1113.959, 40.79244
1114.441, 41.44311
1114.923, 41.60967
1115.405, 41.28853
1115.887, 41.34216
1116.369, 41.89474
1116.851, 42.08648
1117.333, 41.48675
1117.816, 40.65402
1118.298, 40.22505
1118.780, 40.09086
1119.262, 40.13136
1119.744, 40.44540
1120.226, 40.52110
1120.708, 40.20845
1121.190, 39.98795
1121.673, 40.13966
1122.155, 40.58673
1122.637, 41.46179
1123.119, 42.47969
1123.601, 42.85242
1124.083, 41.70042
1124.565, 40.64304
1125.047, 39.74833
1125.530, 39.26269
1126.012, 39.58421
1126.494, 40.54732
1126.976, 41.42389
1127.458, 42.13287
1127.940, 42.23896
1128.422, 40.72573
1128.904, 39.41796
1129.386, 39.22168
1129.869, 39.66381
1130.351, 40.16807
1130.833, 40.72901
1131.315, 41.04628
1131.797, 41.08361
1132.279, 40.89899
1132.761, 40.25240
1133.243, 39.65586
1133.725, 39.62903
1134.208, 40.02153
1134.690, 39.95026
1135.172, 39.30366
1135.654, 39.11536
1136.136, 39.76136
1136.618, 40.43357
1137.100, 39.97014
1137.582, 39.21445
1138.065, 39.15231
1138.547, 40.03086
1139.029, 40.69402
1139.511, 41.16669
1139.993, 41.27483
1140.475, 40.80217
1140.957, 40.16849
1141.439, 40.18089
1141.922, 40.46046
1142.404, 40.27685
1142.886, 39.03482
1143.368, 38.56252
1143.850, 39.35073
1144.332, 40.10608
1144.814, 39.90037
1145.296, 39.15028
1145.778, 38.83651
1146.260, 38.90166
1146.743, 39.16980
1147.225, 39.70547
1147.707, 40.27211
1148.189, 41.00517
1148.671, 41.53974
1149.153, 41.38706
1149.635, 40.73824
1150.117, 40.58994
1150.600, 40.88955
1151.082, 41.09924
1151.564, 40.77219
1152.046, 40.51641
1152.528, 40.67105
1153.010, 40.91727
1153.492, 40.79369
1153.974, 40.33656
1154.457, 39.89333
1154.939, 39.50183
1155.421, 39.28435
1155.903, 39.30987
1156.385, 39.54905
1156.867, 40.14027
1157.349, 40.89395
1157.831, 41.45525
1158.313, 41.82623
1158.796, 41.74651
1159.278, 41.10347
1159.760, 40.59715
1160.242, 41.11290
1160.724, 41.77158
1161.206, 41.78508
1161.688, 41.22940
1162.170, 40.82391
1162.652, 40.54745
1163.135, 40.66433
1163.617, 41.33585
1164.099, 42.13316
1164.581, 42.73718
1165.063, 43.15422
1165.545, 43.35601
1166.027, 43.32174
1166.509, 43.22353
1166.992, 42.99626
1167.474, 43.11845
1167.956, 44.03524
1168.438, 44.94312
1168.920, 44.62272
1169.402, 43.70178
1169.884, 43.05119
1170.366, 42.85827
1170.849, 42.95832
1171.331, 43.46369
1171.813, 43.86254
1172.295, 43.74786
1172.777, 43.47025
1173.259, 43.47617
1173.741, 43.78106
1174.223, 44.44239
1174.705, 46.46432
1175.188, 46.85500
1175.670, 44.95582
1176.152, 43.08590
1176.634, 43.19181
1177.116, 44.42992
1177.598, 45.41875
1178.080, 46.09283
1178.562, 46.32189
1179.044, 45.39706
1179.527, 45.08520
1180.009, 45.74313
1180.491, 46.56768
1180.973, 46.73188
1181.455, 46.50616
1181.937, 46.58022
1182.419, 46.87918
1182.901, 46.91042
1183.384, 46.24441
1183.866, 45.58699
1184.348, 44.91505
1184.830, 44.52685
1185.312, 45.10128
1185.794, 46.19297
1186.276, 46.48587
1186.758, 45.97112
1187.240, 45.66488
1187.723, 46.37020
1188.205, 46.82204
1188.687, 46.59375
1189.169, 46.13769
1189.651, 46.28350
1190.133, 46.81370
1190.615, 47.11261
1191.097, 47.09789
1191.579, 46.74189
1192.062, 45.57999
1192.544, 44.62561
1193.026, 44.19479
1193.508, 44.17777
1193.990, 44.55982
1194.472, 45.15641
1194.954, 45.15121
1195.436, 44.28965
1195.919, 43.88343
1196.401, 45.41421
1196.883, 46.46233
1197.365, 45.83165
1197.847, 44.17776
1198.329, 43.37325
1198.811, 43.22763
1199.293, 42.91528
1199.776, 42.10139
1200.258, 41.70844
1200.740, 42.69093
1201.222, 43.64373
1201.704, 43.80730
1202.186, 43.40893
1202.668, 43.36103
1203.150, 43.56220
1203.632, 43.59063
1204.115, 43.25430
1204.597, 42.90128
1205.079, 42.78594
1205.561, 42.59048
1206.043, 42.01801
1206.525, 41.22726
1207.007, 41.20022
1207.489, 41.76399
1207.971, 42.12812
1208.454, 41.86730
1208.936, 41.59246
1209.418, 41.59165
1209.900, 41.63752
1210.382, 41.57265
1210.864, 41.42214
1211.346, 41.46845
1211.828, 41.62603
1212.311, 41.47066
1212.793, 40.62402
1213.275, 39.70982
1213.757, 38.59403
1214.239, 37.85599
1214.721, 38.25913
1215.203, 39.55041
1215.685, 39.55506
1216.167, 38.51719
1216.650, 37.74400
1217.132, 38.10230
1217.614, 38.55463
1218.096, 38.95660
1218.578, 39.13546
1219.060, 38.76500
1219.542, 37.97956
1220.024, 37.76176
1220.506, 38.03540
1220.989, 38.27092
1221.471, 38.28951
1221.953, 38.10616
1222.435, 37.57365
1222.917, 37.03149
1223.399, 36.86736
1223.881, 37.00352
1224.363, 37.10029
1224.846, 37.13647
1225.328, 37.06336
1225.810, 36.84375
1226.292, 36.51084
1226.774, 36.00340
1227.256, 35.49567
1227.738, 35.25382
1228.220, 35.18220
1228.703, 34.85251
1229.185, 34.29937
1229.667, 33.91570
1230.149, 33.85143
1230.631, 34.07595
1231.113, 34.77407
1231.595, 35.43417
1232.077, 35.31382
1232.559, 34.65036
1233.042, 33.96338
1233.524, 33.33765
1234.006, 33.08599
1234.488, 33.74917
1234.970, 34.23234
1235.452, 34.27770
1235.934, 34.15394
1236.416, 34.26522
1236.898, 34.46572
1237.381, 34.45073
1237.863, 34.19689
1238.345, 33.74386
1238.827, 32.78349
1239.309, 32.13949
1239.791, 32.00456
1240.273, 32.10274
1240.755, 32.09372
1241.238, 32.03710
1241.720, 32.08612
1242.202, 32.23339
1242.684, 32.20580
1243.166, 31.74434
1243.648, 31.58644
1244.130, 31.98418
1244.612, 32.41770
1245.094, 32.09606
1245.577, 31.42294
1246.059, 30.98665
1246.541, 30.82603
1247.023, 30.72303
1247.505, 30.63424
1247.987, 30.63172
1248.469, 30.73158
1248.951, 30.91645
1249.433, 31.44065
1249.916, 31.85144
1250.398, 31.35662
1250.880, 30.00250
1251.362, 29.50891
1251.844, 30.18611
1252.326, 30.49061
1252.808, 29.97729
1253.290, 29.46282
1253.773, 30.15867
1254.255, 31.04991
1254.737, 31.03132
1255.219, 30.13024
1255.701, 29.46905
1256.183, 29.03775
1256.665, 29.02799
1257.147, 29.57953
1257.630, 30.02480
1258.112, 29.52026
1258.594, 28.82770
1259.076, 28.60661
1259.558, 28.77677
1260.040, 28.97528
1260.522, 29.19950
1261.004, 29.35281
1261.486, 29.41413
1261.969, 29.39964
1262.451, 29.33651
1262.933, 29.18270
1263.415, 28.90747
1263.897, 28.52557
1264.379, 27.85316
1264.861, 27.01884
1265.343, 27.23047
1265.825, 28.91469
1266.308, 30.25067
1266.790, 29.89525
1267.272, 29.19543
1267.754, 28.80316
1268.236, 28.58156
1268.718, 28.06965
1269.200, 27.40655
1269.682, 27.13643
1270.165, 27.39108
1270.647, 27.73004
1271.129, 28.11573
1271.611, 28.37107
1272.093, 28.45193
1272.575, 28.35780
1273.057, 27.93685
1273.539, 27.37935
1274.021, 27.14126
1274.504, 27.32032
1274.986, 27.53641
1275.468, 27.84099
1275.950, 27.89365
1276.432, 27.53200
1276.914, 27.00236
1277.396, 26.47891
1277.878, 26.14139
1278.360, 26.46166
1278.843, 27.53708
1279.325, 27.75465
1279.807, 26.71243
1280.289, 26.12003
1280.771, 26.55250
1281.253, 27.25584
1281.735, 27.44158
1282.217, 27.32639
1282.700, 27.02775
1283.182, 26.60204
1283.664, 26.64697
1284.146, 27.22374
1284.628, 27.51670
1285.110, 27.26345
1285.592, 26.98693
1286.074, 27.32850
1286.557, 27.67357
1287.039, 27.35993
1287.521, 26.65397
1288.003, 26.68505
1288.485, 27.37171
1288.967, 27.73018
1289.449, 27.52468
1289.931, 27.17182
1290.413, 26.70611
1290.896, 26.43038
1291.378, 26.56295
1291.860, 26.90083
1292.342, 26.90485
1292.824, 26.67383
1293.306, 26.58256
1293.788, 26.71073
1294.270, 26.72498
1294.752, 26.45277
1295.235, 26.03411
1295.717, 25.33273
1296.199, 24.80416
1296.681, 25.71730
1297.163, 27.17428
1297.645, 27.33709
1298.127, 25.97837
1298.609, 25.17962
1299.092, 25.32116
1299.574, 25.63503
1300.056, 25.97734
1300.538, 26.32561
1301.020, 26.72989
1301.502, 27.07940
1301.984, 27.22085
1302.466, 27.15409
1302.948, 27.06785
1303.431, 26.95508
1303.913, 26.88710
1304.395, 26.87909
1304.877, 26.91520
##END=



