##NAMES=Tenorite
##RRUFFID=R060978
##IDEAL CHEMISTRY=Cu^2+^O
##LOCALITY=Algomah, Michigan, USA
##OWNER=RRUFF
##SOURCE=Michael Scott
##DESCRIPTION=Black massive with some prismatic faces, associated with malachite and chrysocolla. Sample is a pseudomorph.
##STATUS=The identification of this mineral has been confirmed by X-ray diffraction.
##URL=rruff.info/R060978
150.9315, 10096.44
151.4137, 10165.69
151.8958, 10207.35
152.3779, 10200.93
152.8600, 10148.67
153.3421, 10117.89
153.8242, 10128.10
154.3064, 10155.58
154.7885, 10181.77
155.2706, 10203.09
155.7527, 10223.92
156.2348, 10241.16
156.7169, 10251.94
157.1991, 10277.70
157.6812, 10330.71
158.1633, 10398.57
158.6454, 10465.88
159.1275, 10532.21
159.6096, 10592.10
160.0918, 10641.16
160.5739, 10673.21
161.0560, 10707.29
161.5381, 10754.09
162.0202, 10806.96
162.5023, 10852.78
162.9845, 10881.10
163.4666, 10903.47
163.9487, 10928.19
164.4308, 10960.11
164.9129, 10989.71
165.3950, 11012.87
165.8772, 11030.37
166.3593, 11044.37
166.8414, 11052.41
167.3235, 11059.64
167.8056, 11071.46
168.2877, 11097.21
168.7699, 11121.34
169.2520, 11133.03
169.7341, 11133.11
170.2162, 11128.25
170.6983, 11115.74
171.1804, 11102.55
171.6626, 11098.18
172.1447, 11109.36
172.6268, 11129.25
173.1089, 11154.23
173.5910, 11184.57
174.0731, 11211.54
174.5553, 11225.07
175.0374, 11229.41
175.5195, 11234.30
176.0016, 11243.36
176.4837, 11255.80
176.9658, 11270.04
177.4480, 11285.73
177.9301, 11304.70
178.4122, 11335.17
178.8943, 11372.70
179.3764, 11400.10
179.8585, 11394.19
180.3407, 11373.06
180.8228, 11373.61
181.3049, 11403.33
181.7870, 11448.50
182.2691, 11494.25
182.7512, 11540.39
183.2334, 11582.34
183.7155, 11617.06
184.1976, 11645.00
184.6797, 11669.58
185.1618, 11690.31
185.6439, 11708.62
186.1261, 11725.88
186.6082, 11742.14
187.0903, 11758.98
187.5724, 11779.75
188.0545, 11803.00
188.5366, 11822.99
189.0188, 11839.35
189.5009, 11850.94
189.9830, 11854.63
190.4651, 11850.30
190.9472, 11839.56
191.4293, 11816.25
191.9114, 11782.36
192.3936, 11764.68
192.8757, 11776.53
193.3578, 11811.88
193.8399, 11842.33
194.3220, 11868.80
194.8041, 11888.72
195.2863, 11899.13
195.7684, 11900.10
196.2505, 11892.92
196.7326, 11864.84
197.2147, 11819.83
197.6968, 11829.69
198.1790, 11909.18
198.6611, 12011.72
199.1432, 12069.99
199.6253, 12080.03
200.1074, 12069.28
200.5895, 12033.35
201.0717, 11968.05
201.5538, 11958.51
202.0359, 12024.25
202.5180, 12121.83
203.0001, 12156.61
203.4822, 12111.48
203.9644, 12072.15
204.4465, 12092.23
204.9286, 12182.76
205.4107, 12243.05
205.8928, 12262.66
206.3749, 12253.04
206.8571, 12243.74
207.3392, 12235.86
207.8213, 12225.56
208.3034, 12207.80
208.7855, 12178.69
209.2676, 12163.09
209.7498, 12166.43
210.2319, 12185.07
210.7140, 12204.62
211.1961, 12227.56
211.6782, 12247.82
212.1603, 12260.46
212.6425, 12263.94
213.1246, 12265.56
213.6067, 12261.91
214.0888, 12256.04
214.5709, 12271.79
215.0530, 12320.01
215.5352, 12371.56
216.0173, 12402.15
216.4994, 12404.08
216.9815, 12403.32
217.4636, 12401.00
217.9457, 12397.39
218.4279, 12404.80
218.9100, 12428.45
219.3921, 12455.96
219.8742, 12475.85
220.3563, 12487.26
220.8384, 12492.98
221.3206, 12489.56
221.8027, 12476.59
222.2848, 12482.85
222.7669, 12521.60
223.2490, 12566.20
223.7311, 12585.59
224.2132, 12564.07
224.6954, 12550.18
225.1775, 12558.52
225.6596, 12592.85
226.1417, 12615.11
226.6238, 12622.56
227.1059, 12620.15
227.5881, 12610.95
228.0702, 12581.64
228.5523, 12569.74
229.0344, 12591.68
229.5165, 12657.38
229.9986, 12699.46
230.4808, 12707.49
230.9629, 12698.59
231.4450, 12697.98
231.9271, 12711.21
232.4092, 12723.61
232.8913, 12730.23
233.3735, 12729.15
233.8556, 12730.36
234.3377, 12734.29
234.8198, 12740.57
235.3019, 12747.21
235.7840, 12747.88
236.2662, 12759.66
236.7483, 12793.65
237.2304, 12865.81
237.7125, 12909.57
238.1946, 12915.18
238.6767, 12896.87
239.1589, 12880.96
239.6410, 12861.11
240.1231, 12853.75
240.6052, 12869.70
241.0873, 12926.77
241.5694, 12957.96
242.0516, 12947.08
242.5337, 12915.51
243.0158, 12913.53
243.4979, 12956.54
243.9800, 13005.61
244.4621, 13046.33
244.9443, 13080.96
245.4264, 13097.91
245.9085, 13086.13
246.3906, 13058.66
246.8727, 13051.41
247.3548, 13073.88
247.8370, 13102.03
248.3191, 13127.22
248.8012, 13155.20
249.2833, 13166.59
249.7654, 13158.12
250.2475, 13134.43
250.7297, 13107.17
251.2118, 13072.35
251.6939, 13041.52
252.1760, 13019.82
252.6581, 13005.49
253.1402, 13007.03
253.6223, 13032.42
254.1045, 13073.16
254.5866, 13100.45
255.0687, 13109.89
255.5508, 13113.81
256.0329, 13116.06
256.5150, 13110.04
256.9972, 13120.36
257.4793, 13155.23
257.9614, 13205.13
258.4435, 13238.48
258.9256, 13250.30
259.4077, 13252.33
259.8899, 13244.97
260.3720, 13213.36
260.8541, 13217.29
261.3362, 13275.19
261.8183, 13367.14
262.3004, 13422.92
262.7826, 13430.63
263.2647, 13423.25
263.7468, 13418.27
264.2289, 13416.67
264.7110, 13413.72
265.1931, 13407.84
265.6753, 13400.93
266.1574, 13398.37
266.6395, 13399.11
267.1216, 13407.10
267.6037, 13429.89
268.0858, 13475.88
268.5680, 13500.92
269.0501, 13494.19
269.5322, 13467.48
270.0143, 13458.57
270.4964, 13473.77
270.9785, 13491.01
271.4607, 13494.00
271.9428, 13477.63
272.4249, 13476.41
272.9070, 13497.53
273.3891, 13533.18
273.8712, 13563.18
274.3534, 13588.46
274.8355, 13604.39
275.3176, 13604.34
275.7997, 13585.72
276.2818, 13570.62
276.7639, 13558.81
277.2461, 13552.86
277.7282, 13560.41
278.2103, 13582.31
278.6924, 13612.64
279.1745, 13655.38
279.6566, 13711.93
280.1388, 13740.94
280.6209, 13728.48
281.1030, 13697.37
281.5851, 13705.23
282.0672, 13757.31
282.5493, 13809.65
283.0315, 13836.90
283.5136, 13839.51
283.9957, 13825.54
284.4778, 13787.48
284.9599, 13745.46
285.4420, 13747.75
285.9242, 13795.99
286.4063, 13848.82
286.8884, 13882.62
287.3705, 13899.12
287.8526, 13910.42
288.3347, 13915.95
288.8169, 13920.02
289.2990, 13928.02
289.7811, 13940.02
290.2632, 13959.89
290.7453, 14001.63
291.2274, 14056.28
291.7096, 14080.37
292.1917, 14063.36
292.6738, 14032.30
293.1559, 14025.52
293.6380, 14041.70
294.1201, 14068.36
294.6023, 14109.77
295.0844, 14156.97
295.5665, 14181.56
296.0486, 14178.10
296.5307, 14164.37
297.0128, 14158.45
297.4950, 14160.97
297.9771, 14173.21
298.4592, 14201.95
298.9413, 14239.87
299.4234, 14277.11
299.9055, 14315.25
300.3876, 14340.69
300.8698, 14329.41
301.3519, 14290.85
301.8340, 14254.28
302.3161, 14230.32
302.7982, 14217.96
303.2803, 14219.61
303.7625, 14236.54
304.2446, 14254.92
304.7267, 14265.42
305.2088, 14267.78
305.6909, 14262.32
306.1730, 14237.35
306.6552, 14211.08
307.1373, 14207.38
307.6194, 14229.26
308.1015, 14249.84
308.5836, 14244.81
309.0657, 14226.13
309.5479, 14212.42
310.0300, 14215.79
310.5121, 14224.56
310.9942, 14230.21
311.4763, 14232.39
311.9584, 14235.68
312.4406, 14252.41
312.9227, 14269.21
313.4048, 14269.29
313.8869, 14227.53
314.3690, 14183.54
314.8511, 14156.74
315.3333, 14147.40
315.8154, 14150.13
316.2975, 14179.97
316.7796, 14213.67
317.2617, 14228.47
317.7438, 14195.70
318.2260, 14164.68
318.7081, 14151.41
319.1902, 14155.62
319.6723, 14171.41
320.1544, 14215.89
320.6365, 14260.68
321.1187, 14285.14
321.6008, 14254.23
322.0829, 14234.29
322.5650, 14244.98
323.0471, 14280.63
323.5292, 14311.15
324.0114, 14322.89
324.4935, 14333.39
324.9756, 14352.48
325.4577, 14406.53
325.9398, 14438.23
326.4219, 14424.68
326.9041, 14380.82
327.3862, 14362.02
327.8683, 14399.14
328.3504, 14439.07
328.8325, 14458.49
329.3146, 14431.50
329.7968, 14426.78
330.2789, 14461.38
330.7610, 14516.91
331.2431, 14547.52
331.7252, 14533.01
332.2073, 14518.67
332.6895, 14524.32
333.1716, 14566.48
333.6537, 14581.64
334.1358, 14553.74
334.6179, 14509.15
335.1000, 14497.01
335.5822, 14533.87
336.0643, 14568.66
336.5464, 14582.03
337.0285, 14570.00
337.5106, 14566.20
337.9927, 14572.92
338.4749, 14583.80
338.9570, 14589.74
339.4391, 14589.08
339.9212, 14589.59
340.4033, 14591.62
340.8854, 14595.83
341.3676, 14614.32
341.8497, 14651.63
342.3318, 14690.19
342.8139, 14712.37
343.2960, 14718.14
343.7781, 14716.76
344.2603, 14709.81
344.7424, 14698.40
345.2245, 14679.76
345.7066, 14652.52
346.1887, 14638.33
346.6708, 14671.01
347.1530, 14739.72
347.6351, 14781.16
348.1172, 14771.65
348.5993, 14738.77
349.0814, 14735.63
349.5635, 14759.52
350.0457, 14784.11
350.5278, 14784.67
351.0099, 14771.96
351.4920, 14771.38
351.9741, 14790.84
352.4562, 14814.44
352.9384, 14826.18
353.4205, 14827.02
353.9026, 14820.53
354.3847, 14802.28
354.8668, 14781.25
355.3489, 14767.61
355.8311, 14762.99
356.3132, 14766.24
356.7953, 14787.15
357.2774, 14815.19
357.7595, 14830.15
358.2416, 14805.51
358.7238, 14776.55
359.2059, 14768.58
359.6880, 14784.61
360.1701, 14807.85
360.6522, 14835.75
361.1343, 14864.11
361.6164, 14887.49
362.0985, 14913.05
362.5807, 14924.98
363.0628, 14907.69
363.5449, 14861.67
364.0270, 14828.31
364.5091, 14824.34
364.9912, 14834.84
365.4734, 14848.25
365.9555, 14862.70
366.4376, 14880.43
366.9197, 14910.10
367.4018, 14947.61
367.8839, 14965.78
368.3661, 14938.37
368.8482, 14909.63
369.3303, 14901.40
369.8124, 14937.49
370.2945, 14959.09
370.7766, 14953.66
371.2588, 14934.67
371.7409, 14939.99
372.2230, 14989.01
372.7051, 15033.82
373.1872, 15052.13
373.6693, 15031.23
374.1515, 15030.63
374.6336, 15059.57
375.1157, 15099.48
375.5978, 15120.59
376.0799, 15116.90
376.5620, 15114.18
377.0442, 15122.86
377.5263, 15142.14
378.0084, 15152.80
378.4905, 15154.88
378.9726, 15149.37
379.4547, 15131.71
379.9369, 15102.28
380.4190, 15086.34
380.9011, 15095.85
381.3832, 15121.52
381.8653, 15132.10
382.3474, 15127.43
382.8296, 15125.42
383.3117, 15144.98
383.7938, 15179.60
384.2759, 15205.90
384.7580, 15216.27
385.2401, 15222.13
385.7223, 15241.57
386.2044, 15271.43
386.6865, 15298.42
387.1686, 15314.90
387.6507, 15323.03
388.1328, 15323.71
388.6150, 15314.80
389.0971, 15307.62
389.5792, 15316.13
390.0613, 15332.84
390.5434, 15344.28
391.0255, 15337.08
391.5077, 15328.48
391.9898, 15333.49
392.4719, 15353.85
392.9540, 15369.99
393.4361, 15373.11
393.9182, 15367.66
394.4004, 15357.94
394.8825, 15345.56
395.3646, 15328.86
395.8467, 15296.19
396.3288, 15252.28
396.8109, 15234.75
397.2931, 15271.20
397.7752, 15322.09
398.2573, 15365.57
398.7394, 15405.44
399.2215, 15429.39
399.7036, 15426.77
400.1858, 15408.10
400.6679, 15400.42
401.1500, 15415.69
401.6321, 15427.62
402.1142, 15425.25
402.5963, 15402.60
403.0785, 15389.67
403.5606, 15388.35
404.0427, 15395.30
404.5248, 15407.12
405.0069, 15425.74
405.4890, 15443.50
405.9712, 15458.13
406.4533, 15469.94
406.9354, 15481.08
407.4175, 15490.77
407.8996, 15502.14
408.3817, 15517.76
408.8639, 15537.59
409.3460, 15561.59
409.8281, 15592.92
410.3102, 15624.55
410.7923, 15640.04
411.2744, 15640.15
411.7566, 15634.16
412.2387, 15623.28
412.7208, 15611.16
413.2029, 15605.95
413.6850, 15608.17
414.1671, 15618.08
414.6493, 15641.42
415.1314, 15672.83
415.6135, 15700.15
416.0956, 15713.37
416.5777, 15721.78
417.0598, 15735.02
417.5420, 15753.22
418.0241, 15767.36
418.5062, 15770.98
418.9883, 15768.02
419.4704, 15762.63
419.9525, 15749.25
420.4347, 15741.01
420.9168, 15752.10
421.3989, 15776.12
421.8810, 15783.45
422.3631, 15735.89
422.8452, 15692.32
423.3273, 15686.27
423.8094, 15756.26
424.2916, 15803.17
424.7737, 15799.10
425.2558, 15770.96
425.7379, 15766.13
426.2200, 15813.03
426.7021, 15846.69
427.1843, 15844.68
427.6664, 15800.45
428.1485, 15771.61
428.6306, 15761.52
429.1127, 15761.93
429.5948, 15763.21
430.0770, 15761.96
430.5591, 15776.83
431.0412, 15818.47
431.5233, 15876.17
432.0054, 15911.23
432.4875, 15922.56
432.9697, 15918.74
433.4518, 15893.56
433.9339, 15852.83
434.4160, 15843.81
434.8981, 15877.91
435.3802, 15924.60
435.8624, 15939.58
436.3445, 15928.67
436.8266, 15917.44
437.3087, 15916.93
437.7908, 15923.94
438.2729, 15935.12
438.7551, 15950.29
439.2372, 15966.58
439.7193, 15993.08
440.2014, 16015.79
440.6835, 16013.87
441.1656, 15947.17
441.6478, 15892.78
442.1299, 15910.29
442.6120, 15981.08
443.0941, 16038.90
443.5762, 16053.89
444.0583, 16049.96
444.5405, 16036.16
445.0226, 16002.75
445.5047, 15988.63
445.9868, 16023.65
446.4689, 16076.40
446.9510, 16101.84
447.4332, 16062.05
447.9153, 16033.30
448.3974, 16036.42
448.8795, 16072.82
449.3616, 16090.16
449.8438, 16074.82
450.3259, 16057.02
450.8080, 16061.83
451.2901, 16099.48
451.7722, 16123.02
452.2543, 16121.40
452.7365, 16107.42
453.2186, 16122.16
453.7007, 16171.24
454.1828, 16206.95
454.6649, 16194.01
455.1470, 16140.50
455.6292, 16108.73
456.1113, 16102.17
456.5934, 16103.98
457.0755, 16091.98
457.5576, 16071.83
458.0397, 16061.95
458.5219, 16072.49
459.0040, 16093.65
459.4861, 16119.96
459.9682, 16149.08
460.4503, 16164.53
460.9324, 16141.29
461.4146, 16106.09
461.8967, 16084.69
462.3788, 16080.70
462.8609, 16093.30
463.3430, 16136.53
463.8251, 16194.08
464.3073, 16237.97
464.7894, 16253.96
465.2715, 16259.60
465.7536, 16253.82
466.2357, 16234.60
466.7178, 16235.29
467.2000, 16282.75
467.6821, 16336.94
468.1642, 16370.03
468.6463, 16379.43
469.1284, 16369.26
469.6105, 16323.48
470.0927, 16261.02
470.5748, 16239.00
471.0569, 16266.30
471.5390, 16312.96
472.0211, 16377.30
472.5032, 16462.89
472.9854, 16501.44
473.4675, 16485.75
473.9496, 16446.57
474.4317, 16416.86
474.9138, 16396.26
475.3959, 16377.68
475.8781, 16358.30
476.3602, 16341.71
476.8423, 16337.44
477.3244, 16344.49
477.8065, 16351.29
478.2886, 16342.47
478.7708, 16331.78
479.2529, 16340.96
479.7350, 16376.83
480.2171, 16415.81
480.6992, 16438.25
481.1813, 16451.98
481.6635, 16468.95
482.1456, 16503.41
482.6277, 16531.95
483.1098, 16537.23
483.5919, 16520.46
484.0740, 16513.62
484.5562, 16530.57
485.0382, 16555.02
485.5204, 16577.90
486.0025, 16610.71
486.4846, 16623.11
486.9667, 16599.29
487.4488, 16560.59
487.9309, 16549.55
488.4131, 16588.61
488.8952, 16613.71
489.3773, 16602.12
489.8594, 16555.10
490.3415, 16517.65
490.8236, 16486.70
491.3058, 16475.04
491.7879, 16509.99
492.2700, 16588.48
492.7521, 16629.43
493.2342, 16611.47
493.7163, 16568.78
494.1985, 16555.29
494.6806, 16567.22
495.1627, 16584.48
495.6448, 16605.76
496.1269, 16621.54
496.6090, 16610.06
497.0912, 16569.91
497.5733, 16540.57
498.0554, 16562.42
498.5375, 16605.45
499.0196, 16635.05
499.5017, 16629.87
499.9839, 16623.38
500.4660, 16626.19
500.9481, 16638.14
501.4302, 16658.85
501.9123, 16714.90
502.3944, 16756.14
502.8766, 16755.18
503.3587, 16691.38
503.8408, 16658.53
504.3229, 16673.87
504.8050, 16705.71
505.2871, 16723.60
505.7693, 16719.33
506.2514, 16721.95
506.7335, 16737.44
507.2156, 16761.73
507.6977, 16784.72
508.1798, 16808.13
508.6620, 16820.89
509.1441, 16808.41
509.6262, 16777.36
510.1083, 16770.31
510.5904, 16791.28
511.0725, 16817.36
511.5547, 16823.44
512.0368, 16815.87
512.5189, 16809.10
513.0010, 16802.32
513.4832, 16804.73
513.9653, 16833.31
514.4474, 16880.48
514.9295, 16919.80
515.4116, 16933.12
515.8937, 16936.65
516.3758, 16939.23
516.8579, 16940.75
517.3400, 16945.90
517.8221, 16963.49
518.3043, 16981.79
518.7864, 16989.03
519.2685, 16963.65
519.7506, 16951.51
520.2327, 16961.06
520.7148, 16987.73
521.1970, 17015.29
521.6791, 17048.75
522.1612, 17074.00
522.6433, 17081.91
523.1254, 17070.61
523.6075, 17065.52
524.0897, 17067.08
524.5718, 17073.89
525.0539, 17086.67
525.5360, 17104.39
526.0181, 17118.49
526.5002, 17124.85
526.9824, 17128.84
527.4645, 17144.69
527.9466, 17168.23
528.4287, 17180.21
528.9108, 17149.33
529.3929, 17112.68
529.8751, 17118.49
530.3572, 17175.85
530.8393, 17213.91
531.3214, 17173.74
531.8035, 17105.16
532.2856, 17057.10
532.7678, 17060.90
533.2499, 17065.92
533.7320, 17062.36
534.2141, 17052.81
534.6962, 17045.43
535.1783, 17039.14
535.6605, 17036.95
536.1426, 17039.08
536.6247, 17045.02
537.1068, 17062.62
537.5889, 17097.66
538.0710, 17133.25
538.5532, 17151.04
539.0353, 17149.66
539.5174, 17155.79
539.9995, 17176.19
540.4816, 17200.44
540.9637, 17204.87
541.4459, 17193.08
541.9280, 17189.22
542.4101, 17210.58
542.8922, 17244.51
543.3743, 17277.91
543.8564, 17309.55
544.3386, 17332.37
544.8207, 17336.66
545.3028, 17332.21
545.7849, 17327.08
546.2670, 17317.22
546.7491, 17318.39
547.2313, 17352.95
547.7134, 17399.53
548.1955, 17421.15
548.6776, 17379.03
549.1597, 17348.34
549.6418, 17351.45
550.1240, 17386.76
550.6061, 17408.43
551.0882, 17415.20
551.5703, 17410.46
552.0524, 17390.71
552.5345, 17352.00
553.0167, 17334.17
553.4988, 17343.41
553.9809, 17362.77
554.4630, 17370.88
554.9451, 17368.26
555.4272, 17356.71
555.9094, 17326.13
556.3915, 17297.90
556.8736, 17312.46
557.3557, 17362.21
557.8378, 17408.72
558.3199, 17427.83
558.8021, 17433.79
559.2842, 17435.64
559.7663, 17432.51
560.2484, 17438.39
560.7305, 17464.00
561.2126, 17499.07
561.6948, 17532.93
562.1769, 17577.18
562.6590, 17603.19
563.1411, 17592.78
563.6232, 17562.50
564.1053, 17560.48
564.5875, 17605.86
565.0696, 17642.59
565.5517, 17650.08
566.0338, 17628.52
566.5159, 17594.46
566.9980, 17540.41
567.4802, 17504.16
567.9623, 17537.21
568.4444, 17622.79
568.9265, 17674.14
569.4086, 17674.69
569.8907, 17650.08
570.3729, 17618.62
570.8550, 17585.72
571.3371, 17564.15
571.8192, 17552.89
572.3013, 17560.32
572.7834, 17613.17
573.2656, 17700.85
573.7477, 17751.27
574.2298, 17696.99
574.7119, 17629.15
575.1940, 17601.57
575.6761, 17637.06
576.1583, 17666.67
576.6404, 17696.68
577.1225, 17714.80
577.6046, 17699.51
578.0867, 17624.21
578.5688, 17597.52
579.0510, 17655.44
579.5331, 17758.51
580.0152, 17792.69
580.4973, 17753.92
580.9794, 17727.08
581.4615, 17782.05
581.9437, 17877.73
582.4258, 17895.15
582.9079, 17833.45
583.3900, 17763.19
583.8721, 17730.22
584.3542, 17725.41
584.8364, 17741.74
585.3185, 17788.49
585.8006, 17828.20
586.2827, 17837.15
586.7648, 17827.59
587.2469, 17818.43
587.7291, 17803.70
588.2112, 17801.18
588.6933, 17822.18
589.1754, 17861.95
589.6575, 17891.65
590.1396, 17905.57
590.6218, 17918.71
591.1039, 17936.01
591.5860, 17957.06
592.0681, 17993.43
592.5502, 18049.92
593.0323, 18105.66
593.5145, 18145.33
593.9966, 18167.18
594.4787, 18156.42
594.9608, 18100.51
595.4429, 18034.28
595.9250, 17992.20
596.4072, 17972.87
596.8893, 17972.69
597.3714, 18007.42
597.8535, 18046.41
598.3356, 18073.74
598.8177, 18088.80
599.2999, 18089.98
599.7820, 18053.49
600.2641, 18020.79
600.7462, 18014.72
601.2283, 18042.40
601.7104, 18080.26
602.1926, 18141.90
602.6747, 18200.43
603.1568, 18225.11
603.6389, 18207.72
604.1210, 18196.21
604.6031, 18197.86
605.0853, 18209.52
605.5674, 18225.69
606.0495, 18246.39
606.5316, 18269.35
607.0137, 18294.80
607.4958, 18321.43
607.9780, 18351.68
608.4601, 18383.95
608.9422, 18406.11
609.4243, 18402.79
609.9064, 18390.07
610.3885, 18380.68
610.8707, 18375.89
611.3528, 18376.24
611.8349, 18381.36
612.3170, 18392.25
612.7991, 18410.64
613.2813, 18447.30
613.7634, 18475.62
614.2455, 18492.26
614.7276, 18499.67
615.2097, 18502.18
615.6918, 18499.07
616.1740, 18495.37
616.6561, 18489.67
617.1382, 18485.35
617.6203, 18500.58
618.1024, 18535.00
618.5845, 18566.71
619.0667, 18574.62
619.5488, 18570.43
620.0309, 18567.43
620.5130, 18564.67
620.9951, 18578.12
621.4772, 18642.07
621.9594, 18717.67
622.4415, 18762.00
622.9236, 18738.47
623.4057, 18712.27
623.8878, 18688.04
624.3699, 18669.64
624.8521, 18666.70
625.3342, 18688.55
625.8163, 18710.21
626.2984, 18726.81
626.7805, 18738.06
627.2626, 18741.74
627.7448, 18738.73
628.2269, 18723.93
628.7090, 18680.55
629.1911, 18621.73
629.6732, 18599.66
630.1553, 18621.04
630.6375, 18645.54
631.1196, 18631.48
631.6017, 18600.20
632.0838, 18582.02
632.5659, 18591.01
633.0480, 18604.53
633.5302, 18610.58
634.0123, 18614.28
634.4944, 18624.70
634.9765, 18671.34
635.4586, 18692.15
635.9407, 18665.08
636.4229, 18598.68
636.9050, 18545.76
637.3871, 18505.32
637.8692, 18479.75
638.3513, 18474.06
638.8334, 18486.58
639.3155, 18496.61
639.7976, 18505.21
640.2797, 18502.23
640.7618, 18462.19
641.2440, 18407.17
641.7261, 18383.70
642.2082, 18406.79
642.6903, 18440.33
643.1724, 18465.01
643.6545, 18481.50
644.1367, 18490.10
644.6188, 18481.21
645.1009, 18475.51
645.5830, 18481.48
646.0651, 18494.92
646.5472, 18500.75
647.0294, 18489.56
647.5115, 18484.33
647.9936, 18492.37
648.4757, 18512.51
648.9578, 18538.19
649.4399, 18571.76
649.9221, 18593.89
650.4042, 18582.23
650.8863, 18547.20
651.3684, 18526.75
651.8505, 18525.30
652.3326, 18521.48
652.8148, 18482.36
653.2969, 18434.94
653.7790, 18415.20
654.2611, 18443.32
654.7432, 18483.12
655.2253, 18544.30
655.7075, 18603.48
656.1896, 18619.04
656.6717, 18528.54
657.1538, 18465.56
657.6359, 18460.93
658.1180, 18498.43
658.6002, 18511.24
659.0823, 18495.50
659.5644, 18468.14
660.0465, 18435.28
660.5286, 18397.16
661.0107, 18347.52
661.4929, 18286.63
661.9750, 18246.01
662.4571, 18272.43
662.9392, 18326.15
663.4213, 18350.11
663.9034, 18332.37
664.3856, 18311.21
664.8677, 18298.46
665.3498, 18296.88
665.8319, 18309.08
666.3140, 18365.65
666.7961, 18395.62
667.2783, 18379.77
667.7604, 18339.85
668.2425, 18312.43
668.7246, 18296.58
669.2067, 18295.29
669.6888, 18316.69
670.1710, 18347.30
670.6531, 18340.29
671.1352, 18297.96
671.6173, 18262.32
672.0994, 18266.23
672.5815, 18288.63
673.0637, 18308.97
673.5458, 18325.64
674.0279, 18319.83
674.5100, 18253.23
674.9921, 18180.81
675.4742, 18142.96
675.9564, 18152.69
676.4385, 18175.40
676.9206, 18233.91
677.4027, 18284.46
677.8848, 18285.59
678.3669, 18210.74
678.8491, 18167.86
679.3312, 18169.90
679.8133, 18197.63
680.2954, 18226.29
680.7775, 18254.33
681.2596, 18272.81
681.7418, 18276.33
682.2239, 18271.05
682.7060, 18260.96
683.1881, 18248.21
683.6702, 18240.14
684.1523, 18236.94
684.6345, 18242.47
685.1166, 18265.33
685.5987, 18303.89
686.0808, 18332.21
686.5629, 18350.07
687.0450, 18353.77
687.5272, 18336.84
688.0093, 18295.38
688.4914, 18271.50
688.9735, 18266.26
689.4556, 18275.32
689.9377, 18304.15
690.4199, 18346.78
690.9020, 18365.73
691.3841, 18353.02
691.8662, 18336.12
692.3483, 18343.43
692.8304, 18364.51
693.3126, 18383.61
693.7947, 18398.40
694.2768, 18406.11
694.7589, 18407.88
695.2410, 18401.25
695.7231, 18381.48
696.2053, 18320.97
696.6874, 18284.07
697.1695, 18292.54
697.6516, 18330.49
698.1337, 18338.45
698.6158, 18311.52
699.0980, 18283.12
699.5801, 18265.52
700.0622, 18258.34
700.5443, 18264.57
701.0264, 18282.95
701.5085, 18299.99
701.9907, 18307.86
702.4728, 18308.83
702.9549, 18306.02
703.4370, 18299.79
703.9191, 18284.41
704.4012, 18242.49
704.8834, 18200.44
705.3655, 18178.18
705.8476, 18184.50
706.3297, 18190.20
706.8118, 18194.58
707.2939, 18199.28
707.7761, 18208.96
708.2582, 18224.44
708.7403, 18226.56
709.2224, 18208.84
709.7045, 18187.76
710.1866, 18190.12
710.6688, 18208.04
711.1509, 18219.89
711.6330, 18210.74
712.1151, 18201.83
712.5972, 18208.15
713.0793, 18225.47
713.5615, 18243.89
714.0436, 18260.22
714.5257, 18277.24
715.0078, 18295.48
715.4899, 18314.49
715.9720, 18334.17
716.4542, 18356.15
716.9363, 18372.73
717.4184, 18377.77
717.9005, 18373.84
718.3826, 18375.45
718.8647, 18382.55
719.3469, 18389.46
719.8290, 18391.16
720.3111, 18390.88
720.7932, 18392.99
721.2753, 18398.17
721.7574, 18402.81
722.2396, 18406.89
722.7217, 18408.60
723.2038, 18405.51
723.6859, 18390.29
724.1680, 18386.30
724.6501, 18401.58
725.1323, 18418.84
725.6144, 18414.56
726.0965, 18385.61
726.5786, 18377.50
727.0607, 18400.86
727.5428, 18434.20
728.0250, 18446.65
728.5071, 18444.71
728.9892, 18445.54
729.4713, 18459.40
729.9534, 18472.50
730.4355, 18477.53
730.9177, 18475.08
731.3998, 18466.22
731.8819, 18438.05
732.3640, 18418.52
732.8461, 18414.46
733.3282, 18423.32
733.8104, 18435.11
734.2925, 18448.77
734.7746, 18468.62
735.2567, 18502.90
735.7388, 18542.83
736.2209, 18553.26
736.7031, 18536.59
737.1852, 18519.69
737.6673, 18527.43
738.1494, 18540.12
738.6315, 18536.39
739.1136, 18515.61
739.5958, 18495.75
740.0779, 18472.67
740.5600, 18462.00
741.0421, 18478.43
741.5242, 18531.46
742.0063, 18568.69
742.4885, 18589.07
742.9706, 18594.74
743.4527, 18574.93
743.9348, 18532.17
744.4169, 18532.54
744.8990, 18587.30
745.3812, 18646.98
745.8633, 18649.96
746.3454, 18626.60
746.8275, 18630.43
747.3096, 18690.18
747.7917, 18735.38
748.2739, 18802.66
748.7560, 18840.59
749.2381, 18850.76
749.7202, 18749.99
750.2023, 18792.47
750.6844, 18777.54
751.1666, 18760.26
751.6487, 18822.90
752.1308, 18738.27
752.6129, 18799.64
753.0950, 18802.74
753.5771, 18832.50
754.0593, 18804.51
754.5414, 18794.35
755.0235, 18841.97
755.5056, 18857.61
755.9877, 18822.96
756.4698, 18854.42
756.9520, 18767.77
757.4341, 18742.14
757.9162, 18763.57
758.3983, 18767.86
758.8804, 18735.93
759.3625, 18676.61
759.8447, 18650.65
760.3268, 18663.22
760.8089, 18681.79
761.2910, 18695.24
761.7731, 18701.48
762.2552, 18682.38
762.7373, 18642.94
763.2194, 18626.11
763.7015, 18691.96
764.1837, 18767.26
764.6658, 18782.43
765.1479, 18724.43
765.6300, 18708.21
766.1121, 18797.90
766.5942, 18890.29
767.0764, 18928.09
767.5585, 18899.33
768.0406, 18898.04
768.5227, 18928.82
769.0048, 18966.52
769.4869, 18989.37
769.9691, 19001.39
770.4512, 19013.67
770.9333, 19027.58
771.4154, 19040.90
771.8975, 19058.26
772.3796, 19071.34
772.8618, 19072.05
773.3439, 19057.85
773.8260, 19034.54
774.3081, 18992.19
774.7902, 18950.31
775.2723, 18924.54
775.7545, 18913.37
776.2366, 18933.35
776.7187, 18995.24
777.2008, 19064.38
777.6829, 19091.95
778.1650, 19086.85
778.6472, 19072.77
779.1293, 19049.45
779.6114, 19033.14
780.0935, 19043.53
780.5756, 19066.67
781.0577, 19082.70
781.5399, 19063.31
782.0220, 19066.32
782.5041, 19113.71
782.9862, 19178.79
783.4683, 19215.97
783.9504, 19220.95
784.4326, 19217.11
784.9147, 19201.67
785.3968, 19193.85
785.8789, 19246.85
786.3610, 19341.13
786.8431, 19410.13
787.3253, 19408.26
787.8074, 19388.34
788.2895, 19378.46
788.7716, 19377.54
789.2537, 19382.44
789.7358, 19404.99
790.2180, 19416.60
790.7001, 19400.88
791.1822, 19371.16
791.6643, 19381.96
792.1464, 19438.31
792.6285, 19490.67
793.1107, 19522.07
793.5928, 19535.12
794.0749, 19531.20
794.5570, 19512.99
795.0391, 19492.14
795.5212, 19467.35
796.0034, 19449.21
796.4855, 19446.45
796.9676, 19457.85
797.4497, 19470.38
797.9318, 19484.70
798.4139, 19498.49
798.8961, 19514.61
799.3782, 19530.59
799.8603, 19518.95
800.3424, 19477.31
800.8245, 19452.73
801.3066, 19500.09
801.7888, 19569.68
802.2709, 19556.12
802.7530, 19473.87
803.2351, 19425.23
803.7172, 19505.09
804.1993, 19597.04
804.6815, 19630.36
805.1636, 19597.48
805.6457, 19582.82
806.1278, 19601.66
806.6099, 19612.14
807.0920, 19556.56
807.5742, 19631.54
808.0563, 19677.18
808.5384, 19695.05
809.0205, 19601.98
809.5026, 19652.17
809.9847, 19644.95
810.4669, 19635.37
810.9490, 19705.71
811.4311, 19628.78
811.9132, 19697.86
812.3953, 19708.66
812.8774, 19660.34
813.3596, 19665.06
813.8417, 19674.90
814.3238, 19693.52
814.8059, 19706.81
815.2880, 19700.12
815.7701, 19679.18
816.2523, 19667.96
816.7344, 19667.13
817.2165, 19675.73
817.6986, 19705.71
818.1807, 19736.77
818.6628, 19747.03
819.1450, 19731.35
819.6271, 19726.13
820.1092, 19750.88
820.5913, 19778.01
821.0734, 19795.13
821.5555, 19801.81
822.0377, 19797.54
822.5198, 19778.97
823.0019, 19767.58
823.4840, 19794.05
823.9661, 19836.62
824.4482, 19842.87
824.9304, 19808.25
825.4125, 19781.75
825.8946, 19791.33
826.3767, 19821.28
826.8588, 19867.10
827.3409, 19938.35
827.8231, 19976.73
828.3052, 19966.78
828.7873, 19947.13
829.2694, 19950.28
829.7515, 19974.21
830.2336, 19958.87
830.7158, 19901.17
831.1979, 19846.51
831.6800, 19841.16
832.1621, 19857.07
832.6442, 19859.33
833.1263, 19842.73
833.6085, 19829.44
834.0906, 19824.59
834.5727, 19828.52
835.0548, 19845.71
835.5369, 19882.88
836.0190, 19886.98
836.5012, 19849.26
836.9833, 19808.73
837.4654, 19797.91
837.9475, 19809.26
838.4296, 19820.70
838.9117, 19831.12
839.3939, 19848.86
839.8760, 19901.79
840.3581, 19949.16
840.8402, 19953.61
841.3223, 19903.32
841.8044, 19856.85
842.2866, 19815.58
842.7687, 19781.79
843.2508, 19757.80
843.7329, 19743.45
844.2150, 19735.03
844.6971, 19732.95
845.1793, 19726.87
845.6614, 19696.41
846.1435, 19663.08
846.6256, 19668.77
847.1077, 19715.75
847.5898, 19729.46
848.0720, 19625.85
848.5541, 19528.54
849.0362, 19518.33
849.5183, 19604.72
850.0004, 19620.51
850.4825, 19548.58
850.9647, 19468.66
851.4468, 19429.87
851.9289, 19424.82
852.4110, 19436.45
852.8931, 19462.96
853.3752, 19485.94
853.8574, 19497.85
854.3395, 19498.68
854.8216, 19479.96
855.3037, 19440.38
855.7858, 19427.83
856.2679, 19459.81
856.7501, 19493.49
857.2322, 19507.23
857.7143, 19504.89
858.1964, 19525.30
858.6785, 19567.65
859.1606, 19597.52
859.6428, 19578.32
860.1249, 19544.13
860.6070, 19536.58
861.0891, 19551.48
861.5712, 19554.08
862.0533, 19510.06
862.5355, 19475.24
863.0176, 19470.96
863.4997, 19493.68
863.9818, 19523.54
864.4639, 19564.27
864.9460, 19587.41
865.4282, 19569.08
865.9103, 19531.84
866.3924, 19522.84
866.8745, 19535.43
867.3566, 19542.71
867.8387, 19533.28
868.3209, 19513.98
868.8030, 19482.89
869.2851, 19443.83
869.7672, 19410.60
870.2493, 19376.33
870.7314, 19365.41
871.2136, 19389.47
871.6957, 19436.62
872.1778, 19483.33
872.6599, 19527.49
873.1420, 19558.87
873.6241, 19574.69
874.1063, 19573.77
874.5884, 19532.79
875.0705, 19476.19
875.5526, 19456.92
876.0347, 19538.19
876.5168, 19584.53
876.9990, 19561.41
877.4811, 19509.18
877.9632, 19515.09
878.4453, 19577.11
878.9274, 19618.45
879.4095, 19615.58
879.8917, 19596.64
880.3738, 19590.18
880.8559, 19591.10
881.3380, 19591.18
881.8201, 19591.39
882.3022, 19585.34
882.7844, 19556.95
883.2665, 19531.29
883.7486, 19543.06
884.2307, 19600.79
884.7128, 19635.07
885.1949, 19633.56
885.6770, 19624.02
886.1591, 19643.06
886.6412, 19677.27
887.1234, 19702.02
887.6055, 19710.34
888.0876, 19717.11
888.5697, 19725.02
889.0518, 19737.23
889.5339, 19758.81
890.0161, 19799.79
890.4982, 19813.78
890.9803, 19793.01
891.4624, 19770.33
891.9445, 19779.46
892.4266, 19809.34
892.9088, 19827.74
893.3909, 19831.44
893.8730, 19843.46
894.3551, 19900.71
894.8372, 19954.15
895.3193, 19962.54
895.8015, 19914.97
896.2836, 19881.04
896.7657, 19864.74
897.2478, 19853.92
897.7299, 19846.59
898.2120, 19839.98
898.6942, 19820.37
899.1763, 19788.50
899.6584, 19744.33
900.1405, 19651.95
900.6226, 19578.97
901.1047, 19598.09
901.5869, 19696.14
902.0690, 19754.03
902.5511, 19740.07
903.0332, 19718.71
903.5153, 19700.77
903.9974, 19691.38
904.4796, 19719.82
904.9617, 19780.81
905.4438, 19826.46
905.9259, 19827.08
906.4080, 19813.10
906.8901, 19813.80
907.3723, 19820.54
907.8544, 19814.79
908.3365, 19777.97
908.8186, 19745.01
909.3007, 19711.98
909.7828, 19693.15
910.2650, 19728.88
910.7471, 19815.96
911.2292, 19864.42
911.7113, 19849.38
912.1934, 19810.79
912.6755, 19777.08
913.1577, 19753.54
913.6398, 19748.88
914.1219, 19773.83
914.6040, 19800.55
915.0861, 19831.02
915.5682, 19856.14
916.0504, 19868.11
916.5325, 19866.98
917.0146, 19855.46
917.4967, 19832.87
917.9788, 19811.21
918.4609, 19799.47
918.9431, 19796.58
919.4252, 19801.47
919.9073, 19814.18
920.3894, 19832.84
920.8715, 19859.47
921.3536, 19889.33
921.8358, 19922.03
922.3179, 19956.67
922.8000, 19974.79
923.2821, 19974.44
923.7642, 19976.14
924.2463, 19997.68
924.7285, 20024.90
925.2106, 20040.66
925.6927, 20045.51
926.1748, 20043.00
926.6569, 20022.01
927.1390, 20009.40
927.6212, 20024.09
928.1033, 20050.35
928.5854, 20034.91
929.0675, 19972.72
929.5496, 19936.97
930.0317, 19957.62
930.5139, 19999.84
930.9960, 20017.55
931.4781, 20021.52
931.9602, 20033.13
932.4423, 20090.58
932.9244, 20110.81
933.4066, 20042.13
933.8887, 19949.14
934.3708, 19894.55
934.8529, 19880.27
935.3350, 19897.56
935.8171, 19950.77
936.2993, 20004.48
936.7814, 20019.61
937.2635, 20011.47
937.7456, 19996.44
938.2277, 19974.16
938.7098, 19967.87
939.1920, 19999.85
939.6741, 20037.46
940.1562, 20066.81
940.6383, 20087.92
941.1204, 20093.83
941.6025, 20084.33
942.0847, 20063.59
942.5668, 20030.16
943.0489, 19990.20
943.5310, 19940.64
944.0131, 19888.43
944.4952, 19863.70
944.9774, 19913.29
945.4595, 19949.32
945.9416, 19936.09
946.4237, 19895.57
946.9058, 19896.67
947.3879, 19940.45
947.8701, 19974.36
948.3522, 19977.53
948.8343, 19974.73
949.3164, 19996.09
949.7985, 20032.26
950.2806, 20067.67
950.7628, 20113.29
951.2449, 20131.57
951.7270, 20099.04
952.2091, 20056.42
952.6912, 20048.53
953.1733, 20075.68
953.6555, 20092.37
954.1376, 20094.77
954.6197, 20089.52
955.1018, 20066.29
955.5839, 20048.60
956.0660, 20077.73
956.5482, 20165.74
957.0303, 20196.84
957.5124, 20095.26
957.9945, 20010.39
958.4766, 20014.40
958.9587, 20089.30
959.4409, 20123.40
959.9230, 20118.53
960.4051, 20101.25
960.8872, 20063.30
961.3693, 20038.75
961.8514, 20078.09
962.3336, 20153.86
962.8157, 20191.26
963.2978, 20156.64
963.7799, 20113.53
964.2620, 20059.09
964.7441, 20014.22
965.2263, 20034.14
965.7084, 20102.03
966.1905, 20127.29
966.6726, 20079.92
967.1547, 20030.83
967.6368, 20031.14
968.1190, 20059.83
968.6011, 20100.41
969.0832, 20161.97
969.5653, 20199.01
970.0474, 20209.06
970.5295, 20201.30
971.0117, 20171.73
971.4938, 20130.57
971.9759, 20110.16
972.4580, 20110.70
972.9401, 20127.80
973.4222, 20184.92
973.9044, 20233.21
974.3865, 20237.65
974.8686, 20206.97
975.3507, 20186.78
975.8328, 20178.38
976.3149, 20173.50
976.7971, 20167.49
977.2792, 20167.04
977.7613, 20193.23
978.2434, 20232.76
978.7255, 20254.66
979.2076, 20235.61
979.6898, 20220.26
980.1719, 20235.67
980.6540, 20253.81
981.1361, 20241.99
981.6182, 20191.30
982.1003, 20178.13
982.5825, 20208.80
983.0646, 20251.63
983.5467, 20287.69
984.0288, 20313.09
984.5109, 20322.95
984.9930, 20317.12
985.4752, 20299.13
985.9573, 20255.20
986.4394, 20215.49
986.9215, 20186.88
987.4036, 20170.77
987.8857, 20183.57
988.3679, 20221.93
988.8500, 20242.45
989.3321, 20216.72
989.8142, 20179.38
990.2963, 20152.19
990.7784, 20137.98
991.2606, 20141.88
991.7427, 20185.09
992.2248, 20211.37
992.7069, 20212.05
993.1890, 20206.82
993.6711, 20222.99
994.1533, 20252.97
994.6354, 20261.30
995.1175, 20243.03
995.5996, 20237.97
996.0817, 20296.22
996.5638, 20357.33
997.0460, 20375.21
997.5281, 20349.43
998.0102, 20327.19
998.4923, 20307.53
998.9744, 20294.24
999.4565, 20289.36
999.9387, 20291.23
1000.421, 20292.92
1000.903, 20298.80
1001.385, 20320.41
1001.867, 20397.61
1002.349, 20446.75
1002.831, 20430.95
1003.313, 20384.52
1003.796, 20338.18
1004.278, 20289.76
1004.760, 20287.73
1005.242, 20343.06
1005.724, 20398.81
1006.206, 20391.53
1006.688, 20361.21
1007.170, 20354.30
1007.653, 20378.66
1008.135, 20385.37
1008.617, 20351.40
1009.099, 20329.96
1009.581, 20350.76
1010.063, 20398.29
1010.545, 20410.93
1011.027, 20394.06
1011.509, 20373.43
1011.992, 20344.43
1012.474, 20334.79
1012.956, 20386.76
1013.438, 20459.66
1013.920, 20479.22
1014.402, 20420.04
1014.884, 20388.30
1015.366, 20396.91
1015.848, 20416.26
1016.331, 20419.08
1016.813, 20407.90
1017.295, 20380.13
1017.777, 20335.59
1018.259, 20306.90
1018.741, 20309.42
1019.223, 20330.13
1019.705, 20372.50
1020.188, 20428.81
1020.670, 20450.95
1021.152, 20439.35
1021.634, 20414.70
1022.116, 20367.28
1022.598, 20336.37
1023.080, 20378.52
1023.562, 20457.85
1024.044, 20512.53
1024.527, 20504.60
1025.009, 20520.88
1025.491, 20577.81
1025.973, 20628.15
1026.455, 20607.87
1026.937, 20542.13
1027.419, 20512.74
1027.901, 20525.07
1028.384, 20538.27
1028.866, 20523.63
1029.348, 20509.59
1029.830, 20514.89
1030.312, 20535.24
1030.794, 20551.91
1031.276, 20566.69
1031.758, 20563.20
1032.240, 20529.11
1032.723, 20488.07
1033.205, 20462.52
1033.687, 20452.59
1034.169, 20458.99
1034.651, 20494.49
1035.133, 20520.87
1035.615, 20526.75
1036.097, 20533.89
1036.579, 20567.90
1037.062, 20620.27
1037.544, 20642.76
1038.026, 20635.21
1038.508, 20621.86
1038.990, 20607.51
1039.472, 20602.03
1039.954, 20626.96
1040.436, 20667.07
1040.919, 20659.28
1041.401, 20588.53
1041.883, 20550.63
1042.365, 20576.07
1042.847, 20620.39
1043.329, 20628.46
1043.811, 20613.06
1044.293, 20590.44
1044.776, 20557.89
1045.258, 20542.33
1045.740, 20567.28
1046.222, 20584.84
1046.704, 20556.66
1047.186, 20492.87
1047.668, 20478.07
1048.150, 20506.81
1048.632, 20540.91
1049.115, 20555.69
1049.597, 20571.37
1050.079, 20612.41
1050.561, 20660.60
1051.043, 20672.39
1051.525, 20633.50
1052.007, 20610.73
1052.489, 20612.66
1052.971, 20628.97
1053.454, 20657.49
1053.936, 20687.64
1054.418, 20701.59
1054.900, 20695.59
1055.382, 20689.20
1055.864, 20681.52
1056.346, 20681.66
1056.828, 20698.20
1057.311, 20723.21
1057.793, 20720.18
1058.275, 20695.19
1058.757, 20685.29
1059.239, 20726.69
1059.721, 20753.06
1060.203, 20695.80
1060.685, 20615.66
1061.167, 20594.86
1061.650, 20662.18
1062.132, 20681.18
1062.614, 20642.21
1063.096, 20602.02
1063.578, 20620.21
1064.060, 20658.08
1064.542, 20657.78
1065.024, 20624.65
1065.506, 20607.06
1065.989, 20633.28
1066.471, 20656.80
1066.953, 20671.08
1067.435, 20675.41
1067.917, 20662.52
1068.399, 20637.50
1068.881, 20616.24
1069.363, 20597.21
1069.846, 20606.23
1070.328, 20692.19
1070.810, 20784.17
1071.292, 20829.64
1071.774, 20827.98
1072.256, 20808.17
1072.738, 20768.61
1073.220, 20731.68
1073.702, 20710.32
1074.185, 20697.71
1074.667, 20691.03
1075.149, 20687.34
1075.631, 20680.39
1076.113, 20658.67
1076.595, 20657.06
1077.077, 20688.94
1077.559, 20717.48
1078.042, 20691.72
1078.524, 20635.07
1079.006, 20602.04
1079.488, 20596.84
1079.970, 20609.88
1080.452, 20664.31
1080.934, 20703.91
1081.416, 20697.21
1081.898, 20665.25
1082.380, 20674.25
1082.863, 20721.15
1083.345, 20759.48
1083.827, 20776.53
1084.309, 20781.14
1084.791, 20767.32
1085.273, 20752.90
1085.755, 20761.30
1086.237, 20800.69
1086.720, 20812.11
1087.202, 20787.87
1087.684, 20772.41
1088.166, 20803.50
1088.648, 20850.30
1089.130, 20865.90
1089.612, 20856.62
1090.094, 20837.60
1090.577, 20791.81
1091.059, 20769.97
1091.541, 20781.73
1092.023, 20811.39
1092.505, 20848.02
1092.987, 20887.64
1093.469, 20917.26
1093.951, 20935.52
1094.433, 20941.86
1094.916, 20911.12
1095.398, 20894.08
1095.880, 20932.03
1096.362, 20999.46
1096.844, 21012.54
1097.326, 20971.02
1097.808, 20937.15
1098.290, 20925.64
1098.772, 20929.51
1099.255, 20952.12
1099.737, 20980.64
1100.219, 21002.25
1100.701, 21015.36
1101.183, 21020.93
1101.665, 21015.72
1102.147, 21016.26
1102.629, 21041.29
1103.112, 21068.07
1103.594, 21044.10
1104.076, 20991.45
1104.558, 20961.14
1105.040, 20993.40
1105.522, 21016.03
1106.004, 21019.91
1106.486, 21015.68
1106.969, 21011.29
1107.451, 21007.68
1107.933, 21010.88
1108.415, 21020.41
1108.897, 21026.31
1109.379, 21019.54
1109.861, 21012.66
1110.343, 21015.11
1110.825, 21020.25
1111.307, 21013.10
1111.790, 20993.99
1112.272, 20969.19
1112.754, 20937.03
1113.236, 20915.39
1113.718, 20933.81
1114.200, 20959.11
1114.682, 20953.73
1115.164, 20915.57
1115.647, 20918.53
1116.129, 20971.82
1116.611, 21017.56
1117.093, 21035.43
1117.575, 21030.01
1118.057, 20990.41
1118.539, 20937.99
1119.021, 20907.93
1119.504, 20919.30
1119.986, 20932.91
1120.468, 20946.42
1120.950, 20965.17
1121.432, 21007.76
1121.914, 21055.19
1122.396, 21038.74
1122.878, 20975.98
1123.360, 20936.19
1123.843, 20962.79
1124.325, 21000.07
1124.807, 21039.86
1125.289, 21077.40
1125.771, 21107.25
1126.253, 21129.39
1126.735, 21143.19
1127.217, 21148.27
1127.699, 21156.25
1128.182, 21178.28
1128.664, 21200.58
1129.146, 21214.39
1129.628, 21221.51
1130.110, 21229.30
1130.592, 21237.64
1131.074, 21236.45
1131.556, 21220.35
1132.039, 21207.33
1132.521, 21227.36
1133.003, 21250.52
1133.485, 21244.84
1133.967, 21206.45
1134.449, 21176.76
1134.931, 21158.74
1135.413, 21135.62
1135.896, 21089.17
1136.378, 21050.50
1136.860, 21078.57
1137.342, 21138.50
1137.824, 21170.96
1138.306, 21129.92
1138.788, 21126.72
1139.270, 21175.90
1139.752, 21227.51
1140.234, 21245.23
1140.717, 21238.67
1141.199, 21222.54
1141.681, 21200.80
1142.163, 21187.16
1142.645, 21204.10
1143.127, 21204.63
1143.609, 21175.04
1144.091, 21138.41
1144.574, 21131.57
1145.056, 21142.86
1145.538, 21113.96
1146.020, 21045.46
1146.502, 21007.49
1146.984, 21076.33
1147.466, 21140.36
1147.948, 21148.12
1148.431, 21128.41
1148.913, 21152.60
1149.395, 21214.35
1149.877, 21263.69
1150.359, 21291.50
1150.841, 21296.09
1151.323, 21250.30
1151.805, 21202.61
1152.287, 21186.92
1152.770, 21199.84
1153.252, 21226.52
1153.734, 21267.18
1154.216, 21288.13
1154.698, 21268.88
1155.180, 21245.66
1155.662, 21253.35
1156.144, 21273.98
1156.626, 21284.38
1157.109, 21279.66
1157.591, 21300.96
1158.073, 21352.60
1158.555, 21393.82
1159.037, 21398.66
1159.519, 21383.04
1160.001, 21354.51
1160.483, 21320.94
1160.966, 21298.45
1161.448, 21296.15
1161.930, 21286.23
1162.412, 21265.75
1162.894, 21247.11
1163.376, 21243.57
1163.858, 21247.22
1164.340, 21245.23
1164.823, 21240.03
1165.305, 21241.88
1165.787, 21262.40
1166.269, 21274.21
1166.751, 21272.08
1167.233, 21267.16
1167.715, 21264.39
1168.197, 21271.71
1168.679, 21319.09
1169.161, 21403.86
1169.644, 21452.49
1170.126, 21401.64
1170.608, 21366.66
1171.090, 21377.93
1171.572, 21410.73
1172.054, 21420.13
1172.536, 21414.73
1173.018, 21418.19
1173.501, 21435.44
1173.983, 21453.99
1174.465, 21472.12
1174.947, 21487.58
1175.429, 21501.10
1175.911, 21511.09
1176.393, 21511.24
1176.875, 21503.48
1177.358, 21490.82
1177.840, 21466.82
1178.322, 21460.99
1178.804, 21507.28
1179.286, 21556.48
1179.768, 21579.78
1180.250, 21579.81
1180.732, 21568.81
1181.214, 21549.75
1181.697, 21540.36
1182.179, 21549.50
1182.661, 21567.52
1183.143, 21608.02
1183.625, 21640.16
1184.107, 21630.68
1184.589, 21579.22
1185.071, 21542.09
1185.553, 21519.55
1186.036, 21511.99
1186.518, 21538.52
1187.000, 21559.97
1187.482, 21548.99
1187.964, 21523.52
1188.446, 21508.19
1188.928, 21503.87
1189.410, 21490.18
1189.893, 21466.41
1190.375, 21454.08
1190.857, 21485.15
1191.339, 21516.92
1191.821, 21517.60
1192.303, 21499.10
1192.785, 21488.16
1193.267, 21484.81
1193.750, 21481.90
1194.232, 21477.09
1194.714, 21488.65
1195.196, 21568.55
1195.678, 21638.61
1196.160, 21616.14
1196.642, 21527.20
1197.124, 21494.53
1197.606, 21522.70
1198.089, 21543.18
1198.571, 21539.76
1199.053, 21535.15
1199.535, 21550.36
1200.017, 21574.66
1200.499, 21606.71
1200.981, 21643.00
1201.463, 21641.06
1201.945, 21596.49
1202.427, 21566.21
1202.910, 21568.86
1203.392, 21587.91
1203.874, 21619.18
1204.356, 21650.03
1204.838, 21663.45
1205.320, 21657.97
1205.802, 21657.63
1206.284, 21661.63
1206.767, 21679.00
1207.249, 21720.84
1207.731, 21763.32
1208.213, 21783.95
1208.695, 21789.06
1209.177, 21783.09
1209.659, 21762.91
1210.141, 21760.07
1210.624, 21775.92
1211.106, 21796.24
1211.588, 21823.93
1212.070, 21839.62
1212.552, 21808.04
1213.034, 21757.62
1213.516, 21735.54
1213.998, 21754.23
1214.480, 21760.32
1214.963, 21751.78
1215.445, 21750.60
1215.927, 21782.44
1216.409, 21820.04
1216.891, 21851.90
1217.373, 21865.79
1217.855, 21830.89
1218.337, 21722.78
1218.819, 21666.29
1219.302, 21670.19
1219.784, 21690.90
1220.266, 21686.70
1220.748, 21689.37
1221.230, 21747.46
1221.712, 21833.36
1222.194, 21867.15
1222.676, 21831.38
1223.159, 21815.98
1223.641, 21829.68
1224.123, 21849.86
1224.605, 21855.06
1225.087, 21859.22
1225.569, 21888.60
1226.051, 21927.35
1226.533, 21909.97
1227.016, 21817.95
1227.498, 21780.40
1227.980, 21819.27
1228.462, 21873.74
1228.944, 21888.83
1229.426, 21894.84
1229.908, 21921.59
1230.390, 21964.14
1230.872, 21991.77
1231.354, 22003.81
1231.837, 22005.38
1232.319, 21995.75
1232.801, 21987.02
1233.283, 21999.72
1233.765, 22009.99
1234.247, 21984.83
1234.729, 21935.92
1235.211, 21933.05
1235.694, 21978.83
1236.176, 21992.30
1236.658, 21942.88
1237.140, 21914.79
1237.622, 22039.98
1238.104, 22168.41
1238.586, 22148.37
1239.068, 22016.65
1239.551, 21976.14
1240.033, 22025.59
1240.515, 22062.15
1240.997, 22055.39
1241.479, 22039.21
1241.961, 22033.26
1242.443, 22035.10
1242.925, 22045.65
1243.407, 22062.14
1243.890, 22059.93
1244.372, 22042.04
1244.854, 22050.56
1245.336, 22108.88
1245.818, 22164.27
1246.300, 22181.42
1246.782, 22180.56
1247.264, 22171.94
1247.746, 22159.00
1248.229, 22183.23
1248.711, 22234.32
1249.193, 22236.94
1249.675, 22131.97
1250.157, 22054.02
1250.639, 22114.13
1251.121, 22185.00
1251.603, 22181.13
1252.086, 22118.26
1252.568, 22083.04
1253.050, 22072.55
1253.532, 22072.52
1254.014, 22081.90
1254.496, 22091.60
1254.978, 22093.39
1255.460, 22099.10
1255.943, 22120.82
1256.425, 22150.55
1256.907, 22156.34
1257.389, 22143.11
1257.871, 22128.03
1258.353, 22108.24
1258.835, 22104.77
1259.317, 22129.36
1259.799, 22156.22
1260.281, 22173.66
1260.764, 22177.70
1261.246, 22133.34
1261.728, 22065.64
1262.210, 22045.17
1262.692, 22168.59
1263.174, 22218.83
1263.656, 22163.10
1264.138, 22087.79
1264.621, 22056.88
1265.103, 22052.47
1265.585, 22038.60
1266.067, 22022.31
1266.549, 22021.07
1267.031, 22035.06
1267.513, 22077.99
1267.995, 22159.45
1268.478, 22231.70
1268.960, 22244.46
1269.442, 22235.34
1269.924, 22252.67
1270.406, 22287.79
1270.888, 22318.32
1271.370, 22335.07
1271.852, 22373.70
1272.334, 22441.53
1272.817, 22482.22
1273.299, 22411.62
1273.781, 22332.42
1274.263, 22364.29
1274.745, 22452.37
1275.227, 22470.18
1275.709, 22398.81
1276.191, 22377.03
1276.673, 22412.22
1277.156, 22445.34
1277.638, 22431.80
1278.120, 22405.48
1278.602, 22382.15
1279.084, 22364.36
1279.566, 22360.75
1280.048, 22371.18
1280.530, 22338.09
1281.013, 22262.26
1281.495, 22215.70
1281.977, 22265.28
1282.459, 22325.81
1282.941, 22371.93
1283.423, 22398.33
1283.905, 22384.27
1284.387, 22341.11
1284.870, 22344.81
1285.352, 22391.48
1285.834, 22422.61
1286.316, 22384.43
1286.798, 22365.92
1287.280, 22395.15
1287.762, 22435.19
1288.244, 22448.21
1288.726, 22438.08
1289.208, 22399.09
1289.691, 22341.51
1290.173, 22315.48
1290.655, 22357.94
##END=



