##NAMES=Tenorite
##RRUFFID=R060978
##IDEAL CHEMISTRY=Cu^2+^O
##LOCALITY=Algomah, Michigan, USA
##OWNER=RRUFF
##SOURCE=Michael Scott
##DESCRIPTION=Black massive with some prismatic faces, associated with malachite and chrysocolla. Sample is a pseudomorph.
##STATUS=The identification of this mineral has been confirmed by X-ray diffraction.
##URL=rruff.info/R060978
147.5623, 2804.289
148.0444, 2917.727
148.5266, 3014.834
149.0087, 3096.514
149.4908, 3161.837
149.9729, 3210.667
150.4550, 3244.635
150.9371, 3265.072
151.4193, 3270.909
151.9014, 3267.378
152.3835, 3249.321
152.8656, 3226.031
153.3477, 3202.056
153.8298, 3178.518
154.3120, 3156.312
154.7941, 3136.782
155.2762, 3120.271
155.7583, 3105.297
156.2404, 3091.916
156.7225, 3079.491
157.2047, 3066.241
157.6868, 3051.656
158.1689, 3039.523
158.6510, 3036.930
159.1331, 3047.777
159.6152, 3059.897
160.0974, 3070.290
160.5795, 3081.563
161.0616, 3095.623
161.5437, 3113.117
162.0258, 3133.727
162.5079, 3157.556
162.9901, 3187.969
163.4722, 3214.915
163.9543, 3234.774
164.4364, 3252.506
164.9185, 3272.862
165.4007, 3297.656
165.8828, 3323.619
166.3649, 3343.532
166.8470, 3351.806
167.3291, 3362.680
167.8112, 3379.119
168.2933, 3397.613
168.7755, 3414.778
169.2576, 3429.337
169.7397, 3442.511
170.2218, 3457.844
170.7039, 3484.685
171.1860, 3499.316
171.6682, 3492.703
172.1503, 3477.736
172.6324, 3466.104
173.1145, 3462.687
173.5966, 3465.163
174.0787, 3468.470
174.5609, 3482.793
175.0430, 3483.331
175.5251, 3458.297
176.0072, 3424.088
176.4893, 3395.880
176.9714, 3379.984
177.4536, 3374.265
177.9357, 3373.871
178.4178, 3385.932
178.8999, 3394.779
179.3820, 3399.160
179.8641, 3400.416
180.3463, 3399.964
180.8284, 3398.349
181.3105, 3395.096
181.7926, 3389.056
182.2747, 3367.469
182.7568, 3359.036
183.2390, 3377.682
183.7211, 3404.218
184.2032, 3416.364
184.6853, 3405.672
185.1674, 3382.473
185.6495, 3369.636
186.1317, 3370.890
186.6138, 3379.595
187.0959, 3407.030
187.5780, 3437.322
188.0601, 3451.482
188.5422, 3442.761
189.0244, 3421.807
189.5065, 3410.684
189.9886, 3421.732
190.4707, 3426.061
190.9528, 3414.666
191.4349, 3399.893
191.9170, 3396.913
192.3992, 3410.607
192.8813, 3431.281
193.3634, 3440.176
193.8455, 3418.313
194.3276, 3414.678
194.8097, 3445.981
195.2919, 3489.033
195.7740, 3521.926
196.2561, 3537.936
196.7382, 3541.095
197.2203, 3537.372
197.7024, 3520.296
198.1846, 3507.452
198.6667, 3499.294
199.1488, 3495.368
199.6309, 3495.321
200.1130, 3499.054
200.5951, 3506.394
201.0773, 3517.352
201.5594, 3533.937
202.0415, 3550.377
202.5236, 3573.785
203.0057, 3593.096
203.4878, 3594.260
203.9700, 3575.135
204.4521, 3551.287
204.9342, 3543.688
205.4163, 3562.861
205.8984, 3571.884
206.3805, 3561.934
206.8627, 3547.394
207.3448, 3539.303
207.8269, 3539.642
208.3090, 3545.054
208.7911, 3552.633
209.2732, 3564.512
209.7554, 3569.394
210.2375, 3559.270
210.7196, 3548.054
211.2017, 3548.282
211.6838, 3560.170
212.1659, 3572.168
212.6480, 3571.007
213.1302, 3551.726
213.6123, 3546.902
214.0944, 3569.766
214.5765, 3595.296
215.0586, 3606.342
215.5407, 3603.263
216.0229, 3598.506
216.5050, 3603.327
216.9871, 3619.138
217.4692, 3632.172
217.9513, 3643.335
218.4334, 3651.509
218.9156, 3654.570
219.3977, 3653.586
219.8798, 3652.206
220.3619, 3653.043
220.8440, 3656.146
221.3261, 3661.222
221.8083, 3670.083
222.2904, 3678.714
222.7725, 3686.520
223.2546, 3692.846
223.7367, 3695.709
224.2188, 3693.034
224.7010, 3685.599
225.1831, 3684.624
225.6652, 3693.431
226.1473, 3703.702
226.6294, 3715.089
227.1115, 3726.028
227.5937, 3733.424
228.0758, 3735.229
228.5579, 3732.648
229.0400, 3731.885
229.5221, 3730.512
230.0042, 3733.567
230.4864, 3748.757
230.9685, 3767.533
231.4506, 3775.580
231.9327, 3765.699
232.4148, 3745.184
232.8969, 3735.960
233.3791, 3746.591
233.8612, 3759.031
234.3433, 3774.745
234.8254, 3790.801
235.3075, 3803.546
235.7896, 3811.666
236.2717, 3817.208
236.7539, 3824.573
237.2360, 3839.288
237.7181, 3847.519
238.2002, 3844.748
238.6823, 3838.255
239.1644, 3833.547
239.6466, 3832.288
240.1287, 3833.866
240.6108, 3837.286
241.0929, 3841.814
241.5750, 3850.440
242.0571, 3870.651
242.5393, 3889.085
243.0214, 3893.918
243.5035, 3885.349
243.9856, 3874.587
244.4677, 3874.569
244.9498, 3887.976
245.4320, 3902.238
245.9141, 3920.059
246.3962, 3936.338
246.8783, 3949.225
247.3604, 3958.383
247.8425, 3963.634
248.3247, 3964.189
248.8068, 3959.505
249.2889, 3957.614
249.7710, 3955.427
250.2531, 3959.056
250.7352, 3974.121
251.2174, 3996.604
251.6995, 4018.484
252.1816, 4034.359
252.6637, 4044.614
253.1458, 4052.357
253.6279, 4052.929
254.1101, 4056.352
254.5922, 4066.861
255.0743, 4080.858
255.5564, 4092.981
256.0385, 4100.179
256.5206, 4104.627
257.0027, 4113.606
257.4849, 4132.954
257.9670, 4146.789
258.4491, 4147.529
258.9312, 4144.539
259.4133, 4146.496
259.8954, 4156.590
260.3776, 4172.725
260.8597, 4193.106
261.3418, 4221.269
261.8239, 4243.188
262.3060, 4255.134
262.7881, 4261.335
263.2703, 4260.717
263.7524, 4254.036
264.2345, 4250.544
264.7166, 4264.683
265.1987, 4299.857
265.6808, 4324.917
266.1630, 4328.630
266.6451, 4327.305
267.1272, 4327.173
267.6093, 4329.443
268.0914, 4335.947
268.5735, 4351.035
269.0557, 4373.414
269.5378, 4389.417
270.0199, 4391.348
270.5020, 4396.855
270.9841, 4418.051
271.4662, 4450.589
271.9484, 4482.715
272.4305, 4510.769
272.9126, 4533.692
273.3947, 4546.492
273.8768, 4543.580
274.3589, 4545.162
274.8411, 4571.224
275.3232, 4607.980
275.8053, 4633.116
276.2874, 4629.245
276.7695, 4621.026
277.2516, 4642.625
277.7338, 4696.356
278.2159, 4751.337
278.6980, 4798.099
279.1801, 4834.640
279.6622, 4856.132
280.1443, 4852.862
280.6265, 4853.843
281.1086, 4885.235
281.5907, 4941.502
282.0728, 4992.264
282.5549, 5023.751
283.0370, 5050.293
283.5192, 5094.993
284.0013, 5159.969
284.4834, 5227.688
284.9655, 5285.591
285.4476, 5342.605
285.9297, 5415.823
286.4119, 5510.433
286.8940, 5615.677
287.3761, 5716.827
287.8582, 5811.274
288.3403, 5928.432
288.8224, 6077.083
289.3046, 6246.987
289.7867, 6424.246
290.2688, 6608.819
290.7509, 6817.794
291.2330, 7072.834
291.7151, 7375.118
292.1972, 7657.215
292.6794, 7888.644
293.1615, 8130.034
293.6436, 8427.319
294.1257, 8761.882
294.6078, 9083.326
295.0899, 9360.310
295.5721, 9601.956
296.0542, 9851.126
296.5363, 10159.21
297.0184, 10415.86
297.5005, 10633.51
297.9826, 10779.30
298.4648, 10817.02
298.9469, 10732.06
299.4290, 10529.74
299.9111, 10214.91
300.3932, 9725.079
300.8753, 9212.868
301.3575, 8635.116
301.8396, 8066.374
302.3217, 7559.585
302.8038, 7125.748
303.2859, 6753.086
303.7680, 6431.188
304.2502, 6163.928
304.7323, 5931.098
305.2144, 5746.346
305.6965, 5584.329
306.1786, 5436.454
306.6607, 5303.628
307.1429, 5190.024
307.6250, 5102.077
308.1071, 5036.287
308.5892, 4973.350
309.0713, 4910.628
309.5534, 4855.299
310.0356, 4804.315
310.5177, 4762.486
310.9998, 4738.854
311.4819, 4740.738
311.9640, 4750.643
312.4461, 4736.825
312.9283, 4692.934
313.4104, 4654.025
313.8925, 4633.190
314.3746, 4619.774
314.8567, 4607.208
315.3388, 4594.761
315.8210, 4580.866
316.3031, 4563.281
316.7852, 4542.700
317.2673, 4522.768
317.7494, 4501.735
318.2315, 4485.240
318.7137, 4480.834
319.1958, 4486.445
319.6779, 4489.998
320.1600, 4484.708
320.6421, 4475.396
321.1242, 4467.490
321.6064, 4460.850
322.0885, 4460.899
322.5706, 4475.081
323.0527, 4499.944
323.5348, 4517.838
324.0169, 4528.780
324.4991, 4531.783
324.9812, 4520.608
325.4633, 4499.818
325.9454, 4483.749
326.4275, 4478.723
326.9096, 4483.311
327.3918, 4495.528
327.8739, 4526.125
328.3560, 4544.888
328.8381, 4536.629
329.3202, 4518.096
329.8023, 4509.231
330.2845, 4514.899
330.7666, 4526.085
331.2487, 4531.072
331.7308, 4526.504
332.2129, 4527.194
332.6950, 4535.876
333.1772, 4546.689
333.6593, 4557.823
334.1414, 4568.491
334.6235, 4577.845
335.1056, 4585.274
335.5877, 4590.874
336.0698, 4595.436
336.5519, 4592.089
337.0341, 4596.448
337.5162, 4616.816
337.9983, 4644.417
338.4804, 4668.609
338.9625, 4685.095
339.4446, 4696.997
339.9268, 4708.590
340.4089, 4717.469
340.8910, 4733.872
341.3731, 4768.974
341.8552, 4805.290
342.3373, 4831.642
342.8195, 4847.260
343.3016, 4859.354
343.7837, 4872.856
344.2658, 4887.686
344.7479, 4904.849
345.2300, 4928.887
345.7122, 4946.847
346.1943, 4950.302
346.6764, 4941.795
347.1585, 4925.646
347.6406, 4898.852
348.1227, 4868.302
348.6049, 4842.185
349.0870, 4820.591
349.5691, 4799.654
350.0512, 4776.691
350.5333, 4753.981
351.0154, 4736.525
351.4976, 4727.012
351.9797, 4717.085
352.4618, 4697.322
352.9439, 4675.733
353.4260, 4672.208
353.9081, 4693.865
354.3903, 4717.877
354.8724, 4712.790
355.3545, 4666.192
355.8366, 4630.854
356.3187, 4610.359
356.8008, 4598.658
357.2830, 4594.244
357.7651, 4595.508
358.2472, 4598.964
358.7293, 4602.320
359.2114, 4605.509
359.6935, 4607.732
360.1757, 4614.707
360.6578, 4613.892
361.1399, 4594.494
361.6220, 4569.710
362.1041, 4556.756
362.5862, 4561.710
363.0684, 4573.904
363.5505, 4574.823
364.0326, 4560.304
364.5147, 4547.462
364.9968, 4533.365
365.4789, 4524.692
365.9611, 4528.653
366.4432, 4542.917
366.9253, 4556.686
367.4074, 4559.204
367.8895, 4553.976
368.3716, 4558.806
368.8538, 4579.204
369.3359, 4597.436
369.8180, 4603.434
370.3001, 4601.644
370.7822, 4596.922
371.2643, 4588.044
371.7465, 4580.733
372.2286, 4583.369
372.7107, 4594.012
373.1928, 4598.684
373.6749, 4590.620
374.1570, 4577.683
374.6392, 4572.262
375.1213, 4574.919
375.6034, 4577.942
376.0855, 4578.672
376.5676, 4579.123
377.0497, 4583.640
377.5319, 4591.998
378.0140, 4595.785
378.4961, 4585.740
378.9782, 4561.907
379.4603, 4553.610
379.9424, 4571.341
380.4246, 4589.952
380.9066, 4610.886
381.3888, 4625.126
381.8709, 4613.704
382.3530, 4568.184
382.8351, 4510.321
383.3172, 4486.021
383.7993, 4516.309
384.2815, 4537.882
384.7636, 4550.053
385.2457, 4553.155
385.7278, 4538.653
386.2099, 4512.222
386.6920, 4496.081
387.1742, 4516.965
387.6563, 4567.006
388.1384, 4583.553
388.6205, 4544.724
389.1026, 4512.930
389.5847, 4519.286
390.0669, 4547.033
390.5490, 4575.905
391.0311, 4601.874
391.5132, 4623.447
391.9953, 4640.472
392.4774, 4652.402
392.9596, 4653.279
393.4417, 4636.033
393.9238, 4615.341
394.4059, 4612.173
394.8880, 4626.472
395.3701, 4637.842
395.8523, 4635.813
396.3344, 4631.653
396.8165, 4638.548
397.2986, 4656.277
397.7807, 4673.912
398.2628, 4683.571
398.7450, 4686.423
399.2271, 4691.990
399.7092, 4699.332
400.1913, 4710.102
400.6734, 4730.117
401.1555, 4751.433
401.6377, 4764.237
402.1198, 4765.637
402.6019, 4760.324
403.0840, 4754.913
403.5661, 4750.230
404.0482, 4742.561
404.5304, 4717.012
405.0125, 4702.768
405.4946, 4720.130
405.9767, 4758.706
406.4588, 4793.141
406.9409, 4807.816
407.4231, 4809.942
407.9052, 4816.692
408.3873, 4829.605
408.8694, 4841.167
409.3515, 4850.323
409.8336, 4855.776
410.3158, 4854.018
410.7979, 4843.491
411.2800, 4836.041
411.7621, 4841.798
412.2442, 4855.178
412.7263, 4862.950
413.2085, 4862.157
413.6906, 4862.624
414.1727, 4874.319
414.6548, 4896.711
415.1369, 4912.256
415.6190, 4915.050
416.1012, 4916.854
416.5833, 4925.711
417.0654, 4937.497
417.5475, 4941.858
418.0296, 4934.159
418.5117, 4922.472
418.9939, 4922.549
419.4760, 4939.997
419.9581, 4930.955
420.4402, 4964.487
420.9223, 4984.204
421.4044, 4990.847
421.8866, 4945.262
422.3687, 4967.119
422.8508, 4961.948
423.3329, 4955.669
423.8150, 4987.019
424.2971, 4949.029
424.7793, 4979.782
425.2614, 4983.094
425.7435, 4998.965
426.2256, 4987.641
426.7077, 4984.717
427.1898, 5008.996
427.6719, 5018.212
428.1541, 5003.758
428.6362, 5020.427
429.1183, 4981.488
429.6004, 4991.346
430.0825, 4962.967
430.5646, 4988.871
431.0468, 5004.839
431.5289, 4995.830
432.0110, 4985.817
432.4931, 4993.921
432.9752, 5011.105
433.4573, 5013.413
433.9395, 4989.882
434.4216, 4956.706
434.9037, 4944.736
435.3858, 4967.375
435.8679, 4983.951
436.3500, 4991.048
436.8322, 4995.826
437.3143, 5001.051
437.7964, 5007.559
438.2785, 5016.725
438.7606, 5030.855
439.2427, 5046.902
439.7249, 5052.497
440.2070, 5043.069
440.6891, 5034.449
441.1712, 5029.320
441.6533, 5028.204
442.1354, 5033.479
442.6176, 5045.628
443.0997, 5057.003
443.5818, 5059.071
444.0639, 5056.783
444.5460, 5064.994
445.0281, 5087.097
445.5103, 5107.318
445.9924, 5113.473
446.4745, 5106.781
446.9566, 5100.447
447.4387, 5092.146
447.9208, 5086.793
448.4030, 5089.606
448.8851, 5095.738
449.3672, 5095.076
449.8493, 5084.879
450.3314, 5075.762
450.8135, 5084.164
451.2957, 5118.188
451.7778, 5137.082
452.2599, 5129.103
452.7420, 5118.979
453.2241, 5117.741
453.7062, 5120.882
454.1884, 5117.122
454.6705, 5099.048
455.1526, 5078.037
455.6347, 5076.498
456.1168, 5096.984
456.5989, 5117.726
457.0811, 5136.468
457.5632, 5151.266
458.0453, 5160.293
458.5274, 5163.835
459.0095, 5165.178
459.4916, 5162.884
459.9738, 5160.601
460.4559, 5164.467
460.9380, 5173.721
461.4201, 5179.750
461.9022, 5177.041
462.3843, 5169.328
462.8665, 5167.706
463.3486, 5179.908
463.8307, 5185.308
464.3128, 5171.691
464.7949, 5157.814
465.2770, 5163.832
465.7592, 5188.060
466.2413, 5211.037
466.7234, 5216.078
467.2055, 5205.356
467.6876, 5196.231
468.1697, 5190.594
468.6519, 5183.362
469.1340, 5163.318
469.6161, 5146.718
470.0982, 5154.639
470.5803, 5191.527
471.0624, 5226.421
471.5445, 5227.553
472.0266, 5206.088
472.5088, 5199.617
472.9909, 5213.969
473.4730, 5233.073
473.9551, 5246.704
474.4372, 5255.563
474.9193, 5264.799
475.4015, 5286.614
475.8836, 5294.716
476.3657, 5264.033
476.8478, 5218.608
477.3299, 5195.418
477.8120, 5203.277
478.2942, 5223.134
478.7763, 5232.721
479.2584, 5230.525
479.7405, 5230.418
480.2226, 5240.911
480.7047, 5244.271
481.1869, 5227.088
481.6690, 5202.774
482.1511, 5189.856
482.6332, 5195.308
483.1153, 5211.430
483.5974, 5233.318
484.0796, 5260.285
484.5617, 5274.764
485.0438, 5269.474
485.5259, 5259.785
486.0080, 5258.489
486.4901, 5263.405
486.9723, 5267.943
487.4544, 5269.364
487.9365, 5271.375
488.4186, 5274.680
488.9007, 5280.460
489.3828, 5293.219
489.8650, 5314.813
490.3471, 5338.185
490.8292, 5353.651
491.3113, 5361.144
491.7934, 5359.938
492.2755, 5338.659
492.7577, 5321.607
493.2398, 5323.760
493.7219, 5336.287
494.2040, 5341.462
494.6861, 5330.385
495.1682, 5313.497
495.6504, 5306.469
496.1325, 5309.538
496.6146, 5321.627
497.0967, 5355.623
497.5788, 5381.104
498.0609, 5363.938
498.5431, 5314.657
499.0252, 5278.465
499.5073, 5277.146
499.9894, 5285.346
500.4715, 5282.872
500.9536, 5273.194
501.4358, 5267.183
501.9179, 5269.052
502.4000, 5275.761
502.8821, 5282.899
503.3642, 5291.240
503.8463, 5297.428
504.3285, 5299.352
504.8106, 5301.577
505.2927, 5305.368
505.7748, 5311.181
506.2569, 5320.185
506.7390, 5333.474
507.2212, 5347.330
507.7033, 5355.394
508.1854, 5357.312
508.6675, 5358.176
509.1496, 5360.571
509.6317, 5359.590
510.1139, 5346.103
510.5960, 5324.517
511.0781, 5313.615
511.5602, 5323.649
512.0423, 5341.350
512.5244, 5362.238
513.0065, 5382.785
513.4886, 5392.782
513.9708, 5388.253
514.4529, 5376.365
514.9350, 5366.653
515.4171, 5357.192
515.8992, 5357.549
516.3813, 5376.694
516.8635, 5395.018
517.3456, 5405.740
517.8277, 5410.181
518.3098, 5409.846
518.7919, 5404.684
519.2740, 5401.112
519.7562, 5412.154
520.2383, 5437.269
520.7204, 5450.137
521.2025, 5443.562
521.6846, 5430.743
522.1667, 5416.938
522.6489, 5404.749
523.1310, 5404.249
523.6131, 5432.338
524.0952, 5456.440
524.5773, 5449.510
525.0594, 5428.401
525.5416, 5427.091
526.0237, 5454.143
526.5058, 5486.900
526.9879, 5498.844
527.4700, 5488.107
527.9521, 5475.483
528.4343, 5452.066
528.9164, 5437.517
529.3985, 5441.876
529.8806, 5455.326
530.3627, 5466.480
530.8448, 5472.203
531.3270, 5475.328
531.8091, 5475.566
532.2912, 5475.060
532.7733, 5485.241
533.2554, 5510.116
533.7375, 5530.479
534.2197, 5529.591
534.7018, 5514.464
535.1839, 5513.504
535.6660, 5538.629
536.1481, 5559.485
536.6302, 5561.742
537.1124, 5559.091
537.5945, 5566.596
538.0766, 5585.521
538.5587, 5607.544
539.0408, 5626.578
539.5229, 5642.331
540.0051, 5652.193
540.4872, 5654.640
540.9693, 5654.252
541.4514, 5646.415
541.9335, 5640.179
542.4156, 5645.279
542.8978, 5661.708
543.3799, 5676.378
543.8620, 5674.247
544.3441, 5670.377
544.8262, 5696.094
545.3083, 5747.084
545.7905, 5774.610
546.2726, 5749.877
546.7547, 5702.042
547.2368, 5691.935
547.7189, 5749.893
548.2010, 5781.954
548.6832, 5769.018
549.1653, 5748.678
549.6474, 5734.937
550.1295, 5731.168
550.6116, 5740.770
551.0938, 5766.670
551.5759, 5800.122
552.0580, 5827.218
552.5401, 5848.039
553.0222, 5864.837
553.5043, 5876.715
553.9865, 5886.805
554.4686, 5897.079
554.9507, 5907.673
555.4328, 5919.034
555.9149, 5934.199
556.3970, 5947.083
556.8792, 5952.474
557.3613, 5954.206
557.8434, 5956.612
558.3255, 5961.380
558.8076, 5972.714
559.2897, 5997.127
559.7719, 6034.580
560.2540, 6060.042
560.7361, 6064.705
561.2182, 6069.721
561.7003, 6077.038
562.1824, 6089.043
562.6646, 6111.436
563.1467, 6144.723
563.6288, 6174.182
564.1109, 6186.440
564.5930, 6189.459
565.0751, 6197.419
565.5573, 6210.844
566.0394, 6223.490
566.5215, 6230.940
567.0036, 6237.542
567.4857, 6254.423
567.9678, 6298.343
568.4500, 6320.807
568.9321, 6297.046
569.4142, 6274.713
569.8963, 6287.508
570.3784, 6324.535
570.8605, 6354.235
571.3427, 6358.804
571.8248, 6356.198
572.3069, 6376.951
572.7890, 6420.983
573.2711, 6466.134
573.7532, 6513.782
574.2354, 6551.719
574.7175, 6562.243
575.1996, 6552.336
575.6817, 6554.120
576.1638, 6579.547
576.6459, 6606.166
577.1281, 6621.912
577.6102, 6634.955
578.0923, 6659.306
578.5744, 6695.603
579.0565, 6728.290
579.5386, 6741.264
580.0208, 6737.752
580.5029, 6743.419
580.9850, 6759.562
581.4671, 6782.007
581.9492, 6816.500
582.4313, 6852.318
582.9134, 6881.513
583.3955, 6903.580
583.8776, 6922.260
584.3597, 6935.074
584.8419, 6948.324
585.3240, 6969.781
585.8061, 6997.847
586.2882, 7026.509
586.7703, 7053.271
587.2524, 7079.375
587.7346, 7107.833
588.2167, 7142.613
588.6988, 7164.665
589.1809, 7153.979
589.6630, 7152.402
590.1451, 7183.492
590.6273, 7227.661
591.1094, 7256.051
591.5915, 7259.697
592.0736, 7256.653
592.5557, 7260.570
593.0378, 7269.863
593.5200, 7282.696
594.0021, 7299.012
594.4842, 7310.360
594.9663, 7309.467
595.4484, 7301.718
595.9305, 7303.670
596.4127, 7315.876
596.8948, 7337.696
597.3769, 7381.083
597.8590, 7423.483
598.3411, 7453.046
598.8232, 7469.156
599.3054, 7472.806
599.7875, 7462.044
600.2696, 7448.001
600.7517, 7448.061
601.2338, 7461.456
601.7159, 7478.949
602.1981, 7502.521
602.6802, 7519.435
603.1623, 7514.080
603.6444, 7490.845
604.1265, 7484.521
604.6086, 7509.113
605.0908, 7532.284
605.5729, 7550.892
606.0550, 7561.048
606.5371, 7549.677
607.0192, 7522.504
607.5013, 7508.793
607.9835, 7535.134
608.4656, 7585.384
608.9477, 7610.539
609.4298, 7606.693
609.9119, 7601.639
610.3940, 7601.583
610.8762, 7603.041
611.3583, 7603.024
611.8404, 7601.578
612.3225, 7598.517
612.8046, 7595.085
613.2867, 7588.706
613.7689, 7578.402
614.2510, 7564.235
614.7331, 7542.224
615.2152, 7513.527
615.6973, 7492.421
616.1794, 7497.263
616.6616, 7523.136
617.1437, 7526.811
617.6258, 7500.569
618.1079, 7473.516
618.5900, 7453.348
619.0721, 7437.423
619.5543, 7423.667
620.0364, 7412.010
620.5185, 7400.206
621.0006, 7384.789
621.4827, 7371.421
621.9648, 7366.503
622.4470, 7366.525
622.9291, 7365.297
623.4112, 7360.449
623.8933, 7349.245
624.3754, 7325.007
624.8575, 7287.063
625.3397, 7267.983
625.8218, 7275.815
626.3039, 7287.795
626.7860, 7304.660
627.2681, 7316.492
627.7502, 7309.553
628.2324, 7281.792
628.7145, 7255.907
629.1966, 7248.510
629.6787, 7241.617
630.1608, 7213.220
630.6429, 7170.364
631.1251, 7136.652
631.6072, 7121.524
632.0893, 7114.405
632.5714, 7101.840
633.0535, 7085.136
633.5356, 7049.884
634.0178, 6976.541
634.4999, 6914.226
634.9820, 6893.015
635.4641, 6886.367
635.9462, 6860.715
636.4283, 6809.236
636.9105, 6763.065
637.3926, 6743.841
637.8747, 6731.904
638.3568, 6702.266
638.8389, 6659.977
639.3210, 6628.942
639.8032, 6620.459
640.2853, 6618.425
640.7674, 6593.190
641.2495, 6536.664
641.7316, 6502.076
642.2137, 6502.112
642.6959, 6506.154
643.1780, 6509.467
643.6601, 6506.326
644.1422, 6484.615
644.6243, 6439.077
645.1064, 6402.341
645.5886, 6396.372
646.0707, 6402.605
646.5528, 6404.817
647.0349, 6401.136
647.5170, 6386.203
647.9991, 6356.667
648.4813, 6330.908
648.9634, 6345.663
649.4455, 6412.993
649.9276, 6450.918
650.4097, 6450.375
650.8918, 6433.869
651.3740, 6391.920
651.8561, 6348.369
652.3382, 6339.537
652.8203, 6376.354
653.3024, 6405.300
653.7845, 6388.637
654.2667, 6364.582
654.7488, 6381.621
655.2309, 6426.130
655.7130, 6446.874
656.1951, 6421.208
656.6772, 6377.888
657.1594, 6361.708
657.6415, 6375.087
658.1236, 6395.369
658.6057, 6435.802
659.0878, 6458.789
659.5699, 6427.988
660.0521, 6379.184
660.5342, 6361.281
661.0163, 6383.113
661.4984, 6397.851
661.9805, 6387.095
662.4626, 6365.490
662.9448, 6337.154
663.4269, 6308.996
663.9090, 6293.398
664.3911, 6295.389
664.8732, 6310.492
665.3553, 6337.882
665.8375, 6377.328
666.3196, 6399.105
666.8017, 6398.596
667.2838, 6392.446
667.7659, 6381.779
668.2480, 6373.229
668.7302, 6380.091
669.2123, 6406.101
669.6944, 6419.018
670.1765, 6396.958
670.6586, 6375.602
671.1407, 6379.850
671.6229, 6399.095
672.1050, 6415.927
672.5870, 6424.349
673.0692, 6424.076
673.5513, 6409.487
674.0334, 6385.313
674.5155, 6378.989
674.9976, 6393.363
675.4797, 6405.478
675.9619, 6403.890
676.4440, 6400.618
676.9261, 6414.919
677.4082, 6450.665
677.8903, 6473.809
678.3724, 6478.408
678.8546, 6476.193
679.3367, 6467.932
679.8188, 6457.208
680.3009, 6446.874
680.7830, 6438.018
681.2651, 6432.374
681.7473, 6434.385
682.2294, 6438.745
682.7115, 6429.260
683.1936, 6407.956
683.6757, 6403.336
684.1578, 6427.131
684.6400, 6455.805
685.1221, 6462.578
685.6042, 6447.141
686.0863, 6440.067
686.5684, 6449.196
687.0505, 6456.657
687.5327, 6454.201
688.0148, 6453.520
688.4969, 6474.409
688.9790, 6509.354
689.4611, 6520.038
689.9432, 6468.877
690.4254, 6408.928
690.9075, 6402.497
691.3896, 6432.172
691.8717, 6453.812
692.3538, 6458.259
692.8359, 6455.285
693.3181, 6451.811
693.8002, 6448.563
694.2823, 6449.693
694.7644, 6458.797
695.2465, 6463.727
695.7286, 6461.567
696.2108, 6456.107
696.6929, 6443.527
697.1750, 6429.595
697.6571, 6429.763
698.1392, 6453.618
698.6213, 6479.382
699.1035, 6500.288
699.5856, 6513.950
700.0677, 6514.032
700.5498, 6503.371
701.0319, 6492.491
701.5140, 6486.918
701.9962, 6487.106
702.4783, 6498.233
702.9604, 6521.515
703.4425, 6525.771
703.9246, 6499.939
704.4067, 6478.595
704.8889, 6482.456
705.3710, 6502.398
705.8531, 6519.066
706.3352, 6533.003
706.8173, 6542.395
707.2994, 6540.452
707.7816, 6540.382
708.2637, 6550.357
708.7458, 6567.408
709.2279, 6589.447
709.7100, 6614.977
710.1921, 6631.690
710.6743, 6622.040
711.1564, 6595.962
711.6385, 6577.261
712.1206, 6566.344
712.6027, 6560.681
713.0848, 6558.825
713.5670, 6564.004
714.0491, 6582.480
714.5312, 6616.066
715.0133, 6640.439
715.4954, 6656.300
715.9775, 6661.193
716.4597, 6642.115
716.9418, 6621.223
717.4239, 6615.943
717.9060, 6627.584
718.3881, 6651.500
718.8702, 6703.727
719.3524, 6748.610
719.8345, 6752.066
720.3166, 6729.689
720.7987, 6701.458
721.2808, 6675.077
721.7629, 6668.298
722.2451, 6698.825
722.7272, 6750.230
723.2093, 6770.101
723.6914, 6752.475
724.1735, 6741.860
724.6556, 6748.112
725.1378, 6755.281
725.6199, 6747.832
726.1020, 6733.287
726.5841, 6735.836
727.0662, 6765.419
727.5483, 6792.758
728.0305, 6812.191
728.5126, 6827.989
728.9947, 6845.299
729.4768, 6860.846
729.9589, 6866.438
730.4410, 6858.839
730.9232, 6847.664
731.4053, 6841.523
731.8874, 6839.383
732.3695, 6837.235
732.8516, 6835.398
733.3337, 6842.116
733.8159, 6862.240
734.2980, 6885.101
734.7801, 6893.520
735.2622, 6884.590
735.7443, 6890.022
736.2264, 6922.616
736.7086, 6950.209
737.1907, 6969.669
737.6728, 6977.554
738.1549, 6957.334
738.6370, 6915.080
739.1191, 6905.080
739.6013, 6984.765
740.0834, 7058.284
740.5655, 7059.188
741.0476, 7023.999
741.5297, 6996.881
742.0118, 6987.054
742.4940, 6990.964
742.9761, 7008.785
743.4582, 7030.986
743.9403, 7036.940
744.4224, 7027.256
744.9045, 7015.430
745.3867, 7000.412
745.8688, 6997.949
746.3509, 7024.466
746.8330, 7066.315
747.3151, 7083.150
747.7972, 7053.550
748.2794, 7042.591
748.7615, 7066.361
749.2436, 7090.248
749.7257, 7099.596
750.2078, 7099.721
750.6899, 7097.748
751.1721, 7095.099
751.6542, 7095.972
752.1363, 7106.821
752.6184, 7119.239
753.1005, 7124.482
753.5826, 7123.892
754.0648, 7122.158
754.5469, 7120.417
755.0290, 7114.292
755.5111, 7097.135
755.9932, 7073.288
756.4753, 7064.119
756.9575, 7072.338
757.4396, 7076.053
757.9217, 7065.931
758.4038, 7060.304
758.8859, 7082.583
759.3680, 7125.417
759.8502, 7137.553
760.3323, 7083.926
760.8144, 7052.783
761.2965, 7074.108
761.7786, 7099.183
762.2607, 7088.893
762.7428, 7059.483
763.2249, 7053.222
763.7070, 7088.400
764.1891, 7116.740
764.6713, 7092.542
765.1534, 7045.188
765.6355, 7011.556
766.1176, 6993.148
766.5997, 6986.691
767.0818, 6990.736
767.5640, 6995.816
768.0461, 6987.553
768.5282, 6968.311
769.0103, 6969.168
769.4924, 6997.623
769.9745, 7010.744
770.4567, 6985.917
770.9388, 6958.384
771.4209, 6971.597
771.9030, 7022.256
772.3851, 7040.444
772.8672, 7002.794
773.3494, 6966.649
773.8315, 6933.710
774.3136, 6911.961
774.7957, 6915.573
775.2778, 6934.336
775.7599, 6941.442
776.2421, 6923.736
776.7242, 6906.083
777.2063, 6908.669
777.6884, 6922.507
778.1705, 6942.655
778.6526, 6962.723
779.1348, 6960.047
779.6169, 6925.186
780.0990, 6882.622
780.5811, 6863.790
781.0632, 6867.525
781.5453, 6885.506
782.0275, 6921.956
782.5096, 6947.915
782.9917, 6952.234
783.4738, 6946.376
783.9559, 6940.406
784.4380, 6934.396
784.9202, 6933.409
785.4023, 6943.037
785.8844, 6949.465
786.3665, 6949.910
786.8486, 6947.567
787.3307, 6947.033
787.8129, 6945.218
788.2950, 6931.390
788.7771, 6895.737
789.2592, 6870.298
789.7413, 6882.621
790.2234, 6910.587
790.7056, 6933.912
791.1877, 6949.813
791.6698, 6954.603
792.1519, 6947.569
792.6340, 6940.042
793.1161, 6949.685
793.5983, 6969.810
794.0804, 6964.937
794.5625, 6934.516
795.0446, 6922.540
795.5267, 6946.376
796.0089, 6972.449
796.4910, 6964.258
796.9731, 6927.430
797.4552, 6913.793
797.9373, 6981.980
798.4194, 7021.310
798.9016, 7046.827
799.3837, 7059.269
799.8658, 7019.480
800.3479, 7047.137
800.8300, 7047.765
801.3121, 7047.284
801.7943, 7084.435
802.2764, 7052.245
802.7585, 7088.796
803.2406, 7097.909
803.7227, 7019.067
804.2048, 7014.916
804.6870, 7022.446
805.1691, 7025.848
805.6512, 7002.979
806.1333, 6974.236
806.6154, 6981.829
807.0975, 7015.955
807.5797, 7035.261
808.0618, 7031.540
808.5439, 7028.716
809.0260, 7047.426
809.5081, 7076.452
809.9902, 7076.080
810.4724, 7036.610
810.9545, 7023.808
811.4366, 7055.200
811.9187, 7084.848
812.4008, 7085.694
812.8829, 7071.999
813.3651, 7072.933
813.8472, 7095.634
814.3293, 7102.194
814.8114, 7071.407
815.2935, 7049.026
815.7756, 7055.603
816.2578, 7074.289
816.7399, 7089.812
817.2220, 7100.175
817.7041, 7107.668
818.1862, 7110.168
818.6683, 7114.776
819.1505, 7136.144
819.6326, 7157.086
820.1147, 7147.044
820.5968, 7112.798
821.0789, 7089.022
821.5610, 7093.349
822.0432, 7108.698
822.5253, 7110.799
823.0074, 7104.586
823.4895, 7113.979
823.9716, 7138.692
824.4537, 7151.595
824.9359, 7141.396
825.4180, 7125.203
825.9001, 7123.433
826.3822, 7134.588
826.8643, 7138.119
827.3464, 7128.886
827.8286, 7125.094
828.3107, 7125.103
828.7928, 7137.555
829.2749, 7186.340
829.7570, 7251.065
830.2391, 7266.889
830.7213, 7198.921
831.2034, 7161.070
831.6855, 7198.273
832.1676, 7236.140
832.6497, 7230.202
833.1318, 7204.122
833.6140, 7193.700
834.0961, 7204.547
834.5782, 7214.857
835.0603, 7205.059
835.5424, 7197.518
836.0245, 7225.601
836.5067, 7262.007
836.9888, 7255.730
837.4709, 7208.449
837.9530, 7165.925
838.4351, 7155.713
838.9172, 7165.457
839.3994, 7181.843
839.8815, 7202.519
840.3636, 7217.307
840.8457, 7225.583
841.3278, 7227.547
841.8099, 7221.826
842.2921, 7220.166
842.7742, 7242.232
843.2563, 7286.335
843.7384, 7299.758
844.2205, 7268.832
844.7026, 7250.351
845.1848, 7261.587
845.6669, 7280.501
846.1490, 7293.120
846.6311, 7299.034
847.1132, 7295.262
847.5953, 7260.384
848.0775, 7255.369
848.5596, 7316.997
849.0417, 7371.008
849.5238, 7381.840
850.0059, 7365.164
850.4880, 7338.114
850.9702, 7304.267
851.4523, 7282.151
851.9343, 7283.458
852.4164, 7294.267
852.8986, 7315.936
853.3807, 7335.966
853.8628, 7334.327
854.3449, 7314.773
854.8270, 7300.085
855.3091, 7303.044
855.7913, 7311.069
856.2734, 7309.224
856.7555, 7302.532
857.2376, 7299.505
857.7197, 7301.536
858.2018, 7314.496
858.6840, 7340.195
859.1661, 7364.016
859.6482, 7367.762
860.1303, 7356.394
860.6124, 7354.412
861.0945, 7362.487
861.5767, 7362.207
862.0588, 7347.888
862.5409, 7334.470
863.0230, 7332.776
863.5051, 7339.124
863.9872, 7342.094
864.4694, 7334.966
864.9515, 7347.802
865.4336, 7402.402
865.9157, 7442.151
866.3978, 7443.663
866.8799, 7422.443
867.3621, 7386.245
867.8442, 7336.577
868.3263, 7317.808
868.8084, 7362.849
869.2905, 7398.560
869.7726, 7394.975
870.2548, 7389.241
870.7369, 7421.182
871.2190, 7469.710
871.7011, 7478.998
872.1832, 7426.665
872.6653, 7388.367
873.1475, 7416.125
873.6296, 7460.583
874.1117, 7484.383
874.5938, 7494.359
875.0759, 7505.227
875.5580, 7518.934
876.0402, 7526.923
876.5223, 7520.832
877.0044, 7511.971
877.4865, 7514.270
877.9686, 7524.839
878.4507, 7541.307
878.9329, 7560.745
879.4150, 7569.336
879.8971, 7560.771
880.3792, 7549.658
880.8613, 7556.055
881.3434, 7576.407
881.8256, 7591.867
882.3077, 7602.507
882.7898, 7617.361
883.2719, 7639.942
883.7540, 7658.135
884.2361, 7661.633
884.7183, 7654.854
885.2004, 7652.563
885.6825, 7658.332
886.1646, 7651.009
886.6467, 7617.647
887.1288, 7600.497
887.6110, 7625.606
888.0931, 7665.777
888.5752, 7682.820
889.0573, 7675.208
889.5394, 7685.165
890.0215, 7735.853
890.5037, 7771.226
890.9858, 7781.102
891.4679, 7778.443
891.9500, 7759.913
892.4321, 7737.542
892.9142, 7739.287
893.3964, 7777.805
893.8785, 7799.840
894.3606, 7773.875
894.8427, 7749.158
895.3248, 7753.465
895.8069, 7770.792
896.2891, 7779.289
896.7712, 7779.870
897.2533, 7792.659
897.7354, 7837.379
898.2175, 7872.546
898.6996, 7856.802
899.1818, 7826.901
899.6639, 7823.567
900.1460, 7840.592
900.6281, 7858.024
901.1102, 7868.703
901.5923, 7871.104
902.0745, 7856.799
902.5566, 7839.793
903.0387, 7843.442
903.5208, 7860.866
904.0029, 7875.770
904.4850, 7885.794
904.9672, 7894.498
905.4493, 7903.445
905.9314, 7917.229
906.4135, 7952.508
906.8956, 7999.530
907.3777, 8006.721
907.8599, 7975.814
908.3420, 7950.492
908.8241, 7943.614
909.3062, 7944.437
909.7883, 7943.408
910.2704, 7942.048
910.7526, 7948.882
911.2347, 7966.263
911.7168, 7961.407
912.1989, 7922.191
912.6810, 7905.081
913.1631, 7945.864
913.6453, 8001.443
914.1274, 8008.093
914.6095, 7964.958
915.0916, 7948.463
915.5737, 7977.901
916.0558, 7987.333
916.5380, 7948.487
917.0201, 7914.240
917.5022, 7932.720
917.9843, 7976.360
918.4664, 7972.693
918.9485, 7892.439
919.4307, 7856.344
919.9128, 7900.971
920.3949, 7942.689
920.8770, 7959.456
921.3591, 7963.996
921.8412, 7966.464
922.3234, 7967.004
922.8055, 7963.708
923.2876, 7956.112
923.7697, 7945.053
924.2518, 7921.035
924.7339, 7903.908
925.2161, 7912.086
925.6982, 7930.346
926.1803, 7935.487
926.6624, 7925.757
927.1445, 7921.338
927.6266, 7938.958
928.1088, 7952.934
928.5909, 7941.523
929.0730, 7927.179
929.5551, 7937.756
930.0372, 7962.126
930.5193, 7968.055
931.0015, 7945.997
931.4836, 7928.021
931.9657, 7937.165
932.4478, 7958.924
932.9299, 7995.120
933.4120, 8026.574
933.8942, 8011.928
934.3763, 7960.622
934.8584, 7929.247
935.3405, 7947.306
935.8226, 7979.925
936.3047, 7996.598
936.7869, 8001.086
937.2690, 7992.047
937.7511, 7977.393
938.2332, 7983.985
938.7153, 8013.787
939.1974, 8033.522
939.6796, 8017.017
940.1617, 7983.414
940.6438, 7958.123
941.1259, 7942.388
941.6080, 7945.571
942.0901, 7964.397
942.5722, 7972.565
943.0543, 7960.931
943.5364, 7951.845
944.0186, 7970.686
944.5007, 8005.704
944.9828, 8023.965
945.4649, 8026.164
945.9470, 8013.783
946.4291, 7986.981
946.9113, 7971.478
947.3934, 7981.029
947.8755, 7999.739
948.3576, 8004.753
948.8397, 7998.077
949.3218, 7995.353
949.8040, 7996.056
950.2861, 8010.406
950.7682, 8043.268
951.2503, 8073.044
951.7324, 8085.159
952.2145, 8087.575
952.6967, 8097.439
953.1788, 8116.124
953.6609, 8124.112
954.1430, 8119.431
954.6251, 8110.658
955.1072, 8096.979
955.5894, 8087.951
956.0715, 8093.067
956.5536, 8107.681
957.0357, 8115.748
957.5178, 8112.579
957.9999, 8121.672
958.4821, 8154.148
958.9642, 8173.643
959.4463, 8163.528
959.9284, 8142.203
960.4105, 8122.832
960.8926, 8107.847
961.3748, 8113.796
961.8569, 8153.174
962.3390, 8186.898
962.8211, 8213.812
963.3032, 8235.638
963.7853, 8256.615
964.2675, 8269.671
964.7496, 8258.002
965.2317, 8222.668
965.7138, 8218.301
966.1959, 8288.434
966.6780, 8322.067
967.1602, 8280.264
967.6423, 8237.244
968.1244, 8224.890
968.6065, 8233.866
969.0886, 8253.960
969.5707, 8285.729
970.0529, 8312.857
970.5350, 8340.830
971.0171, 8354.730
971.4992, 8341.104
971.9813, 8323.831
972.4634, 8313.806
972.9456, 8311.667
973.4277, 8319.402
973.9098, 8338.775
974.3919, 8354.497
974.8740, 8363.415
975.3561, 8369.473
975.8383, 8367.802
976.3204, 8369.117
976.8025, 8390.646
977.2846, 8419.371
977.7667, 8420.671
978.2488, 8380.969
978.7310, 8359.213
979.2131, 8380.820
979.6952, 8407.688
980.1773, 8436.252
980.6594, 8453.848
981.1415, 8442.036
981.6237, 8410.660
982.1058, 8388.582
982.5879, 8382.349
983.0700, 8383.425
983.5521, 8391.091
984.0342, 8403.348
984.5164, 8420.466
984.9985, 8440.813
985.4806, 8464.958
985.9627, 8490.844
986.4448, 8514.126
986.9269, 8539.371
987.4091, 8544.050
987.8912, 8495.906
988.3733, 8451.639
988.8554, 8449.656
989.3375, 8467.281
989.8196, 8479.252
990.3018, 8482.543
990.7839, 8482.015
991.2660, 8479.386
991.7481, 8472.663
992.2302, 8445.644
992.7123, 8430.673
993.1945, 8462.338
993.6766, 8511.646
994.1587, 8542.775
994.6408, 8551.729
995.1229, 8548.111
995.6050, 8522.183
996.0872, 8513.114
996.5693, 8558.914
997.0514, 8607.455
997.5335, 8619.970
998.0156, 8610.682
998.4977, 8600.166
998.9799, 8592.365
999.4620, 8584.927
999.9441, 8568.421
1000.426, 8568.338
1000.908, 8618.566
1001.390, 8668.363
1001.873, 8672.169
1002.355, 8651.870
1002.837, 8644.553
1003.319, 8654.321
1003.801, 8658.610
1004.283, 8638.106
1004.765, 8628.056
1005.247, 8658.354
1005.729, 8693.195
1006.212, 8702.585
1006.694, 8697.714
1007.176, 8697.835
1007.658, 8706.255
1008.140, 8717.284
1008.622, 8728.161
1009.104, 8742.092
1009.586, 8766.948
1010.069, 8789.283
1010.551, 8796.714
1011.033, 8794.853
1011.515, 8791.274
1011.997, 8788.209
1012.479, 8790.735
1012.961, 8802.677
1013.443, 8817.786
1013.925, 8844.540
1014.408, 8862.408
1014.890, 8840.683
1015.372, 8806.276
1015.854, 8806.686
1016.336, 8846.086
1016.818, 8881.039
1017.300, 8900.830
1017.782, 8906.775
1018.265, 8891.202
1018.747, 8870.289
1019.229, 8849.438
1019.711, 8834.492
1020.193, 8834.374
1020.675, 8849.416
1021.157, 8868.104
1021.639, 8896.987
1022.121, 8914.471
1022.604, 8900.863
1023.086, 8886.508
1023.568, 8892.257
1024.050, 8910.229
1024.532, 8929.481
1025.014, 8948.037
1025.496, 8963.277
1025.978, 8973.804
1026.460, 8981.854
1026.943, 8980.035
1027.425, 8984.374
1027.907, 9010.979
1028.389, 9045.957
1028.871, 9074.228
1029.353, 9093.230
1029.835, 9093.515
1030.317, 9048.400
1030.800, 9021.589
1031.282, 9038.745
1031.764, 9060.942
1032.246, 9062.068
1032.728, 9059.938
1033.210, 9084.660
1033.692, 9134.200
1034.174, 9162.962
1034.656, 9150.156
1035.139, 9141.380
1035.621, 9143.313
1036.103, 9147.587
1036.585, 9153.638
1037.067, 9158.136
1037.549, 9155.131
1038.031, 9145.721
1038.513, 9142.544
1038.995, 9151.937
1039.478, 9157.614
1039.960, 9152.430
1040.442, 9152.760
1040.924, 9169.164
1041.406, 9189.337
1041.888, 9200.028
1042.370, 9202.938
1042.852, 9209.714
1043.335, 9230.392
1043.817, 9232.083
1044.299, 9200.980
1044.781, 9176.568
1045.263, 9176.739
1045.745, 9181.401
1046.227, 9167.521
1046.709, 9143.591
1047.192, 9146.347
1047.674, 9187.823
1048.156, 9215.343
1048.638, 9224.573
1049.120, 9231.425
1049.602, 9238.758
1050.084, 9250.856
1050.566, 9276.368
1051.048, 9303.634
1051.531, 9291.044
1052.013, 9226.126
1052.495, 9224.241
1052.977, 9301.879
1053.459, 9348.853
1053.941, 9330.744
1054.423, 9307.380
1054.905, 9323.458
1055.387, 9360.006
1055.870, 9376.175
1056.352, 9372.624
1056.834, 9374.637
1057.316, 9382.255
1057.798, 9391.470
1058.280, 9401.617
1058.762, 9408.728
1059.244, 9410.400
1059.727, 9407.730
1060.209, 9399.648
1060.691, 9389.251
1061.173, 9389.619
1061.655, 9401.024
1062.137, 9432.709
1062.619, 9482.597
1063.101, 9512.866
1063.583, 9504.275
1064.066, 9485.794
1064.548, 9493.901
1065.030, 9514.953
1065.512, 9511.623
1065.994, 9496.332
1066.476, 9508.806
1066.958, 9547.185
1067.440, 9582.048
1067.922, 9602.037
1068.405, 9614.339
1068.887, 9623.513
1069.369, 9631.241
1069.851, 9636.317
1070.333, 9643.559
1070.815, 9666.298
1071.297, 9697.386
1071.779, 9710.901
1072.262, 9704.057
1072.744, 9714.303
1073.226, 9780.022
1073.708, 9840.077
1074.190, 9826.978
1074.672, 9796.412
1075.154, 9811.746
1075.636, 9849.968
1076.118, 9863.232
1076.601, 9849.193
1077.083, 9844.676
1077.565, 9864.470
1078.047, 9895.612
1078.529, 9948.917
1079.011, 9992.438
1079.493, 9996.444
1079.975, 9985.571
1080.458, 9984.985
1080.940, 9996.617
1081.422, 10015.38
1081.904, 10039.91
1082.386, 10072.97
1082.868, 10142.38
1083.350, 10184.61
1083.832, 10143.83
1084.314, 10098.29
1084.797, 10121.21
1085.279, 10184.87
1085.761, 10215.46
1086.243, 10201.01
1086.725, 10204.83
1087.207, 10232.35
1087.689, 10270.29
1088.171, 10336.90
1088.653, 10381.08
1089.136, 10362.28
1089.618, 10317.86
1090.100, 10303.10
1090.582, 10317.54
1091.064, 10349.84
1091.546, 10407.92
1092.028, 10447.11
1092.510, 10457.84
1092.993, 10474.07
1093.475, 10513.42
1093.957, 10548.75
1094.439, 10546.10
1094.921, 10522.53
1095.403, 10546.19
1095.885, 10613.54
1096.367, 10636.87
1096.849, 10614.20
1097.332, 10606.25
1097.814, 10630.71
1098.296, 10662.83
1098.778, 10684.97
1099.260, 10699.25
1099.742, 10709.55
1100.224, 10714.75
1100.706, 10709.65
1101.188, 10697.11
1101.671, 10683.04
1102.153, 10670.72
1102.635, 10668.58
1103.117, 10681.07
1103.599, 10697.46
1104.081, 10716.84
1104.563, 10726.25
1105.045, 10692.94
1105.528, 10651.67
1106.010, 10657.40
1106.492, 10698.58
1106.974, 10737.10
1107.456, 10761.35
1107.938, 10766.06
1108.420, 10729.01
1108.902, 10698.33
1109.385, 10697.55
1109.867, 10713.74
1110.349, 10749.67
1110.831, 10788.40
1111.313, 10809.99
1111.795, 10811.99
1112.277, 10797.56
1112.759, 10754.87
1113.241, 10720.39
1113.724, 10690.02
1114.206, 10679.73
1114.688, 10717.25
1115.170, 10756.53
1115.652, 10755.90
1116.134, 10729.84
1116.616, 10718.73
1117.098, 10725.12
1117.580, 10733.86
1118.063, 10747.31
1118.545, 10756.02
1119.027, 10757.52
1119.509, 10757.20
1119.991, 10759.07
1120.473, 10757.42
1120.955, 10740.44
1121.437, 10713.85
1121.920, 10717.01
1122.402, 10747.41
1122.884, 10750.06
1123.366, 10721.58
1123.848, 10701.26
1124.330, 10703.18
1124.812, 10720.12
1125.294, 10749.14
1125.776, 10779.42
1126.259, 10796.26
1126.741, 10799.38
1127.223, 10776.40
1127.705, 10742.06
1128.187, 10733.99
1128.669, 10755.96
1129.151, 10792.02
1129.633, 10838.09
1130.115, 10865.41
1130.598, 10826.54
1131.080, 10788.40
1131.562, 10819.57
1132.044, 10870.07
1132.526, 10882.54
1133.008, 10867.29
1133.490, 10859.87
1133.972, 10867.07
1134.455, 10865.27
1134.937, 10830.91
1135.419, 10811.96
1135.901, 10824.27
1136.383, 10849.14
1136.865, 10889.98
1137.347, 10928.45
1137.829, 10942.74
1138.312, 10936.66
1138.794, 10928.00
1139.276, 10910.08
1139.758, 10912.19
1140.240, 10941.64
1140.722, 10969.37
1141.204, 10989.57
1141.686, 11000.65
1142.168, 10998.75
1142.651, 10995.87
1143.133, 11017.72
1143.615, 11055.97
1144.097, 11050.96
1144.579, 11009.84
1145.061, 10996.81
1145.543, 11017.37
1146.025, 11052.96
1146.507, 11094.76
1146.990, 11117.17
1147.472, 11091.47
1147.954, 11052.98
1148.436, 11051.08
1148.918, 11067.31
1149.400, 11069.98
1149.882, 11070.09
1150.364, 11101.80
1150.847, 11158.16
1151.329, 11190.97
1151.811, 11179.82
1152.293, 11157.16
1152.775, 11126.02
1153.257, 11104.99
1153.739, 11105.04
1154.221, 11118.02
1154.703, 11140.48
1155.186, 11169.25
1155.668, 11205.61
1156.150, 11250.02
1156.632, 11264.74
1157.114, 11221.84
1157.596, 11202.31
1158.078, 11217.15
1158.560, 11241.54
1159.042, 11274.68
1159.525, 11296.72
1160.007, 11286.90
1160.489, 11257.99
1160.971, 11243.64
1161.453, 11243.46
1161.935, 11236.15
1162.417, 11222.71
1162.899, 11228.01
1163.382, 11255.31
1163.864, 11290.41
1164.346, 11326.60
1164.828, 11348.18
1165.310, 11334.92
1165.792, 11303.86
1166.274, 11270.35
1166.756, 11244.00
1167.238, 11240.25
1167.721, 11257.67
1168.203, 11300.89
1168.685, 11361.04
1169.167, 11398.31
1169.649, 11389.70
1170.131, 11382.51
1170.613, 11416.27
1171.095, 11436.21
1171.578, 11395.94
1172.060, 11347.36
1172.542, 11338.40
1173.024, 11353.04
1173.506, 11350.08
1173.988, 11326.82
1174.470, 11335.75
1174.952, 11396.89
1175.434, 11442.06
1175.917, 11469.20
1176.399, 11471.20
1176.881, 11438.78
1177.363, 11402.88
1177.845, 11389.37
1178.327, 11392.58
1178.809, 11405.94
1179.291, 11425.59
1179.773, 11423.15
1180.256, 11402.56
1180.738, 11381.87
1181.220, 11365.08
1181.702, 11352.21
1182.184, 11343.98
1182.666, 11349.56
1183.148, 11382.65
1183.630, 11422.03
1184.113, 11456.25
1184.595, 11477.16
1185.077, 11468.45
1185.559, 11445.37
1186.041, 11422.87
1186.523, 11408.61
1187.005, 11422.38
1187.487, 11479.71
1187.969, 11517.22
1188.452, 11508.30
1188.934, 11498.44
1189.416, 11497.63
1189.898, 11499.06
1190.380, 11503.12
1190.862, 11501.55
1191.344, 11476.74
1191.826, 11439.26
1192.308, 11457.29
1192.791, 11536.80
1193.273, 11566.08
1193.755, 11541.12
1194.237, 11513.75
1194.719, 11496.60
1195.201, 11476.64
1195.683, 11445.04
1196.165, 11424.08
1196.648, 11451.52
1197.130, 11496.43
1197.612, 11520.10
1198.094, 11521.88
1198.576, 11478.30
1199.058, 11419.83
1199.540, 11419.57
1200.022, 11480.97
1200.505, 11528.51
1200.987, 11535.79
1201.469, 11524.67
1201.951, 11481.99
1202.433, 11448.92
1202.915, 11450.52
1203.397, 11459.22
1203.879, 11449.78
1204.361, 11438.23
1204.844, 11456.34
1205.326, 11501.03
1205.808, 11513.81
1206.290, 11489.37
1206.772, 11471.19
1207.254, 11461.81
1207.736, 11473.10
1208.218, 11508.78
1208.700, 11534.70
1209.183, 11525.58
1209.665, 11504.27
1210.147, 11497.65
1210.629, 11503.62
1211.111, 11526.13
1211.593, 11553.98
1212.075, 11564.72
1212.557, 11564.50
##END=



