##NAMES=Tephroite
##RRUFFID=R100105
##IDEAL CHEMISTRY=Mn^2+^_2_SiO_4_
##LOCALITY=Franklin, Sussex County, New Jersey, USA
##OWNER=RRUFF
##SOURCE=American Museum of Natural History
##DESCRIPTION=Translucent gray massives, associated with reddish zincite and metallic franklinite.
##STATUS=The identification of this mineral is confirmed by single-crystal X-ray diffraction and chemical analysis.
##URL=rruff.info/R100105
##MEASURED CHEMISTRY=(Mn^+2^_1.716_Zn_0.124_Mg_0.080_Ca_0.078_Fe^+2^_0.003_Al_0.001_)_Î£=2.002_Si_0.998_O_4_
165.2203, 714.5710
165.7024, 717.5582
166.1845, 722.1847
166.6666, 729.1709
167.1487, 735.9257
167.6309, 741.5015
168.1130, 745.9308
168.5951, 749.1634
169.0772, 749.7368
169.5593, 749.9482
170.0414, 751.8568
170.5236, 756.2345
171.0057, 761.3203
171.4878, 766.7082
171.9699, 772.0148
172.4520, 775.9459
172.9341, 776.6221
173.4163, 776.0055
173.8984, 776.4778
174.3805, 778.9876
174.8626, 781.9683
175.3447, 783.7892
175.8268, 784.7063
176.3090, 785.9456
176.7911, 789.3097
177.2732, 793.3572
177.7553, 795.5861
178.2374, 794.5817
178.7195, 792.3820
179.2017, 791.3688
179.6838, 791.4727
180.1659, 792.2330
180.6480, 793.4008
181.1301, 794.9457
181.6122, 796.8834
182.0944, 799.5441
182.5765, 802.3527
183.0586, 804.3114
183.5407, 805.3986
184.0228, 806.2403
184.5049, 807.4315
184.9871, 808.8484
185.4692, 809.9963
185.9513, 810.7150
186.4334, 811.0760
186.9155, 811.1339
187.3976, 810.8558
187.8798, 810.6536
188.3619, 810.9344
188.8440, 811.6667
189.3261, 812.6592
189.8082, 814.1967
190.2903, 815.9456
190.7725, 816.5413
191.2546, 815.8411
191.7367, 814.7841
192.2188, 814.2801
192.7009, 814.3184
193.1830, 814.8982
193.6652, 816.4036
194.1473, 818.5873
194.6294, 819.7181
195.1115, 819.6569
195.5936, 819.0214
196.0757, 818.3996
196.5579, 817.7737
197.0400, 817.6341
197.5221, 818.4332
198.0042, 820.0807
198.4863, 821.2911
198.9684, 822.1246
199.4506, 822.3854
199.9327, 821.4145
200.4148, 819.0217
200.8969, 817.0951
201.3790, 816.5621
201.8611, 817.4760
202.3433, 818.0844
202.8254, 818.1876
203.3075, 818.2771
203.7896, 819.4673
204.2717, 822.0739
204.7538, 824.1404
205.2360, 824.5910
205.7181, 823.1956
206.2002, 822.3190
206.6823, 822.1929
207.1644, 822.2992
207.6465, 821.4009
208.1287, 819.0375
208.6108, 817.3294
209.0929, 817.6777
209.5750, 820.7715
210.0571, 822.1570
210.5392, 821.3677
211.0214, 819.3341
211.5035, 817.9010
211.9856, 817.1724
212.4677, 816.8316
212.9498, 816.8698
213.4319, 817.4708
213.9141, 817.6559
214.3962, 817.2347
214.8783, 816.5032
215.3604, 816.1581
215.8425, 816.2757
216.3246, 816.5601
216.8068, 816.8656
217.2889, 817.1367
217.7710, 817.5662
218.2531, 818.2216
218.7352, 818.9763
219.2173, 819.6644
219.6995, 820.5872
220.1816, 820.8407
220.6637, 819.6155
221.1458, 815.6207
221.6279, 814.0713
222.1100, 816.1456
222.5922, 820.2761
223.0743, 822.2438
223.5564, 820.9197
224.0385, 819.4410
224.5206, 819.4641
225.0027, 822.0104
225.4849, 823.2612
225.9670, 822.5027
226.4491, 820.6400
226.9312, 820.1094
227.4133, 821.5926
227.8954, 823.3087
228.3776, 824.4197
228.8597, 824.7571
229.3418, 824.8871
229.8239, 824.7486
230.3060, 824.3861
230.7881, 823.8539
231.2703, 822.6347
231.7524, 821.9667
232.2345, 822.4838
232.7166, 824.7380
233.1987, 826.9109
233.6808, 829.2108
234.1630, 831.3614
234.6451, 832.6045
235.1272, 832.5863
235.6093, 832.2119
236.0914, 831.8173
236.5735, 831.2179
237.0557, 831.0992
237.5378, 831.5623
238.0199, 832.5108
238.5020, 833.7700
238.9841, 835.8476
239.4662, 837.5403
239.9484, 838.2372
240.4305, 837.3057
240.9126, 836.8735
241.3947, 837.2064
241.8768, 837.9371
242.3589, 838.2164
242.8411, 838.1038
243.3232, 837.4128
243.8053, 835.9016
244.2874, 832.8525
244.7695, 830.7045
245.2516, 829.6918
245.7338, 829.4669
246.2159, 829.3513
246.6980, 829.7061
247.1801, 829.6138
247.6622, 828.6318
248.1443, 826.3586
248.6265, 824.3204
249.1086, 822.4623
249.5907, 820.8622
250.0728, 819.8105
250.5549, 819.9533
251.0370, 819.5423
251.5192, 817.5931
252.0013, 813.1762
252.4834, 810.3947
252.9655, 809.7117
253.4476, 810.3817
253.9297, 811.2349
254.4119, 812.7423
254.8940, 813.5018
255.3761, 812.7702
255.8582, 809.9562
256.3403, 808.0515
256.8224, 807.4149
257.3046, 807.4168
257.7867, 807.0158
258.2688, 806.0350
258.7509, 805.0518
259.2330, 804.3024
259.7151, 803.8596
260.1973, 803.2211
260.6794, 802.1988
261.1615, 801.2012
261.6436, 800.9276
262.1257, 801.7004
262.6078, 802.3962
263.0900, 802.5507
263.5721, 802.0469
264.0542, 802.2243
264.5363, 803.4834
265.0184, 804.9229
265.5005, 805.2751
265.9827, 804.0740
266.4648, 803.0889
266.9469, 802.7743
267.4290, 803.1267
267.9111, 804.0722
268.3932, 806.0846
268.8754, 807.9319
269.3575, 807.8401
269.8396, 805.0298
270.3217, 803.2332
270.8038, 803.8585
271.2859, 806.7150
271.7681, 807.5461
272.2502, 805.6032
272.7323, 803.2003
273.2144, 803.0217
273.6965, 805.5890
274.1786, 807.4839
274.6608, 807.6928
275.1429, 806.5445
275.6250, 806.6489
276.1071, 808.4293
276.5892, 810.2586
277.0714, 810.5271
277.5535, 809.0887
278.0356, 807.4860
278.5177, 805.8691
278.9998, 804.3438
279.4819, 803.3260
279.9641, 802.8221
280.4462, 802.7946
280.9283, 803.6852
281.4104, 805.5624
281.8925, 806.0134
282.3746, 804.1968
282.8568, 801.0819
283.3389, 799.2656
283.8210, 798.7733
284.3031, 799.3317
284.7852, 801.7156
285.2673, 805.6835
285.7495, 807.0335
286.2316, 804.5081
286.7137, 800.1523
287.1958, 798.1910
287.6779, 798.6649
288.1600, 799.9611
288.6422, 801.5934
289.1243, 803.3981
289.6064, 804.0634
290.0885, 803.3299
290.5706, 801.8593
291.0527, 800.5033
291.5349, 799.2821
292.0170, 798.3922
292.4991, 798.4105
292.9812, 798.9377
293.4633, 798.2091
293.9454, 795.8681
294.4276, 793.4178
294.9097, 793.0978
295.3918, 794.5686
295.8739, 796.0614
296.3560, 796.8643
296.8381, 797.0530
297.3203, 796.4842
297.8024, 795.0449
298.2845, 793.8337
298.7666, 794.3768
299.2487, 796.1678
299.7308, 797.6807
300.2130, 798.2726
300.6951, 798.2077
301.1772, 797.8763
301.6593, 797.2874
302.1414, 796.4778
302.6235, 795.4265
303.1057, 794.1936
303.5878, 792.8974
304.0699, 791.3124
304.5520, 789.8925
305.0341, 789.4550
305.5162, 789.8719
305.9984, 790.0174
306.4805, 788.7751
306.9626, 786.8323
307.4447, 785.1487
307.9268, 783.9256
308.4089, 783.0680
308.8911, 782.5619
309.3732, 782.3619
309.8553, 782.3052
310.3374, 783.1541
310.8195, 783.6978
311.3016, 782.3608
311.7838, 777.6988
312.2659, 773.5261
312.7480, 772.7614
313.2301, 774.4843
313.7122, 776.3659
314.1943, 777.6821
314.6765, 778.5688
315.1586, 779.1277
315.6407, 779.3839
316.1228, 779.3021
316.6049, 778.9541
317.0870, 778.2387
317.5692, 777.0000
318.0513, 774.1666
318.5334, 771.5955
319.0155, 770.3584
319.4976, 770.7009
319.9797, 771.0209
320.4619, 770.9432
320.9440, 770.4912
321.4261, 769.6984
321.9082, 768.3826
322.3903, 766.8936
322.8724, 765.1876
323.3546, 763.2637
323.8367, 761.6971
324.3188, 760.8962
324.8009, 760.3460
325.2830, 759.6656
325.7651, 758.0925
326.2473, 757.2058
326.7294, 757.8583
327.2115, 759.7620
327.6936, 760.5663
328.1757, 759.0347
328.6578, 757.1874
329.1400, 756.0353
329.6221, 756.8818
330.1042, 756.6554
330.5863, 754.6159
331.0684, 751.4503
331.5505, 749.2252
332.0327, 748.2898
332.5148, 747.8313
332.9969, 747.5390
333.4790, 747.3497
333.9611, 747.5271
334.4432, 748.4221
334.9254, 749.4724
335.4075, 749.6454
335.8896, 748.5128
336.3717, 747.3770
336.8538, 746.6693
337.3359, 746.4345
337.8181, 746.0834
338.3002, 745.4604
338.7823, 744.9748
339.2644, 745.4483
339.7465, 747.3992
340.2286, 747.9454
340.7108, 745.7608
341.1929, 741.4333
341.6750, 739.6026
342.1571, 740.7553
342.6392, 742.4536
343.1213, 742.6062
343.6035, 741.1830
344.0856, 739.7747
344.5677, 738.5811
345.0498, 737.6110
345.5319, 736.8395
346.0140, 736.2560
346.4962, 736.1603
346.9783, 737.1995
347.4604, 739.0474
347.9425, 739.9235
348.4246, 739.5029
348.9067, 738.6276
349.3889, 738.7336
349.8710, 739.5993
350.3531, 739.9520
350.8352, 738.6742
351.3173, 736.5681
351.7994, 735.1320
352.2816, 734.4446
352.7637, 734.1942
353.2458, 734.2411
353.7279, 734.4969
354.2100, 734.7746
354.6921, 735.0738
355.1743, 735.2984
355.6564, 735.2281
356.1385, 734.8984
356.6206, 734.7244
357.1027, 735.4977
357.5848, 736.3935
358.0670, 736.3229
358.5491, 734.1530
359.0312, 732.2053
359.5133, 732.0154
359.9954, 733.2529
360.4775, 734.8802
360.9597, 737.2728
361.4418, 739.3045
361.9239, 740.0820
362.4060, 739.0624
362.8881, 737.9717
363.3702, 737.4930
363.8524, 737.3406
364.3345, 737.0779
364.8166, 736.0530
365.2987, 735.3705
365.7808, 735.5535
366.2629, 736.7104
366.7451, 737.9866
367.2272, 739.9201
367.7093, 741.6021
368.1914, 742.2352
368.6735, 739.9084
369.1556, 738.5951
369.6378, 739.7869
370.1199, 743.0305
370.6020, 744.1235
371.0841, 740.6799
371.5662, 737.2996
372.0483, 736.5757
372.5305, 740.3599
373.0126, 743.2850
373.4947, 744.9220
373.9768, 745.7229
374.4589, 746.6965
374.9410, 747.7369
375.4232, 749.1812
375.9053, 751.3209
376.3874, 754.3145
376.8695, 756.7696
377.3516, 758.5555
377.8337, 760.0701
378.3159, 761.9918
378.7980, 764.4464
379.2801, 766.3719
379.7622, 767.2507
380.2443, 767.4039
380.7264, 768.4701
381.2086, 770.5616
381.6907, 772.7117
382.1728, 773.9016
382.6549, 774.3275
383.1370, 775.2246
383.6191, 776.9168
384.1013, 778.9724
384.5834, 780.7112
385.0655, 782.1732
385.5476, 783.6501
386.0297, 785.3499
386.5118, 787.1933
386.9940, 789.2813
387.4761, 791.7195
387.9582, 793.6370
388.4403, 793.7955
388.9224, 792.8492
389.4045, 792.1631
389.8867, 793.2352
390.3688, 794.1628
390.8509, 792.8849
391.3330, 789.5970
391.8151, 786.5023
392.2972, 785.3198
392.7794, 784.7896
393.2615, 783.6473
393.7436, 780.9584
394.2257, 778.4998
394.7078, 777.4731
395.1899, 777.3093
395.6721, 776.5129
396.1542, 774.3947
396.6363, 771.7208
397.1184, 768.6990
397.6005, 765.0754
398.0826, 762.0018
398.5648, 760.2816
399.0469, 758.9931
399.5290, 757.0181
400.0111, 753.2971
400.4932, 749.9515
400.9753, 747.4252
401.4575, 745.7050
401.9396, 744.0093
402.4217, 742.3043
402.9038, 740.6315
403.3859, 739.0021
403.8680, 737.3588
404.3502, 735.9237
404.8323, 734.9479
405.3144, 734.0757
405.7965, 732.2834
406.2786, 729.2889
406.7607, 726.2763
407.2429, 723.6880
407.7250, 721.5144
408.2071, 719.9305
408.6892, 719.0592
409.1713, 718.3798
409.6534, 717.1897
410.1356, 715.5214
410.6177, 713.9440
411.0998, 712.6591
411.5819, 711.5403
412.0640, 710.2421
412.5461, 708.7841
413.0282, 707.3791
413.5103, 706.4576
413.9925, 705.6933
414.4746, 704.2248
414.9567, 701.6340
415.4388, 699.1328
415.9209, 698.0080
416.4030, 697.9486
416.8852, 698.1524
417.3673, 698.8201
417.8494, 699.1877
418.3315, 698.4908
418.8136, 696.6810
419.2957, 694.5887
419.7779, 692.2542
420.2600, 690.0570
420.7421, 688.4166
421.2242, 687.5525
421.7063, 687.1443
422.1884, 687.4841
422.6706, 688.2936
423.1527, 688.5227
423.6348, 687.3057
424.1169, 685.9664
424.5990, 685.1310
425.0811, 685.1507
425.5633, 685.0139
426.0454, 685.0007
426.5275, 684.6938
427.0096, 683.4515
427.4917, 680.1401
427.9738, 677.6494
428.4560, 676.8096
428.9381, 677.5266
429.4202, 677.8053
429.9023, 677.4861
430.3844, 677.0084
430.8665, 676.6596
431.3487, 676.4375
431.8308, 676.3390
432.3129, 676.3865
432.7950, 676.5118
433.2771, 676.6074
433.7592, 676.6700
434.2414, 676.6306
434.7235, 676.3986
435.2056, 676.0239
435.6877, 675.7298
436.1698, 675.5195
436.6519, 675.3121
437.1341, 675.2118
437.6162, 675.0627
438.0983, 674.3439
438.5804, 672.4526
439.0625, 670.6081
439.5446, 670.6536
440.0268, 672.0863
440.5089, 673.0574
440.9910, 672.1630
441.4731, 670.5314
441.9552, 669.1251
442.4373, 668.1091
442.9195, 667.1385
443.4016, 665.5789
443.8837, 664.1208
444.3658, 663.6032
444.8479, 665.6285
445.3300, 667.2702
445.8122, 667.4807
446.2943, 666.3747
446.7764, 665.1756
447.2585, 663.6798
447.7406, 662.4206
448.2227, 661.7122
448.7049, 662.0361
449.1870, 661.9705
449.6691, 661.2008
450.1512, 660.1982
450.6333, 659.8082
451.1154, 660.5046
451.5976, 660.7648
452.0797, 660.0342
452.5618, 658.4004
453.0439, 657.0951
453.5260, 656.0626
454.0081, 655.5951
454.4903, 656.3310
454.9724, 658.2365
455.4545, 659.2250
455.9366, 658.8777
456.4187, 657.8517
456.9008, 657.1573
457.3830, 656.7652
457.8651, 656.5099
458.3472, 656.4902
458.8293, 656.4955
459.3114, 656.2713
459.7935, 655.8124
460.2757, 654.7811
460.7578, 652.0109
461.2399, 648.7756
461.7220, 646.9542
462.2041, 647.6434
462.6862, 648.7708
463.1684, 649.1490
463.6505, 648.9431
464.1326, 648.5275
464.6147, 647.7866
465.0968, 647.0823
465.5789, 646.5032
466.0611, 645.9998
466.5432, 646.0327
467.0253, 647.3987
467.5074, 648.9551
467.9895, 649.7418
468.4716, 649.4522
468.9538, 648.6853
469.4359, 647.0595
469.9180, 645.0016
470.4001, 643.9792
470.8822, 644.6680
471.3643, 645.2258
471.8465, 644.8572
472.3286, 643.4722
472.8107, 642.1080
473.2928, 640.6678
473.7749, 639.5489
474.2570, 639.4417
474.7392, 640.3409
475.2213, 640.9548
475.7034, 640.9635
476.1855, 640.5795
476.6676, 640.1395
477.1497, 639.6549
477.6319, 639.2727
478.1140, 639.3671
478.5961, 639.5178
479.0782, 638.8149
479.5603, 637.1250
480.0424, 635.5609
480.5246, 635.0540
481.0067, 635.2302
481.4888, 635.5773
481.9709, 636.3121
482.4530, 636.7335
482.9352, 636.1158
483.4173, 634.8243
483.8994, 634.0167
484.3815, 634.5887
484.8636, 635.3181
485.3457, 635.8250
485.8279, 636.3414
486.3100, 635.6284
486.7921, 631.6276
487.2742, 627.4326
487.7563, 625.8793
488.2384, 629.1312
488.7206, 631.2696
489.2027, 631.1830
489.6848, 629.5880
490.1669, 629.1438
490.6490, 630.2667
491.1311, 631.3002
491.6133, 631.3507
492.0954, 630.4426
492.5775, 629.8538
493.0596, 629.6838
493.5417, 629.4413
494.0238, 628.3979
494.5060, 626.7495
494.9881, 625.3832
495.4702, 624.4667
495.9523, 624.0363
496.4344, 624.3331
496.9165, 625.2258
497.3987, 626.2198
497.8808, 627.6330
498.3629, 628.6639
498.8450, 628.2249
499.3271, 626.1614
499.8092, 624.3116
500.2914, 623.4612
500.7735, 623.3683
501.2556, 623.8007
501.7377, 625.8977
502.2198, 627.0558
502.7019, 625.8154
503.1841, 623.1722
503.6662, 621.8459
504.1483, 623.0573
504.6304, 624.5433
505.1125, 625.8500
505.5946, 627.0300
506.0768, 627.4662
506.5589, 626.9900
507.0410, 626.0293
507.5231, 624.5701
508.0052, 622.3115
508.4873, 621.8399
508.9695, 624.0261
509.4516, 627.2213
509.9337, 628.0067
510.4158, 626.5217
510.8979, 625.4172
511.3800, 626.2119
511.8622, 628.0565
512.3443, 629.2946
512.8264, 629.9000
513.3085, 629.6511
513.7906, 627.1793
514.2728, 624.1954
514.7549, 623.0662
515.2370, 624.6155
515.7191, 626.9044
516.2012, 630.1779
516.6833, 633.0889
517.1655, 633.6274
517.6476, 628.3967
518.1297, 623.4260
518.6118, 621.1328
519.0939, 621.3115
519.5760, 621.0031
520.0582, 619.5483
520.5403, 617.8108
521.0224, 616.0992
521.5045, 614.2508
521.9866, 612.8580
522.4688, 611.9400
522.9509, 611.4467
523.4330, 611.4174
523.9151, 611.9631
524.3972, 612.3902
524.8793, 612.6856
525.3615, 612.6500
525.8436, 611.3644
526.3257, 608.8492
526.8078, 606.7972
527.2899, 606.7792
527.7720, 607.8242
528.2542, 607.6619
528.7363, 606.1791
529.2184, 604.2777
529.7005, 602.4775
530.1826, 600.8220
530.6647, 599.3284
531.1469, 597.7604
531.6290, 596.7868
532.1111, 597.1822
532.5932, 598.4229
533.0753, 599.4396
533.5574, 599.6204
534.0396, 599.8156
534.5217, 600.6009
535.0038, 602.0560
535.4859, 602.4053
535.9680, 600.7090
536.4501, 598.7775
536.9323, 597.6351
537.4144, 597.4808
537.8965, 597.6109
538.3786, 598.2313
538.8607, 598.8453
539.3428, 598.4733
539.8250, 597.0085
540.3071, 596.0717
540.7892, 596.3053
541.2713, 597.2332
541.7534, 597.8182
542.2355, 598.0636
542.7177, 597.9698
543.1998, 596.9805
543.6819, 595.8582
544.1640, 596.1155
544.6461, 597.9399
545.1282, 599.4291
545.6104, 598.7010
546.0925, 597.1082
546.5746, 596.1909
547.0567, 596.9283
547.5388, 597.6095
548.0209, 597.5108
548.5031, 596.9531
548.9852, 596.6452
549.4673, 597.0230
549.9494, 597.3131
550.4315, 597.3881
550.9136, 597.2482
551.3958, 596.6186
551.8779, 594.9935
552.3600, 593.7336
552.8421, 593.9293
553.3242, 595.7971
553.8063, 597.1770
554.2885, 598.0933
554.7706, 598.2052
555.2527, 596.2372
555.7348, 592.6730
556.2169, 590.7115
556.6990, 592.1445
557.1812, 594.5895
557.6633, 594.3887
558.1454, 592.1708
558.6275, 590.2970
559.1096, 590.2611
559.5917, 591.0400
560.0739, 592.0349
560.5560, 593.2125
561.0381, 594.0219
561.5202, 594.0143
562.0023, 593.6838
562.4844, 593.3785
562.9666, 592.9859
563.4487, 592.8693
563.9308, 593.1413
564.4129, 593.6428
564.8950, 594.2205
565.3771, 595.1765
565.8593, 595.4113
566.3414, 594.2073
566.8235, 592.1447
567.3056, 592.1801
567.7877, 594.6123
568.2698, 596.9449
568.7520, 597.4286
569.2341, 596.5629
569.7162, 596.3074
570.1983, 596.7500
570.6804, 597.3849
571.1625, 597.9485
571.6447, 598.3400
572.1268, 598.3363
572.6089, 597.6898
573.0910, 597.0797
573.5731, 597.1776
574.0552, 597.5774
574.5374, 597.5674
575.0195, 596.6469
575.5016, 595.5648
575.9837, 594.5431
576.4658, 593.5892
576.9479, 592.6200
577.4301, 591.9826
577.9122, 590.9329
578.3943, 588.8962
578.8764, 585.4974
579.3585, 583.4689
579.8406, 583.2740
580.3228, 583.4125
580.8049, 582.1937
581.2870, 579.7041
581.7691, 577.3810
582.2512, 575.4003
582.7333, 573.8594
583.2155, 573.1525
583.6976, 573.0507
584.1797, 572.8162
584.6618, 572.1352
585.1439, 571.1412
585.6260, 569.5693
586.1082, 567.6335
586.5903, 566.4226
587.0724, 567.6251
587.5545, 568.7770
588.0366, 568.2370
588.5187, 565.3099
589.0009, 563.0266
589.4830, 562.1799
589.9651, 561.8292
590.4472, 561.3144
590.9293, 560.6132
591.4114, 559.7990
591.8936, 558.8256
592.3757, 557.7998
592.8578, 556.8860
593.3399, 556.0919
593.8220, 555.4632
594.3041, 555.1649
594.7863, 554.9283
595.2684, 554.1036
595.7505, 552.7403
596.2326, 551.1468
596.7147, 548.9365
597.1968, 546.9207
597.6790, 546.2943
598.1611, 547.1671
598.6432, 547.8693
599.1253, 547.1472
599.6074, 546.0505
600.0895, 545.4836
600.5717, 546.1725
601.0538, 546.4153
601.5359, 545.5405
602.0180, 544.2518
602.5001, 543.4451
602.9822, 543.2689
603.4644, 543.3109
603.9465, 543.6050
604.4286, 544.0189
604.9107, 544.1677
605.3928, 544.0476
605.8749, 543.6213
606.3571, 542.6690
606.8392, 541.4022
607.3213, 540.4464
607.8034, 539.8026
608.2855, 539.5054
608.7676, 539.6370
609.2498, 540.1146
609.7319, 541.0792
610.2140, 542.8052
610.6961, 543.7587
611.1782, 542.2894
611.6603, 539.9745
612.1425, 538.4738
612.6246, 539.3372
613.1067, 539.6338
613.5888, 538.4610
614.0709, 536.5849
614.5530, 535.5738
615.0352, 535.9619
615.5173, 536.0961
615.9994, 535.3969
616.4815, 534.0864
616.9636, 533.3906
617.4457, 533.3552
617.9279, 533.4659
618.4100, 533.7001
618.8921, 533.8134
619.3742, 532.7994
619.8563, 530.5947
620.3384, 528.7125
620.8206, 528.7531
621.3027, 529.6648
621.7848, 530.2094
622.2669, 530.1179
622.7490, 529.6671
623.2311, 528.4130
623.7133, 527.0644
624.1954, 526.5284
624.6775, 527.9634
625.1596, 528.9825
625.6417, 529.1103
626.1238, 528.6676
626.6060, 528.6423
627.0881, 529.3174
627.5702, 529.5405
628.0523, 528.6786
628.5344, 527.0413
629.0165, 526.2177
629.4987, 526.2222
629.9808, 526.4565
630.4629, 526.4861
630.9450, 526.4504
631.4271, 526.8876
631.9092, 527.8760
632.3914, 528.1440
632.8735, 525.9307
633.3556, 522.9307
633.8377, 520.8660
634.3198, 520.4080
634.8019, 520.3680
635.2841, 520.8746
635.7662, 521.4675
636.2483, 521.4915
636.7304, 520.5046
637.2125, 519.6622
637.6946, 519.1215
638.1768, 518.8260
638.6589, 518.7193
639.1410, 518.8793
639.6231, 518.6922
640.1052, 517.6903
640.5873, 516.2484
641.0695, 515.5139
641.5516, 515.4501
642.0337, 515.6356
642.5158, 516.1819
642.9979, 516.6176
643.4800, 516.1823
643.9622, 514.7699
644.4443, 513.6317
644.9264, 513.5061
645.4085, 513.8298
645.8906, 514.1921
646.3727, 514.7881
646.8549, 514.9017
647.3370, 514.2863
647.8191, 513.3102
648.3012, 512.2615
648.7833, 510.8034
649.2654, 510.4808
649.7476, 511.9764
650.2297, 514.1559
650.7118, 514.4246
651.1939, 512.9533
651.6760, 511.7969
652.1581, 511.9956
652.6403, 512.8368
653.1224, 513.3842
653.6045, 513.6566
654.0866, 513.7482
654.5687, 513.6370
655.0508, 513.4280
655.5330, 513.1306
656.0151, 512.7455
656.4972, 512.5139
656.9793, 512.5143
657.4614, 512.6690
657.9435, 512.9903
658.4257, 513.6347
658.9077, 513.8982
659.3898, 513.7883
659.8719, 513.2728
660.3541, 512.0621
660.8362, 510.1956
661.3183, 508.9769
661.8004, 508.7221
662.2825, 508.8146
662.7646, 508.6190
663.2468, 508.1400
663.7289, 507.3560
664.2110, 505.9067
664.6931, 504.6078
665.1752, 504.4406
665.6573, 504.8663
666.1395, 504.5973
666.6216, 501.8605
667.1037, 499.8058
667.5858, 500.1472
668.0679, 502.3922
668.5500, 502.9543
669.0322, 500.9117
669.5143, 499.0192
669.9964, 498.6810
670.4785, 499.7579
670.9606, 500.0052
671.4427, 499.3676
671.9249, 498.3763
672.4070, 497.1825
672.8891, 495.9861
673.3712, 495.2765
673.8533, 495.1178
674.3354, 495.1603
674.8176, 495.2373
675.2997, 495.3392
675.7818, 495.4759
676.2639, 495.7844
676.7460, 495.8840
677.2281, 495.6449
677.7103, 495.1728
678.1924, 494.5826
678.6745, 493.8173
679.1566, 493.0717
679.6387, 492.3315
680.1208, 491.6615
680.6030, 491.2002
681.0851, 490.9517
681.5672, 490.7856
682.0493, 490.6584
682.5314, 490.5792
683.0135, 490.7293
683.4957, 490.9888
683.9778, 490.8910
684.4599, 489.8418
684.9420, 488.6179
685.4241, 487.7071
685.9063, 487.1247
686.3884, 486.6338
686.8705, 486.3368
687.3526, 485.9913
687.8347, 485.5429
688.3168, 485.0355
688.7990, 484.0451
689.2811, 482.2450
689.7632, 480.6748
690.2453, 480.1318
690.7274, 480.5748
691.2095, 481.7618
691.6917, 483.7992
692.1738, 485.6347
692.6559, 486.1710
693.1380, 485.7012
693.6201, 484.5165
694.1022, 482.2619
694.5844, 480.4830
695.0665, 480.7282
695.5486, 481.7431
696.0307, 481.9220
696.5128, 479.4386
696.9949, 478.0509
697.4771, 478.8853
697.9592, 480.6732
698.4413, 480.6895
698.9234, 478.3721
699.4055, 476.5686
699.8876, 476.1547
700.3698, 476.6122
700.8519, 476.6440
701.3340, 476.3245
701.8161, 476.1293
702.2982, 476.5461
702.7803, 477.0629
703.2625, 477.1883
703.7446, 476.9338
704.2267, 476.3730
704.7088, 474.8961
705.1909, 473.6842
705.6730, 473.5689
706.1552, 474.7089
706.6373, 475.2298
707.1194, 474.7510
707.6015, 474.1650
708.0836, 473.9840
708.5657, 474.2299
709.0479, 474.3004
709.5300, 474.1786
710.0121, 473.9192
710.4942, 473.5767
710.9763, 473.1240
711.4584, 472.4477
711.9406, 471.5025
712.4227, 470.5727
712.9048, 469.6763
713.3869, 468.9897
713.8690, 468.7179
714.3511, 469.0956
714.8333, 469.5686
715.3154, 470.2908
715.7975, 470.9404
716.2796, 471.0580
716.7617, 470.2298
717.2438, 470.3299
717.7260, 472.0943
718.2081, 474.1026
718.6902, 473.3331
719.1723, 470.1778
719.6544, 467.8222
720.1365, 467.7923
720.6187, 468.1693
721.1008, 466.1225
721.5829, 462.7085
722.0650, 460.3566
722.5471, 460.7493
723.0292, 461.7963
723.5114, 462.9379
723.9935, 464.0471
724.4756, 464.7134
724.9577, 464.9171
725.4398, 464.6635
725.9219, 463.8120
726.4041, 462.4915
726.8862, 461.2696
727.3683, 460.0821
727.8504, 459.6526
728.3325, 461.3562
728.8146, 463.8115
729.2968, 463.7157
729.7789, 461.3051
730.2610, 458.8223
730.7431, 457.2353
731.2252, 456.4461
731.7073, 456.5773
732.1895, 457.7023
732.6716, 458.7862
733.1537, 460.0929
733.6358, 460.8784
734.1179, 460.6115
734.6000, 459.0158
735.0822, 457.9337
735.5643, 457.4185
736.0464, 457.1901
736.5285, 457.1849
737.0106, 457.2778
737.4927, 456.9023
737.9749, 455.9604
738.4570, 455.0103
738.9391, 454.4499
739.4212, 454.2162
739.9033, 454.3257
740.3854, 455.0685
740.8676, 455.4631
741.3497, 454.9801
741.8318, 454.1647
742.3139, 453.5717
742.7960, 453.2840
743.2781, 453.0487
743.7603, 452.9120
744.2424, 452.7028
744.7245, 451.7924
745.2066, 450.3724
745.6887, 450.2751
746.1708, 452.4183
746.6530, 454.7327
747.1351, 454.6310
747.6172, 453.0494
748.0993, 451.6296
748.5814, 451.0795
749.0635, 450.6639
749.5457, 450.0889
750.0278, 449.4828
750.5099, 449.1312
750.9920, 449.1434
751.4741, 449.2447
751.9562, 449.5072
752.4384, 449.7509
752.9205, 449.3837
753.4026, 448.4279
753.8847, 447.5929
754.3668, 447.0994
754.8489, 446.9447
755.3311, 447.3515
755.8132, 448.1202
756.2953, 448.6537
756.7774, 448.5710
757.2595, 448.2917
757.7416, 447.8939
758.2238, 447.4387
758.7059, 447.2098
759.1880, 447.5094
759.6701, 447.5415
760.1522, 446.8641
760.6343, 445.7286
761.1165, 445.6813
761.5986, 446.7845
762.0807, 447.6339
762.5628, 447.2692
763.0449, 446.2315
763.5270, 445.1957
764.0092, 444.2496
764.4913, 443.8434
764.9734, 444.7399
765.4555, 445.8270
765.9376, 446.5920
766.4197, 447.0059
766.9019, 446.7461
767.3840, 445.3742
767.8661, 443.9550
768.3482, 442.6774
768.8303, 441.5883
769.3124, 442.7466
769.7946, 446.4055
770.2767, 449.1128
770.7588, 447.1854
771.2409, 443.1066
771.7230, 441.4040
772.2051, 442.1781
772.6873, 443.3285
773.1694, 443.8575
773.6515, 444.1447
774.1336, 444.3603
774.6157, 444.4577
775.0978, 444.9408
775.5800, 446.1646
776.0621, 447.2999
776.5442, 447.8422
777.0263, 447.7672
777.5084, 447.3978
777.9905, 446.6487
778.4727, 446.3820
778.9548, 447.8593
779.4369, 450.1465
779.9190, 451.5459
780.4011, 451.8437
780.8832, 452.0870
781.3654, 452.9279
781.8475, 453.9070
782.3296, 454.6645
782.8117, 455.0301
783.2938, 455.5070
783.7759, 455.6408
784.2581, 456.5408
784.7402, 459.5876
785.2223, 464.7756
785.7044, 468.1476
786.1865, 469.3644
786.6686, 470.2063
787.1508, 471.8043
787.6329, 474.3130
788.1150, 478.1234
788.5971, 483.4340
789.0792, 489.2676
789.5613, 495.2985
790.0435, 501.6407
790.5256, 508.4248
791.0077, 515.3327
791.4898, 523.3834
791.9719, 532.6287
792.4540, 542.8547
792.9362, 553.8383
793.4183, 565.6302
793.9004, 577.1094
794.3825, 588.2391
794.8646, 599.5250
795.3467, 611.3503
795.8289, 623.9123
796.3110, 637.1446
796.7931, 651.0035
797.2752, 666.5421
797.7573, 684.4814
798.2394, 704.2888
798.7216, 725.3873
799.2037, 747.7260
799.6858, 771.9608
800.1679, 798.3068
800.6500, 826.0872
801.1321, 856.1962
801.6143, 887.8665
802.0964, 917.8174
802.5785, 945.4744
803.0606, 972.3330
803.5427, 1001.495
804.0248, 1029.198
804.5070, 1052.032
804.9891, 1069.826
805.4712, 1081.167
805.9533, 1085.213
806.4354, 1082.991
806.9175, 1074.733
807.3997, 1059.806
807.8818, 1041.400
808.3639, 1019.608
808.8460, 994.9742
809.3281, 967.5189
809.8102, 937.7839
810.2924, 906.4042
810.7745, 873.1284
811.2566, 841.2970
811.7387, 813.3025
812.2208, 788.1570
812.7029, 765.2794
813.1851, 745.1732
813.6672, 725.7958
814.1493, 706.5887
814.6314, 688.4980
815.1135, 672.5938
815.5956, 658.8034
816.0778, 645.7908
816.5599, 633.4044
817.0420, 622.0107
817.5241, 611.8254
818.0062, 602.9450
818.4883, 595.4144
818.9705, 589.2574
819.4526, 584.1205
819.9347, 579.8543
820.4168, 576.5271
820.8989, 574.3281
821.3810, 573.4265
821.8632, 572.6423
822.3453, 571.4730
822.8274, 571.5441
823.3095, 574.5807
823.7916, 580.1332
824.2737, 585.4060
824.7559, 590.2787
825.2380, 595.9443
825.7201, 603.0661
826.2022, 611.6029
826.6843, 621.6450
827.1664, 633.3124
827.6486, 645.3469
828.1307, 658.0325
828.6128, 670.5679
829.0949, 682.2493
829.5770, 692.7490
830.0591, 705.9652
830.5413, 721.9131
831.0234, 740.1931
831.5055, 761.4467
831.9876, 784.4270
832.4697, 806.5732
832.9518, 827.7762
833.4340, 850.7414
833.9161, 876.6945
834.3982, 904.9203
834.8803, 935.4840
835.3624, 968.5364
835.8445, 1001.489
836.3267, 1034.717
836.8088, 1067.047
837.2909, 1098.794
837.7730, 1129.073
838.2551, 1153.291
838.7372, 1171.390
839.2194, 1182.238
839.7015, 1187.268
840.1836, 1183.164
840.6657, 1165.686
841.1478, 1135.530
841.6299, 1098.113
842.1121, 1050.344
842.5942, 1000.385
843.0763, 949.5609
843.5584, 898.4846
844.0405, 850.2571
844.5226, 804.6746
845.0048, 763.3333
845.4869, 727.2951
845.9690, 695.4964
846.4511, 666.6411
846.9332, 640.6106
847.4153, 617.4540
847.8975, 597.6580
848.3796, 580.2739
848.8617, 565.5341
849.3438, 552.9065
849.8259, 540.7205
850.3080, 528.5931
850.7902, 517.3817
851.2723, 507.2244
851.7544, 498.3121
852.2365, 491.7460
852.7186, 487.1469
853.2007, 482.1880
853.6829, 475.6886
854.1650, 469.1888
854.6471, 464.1274
855.1292, 459.9268
855.6113, 455.5974
856.0934, 450.4672
856.5756, 445.8065
857.0577, 441.7450
857.5398, 438.2121
858.0219, 434.9245
858.5040, 431.8461
858.9861, 429.6102
859.4683, 428.5097
859.9504, 427.5043
860.4325, 425.1292
860.9146, 422.0118
861.3967, 419.2538
861.8788, 417.2195
862.3610, 415.3140
862.8431, 413.4804
863.3252, 411.5911
863.8073, 409.4756
864.2894, 406.7694
864.7715, 405.0983
865.2537, 404.7977
865.7358, 404.5555
866.2179, 402.7936
866.7000, 400.0786
867.1821, 397.7835
867.6642, 396.0191
868.1464, 395.0775
868.6285, 395.9643
869.1106, 397.1478
869.5927, 397.4413
870.0748, 396.5438
870.5569, 395.5945
871.0391, 394.5016
871.5212, 393.5324
872.0033, 392.8111
872.4854, 392.3398
872.9675, 392.3470
873.4496, 392.7853
873.9318, 392.9973
874.4139, 392.0279
874.8960, 391.0118
875.3781, 391.2931
875.8602, 392.6667
876.3423, 393.2664
876.8245, 391.7677
877.3066, 390.4596
877.7887, 389.9258
878.2708, 390.0591
878.7529, 390.5983
879.2350, 391.5480
879.7172, 392.1063
880.1993, 391.5010
880.6814, 390.8175
881.1635, 392.1834
881.6456, 394.5584
882.1277, 395.5108
882.6099, 391.9818
883.0920, 389.4824
883.5741, 390.0846
884.0562, 392.3247
884.5383, 394.0679
885.0204, 395.3007
885.5026, 395.9935
885.9847, 395.9445
886.4668, 395.9288
886.9489, 397.2408
887.4310, 399.3419
887.9131, 401.1061
888.3953, 402.1392
888.8774, 403.1156
889.3595, 405.1653
889.8416, 406.7482
890.3237, 406.1444
890.8058, 401.7807
891.2880, 400.1662
891.7701, 402.0422
892.2522, 404.3921
892.7343, 404.4030
893.2164, 402.7458
893.6985, 401.1885
894.1807, 399.8796
894.6628, 398.3319
895.1449, 396.2584
895.6270, 393.8461
896.1091, 391.1223
896.5912, 388.0890
897.0734, 385.0116
897.5555, 381.7286
898.0376, 378.8280
898.5197, 376.5224
899.0018, 374.8561
899.4839, 374.5273
899.9661, 375.2585
900.4482, 375.4306
900.9303, 373.5969
901.4124, 371.4304
901.8945, 370.0005
902.3766, 369.1373
902.8588, 368.1480
903.3409, 366.7148
903.8230, 365.6743
904.3051, 365.2932
904.7872, 365.2370
905.2693, 364.7585
905.7515, 363.9517
906.2336, 363.4164
906.7157, 363.4100
907.1978, 363.4472
907.6799, 363.3679
908.1620, 362.9735
908.6442, 361.9460
909.1263, 359.0674
909.6084, 357.7878
910.0905, 359.1212
910.5726, 360.7568
911.0547, 360.3615
911.5369, 358.1506
912.0190, 356.6613
912.5011, 356.0592
912.9832, 355.7806
913.4653, 355.5137
913.9474, 355.2487
914.4296, 354.9051
914.9117, 354.4646
915.3938, 354.3449
915.8759, 354.9642
916.3580, 355.3862
916.8401, 355.1055
917.3223, 354.3000
917.8044, 353.9726
918.2865, 354.1173
918.7686, 354.6397
919.2507, 355.5320
919.7328, 356.7420
920.2150, 358.8741
920.6971, 361.2602
921.1792, 362.2943
921.6613, 359.2969
922.1434, 357.9554
922.6255, 359.5123
923.1077, 362.6821
923.5898, 365.5648
924.0719, 368.1173
924.5540, 369.7208
925.0361, 369.9789
925.5182, 370.4135
926.0004, 372.7309
926.4825, 376.0262
926.9646, 379.2043
927.4467, 381.8522
927.9288, 385.0141
928.4109, 389.2381
928.8931, 393.4721
929.3752, 396.8783
929.8573, 399.4648
930.3394, 402.6841
930.8215, 406.5135
931.3036, 409.5174
931.7858, 410.1034
932.2679, 409.7457
932.7500, 410.2767
933.2321, 411.4609
933.7142, 411.0499
934.1964, 407.7544
934.6785, 403.8179
935.1606, 399.6773
935.6427, 395.3409
936.1248, 390.8113
936.6069, 386.0809
937.0891, 381.8246
937.5712, 378.2769
938.0533, 375.0744
938.5354, 371.9334
939.0175, 368.8551
939.4996, 365.9052
939.9818, 363.3242
940.4639, 360.4280
940.9460, 357.0397
941.4281, 353.5949
941.9102, 350.4220
942.3923, 347.5723
942.8745, 345.6665
943.3566, 344.7552
943.8387, 344.1147
944.3208, 343.1557
944.8029, 342.2159
945.2850, 341.7920
945.7672, 341.9513
946.2493, 341.2228
946.7314, 338.8830
947.2135, 336.8207
947.6956, 335.7905
948.1777, 335.5690
948.6599, 335.6602
949.1420, 335.9516
949.6241, 335.7672
950.1062, 334.1618
950.5883, 332.7256
951.0704, 333.1451
951.5526, 334.3745
952.0347, 334.3195
952.5168, 331.7233
952.9989, 330.1905
953.4810, 330.3060
953.9631, 330.9147
954.4453, 330.4395
954.9274, 329.2377
955.4095, 328.6791
955.8916, 329.0032
956.3737, 329.1841
956.8558, 328.1268
957.3380, 326.9865
957.8201, 326.8182
958.3022, 327.7580
958.7843, 327.8128
959.2664, 326.6719
959.7485, 325.6419
960.2307, 325.7079
960.7128, 326.1009
961.1949, 324.4075
961.6770, 321.3318
962.1591, 319.3812
962.6412, 321.1050
963.1234, 322.6124
963.6055, 321.6827
964.0876, 319.7925
964.5697, 319.6083
965.0518, 321.7165
965.5339, 322.7433
966.0161, 322.1521
966.4982, 320.8773
966.9803, 319.5798
967.4624, 318.5275
967.9445, 318.3767
968.4266, 319.3526
968.9088, 320.0581
969.3909, 319.8329
969.8730, 319.3080
970.3551, 318.7390
970.8372, 318.1424
971.3193, 317.7948
971.8015, 317.7078
972.2836, 317.4948
972.7657, 316.8249
973.2478, 316.0208
973.7299, 315.3356
974.2120, 314.8235
974.6942, 314.6093
975.1763, 315.0284
975.6584, 315.3502
976.1405, 315.4253
976.6226, 315.4291
977.1047, 315.7663
977.5869, 316.3634
978.0690, 316.3082
978.5511, 315.4340
979.0332, 314.3070
979.5153, 313.1102
979.9974, 312.0724
980.4796, 311.3679
980.9617, 311.0268
981.4438, 311.1551
981.9259, 311.9488
982.4080, 312.8163
982.8901, 313.6845
983.3723, 314.3368
983.8544, 313.7179
984.3365, 312.1698
984.8186, 311.1144
985.3007, 311.4572
985.7828, 312.2291
986.2650, 313.6458
986.7471, 314.9174
987.2292, 314.7243
987.7113, 312.6052
988.1934, 310.4885
988.6755, 308.3518
989.1577, 306.9392
989.6398, 307.9856
990.1219, 309.9769
990.6040, 309.9689
991.0861, 307.6009
991.5682, 305.8600
992.0504, 306.8773
992.5325, 307.8028
993.0146, 307.2027
993.4967, 305.4341
993.9788, 304.4663
994.4609, 304.3008
994.9431, 304.1255
995.4252, 303.4066
995.9073, 302.8452
996.3894, 303.7830
996.8715, 305.2353
997.3536, 305.5978
997.8358, 302.7167
998.3179, 301.4268
998.8000, 302.5165
999.2821, 304.1448
999.7642, 304.4885
1000.246, 303.7731
1000.728, 303.1001
1001.211, 302.5352
1001.693, 302.3911
1002.175, 303.4917
1002.657, 304.5174
1003.139, 304.4775
1003.621, 303.4848
1004.103, 302.6297
1004.585, 301.8447
1005.068, 301.4535
1005.550, 301.5552
1006.032, 302.0711
1006.514, 303.2460
1006.996, 304.6643
1007.478, 305.4677
1007.960, 305.1855
1008.442, 304.8591
1008.924, 304.6901
1009.407, 304.7025
1009.889, 304.9565
1010.371, 305.4615
1010.853, 305.9879
1011.335, 306.5433
1011.817, 306.8293
1012.299, 306.5175
1012.781, 305.9620
1013.263, 305.3412
1013.746, 304.7363
1014.228, 304.4140
1014.710, 304.7459
1015.192, 304.7420
1015.674, 304.2449
1016.156, 303.3751
1016.638, 302.0912
1017.120, 300.5828
1017.603, 299.5720
1018.085, 299.2586
1018.567, 298.6661
1019.049, 296.5267
1019.531, 294.4992
1020.013, 293.8047
1020.495, 294.3858
1020.977, 294.9621
1021.459, 295.5823
1021.942, 295.7611
1022.424, 295.2619
1022.906, 294.2105
1023.388, 292.0346
1023.870, 289.5680
1024.352, 288.4407
1024.834, 290.7961
1025.316, 292.1841
1025.799, 292.0297
1026.281, 291.1138
1026.763, 289.8145
1027.245, 288.3571
1027.727, 288.5692
1028.209, 290.4628
1028.691, 291.6843
1029.173, 289.6745
1029.656, 287.3000
1030.138, 286.5698
1030.620, 287.2587
1031.102, 287.7034
1031.584, 287.8714
1032.066, 287.9044
1032.548, 287.8325
1033.030, 287.6446
1033.512, 287.0721
1033.995, 286.4527
1034.477, 286.5204
1034.959, 287.7682
1035.441, 288.4235
1035.923, 287.7303
1036.405, 286.6913
1036.887, 285.6393
1037.369, 284.6575
1037.851, 284.6574
1038.334, 285.5257
1038.816, 286.1721
1039.298, 285.8232
1039.780, 285.2130
1040.262, 284.9427
1040.744, 284.7268
1041.226, 283.9589
1041.708, 282.3678
1042.191, 280.9142
1042.673, 279.5775
1043.155, 278.6475
1043.637, 278.6203
1044.119, 279.1064
1044.601, 279.4957
1045.083, 279.7357
1045.565, 279.8531
1046.047, 279.7894
1046.530, 279.7052
1047.012, 279.8302
1047.494, 279.8609
1047.976, 278.4890
1048.458, 275.9846
1048.940, 274.7593
1049.422, 275.7417
1049.904, 277.2473
1050.386, 278.5798
1050.869, 279.4472
1051.351, 279.4046
1051.833, 278.2838
1052.315, 277.3726
1052.797, 276.6697
1053.279, 276.1733
1053.761, 275.9166
1054.243, 275.8249
1054.726, 275.8156
1055.208, 275.8613
1055.690, 275.8924
1056.172, 276.0532
1056.654, 275.9326
1057.136, 275.3425
1057.618, 274.6466
1058.100, 274.3675
1058.583, 274.4032
1059.065, 273.9987
1059.547, 273.1088
1060.029, 272.2592
1060.511, 271.6493
1060.993, 271.3702
1061.475, 271.7780
1061.957, 272.6104
1062.439, 272.7336
1062.922, 272.0320
1063.404, 271.3640
1063.886, 270.9860
1064.368, 270.6032
1064.850, 269.5107
1065.332, 268.3372
1065.814, 268.1047
1066.296, 269.3651
1066.778, 269.8661
1067.261, 269.0169
1067.743, 268.1172
1068.225, 267.8626
1068.707, 268.0397
1069.189, 268.0771
1069.671, 267.9459
1070.153, 267.5100
1070.635, 265.9782
1071.118, 265.1304
1071.600, 266.7294
1072.082, 268.6784
1072.564, 268.7008
1073.046, 266.5944
1073.528, 264.9410
1074.010, 263.8221
1074.492, 263.4668
1074.974, 264.7623
1075.457, 266.3163
1075.939, 266.8558
1076.421, 266.5547
1076.903, 266.3378
1077.385, 266.3449
1077.867, 266.1720
1078.349, 265.6302
1078.831, 265.2299
1079.313, 266.2926
1079.796, 267.7391
1080.278, 267.2268
1080.760, 264.3037
1081.242, 262.2345
1081.724, 263.0419
1082.206, 263.8127
1082.688, 263.4333
1083.170, 262.3452
1083.653, 261.9518
1084.135, 262.1504
1084.617, 262.4473
1085.099, 262.7043
1085.581, 262.9727
1086.063, 263.5462
1086.545, 263.9511
1087.027, 263.7749
1087.510, 262.9917
1087.992, 261.7585
1088.474, 260.0138
1088.956, 258.8138
1089.438, 259.4002
1089.920, 260.3349
1090.402, 259.6872
1090.884, 258.3096
1091.366, 258.0819
1091.849, 260.2898
1092.331, 261.5982
1092.813, 261.6841
1093.295, 261.2730
1093.777, 261.0872
1094.259, 260.9251
1094.741, 260.1150
1095.223, 258.7863
1095.705, 258.0595
1096.188, 259.5745
1096.670, 260.1827
1097.152, 258.7080
1097.634, 256.3382
1098.116, 255.2309
1098.598, 255.1886
1099.080, 255.1777
1099.562, 255.0434
1100.045, 254.7753
1100.527, 254.0833
1101.009, 253.5196
1101.491, 253.5939
1101.973, 254.1512
1102.455, 254.1912
1102.937, 253.6885
1103.419, 253.3735
1103.901, 253.5244
1104.384, 253.8642
1104.866, 254.4265
1105.348, 254.8353
1105.830, 254.4606
1106.312, 252.7903
1106.794, 252.3647
1107.276, 253.5423
1107.758, 254.7096
1108.240, 255.1237
1108.723, 254.8069
1109.205, 253.1710
1109.687, 250.9196
1110.169, 249.6570
1110.651, 250.8974
1111.133, 251.7004
1111.615, 251.8085
1112.097, 251.5079
1112.580, 250.9801
1113.062, 250.2687
1113.544, 249.3711
1114.026, 248.3681
1114.508, 247.7939
1114.990, 248.3510
1115.472, 248.8831
1115.954, 249.0514
1116.437, 248.8984
1116.919, 248.3875
1117.401, 247.5399
1117.883, 246.6973
1118.365, 245.8846
1118.847, 245.4229
1119.329, 245.7788
1119.811, 246.3634
1120.293, 246.8902
1120.776, 247.2942
1121.258, 247.3030
1121.740, 246.8487
1122.222, 246.7166
1122.704, 247.2239
1123.186, 247.5569
1123.668, 246.3742
1124.150, 244.8592
1124.632, 244.4558
1125.115, 245.5160
1125.597, 245.9556
1126.079, 245.6367
1126.561, 245.0554
1127.043, 244.2682
1127.525, 243.5453
1128.007, 243.4864
1128.489, 243.7545
1128.972, 243.7098
1129.454, 242.8945
1129.936, 242.6792
1130.418, 243.3931
1130.900, 244.2845
1131.382, 244.9827
1131.864, 245.4905
1132.346, 246.0498
1132.828, 246.4592
1133.311, 246.0708
1133.793, 243.4753
1134.275, 241.6839
1134.757, 241.6902
1135.239, 242.2938
1135.721, 242.5113
1136.203, 242.4007
1136.685, 242.4631
1137.167, 242.6909
1137.650, 242.9336
1138.132, 243.1667
1138.614, 243.3244
1139.096, 243.4689
1139.578, 243.4653
1140.060, 243.0134
1140.542, 242.1007
1141.024, 241.5124
1141.507, 241.3142
1141.989, 241.3031
1142.471, 241.4581
1142.953, 241.6224
1143.435, 241.9172
1143.917, 242.1068
1144.399, 241.3012
1144.881, 239.2816
1145.364, 238.0035
1145.846, 237.8671
1146.328, 238.2202
1146.810, 238.8789
1147.292, 239.3745
1147.774, 239.0993
1148.256, 238.0376
1148.738, 237.3016
1149.220, 236.8756
1149.703, 237.0107
1150.185, 238.0047
1150.667, 238.9345
1151.149, 238.0804
1151.631, 236.6509
1152.113, 236.5796
1152.595, 238.4971
1153.077, 239.0072
1153.559, 237.3545
1154.042, 235.7985
1154.524, 235.3099
1155.006, 235.3324
1155.488, 234.9596
1155.970, 234.2966
1156.452, 233.4607
1156.934, 232.1437
1157.416, 231.8064
1157.898, 233.2101
1158.381, 234.3613
1158.863, 233.9934
1159.345, 232.6742
1159.827, 231.8808
1160.309, 231.5195
1160.791, 231.3517
1161.273, 231.3792
1161.755, 231.4550
1162.238, 231.5781
1162.720, 231.7124
1163.202, 232.0660
1163.684, 232.4339
1164.166, 231.2531
1164.648, 228.9556
1165.130, 227.4804
1165.612, 228.7776
1166.094, 229.7348
1166.577, 229.0520
1167.059, 227.9283
1167.541, 227.4805
1168.023, 227.6452
1168.505, 228.0641
1168.987, 228.6665
1169.469, 228.9907
1169.951, 228.3632
1170.433, 227.8569
1170.916, 228.2748
1171.398, 228.8818
1171.880, 228.6039
1172.362, 227.5026
1172.844, 226.7627
1173.326, 226.4805
1173.808, 226.5444
1174.290, 227.4466
1174.773, 228.1003
1175.255, 227.6207
1175.737, 226.5396
1176.219, 225.8933
1176.701, 225.6821
1177.183, 225.0302
1177.665, 223.7836
1178.147, 222.7576
1178.630, 222.7874
1179.112, 223.0883
1179.594, 223.1492
1180.076, 223.0158
1180.558, 222.8748
1181.040, 222.7197
1181.522, 222.6573
1182.004, 222.7230
1182.486, 222.7634
1182.969, 222.7569
1183.451, 222.5694
1183.933, 221.9478
1184.415, 220.9884
1184.897, 220.3377
1185.379, 220.0028
1185.861, 219.8743
1186.343, 219.9836
1186.825, 220.0480
1187.308, 219.6403
1187.790, 219.1658
1188.272, 219.1873
1188.754, 218.6264
1189.236, 219.3309
1189.718, 217.9906
1190.200, 217.0674
1190.682, 217.1031
1191.165, 217.4585
1191.647, 217.6834
1192.129, 217.7173
1192.611, 217.4441
1193.093, 216.8419
1193.575, 216.1629
1194.057, 215.3469
1194.539, 214.8894
1195.021, 215.0808
1195.504, 215.4953
1195.986, 215.9142
1196.468, 216.1259
1196.950, 215.6809
1197.432, 214.3326
1197.914, 213.9558
1198.396, 214.6958
1198.878, 215.4338
1199.360, 215.6756
1199.843, 215.5910
1200.325, 215.0390
1200.807, 214.4431
1201.289, 214.5108
1201.771, 215.5523
1202.253, 216.1245
1202.735, 216.1959
1203.217, 216.0226
1203.700, 215.7499
1204.182, 215.3095
1204.664, 214.3626
1205.146, 213.2910
1205.628, 212.7161
1206.110, 212.7649
1206.592, 213.2146
1207.074, 214.2163
1207.557, 214.6339
1208.039, 212.7575
1208.521, 210.8614
1209.003, 212.2821
1209.485, 215.2524
1209.967, 216.4237
1210.449, 214.8519
1210.931, 213.4148
1211.413, 212.0569
1211.896, 211.1561
1212.378, 211.2955
1212.860, 211.7269
1213.342, 211.7701
1213.824, 211.4812
1214.306, 210.8979
1214.788, 209.7523
1215.270, 209.4142
1215.752, 210.0121
1216.235, 210.6100
1216.717, 210.6597
1217.199, 210.2451
1217.681, 209.1186
1218.163, 207.6637
1218.645, 206.7575
1219.127, 206.4830
1219.609, 206.6177
1220.092, 207.2121
1220.574, 207.6424
1221.056, 207.5170
1221.538, 206.9132
1222.020, 205.2161
1222.502, 203.2778
1222.984, 203.0773
1223.466, 205.1381
1223.948, 206.6192
1224.431, 207.3583
1224.913, 207.4322
1225.395, 206.1987
1225.877, 204.9800
1226.359, 205.0725
1226.841, 205.9863
1227.323, 206.4278
1227.805, 206.3406
1228.287, 206.1415
1228.770, 205.8654
1229.252, 205.3750
1229.734, 203.9642
1230.216, 202.8828
1230.698, 203.5811
1231.180, 203.0701
1231.662, 203.2408
1232.144, 204.0994
1232.627, 203.9580
1233.109, 205.2250
1233.591, 206.1357
1234.073, 204.9084
1234.555, 203.3517
1235.037, 202.5284
1235.519, 202.2608
1236.001, 202.2830
1236.484, 202.5964
1236.966, 202.7219
1237.448, 202.6148
1237.930, 202.1353
1238.412, 200.3416
1238.894, 199.0552
1239.376, 199.8635
1239.858, 201.5538
1240.340, 202.1831
1240.823, 201.8413
1241.305, 201.6393
1241.787, 201.6823
1242.269, 201.8393
1242.751, 202.6804
1243.233, 202.7793
1243.715, 200.8488
1244.197, 198.4606
1244.679, 198.2558
1245.162, 199.8245
1245.644, 201.1831
1246.126, 202.1350
1246.608, 202.4949
1247.090, 201.7441
1247.572, 200.9051
1248.054, 200.3374
1248.536, 199.8343
1249.019, 198.7878
1249.501, 197.5876
1249.983, 197.8309
1250.465, 199.4891
1250.947, 200.5637
1251.429, 199.4221
1251.911, 198.6878
1252.393, 199.0007
1252.875, 199.7511
1253.358, 200.0205
1253.840, 200.1347
1254.322, 201.4209
1254.804, 203.6542
1255.286, 203.9592
1255.768, 199.9127
1256.250, 196.6254
1256.732, 194.8398
1257.214, 194.1371
1257.697, 194.4607
1258.179, 195.2798
1258.661, 195.7410
1259.143, 195.8522
1259.625, 196.0662
1260.107, 196.4921
1260.589, 196.9359
1261.071, 197.4228
1261.554, 197.7023
1262.036, 197.4546
1262.518, 196.8855
1263.000, 195.9874
1263.482, 194.9501
1263.964, 194.6380
1264.446, 195.3445
1264.928, 195.4248
1265.411, 194.5707
1265.893, 193.8931
1266.375, 194.8002
1266.857, 195.9482
1267.339, 196.1955
1267.821, 195.7005
1268.303, 195.1634
1268.785, 194.5831
1269.267, 193.8073
1269.750, 192.8034
1270.232, 192.2627
1270.714, 193.3764
1271.196, 194.4213
1271.678, 194.0092
1272.160, 192.9281
1272.642, 192.4583
1273.124, 192.5423
1273.606, 192.1483
1274.089, 191.2469
1274.571, 190.7790
1275.053, 192.0085
1275.535, 192.8835
1276.017, 192.3690
1276.499, 191.4523
1276.981, 191.7350
1277.463, 192.7358
1277.946, 192.1255
1278.428, 190.1117
1278.910, 189.1712
1279.392, 191.9259
1279.874, 193.6466
1280.356, 193.2470
1280.838, 192.1195
1281.320, 191.6549
1281.802, 191.6468
1282.285, 191.9106
1282.767, 192.2709
1283.249, 192.0327
1283.731, 190.6004
1284.213, 189.3109
1284.695, 188.1937
1285.177, 187.5101
1285.659, 187.8685
1286.141, 188.5225
1286.624, 188.4169
1287.106, 187.8284
1287.588, 187.6307
1288.070, 187.9944
1288.552, 188.3189
1289.034, 188.5888
1289.516, 188.6447
1289.998, 188.1883
1290.481, 187.6429
1290.963, 187.2235
1291.445, 187.0172
1291.927, 187.2267
1292.409, 187.9082
1292.891, 187.7902
1293.373, 186.9126
1293.855, 186.2821
1294.338, 186.5786
1294.820, 187.1767
1295.302, 188.1288
1295.784, 188.9507
1296.266, 189.1470
1296.748, 188.8052
1297.230, 188.3507
1297.712, 187.8809
1298.194, 187.7568
1298.677, 188.9384
1299.159, 189.0490
1299.641, 187.0878
1300.123, 185.3658
1300.605, 186.0004
1301.087, 187.9336
1301.569, 188.5738
1302.051, 188.4139
1302.533, 188.6228
1303.016, 189.3184
##END=



