##NAMES=Tephroite
##RRUFFID=R070511
##IDEAL CHEMISTRY=Mn^2+^_2_SiO_4_
##LOCALITY=Langban, Filipstad, Varmland, Sweden
##OWNER=RRUFF
##SOURCE=Michael Scott
##DESCRIPTION=Light gray vitreous massive
##STATUS=The identification of this mineral is confirmed by single-crystal X-ray diffraction and chemical analysis.
##URL=rruff.info/R070511
##MEASURED CHEMISTRY=(Mn^2+^_1.47_Mg_0.49_Ca_0.04_)_Î£=2_Si_1.00_O_4_
150.8870, 2175.915
151.3692, 2215.658
151.8513, 2249.995
152.3334, 2274.528
152.8155, 2295.607
153.2976, 2318.565
153.7797, 2346.108
154.2619, 2372.684
154.7440, 2398.135
155.2261, 2422.622
155.7082, 2443.871
156.1903, 2459.531
156.6724, 2472.548
157.1546, 2485.973
157.6367, 2498.314
158.1188, 2512.984
158.6009, 2531.644
159.0830, 2556.068
159.5652, 2580.376
160.0473, 2603.838
160.5294, 2626.299
161.0115, 2647.084
161.4936, 2661.498
161.9757, 2677.415
162.4579, 2700.354
162.9400, 2738.245
163.4221, 2771.521
163.9042, 2791.778
164.3863, 2800.922
164.8684, 2805.346
165.3506, 2805.484
165.8327, 2803.195
166.3148, 2799.901
166.7969, 2795.008
167.2790, 2790.204
167.7611, 2788.617
168.2433, 2789.398
168.7254, 2785.407
169.2075, 2766.130
169.6896, 2741.637
170.1717, 2723.852
170.6538, 2722.133
171.1360, 2725.573
171.6181, 2724.719
172.1002, 2719.194
172.5823, 2716.853
173.0644, 2727.724
173.5465, 2745.503
174.0287, 2759.083
174.5108, 2756.310
174.9929, 2750.014
175.4750, 2756.794
175.9571, 2779.898
176.4392, 2803.516
176.9214, 2810.464
177.4035, 2805.290
177.8856, 2800.704
178.3677, 2806.465
178.8498, 2816.468
179.3319, 2820.676
179.8141, 2816.710
180.2962, 2809.799
180.7783, 2803.854
181.2604, 2799.539
181.7425, 2799.741
182.2246, 2809.344
182.7068, 2824.878
183.1889, 2839.122
183.6710, 2851.892
184.1531, 2861.021
184.6352, 2857.867
185.1173, 2843.313
185.5995, 2834.003
186.0816, 2850.999
186.5637, 2886.130
187.0458, 2908.279
187.5279, 2903.199
188.0100, 2884.716
188.4922, 2886.858
188.9743, 2910.825
189.4564, 2937.977
189.9385, 2949.996
190.4206, 2948.532
190.9027, 2946.152
191.3849, 2945.739
191.8670, 2947.346
192.3491, 2951.591
192.8312, 2958.838
193.3133, 2967.133
193.7955, 2975.872
194.2776, 2984.959
194.7597, 2989.362
195.2418, 2982.594
195.7239, 2967.260
196.2060, 2965.213
196.6882, 2978.328
197.1703, 3000.195
197.6524, 3025.226
198.1345, 3053.795
198.6166, 3075.750
199.0987, 3083.036
199.5809, 3075.632
200.0630, 3074.442
200.5451, 3081.666
201.0272, 3092.147
201.5093, 3096.743
201.9914, 3094.827
202.4736, 3089.952
202.9557, 3080.600
203.4378, 3065.455
203.9199, 3063.167
204.4020, 3078.781
204.8841, 3104.218
205.3663, 3119.089
205.8484, 3121.469
206.3305, 3119.876
206.8126, 3118.569
207.2947, 3117.391
207.7768, 3116.927
208.2590, 3115.615
208.7411, 3115.614
209.2232, 3127.748
209.7053, 3158.773
210.1874, 3185.857
210.6695, 3190.375
211.1517, 3165.183
211.6338, 3148.358
212.1159, 3147.053
212.5980, 3158.338
213.0801, 3164.439
213.5622, 3162.950
214.0444, 3160.711
214.5265, 3162.952
215.0086, 3170.108
215.4907, 3180.946
215.9728, 3198.017
216.4549, 3220.203
216.9371, 3231.648
217.4192, 3228.731
217.9013, 3220.246
218.3834, 3213.040
218.8655, 3205.030
219.3476, 3204.379
219.8298, 3216.011
220.3119, 3240.015
220.7940, 3253.381
221.2761, 3250.412
221.7582, 3243.347
222.2403, 3247.250
222.7225, 3269.565
223.2046, 3285.252
223.6867, 3285.171
224.1688, 3266.962
224.6509, 3260.708
225.1330, 3270.769
225.6152, 3288.644
226.0973, 3303.304
226.5794, 3312.609
227.0615, 3322.724
227.5436, 3335.241
228.0257, 3350.622
228.5079, 3366.938
228.9900, 3387.416
229.4721, 3406.550
229.9542, 3414.899
230.4363, 3404.335
230.9185, 3397.874
231.4006, 3403.924
231.8827, 3426.540
232.3648, 3444.829
232.8469, 3459.503
233.3290, 3469.574
233.8112, 3471.832
234.2933, 3458.115
234.7754, 3450.282
235.2575, 3457.633
235.7396, 3487.112
236.2217, 3508.775
236.7039, 3518.210
237.1860, 3522.011
237.6681, 3533.809
238.1502, 3557.846
238.6323, 3583.157
239.1144, 3606.034
239.5966, 3625.006
240.0787, 3645.098
240.5608, 3666.323
241.0429, 3688.663
241.5250, 3713.524
242.0071, 3748.254
242.4893, 3774.393
242.9714, 3782.060
243.4535, 3759.777
243.9356, 3746.315
244.4177, 3743.986
244.8998, 3749.900
245.3820, 3756.865
245.8641, 3765.831
246.3462, 3774.480
246.8283, 3782.939
247.3104, 3795.990
247.7925, 3796.471
248.2747, 3777.386
248.7568, 3747.100
249.2389, 3731.073
249.7210, 3740.555
250.2031, 3747.261
250.6852, 3735.208
251.1674, 3691.181
251.6495, 3660.744
252.1316, 3649.773
252.6137, 3652.561
253.0958, 3651.594
253.5779, 3645.662
254.0601, 3637.819
254.5422, 3629.896
255.0243, 3623.020
255.5064, 3612.502
255.9885, 3593.973
256.4706, 3572.380
256.9528, 3565.177
257.4349, 3579.540
257.9170, 3596.466
258.3991, 3606.573
258.8812, 3609.288
259.3633, 3605.807
259.8455, 3593.008
260.3276, 3574.586
260.8097, 3563.855
261.2918, 3562.619
261.7739, 3565.588
262.2560, 3571.157
262.7382, 3582.193
263.2203, 3586.220
263.7024, 3578.274
264.1845, 3563.865
264.6666, 3564.155
265.1487, 3586.373
265.6309, 3608.331
266.1130, 3615.013
266.5951, 3600.723
267.0772, 3592.065
267.5593, 3591.922
268.0414, 3598.253
268.5236, 3604.389
269.0057, 3610.310
269.4878, 3616.208
269.9699, 3621.806
270.4520, 3626.465
270.9341, 3634.487
271.4163, 3648.884
271.8984, 3665.580
272.3805, 3669.544
272.8626, 3655.963
273.3447, 3643.976
273.8268, 3649.713
274.3090, 3677.868
274.7911, 3689.110
275.2732, 3673.690
275.7553, 3643.472
276.2374, 3632.052
276.7195, 3642.623
277.2017, 3659.258
277.6838, 3673.524
278.1659, 3685.447
278.6480, 3694.643
279.1301, 3700.997
279.6122, 3704.665
280.0944, 3704.592
280.5765, 3699.661
281.0586, 3697.375
281.5407, 3706.172
282.0229, 3726.216
282.5050, 3733.604
282.9871, 3721.709
283.4692, 3701.916
283.9513, 3700.934
284.4334, 3720.344
284.9156, 3740.073
285.3977, 3746.603
285.8798, 3741.036
286.3619, 3737.994
286.8440, 3738.670
287.3261, 3742.525
287.8083, 3749.425
288.2904, 3759.396
288.7725, 3769.705
289.2546, 3779.842
289.7367, 3789.287
290.2188, 3795.426
290.7010, 3797.794
291.1831, 3797.338
291.6652, 3794.297
292.1473, 3788.901
292.6294, 3784.753
293.1115, 3783.459
293.5937, 3784.960
294.0758, 3788.944
294.5579, 3795.308
295.0400, 3804.527
295.5221, 3819.156
296.0042, 3838.318
296.4864, 3855.958
296.9685, 3873.653
297.4506, 3887.324
297.9327, 3883.324
298.4148, 3857.422
298.8969, 3828.537
299.3791, 3824.825
299.8612, 3839.170
300.3433, 3847.172
300.8254, 3821.792
301.3075, 3785.938
301.7896, 3783.207
302.2718, 3820.192
302.7539, 3862.368
303.2360, 3871.388
303.7181, 3858.525
304.2002, 3851.216
304.6823, 3870.579
305.1645, 3898.904
305.6466, 3914.019
306.1287, 3914.263
306.6108, 3910.872
307.0929, 3911.995
307.5750, 3916.094
308.0572, 3920.388
308.5393, 3922.059
309.0214, 3924.350
309.5035, 3931.834
309.9856, 3944.799
310.4677, 3955.401
310.9499, 3957.943
311.4320, 3955.066
311.9141, 3950.568
312.3962, 3941.192
312.8783, 3934.194
313.3604, 3935.390
313.8426, 3944.578
314.3247, 3955.083
314.8068, 3966.386
315.2889, 3975.943
315.7710, 3981.224
316.2531, 3974.241
316.7353, 3969.279
317.2174, 3976.538
317.6995, 3994.418
318.1816, 4006.249
318.6637, 3998.808
319.1458, 3986.017
319.6280, 3979.057
320.1101, 3985.420
320.5922, 3993.233
321.0743, 3999.522
321.5564, 4004.511
322.0385, 4009.514
322.5207, 4013.083
323.0028, 4017.923
323.4849, 4025.747
323.9670, 4043.390
324.4491, 4056.245
324.9312, 4061.143
325.4134, 4059.326
325.8955, 4055.479
326.3776, 4048.316
326.8597, 4040.618
327.3418, 4033.289
327.8239, 4019.996
328.3061, 4016.332
328.7882, 4033.360
329.2703, 4060.596
329.7524, 4070.683
330.2345, 4042.560
330.7166, 4017.930
331.1988, 4013.658
331.6809, 4043.743
332.1630, 4061.856
332.6451, 4062.451
333.1272, 4053.049
333.6093, 4048.043
334.0915, 4052.180
334.5736, 4053.078
335.0557, 4043.999
335.5378, 4019.932
336.0199, 4011.062
336.5020, 4023.762
336.9842, 4045.398
337.4663, 4059.449
337.9484, 4065.650
338.4305, 4064.621
338.9126, 4053.910
339.3947, 4033.460
339.8769, 4019.447
340.3590, 4011.886
340.8411, 4010.467
341.3232, 4015.011
341.8053, 4025.590
342.2874, 4042.051
342.7696, 4067.828
343.2517, 4099.684
343.7338, 4118.366
344.2159, 4123.262
344.6980, 4119.865
345.1801, 4106.660
345.6623, 4085.242
346.1444, 4079.897
346.6265, 4103.372
347.1086, 4139.249
347.5907, 4144.623
348.0728, 4119.583
348.5550, 4094.904
349.0371, 4097.979
349.5192, 4120.755
350.0013, 4137.886
350.4834, 4145.265
350.9655, 4144.790
351.4477, 4134.732
351.9298, 4117.196
352.4119, 4103.298
352.8940, 4098.562
353.3762, 4102.134
353.8583, 4115.355
354.3404, 4141.040
354.8225, 4165.996
355.3046, 4176.765
355.7867, 4176.918
356.2689, 4175.031
356.7510, 4172.100
357.2331, 4170.987
357.7152, 4175.365
358.1973, 4186.003
358.6794, 4196.958
359.1616, 4208.222
359.6437, 4216.597
360.1258, 4217.603
360.6079, 4198.000
361.0900, 4180.053
361.5721, 4176.829
362.0543, 4188.550
362.5364, 4203.253
363.0185, 4223.970
363.5006, 4241.856
363.9827, 4248.800
364.4648, 4230.832
364.9470, 4214.157
365.4291, 4203.776
365.9112, 4200.030
366.3933, 4203.816
366.8754, 4221.087
367.3575, 4242.133
367.8397, 4261.401
368.3218, 4289.958
368.8039, 4302.633
369.2860, 4283.976
369.7681, 4246.817
370.2502, 4229.415
370.7324, 4248.841
371.2145, 4271.021
371.6966, 4283.091
372.1787, 4281.016
372.6608, 4277.771
373.1429, 4265.537
373.6251, 4256.420
374.1072, 4275.211
374.5893, 4343.696
375.0714, 4395.901
375.5535, 4404.716
376.0356, 4366.254
376.5178, 4344.253
376.9999, 4340.349
377.4820, 4350.489
377.9641, 4375.611
378.4462, 4419.916
378.9283, 4451.144
379.4105, 4455.208
379.8926, 4440.178
380.3747, 4446.466
380.8568, 4477.317
381.3389, 4509.678
381.8210, 4520.981
382.3032, 4514.087
382.7853, 4514.044
383.2674, 4527.118
383.7495, 4546.927
384.2316, 4560.889
384.7137, 4569.744
385.1959, 4578.833
385.6780, 4590.028
386.1601, 4604.191
386.6422, 4625.097
387.1243, 4655.988
387.6064, 4684.399
388.0886, 4695.901
388.5707, 4694.705
389.0528, 4691.384
389.5349, 4685.596
390.0170, 4683.454
390.4991, 4693.723
390.9813, 4717.699
391.4634, 4740.602
391.9455, 4750.237
392.4276, 4753.897
392.9097, 4760.849
393.3918, 4781.221
393.8740, 4799.463
394.3561, 4803.909
394.8382, 4796.599
395.3203, 4797.497
395.8024, 4821.771
396.2845, 4852.043
396.7667, 4876.476
397.2488, 4891.344
397.7309, 4902.176
398.2130, 4907.263
398.6951, 4908.492
399.1772, 4911.825
399.6594, 4916.560
400.1415, 4924.654
400.6236, 4938.313
401.1057, 4964.542
401.5878, 4979.254
402.0699, 4975.432
402.5521, 4963.511
403.0342, 4959.429
403.5163, 4969.512
403.9984, 4975.833
404.4805, 4970.837
404.9626, 4954.188
405.4448, 4951.663
405.9269, 4969.361
406.4090, 4989.987
406.8911, 4997.625
407.3732, 4991.420
407.8553, 4976.875
408.3375, 4952.740
408.8196, 4922.360
409.3017, 4893.531
409.7838, 4865.573
410.2659, 4846.822
410.7480, 4849.458
411.2302, 4868.520
411.7123, 4878.439
412.1944, 4874.980
412.6765, 4865.688
413.1586, 4862.272
413.6407, 4862.589
414.1229, 4857.428
414.6050, 4836.718
415.0871, 4809.542
415.5692, 4790.889
416.0513, 4781.381
416.5334, 4773.104
417.0156, 4758.397
417.4977, 4740.995
417.9798, 4726.671
418.4619, 4717.206
418.9440, 4711.572
419.4261, 4712.125
419.9083, 4717.343
420.3904, 4718.296
420.8725, 4708.779
421.3546, 4694.859
421.8367, 4679.226
422.3188, 4651.932
422.8010, 4640.993
423.2831, 4666.571
423.7652, 4712.617
424.2473, 4745.131
424.7295, 4753.058
425.2116, 4752.860
425.6937, 4749.333
426.1758, 4742.797
426.6579, 4731.979
427.1400, 4711.776
427.6222, 4690.609
428.1043, 4675.989
428.5864, 4665.997
429.0685, 4667.157
429.5506, 4685.473
430.0327, 4717.391
430.5149, 4737.553
430.9970, 4745.000
431.4791, 4742.490
431.9612, 4726.282
432.4433, 4694.610
432.9254, 4679.617
433.4076, 4687.938
433.8897, 4708.417
434.3718, 4722.751
434.8539, 4730.959
435.3360, 4733.590
435.8181, 4726.377
436.3003, 4713.951
436.7824, 4710.938
437.2645, 4718.406
437.7466, 4726.424
438.2287, 4722.729
438.7108, 4712.316
439.1930, 4706.068
439.6751, 4707.163
440.1572, 4714.558
440.6393, 4735.742
441.1214, 4765.997
441.6035, 4782.029
442.0857, 4750.934
442.5678, 4710.836
443.0499, 4694.603
443.5320, 4715.299
444.0141, 4743.219
444.4962, 4777.145
444.9784, 4809.072
445.4605, 4825.591
445.9426, 4807.070
446.4247, 4787.708
446.9068, 4780.567
447.3889, 4788.676
447.8711, 4790.775
448.3532, 4777.332
448.8353, 4762.878
449.3174, 4758.171
449.7995, 4767.805
450.2816, 4780.303
450.7638, 4799.429
451.2459, 4820.491
451.7280, 4820.866
452.2101, 4789.730
452.6922, 4763.782
453.1743, 4767.173
453.6565, 4804.438
454.1386, 4821.597
454.6207, 4812.743
455.1028, 4795.421
455.5849, 4794.189
456.0670, 4808.274
456.5492, 4825.527
457.0313, 4846.067
457.5134, 4864.897
457.9955, 4867.753
458.4776, 4855.038
458.9597, 4837.092
459.4419, 4812.620
459.9240, 4790.556
460.4061, 4788.777
460.8882, 4817.942
461.3703, 4851.698
461.8524, 4866.930
462.3346, 4869.164
462.8167, 4870.848
463.2988, 4878.389
463.7809, 4886.901
464.2630, 4894.479
464.7451, 4901.242
465.2273, 4903.371
465.7094, 4893.567
466.1915, 4881.404
466.6736, 4875.390
467.1557, 4881.270
467.6378, 4888.754
468.1200, 4899.611
468.6021, 4911.876
469.0842, 4915.728
469.5663, 4900.968
470.0484, 4889.778
470.5305, 4894.102
471.0127, 4923.248
471.4948, 4934.820
471.9769, 4921.604
472.4590, 4899.954
472.9411, 4893.564
473.4232, 4904.905
473.9054, 4915.277
474.3875, 4917.856
474.8696, 4915.799
475.3517, 4923.756
475.8338, 4942.348
476.3159, 4959.789
476.7981, 4964.727
477.2802, 4961.012
477.7623, 4960.887
478.2444, 4967.025
478.7265, 4974.300
479.2086, 4975.130
479.6908, 4972.230
480.1729, 4972.413
480.6550, 4981.711
481.1371, 4993.630
481.6192, 5003.366
482.1013, 5010.787
482.5835, 5016.047
483.0656, 5014.166
483.5477, 5012.799
484.0298, 5019.031
484.5119, 5048.968
484.9940, 5067.108
485.4762, 5052.727
485.9583, 5020.548
486.4404, 5008.495
486.9225, 5042.792
487.4046, 5075.480
487.8867, 5092.676
488.3689, 5091.525
488.8510, 5091.760
489.3331, 5092.901
489.8152, 5095.988
490.2973, 5101.770
490.7794, 5109.918
491.2616, 5123.584
491.7437, 5147.485
492.2258, 5173.935
492.7079, 5175.297
493.1900, 5149.979
493.6722, 5131.067
494.1543, 5145.158
494.6364, 5181.797
495.1185, 5204.986
495.6006, 5211.813
496.0828, 5213.332
496.5649, 5219.445
497.0470, 5228.377
497.5291, 5236.458
498.0112, 5243.954
498.4933, 5248.655
498.9755, 5245.813
499.4576, 5237.725
499.9397, 5233.285
500.4218, 5239.127
500.9039, 5248.197
501.3860, 5258.126
501.8682, 5271.903
502.3503, 5275.116
502.8324, 5246.588
503.3145, 5212.403
503.7966, 5204.061
504.2787, 5255.142
504.7609, 5292.899
505.2430, 5303.086
505.7251, 5289.922
506.2072, 5281.840
506.6893, 5279.128
507.1714, 5281.159
507.6536, 5288.342
508.1357, 5301.180
508.6178, 5315.252
509.0999, 5331.209
509.5820, 5346.448
510.0641, 5357.092
510.5463, 5363.406
511.0284, 5367.950
511.5105, 5369.802
511.9926, 5371.820
512.4747, 5380.914
512.9568, 5396.292
513.4390, 5411.345
513.9211, 5423.769
514.4032, 5432.313
514.8853, 5433.596
515.3674, 5425.050
515.8495, 5418.375
516.3317, 5422.470
516.8138, 5432.340
517.2959, 5441.080
517.7780, 5456.062
518.2601, 5460.005
518.7422, 5435.329
519.2244, 5386.829
519.7065, 5362.674
520.1886, 5398.161
520.6707, 5433.338
521.1528, 5440.208
521.6349, 5403.325
522.1171, 5378.026
522.5992, 5367.204
523.0813, 5365.134
523.5634, 5365.731
524.0455, 5370.463
524.5276, 5369.512
525.0098, 5358.098
525.4919, 5340.207
525.9740, 5327.825
526.4561, 5320.918
526.9382, 5319.777
527.4203, 5330.457
527.9025, 5346.350
528.3846, 5348.895
528.8667, 5334.269
529.3488, 5320.118
529.8309, 5328.955
530.3130, 5348.436
530.7952, 5358.619
531.2773, 5340.201
531.7594, 5320.868
532.2415, 5318.294
532.7236, 5328.510
533.2057, 5334.503
533.6879, 5318.255
534.1700, 5306.620
534.6521, 5315.894
535.1342, 5359.668
535.6163, 5389.339
536.0984, 5398.489
536.5806, 5396.891
537.0627, 5394.233
537.5448, 5390.730
538.0269, 5385.160
538.5090, 5375.917
538.9911, 5365.127
539.4733, 5360.181
539.9554, 5361.363
540.4375, 5366.055
540.9196, 5377.480
541.4017, 5392.313
541.8839, 5392.020
542.3660, 5374.977
542.8481, 5355.310
543.3302, 5341.406
543.8123, 5335.050
544.2944, 5341.510
544.7766, 5371.543
545.2587, 5399.647
545.7408, 5399.106
546.2229, 5380.417
546.7050, 5369.557
547.1871, 5381.906
547.6693, 5400.430
548.1514, 5419.573
548.6335, 5439.573
549.1156, 5452.165
549.5977, 5445.964
550.0798, 5438.832
550.5620, 5443.591
551.0441, 5470.378
551.5262, 5488.849
552.0083, 5495.142
552.4904, 5494.438
552.9725, 5496.600
553.4547, 5502.068
553.9368, 5508.366
554.4189, 5516.191
554.9010, 5523.923
555.3831, 5521.755
555.8652, 5509.418
556.3474, 5501.026
556.8295, 5514.694
557.3116, 5539.185
557.7937, 5548.714
558.2758, 5536.385
558.7579, 5523.938
559.2401, 5531.177
559.7222, 5550.213
560.2043, 5568.856
560.6864, 5586.337
561.1685, 5598.837
561.6506, 5601.074
562.1328, 5595.373
562.6149, 5594.157
563.0970, 5600.283
563.5791, 5611.081
564.0612, 5627.677
564.5433, 5654.937
565.0255, 5668.707
565.5076, 5664.242
565.9897, 5651.755
566.4718, 5637.867
566.9539, 5620.104
567.4360, 5619.451
567.9182, 5644.794
568.4003, 5681.877
568.8824, 5699.130
569.3645, 5697.834
569.8466, 5695.529
570.3287, 5699.272
570.8109, 5708.597
571.2930, 5726.443
571.7751, 5752.340
572.2572, 5772.901
572.7393, 5773.062
573.2214, 5766.200
573.7036, 5766.354
574.1857, 5778.873
574.6678, 5792.859
575.1499, 5807.566
575.6320, 5820.383
576.1141, 5827.647
576.5963, 5815.129
577.0784, 5812.843
577.5605, 5833.974
578.0426, 5872.388
578.5247, 5887.517
579.0068, 5867.357
579.4890, 5848.227
579.9711, 5851.605
580.4532, 5879.255
580.9353, 5896.057
581.4174, 5900.525
581.8995, 5900.227
582.3817, 5901.459
582.8638, 5904.607
583.3459, 5912.640
583.8280, 5930.473
584.3101, 5945.291
584.7922, 5933.732
585.2744, 5906.746
585.7565, 5892.203
586.2386, 5918.984
586.7207, 5949.135
587.2028, 5962.835
587.6849, 5959.209
588.1671, 5943.109
588.6492, 5895.798
589.1313, 5850.748
589.6134, 5830.547
590.0955, 5852.572
590.5776, 5860.338
591.0598, 5845.611
591.5419, 5824.015
592.0240, 5818.458
592.5061, 5833.647
592.9882, 5839.609
593.4703, 5824.588
593.9525, 5801.422
594.4346, 5808.436
594.9167, 5843.095
595.3988, 5869.792
595.8809, 5860.871
596.3630, 5833.617
596.8452, 5813.773
597.3273, 5802.664
597.8094, 5798.262
598.2915, 5801.517
598.7736, 5809.764
599.2557, 5820.958
599.7379, 5836.419
600.2200, 5850.908
600.7021, 5867.837
601.1843, 5881.641
601.6664, 5882.715
602.1485, 5851.177
602.6306, 5834.858
603.1127, 5848.430
603.5948, 5884.250
604.0770, 5902.690
604.5591, 5899.911
605.0412, 5891.907
605.5233, 5884.328
606.0054, 5877.745
606.4875, 5879.797
606.9697, 5891.165
607.4518, 5904.203
607.9339, 5908.765
608.4160, 5910.019
608.8981, 5919.941
609.3802, 5945.171
609.8624, 5968.620
610.3445, 5978.770
610.8266, 5978.292
611.3087, 5971.872
611.7908, 5952.052
612.2729, 5935.709
612.7551, 5931.496
613.2372, 5937.528
613.7193, 5939.042
614.2014, 5928.441
614.6835, 5922.006
615.1656, 5926.305
615.6478, 5941.917
616.1299, 5965.766
616.6120, 6003.816
617.0941, 6034.137
617.5762, 6029.892
618.0583, 5995.642
618.5405, 5969.333
619.0226, 5956.312
619.5047, 5953.881
619.9868, 5961.768
620.4689, 5977.631
620.9510, 5995.949
621.4332, 6023.944
621.9153, 6045.162
622.3974, 6041.620
622.8795, 6020.026
623.3616, 6008.303
623.8438, 6021.773
624.3259, 6041.922
624.8080, 6063.493
625.2901, 6088.486
625.7722, 6099.799
626.2543, 6092.168
626.7365, 6077.395
627.2186, 6062.646
627.7007, 6047.054
628.1828, 6037.089
628.6649, 6033.461
629.1470, 6035.166
629.6292, 6045.372
630.1113, 6061.369
630.5934, 6068.294
631.0755, 6055.251
631.5576, 6038.125
632.0397, 6035.703
632.5219, 6045.509
633.0040, 6060.014
633.4861, 6085.860
633.9682, 6106.405
634.4503, 6107.591
634.9324, 6088.221
635.4146, 6076.051
635.8967, 6083.208
636.3788, 6093.877
636.8609, 6099.782
637.3430, 6099.545
637.8251, 6097.185
638.3073, 6089.370
638.7894, 6084.518
639.2715, 6098.074
639.7536, 6130.235
640.2357, 6149.234
640.7178, 6146.354
641.2000, 6132.118
641.6821, 6119.384
642.1642, 6108.843
642.6463, 6103.129
643.1284, 6104.342
643.6105, 6110.201
644.0927, 6121.760
644.5748, 6137.536
645.0569, 6149.083
645.5390, 6156.584
646.0211, 6156.183
646.5032, 6141.274
646.9854, 6101.888
647.4675, 6086.802
647.9496, 6113.813
648.4317, 6144.975
648.9138, 6144.848
649.3959, 6104.449
649.8781, 6088.534
650.3602, 6107.760
650.8423, 6141.748
651.3244, 6163.224
651.8065, 6173.285
652.2886, 6177.827
652.7708, 6176.516
653.2529, 6173.456
653.7350, 6171.011
654.2171, 6170.352
654.6992, 6174.995
655.1813, 6198.444
655.6635, 6217.221
656.1456, 6216.877
656.6277, 6196.812
657.1098, 6176.063
657.5919, 6148.321
658.0740, 6128.791
658.5562, 6127.472
659.0383, 6150.600
659.5204, 6162.987
660.0025, 6160.944
660.4846, 6157.044
660.9667, 6168.548
661.4489, 6192.902
661.9310, 6204.755
662.4131, 6197.036
662.8952, 6183.631
663.3773, 6177.707
663.8594, 6179.563
664.3416, 6189.992
664.8237, 6229.786
665.3058, 6258.838
665.7879, 6243.779
666.2700, 6197.945
666.7521, 6166.646
667.2343, 6171.827
667.7164, 6182.640
668.1985, 6189.784
668.6806, 6193.223
669.1627, 6197.586
669.6448, 6202.568
670.1270, 6209.173
670.6091, 6220.243
671.0912, 6235.249
671.5733, 6240.200
672.0554, 6233.232
672.5375, 6227.630
673.0197, 6245.485
673.5018, 6272.556
673.9839, 6277.916
674.4660, 6243.946
674.9481, 6215.416
675.4302, 6230.065
675.9124, 6265.809
676.3945, 6290.567
676.8766, 6293.051
677.3587, 6286.972
677.8408, 6264.416
678.3229, 6235.762
678.8051, 6232.395
679.2872, 6263.377
679.7693, 6297.861
680.2514, 6329.936
680.7335, 6356.823
681.2156, 6360.479
681.6978, 6340.694
682.1799, 6311.973
682.6620, 6270.110
683.1441, 6231.069
683.6262, 6225.589
684.1083, 6255.905
684.5905, 6292.049
685.0726, 6324.708
685.5547, 6348.547
686.0368, 6356.709
686.5189, 6338.521
687.0010, 6325.896
687.4832, 6330.534
687.9653, 6338.806
688.4474, 6334.830
688.9295, 6308.994
689.4116, 6301.709
689.8937, 6326.677
690.3759, 6361.042
690.8580, 6354.710
691.3401, 6311.520
691.8222, 6276.132
692.3043, 6265.594
692.7864, 6270.687
693.2686, 6285.196
693.7507, 6305.607
694.2328, 6318.868
694.7149, 6311.137
695.1970, 6300.992
695.6791, 6299.394
696.1613, 6306.797
696.6434, 6314.025
697.1255, 6323.313
697.6076, 6328.544
698.0897, 6324.866
698.5718, 6309.633
699.0540, 6306.118
699.5361, 6318.150
700.0182, 6330.278
700.5003, 6325.399
700.9824, 6307.316
701.4645, 6292.860
701.9467, 6283.354
702.4288, 6282.468
702.9109, 6301.027
703.3930, 6328.562
703.8751, 6349.594
704.3572, 6358.865
704.8394, 6361.793
705.3215, 6353.957
705.8036, 6342.208
706.2857, 6340.255
706.7678, 6358.740
707.2499, 6370.691
707.7321, 6368.922
708.2142, 6358.246
708.6963, 6355.436
709.1784, 6361.188
709.6605, 6367.889
710.1426, 6374.306
710.6248, 6378.365
711.1069, 6372.182
711.5890, 6357.340
712.0711, 6344.806
712.5532, 6341.483
713.0353, 6343.695
713.5175, 6351.050
713.9996, 6363.931
714.4817, 6371.117
714.9638, 6366.211
715.4459, 6357.157
715.9280, 6346.881
716.4102, 6330.452
716.8923, 6331.715
717.3744, 6358.222
717.8565, 6388.234
718.3386, 6399.542
718.8207, 6393.581
719.3029, 6386.501
719.7850, 6380.529
720.2671, 6374.154
720.7492, 6361.220
721.2313, 6347.552
721.7134, 6344.009
722.1956, 6359.034
722.6777, 6377.500
723.1598, 6398.156
723.6419, 6416.718
724.1240, 6424.704
724.6061, 6408.164
725.0883, 6398.686
725.5704, 6405.246
726.0525, 6421.390
726.5346, 6423.185
727.0167, 6408.148
727.4988, 6398.490
727.9810, 6408.745
728.4631, 6428.316
728.9452, 6427.354
729.4273, 6409.479
729.9094, 6397.979
730.3915, 6420.047
730.8737, 6445.038
731.3558, 6441.814
731.8379, 6408.652
732.3200, 6391.068
732.8021, 6418.852
733.2842, 6451.153
733.7664, 6467.145
734.2485, 6463.996
734.7306, 6459.212
735.2127, 6452.454
735.6948, 6444.857
736.1769, 6434.900
736.6591, 6423.907
737.1412, 6423.468
737.6233, 6435.894
738.1054, 6449.586
738.5875, 6453.661
739.0696, 6451.595
739.5518, 6447.513
740.0339, 6439.305
740.5161, 6435.981
740.9982, 6442.372
741.4803, 6455.146
741.9624, 6470.246
742.4445, 6493.777
742.9266, 6507.138
743.4088, 6503.582
743.8909, 6493.410
744.3730, 6497.874
744.8551, 6517.055
745.3372, 6537.785
745.8193, 6558.911
746.3015, 6575.805
746.7836, 6579.170
747.2657, 6572.042
747.7478, 6563.544
748.2299, 6557.608
748.7120, 6552.008
749.1942, 6542.701
749.6763, 6531.629
750.1584, 6529.886
750.6405, 6546.678
751.1226, 6562.550
751.6047, 6571.079
752.0869, 6573.066
752.5690, 6577.836
753.0511, 6585.713
753.5332, 6593.600
754.0153, 6605.249
754.4974, 6614.267
754.9796, 6596.231
755.4617, 6553.156
755.9438, 6524.566
756.4259, 6557.218
756.9080, 6600.829
757.3901, 6611.111
757.8723, 6575.607
758.3544, 6553.516
758.8365, 6568.375
759.3186, 6587.018
759.8007, 6587.660
760.2828, 6562.471
760.7650, 6556.616
761.2471, 6573.949
761.7292, 6597.663
762.2113, 6612.637
762.6934, 6619.764
763.1755, 6618.266
763.6577, 6605.249
764.1398, 6598.434
764.6219, 6622.072
765.1040, 6655.593
765.5861, 6674.302
766.0682, 6660.926
766.5504, 6650.840
767.0325, 6652.505
767.5146, 6658.820
767.9967, 6660.697
768.4788, 6655.126
768.9609, 6658.371
769.4431, 6676.146
769.9252, 6697.263
770.4073, 6700.573
770.8894, 6690.066
771.3715, 6683.006
771.8536, 6688.065
772.3358, 6693.894
772.8179, 6688.552
773.3000, 6677.107
773.7821, 6669.579
774.2642, 6662.429
774.7463, 6667.828
775.2285, 6700.158
775.7106, 6744.967
776.1927, 6762.017
776.6748, 6744.301
777.1569, 6723.898
777.6390, 6707.817
778.1212, 6698.001
778.6033, 6701.500
779.0854, 6716.833
779.5675, 6735.705
780.0496, 6759.095
780.5317, 6779.794
781.0139, 6792.247
781.4960, 6796.858
781.9781, 6796.136
782.4602, 6773.837
782.9423, 6764.565
783.4244, 6783.841
783.9066, 6828.799
784.3887, 6868.336
784.8708, 6903.855
785.3529, 6927.108
785.8350, 6924.330
786.3171, 6906.232
786.7993, 6913.542
787.2814, 6944.347
787.7635, 6975.685
788.2456, 6992.936
788.7277, 7003.975
789.2098, 7014.219
789.6920, 7024.214
790.1741, 7035.149
790.6562, 7045.700
791.1383, 7058.721
791.6204, 7073.984
792.1025, 7090.469
792.5847, 7122.118
793.0668, 7171.079
793.5489, 7224.703
794.0310, 7268.959
794.5131, 7310.060
794.9952, 7363.524
795.4774, 7430.793
795.9595, 7511.141
796.4416, 7603.420
796.9237, 7709.190
797.4058, 7832.986
797.8879, 7985.933
798.3701, 8120.620
798.8522, 8211.504
799.3343, 8306.392
799.8164, 8443.493
800.2985, 8631.455
800.7806, 8790.631
801.2628, 8916.639
801.7449, 9034.579
802.2270, 9165.586
802.7091, 9306.882
803.1912, 9455.776
803.6733, 9612.112
804.1555, 9768.961
804.6376, 9936.596
805.1197, 10094.42
805.6018, 10223.21
806.0839, 10308.75
806.5660, 10385.37
807.0482, 10456.90
807.5303, 10514.63
808.0124, 10557.96
808.4945, 10586.92
808.9766, 10558.50
809.4587, 10463.70
809.9409, 10331.11
810.4230, 10184.18
810.9051, 10021.78
811.3872, 9838.703
811.8693, 9624.278
812.3514, 9415.155
812.8336, 9217.109
813.3157, 9036.651
813.7978, 8883.699
814.2799, 8767.154
814.7620, 8653.138
815.2441, 8537.664
815.7263, 8431.080
816.2084, 8353.063
816.6905, 8299.075
817.1726, 8236.720
817.6547, 8155.185
818.1368, 8083.135
818.6190, 8054.164
819.1011, 8048.743
819.5832, 8039.817
820.0653, 8005.625
820.5474, 7990.963
821.0295, 8027.287
821.5117, 8074.290
821.9938, 8083.381
822.4759, 8039.380
822.9580, 8025.402
823.4401, 8053.670
823.9222, 8107.985
824.4044, 8176.275
824.8865, 8251.251
825.3686, 8310.221
825.8507, 8334.571
826.3328, 8372.471
826.8149, 8460.263
827.2971, 8578.854
827.7792, 8702.356
828.2613, 8814.896
828.7434, 8949.996
829.2255, 9109.312
829.7076, 9292.863
830.1898, 9503.252
830.6719, 9738.768
831.1540, 10009.96
831.6361, 10325.18
832.1182, 10649.96
832.6003, 10924.27
833.0825, 11182.75
833.5646, 11490.03
834.0467, 11887.85
834.5288, 12291.16
835.0109, 12686.16
835.4930, 13066.22
835.9752, 13426.88
836.4573, 13754.89
836.9394, 14088.40
837.4215, 14430.24
837.9036, 14775.19
838.3857, 15128.86
838.8679, 15483.26
839.3500, 15800.75
839.8321, 16079.14
840.3142, 16289.40
840.7963, 16410.48
841.2784, 16448.07
841.7606, 16407.38
842.2427, 16310.07
842.7248, 16097.64
843.2069, 15753.32
843.6890, 15311.37
844.1711, 14798.46
844.6533, 14207.95
845.1354, 13637.52
845.6175, 13100.93
846.0996, 12584.42
846.5817, 12062.63
847.0638, 11549.76
847.5460, 11075.56
848.0281, 10638.43
848.5102, 10253.62
848.9923, 9939.434
849.4744, 9675.858
849.9565, 9441.282
850.4387, 9244.267
850.9208, 9048.872
851.4029, 8848.824
851.8850, 8664.983
852.3671, 8521.479
852.8492, 8413.749
853.3314, 8330.512
853.8135, 8274.268
854.2956, 8215.700
854.7777, 8112.869
855.2598, 8005.131
855.7419, 7934.715
856.2241, 7935.617
856.7062, 7915.590
857.1883, 7858.473
857.6704, 7792.160
858.1525, 7741.390
858.6346, 7706.581
859.1168, 7660.355
859.5989, 7599.232
860.0810, 7543.167
860.5631, 7513.223
861.0452, 7500.482
861.5273, 7499.913
862.0095, 7515.959
862.4916, 7509.226
862.9737, 7434.381
863.4558, 7355.729
863.9379, 7318.153
864.4200, 7330.051
864.9022, 7341.053
865.3843, 7351.951
865.8664, 7359.301
866.3485, 7361.788
866.8306, 7358.304
867.3127, 7343.078
867.7949, 7315.864
868.2770, 7291.317
868.7591, 7278.470
869.2412, 7271.483
869.7233, 7268.743
870.2054, 7271.836
870.6876, 7262.818
871.1697, 7231.693
871.6518, 7207.780
872.1339, 7214.009
872.6160, 7244.224
873.0981, 7251.958
873.5803, 7238.329
874.0624, 7225.983
874.5445, 7239.927
875.0266, 7255.053
875.5087, 7243.664
875.9908, 7207.206
876.4730, 7181.556
876.9551, 7170.399
877.4372, 7178.472
877.9193, 7218.902
878.4014, 7281.827
878.8835, 7298.734
879.3657, 7268.563
879.8478, 7238.474
880.3299, 7235.724
880.8120, 7246.340
881.2941, 7253.959
881.7763, 7258.541
882.2584, 7260.195
882.7405, 7250.722
883.2227, 7247.404
883.7048, 7261.144
884.1869, 7284.989
884.6690, 7297.000
885.1511, 7292.964
885.6332, 7300.657
886.1154, 7335.463
886.5975, 7376.414
887.0796, 7380.227
887.5617, 7358.534
888.0438, 7343.015
888.5259, 7345.573
889.0081, 7359.305
889.4902, 7395.533
889.9723, 7437.253
890.4544, 7450.899
890.9365, 7422.750
891.4186, 7399.431
891.9008, 7385.134
892.3829, 7381.583
892.8650, 7400.999
893.3471, 7434.386
893.8292, 7449.980
894.3113, 7437.215
894.7935, 7412.453
895.2756, 7372.846
895.7577, 7334.645
896.2398, 7317.167
896.7219, 7340.058
897.2040, 7355.490
897.6862, 7362.119
898.1683, 7363.466
898.6504, 7360.396
899.1325, 7354.208
899.6146, 7358.401
900.0967, 7375.866
900.5789, 7383.855
901.0610, 7346.104
901.5431, 7300.839
902.0252, 7290.462
902.5073, 7331.894
902.9894, 7349.411
903.4716, 7320.276
903.9537, 7286.449
904.4358, 7270.399
904.9179, 7271.719
905.4000, 7277.741
905.8821, 7288.477
906.3643, 7299.870
906.8464, 7311.931
907.3285, 7321.351
907.8106, 7323.871
908.2927, 7319.813
908.7748, 7314.048
909.2570, 7303.728
909.7391, 7296.857
910.2212, 7297.236
910.7033, 7303.061
911.1854, 7303.899
911.6675, 7299.490
912.1497, 7299.469
912.6318, 7309.011
913.1139, 7324.242
913.5960, 7343.727
914.0781, 7364.788
914.5602, 7381.232
915.0424, 7397.496
915.5245, 7399.697
916.0066, 7376.981
916.4887, 7342.729
916.9708, 7320.726
917.4529, 7311.749
917.9351, 7305.946
918.4172, 7299.974
918.8993, 7300.400
919.3814, 7328.394
919.8635, 7365.297
920.3456, 7375.974
920.8278, 7331.447
921.3099, 7303.107
921.7920, 7327.215
922.2741, 7366.434
922.7562, 7390.567
923.2383, 7398.661
923.7205, 7391.417
924.2026, 7364.818
924.6847, 7346.466
925.1668, 7370.198
925.6489, 7416.908
926.1310, 7462.865
926.6132, 7505.722
927.0953, 7525.383
927.5774, 7484.852
928.0595, 7445.795
928.5416, 7443.888
929.0237, 7478.978
929.5059, 7500.907
929.9880, 7508.247
930.4701, 7513.400
930.9522, 7518.013
931.4343, 7527.882
931.9164, 7551.983
932.3986, 7590.004
932.8807, 7641.695
933.3628, 7723.943
933.8449, 7800.748
934.3270, 7853.953
934.8091, 7892.685
935.2913, 7939.092
935.7734, 7995.384
936.2555, 8045.375
936.7376, 8080.661
937.2197, 8118.100
937.7018, 8191.819
938.1840, 8286.030
938.6661, 8367.081
939.1482, 8418.905
939.6303, 8469.535
940.1124, 8535.984
940.5945, 8600.744
941.0767, 8646.203
941.5588, 8670.424
942.0409, 8689.412
942.5230, 8705.508
943.0051, 8707.596
943.4872, 8683.384
943.9694, 8638.276
944.4515, 8579.548
944.9336, 8508.204
945.4157, 8426.057
945.8978, 8320.974
946.3799, 8219.463
946.8621, 8136.054
947.3442, 8070.080
947.8263, 7999.048
948.3084, 7920.709
948.7905, 7855.624
949.2726, 7823.017
949.7548, 7805.869
950.2369, 7781.813
950.7190, 7751.879
951.2011, 7719.437
951.6832, 7671.263
952.1653, 7639.205
952.6475, 7640.216
953.1296, 7657.222
953.6117, 7652.682
954.0938, 7625.838
954.5759, 7599.177
955.0580, 7577.757
955.5402, 7558.446
956.0223, 7533.972
956.5044, 7510.453
956.9865, 7496.589
957.4686, 7494.442
957.9507, 7503.916
958.4329, 7533.596
958.9150, 7565.219
959.3971, 7587.697
959.8792, 7601.202
960.3613, 7591.222
960.8434, 7556.439
961.3256, 7520.112
961.8077, 7494.198
962.2898, 7480.276
962.7719, 7483.901
963.2540, 7504.319
963.7361, 7521.794
964.2183, 7537.825
964.7004, 7542.311
965.1825, 7527.993
965.6646, 7501.252
966.1467, 7484.314
966.6288, 7476.682
967.1110, 7473.052
967.5931, 7468.783
968.0752, 7470.922
968.5573, 7488.885
969.0394, 7516.282
969.5215, 7542.698
970.0037, 7576.470
970.4858, 7588.499
970.9679, 7567.051
971.4500, 7540.159
971.9321, 7552.959
972.4142, 7592.245
972.8964, 7598.644
973.3785, 7561.486
973.8606, 7528.502
974.3427, 7543.408
974.8248, 7568.398
975.3069, 7569.804
975.7891, 7541.454
976.2712, 7535.204
976.7533, 7560.135
977.2354, 7578.272
977.7175, 7557.269
978.1996, 7519.998
978.6818, 7535.080
979.1639, 7589.169
979.6460, 7629.006
980.1281, 7615.819
980.6102, 7596.850
981.0923, 7593.447
981.5745, 7597.347
982.0566, 7589.235
982.5387, 7564.266
983.0208, 7556.157
983.5029, 7575.611
983.9850, 7598.191
984.4672, 7585.133
984.9493, 7556.842
985.4314, 7547.187
985.9135, 7567.065
986.3956, 7590.287
986.8777, 7620.044
987.3599, 7640.313
987.8420, 7637.196
988.3241, 7610.535
988.8062, 7602.237
989.2883, 7612.437
989.7704, 7628.270
990.2526, 7642.695
990.7347, 7657.273
991.2168, 7678.118
991.6989, 7701.551
992.1810, 7711.082
992.6631, 7689.320
993.1453, 7675.227
993.6274, 7680.867
994.1095, 7692.864
994.5916, 7678.561
995.0737, 7644.597
995.5558, 7624.567
996.0380, 7629.535
996.5201, 7642.661
997.0022, 7654.628
997.4843, 7667.003
997.9664, 7683.347
998.4485, 7710.160
998.9307, 7716.618
999.4128, 7697.835
999.8949, 7673.902
1000.377, 7653.832
1000.859, 7641.658
1001.341, 7653.332
1001.823, 7685.012
1002.305, 7709.931
1002.788, 7712.818
1003.270, 7708.538
1003.752, 7695.457
1004.234, 7681.616
1004.716, 7695.311
1005.198, 7740.848
1005.680, 7760.719
1006.162, 7731.219
1006.645, 7694.069
1007.127, 7708.747
1007.609, 7746.284
1008.091, 7763.061
1008.573, 7738.368
1009.055, 7719.570
1009.537, 7712.297
1010.019, 7712.288
1010.501, 7718.546
1010.984, 7730.270
1011.466, 7740.308
1011.948, 7748.450
1012.430, 7752.888
1012.912, 7747.763
1013.394, 7742.739
1013.876, 7739.119
1014.358, 7740.935
1014.841, 7766.896
1015.323, 7837.857
1015.805, 7872.512
1016.287, 7842.492
1016.769, 7789.807
1017.251, 7789.093
1017.733, 7818.748
1018.215, 7830.625
1018.697, 7806.208
1019.180, 7783.462
1019.662, 7774.998
1020.144, 7776.580
1020.626, 7786.253
1021.108, 7804.435
1021.590, 7824.949
1022.072, 7848.270
1022.554, 7862.564
1023.037, 7846.666
1023.519, 7827.513
1024.001, 7837.554
1024.483, 7870.001
1024.965, 7897.331
1025.447, 7922.044
1025.929, 7925.687
1026.411, 7894.954
1026.893, 7855.822
1027.376, 7860.581
1027.858, 7897.318
1028.340, 7919.564
1028.822, 7916.321
1029.304, 7907.797
1029.786, 7905.277
1030.268, 7903.693
1030.750, 7897.118
1031.233, 7884.318
1031.715, 7883.646
1032.197, 7896.925
1032.679, 7910.552
1033.161, 7917.821
1033.643, 7919.704
1034.125, 7915.432
1034.607, 7906.997
1035.089, 7900.172
1035.572, 7890.422
1036.054, 7892.893
1036.536, 7918.320
1037.018, 7946.773
1037.500, 7946.246
1037.982, 7920.721
1038.464, 7897.593
1038.946, 7879.378
1039.428, 7874.511
1039.911, 7910.040
1040.393, 7945.536
1040.875, 7942.633
1041.357, 7898.904
1041.839, 7871.626
1042.321, 7864.466
1042.803, 7859.350
1043.285, 7843.336
1043.768, 7830.975
1044.250, 7862.219
1044.732, 7916.433
1045.214, 7948.008
1045.696, 7912.584
1046.178, 7892.727
1046.660, 7913.924
1047.142, 7945.068
1047.625, 7958.357
1048.107, 7954.259
1048.589, 7933.564
1049.071, 7896.294
1049.553, 7869.562
1050.035, 7884.076
1050.517, 7908.107
1050.999, 7917.669
1051.481, 7913.285
1051.964, 7915.042
1052.446, 7928.517
1052.928, 7927.611
1053.410, 7898.443
1053.892, 7865.502
1054.374, 7877.188
1054.856, 7913.352
1055.338, 7934.825
1055.820, 7925.367
1056.303, 7918.873
1056.785, 7928.543
1057.267, 7939.463
1057.749, 7941.492
1058.231, 7935.488
1058.713, 7935.841
1059.195, 7941.963
1059.677, 7946.180
1060.160, 7943.071
1060.642, 7937.093
1061.124, 7923.569
1061.606, 7910.691
1062.088, 7921.438
1062.570, 7968.322
1063.052, 7996.589
1063.534, 7997.087
1064.016, 7984.562
1064.499, 7969.688
1064.981, 7956.567
1065.463, 7952.165
1065.945, 7957.557
1066.427, 7968.245
1066.909, 7995.289
1067.391, 8011.547
1067.873, 8002.231
1068.355, 7976.511
1068.838, 7968.802
1069.320, 7976.599
1069.802, 7985.704
1070.284, 7991.866
1070.766, 7995.701
1071.248, 7999.320
1071.730, 7999.733
1072.212, 7992.096
1072.695, 7971.038
1073.177, 7963.057
1073.659, 7968.846
1074.141, 7982.607
1074.623, 8010.636
1075.105, 8036.826
1075.587, 8036.410
1076.069, 8014.043
1076.552, 7997.917
1077.034, 7996.720
1077.516, 7998.255
1077.998, 8001.657
1078.480, 8005.219
1078.962, 8005.835
1079.444, 8004.249
1079.926, 8002.264
1080.408, 7999.945
1080.891, 7999.420
1081.373, 7995.398
1081.855, 8000.530
1082.337, 8028.134
1082.819, 8074.002
1083.301, 8086.342
1083.783, 8065.560
1084.265, 8048.786
1084.747, 8059.928
1085.230, 8072.081
1085.712, 8052.588
1086.194, 8020.251
1086.676, 8005.707
1087.158, 8018.339
1087.640, 8035.304
1088.122, 8057.835
1088.604, 8079.158
1089.087, 8092.957
1089.569, 8101.566
1090.051, 8110.332
1090.533, 8118.521
1091.015, 8120.421
1091.497, 8101.315
1091.979, 8092.581
1092.461, 8104.739
1092.943, 8127.178
1093.426, 8139.366
1093.908, 8143.618
1094.390, 8152.909
1094.872, 8170.697
1095.354, 8185.556
1095.836, 8195.781
1096.318, 8195.058
1096.800, 8174.981
1097.283, 8137.641
1097.765, 8109.548
1098.247, 8090.675
1098.729, 8081.496
1099.211, 8082.372
1099.693, 8093.077
1100.175, 8126.805
1100.657, 8165.786
1101.140, 8180.020
1101.622, 8141.045
1102.104, 8128.031
1102.586, 8147.109
1103.068, 8174.499
1103.550, 8199.187
1104.032, 8215.024
1104.514, 8196.481
1104.996, 8153.644
1105.479, 8136.366
1105.961, 8206.156
1106.443, 8246.351
1106.925, 8223.561
1107.407, 8171.162
1107.889, 8138.118
1108.371, 8122.573
1108.853, 8118.977
1109.335, 8127.269
1109.818, 8136.005
1110.300, 8133.560
1110.782, 8133.498
1111.264, 8145.418
1111.746, 8167.226
1112.228, 8188.711
1112.710, 8210.188
1113.192, 8225.171
1113.675, 8230.466
1114.157, 8230.592
1114.639, 8225.742
1115.121, 8220.351
1115.603, 8221.331
1116.085, 8234.225
1116.567, 8232.934
1117.049, 8213.374
1117.531, 8195.923
1118.014, 8193.105
1118.496, 8201.008
1118.978, 8218.567
1119.460, 8241.223
1119.942, 8257.519
1120.424, 8267.085
1120.906, 8262.174
1121.388, 8234.874
1121.870, 8206.433
1122.353, 8200.850
1122.835, 8213.066
1123.317, 8232.151
1123.799, 8256.218
1124.281, 8271.817
1124.763, 8260.801
1125.245, 8253.174
1125.727, 8261.014
1126.210, 8278.357
1126.692, 8292.587
1127.174, 8303.976
1127.656, 8315.822
1128.138, 8329.232
1128.620, 8339.046
1129.102, 8341.843
1129.584, 8339.167
1130.067, 8330.918
1130.549, 8317.780
1131.031, 8301.694
1131.513, 8281.458
1131.995, 8278.051
1132.477, 8307.274
1132.959, 8343.181
1133.441, 8361.200
1133.923, 8367.931
1134.406, 8372.576
1134.888, 8379.369
1135.370, 8372.984
1135.852, 8349.884
1136.334, 8327.843
1136.816, 8320.259
1137.298, 8320.387
1137.780, 8315.469
1138.262, 8309.096
1138.745, 8311.724
1139.227, 8333.606
1139.709, 8355.794
1140.191, 8380.127
1140.673, 8397.692
1141.155, 8392.937
1141.637, 8374.780
1142.119, 8364.077
1142.602, 8362.115
1143.084, 8366.320
1143.566, 8384.141
1144.048, 8396.883
1144.530, 8397.617
1145.012, 8392.412
1145.494, 8391.275
1145.976, 8394.548
1146.458, 8405.125
1146.941, 8424.449
1147.423, 8442.857
1147.905, 8459.458
1148.387, 8468.331
1148.869, 8462.331
1149.351, 8446.392
1149.833, 8452.012
1150.315, 8477.104
1150.797, 8489.943
1151.280, 8474.698
1151.762, 8458.110
1152.244, 8466.233
1152.726, 8478.881
1153.208, 8473.637
1153.690, 8447.459
1154.172, 8435.239
1154.654, 8437.373
1155.137, 8443.188
1155.619, 8450.131
1156.101, 8454.429
1156.583, 8446.407
1157.065, 8434.864
1157.547, 8437.642
1158.029, 8463.120
1158.511, 8478.196
1158.994, 8480.287
1159.476, 8481.842
1159.958, 8497.171
1160.440, 8515.161
1160.922, 8519.257
1161.404, 8512.992
1161.886, 8512.516
1162.368, 8525.385
1162.850, 8532.333
1163.333, 8529.651
1163.815, 8524.498
1164.297, 8522.394
1164.779, 8524.893
1165.261, 8538.894
1165.743, 8563.646
1166.225, 8577.467
1166.707, 8565.679
1167.189, 8558.455
1167.672, 8564.385
1168.154, 8575.946
1168.636, 8582.955
1169.118, 8584.195
1169.600, 8573.076
1170.082, 8545.394
1170.564, 8529.650
1171.046, 8541.818
1171.529, 8560.124
1172.011, 8579.934
1172.493, 8597.643
1172.975, 8596.983
1173.457, 8584.982
1173.939, 8588.299
1174.421, 8628.469
1174.903, 8648.643
1175.385, 8597.710
1175.868, 8547.577
1176.350, 8544.725
1176.832, 8580.205
1177.314, 8605.219
1177.796, 8618.555
1178.278, 8611.697
1178.760, 8556.137
1179.242, 8514.078
1179.724, 8522.757
1180.207, 8550.419
1180.689, 8569.709
1181.171, 8580.943
1181.653, 8596.060
1182.135, 8615.273
1182.617, 8637.898
1183.099, 8681.373
1183.581, 8708.479
1184.064, 8681.603
1184.546, 8635.583
1185.028, 8621.066
1185.510, 8638.804
1185.992, 8666.625
1186.474, 8703.351
1186.956, 8723.101
1187.438, 8687.770
1187.921, 8648.144
1188.403, 8637.997
1188.885, 8650.374
1189.367, 8669.137
1189.849, 8695.373
1190.331, 8709.190
1190.813, 8706.920
1191.295, 8698.164
1191.777, 8679.199
1192.260, 8667.190
1192.742, 8689.320
1193.224, 8734.383
1193.706, 8729.280
1194.188, 8666.473
1194.670, 8632.450
1195.152, 8653.090
1195.634, 8682.584
1196.116, 8674.365
1196.599, 8654.318
1197.081, 8647.633
1197.563, 8655.655
1198.045, 8661.322
1198.527, 8664.465
1199.009, 8666.920
1199.491, 8668.826
1199.973, 8671.475
1200.456, 8677.279
1200.938, 8684.007
1201.420, 8688.918
1201.902, 8691.532
1202.384, 8692.468
1202.866, 8690.522
1203.348, 8697.142
1203.830, 8725.091
1204.313, 8753.491
1204.795, 8752.237
1205.277, 8738.786
1205.759, 8742.277
1206.241, 8775.879
1206.723, 8780.679
1207.205, 8751.300
1207.687, 8729.718
1208.169, 8755.051
1208.651, 8790.293
1209.134, 8785.510
1209.616, 8762.103
1210.098, 8764.986
1210.580, 8813.113
1211.062, 8842.028
1211.544, 8849.985
1212.026, 8842.953
1212.508, 8811.355
1212.991, 8778.971
1213.473, 8774.399
1213.955, 8790.612
1214.437, 8809.382
1214.919, 8836.275
1215.401, 8836.790
1215.883, 8802.759
1216.365, 8773.651
1216.848, 8793.489
1217.330, 8829.636
1217.812, 8849.141
1218.294, 8853.065
1218.776, 8851.559
1219.258, 8841.896
1219.740, 8841.825
1220.222, 8855.421
1220.704, 8869.318
1221.187, 8866.561
1221.669, 8859.443
1222.151, 8860.850
1222.633, 8870.825
1223.115, 8883.473
1223.597, 8901.710
1224.079, 8906.802
1224.561, 8893.011
1225.043, 8875.776
1225.526, 8867.558
1226.008, 8867.914
1226.490, 8882.268
1226.972, 8908.909
1227.454, 8914.777
1227.936, 8894.155
1228.418, 8883.492
1228.900, 8893.596
1229.383, 8909.887
1229.865, 8923.732
1230.347, 8930.066
1230.829, 8917.518
1231.311, 8885.936
1231.793, 8876.987
1232.275, 8894.637
1232.757, 8902.209
1233.240, 8883.807
1233.722, 8864.889
1234.204, 8879.138
1234.686, 8903.151
1235.168, 8908.840
1235.650, 8894.380
1236.132, 8896.218
1236.614, 8915.493
1237.096, 8936.537
1237.579, 8955.650
1238.061, 8969.275
1238.543, 8965.135
1239.025, 8960.097
1239.507, 8980.520
1239.989, 9028.349
1240.471, 9029.854
1240.953, 8983.869
1241.436, 8949.185
1241.918, 8956.217
1242.400, 8977.168
1242.882, 9002.312
1243.364, 9020.482
1243.846, 9015.543
1244.328, 8985.947
1244.810, 8981.331
1245.292, 9001.018
1245.775, 9023.938
1246.257, 9050.570
1246.739, 9061.516
1247.221, 9027.188
1247.703, 8982.380
1248.185, 8963.904
1248.667, 8972.277
1249.149, 8981.620
1249.631, 8992.491
1250.114, 9011.448
1250.596, 9062.563
1251.078, 9096.652
1251.560, 9068.541
1252.042, 9027.081
1252.524, 9022.311
1253.006, 9051.880
1253.488, 9068.163
1253.971, 9072.013
1254.453, 9072.306
1254.935, 9069.547
1255.417, 9069.685
1255.899, 9081.275
1256.381, 9090.438
1256.863, 9080.114
1257.345, 9054.707
1257.828, 9037.398
1258.310, 9030.002
1258.792, 9039.451
1259.274, 9103.109
1259.756, 9134.263
1260.238, 9093.668
1260.720, 9044.104
1261.202, 9064.129
1261.684, 9125.964
1262.167, 9126.668
1262.649, 9077.400
1263.131, 9051.817
1263.613, 9106.538
1264.095, 9150.616
1264.577, 9171.271
1265.059, 9177.291
1265.541, 9170.417
1266.023, 9158.922
1266.506, 9160.879
1266.988, 9174.986
1267.470, 9191.309
1267.952, 9221.499
1268.434, 9223.878
1268.916, 9185.717
1269.398, 9145.396
1269.880, 9148.367
1270.363, 9171.597
1270.845, 9181.358
1271.327, 9179.468
1271.809, 9183.899
1272.291, 9200.614
1272.773, 9209.383
1273.255, 9205.442
1273.737, 9205.389
1274.219, 9239.178
1274.702, 9274.545
1275.184, 9270.564
1275.666, 9236.741
1276.148, 9223.381
1276.630, 9238.531
1277.112, 9229.527
1277.594, 9186.392
1278.076, 9153.596
1278.558, 9178.330
1279.041, 9221.253
1279.523, 9261.020
1280.005, 9291.505
1280.487, 9296.104
1280.969, 9274.079
1281.451, 9270.000
1281.933, 9290.000
1282.415, 9308.493
1282.898, 9302.513
1283.380, 9295.279
1283.862, 9303.207
1284.344, 9316.549
1284.826, 9315.682
1285.308, 9302.475
1285.790, 9288.200
1286.272, 9274.136
1286.755, 9265.126
1287.237, 9266.269
1287.719, 9270.432
1288.201, 9276.554
1288.683, 9282.203
1289.165, 9279.796
1289.647, 9274.053
1290.129, 9280.905
1290.611, 9301.143
1291.094, 9315.826
1291.576, 9315.957
1292.058, 9312.784
1292.540, 9307.474
1293.022, 9301.753
1293.504, 9297.971
1293.986, 9295.454
1294.468, 9291.860
1294.950, 9287.539
1295.433, 9289.160
1295.915, 9296.010
1296.397, 9313.393
1296.879, 9345.350
1297.361, 9375.413
1297.843, 9389.242
1298.325, 9388.197
1298.807, 9362.445
1299.290, 9319.408
1299.772, 9312.254
1300.254, 9346.533
1300.736, 9365.799
1301.218, 9358.960
1301.700, 9350.946
1302.182, 9373.786
1302.664, 9394.109
1303.146, 9375.101
1303.629, 9338.251
1304.111, 9335.140
1304.593, 9362.771
1305.075, 9384.803
1305.557, 9396.228
1306.039, 9399.008
1306.521, 9388.069
1307.003, 9375.233
##END=



