##NAMES=Tephroite
##RRUFFID=R060141
##IDEAL CHEMISTRY=Mn^2+^_2_SiO_4_
##LOCALITY=Franklin, New Jersey, USA
##OWNER=RRUFF
##SOURCE=Marcus Origlieri
##DESCRIPTION=Tan colored massive, associated with reddish zincite and metallic franklinite.
##STATUS=The identification of this mineral has been confirmed by X-ray diffraction and chemical analysis
##URL=rruff.info/R060141
##MEASURED CHEMISTRY=(Mn^2+^_0.81_Zn_0.12_Mg_0.08_Ca_0.01_)_2_Si_1.00_O_4_
92.02539, 75.88942
92.50751, 76.77550
92.98962, 77.74428
93.47174, 77.56004
93.95386, 77.01100
94.43597, 76.30769
94.91809, 75.77200
95.40021, 75.26467
95.88232, 73.90891
96.36444, 70.87785
96.84656, 68.17236
97.32867, 66.45084
97.81078, 65.42586
98.29290, 64.59924
98.77502, 63.55449
99.25713, 62.17842
99.73925, 60.79646
100.2214, 59.31672
100.7035, 57.91877
101.1856, 56.62755
101.6677, 55.45905
102.1498, 54.47242
102.6320, 53.74709
103.1141, 53.35342
103.5962, 53.09807
104.0783, 53.05281
104.5604, 53.10606
105.0425, 53.14703
105.5247, 53.14601
106.0068, 53.10415
106.4889, 53.05323
106.9710, 53.04985
107.4531, 52.83578
107.9352, 52.17683
108.4173, 51.15053
108.8995, 50.16936
109.3816, 49.29441
109.8637, 48.60700
110.3458, 48.20568
110.8279, 48.14079
111.3100, 48.20412
111.7922, 48.12907
112.2743, 47.84673
112.7564, 47.65120
113.2385, 47.61749
113.7206, 47.70025
114.2027, 47.87270
114.6849, 48.12328
115.1670, 48.45129
115.6491, 48.84702
116.1312, 49.28073
116.6133, 49.84253
117.0954, 50.75088
117.5776, 51.77139
118.0597, 52.53644
118.5418, 52.76541
119.0239, 52.44712
119.5060, 52.38078
119.9881, 52.83862
120.4703, 53.24119
120.9524, 53.36847
121.4345, 53.21876
121.9166, 52.88600
122.3987, 52.41755
122.8808, 51.78374
123.3630, 51.28972
123.8451, 51.05532
124.3272, 50.89814
124.8093, 50.62013
125.2914, 50.17134
125.7735, 49.71261
126.2557, 49.42321
126.7378, 49.27279
127.2199, 49.22018
127.7020, 49.19830
128.1841, 49.25458
128.6662, 49.57526
129.1483, 50.37140
129.6305, 51.22754
130.1126, 51.81832
130.5947, 52.16051
131.0768, 52.43551
131.5589, 52.78120
132.0410, 53.20086
132.5232, 53.66553
133.0053, 54.16664
133.4874, 54.72124
133.9695, 55.36005
134.4516, 56.08388
134.9337, 56.84218
135.4159, 57.55541
135.8980, 58.16828
136.3801, 58.85133
136.8622, 59.72898
137.3443, 60.61024
137.8264, 61.32275
138.3086, 61.80362
138.7907, 62.12245
139.2728, 62.45821
139.7549, 62.92458
140.2370, 63.27605
140.7191, 63.42787
141.2013, 63.46486
141.6834, 63.53078
142.1655, 63.71626
142.6476, 63.95916
143.1297, 63.97766
143.6118, 63.49468
144.0939, 63.12212
144.5761, 63.12301
145.0582, 63.45570
145.5403, 63.92134
146.0224, 64.38477
146.5045, 64.92506
146.9866, 65.70027
147.4688, 66.75245
147.9509, 68.01104
148.4330, 69.46035
148.9151, 71.13002
149.3972, 72.81756
149.8793, 74.51949
150.3615, 76.15588
150.8436, 77.62759
151.3257, 78.99653
151.8078, 80.12644
152.2899, 80.79548
152.7720, 81.35788
153.2542, 80.66990
153.7363, 77.88124
154.2184, 73.85611
154.7005, 69.82514
155.1826, 66.48521
155.6647, 63.80865
156.1469, 61.59772
156.6290, 60.08878
157.1111, 58.89738
157.5932, 57.91138
158.0753, 57.15923
158.5574, 56.73387
159.0396, 56.72412
159.5217, 57.15493
160.0038, 57.80591
160.4859, 58.61983
160.9680, 59.66336
161.4501, 60.97043
161.9323, 62.53891
162.4144, 64.36375
162.8965, 66.45478
163.3786, 68.92278
163.8607, 71.24895
164.3428, 73.81319
164.8250, 75.99840
165.3071, 77.55986
165.7892, 78.42212
166.2713, 78.22021
166.7534, 76.24850
167.2355, 72.25751
167.7177, 68.20616
168.1998, 64.11407
168.6819, 60.11327
169.1640, 56.31429
169.6461, 52.68692
170.1282, 49.47815
170.6104, 47.14367
171.0925, 45.57119
171.5746, 44.28251
172.0567, 43.16465
172.5388, 42.20148
173.0209, 41.34044
173.5031, 40.54792
173.9852, 39.91356
174.4673, 39.51700
174.9494, 39.33917
175.4315, 39.19518
175.9136, 38.92796
176.3958, 38.54401
176.8779, 38.26111
177.3600, 38.17337
177.8421, 38.15031
178.3242, 38.16900
178.8063, 38.20831
179.2885, 38.17989
179.7706, 37.94611
180.2527, 37.43009
180.7348, 37.04476
181.2169, 36.89086
181.6990, 36.81624
182.1812, 36.74750
182.6633, 36.67262
183.1454, 36.62722
183.6275, 36.68932
184.1096, 37.00846
184.5917, 37.10240
185.0738, 36.82306
185.5560, 36.46058
186.0381, 36.21944
186.5202, 36.15013
187.0023, 36.15903
187.4844, 36.07975
187.9665, 35.72652
188.4487, 35.59758
188.9308, 35.98262
189.4129, 36.44092
189.8950, 36.52713
190.3771, 36.09752
190.8592, 35.38703
191.3414, 34.83345
191.8235, 34.43556
192.3056, 34.20438
192.7877, 34.25859
193.2698, 34.45055
193.7519, 34.58970
194.2341, 34.60937
194.7162, 34.55041
195.1983, 34.48416
195.6804, 34.40827
196.1625, 34.33499
196.6446, 34.24532
197.1268, 34.16042
197.6089, 34.13369
198.0910, 34.19610
198.5731, 34.30576
199.0552, 34.43996
199.5373, 34.64278
200.0195, 34.68020
200.5016, 34.30762
200.9837, 33.61168
201.4658, 33.04175
201.9479, 32.74947
202.4300, 32.62895
202.9122, 32.56425
203.3943, 32.55892
203.8764, 32.54307
204.3585, 32.43463
204.8406, 32.23429
205.3227, 32.09793
205.8048, 32.12626
206.2870, 32.18756
206.7691, 32.16109
207.2512, 32.03607
207.7333, 31.94197
208.2154, 32.07778
208.6975, 32.51250
209.1797, 32.76484
209.6618, 32.59446
210.1439, 32.32141
210.6260, 32.08015
211.1081, 31.90449
211.5902, 31.79572
212.0724, 31.77406
212.5545, 31.88222
213.0366, 31.94748
213.5187, 31.83274
214.0008, 31.76117
214.4829, 31.93522
214.9651, 32.36524
215.4472, 32.84235
215.9293, 33.02376
216.4114, 32.63037
216.8935, 32.52830
217.3756, 32.94913
217.8578, 33.44918
218.3399, 33.67583
218.8220, 33.57397
219.3041, 33.39490
219.7862, 33.53294
220.2683, 34.21812
220.7505, 34.79383
221.2326, 35.18605
221.7147, 35.52993
222.1968, 35.94948
222.6789, 36.46720
223.1610, 36.99120
223.6432, 37.38017
224.1253, 37.53271
224.6074, 37.75034
225.0895, 38.04932
225.5716, 38.40291
226.0537, 38.78810
226.5358, 39.19991
227.0180, 39.64408
227.5001, 40.14646
227.9822, 40.75615
228.4643, 41.24805
228.9464, 41.49784
229.4285, 41.67365
229.9107, 41.92067
230.3928, 42.26792
230.8749, 42.73926
231.3570, 43.41807
231.8391, 44.33022
232.3212, 45.15253
232.8034, 45.78746
233.2855, 46.32179
233.7676, 46.83796
234.2497, 47.33958
234.7318, 47.88711
235.2139, 48.55621
235.6961, 49.33311
236.1782, 50.20409
236.6603, 51.21441
237.1424, 52.30171
237.6245, 53.39266
238.1066, 54.49729
238.5888, 55.56106
239.0709, 56.44497
239.5530, 57.22120
240.0351, 58.17423
240.5172, 59.68401
240.9993, 61.37853
241.4815, 62.47239
241.9636, 62.75210
242.4457, 62.87099
242.9278, 63.52611
243.4099, 64.40233
243.8920, 64.78162
244.3742, 64.19028
244.8563, 62.92247
245.3384, 61.64808
245.8205, 60.42853
246.3026, 59.05784
246.7847, 57.30463
247.2668, 55.35847
247.7490, 53.52460
248.2311, 51.97982
248.7132, 50.62216
249.1953, 49.13163
249.6774, 47.35747
250.1595, 45.77903
250.6417, 44.67208
251.1238, 43.83341
251.6059, 43.01486
252.0880, 42.09428
252.5701, 41.13772
253.0522, 40.28660
253.5344, 39.52197
254.0165, 38.92775
254.4986, 38.61805
254.9807, 38.42754
255.4628, 38.15357
255.9449, 37.69299
256.4271, 37.16642
256.9092, 36.87665
257.3913, 36.99290
257.8734, 37.03059
258.3555, 36.86656
258.8376, 36.60606
259.3198, 36.30997
259.8019, 36.00093
260.2840, 35.74209
260.7661, 35.68099
261.2482, 35.93235
261.7303, 36.17332
262.2125, 36.39100
262.6946, 36.57115
263.1767, 36.69130
263.6588, 36.74757
264.1409, 36.76899
264.6230, 36.80452
265.1052, 36.84997
265.5873, 36.92073
266.0694, 36.93910
266.5515, 37.02609
267.0336, 37.34029
267.5157, 37.88568
267.9979, 38.46029
268.4800, 38.73170
268.9621, 38.43618
269.4442, 38.41567
269.9263, 38.80082
270.4084, 39.30666
270.8906, 39.80402
271.3727, 40.24680
271.8548, 40.60373
272.3369, 40.82343
272.8190, 40.84283
273.3011, 40.93018
273.7833, 41.02591
274.2654, 41.22132
274.7475, 41.61652
275.2296, 42.18275
275.7117, 42.78685
276.1938, 43.30456
276.6760, 43.73604
277.1581, 44.07038
277.6402, 44.37396
278.1223, 44.54852
278.6044, 44.51096
279.0865, 44.29419
279.5686, 44.01037
280.0508, 43.75317
280.5329, 43.52600
281.0150, 43.18012
281.4971, 42.53265
281.9792, 41.97367
282.4613, 41.71056
282.9435, 41.65636
283.4256, 41.58451
283.9077, 41.34111
284.3898, 40.95449
284.8719, 40.69715
285.3540, 40.67105
285.8362, 40.63588
286.3183, 40.50960
286.8004, 40.33271
287.2825, 40.18708
287.7646, 40.11818
288.2467, 40.09871
288.7289, 40.03066
289.2110, 39.90344
289.6931, 39.74677
290.1752, 39.52321
290.6573, 39.28408
291.1394, 39.12093
291.6216, 39.07356
292.1037, 39.06797
292.5858, 38.92513
293.0679, 38.39229
293.5500, 38.21589
294.0321, 38.73784
294.5143, 39.53688
294.9964, 40.17145
295.4785, 40.52406
295.9606, 40.68527
296.4427, 40.75560
296.9248, 40.66954
297.4070, 40.70353
297.8891, 40.88133
298.3712, 41.17436
298.8533, 41.61581
299.3354, 42.19256
299.8175, 42.74540
300.2997, 43.07948
300.7818, 43.13877
301.2639, 43.42376
301.7460, 44.25149
302.2281, 45.05041
302.7102, 45.38952
303.1924, 45.28632
303.6745, 45.09546
304.1566, 45.09593
304.6387, 45.26819
305.1208, 45.25304
305.6029, 44.80301
306.0851, 44.42179
306.5672, 44.53249
307.0493, 44.96025
307.5314, 45.12062
308.0135, 44.65175
308.4956, 43.68580
308.9778, 42.81300
309.4599, 41.94841
309.9420, 41.25316
310.4241, 40.86897
310.9062, 40.68385
311.3883, 40.50436
311.8705, 40.26273
312.3526, 39.95420
312.8347, 39.55117
313.3168, 38.99747
313.7989, 38.49421
314.2810, 38.06473
314.7632, 37.71371
315.2453, 37.45869
315.7274, 37.30824
316.2095, 37.21642
316.6916, 37.14995
317.1737, 37.14939
317.6559, 36.97112
318.1380, 36.46619
318.6201, 35.85181
319.1022, 35.30919
319.5843, 34.86364
320.0664, 34.48581
320.5485, 34.16346
321.0306, 33.90353
321.5128, 33.59140
321.9949, 33.12917
322.4770, 32.69661
322.9591, 32.46058
323.4412, 32.38270
323.9233, 32.24007
324.4055, 31.85498
324.8876, 31.28266
325.3697, 30.93873
325.8518, 31.02863
326.3339, 31.08520
326.8160, 30.93993
327.2982, 30.63311
327.7803, 30.22289
328.2624, 29.70819
328.7445, 29.17355
329.2266, 28.86139
329.7087, 28.86862
330.1909, 28.88480
330.6730, 28.89683
331.1551, 28.87205
331.6372, 28.75123
332.1193, 28.51606
332.6014, 28.22814
333.0836, 27.94595
333.5657, 27.59706
334.0478, 27.52453
334.5299, 28.09940
335.0120, 28.72046
335.4941, 28.81775
335.9763, 28.36093
336.4584, 27.80615
336.9405, 27.58747
337.4226, 27.74374
337.9047, 27.77712
338.3868, 27.56468
338.8690, 27.35960
339.3511, 27.30344
339.8332, 27.36840
340.3153, 27.44216
340.7974, 27.44704
341.2795, 27.40610
341.7617, 27.47398
342.2438, 27.80135
342.7259, 28.04369
343.2080, 28.12718
343.6901, 28.07753
344.1722, 27.88532
344.6544, 27.54147
345.1365, 27.17068
345.6186, 27.03913
346.1007, 27.42945
346.5828, 27.63548
347.0649, 27.45493
347.5471, 27.20349
348.0292, 27.17099
348.5113, 27.40478
348.9934, 27.75131
349.4755, 28.03883
349.9576, 28.28003
350.4398, 28.38967
350.9219, 28.20968
351.4040, 28.06151
351.8861, 28.17368
352.3682, 28.48055
352.8503, 28.73798
353.3325, 28.74718
353.8146, 28.53088
354.2967, 28.45273
354.7788, 28.71652
355.2609, 28.88510
355.7430, 28.76675
356.2252, 28.52348
356.7073, 28.39437
357.1894, 28.49438
357.6715, 28.73915
358.1536, 28.91221
358.6357, 28.88271
359.1179, 28.98745
359.5999, 29.39572
360.0821, 29.83329
360.5642, 30.04917
361.0463, 30.00962
361.5284, 29.88422
362.0105, 29.86170
362.4926, 29.91607
362.9748, 30.18825
363.4569, 30.97681
363.9390, 31.69014
364.4211, 31.99982
364.9032, 32.00479
365.3853, 32.00895
365.8675, 32.24253
366.3496, 32.68323
366.8317, 33.11543
367.3138, 33.47371
367.7959, 33.91269
368.2780, 34.47440
368.7602, 35.12574
369.2423, 35.85357
369.7244, 36.65391
370.2065, 37.45546
370.6886, 38.10467
371.1707, 38.53042
371.6529, 38.97770
372.1350, 39.48145
372.6171, 40.01681
373.0992, 40.56199
373.5813, 41.11655
374.0634, 41.72398
374.5456, 42.45516
375.0277, 43.31725
375.5098, 44.10958
375.9919, 44.72492
376.4740, 45.38660
376.9561, 46.22715
377.4383, 47.19263
377.9204, 48.13947
378.4025, 48.96317
378.8846, 49.73076
379.3667, 50.63773
379.8488, 51.71358
380.3310, 52.85524
380.8131, 54.15855
381.2952, 55.44566
381.7773, 56.48250
382.2594, 57.16520
382.7415, 57.79998
383.2237, 58.81642
383.7058, 60.21263
384.1879, 61.30542
384.6700, 61.74440
385.1521, 62.00683
385.6342, 62.57101
386.1164, 63.41249
386.5985, 64.18663
387.0806, 64.74850
387.5627, 65.09575
388.0448, 65.20047
388.5269, 65.02804
389.0091, 64.71782
389.4912, 64.23573
389.9733, 63.69142
390.4554, 63.35546
390.9375, 63.52485
391.4196, 63.69991
391.9018, 63.43201
392.3839, 62.74563
392.8660, 61.83857
393.3481, 60.68041
393.8302, 59.45967
394.3123, 58.56129
394.7945, 58.07655
395.2766, 57.57747
395.7587, 56.88932
396.2408, 56.08100
396.7229, 55.24443
397.2050, 54.38225
397.6872, 53.58434
398.1693, 52.93780
398.6514, 52.45588
399.1335, 52.09867
399.6156, 52.12941
400.0977, 52.06750
400.5798, 51.46481
401.0620, 50.41669
401.5441, 49.41027
402.0262, 48.76432
402.5083, 48.38503
402.9904, 47.81102
403.4725, 46.81769
403.9547, 45.93739
404.4368, 45.33986
404.9189, 44.88274
405.4010, 44.40321
405.8831, 43.85061
406.3652, 43.25317
406.8474, 42.66138
407.3295, 42.13142
407.8116, 41.43707
408.2937, 40.37763
408.7758, 39.35377
409.2579, 38.62276
409.7401, 38.13655
410.2222, 37.67177
410.7043, 37.05066
411.1864, 36.30433
411.6685, 35.68605
412.1506, 35.28262
412.6328, 34.91354
413.1149, 34.51998
413.5970, 34.16066
414.0791, 33.95661
414.5612, 33.93756
415.0433, 33.91507
415.5255, 33.53260
416.0076, 32.60707
416.4897, 31.95076
416.9718, 31.85559
417.4539, 31.83855
417.9360, 31.69808
418.4182, 31.43640
418.9003, 31.14219
419.3824, 30.85842
419.8645, 30.59477
420.3466, 30.40638
420.8287, 30.35632
421.3109, 30.24997
421.7930, 29.93598
422.2751, 29.55853
422.7572, 29.29306
423.2393, 29.20364
423.7214, 29.15673
424.2036, 28.99584
424.6857, 28.72689
425.1678, 28.49224
425.6499, 28.30303
426.1320, 28.18847
426.6141, 28.18257
427.0963, 28.27454
427.5784, 28.38504
428.0605, 28.57502
428.5426, 28.72601
429.0247, 28.60583
429.5068, 28.18692
429.9890, 27.74802
430.4711, 27.41035
430.9532, 27.20811
431.4353, 27.20488
431.9174, 27.62084
432.3995, 27.90882
432.8817, 27.64141
433.3638, 27.06292
433.8459, 26.69864
434.3280, 26.72205
434.8101, 26.93613
435.2922, 27.08220
435.7744, 27.14110
436.2565, 27.20068
436.7386, 27.32687
437.2207, 27.40402
437.7028, 27.32759
438.1849, 27.11892
438.6671, 26.87451
439.1492, 26.65318
439.6313, 26.45649
440.1134, 26.29993
440.5955, 26.12905
441.0776, 26.06874
441.5598, 26.26670
442.0418, 26.51469
442.5240, 26.57026
443.0061, 26.38465
443.4882, 26.13229
443.9703, 26.06741
444.4524, 26.27712
444.9345, 26.26319
445.4167, 25.71144
445.8988, 25.24487
446.3809, 25.12494
446.8630, 25.25355
447.3451, 25.42653
447.8272, 25.54037
448.3094, 25.59787
448.7915, 25.59329
449.2736, 25.49580
449.7557, 25.42395
450.2378, 25.42984
450.7199, 25.45605
451.2021, 25.45896
451.6842, 25.43503
452.1663, 25.41833
452.6484, 25.48690
453.1305, 25.59730
453.6126, 25.51182
454.0948, 25.11419
454.5769, 24.76722
455.0590, 24.80320
455.5411, 25.04966
456.0232, 25.21957
456.5053, 25.25593
456.9875, 25.19003
457.4696, 25.00650
457.9517, 24.73049
458.4338, 24.45602
458.9159, 24.18522
459.3980, 23.98605
459.8802, 24.01273
460.3623, 24.28798
460.8444, 24.48816
461.3265, 24.45286
461.8086, 24.38837
462.2907, 24.54012
462.7729, 24.87793
463.2550, 25.13463
463.7371, 25.12617
464.2192, 24.88783
464.7013, 24.61815
465.1834, 24.14713
465.6656, 23.86173
466.1477, 23.92565
466.6298, 24.14593
467.1119, 24.34773
467.5940, 24.47660
468.0761, 24.52705
468.5583, 24.48544
469.0404, 24.33741
469.5225, 24.18677
470.0046, 24.01984
470.4867, 23.86455
470.9688, 23.72829
471.4510, 23.61014
471.9331, 23.49688
472.4152, 23.37671
472.8973, 23.29337
473.3794, 23.34610
473.8615, 23.56739
474.3437, 23.78758
474.8258, 24.06277
475.3079, 24.25071
475.7900, 24.19632
476.2721, 23.94208
476.7542, 23.72999
477.2364, 23.78495
477.7185, 23.97082
478.2006, 23.93251
478.6827, 23.62036
479.1648, 23.37940
479.6469, 23.42712
480.1291, 23.64414
480.6112, 23.81073
481.0933, 23.91101
481.5754, 23.98009
482.0575, 24.02011
482.5396, 24.04438
483.0217, 24.09017
483.5038, 24.16720
483.9860, 24.21469
484.4681, 24.15797
484.9502, 23.99246
485.4323, 23.90468
485.9144, 23.96488
486.3965, 24.02295
486.8787, 24.00457
487.3608, 23.94120
487.8429, 23.88737
488.3250, 23.86485
488.8071, 23.87524
489.2892, 23.92429
489.7714, 24.03213
490.2535, 24.13094
490.7356, 24.22437
491.2177, 24.30690
491.6998, 24.38881
492.1819, 24.45733
492.6641, 24.45655
493.1462, 24.31899
493.6283, 24.15856
494.1104, 24.38030
494.5925, 25.21916
495.0746, 25.79923
495.5568, 25.68951
496.0389, 25.40136
496.5210, 25.23923
497.0031, 25.24065
497.4852, 25.34972
497.9673, 25.51425
498.4495, 25.75734
498.9316, 26.21843
499.4137, 26.98212
499.8958, 27.58050
500.3779, 27.62028
500.8600, 27.35412
501.3422, 27.31217
501.8243, 27.58096
502.3064, 27.94394
502.7885, 28.39963
503.2706, 28.85168
503.7527, 29.08310
504.2349, 29.04300
504.7170, 28.97763
505.1991, 29.12906
505.6812, 29.51284
506.1633, 29.89114
506.6454, 30.15656
507.1276, 30.53437
507.6097, 31.21199
508.0918, 32.02631
508.5739, 32.69127
509.0560, 33.10723
509.5381, 33.45837
510.0203, 34.04753
510.5024, 34.96215
510.9845, 35.81750
511.4666, 36.69695
511.9487, 37.43126
512.4308, 37.84593
512.9130, 38.07959
513.3951, 38.41444
513.8772, 39.01661
514.3593, 39.72121
514.8414, 40.29536
515.3235, 40.77081
515.8057, 40.87805
516.2878, 40.43343
516.7699, 39.69691
517.2520, 38.84924
517.7341, 37.90958
518.2162, 36.98738
518.6984, 36.16096
519.1805, 35.35402
519.6626, 34.45845
520.1447, 33.47796
520.6268, 32.47219
521.1089, 31.43574
521.5911, 30.42907
522.0732, 29.62851
522.5553, 29.06833
523.0374, 28.55215
523.5195, 28.08626
524.0016, 27.62681
524.4838, 27.05896
524.9659, 26.43585
525.4480, 26.01971
525.9301, 26.03889
526.4122, 26.37206
526.8943, 26.37980
527.3765, 25.72959
527.8586, 25.22083
528.3407, 24.90580
528.8228, 24.75825
529.3049, 24.84167
529.7870, 25.10791
530.2692, 25.33301
530.7513, 25.29033
531.2334, 25.03353
531.7155, 24.89439
532.1976, 24.93682
532.6797, 24.94874
533.1619, 24.76202
533.6440, 24.53839
534.1261, 24.44304
534.6082, 24.50729
535.0903, 24.64425
535.5724, 24.86765
536.0546, 25.10962
536.5367, 25.18892
537.0188, 25.07023
537.5009, 24.98013
537.9830, 25.12195
538.4651, 25.43305
538.9473, 25.55869
539.4294, 25.23912
539.9115, 25.07784
540.3936, 25.40324
540.8757, 25.90342
541.3578, 26.17206
541.8400, 26.14233
542.3221, 26.04844
542.8042, 26.12565
543.2863, 26.37629
543.7684, 26.65732
544.2505, 27.15373
544.7326, 27.44564
545.2147, 27.29523
545.6968, 26.98068
546.1790, 26.79438
546.6611, 26.81238
547.1432, 26.93330
547.6253, 27.06365
548.1074, 27.20454
548.5895, 27.36612
549.0717, 27.56048
549.5538, 27.74974
550.0359, 27.93698
550.5180, 28.09736
551.0001, 28.17881
551.4822, 28.14130
551.9644, 28.10048
552.4465, 28.15785
552.9286, 28.25777
553.4107, 28.25765
553.8928, 28.12693
554.3749, 28.02384
554.8571, 28.10841
555.3392, 28.37355
555.8213, 28.53261
556.3034, 28.53474
556.7855, 28.51007
557.2676, 28.46728
557.7498, 28.42775
558.2319, 28.41472
558.7140, 28.43353
559.1961, 28.47503
559.6782, 28.53143
560.1603, 28.60250
560.6425, 28.69083
561.1246, 28.91436
561.6067, 28.97053
562.0888, 28.61647
562.5709, 28.14135
563.0530, 27.89814
563.5352, 27.97810
564.0173, 28.10282
564.4994, 27.99578
564.9815, 27.74101
565.4636, 27.63030
565.9457, 27.71216
566.4279, 27.82585
566.9100, 27.86464
567.3921, 27.85154
567.8742, 27.87140
568.3563, 27.92260
568.8384, 28.00845
569.3206, 28.14129
569.8027, 28.30366
570.2848, 28.50580
570.7669, 28.73212
571.2490, 28.88592
571.7311, 28.85459
572.2133, 28.67262
572.6954, 28.72852
573.1775, 29.35605
573.6596, 29.76153
574.1417, 29.66502
574.6238, 29.43664
575.1060, 29.42841
575.5881, 29.66048
576.0702, 29.86751
576.5523, 29.78959
577.0344, 29.51368
577.5165, 29.40046
577.9987, 29.51448
578.4808, 29.50617
578.9629, 29.17867
579.4450, 28.67591
579.9271, 28.19618
580.4092, 27.74075
580.8914, 27.32080
581.3735, 26.94213
581.8556, 26.60031
582.3377, 26.27744
582.8198, 25.98054
583.3019, 25.75722
583.7841, 25.64874
584.2662, 25.59752
584.7483, 25.44135
585.2304, 25.06170
585.7125, 24.77038
586.1946, 24.70314
586.6768, 24.59784
587.1589, 24.22594
587.6410, 23.67484
588.1231, 23.19197
588.6052, 22.91561
589.0873, 22.80420
589.5695, 22.82736
590.0516, 23.02302
590.5337, 23.07369
591.0158, 22.87782
591.4979, 22.56124
591.9800, 22.11573
592.4622, 21.61587
592.9443, 21.38377
593.4264, 21.77928
593.9085, 22.24306
594.3906, 22.27358
594.8727, 22.00228
595.3549, 21.79431
595.8370, 21.76722
596.3191, 21.79833
596.8012, 21.73672
597.2833, 21.56593
597.7654, 21.41635
598.2476, 21.36043
598.7297, 21.23953
599.2118, 20.90330
599.6939, 20.51687
600.1760, 20.30964
600.6581, 20.33944
601.1403, 20.44921
601.6224, 20.44107
602.1045, 20.32449
602.5866, 20.35501
603.0687, 20.64243
603.5508, 20.83320
604.0330, 20.63086
604.5151, 20.28182
604.9972, 20.10905
605.4793, 20.18262
605.9614, 20.25142
606.4435, 20.14235
606.9257, 19.97665
607.4078, 19.96603
607.8899, 20.10432
608.3720, 20.15624
608.8541, 19.94564
609.3362, 19.58940
609.8184, 19.46176
610.3005, 19.79918
610.7826, 20.01830
611.2647, 20.03670
611.7468, 20.01378
612.2289, 20.07059
612.7111, 20.17478
613.1932, 20.20748
613.6753, 20.08938
614.1574, 19.90177
614.6395, 19.80917
615.1216, 19.82163
615.6038, 19.77876
616.0859, 19.60610
616.5680, 19.43571
617.0501, 19.37897
617.5322, 19.41431
618.0143, 19.48120
618.4965, 19.64667
618.9786, 19.75203
619.4607, 19.64838
619.9428, 19.43093
620.4249, 19.27334
620.9070, 19.21763
621.3892, 19.20378
621.8713, 19.16541
622.3534, 19.10396
622.8355, 19.13489
623.3176, 19.34219
623.7997, 19.53777
624.2819, 19.81157
624.7640, 19.98530
625.2461, 19.81632
625.7282, 19.32715
626.2103, 18.85507
626.6924, 18.60931
627.1745, 18.58328
627.6566, 18.90637
628.1387, 19.62844
628.6208, 19.95252
629.1030, 19.37864
629.5851, 18.50425
630.0672, 18.26443
630.5493, 18.67931
631.0314, 19.01841
631.5135, 19.16668
631.9957, 19.21717
632.4778, 19.19348
632.9599, 19.12353
633.4420, 19.03613
633.9241, 18.94545
634.4063, 18.89404
634.8884, 18.96512
635.3705, 19.18739
635.8526, 19.28822
636.3347, 19.17475
636.8168, 19.06680
637.2990, 19.07435
637.7811, 19.11276
638.2632, 19.06396
638.7453, 18.89908
639.2274, 18.74903
639.7095, 18.72359
640.1917, 18.76623
640.6738, 18.77719
641.1559, 18.75046
641.6380, 18.71893
642.1201, 18.70025
642.6022, 18.68759
643.0844, 18.66260
643.5665, 18.59822
644.0486, 18.58155
644.5307, 18.68768
645.0128, 18.76887
645.4949, 18.73297
645.9771, 18.61178
646.4592, 18.45891
646.9413, 18.29566
647.4234, 18.17706
647.9055, 18.21968
648.3876, 18.41870
648.8698, 18.52437
649.3519, 18.48962
649.8340, 18.42283
650.3161, 18.38394
650.7982, 18.35962
651.2803, 18.32123
651.7625, 18.25454
652.2446, 18.20576
652.7267, 18.21845
653.2088, 18.24234
653.6909, 18.18433
654.1730, 18.07014
654.6552, 18.04931
655.1373, 18.22137
655.6194, 18.50524
656.1015, 18.70116
656.5836, 18.81319
657.0657, 18.82496
657.5479, 18.64561
658.0300, 18.44834
658.5121, 18.23302
658.9942, 18.06582
659.4763, 18.11105
659.9584, 18.50291
660.4406, 18.85100
660.9227, 18.66300
661.4048, 18.17501
661.8869, 18.06417
662.3690, 18.43621
662.8511, 18.79059
663.3333, 18.75691
663.8154, 18.43887
664.2975, 18.27196
664.7796, 18.45128
665.2617, 18.50748
665.7438, 18.33728
666.2260, 18.12198
666.7081, 17.94658
667.1902, 17.83314
667.6723, 17.80235
668.1544, 17.87219
668.6365, 17.99578
669.1187, 18.11028
669.6008, 18.21532
670.0829, 18.30212
670.5650, 18.36940
671.0471, 18.41970
671.5292, 18.48254
672.0114, 18.52501
672.4935, 18.43643
672.9756, 18.11099
673.4577, 17.83706
673.9398, 17.68805
674.4219, 17.63870
674.9041, 17.72170
675.3862, 17.89062
675.8683, 17.99892
676.3504, 17.95249
676.8325, 17.80958
677.3146, 17.69308
677.7968, 17.59232
678.2789, 17.57464
678.7610, 17.69784
679.2431, 17.84211
679.7252, 17.97677
680.2073, 18.07355
680.6895, 18.05388
681.1716, 17.83912
681.6537, 17.66166
682.1358, 17.75837
682.6179, 17.92437
683.1000, 17.75745
683.5822, 17.29040
684.0643, 17.03863
684.5464, 17.36860
685.0285, 18.04091
685.5106, 18.36384
685.9927, 18.18178
686.4749, 18.01475
686.9570, 17.83328
687.4391, 17.71902
687.9212, 17.78203
688.4033, 17.92173
688.8854, 17.93134
689.3676, 17.70996
689.8497, 17.50817
690.3318, 17.56901
690.8139, 17.79452
691.2960, 18.01208
691.7781, 18.19843
692.2603, 18.26578
692.7424, 18.13719
693.2245, 17.89740
693.7066, 17.76795
694.1887, 17.79859
694.6708, 17.84432
695.1530, 17.96630
695.6351, 18.03924
696.1172, 17.94891
696.5993, 17.78299
697.0814, 17.70829
697.5635, 17.78735
698.0457, 17.88089
698.5278, 17.82930
699.0099, 17.67955
699.4920, 17.56652
699.9741, 17.49796
700.4562, 17.52703
700.9384, 17.72809
701.4205, 17.98437
701.9026, 18.03183
702.3847, 17.74162
702.8668, 17.58965
703.3489, 17.70083
703.8311, 17.82795
704.3132, 17.84673
704.7953, 17.80057
705.2774, 17.77982
705.7595, 17.81015
706.2416, 17.82238
706.7238, 17.69613
707.2059, 17.48278
707.6880, 17.43271
708.1701, 17.57150
708.6522, 17.70750
709.1343, 17.77255
709.6164, 17.78025
710.0985, 17.73731
710.5806, 17.63300
711.0627, 17.55893
711.5449, 17.54341
712.0270, 17.53470
712.5091, 17.46817
712.9912, 17.41082
713.4733, 17.49837
713.9554, 17.73951
714.4376, 17.94403
714.9197, 17.89337
715.4018, 17.67218
715.8839, 17.61439
716.3660, 17.73424
716.8481, 17.93726
717.3303, 18.30035
717.8124, 18.58964
718.2945, 18.45768
718.7766, 17.94168
719.2587, 17.55840
719.7408, 17.38259
720.2230, 17.31038
720.7051, 17.33231
721.1872, 17.41791
721.6693, 17.55881
722.1514, 17.73575
722.6335, 17.89794
723.1157, 18.01687
723.5978, 18.07635
724.0799, 17.99861
724.5620, 17.76165
725.0441, 17.61074
725.5262, 17.60536
726.0084, 17.67498
726.4905, 17.82474
726.9726, 18.00860
727.4547, 18.03773
727.9368, 17.75614
728.4189, 17.54907
728.9011, 17.54304
729.3832, 17.65249
729.8653, 17.84708
730.3474, 18.08461
730.8295, 18.29700
731.3116, 18.45340
731.7938, 18.50793
732.2759, 18.30299
732.7580, 17.83215
733.2401, 17.61576
733.7222, 17.78139
734.2043, 17.97632
734.6865, 17.99586
735.1686, 17.91017
735.6507, 17.86782
736.1328, 17.86138
736.6149, 17.92253
737.0970, 18.14219
737.5792, 18.35316
738.0613, 18.47179
738.5434, 18.48666
739.0255, 18.33694
739.5076, 18.01778
739.9897, 17.75352
740.4719, 17.90120
740.9540, 18.37210
741.4361, 18.46882
741.9182, 18.09623
742.4003, 17.83816
742.8824, 17.95304
743.3646, 18.23222
743.8467, 18.43659
744.3288, 18.56997
744.8109, 18.59237
745.2930, 18.30790
745.7751, 18.13667
746.2573, 18.37358
746.7394, 18.74656
747.2215, 18.93036
747.7036, 18.88631
748.1857, 18.77521
748.6678, 18.69965
749.1500, 18.66305
749.6321, 18.69725
750.1142, 18.80222
750.5963, 18.83595
751.0784, 18.74162
751.5605, 18.66005
752.0427, 18.73778
752.5248, 18.92859
753.0069, 18.97217
753.4890, 18.67505
753.9711, 18.54366
754.4532, 18.78176
754.9354, 19.08204
755.4175, 19.24590
755.8996, 19.28706
756.3817, 19.27742
756.8638, 19.24342
757.3459, 19.22086
757.8281, 19.25543
758.3102, 19.33718
758.7923, 19.43582
759.2744, 19.55107
759.7565, 19.64540
760.2386, 19.68841
760.7208, 19.72475
761.2029, 19.84332
761.6850, 20.08908
762.1671, 20.23165
762.6492, 20.21938
763.1313, 20.17390
763.6135, 20.11907
764.0956, 20.05933
764.5777, 19.97742
765.0598, 19.88275
765.5419, 19.83990
766.0240, 19.90273
766.5062, 20.03034
766.9883, 20.16791
767.4704, 20.32010
767.9525, 20.51332
768.4346, 20.75613
768.9167, 21.00367
769.3989, 21.23608
769.8810, 21.42869
770.3631, 21.40082
770.8452, 20.87757
771.3273, 20.63641
771.8094, 20.97104
772.2916, 21.35339
772.7737, 21.47458
773.2558, 21.43932
773.7379, 21.49595
774.2200, 21.72712
774.7021, 21.99398
775.1843, 22.22962
775.6664, 22.43218
776.1485, 22.54516
776.6306, 22.61167
777.1127, 22.82862
777.5948, 23.28880
778.0770, 23.81632
778.5591, 24.13273
779.0412, 24.22523
779.5233, 24.39405
780.0054, 24.65191
780.4875, 24.95914
780.9697, 25.26754
781.4518, 25.64946
781.9339, 26.19546
782.4160, 26.89684
782.8981, 27.59847
783.3802, 28.33177
783.8624, 28.97779
784.3445, 29.38866
784.8266, 29.72826
785.3087, 30.10934
785.7908, 30.61531
786.2729, 31.45834
786.7551, 32.81030
787.2372, 34.44778
787.7193, 35.84617
788.2014, 37.00700
788.6835, 38.53528
789.1656, 40.52797
789.6478, 42.78391
790.1299, 45.23336
790.6120, 47.81424
791.0941, 50.31380
791.5762, 52.59019
792.0583, 55.23600
792.5404, 58.52928
793.0225, 61.93003
793.5046, 65.23963
793.9868, 68.48870
794.4689, 71.72361
794.9510, 74.96772
795.4331, 78.34164
795.9152, 81.88482
796.3973, 85.65095
796.8795, 89.73618
797.3616, 94.12580
797.8437, 98.48188
798.3258, 102.7073
798.8079, 107.4992
799.2900, 113.5036
799.7722, 120.5954
800.2543, 127.8516
800.7364, 135.1550
801.2185, 142.9084
801.7006, 151.2703
802.1827, 159.9509
802.6649, 169.0631
803.1470, 178.2858
803.6291, 187.0295
804.1112, 195.1769
804.5933, 202.7466
805.0754, 210.5380
805.5576, 217.0394
806.0397, 220.9530
806.5218, 222.2833
807.0039, 221.2607
807.4860, 217.9701
807.9681, 212.4362
808.4503, 204.3845
808.9324, 194.2161
809.4145, 184.0649
809.8966, 173.8673
810.3787, 163.7989
810.8608, 153.8938
811.3430, 144.2055
811.8251, 134.5666
812.3072, 125.1520
812.7893, 116.9714
813.2714, 110.6607
813.7535, 104.6544
814.2357, 98.59887
814.7178, 92.93019
815.1999, 87.99657
815.6820, 83.73125
816.1641, 79.97979
816.6462, 76.70371
817.1284, 73.76517
817.6105, 70.93963
818.0926, 68.44945
818.5747, 66.86979
819.0568, 66.10049
819.5389, 65.38267
820.0211, 64.43496
820.5032, 63.71705
820.9853, 63.77298
821.4674, 64.56741
821.9495, 65.51568
822.4316, 66.48363
822.9138, 67.91277
823.3959, 69.85693
823.8780, 72.32005
824.3601, 75.33946
824.8422, 78.84990
825.3243, 82.70571
825.8065, 86.96959
826.2886, 91.33167
826.7707, 95.56887
827.2528, 99.96748
827.7349, 104.6895
828.2170, 109.7828
828.6992, 115.4185
829.1813, 121.6387
829.6634, 127.8719
830.1455, 133.1503
830.6276, 138.0359
831.1097, 144.5156
831.5919, 152.5357
832.0740, 161.1554
832.5561, 170.0932
833.0382, 179.5461
833.5203, 189.6879
834.0024, 200.5132
834.4846, 212.5186
834.9667, 225.8753
835.4488, 240.0435
835.9309, 255.1331
836.4130, 270.7065
836.8951, 287.2679
837.3773, 304.0387
837.8594, 320.1352
838.3415, 335.5479
838.8236, 348.7052
839.3057, 359.8475
839.7878, 367.5507
840.2700, 370.8440
840.7521, 369.5501
841.2342, 363.3261
841.7163, 352.1839
842.1984, 336.4025
842.6805, 315.7716
843.1627, 291.6019
843.6448, 267.4189
844.1269, 243.3185
844.6090, 220.0501
845.0911, 197.6426
845.5732, 176.9898
846.0554, 158.8189
846.5375, 142.9273
847.0196, 128.8584
847.5017, 116.9101
847.9838, 106.3198
848.4659, 97.20695
848.9481, 89.21867
849.4302, 82.40192
849.9123, 76.48567
850.3944, 71.16614
850.8765, 66.39991
851.3586, 62.29476
851.8408, 59.14520
852.3229, 56.41529
852.8050, 53.58551
853.2871, 50.86065
853.7692, 48.62239
854.2513, 46.89543
854.7335, 45.43382
855.2156, 44.12148
855.6977, 42.84480
856.1798, 41.31702
856.6619, 39.55480
857.1440, 38.23542
857.6262, 37.48581
858.1083, 36.69044
858.5904, 35.52791
859.0725, 34.28904
859.5546, 33.38465
860.0367, 32.84758
860.5189, 32.28554
861.0010, 31.60880
861.4831, 31.03077
861.9652, 30.72199
862.4473, 30.40265
862.9294, 29.76616
863.4116, 28.94441
863.8937, 28.35521
864.3758, 28.17761
864.8579, 28.05475
865.3400, 27.68759
865.8221, 27.31464
866.3043, 27.34979
866.7864, 27.60193
867.2685, 27.48088
867.7506, 26.81439
868.2327, 26.04019
868.7148, 25.59184
869.1970, 25.41327
869.6791, 25.37025
870.1612, 25.46279
870.6433, 25.42941
871.1254, 25.18472
871.6075, 24.95492
872.0897, 24.92803
872.5718, 25.03390
873.0539, 25.03689
873.5360, 24.82373
874.0181, 24.76780
874.5002, 25.04662
874.9823, 25.27933
875.4644, 25.29818
875.9465, 25.23394
876.4286, 25.21396
876.9108, 25.25502
877.3929, 25.38079
877.8750, 25.57478
878.3571, 25.88334
878.8392, 26.37837
879.3214, 26.97366
879.8035, 27.64233
880.2856, 28.31388
880.7677, 28.82032
881.2498, 29.07220
881.7319, 29.19147
882.2141, 29.24407
882.6962, 29.30010
883.1783, 29.60015
883.6604, 30.13446
884.1425, 30.69676
884.6246, 31.20939
885.1068, 31.75731
885.5889, 32.42049
886.0710, 33.20367
886.5531, 34.16846
887.0352, 35.43258
887.5173, 36.52541
887.9995, 37.25581
888.4816, 37.99627
888.9637, 39.12140
889.4458, 40.37819
889.9279, 41.23652
890.4100, 41.58705
890.8922, 41.94949
891.3743, 42.72984
891.8564, 43.15342
892.3385, 42.76470
892.8206, 41.89431
893.3027, 40.88095
893.7849, 39.78037
894.2670, 38.55715
894.7491, 37.19844
895.2312, 35.69595
895.7133, 33.89264
896.1954, 32.02216
896.6776, 30.50128
897.1597, 29.31602
897.6418, 28.20180
898.1239, 27.05197
898.6060, 25.98516
899.0881, 25.15812
899.5703, 24.54572
900.0524, 24.02343
900.5345, 23.59771
901.0166, 23.14544
901.4987, 22.61979
901.9808, 22.12778
902.4630, 21.76335
902.9451, 21.49221
903.4272, 21.19387
903.9093, 20.84711
904.3914, 20.51736
904.8735, 20.11297
905.3557, 19.84303
905.8378, 19.94743
906.3199, 20.11250
906.8020, 19.89347
907.2841, 19.31254
907.7662, 19.03146
908.2484, 19.51309
908.7305, 19.93403
909.2126, 19.90524
909.6947, 19.71595
910.1768, 19.62671
910.6589, 19.61503
911.1411, 19.53635
911.6232, 19.33515
912.1053, 19.12908
912.5874, 18.96980
913.0695, 18.89914
913.5516, 19.05056
914.0338, 19.34388
914.5159, 19.54123
914.9980, 19.58649
915.4801, 19.53556
915.9622, 19.40775
916.4443, 19.29401
916.9265, 19.45225
917.4086, 19.88175
917.8907, 20.20722
918.3728, 20.38424
918.8549, 20.56696
919.3370, 20.80934
919.8192, 21.13055
920.3013, 21.58150
920.7834, 22.17168
921.2655, 22.61781
921.7476, 22.71654
922.2297, 23.02345
922.7119, 23.80936
923.1940, 24.63163
923.6761, 25.18909
924.1582, 25.61182
924.6403, 26.20703
925.1224, 27.07677
925.6046, 27.78230
926.0867, 27.91125
926.5688, 28.19188
927.0509, 29.16306
927.5330, 30.39944
928.0151, 31.35032
928.4973, 32.02394
928.9794, 32.81001
929.4615, 33.86521
929.9436, 35.17272
930.4257, 36.86717
930.9078, 38.73040
931.3900, 40.49498
931.8721, 42.13762
932.3542, 43.68353
932.8363, 45.13116
933.3184, 46.40266
933.8005, 47.46468
934.2827, 48.23047
934.7648, 48.44025
935.2469, 48.11830
935.7290, 47.45936
936.2111, 46.49186
936.6932, 45.30563
937.1754, 43.95783
937.6575, 42.39798
938.1396, 40.44947
938.6217, 38.03534
939.1038, 36.25982
939.5859, 35.52136
940.0681, 34.29612
940.5502, 31.77945
941.0323, 29.22303
941.5144, 27.77395
941.9965, 27.16282
942.4786, 26.21727
942.9608, 24.58201
943.4429, 23.35624
943.9250, 22.87457
944.4071, 22.46620
944.8892, 21.81446
945.3713, 21.12276
945.8535, 20.67398
946.3356, 20.45435
946.8177, 20.17019
947.2998, 19.67806
947.7819, 19.17534
948.2640, 18.74942
948.7462, 18.36646
949.2283, 17.96425
949.7104, 17.58908
950.1925, 17.35525
950.6746, 17.28860
951.1567, 17.25554
951.6389, 17.14981
952.1210, 17.02258
952.6031, 16.94706
953.0852, 16.89797
953.5673, 16.83018
954.0494, 16.73158
954.5316, 16.57575
955.0137, 16.34496
955.4958, 16.11157
955.9779, 16.00913
956.4600, 15.99829
956.9421, 15.85177
957.4242, 15.57633
957.9063, 15.39355
958.3884, 15.36181
958.8705, 15.41098
959.3527, 15.48941
959.8348, 15.59662
960.3169, 15.74734
960.7990, 15.97238
961.2811, 16.07809
961.7632, 16.05701
962.2454, 15.91395
962.7275, 15.55943
963.2096, 15.21505
963.6917, 15.15554
964.1738, 15.34875
964.6559, 15.43312
965.1381, 15.28633
965.6202, 15.22894
966.1023, 15.42205
966.5844, 15.53181
967.0665, 15.32759
967.5486, 15.00319
968.0308, 14.80866
968.5129, 14.76104
968.9950, 14.76523
969.4771, 14.87966
969.9592, 14.93892
970.4413, 14.81475
970.9235, 14.67866
971.4056, 14.67961
971.8877, 14.77415
972.3698, 14.87004
972.8519, 14.94292
973.3340, 14.95348
973.8162, 14.83718
974.2983, 14.69323
974.7804, 14.53372
975.2625, 14.43790
975.7446, 14.62271
976.2267, 14.98697
976.7089, 15.11033
977.1910, 14.78409
977.6731, 14.39054
978.1552, 14.32158
978.6373, 14.44995
979.1194, 14.61742
979.6016, 14.78341
980.0837, 14.82917
980.5658, 14.73912
981.0479, 14.59388
981.5300, 14.44070
982.0121, 14.31279
982.4943, 14.27662
982.9764, 14.32165
983.4585, 14.38268
983.9406, 14.45884
984.4227, 14.62350
984.9048, 14.90962
985.3870, 15.16443
985.8691, 15.25737
986.3512, 15.19528
986.8333, 14.95606
987.3154, 14.49986
987.7975, 14.19881
988.2797, 14.08254
988.7618, 14.08426
989.2439, 14.20998
989.7260, 14.38294
990.2081, 14.54714
990.6902, 14.68323
991.1724, 14.58977
991.6545, 14.09647
992.1366, 13.76898
992.6187, 13.67150
993.1008, 13.70203
993.5829, 13.90847
994.0651, 14.15212
994.5472, 14.22636
995.0293, 14.12797
995.5114, 14.05768
995.9935, 13.99706
996.4756, 13.99515
996.9578, 14.15270
997.4399, 14.27094
997.9220, 14.21265
998.4041, 14.05452
998.8862, 13.89741
999.3683, 13.75256
999.8505, 13.68900
1000.333, 13.82914
1000.815, 13.91556
1001.297, 13.73349
1001.779, 13.56741
1002.261, 13.74848
1002.743, 14.10116
1003.225, 14.23237
1003.707, 14.04351
1004.190, 13.81291
1004.672, 13.65080
1005.154, 13.52540
1005.636, 13.33788
1006.118, 13.22814
1006.600, 13.51568
1007.082, 14.01589
1007.564, 14.13474
1008.046, 13.65026
1008.529, 13.16729
1009.011, 13.23122
1009.493, 13.47560
1009.975, 13.46391
1010.457, 13.35314
1010.939, 13.49297
1011.421, 13.84850
1011.903, 14.06926
1012.385, 13.98106
1012.868, 13.80265
1013.350, 13.77519
1013.832, 13.81890
1014.314, 13.75865
1014.796, 13.64359
1015.278, 13.65502
1015.760, 13.80057
1016.242, 13.89287
1016.725, 13.81811
1017.207, 13.68416
1017.689, 13.66903
1018.171, 13.72212
1018.653, 13.62970
1019.135, 13.41972
1019.617, 13.30786
1020.099, 13.33871
1020.581, 13.36911
1021.064, 13.29352
1021.546, 13.20404
1022.028, 13.33005
1022.510, 13.63598
1022.992, 13.66289
1023.474, 13.40279
1023.956, 13.16992
1024.438, 13.03568
1024.921, 13.03853
1025.403, 13.23626
1025.885, 13.51022
1026.367, 13.57052
1026.849, 13.40348
1027.331, 13.21997
1027.813, 12.99806
1028.295, 12.89839
1028.777, 12.99858
1029.260, 13.10221
1029.742, 13.01997
1030.224, 12.86542
1030.706, 13.00528
1031.188, 13.55956
1031.670, 13.72583
1032.152, 13.32997
1032.634, 13.07124
1033.116, 13.22902
1033.599, 13.41786
1034.081, 13.30780
1034.563, 12.98750
1035.045, 12.72680
1035.527, 12.52225
1036.009, 12.38998
1036.491, 12.34301
1036.973, 12.34488
1037.456, 12.40258
1037.938, 12.48409
1038.420, 12.55114
1038.902, 12.62323
1039.384, 12.78883
1039.866, 13.17280
1040.348, 13.29207
1040.830, 12.91305
1041.313, 12.60330
1041.795, 12.49440
1042.277, 12.52068
1042.759, 12.69389
1043.241, 12.95720
1043.723, 13.13477
1044.205, 13.22519
1044.687, 13.22775
1045.169, 13.11162
1045.651, 12.94794
1046.134, 12.66800
1046.616, 12.42555
1047.098, 12.38285
1047.580, 12.47703
1048.062, 12.51299
1048.544, 12.45282
1049.026, 12.41015
1049.508, 12.35140
1049.991, 12.37475
1050.473, 12.61464
1050.955, 12.86030
1051.437, 12.91525
1051.919, 12.83607
1052.401, 12.82293
1052.883, 12.95600
1053.365, 12.91800
1053.848, 12.37801
1054.330, 11.99362
1054.812, 12.11845
1055.294, 12.41452
1055.776, 12.66527
1056.258, 12.82942
1056.740, 12.83478
1057.222, 12.62958
1057.704, 12.53018
1058.187, 12.77609
1058.669, 12.95306
1059.151, 12.79933
1059.633, 12.57670
1060.115, 12.49808
1060.597, 12.54245
1061.079, 12.65590
1061.561, 12.84525
1062.043, 12.88383
1062.526, 12.55306
1063.008, 12.23613
1063.490, 12.10028
1063.972, 12.05583
1064.454, 12.04413
1064.936, 12.05192
1065.418, 12.06198
1065.900, 12.07038
1066.383, 12.13292
1066.865, 12.31390
1067.347, 12.49883
1067.829, 12.66987
1068.311, 12.79013
1068.793, 12.82683
1069.275, 12.78879
1069.757, 12.66681
1070.240, 12.46719
1070.722, 12.33392
1071.204, 12.40730
1071.686, 12.45441
1072.168, 12.30890
1072.650, 12.14694
1073.132, 12.05825
1073.614, 12.08354
1074.096, 12.35820
1074.578, 12.85322
1075.061, 13.12975
1075.543, 12.89048
1076.025, 12.58371
1076.507, 12.35905
1076.989, 12.21663
1077.471, 12.19697
1077.953, 12.23777
1078.435, 12.22447
1078.918, 12.16209
1079.400, 12.20516
1079.882, 12.51286
1080.364, 12.72002
1080.846, 12.56117
1081.328, 12.33510
1081.810, 12.22154
1082.292, 12.20023
1082.774, 12.26452
1083.257, 12.37993
1083.739, 12.40936
1084.221, 12.23244
1084.703, 12.19274
1085.185, 12.68982
1085.667, 13.10713
1086.149, 12.91744
1086.631, 12.50600
1087.114, 12.31575
1087.596, 12.34855
1088.078, 12.40865
1088.560, 12.44939
1089.042, 12.46703
1089.524, 12.49826
1090.006, 12.46061
1090.488, 12.21253
1090.970, 11.94866
1091.453, 11.88737
1091.935, 11.97526
1092.417, 12.01718
1092.899, 11.95452
1093.381, 11.99660
1093.863, 12.43698
1094.345, 12.72119
1094.827, 12.44850
1095.309, 12.04199
1095.792, 11.78002
1096.274, 11.69286
1096.756, 11.82220
1097.238, 12.17228
1097.720, 12.44954
1098.202, 12.62387
1098.684, 12.62657
1099.166, 12.21860
1099.649, 11.85415
1100.131, 11.94410
1100.613, 12.23042
1101.095, 12.30545
1101.577, 12.13984
1102.059, 11.97447
1102.541, 11.82246
1103.023, 11.74797
1103.505, 11.81924
1103.988, 11.91016
1104.470, 11.96637
1104.952, 11.99610
1105.434, 12.02418
1105.916, 12.04112
1106.398, 11.97858
1106.880, 11.70775
1107.362, 11.64125
1107.844, 12.09146
1108.327, 12.43864
1108.809, 12.43038
1109.291, 12.24057
1109.773, 11.91853
1110.255, 11.55873
1110.737, 11.41732
1111.219, 11.55226
1111.701, 11.74581
1112.184, 12.10723
1112.666, 12.35136
1113.148, 12.39388
1113.630, 12.32467
1114.112, 12.12932
1114.594, 11.89116
1115.076, 11.78506
1115.558, 11.83578
1116.041, 11.77075
1116.523, 11.45875
1117.005, 11.25814
1117.487, 11.27819
1117.969, 11.30598
1118.451, 11.16286
1118.933, 11.05054
1119.415, 11.28937
1119.897, 11.82959
1120.380, 12.12388
1120.862, 12.08050
1121.344, 12.00626
1121.826, 11.86982
1122.308, 11.79954
1122.790, 11.88383
1123.272, 11.97064
1123.754, 11.89422
1124.236, 11.72079
1124.719, 11.68344
1125.201, 11.81465
1125.683, 11.90326
1126.165, 11.92334
1126.647, 12.01903
1127.129, 12.26593
1127.611, 12.44771
1128.093, 12.39956
1128.576, 12.22843
1129.058, 12.11742
1129.540, 12.06896
1130.022, 12.18239
1130.504, 12.48893
1130.986, 12.54576
1131.468, 12.26216
1131.950, 11.98178
1132.432, 11.86590
1132.915, 11.85618
1133.397, 11.89633
1133.879, 11.96648
1134.361, 12.00306
1134.843, 12.00524
1135.325, 11.93522
1135.807, 11.79854
1136.289, 11.73852
1136.771, 11.80048
1137.254, 11.90879
1137.736, 12.00700
1138.218, 12.09347
1138.700, 12.21700
1139.182, 12.31598
1139.664, 12.05518
1140.146, 11.56698
1140.628, 11.51228
1141.111, 11.94183
1141.593, 12.28430
1142.075, 12.23951
1142.557, 12.04287
1143.039, 11.90071
1143.521, 11.83008
1144.003, 11.91871
1144.485, 12.07582
1144.968, 12.09634
1145.450, 12.00578
1145.932, 11.95214
1146.414, 11.98383
1146.896, 12.06839
1147.378, 12.22090
1147.860, 12.33807
1148.342, 12.31150
1148.824, 12.20191
1149.307, 11.99568
1149.789, 11.80059
1150.271, 11.84665
1150.753, 12.10022
1151.235, 12.24783
1151.717, 12.12583
1152.199, 12.06105
1152.681, 12.39856
1153.163, 12.66983
1153.646, 12.48199
1154.128, 12.13598
1154.610, 11.89601
1155.092, 11.78526
1155.574, 11.79574
1156.056, 11.92886
1156.538, 12.04522
1157.020, 12.14523
1157.503, 12.16475
1157.985, 11.97200
1158.467, 11.81868
1158.949, 11.95639
1159.431, 12.15553
1159.913, 12.04618
1160.395, 11.67350
1160.877, 11.53056
1161.359, 11.80942
1161.842, 11.98584
1162.324, 12.00506
1162.806, 11.99624
1163.288, 11.98188
1163.770, 11.95827
1164.252, 11.85541
1164.734, 11.79960
1165.216, 12.17600
1165.698, 13.07749
1166.181, 13.02702
1166.663, 11.58245
1167.145, 10.90369
1167.627, 11.49241
1168.109, 12.10369
1168.591, 12.15007
1169.073, 11.95955
1169.555, 11.90278
1170.037, 11.93582
1170.520, 11.90005
1171.002, 11.79637
1171.484, 11.59929
1171.966, 11.31653
1172.448, 11.30321
1172.930, 11.64811
1173.412, 11.93850
1173.894, 11.89015
1174.377, 11.71474
1174.859, 11.71710
1175.341, 11.84452
1175.823, 12.01325
1176.305, 12.17006
1176.787, 12.13108
1177.269, 11.90923
1177.751, 11.64208
1178.234, 11.38702
1178.716, 11.17220
1179.198, 11.00690
1179.680, 10.91906
1180.162, 10.97097
1180.644, 11.09256
1181.126, 11.26553
1181.608, 11.40595
1182.090, 11.30856
1182.573, 11.03335
1183.055, 10.91935
1183.537, 11.11711
1184.019, 11.30306
1184.501, 11.33369
1184.983, 11.27322
1185.465, 11.02130
1185.947, 10.82226
1186.429, 11.00304
1186.912, 11.33393
1187.394, 11.34664
1187.876, 11.01073
1188.358, 10.80095
1188.840, 10.87640
1189.322, 10.94770
1189.804, 10.97927
1190.286, 11.01387
1190.769, 11.15273
1191.251, 11.20253
1191.733, 10.90352
1192.215, 10.43894
1192.697, 10.28583
1193.179, 10.46710
1193.661, 10.82321
1194.143, 11.51404
1194.625, 11.72026
1195.108, 11.20346
1195.590, 10.67122
1196.072, 10.43893
1196.554, 10.45941
1197.036, 10.73779
1197.518, 11.11765
1198.000, 11.02854
1198.482, 10.54517
1198.964, 10.35953
1199.447, 10.46772
1199.929, 10.56654
1200.411, 10.59044
1200.893, 10.66665
1201.375, 10.87179
1201.857, 11.05821
1202.339, 10.99922
1202.821, 10.86442
1203.304, 10.99051
1203.786, 11.20799
1204.268, 11.19425
1204.750, 11.00573
1205.232, 10.83811
1205.714, 10.75078
1206.196, 10.75351
1206.678, 10.88961
1207.161, 10.99472
1207.643, 10.94010
1208.125, 10.84927
1208.607, 10.78034
1209.089, 10.74313
1209.571, 10.75893
1210.053, 10.80666
1210.535, 10.83399
1211.017, 10.83121
1211.500, 10.85607
1211.982, 11.01806
1212.464, 11.05112
1212.946, 10.72715
1213.428, 10.52971
1213.910, 10.75650
1214.392, 11.03844
1214.874, 10.98481
1215.356, 10.73821
1215.839, 10.76691
1216.321, 11.12822
1216.803, 11.20000
1217.285, 10.95066
1217.767, 10.56030
1218.249, 10.02060
1218.731, 9.748950
1219.213, 9.960507
1219.696, 10.38410
1220.178, 10.77480
1220.660, 11.03596
1221.142, 10.80368
1221.624, 10.28196
1222.106, 10.19844
1222.588, 10.45862
1223.070, 10.61532
1223.552, 10.59876
1224.035, 10.58153
1224.517, 10.64441
1224.999, 10.70682
1225.481, 10.71975
1225.963, 10.67996
1226.445, 10.50677
1226.927, 10.34846
1227.409, 10.40504
1227.891, 10.56895
1228.374, 10.66433
1228.856, 10.66789
1229.338, 10.62840
1229.820, 10.55536
1230.302, 10.44874
1230.784, 10.18676
1231.266, 10.05972
1231.748, 10.23219
1232.231, 10.49172
1232.713, 10.85068
1233.195, 11.08802
1233.677, 10.76663
1234.159, 10.00035
1234.641, 9.872000
1235.123, 10.59299
1235.605, 10.92108
1236.088, 10.75202
1236.570, 10.58699
1237.052, 10.55053
1237.534, 10.57908
1238.016, 10.63299
1238.498, 10.72909
1238.980, 10.92864
1239.462, 11.14969
1239.944, 11.15605
1240.427, 11.00377
1240.909, 10.81136
1241.391, 10.62527
1241.873, 10.56435
1242.355, 10.62995
1242.837, 10.66918
1243.319, 10.60280
1243.801, 10.48504
1244.283, 10.30952
1244.766, 10.15332
1245.248, 10.00846
1245.730, 9.972555
1246.212, 10.22016
1246.694, 10.60565
1247.176, 10.92511
1247.658, 11.13619
1248.140, 11.13496
1248.622, 10.73396
1249.105, 10.48761
1249.587, 10.52269
1250.069, 10.55727
1250.551, 10.50526
1251.033, 10.47755
1251.515, 10.54310
1251.997, 10.67818
1252.479, 10.87541
1252.962, 11.09452
1253.444, 11.07710
1253.926, 10.82848
1254.408, 10.59896
1254.890, 10.41443
1255.372, 10.49376
1255.854, 10.85447
1256.336, 11.07708
1256.818, 10.91703
1257.301, 10.63190
1257.783, 10.45543
1258.265, 10.37224
1258.747, 10.42729
1259.229, 10.51549
1259.711, 10.44781
1260.193, 10.31912
1260.675, 10.34389
1261.157, 10.51849
1261.640, 10.66348
1262.122, 10.72626
1262.604, 10.74739
1263.086, 10.74490
1263.568, 10.69524
1264.050, 10.52441
1264.532, 10.37929
1265.014, 10.29823
1265.497, 10.34081
1265.979, 10.68597
1266.461, 11.17988
1266.943, 11.09659
1267.425, 10.29495
1267.907, 10.02366
1268.389, 10.33381
1268.871, 10.64109
1269.354, 10.84392
1269.836, 10.95006
1270.318, 10.96350
1270.800, 10.89149
1271.282, 10.70216
1271.764, 10.55150
1272.246, 10.83746
1272.728, 11.23495
1273.210, 11.01949
1273.693, 10.55530
1274.175, 10.69430
1274.657, 11.26418
1275.139, 11.35788
1275.621, 10.75374
1276.103, 10.30437
1276.585, 10.44355
1277.067, 10.66246
1277.549, 10.93472
1278.032, 11.07154
1278.514, 10.81536
1278.996, 10.54813
1279.478, 10.64279
1279.960, 10.92026
1280.442, 11.02935
1280.924, 10.97629
1281.406, 10.96843
1281.889, 11.01498
1282.371, 11.01500
1282.853, 10.95363
1283.335, 11.07414
1283.817, 11.44220
1284.299, 11.62255
1284.781, 11.32676
1285.263, 10.87090
1285.745, 10.57687
1286.228, 10.44466
##END=



