##NAMES=Tephroite
##RRUFFID=R070511
##IDEAL CHEMISTRY=Mn^2+^_2_SiO_4_
##LOCALITY=Langban, Filipstad, Varmland, Sweden
##OWNER=RRUFF
##SOURCE=Michael Scott
##DESCRIPTION=Light gray vitreous massive
##STATUS=The identification of this mineral is confirmed by single-crystal X-ray diffraction and chemical analysis.
##URL=rruff.info/R070511
##MEASURED CHEMISTRY=(Mn^2+^_1.47_Mg_0.49_Ca_0.04_)_Î£=2_Si_1.00_O_4_
160.5627, 4312.822
161.0449, 4374.439
161.5270, 4442.439
162.0091, 4519.597
162.4912, 4619.031
162.9733, 4728.651
163.4554, 4827.379
163.9376, 4906.083
164.4197, 4969.358
164.9018, 5024.702
165.3839, 5072.667
165.8660, 5110.409
166.3481, 5134.514
166.8303, 5148.000
167.3124, 5154.398
167.7945, 5154.051
168.2766, 5147.879
168.7587, 5137.672
169.2408, 5122.960
169.7230, 5104.853
170.2051, 5076.602
170.6872, 5046.456
171.1693, 5028.601
171.6514, 5033.775
172.1335, 5053.625
172.6157, 5066.770
173.0978, 5069.252
173.5799, 5072.948
174.0620, 5086.792
174.5441, 5104.502
175.0262, 5115.979
175.5084, 5113.137
175.9905, 5102.898
176.4726, 5104.163
176.9547, 5118.981
177.4368, 5142.850
177.9189, 5182.599
178.4010, 5226.816
178.8832, 5258.751
179.3653, 5267.554
179.8474, 5261.680
180.3295, 5266.666
180.8116, 5288.202
181.2937, 5311.142
181.7759, 5327.378
182.2580, 5342.830
182.7401, 5366.848
183.2222, 5406.887
183.7043, 5453.704
184.1864, 5478.433
184.6686, 5463.773
185.1507, 5456.695
185.6328, 5471.885
186.1149, 5499.342
186.5970, 5529.699
187.0791, 5559.965
187.5613, 5586.793
188.0434, 5599.468
188.5255, 5583.089
189.0076, 5578.572
189.4897, 5602.007
189.9718, 5636.645
190.4540, 5665.884
190.9361, 5682.193
191.4182, 5689.456
191.9003, 5696.621
192.3824, 5703.257
192.8645, 5710.694
193.3467, 5719.353
193.8288, 5728.692
194.3109, 5738.784
194.7930, 5749.702
195.2751, 5760.091
195.7572, 5765.901
196.2394, 5760.705
196.7215, 5763.575
197.2036, 5784.325
197.6857, 5808.799
198.1678, 5823.018
198.6499, 5822.570
199.1321, 5816.306
199.6142, 5820.624
200.0963, 5839.300
200.5784, 5862.067
201.0605, 5898.301
201.5426, 5931.389
202.0248, 5946.029
202.5069, 5938.803
202.9890, 5920.624
203.4711, 5908.824
203.9532, 5906.676
204.4353, 5903.833
204.9175, 5892.415
205.3996, 5885.119
205.8817, 5895.765
206.3638, 5924.753
206.8459, 5955.751
207.3280, 5964.172
207.8102, 5936.698
208.2923, 5920.319
208.7744, 5917.893
209.2565, 5922.984
209.7386, 5936.995
210.2207, 5957.313
210.7029, 5974.658
211.1850, 5975.325
211.6671, 5950.538
212.1492, 5941.769
212.6313, 5963.011
213.1134, 5987.124
213.5956, 6000.071
214.0777, 6002.487
214.5598, 6004.434
215.0419, 6017.338
215.5240, 6044.371
216.0061, 6060.756
216.4883, 6049.890
216.9704, 6043.956
217.4525, 6060.220
217.9346, 6093.214
218.4167, 6125.220
218.8988, 6141.246
219.3810, 6140.860
219.8631, 6140.074
220.3452, 6134.345
220.8273, 6132.771
221.3094, 6137.497
221.7915, 6148.388
222.2737, 6166.093
222.7558, 6192.794
223.2379, 6226.726
223.7200, 6246.463
224.2021, 6235.538
224.6842, 6227.504
225.1664, 6228.173
225.6485, 6236.300
226.1306, 6250.523
226.6127, 6270.850
227.0948, 6294.780
227.5770, 6311.197
228.0591, 6309.573
228.5412, 6314.812
229.0233, 6336.659
229.5054, 6365.087
229.9875, 6387.940
230.4697, 6399.580
230.9518, 6405.080
231.4339, 6418.412
231.9160, 6451.436
232.3981, 6470.976
232.8802, 6461.399
233.3624, 6444.823
233.8445, 6441.229
234.3266, 6457.047
234.8087, 6482.864
235.2908, 6501.644
235.7729, 6507.249
236.2551, 6520.811
236.7372, 6551.425
237.2193, 6584.586
237.7014, 6609.669
238.1835, 6625.145
238.6656, 6638.614
239.1478, 6660.596
239.6299, 6694.579
240.1120, 6724.269
240.5941, 6743.512
241.0762, 6762.903
241.5583, 6791.823
242.0405, 6827.941
242.5226, 6858.265
243.0047, 6865.302
243.4868, 6845.655
243.9689, 6844.228
244.4510, 6883.667
244.9332, 6920.806
245.4153, 6940.458
245.8974, 6944.596
246.3795, 6941.532
246.8616, 6937.422
247.3437, 6931.521
247.8259, 6917.338
248.3080, 6891.311
248.7901, 6860.790
249.2722, 6821.906
249.7543, 6781.623
250.2364, 6751.904
250.7186, 6741.058
251.2007, 6742.555
251.6828, 6736.753
252.1649, 6718.409
252.6470, 6703.445
253.1291, 6701.180
253.6113, 6702.866
254.0934, 6697.358
254.5755, 6678.977
255.0576, 6658.434
255.5397, 6656.210
256.0219, 6679.427
256.5040, 6693.835
256.9861, 6674.068
257.4682, 6650.698
257.9503, 6649.078
258.4324, 6675.114
258.9146, 6706.694
259.3967, 6722.023
259.8788, 6720.663
260.3609, 6712.442
260.8430, 6691.227
261.3251, 6670.537
261.8073, 6663.334
262.2894, 6668.861
262.7715, 6670.454
263.2536, 6650.762
263.7357, 6614.551
264.2178, 6589.920
264.7000, 6581.407
265.1821, 6583.076
265.6642, 6591.554
266.1463, 6605.781
266.6284, 6622.578
267.1105, 6642.379
267.5927, 6663.399
268.0748, 6684.403
268.5569, 6708.520
269.0390, 6722.252
269.5211, 6702.033
270.0032, 6665.971
270.4854, 6645.799
270.9675, 6659.655
271.4496, 6684.556
271.9317, 6693.298
272.4138, 6685.356
272.8959, 6679.642
273.3781, 6685.727
273.8602, 6700.212
274.3423, 6716.108
274.8244, 6735.489
275.3065, 6751.980
275.7886, 6760.021
276.2708, 6761.184
276.7529, 6762.032
277.2350, 6765.081
277.7171, 6768.488
278.1992, 6768.349
278.6813, 6763.392
279.1635, 6761.240
279.6456, 6766.080
280.1277, 6775.199
280.6098, 6784.029
281.0919, 6791.572
281.5740, 6798.816
282.0562, 6806.387
282.5383, 6814.013
283.0204, 6824.941
283.5025, 6848.742
283.9846, 6870.164
284.4667, 6869.513
284.9489, 6847.380
285.4310, 6829.186
285.9131, 6837.788
286.3952, 6872.732
286.8773, 6894.619
287.3594, 6893.386
287.8416, 6890.179
288.3237, 6895.091
288.8058, 6906.371
289.2879, 6918.705
289.7700, 6929.638
290.2521, 6938.615
290.7343, 6942.854
291.2164, 6935.491
291.6985, 6932.180
292.1806, 6941.987
292.6627, 6954.729
293.1448, 6955.654
293.6270, 6939.814
294.1091, 6916.988
294.5912, 6904.149
295.0733, 6902.961
295.5554, 6910.338
296.0375, 6938.604
296.5197, 6965.901
297.0018, 6971.471
297.4839, 6956.450
297.9660, 6941.882
298.4481, 6951.451
298.9302, 6990.609
299.4124, 6977.490
299.8945, 7035.828
300.3766, 7073.364
300.8587, 7091.218
301.3408, 7030.431
301.8229, 7071.191
302.3050, 7071.256
302.7871, 7069.652
303.2693, 7124.706
303.7514, 7075.358
304.2335, 7129.511
304.7156, 7142.349
305.1977, 7174.096
305.6798, 7164.896
306.1620, 7168.346
306.6441, 7212.753
307.1262, 7234.480
307.6083, 7220.567
308.0904, 7253.516
308.5725, 7202.738
309.0547, 7225.433
309.5368, 7279.826
310.0189, 7267.972
310.5010, 7301.669
310.9831, 7286.204
311.4652, 7301.780
311.9474, 7306.351
312.4295, 7289.057
312.9116, 7276.013
313.3937, 7289.688
313.8758, 7320.370
314.3579, 7342.327
314.8401, 7336.448
315.3222, 7318.084
315.8043, 7315.593
316.2864, 7331.493
316.7685, 7348.553
317.2506, 7357.717
317.7328, 7362.003
318.2149, 7366.328
318.6970, 7371.269
319.1791, 7376.233
319.6612, 7378.324
320.1433, 7379.221
320.6255, 7388.403
321.1076, 7413.036
321.5897, 7440.971
322.0718, 7451.433
322.5539, 7442.670
323.0360, 7433.431
323.5182, 7426.319
324.0003, 7422.774
324.4824, 7425.733
324.9645, 7435.666
325.4466, 7447.990
325.9287, 7458.101
326.4109, 7465.668
326.8930, 7476.895
327.3751, 7501.147
327.8572, 7520.458
328.3393, 7522.069
328.8214, 7509.805
329.3036, 7494.502
329.7857, 7481.227
330.2678, 7471.906
330.7499, 7475.812
331.2320, 7508.210
331.7141, 7535.023
332.1963, 7548.211
332.6784, 7556.251
333.1605, 7569.066
333.6426, 7589.394
334.1247, 7611.802
334.6068, 7628.168
335.0890, 7636.116
335.5711, 7644.076
336.0532, 7645.992
336.5353, 7653.129
337.0174, 7675.573
337.4995, 7709.361
337.9817, 7741.364
338.4638, 7760.178
338.9459, 7767.643
339.4280, 7781.744
339.9101, 7815.696
340.3922, 7835.711
340.8744, 7828.419
341.3565, 7804.734
341.8386, 7775.087
342.3207, 7741.152
342.8028, 7712.850
343.2849, 7713.179
343.7671, 7749.200
344.2492, 7762.625
344.7313, 7722.536
345.2134, 7667.553
345.6955, 7626.763
346.1776, 7601.613
346.6598, 7581.959
347.1419, 7559.296
347.6240, 7537.257
348.1061, 7526.157
348.5882, 7527.935
349.0703, 7537.950
349.5525, 7558.480
350.0346, 7585.154
350.5167, 7604.388
350.9988, 7616.134
351.4809, 7617.799
351.9630, 7602.474
352.4452, 7573.214
352.9273, 7544.602
353.4094, 7521.418
353.8915, 7505.500
354.3736, 7504.634
354.8557, 7528.236
355.3379, 7543.845
355.8200, 7534.527
356.3021, 7517.818
356.7842, 7519.089
357.2663, 7542.429
357.7484, 7564.984
358.2306, 7559.191
358.7127, 7517.016
359.1948, 7491.156
359.6769, 7493.148
360.1590, 7497.456
360.6411, 7491.613
361.1233, 7479.142
361.6054, 7470.582
362.0875, 7472.782
362.5696, 7481.113
363.0517, 7476.923
363.5338, 7439.777
364.0160, 7423.996
364.4981, 7453.271
364.9802, 7493.173
365.4623, 7514.412
365.9444, 7511.061
366.4265, 7498.527
366.9087, 7489.143
367.3908, 7481.989
367.8729, 7495.254
368.3550, 7558.662
368.8371, 7607.142
369.3192, 7595.593
369.8014, 7545.009
370.2835, 7506.316
370.7656, 7506.227
371.2477, 7529.186
371.7298, 7551.771
372.2119, 7574.146
372.6941, 7594.391
373.1762, 7612.532
373.6583, 7627.104
374.1404, 7635.604
374.6225, 7636.072
375.1046, 7637.228
375.5868, 7645.146
376.0689, 7656.648
376.5510, 7663.021
377.0331, 7661.344
377.5152, 7664.132
377.9973, 7689.142
378.4795, 7739.537
378.9616, 7766.482
379.4437, 7750.597
379.9258, 7727.947
380.4079, 7718.066
380.8900, 7719.131
381.3722, 7722.224
381.8543, 7722.282
382.3364, 7721.831
382.8185, 7728.632
383.3006, 7744.255
383.7827, 7766.109
384.2649, 7806.755
384.7470, 7845.276
385.2291, 7861.775
385.7112, 7854.979
386.1933, 7840.940
386.6754, 7836.328
387.1576, 7841.763
387.6397, 7844.792
388.1218, 7840.696
388.6039, 7839.818
389.0860, 7846.986
389.5681, 7859.087
390.0503, 7871.060
390.5324, 7880.725
391.0145, 7889.742
391.4966, 7902.001
391.9787, 7918.198
392.4608, 7930.742
392.9430, 7938.679
393.4251, 7940.694
393.9072, 7933.760
394.3893, 7918.057
394.8714, 7904.628
395.3535, 7895.187
395.8357, 7892.688
396.3178, 7906.445
396.7999, 7938.275
397.2820, 7968.296
397.7641, 7983.896
398.2462, 7985.473
398.7284, 7980.598
399.2105, 7959.203
399.6926, 7942.783
400.1747, 7945.937
400.6568, 7958.099
401.1389, 7961.097
401.6211, 7948.909
402.1032, 7928.775
402.5853, 7909.473
403.0674, 7885.125
403.5495, 7881.870
404.0316, 7921.988
404.5138, 7959.489
404.9959, 7970.506
405.4780, 7958.935
405.9601, 7938.020
406.4422, 7914.688
406.9243, 7891.565
407.4065, 7879.017
407.8886, 7881.847
408.3707, 7885.667
408.8528, 7892.191
409.3349, 7895.630
409.8170, 7887.714
410.2992, 7868.351
410.7813, 7851.967
411.2634, 7856.704
411.7455, 7876.878
412.2276, 7882.502
412.7097, 7869.028
413.1919, 7847.263
413.6740, 7820.678
414.1561, 7791.285
414.6382, 7763.001
415.1203, 7729.954
415.6024, 7706.064
416.0846, 7708.652
416.5667, 7729.545
417.0488, 7744.103
417.5309, 7744.287
418.0130, 7733.572
418.4951, 7714.799
418.9773, 7682.620
419.4594, 7661.655
419.9415, 7661.352
420.4236, 7665.627
420.9057, 7662.509
421.3878, 7653.922
421.8700, 7651.167
422.3521, 7663.277
422.8342, 7683.028
423.3163, 7677.769
423.7984, 7619.640
424.2805, 7579.958
424.7627, 7568.742
425.2448, 7575.126
425.7269, 7599.820
426.2090, 7638.042
426.6911, 7667.253
427.1732, 7661.250
427.6554, 7623.185
428.1375, 7590.632
428.6196, 7562.763
429.1017, 7542.298
429.5838, 7531.871
430.0659, 7528.993
430.5481, 7531.981
431.0302, 7544.037
431.5123, 7554.076
431.9944, 7551.353
432.4765, 7538.718
432.9586, 7523.817
433.4408, 7506.022
433.9229, 7495.626
434.4050, 7509.601
434.8871, 7551.468
435.3692, 7578.495
435.8513, 7579.333
436.3335, 7572.813
436.8156, 7565.936
437.2977, 7561.208
437.7798, 7563.900
438.2619, 7577.329
438.7440, 7595.744
439.2262, 7604.973
439.7083, 7606.000
440.1904, 7594.901
440.6725, 7554.442
441.1546, 7517.401
441.6367, 7510.052
442.1189, 7527.736
442.6010, 7544.006
443.0831, 7535.260
443.5652, 7511.063
444.0473, 7512.306
444.5294, 7550.757
445.0116, 7581.713
445.4937, 7586.207
445.9758, 7575.485
446.4579, 7555.553
446.9400, 7525.230
447.4221, 7501.427
447.9043, 7498.930
448.3864, 7509.443
448.8685, 7516.568
449.3506, 7518.185
449.8327, 7515.968
450.3148, 7509.327
450.7970, 7499.386
451.2791, 7496.480
451.7612, 7509.674
452.2433, 7518.826
452.7254, 7515.827
453.2076, 7505.350
453.6897, 7490.407
454.1718, 7472.963
454.6539, 7461.898
455.1360, 7471.927
455.6181, 7510.250
456.1003, 7528.756
456.5824, 7502.009
457.0645, 7480.762
457.5466, 7486.040
458.0287, 7505.613
458.5108, 7518.804
458.9930, 7516.534
459.4751, 7506.749
459.9572, 7499.124
460.4393, 7493.663
460.9214, 7492.529
461.4035, 7498.817
461.8857, 7505.931
462.3678, 7509.271
462.8499, 7508.859
463.3320, 7503.764
463.8141, 7487.931
464.2962, 7471.833
464.7784, 7462.667
465.2605, 7460.949
465.7426, 7469.998
466.2247, 7493.083
466.7068, 7521.102
467.1889, 7535.343
467.6711, 7523.942
468.1532, 7523.860
468.6353, 7553.077
469.1174, 7577.867
469.5995, 7574.881
470.0816, 7548.551
470.5638, 7513.797
471.0459, 7477.272
471.5280, 7445.813
472.0101, 7444.807
472.4922, 7493.211
472.9743, 7520.266
473.4565, 7490.242
473.9386, 7448.430
474.4207, 7420.938
474.9028, 7409.449
475.3849, 7405.195
475.8670, 7405.901
476.3492, 7409.563
476.8313, 7415.060
477.3134, 7422.386
477.7955, 7422.277
478.2776, 7407.331
478.7597, 7384.296
479.2419, 7368.864
479.7240, 7360.234
480.2061, 7359.376
480.6882, 7373.333
481.1703, 7390.557
481.6524, 7402.677
482.1346, 7407.932
482.6167, 7403.431
483.0988, 7384.037
483.5809, 7356.358
484.0630, 7359.611
484.5451, 7427.483
485.0273, 7470.581
485.5094, 7461.570
485.9915, 7436.353
486.4736, 7423.398
486.9557, 7425.378
487.4378, 7426.570
487.9200, 7411.985
488.4021, 7387.283
488.8842, 7368.783
489.3663, 7356.535
489.8484, 7351.462
490.3305, 7357.409
490.8127, 7369.439
491.2948, 7376.624
491.7769, 7376.972
492.2590, 7378.358
492.7411, 7388.772
493.2232, 7398.594
493.7054, 7392.784
494.1875, 7372.407
494.6696, 7355.263
495.1517, 7355.726
495.6338, 7370.525
496.1159, 7378.399
496.5981, 7373.933
497.0802, 7369.744
497.5623, 7365.078
498.0444, 7362.514
498.5265, 7366.975
499.0086, 7377.254
499.4908, 7384.028
499.9729, 7378.501
500.4550, 7363.359
500.9371, 7346.512
501.4192, 7325.438
501.9013, 7313.681
502.3835, 7321.616
502.8656, 7340.033
503.3477, 7354.898
503.8298, 7366.336
504.3119, 7372.391
504.7940, 7370.348
505.2762, 7363.625
505.7583, 7353.138
506.2404, 7340.553
506.7225, 7334.013
507.2046, 7339.833
507.6867, 7354.734
508.1689, 7364.367
508.6510, 7366.009
509.1331, 7366.036
509.6152, 7363.216
510.0973, 7360.210
510.5794, 7358.787
511.0616, 7359.084
511.5437, 7360.170
512.0258, 7360.173
512.5079, 7361.240
512.9901, 7370.635
513.4722, 7389.777
513.9543, 7409.552
514.4364, 7435.671
514.9185, 7452.571
515.4006, 7433.468
515.8828, 7374.149
516.3649, 7333.702
516.8470, 7345.337
517.3291, 7372.180
517.8112, 7383.570
518.2933, 7378.918
518.7755, 7364.220
519.2576, 7341.206
519.7397, 7316.709
520.2218, 7308.667
520.7039, 7335.939
521.1860, 7343.212
521.6682, 7314.606
522.1503, 7283.350
522.6324, 7267.778
523.1145, 7264.358
523.5966, 7261.396
524.0787, 7253.960
524.5609, 7241.137
525.0430, 7216.396
525.5251, 7179.896
526.0072, 7157.742
526.4893, 7160.725
526.9714, 7172.442
527.4536, 7178.049
527.9357, 7177.955
528.4178, 7172.035
528.8999, 7149.658
529.3820, 7131.908
529.8641, 7135.832
530.3463, 7152.504
530.8284, 7166.074
531.3105, 7170.923
531.7926, 7167.179
532.2747, 7154.086
532.7568, 7129.982
533.2390, 7106.284
533.7211, 7072.491
534.2032, 7051.812
534.6853, 7063.962
535.1674, 7088.280
535.6495, 7094.278
536.1317, 7071.590
536.6138, 7046.040
537.0959, 7046.348
537.5780, 7063.308
538.0601, 7064.145
538.5422, 7042.828
539.0244, 7022.681
539.5065, 7020.670
539.9886, 7033.561
540.4707, 7044.701
540.9528, 7058.673
541.4349, 7065.083
541.9171, 7055.730
542.3992, 7041.840
542.8813, 7034.693
543.3634, 7034.718
543.8455, 7034.451
544.3276, 7027.216
544.8098, 7015.589
545.2919, 7011.050
545.7740, 7015.132
546.2561, 7022.212
546.7382, 7037.038
547.2203, 7049.649
547.7025, 7049.749
548.1846, 7038.338
548.6666, 7029.788
549.1487, 7036.409
549.6309, 7044.765
550.1130, 7039.341
550.5951, 7022.141
551.0772, 7000.915
551.5593, 6977.167
552.0414, 6958.248
552.5236, 6957.089
553.0057, 6980.837
553.4878, 6998.388
553.9699, 7014.664
554.4520, 7020.596
554.9341, 7001.426
555.4163, 6972.958
555.8984, 6961.101
556.3805, 6975.666
556.8626, 6998.522
557.3447, 7007.415
557.8268, 7004.265
558.3090, 7005.053
558.7911, 7012.113
559.2732, 7020.624
559.7553, 7030.931
560.2374, 7039.550
560.7195, 7035.721
561.2017, 7006.210
561.6838, 6987.304
562.1659, 7003.640
562.6480, 7028.089
563.1301, 7026.766
563.6122, 7000.992
564.0944, 6980.411
564.5765, 6987.953
565.0586, 7014.995
565.5407, 7026.761
566.0228, 7016.551
566.5049, 7008.007
566.9871, 7007.989
567.4692, 7008.511
567.9513, 7005.562
568.4334, 6998.866
568.9155, 6988.420
569.3976, 6966.029
569.8798, 6947.191
570.3619, 6951.667
570.8440, 6973.358
571.3261, 6992.881
571.8082, 7004.627
572.2903, 7009.084
572.7725, 7004.880
573.2546, 6989.870
573.7367, 6986.667
574.2188, 7015.482
574.7009, 7031.341
575.1830, 7011.558
575.6652, 6979.000
576.1473, 6957.918
576.6294, 6954.060
577.1115, 6959.877
577.5936, 6972.664
578.0757, 6989.589
578.5579, 7001.462
579.0400, 7008.095
579.5221, 7010.235
580.0042, 7008.591
580.4863, 7002.257
580.9684, 6985.561
581.4506, 6915.214
581.9327, 6960.624
582.4148, 6985.232
582.8969, 6990.156
583.3790, 6916.440
583.8611, 6944.272
584.3433, 6931.407
584.8254, 6916.875
585.3075, 6958.998
585.7896, 6896.721
586.2717, 6937.946
586.7538, 6937.854
587.2360, 6956.672
587.7181, 6934.544
588.2002, 6925.062
588.6823, 6956.541
589.1644, 6965.339
589.6465, 6938.498
590.1287, 6958.517
590.6108, 6894.810
591.0929, 6904.574
591.5750, 6946.039
592.0571, 6921.256
592.5392, 6942.025
593.0214, 6945.444
593.5035, 6870.022
593.9856, 6931.715
594.4677, 6934.109
594.9498, 6875.618
595.4319, 6932.613
595.9141, 6882.515
596.3962, 6870.644
596.8783, 6887.539
597.3604, 6874.445
597.8425, 6908.631
598.3246, 6897.270
598.8068, 6881.838
599.2889, 6884.167
599.7710, 6836.169
600.2531, 6881.536
600.7352, 6863.127
601.2173, 6876.420
601.6995, 6896.898
602.1816, 6862.357
602.6637, 6886.064
603.1458, 6819.442
603.6279, 6828.401
604.1100, 6829.222
604.5922, 6878.353
605.0743, 6812.171
605.5564, 6819.030
606.0385, 6853.784
606.5206, 6862.639
607.0027, 6867.796
607.4849, 6869.405
607.9670, 6868.036
608.4491, 6863.124
608.9312, 6858.160
609.4133, 6857.634
609.8954, 6861.551
610.3776, 6859.158
610.8597, 6842.389
611.3418, 6830.150
611.8239, 6826.459
612.3060, 6829.581
612.7881, 6842.177
613.2703, 6861.382
613.7524, 6874.499
614.2345, 6868.900
614.7166, 6852.938
615.1987, 6846.886
615.6808, 6851.015
616.1630, 6861.146
616.6451, 6881.867
617.1272, 6897.594
617.6093, 6885.231
618.0914, 6844.047
618.5735, 6819.190
619.0557, 6820.748
619.5378, 6829.214
620.0199, 6844.401
620.5020, 6858.661
620.9841, 6862.532
621.4662, 6854.645
621.9484, 6840.418
622.4305, 6821.984
622.9126, 6802.255
623.3947, 6795.398
623.8768, 6804.459
624.3589, 6807.566
624.8411, 6791.888
625.3232, 6774.605
625.8053, 6783.104
626.2874, 6815.577
626.7695, 6828.999
627.2516, 6792.376
627.7338, 6762.483
628.2159, 6778.220
628.6980, 6814.727
629.1801, 6835.001
629.6622, 6830.698
630.1443, 6817.402
630.6265, 6809.152
631.1086, 6805.180
631.5907, 6801.422
632.0728, 6798.218
632.5549, 6794.202
633.0370, 6791.977
633.5192, 6785.668
634.0013, 6761.414
634.4834, 6720.885
634.9655, 6702.399
635.4476, 6738.216
635.9297, 6772.173
636.4119, 6767.303
636.8940, 6741.923
637.3761, 6727.255
637.8582, 6729.761
638.3403, 6730.708
638.8224, 6707.435
639.3046, 6667.074
639.7867, 6659.185
640.2688, 6697.211
640.7509, 6718.678
641.2330, 6691.138
641.7151, 6653.836
642.1973, 6648.706
642.6794, 6673.236
643.1615, 6697.816
643.6436, 6722.713
644.1257, 6739.385
644.6078, 6740.417
645.0900, 6731.277
645.5721, 6717.729
646.0542, 6702.341
646.5363, 6689.720
647.0184, 6684.985
647.5005, 6686.169
647.9827, 6683.501
648.4648, 6675.627
648.9469, 6669.611
649.4290, 6669.226
649.9111, 6669.164
650.3932, 6663.075
650.8754, 6652.054
651.3575, 6643.812
651.8396, 6636.440
652.3217, 6635.693
652.8038, 6650.822
653.2859, 6670.983
653.7681, 6685.608
654.2502, 6690.690
654.7323, 6678.139
655.2144, 6634.727
655.6965, 6577.764
656.1786, 6574.445
656.6608, 6637.579
657.1429, 6673.740
657.6250, 6652.650
658.1071, 6614.923
658.5892, 6592.724
659.0714, 6584.027
659.5535, 6581.649
660.0356, 6590.724
660.5177, 6598.789
660.9998, 6600.470
661.4819, 6599.784
661.9641, 6602.843
662.4462, 6608.431
662.9283, 6608.410
663.4104, 6596.316
663.8925, 6578.335
664.3746, 6567.708
664.8568, 6564.620
665.3389, 6563.695
665.8210, 6566.131
666.3031, 6565.449
666.7852, 6552.694
667.2673, 6532.767
667.7495, 6526.666
668.2316, 6543.041
668.7137, 6559.005
669.1958, 6575.697
669.6779, 6585.839
670.1600, 6578.925
670.6422, 6560.548
671.1243, 6546.140
671.6064, 6543.358
672.0885, 6547.000
672.5706, 6551.228
673.0527, 6555.750
673.5349, 6559.311
674.0170, 6562.496
674.4991, 6559.588
674.9812, 6543.525
675.4633, 6521.907
675.9454, 6515.642
676.4276, 6536.417
676.9097, 6546.867
677.3918, 6540.547
677.8739, 6529.311
678.3560, 6511.630
678.8381, 6495.875
679.3203, 6497.441
679.8024, 6521.179
680.2845, 6547.332
680.7666, 6560.742
681.2487, 6561.854
681.7308, 6544.228
682.2130, 6509.493
682.6951, 6490.093
683.1772, 6502.523
683.6593, 6529.033
684.1414, 6543.417
684.6235, 6545.471
685.1057, 6536.074
685.5878, 6499.856
686.0699, 6470.438
686.5520, 6452.740
687.0341, 6447.684
687.5162, 6463.632
687.9984, 6498.168
688.4805, 6521.603
688.9626, 6505.620
689.4447, 6478.762
689.9268, 6476.086
690.4089, 6489.655
690.8911, 6493.384
691.3732, 6480.455
691.8553, 6468.649
692.3374, 6478.224
692.8195, 6504.905
693.3016, 6508.429
693.7838, 6473.925
694.2659, 6449.306
694.7480, 6452.967
695.2301, 6460.568
695.7122, 6450.559
696.1943, 6429.484
696.6765, 6423.792
697.1586, 6455.035
697.6407, 6480.382
698.1228, 6471.606
698.6049, 6447.103
699.0870, 6424.799
699.5692, 6409.435
700.0513, 6406.875
700.5334, 6422.251
701.0155, 6444.175
701.4976, 6446.747
701.9797, 6428.714
702.4619, 6419.238
702.9440, 6425.162
703.4261, 6428.363
703.9082, 6414.273
704.3903, 6391.715
704.8724, 6383.637
705.3546, 6399.066
705.8367, 6402.097
706.3188, 6370.023
706.8009, 6342.003
707.2830, 6347.176
707.7651, 6370.693
708.2473, 6388.295
708.7294, 6392.098
709.2115, 6384.465
709.6936, 6358.936
710.1757, 6325.790
710.6578, 6314.708
711.1400, 6324.657
711.6221, 6330.851
712.1042, 6323.918
712.5863, 6312.283
713.0684, 6305.364
713.5505, 6303.043
714.0327, 6308.281
714.5148, 6331.478
714.9969, 6347.920
715.4790, 6352.358
715.9611, 6349.872
716.4432, 6342.389
716.9254, 6331.404
717.4075, 6320.956
717.8896, 6311.172
718.3717, 6304.620
718.8538, 6302.883
719.3359, 6305.919
719.8181, 6316.312
720.3002, 6332.665
720.7823, 6346.665
721.2644, 6352.898
721.7465, 6352.220
722.2286, 6346.490
722.7108, 6335.620
723.1929, 6318.433
723.6750, 6286.869
724.1571, 6264.970
724.6392, 6274.998
725.1213, 6300.475
725.6035, 6305.872
726.0856, 6283.265
726.5677, 6267.912
727.0498, 6275.955
727.5319, 6283.028
728.0140, 6266.127
728.4962, 6241.538
728.9783, 6241.866
729.4604, 6273.138
729.9425, 6301.008
730.4246, 6286.964
730.9067, 6250.424
731.3889, 6238.509
731.8710, 6248.162
732.3531, 6247.949
732.8352, 6226.976
733.3173, 6205.705
733.7994, 6206.703
734.2816, 6227.646
734.7637, 6237.554
735.2458, 6229.142
735.7279, 6221.812
736.2100, 6212.516
736.6921, 6209.673
737.1743, 6226.448
737.6564, 6253.578
738.1385, 6264.873
738.6206, 6246.983
739.1027, 6228.144
739.5848, 6226.501
740.0670, 6230.875
740.5491, 6228.755
741.0312, 6220.423
741.5133, 6210.064
741.9954, 6199.662
742.4775, 6192.533
742.9597, 6195.938
743.4418, 6208.730
743.9239, 6212.943
744.4060, 6205.853
744.8881, 6205.657
745.3702, 6225.157
745.8524, 6246.126
746.3345, 6241.667
746.8166, 6208.015
747.2987, 6183.615
747.7808, 6172.171
748.2629, 6164.341
748.7451, 6154.379
749.2272, 6149.679
749.7093, 6163.860
750.1914, 6191.014
750.6735, 6205.113
751.1556, 6187.595
751.6378, 6164.691
752.1199, 6164.440
752.6020, 6174.640
753.0841, 6166.291
753.5662, 6140.650
754.0483, 6131.952
754.5305, 6162.238
755.0126, 6206.607
755.4947, 6211.938
755.9768, 6172.124
756.4589, 6151.923
756.9410, 6159.504
757.4232, 6169.119
757.9053, 6170.229
758.3874, 6166.848
758.8695, 6164.411
759.3516, 6162.769
759.8337, 6163.149
760.3159, 6172.629
760.7980, 6175.791
761.2801, 6161.084
761.7622, 6140.943
762.2443, 6128.438
762.7264, 6124.416
763.2086, 6121.294
763.6907, 6112.341
764.1728, 6106.793
764.6549, 6124.997
765.1370, 6153.204
765.6191, 6150.061
766.1013, 6113.770
766.5834, 6085.796
767.0655, 6092.541
767.5476, 6119.465
768.0297, 6134.891
768.5118, 6136.203
768.9940, 6141.682
769.4761, 6153.137
769.9582, 6165.636
770.4403, 6181.419
770.9224, 6194.066
771.4045, 6193.247
771.8867, 6178.169
772.3688, 6162.311
772.8509, 6147.249
773.3330, 6131.637
773.8151, 6105.774
774.2972, 6085.167
774.7794, 6094.282
775.2615, 6127.381
775.7436, 6149.397
776.2257, 6137.317
776.7078, 6114.447
777.1899, 6101.813
777.6721, 6099.563
778.1542, 6115.124
778.6363, 6145.466
779.1184, 6161.695
779.6005, 6146.115
780.0826, 6117.764
780.5648, 6114.080
781.0469, 6138.607
781.5290, 6152.217
782.0111, 6152.760
782.4932, 6147.921
782.9753, 6138.306
783.4575, 6126.802
783.9396, 6114.217
784.4217, 6100.170
784.9038, 6099.625
785.3859, 6125.932
785.8680, 6149.378
786.3502, 6158.091
786.8323, 6163.756
787.3144, 6175.654
787.7965, 6194.082
788.2786, 6217.298
788.7607, 6247.872
789.2429, 6272.406
789.7250, 6272.261
790.2071, 6262.735
790.6892, 6270.791
791.1713, 6293.999
791.6534, 6311.115
792.1356, 6313.093
792.6177, 6313.475
793.0998, 6332.629
793.5819, 6367.991
794.0640, 6389.744
794.5461, 6392.932
795.0283, 6415.508
795.5104, 6472.303
795.9925, 6543.723
796.4746, 6612.460
796.9567, 6678.995
797.4388, 6745.915
797.9210, 6814.790
798.4031, 6881.383
798.8852, 6933.179
799.3673, 6994.861
799.8494, 7083.849
800.3315, 7191.888
800.8137, 7304.479
801.2958, 7418.490
801.7779, 7532.479
802.2600, 7644.202
802.7421, 7756.988
803.2242, 7875.772
803.7064, 7997.296
804.1885, 8117.563
804.6706, 8234.451
805.1527, 8345.615
805.6348, 8450.651
806.1169, 8546.515
806.5991, 8633.030
807.0812, 8707.184
807.5633, 8744.267
808.0454, 8740.040
808.5275, 8695.436
809.0096, 8605.253
809.4918, 8487.163
809.9739, 8391.437
810.4560, 8335.726
810.9381, 8233.582
811.4202, 8051.383
811.9023, 7876.780
812.3845, 7748.451
812.8666, 7641.942
813.3487, 7526.263
813.8308, 7401.531
814.3129, 7302.560
814.7950, 7259.514
815.2772, 7211.565
815.7593, 7120.460
816.2414, 7029.269
816.7235, 6982.636
817.2056, 6971.914
817.6877, 6958.520
818.1699, 6925.546
818.6520, 6889.975
819.1341, 6867.435
819.6162, 6850.535
820.0983, 6823.296
820.5804, 6790.637
821.0626, 6772.260
821.5447, 6775.042
822.0268, 6792.941
822.5089, 6822.369
822.9910, 6859.735
823.4731, 6889.377
823.9553, 6911.149
824.4374, 6930.553
824.9195, 6946.045
825.4016, 6969.954
825.8837, 7011.577
826.3658, 7068.702
826.8480, 7133.014
827.3301, 7201.174
827.8122, 7284.128
828.2943, 7377.929
828.7764, 7491.978
829.2585, 7634.013
829.7407, 7795.076
830.2228, 7963.566
830.7049, 8139.073
831.1870, 8328.591
831.6691, 8533.698
832.1512, 8753.367
832.6334, 8985.823
833.1155, 9234.473
833.5976, 9501.619
834.0797, 9789.862
834.5618, 10105.65
835.0439, 10455.00
835.5261, 10815.35
836.0082, 11164.29
836.4903, 11513.39
836.9724, 11893.21
837.4545, 12292.76
837.9366, 12673.75
838.4188, 13021.55
838.9009, 13336.86
839.3830, 13626.54
839.8651, 13875.63
840.3472, 14026.86
840.8293, 14079.20
841.3115, 14096.85
841.7936, 14102.28
842.2757, 14014.60
842.7578, 13769.14
843.2399, 13404.58
843.7220, 13013.52
844.2042, 12595.74
844.6863, 12148.24
845.1684, 11652.50
845.6505, 11155.43
846.1326, 10649.70
846.6147, 10163.62
847.0969, 9720.480
847.5790, 9321.198
848.0611, 8969.837
848.5432, 8681.409
849.0253, 8418.916
849.5074, 8174.972
849.9896, 7950.813
850.4717, 7740.368
850.9538, 7550.319
851.4359, 7403.624
851.9180, 7308.859
852.4001, 7220.078
852.8823, 7096.593
853.3644, 6971.525
853.8465, 6880.672
854.3286, 6814.357
854.8107, 6750.586
855.2928, 6685.004
855.7750, 6627.487
856.2571, 6587.355
856.7392, 6553.905
857.2213, 6505.620
857.7034, 6447.137
858.1855, 6397.931
858.6677, 6359.959
859.1498, 6331.738
859.6319, 6313.329
860.1140, 6298.182
860.5961, 6276.542
861.0782, 6248.826
861.5604, 6222.734
862.0425, 6197.180
862.5246, 6178.568
863.0067, 6172.949
863.4888, 6165.254
863.9709, 6143.164
864.4531, 6109.674
864.9352, 6075.587
865.4173, 6037.153
865.8994, 6005.803
866.3815, 5980.489
866.8636, 5962.974
867.3458, 5956.058
867.8279, 5955.833
868.3100, 5959.931
868.7921, 5967.545
869.2742, 5972.737
869.7563, 5972.739
870.2385, 5971.667
870.7206, 5970.156
871.2027, 5968.999
871.6848, 5975.512
872.1669, 5981.643
872.6490, 5965.454
873.1312, 5918.522
873.6133, 5876.119
874.0954, 5870.822
874.5775, 5877.298
875.0596, 5863.085
875.5417, 5839.457
876.0239, 5831.083
876.5060, 5842.127
876.9881, 5864.145
877.4702, 5893.695
877.9523, 5921.821
878.4344, 5937.332
878.9166, 5938.900
879.3987, 5910.618
879.8808, 5856.020
880.3629, 5828.564
880.8450, 5851.365
881.3271, 5886.767
881.8093, 5889.069
882.2914, 5864.655
882.7735, 5855.697
883.2556, 5865.232
883.7377, 5866.341
884.2198, 5851.287
884.7020, 5838.894
885.1841, 5842.752
885.6662, 5855.411
886.1483, 5858.843
886.6304, 5846.507
887.1125, 5855.919
887.5947, 5911.406
888.0768, 5949.061
888.5589, 5937.731
889.0410, 5914.659
889.5231, 5910.016
890.0052, 5921.110
890.4874, 5936.193
890.9695, 5965.524
891.4516, 5978.708
891.9337, 5953.875
892.4158, 5931.285
892.8979, 5944.833
893.3801, 5966.744
893.8622, 5951.774
894.3443, 5897.522
894.8264, 5855.734
895.3085, 5859.061
895.7906, 5865.592
896.2728, 5846.700
896.7549, 5824.537
897.2370, 5829.537
897.7191, 5850.741
898.2012, 5850.457
898.6833, 5814.980
899.1655, 5786.252
899.6476, 5811.977
900.1297, 5851.756
900.6118, 5858.211
901.0939, 5839.009
901.5760, 5807.212
902.0582, 5768.730
902.5403, 5732.996
903.0224, 5705.125
903.5045, 5688.447
903.9866, 5690.280
904.4688, 5707.095
904.9509, 5735.786
905.4330, 5771.865
905.9151, 5782.811
906.3972, 5758.281
906.8793, 5724.508
907.3615, 5705.158
907.8436, 5698.593
908.3257, 5703.496
908.8078, 5720.034
909.2899, 5721.453
909.7720, 5702.319
910.2542, 5689.002
910.7363, 5695.488
911.2184, 5710.523
911.7005, 5718.341
912.1826, 5718.999
912.6647, 5719.015
913.1469, 5720.181
913.6290, 5713.977
914.1111, 5693.172
914.5932, 5675.675
915.0753, 5674.240
915.5574, 5683.593
916.0396, 5692.021
916.5217, 5699.711
917.0038, 5705.975
917.4859, 5718.526
917.9680, 5718.677
918.4501, 5681.738
918.9323, 5648.347
919.4144, 5659.843
919.8965, 5702.514
920.3786, 5724.054
920.8607, 5711.636
921.3428, 5698.072
921.8250, 5685.863
922.3071, 5675.963
922.7892, 5672.404
923.2713, 5668.992
923.7534, 5652.516
924.2355, 5626.445
924.7177, 5619.634
925.1998, 5653.715
925.6819, 5686.860
926.1640, 5703.865
926.6461, 5711.524
927.1282, 5707.754
927.6104, 5701.488
928.0925, 5708.784
928.5746, 5731.910
929.0567, 5753.373
929.5388, 5766.260
930.0209, 5770.653
930.5031, 5751.043
930.9852, 5733.547
931.4673, 5760.377
931.9494, 5818.499
932.4315, 5860.968
932.9136, 5871.271
933.3958, 5879.354
933.8779, 5917.153
934.3600, 5962.182
934.8421, 5977.063
935.3242, 5979.628
935.8063, 6009.275
936.2885, 6066.910
936.7706, 6126.185
937.2527, 6173.021
937.7348, 6215.980
938.2169, 6261.716
938.6990, 6313.158
939.1812, 6387.592
939.6633, 6474.836
940.1454, 6533.104
940.6275, 6554.623
941.1096, 6562.134
941.5917, 6571.403
942.0739, 6577.665
942.5560, 6574.549
943.0381, 6561.068
943.5202, 6530.248
944.0023, 6482.665
944.4844, 6427.376
944.9666, 6367.103
945.4487, 6302.007
945.9308, 6231.668
946.4129, 6158.720
946.8950, 6089.468
947.3771, 6023.812
947.8593, 5961.048
948.3414, 5900.347
948.8235, 5853.742
949.3056, 5828.048
949.7877, 5807.474
950.2698, 5774.167
950.7520, 5731.139
951.2341, 5693.027
951.7162, 5658.797
952.1983, 5638.236
952.6804, 5636.166
953.1625, 5633.505
953.6447, 5620.769
954.1268, 5604.565
954.6089, 5594.269
955.0910, 5589.426
955.5731, 5577.989
956.0552, 5556.385
956.5374, 5538.774
957.0195, 5524.530
957.5016, 5519.788
957.9837, 5532.759
958.4658, 5551.854
958.9479, 5557.836
959.4301, 5549.764
959.9122, 5542.408
960.3943, 5538.926
960.8764, 5529.321
961.3585, 5504.732
961.8406, 5483.805
962.3228, 5477.668
962.8049, 5483.110
963.2870, 5497.209
963.7691, 5525.323
964.2512, 5533.171
964.7333, 5498.546
965.2155, 5475.953
965.6976, 5491.278
966.1797, 5504.957
966.6618, 5480.062
967.1439, 5437.522
967.6260, 5430.260
968.1082, 5475.131
968.5903, 5492.040
969.0724, 5440.185
969.5545, 5409.544
970.0366, 5443.026
970.5187, 5487.272
971.0009, 5506.032
971.4830, 5502.469
971.9651, 5486.076
972.4472, 5451.368
972.9293, 5426.687
973.4114, 5413.128
973.8936, 5413.451
974.3757, 5442.775
974.8578, 5474.577
975.3399, 5484.458
975.8220, 5477.034
976.3041, 5470.464
976.7863, 5469.077
977.2684, 5463.705
977.7505, 5442.695
978.2326, 5429.031
978.7147, 5446.620
979.1968, 5465.662
979.6790, 5450.360
980.1611, 5409.677
980.6432, 5381.436
981.1253, 5374.041
981.6074, 5378.612
982.0895, 5403.783
982.5717, 5427.097
983.0538, 5439.683
983.5359, 5442.676
984.0180, 5434.208
984.5001, 5417.699
984.9822, 5404.266
985.4644, 5397.356
985.9465, 5392.056
986.4286, 5386.162
986.9107, 5381.816
987.3928, 5382.033
987.8749, 5383.274
988.3571, 5380.576
988.8392, 5374.764
989.3213, 5370.877
989.8034, 5369.688
990.2855, 5372.747
990.7676, 5386.753
991.2498, 5398.602
991.7319, 5397.946
992.2140, 5391.531
992.6961, 5388.484
993.1782, 5388.447
993.6603, 5383.449
994.1425, 5366.400
994.6246, 5357.363
995.1067, 5377.514
995.5888, 5395.540
996.0709, 5380.526
996.5530, 5356.911
997.0352, 5361.789
997.5173, 5390.911
997.9994, 5405.942
998.4815, 5389.354
998.9636, 5370.907
999.4457, 5361.743
999.9279, 5358.199
1000.410, 5358.107
1000.892, 5361.942
1001.374, 5376.293
1001.856, 5396.200
1002.338, 5399.020
1002.821, 5367.932
1003.303, 5347.564
1003.785, 5369.181
1004.267, 5397.447
1004.749, 5414.410
1005.231, 5419.440
1005.713, 5408.316
1006.195, 5385.784
1006.677, 5368.144
1007.160, 5361.370
1007.642, 5358.457
1008.124, 5358.254
1008.606, 5358.606
1009.088, 5360.270
1009.570, 5360.208
1010.052, 5350.517
1010.534, 5335.466
1011.017, 5333.764
1011.499, 5357.156
1011.981, 5371.639
1012.463, 5345.958
1012.945, 5326.011
1013.427, 5354.815
1013.909, 5393.598
1014.391, 5393.910
1014.873, 5362.677
1015.356, 5337.738
1015.838, 5327.607
1016.320, 5332.337
1016.802, 5374.617
1017.284, 5405.018
1017.766, 5383.624
1018.248, 5347.159
1018.730, 5331.975
1019.213, 5336.168
1019.695, 5343.746
1020.177, 5353.199
1020.659, 5354.761
1021.141, 5329.016
1021.623, 5314.857
1022.105, 5343.242
1022.587, 5380.255
1023.069, 5395.358
1023.552, 5392.597
1024.034, 5388.490
1024.516, 5386.232
1024.998, 5381.308
1025.480, 5372.788
1025.962, 5361.126
1026.444, 5340.021
1026.926, 5321.854
1027.409, 5314.645
1027.891, 5318.613
1028.373, 5337.977
1028.855, 5377.321
1029.337, 5396.004
1029.819, 5371.712
1030.301, 5346.671
1030.783, 5325.968
1031.266, 5314.258
1031.748, 5322.326
1032.230, 5338.207
1032.712, 5340.088
1033.194, 5325.402
1033.676, 5311.449
1034.158, 5294.114
1034.640, 5286.239
1035.122, 5300.920
1035.604, 5313.600
1036.087, 5311.686
1036.569, 5298.939
1037.051, 5277.129
1037.533, 5245.737
1038.015, 5227.384
1038.497, 5223.792
1038.979, 5230.825
1039.461, 5257.667
1039.944, 5282.997
1040.426, 5297.986
1040.908, 5306.274
1041.390, 5313.262
1041.872, 5318.172
1042.354, 5311.656
1042.836, 5287.428
1043.318, 5264.971
1043.800, 5239.220
1044.283, 5227.288
1044.765, 5246.744
1045.247, 5265.851
1045.729, 5246.853
1046.211, 5201.375
1046.693, 5184.587
1047.175, 5206.274
1047.657, 5223.029
1048.140, 5232.841
1048.622, 5242.378
1049.104, 5252.425
1049.586, 5267.107
1050.068, 5294.070
1050.550, 5322.613
1051.032, 5320.789
1051.514, 5284.573
1051.996, 5258.457
1052.479, 5243.949
1052.961, 5230.598
1053.443, 5215.358
1053.925, 5204.396
1054.407, 5201.963
1054.889, 5205.854
1055.371, 5214.708
1055.853, 5226.930
1056.335, 5218.720
1056.818, 5190.176
1057.300, 5181.890
1057.782, 5201.024
1058.264, 5216.815
1058.746, 5212.919
1059.228, 5200.736
1059.710, 5194.728
1060.192, 5193.003
1060.675, 5188.467
1061.157, 5182.157
1061.639, 5182.027
1062.121, 5187.486
1062.603, 5184.276
1063.085, 5167.458
1063.567, 5155.262
1064.049, 5168.959
1064.531, 5190.695
1065.014, 5181.339
1065.496, 5156.581
1065.978, 5160.963
1066.460, 5186.504
1066.942, 5190.929
1067.424, 5166.335
1067.906, 5145.428
1068.388, 5150.914
1068.870, 5167.633
1069.353, 5185.085
1069.835, 5198.137
1070.317, 5196.188
1070.799, 5185.647
1071.281, 5178.687
1071.763, 5177.180
1072.245, 5177.956
1072.727, 5180.100
1073.210, 5180.548
1073.692, 5178.292
1074.174, 5172.122
1074.656, 5155.426
1075.138, 5138.290
1075.620, 5134.158
1076.102, 5140.285
1076.584, 5148.112
1077.067, 5155.720
1077.549, 5154.069
1078.031, 5125.375
1078.513, 5104.885
1078.995, 5111.300
1079.477, 5129.315
1079.959, 5156.743
1080.441, 5182.696
1080.923, 5190.570
1081.406, 5179.070
1081.888, 5162.858
1082.370, 5135.426
1082.852, 5117.353
1083.334, 5112.382
1083.816, 5116.681
1084.298, 5142.764
1084.780, 5166.641
1085.262, 5154.311
1085.745, 5115.588
1086.227, 5099.493
1086.709, 5117.623
1087.191, 5127.706
1087.673, 5127.540
1088.155, 5123.046
1088.637, 5111.897
1089.119, 5104.606
1089.602, 5112.313
1090.084, 5124.777
1090.566, 5117.513
1091.048, 5089.292
1091.530, 5077.488
1092.012, 5084.000
1092.494, 5097.124
1092.976, 5116.701
1093.458, 5132.414
1093.941, 5139.982
1094.423, 5135.264
1094.905, 5108.377
1095.387, 5070.485
1095.869, 5069.385
1096.351, 5098.658
1096.833, 5105.307
1097.315, 5087.825
1097.797, 5075.754
1098.280, 5078.871
1098.762, 5094.047
1099.244, 5122.086
1099.726, 5146.826
1100.208, 5135.912
1100.690, 5107.716
1101.172, 5105.729
1101.654, 5117.113
1102.137, 5095.512
1102.619, 5045.490
1103.101, 5026.035
1103.583, 5066.660
1104.065, 5109.494
1104.547, 5107.737
1105.029, 5085.481
1105.511, 5049.129
1105.994, 5017.090
1106.476, 5020.002
1106.958, 5042.577
1107.440, 5045.109
1107.922, 5020.491
1108.404, 5003.431
1108.886, 5010.982
1109.368, 5024.161
1109.850, 5041.833
1110.333, 5056.343
1110.815, 5061.397
1111.297, 5061.662
1111.779, 5066.886
1112.261, 5073.700
1112.743, 5060.792
1113.225, 5007.134
1113.707, 4982.012
1114.189, 5007.258
1114.672, 5029.483
1115.154, 5036.414
1115.636, 5037.702
1116.118, 5037.857
1116.600, 5038.599
1117.082, 5043.451
1117.564, 5052.447
1118.046, 5062.107
1118.529, 5074.423
1119.011, 5073.859
1119.493, 5055.940
1119.975, 5043.199
1120.457, 5045.646
1120.939, 5053.632
1121.421, 5058.551
1121.903, 5058.475
1122.385, 5045.111
1122.868, 5021.855
1123.350, 5004.062
1123.832, 4993.154
1124.314, 4994.339
1124.796, 5007.137
1125.278, 5021.328
1125.760, 5031.668
1126.242, 5031.698
1126.724, 4998.311
1127.207, 4963.794
1127.689, 4984.797
1128.171, 5028.396
1128.653, 5041.424
1129.135, 5028.844
1129.617, 5019.239
1130.099, 5020.231
1130.581, 5023.044
1131.064, 5023.128
1131.546, 5024.248
1132.028, 5030.507
1132.510, 5036.105
1132.992, 5036.945
1133.474, 5034.970
1133.956, 5034.387
1134.438, 5033.446
1134.921, 5022.552
1135.403, 4992.881
1135.885, 4979.768
1136.367, 5003.073
1136.849, 5017.929
1137.331, 5015.275
1137.813, 5003.992
1138.295, 4982.716
1138.777, 4963.283
1139.260, 4963.948
1139.742, 4982.881
1140.224, 5006.735
1140.706, 5039.560
1141.188, 5040.896
1141.670, 5004.359
1142.152, 4979.980
1142.634, 4984.162
1143.116, 4998.103
1143.599, 5008.249
1144.081, 5014.408
1144.563, 5015.465
1145.045, 5012.583
1145.527, 5009.204
1146.009, 5004.959
1146.491, 4997.929
1146.973, 4988.640
1147.456, 4977.212
1147.938, 4964.715
1148.420, 4964.682
1148.902, 4998.249
1149.384, 5029.235
1149.866, 5018.358
1150.348, 4995.894
1150.830, 4991.613
1151.313, 4996.540
1151.795, 4994.144
1152.277, 4984.348
1152.759, 4977.481
1153.241, 4977.208
1153.723, 4975.278
1154.205, 4960.997
1154.687, 4957.041
1155.169, 4982.856
1155.651, 5006.955
1156.134, 5006.119
1156.616, 4995.415
1157.098, 4998.369
1157.580, 5012.884
1158.062, 5012.955
1158.544, 4994.501
1159.026, 4979.599
1159.508, 4968.885
1159.991, 4967.027
1160.473, 4977.292
1160.955, 4978.856
1161.437, 4954.155
1161.919, 4924.760
1162.401, 4931.744
1162.883, 4962.000
1163.365, 4971.483
1163.848, 4965.986
1164.330, 4958.701
1164.812, 4954.949
1165.294, 4973.454
1165.776, 5015.339
1166.258, 5034.862
1166.740, 4991.774
1167.222, 4941.862
1167.704, 4927.535
1168.187, 4930.566
1168.669, 4939.840
1169.151, 4953.123
1169.633, 4974.190
1170.115, 4997.152
1170.597, 5003.799
1171.079, 4987.822
1171.561, 4982.310
1172.043, 5016.766
1172.526, 5024.440
1173.008, 4967.248
1173.490, 4922.498
1173.972, 4929.876
1174.454, 4954.474
1174.936, 4960.987
1175.418, 4954.444
1175.900, 4951.709
1176.383, 4952.975
1176.865, 4956.834
1177.347, 4963.506
1177.829, 4960.847
1178.311, 4946.972
1178.793, 4940.023
1179.275, 4948.874
1179.757, 4956.767
1180.240, 4943.361
1180.722, 4923.326
1181.204, 4918.174
1181.686, 4924.532
1182.168, 4946.179
1182.650, 4970.761
1183.132, 4972.641
1183.614, 4952.064
1184.096, 4926.193
1184.578, 4899.032
1185.061, 4884.861
1185.543, 4900.823
1186.025, 4916.643
1186.507, 4917.035
1186.989, 4915.606
1187.471, 4920.274
1187.953, 4930.150
1188.435, 4946.873
1188.918, 4967.780
1189.400, 4976.852
1189.882, 4974.823
1190.364, 4953.945
1190.846, 4904.277
1191.328, 4882.330
1191.810, 4903.732
1192.292, 4933.846
1192.775, 4954.646
1193.257, 4961.164
1193.739, 4943.020
1194.221, 4912.500
1194.703, 4899.855
1195.185, 4899.008
1195.667, 4890.743
1196.149, 4880.055
1196.631, 4888.314
1197.114, 4914.778
1197.596, 4936.792
1198.078, 4944.832
1198.560, 4942.559
1199.042, 4918.314
1199.524, 4902.536
1200.006, 4925.322
1200.488, 4950.202
1200.970, 4944.158
1201.453, 4924.313
1201.935, 4917.657
1202.417, 4923.771
1202.899, 4927.004
1203.381, 4926.918
1203.863, 4924.419
1204.345, 4916.637
1204.827, 4917.820
1205.310, 4934.528
1205.792, 4941.567
1206.274, 4923.605
1206.756, 4902.279
1207.238, 4905.016
1207.720, 4919.877
1208.202, 4914.023
1208.684, 4896.655
1209.167, 4892.785
1209.649, 4901.797
1210.131, 4928.633
1210.613, 4962.863
1211.095, 4957.271
1211.577, 4892.039
1212.059, 4842.359
1212.541, 4867.850
1213.023, 4902.836
1213.505, 4920.893
1213.988, 4927.094
1214.470, 4917.769
1214.952, 4903.930
1215.434, 4899.597
1215.916, 4902.075
1216.398, 4898.671
1216.880, 4886.760
1217.362, 4887.477
1217.845, 4907.248
1218.327, 4909.142
1218.809, 4884.178
1219.291, 4870.046
1219.773, 4883.060
1220.255, 4902.888
1220.737, 4912.321
1221.219, 4912.176
1221.702, 4897.669
1222.184, 4878.440
1222.666, 4875.080
1223.148, 4882.364
1223.630, 4893.735
1224.112, 4903.712
1224.594, 4898.113
1225.076, 4875.589
1225.558, 4864.987
1226.041, 4893.584
1226.523, 4906.354
1227.005, 4862.887
1227.487, 4828.326
1227.969, 4840.413
1228.451, 4862.679
1228.933, 4868.907
1229.415, 4866.390
1229.897, 4868.385
1230.380, 4873.726
1230.862, 4867.501
1231.344, 4848.929
1231.826, 4838.889
1232.308, 4838.431
1232.790, 4842.019
1233.272, 4847.856
1233.754, 4852.796
##END=



