##NAMES=Tephroite
##RRUFFID=R100105
##IDEAL CHEMISTRY=Mn^2+^_2_SiO_4_
##LOCALITY=Franklin, Sussex County, New Jersey, USA
##OWNER=RRUFF
##SOURCE=American Museum of Natural History
##DESCRIPTION=Translucent gray massives, associated with reddish zincite and metallic franklinite.
##STATUS=The identification of this mineral is confirmed by single-crystal X-ray diffraction and chemical analysis.
##URL=rruff.info/R100105
##MEASURED CHEMISTRY=(Mn^+2^_1.716_Zn_0.124_Mg_0.080_Ca_0.078_Fe^+2^_0.003_Al_0.001_)_Î£=2.002_Si_0.998_O_4_
91.53320, 338.3322
92.01532, 340.8034
92.49744, 340.9438
92.97955, 343.1453
93.46167, 343.3512
93.94379, 339.1894
94.42590, 332.0399
94.90802, 324.2678
95.39014, 317.7467
95.87225, 312.8087
96.35437, 307.7643
96.83649, 301.8141
97.31860, 295.7217
97.80072, 290.2456
98.28284, 285.4415
98.76495, 280.9837
99.24707, 276.8537
99.72919, 273.4315
100.2113, 269.9989
100.6934, 265.9665
101.1755, 261.6797
101.6577, 257.9293
102.1398, 255.4224
102.6219, 254.4079
103.1040, 253.2681
103.5861, 251.7669
104.0682, 250.3065
104.5504, 249.1187
105.0325, 248.2245
105.5146, 247.4388
105.9967, 246.4883
106.4788, 245.2834
106.9609, 244.0590
107.4431, 242.7495
107.9252, 241.4272
108.4073, 240.1510
108.8894, 238.8860
109.3715, 237.7877
109.8536, 237.2538
110.3358, 237.4487
110.8179, 237.4027
111.3000, 236.3211
111.7821, 234.3325
112.2642, 232.7119
112.7463, 232.1604
113.2285, 232.1082
113.7106, 232.0436
114.1927, 231.9268
114.6748, 231.6664
115.1569, 231.0360
115.6390, 229.7637
116.1212, 228.8178
116.6033, 228.5584
117.0854, 228.6756
117.5675, 228.9568
118.0496, 229.3512
118.5317, 229.7488
119.0139, 229.6151
119.4960, 228.2589
119.9781, 227.0589
120.4602, 226.4519
120.9423, 226.1709
121.4244, 225.6945
121.9066, 224.5733
122.3887, 222.7210
122.8708, 221.4417
123.3529, 220.9970
123.8350, 220.7322
124.3171, 220.3354
124.7993, 219.8011
125.2814, 219.3498
125.7635, 219.2520
126.2456, 219.6247
126.7277, 219.6811
127.2098, 219.0981
127.6920, 218.3309
128.1741, 217.8157
128.6562, 217.6322
129.1383, 217.7331
129.6204, 218.1241
130.1025, 218.7636
130.5847, 219.5640
131.0668, 220.5464
131.5489, 221.6739
132.0310, 222.8022
132.5131, 223.8494
132.9952, 224.9788
133.4774, 226.5046
133.9595, 228.4176
134.4416, 230.0534
134.9237, 230.5802
135.4058, 229.7758
135.8879, 229.4449
136.3701, 230.4065
136.8522, 231.6495
137.3343, 232.6466
137.8164, 233.2677
138.2985, 233.6727
138.7806, 234.1132
139.2628, 234.5118
139.7449, 235.1193
140.2270, 236.2548
140.7091, 237.4394
141.1912, 238.1578
141.6733, 238.1758
142.1555, 237.7657
142.6376, 237.8640
143.1197, 238.7882
143.6018, 239.9085
144.0839, 241.3684
144.5660, 242.9620
145.0482, 244.3116
145.5303, 245.1344
146.0124, 245.5740
146.4945, 246.7554
146.9766, 248.6049
147.4587, 251.0493
147.9409, 254.4825
148.4230, 258.6664
148.9051, 262.5777
149.3872, 265.5295
149.8693, 267.5342
150.3514, 269.4013
150.8336, 271.3016
151.3157, 272.9694
151.7978, 274.3400
152.2799, 275.4832
152.7620, 275.8467
153.2441, 274.5668
153.7263, 272.2266
154.2084, 269.6076
154.6905, 266.6569
155.1726, 263.6581
155.6547, 261.2581
156.1368, 259.6679
156.6190, 258.3626
157.1011, 256.8602
157.5832, 255.3722
158.0653, 254.3122
158.5474, 253.9980
159.0295, 254.3926
159.5117, 255.0082
159.9938, 255.7859
160.4759, 256.9010
160.9580, 258.5334
161.4401, 260.5681
161.9222, 262.7194
162.4044, 264.7212
162.8865, 266.5419
163.3686, 268.4672
163.8507, 271.2473
164.3328, 273.5132
164.8149, 274.5587
165.2971, 274.4130
165.7792, 273.5700
166.2613, 272.5826
166.7434, 271.4591
167.2255, 270.1263
167.7076, 268.6648
168.1898, 266.9776
168.6719, 264.8913
169.1540, 262.3984
169.6361, 259.8021
170.1182, 257.5049
170.6003, 255.5558
171.0825, 253.8708
171.5646, 252.6174
172.0467, 251.5692
172.5288, 250.5243
173.0109, 249.4450
173.4930, 248.2514
173.9752, 246.7114
174.4573, 244.7801
174.9394, 242.9327
175.4215, 241.3637
175.9036, 239.9684
176.3857, 238.5349
176.8679, 236.9942
177.3500, 235.3756
177.8321, 233.7767
178.3142, 232.2168
178.7963, 230.4865
179.2784, 228.5204
179.7606, 226.2926
180.2427, 223.6786
180.7248, 220.2437
181.2069, 216.7527
181.6890, 213.8856
182.1711, 211.6920
182.6533, 209.8408
183.1354, 208.2175
183.6175, 206.9184
184.0996, 205.0867
184.5817, 201.9694
185.0638, 198.5728
185.5460, 195.4461
186.0281, 192.7093
186.5102, 190.1729
186.9923, 187.6210
187.4744, 185.1277
187.9565, 182.4002
188.4387, 178.8811
188.9208, 175.4453
189.4029, 172.8395
189.8850, 171.2536
190.3671, 170.2201
190.8492, 168.8206
191.3314, 166.8016
191.8135, 164.8144
192.2956, 162.8015
192.7777, 160.8882
193.2598, 159.2467
193.7419, 157.9399
194.2241, 156.8001
194.7062, 155.4251
195.1883, 153.4070
195.6704, 151.6090
196.1525, 150.3659
196.6346, 149.2554
197.1168, 147.6922
197.5989, 145.4024
198.0810, 142.7219
198.5631, 140.6351
199.0452, 139.2008
199.5273, 138.2124
200.0095, 138.1838
200.4916, 138.5148
200.9737, 138.0976
201.4558, 136.3038
201.9379, 133.7258
202.4200, 132.0772
202.9022, 131.7012
203.3843, 131.4182
203.8664, 130.7772
204.3485, 129.9051
204.8306, 129.1748
205.3127, 128.7980
205.7949, 128.6027
206.2770, 128.2323
206.7591, 127.7102
207.2412, 126.9963
207.7233, 125.8503
208.2054, 124.3773
208.6876, 123.3018
209.1697, 123.1782
209.6518, 123.4184
210.1339, 123.0599
210.6160, 121.8517
211.0981, 120.6736
211.5803, 120.3018
212.0624, 120.7378
212.5445, 121.2707
213.0266, 121.8821
213.5087, 122.3192
213.9908, 122.2620
214.4730, 121.5969
214.9551, 120.8026
215.4372, 120.4387
215.9193, 120.5777
216.4014, 120.6880
216.8836, 120.6387
217.3657, 120.4918
217.8478, 120.1053
218.3299, 119.4331
218.8120, 119.0022
219.2941, 119.7644
219.7763, 122.2644
220.2584, 124.1431
220.7405, 124.6777
221.2226, 124.6807
221.7047, 124.6432
222.1868, 124.7044
222.6690, 124.7472
223.1511, 124.5370
223.6332, 123.8455
224.1153, 123.4309
224.5974, 123.2662
225.0795, 123.4089
225.5617, 124.0879
226.0438, 125.3100
226.5259, 126.6415
227.0080, 127.2885
227.4901, 126.7509
227.9722, 126.4060
228.4544, 126.2789
228.9365, 126.3440
229.4186, 126.5636
229.9007, 126.9326
230.3828, 127.5059
230.8649, 128.4000
231.3471, 130.0056
231.8292, 131.3118
232.3113, 132.3054
232.7934, 133.0382
233.2755, 133.4856
233.7576, 133.6588
234.2398, 133.7028
234.7219, 133.8460
235.2040, 134.0748
235.6861, 134.4618
236.1682, 135.0713
236.6503, 135.7982
237.1325, 136.5766
237.6146, 137.3803
238.0967, 138.1699
238.5788, 138.8724
239.0609, 139.3929
239.5430, 140.0517
240.0252, 141.1663
240.5073, 142.2700
240.9894, 142.8250
241.4715, 142.7081
241.9536, 142.3093
242.4357, 142.1528
242.9179, 142.3289
243.4000, 142.3433
243.8821, 142.2198
244.3642, 141.8804
244.8463, 141.1926
245.3284, 140.1178
245.8106, 138.8472
246.2927, 137.5029
246.7748, 136.0660
247.2569, 134.9389
247.7390, 134.4274
248.2211, 134.1474
248.7033, 133.6360
249.1854, 132.8110
249.6675, 131.8536
250.1496, 130.8170
250.6317, 129.7330
251.1138, 128.9682
251.5960, 128.9300
252.0781, 129.1111
252.5602, 128.8054
253.0423, 127.8941
253.5244, 126.8300
254.0065, 125.7986
254.4887, 124.8931
254.9708, 124.4832
255.4529, 125.0957
255.9350, 126.0852
256.4171, 126.4988
256.8992, 126.2066
257.3813, 125.8110
257.8635, 125.8047
258.3456, 125.9845
258.8277, 125.9999
259.3098, 125.6406
259.7919, 125.1296
260.2740, 124.7404
260.7562, 124.4524
261.2383, 124.3720
261.7204, 124.6963
262.2025, 125.2351
262.6846, 125.8096
263.1667, 126.4655
263.6489, 127.0172
264.1310, 127.0723
264.6131, 126.4604
265.0952, 126.0944
265.5773, 126.7983
266.0594, 127.7933
266.5416, 128.2998
267.0237, 128.0116
267.5058, 127.4406
267.9879, 127.1960
268.4700, 127.2689
268.9521, 127.7247
269.4343, 129.0531
269.9164, 130.5424
270.3985, 131.6183
270.8806, 132.1242
271.3627, 132.4090
271.8448, 132.9839
272.3270, 133.9785
272.8091, 134.5939
273.2912, 134.2245
273.7733, 133.6644
274.2554, 133.3042
274.7375, 133.2247
275.2197, 133.4533
275.7018, 134.1486
276.1839, 135.4143
276.6660, 136.4494
277.1481, 137.3944
277.6302, 137.8569
278.1124, 137.4470
278.5945, 136.2138
279.0766, 134.6633
279.5587, 133.1557
280.0408, 131.6446
280.5229, 130.5654
281.0051, 130.3040
281.4872, 130.2046
281.9693, 129.9892
282.4514, 129.6886
282.9335, 129.4896
283.4156, 129.5750
283.8978, 129.9506
284.3799, 130.3356
284.8620, 130.8594
285.3441, 131.2498
285.8262, 131.2802
286.3083, 131.0997
286.7905, 131.0575
287.2726, 131.4907
287.7547, 132.3055
288.2368, 132.5591
288.7189, 131.6329
289.2010, 130.8541
289.6832, 130.5586
290.1653, 130.6413
290.6474, 130.9698
291.1295, 131.5156
291.6116, 132.1723
292.0938, 132.4853
292.5759, 132.1917
293.0580, 131.9075
293.5401, 131.7428
294.0222, 131.6571
294.5043, 131.5046
294.9865, 131.2032
295.4686, 131.0267
295.9507, 131.7482
296.4328, 134.2072
296.9149, 136.0615
297.3970, 136.7214
297.8792, 136.9209
298.3613, 137.3149
298.8434, 138.0963
299.3255, 138.9485
299.8076, 139.2755
300.2897, 138.6592
300.7719, 138.4731
301.2540, 139.0237
301.7361, 139.7741
302.2182, 140.5641
302.7003, 141.2747
303.1824, 141.6621
303.6646, 141.3300
304.1467, 139.9864
304.6288, 138.9849
305.1109, 138.6493
305.5930, 138.3450
306.0751, 137.7261
306.5573, 136.8435
307.0394, 135.9863
307.5215, 135.4136
308.0036, 135.1355
308.4857, 134.9574
308.9678, 135.2555
309.4500, 135.2800
309.9321, 134.4523
310.4142, 133.1831
310.8963, 132.3644
311.3784, 132.6894
311.8605, 133.9415
312.3427, 134.3938
312.8248, 133.0446
313.3069, 132.0309
313.7890, 131.8998
314.2711, 132.2751
314.7532, 132.6448
315.2354, 132.7527
315.7175, 132.7269
316.1996, 132.9832
316.6817, 134.0689
317.1638, 134.5318
317.6459, 133.8093
318.1281, 132.6909
318.6102, 131.8232
319.0923, 131.4246
319.5744, 131.3736
320.0565, 131.5357
320.5386, 132.1435
321.0208, 132.4105
321.5029, 132.2468
321.9850, 131.8368
322.4671, 131.1272
322.9492, 130.2044
323.4313, 129.4038
323.9135, 129.1588
324.3956, 129.6373
324.8777, 129.8144
325.3598, 129.1116
325.8419, 128.6418
326.3240, 129.0583
326.8062, 130.1146
327.2883, 131.0550
327.7704, 131.2320
328.2525, 130.7093
328.7346, 130.6508
329.2167, 131.7160
329.6989, 132.5117
330.1810, 132.4914
330.6631, 132.0396
331.1452, 131.7556
331.6273, 131.9796
332.1094, 132.5195
332.5916, 132.7293
333.0737, 132.1773
333.5558, 132.0566
334.0379, 132.9799
334.5200, 134.1491
335.0021, 134.7210
335.4843, 134.4399
335.9664, 133.8624
336.4485, 133.9988
336.9306, 135.2940
337.4127, 135.9610
337.8948, 134.9250
338.3770, 133.9253
338.8591, 134.1015
339.3412, 135.4787
339.8233, 137.2045
340.3055, 138.5323
340.7876, 139.4543
341.2697, 139.9979
341.7518, 139.8296
342.2339, 139.5782
342.7160, 139.3572
343.1982, 139.2428
343.6803, 139.3469
344.1624, 139.7274
344.6445, 140.3903
345.1266, 141.4863
345.6087, 143.7213
346.0909, 145.1859
346.5730, 144.6085
347.0551, 143.2516
347.5372, 142.7473
348.0193, 143.8330
348.5014, 145.7873
348.9836, 147.4555
349.4657, 148.9346
349.9478, 149.7639
350.4299, 148.9915
350.9120, 148.0317
351.3941, 148.0645
351.8763, 149.2883
352.3584, 150.6974
352.8405, 151.0102
353.3226, 150.1756
353.8047, 150.2242
354.2868, 152.3457
354.7690, 154.4590
355.2511, 155.0088
355.7332, 154.3054
356.2153, 153.7870
356.6974, 154.6505
357.1795, 156.4931
357.6617, 157.7177
358.1438, 158.1227
358.6259, 158.2681
359.1080, 158.1501
359.5901, 158.0478
360.0722, 158.4601
360.5544, 159.6928
361.0365, 161.3654
361.5186, 163.0296
362.0007, 164.6875
362.4828, 166.2610
362.9649, 167.8181
363.4471, 169.2039
363.9292, 170.2102
364.4113, 170.7549
364.8934, 171.1956
365.3755, 171.7156
365.8576, 172.3365
366.3398, 173.2118
366.8219, 174.4982
367.3040, 175.8794
367.7861, 176.9555
368.2682, 177.7634
368.7503, 178.7313
369.2325, 180.1788
369.7146, 181.8579
370.1967, 183.3555
370.6788, 184.6344
371.1609, 185.7535
371.6430, 186.5389
372.1252, 187.1861
372.6073, 188.3305
373.0894, 190.5499
373.5715, 192.8973
374.0536, 194.5157
374.5357, 195.5198
375.0179, 196.6314
375.5000, 198.1597
375.9821, 200.0357
376.4642, 202.1396
376.9463, 204.6393
377.4284, 206.9380
377.9106, 208.7285
378.3927, 210.1858
378.8748, 211.5087
379.3569, 212.7131
379.8390, 214.0947
380.3211, 216.2230
380.8033, 219.3486
381.2854, 221.6504
381.7675, 222.1989
382.2496, 222.4387
382.7317, 223.5885
383.2138, 225.6456
383.6960, 227.7892
384.1781, 229.4208
384.6602, 230.5688
385.1423, 231.8001
385.6244, 233.2178
386.1065, 234.5855
386.5887, 235.8899
387.0708, 237.0735
387.5529, 238.1430
388.0350, 239.1184
388.5171, 239.7622
388.9992, 239.5028
389.4814, 236.6877
389.9635, 235.5846
390.4456, 238.2594
390.9277, 241.2569
391.4098, 241.2056
391.8919, 238.0084
392.3741, 234.5661
392.8562, 234.0441
393.3383, 236.9650
393.8204, 238.8059
394.3025, 239.4836
394.7846, 239.2662
395.2668, 237.5634
395.7489, 235.0961
396.2310, 233.1856
396.7131, 232.6613
397.1952, 233.0067
397.6773, 232.3692
398.1595, 229.9310
398.6416, 227.8326
399.1237, 226.4803
399.6058, 225.4572
400.0879, 224.3904
400.5700, 223.1994
401.0522, 222.0878
401.5343, 221.3328
402.0164, 221.0050
402.4985, 220.6376
402.9806, 220.2472
403.4627, 219.7767
403.9449, 219.1407
404.4270, 218.3994
404.9091, 217.7075
405.3912, 217.1947
405.8733, 216.7819
406.3554, 216.2489
406.8376, 215.6157
407.3197, 214.7936
407.8018, 213.5391
408.2839, 212.1780
408.7660, 211.0426
409.2481, 210.2058
409.7303, 209.5715
410.2124, 209.0002
410.6945, 208.5071
411.1766, 208.3663
411.6587, 208.9514
412.1408, 209.4926
412.6230, 209.1765
413.1051, 208.1167
413.5872, 207.1245
414.0693, 206.7601
414.5514, 206.5913
415.0335, 205.7141
415.5157, 203.9798
415.9978, 202.6497
416.4799, 202.7634
416.9620, 203.8943
417.4441, 204.6250
417.9262, 204.9149
418.4084, 204.7834
418.8905, 203.9524
419.3726, 202.6972
419.8547, 201.8076
420.3368, 201.6283
420.8189, 201.6594
421.3011, 201.0176
421.7832, 199.4656
422.2653, 198.2982
422.7474, 197.7128
423.2295, 197.5288
423.7116, 197.8044
424.1938, 198.4292
424.6759, 198.8333
425.1580, 198.4760
425.6401, 197.4361
426.1222, 197.1970
426.6043, 198.9630
427.0865, 200.0033
427.5686, 199.1084
428.0507, 197.2462
428.5328, 195.7663
429.0149, 195.1835
429.4970, 195.1047
429.9792, 194.8662
430.4613, 194.5092
430.9434, 193.8680
431.4255, 192.3456
431.9076, 191.1017
432.3897, 191.1211
432.8719, 192.0882
433.3540, 192.8190
433.8361, 192.3167
434.3182, 190.7857
434.8003, 189.6799
435.2824, 189.0776
435.7646, 188.8386
436.2467, 189.1973
436.7288, 189.7242
437.2109, 190.0370
437.6930, 190.0194
438.1751, 189.6118
438.6573, 188.4129
439.1394, 186.3020
439.6215, 185.2068
440.1036, 186.2732
440.5857, 187.4373
441.0678, 187.2330
441.5500, 185.9442
442.0321, 184.7287
442.5142, 184.2493
442.9963, 184.1779
443.4784, 183.8990
443.9605, 183.3796
444.4427, 182.9057
444.9248, 182.6105
445.4069, 182.4621
445.8890, 182.4311
446.3711, 182.6080
446.8532, 182.6463
447.3354, 182.1664
447.8175, 181.4319
448.2996, 181.0840
448.7817, 181.3097
449.2638, 181.6493
449.7459, 181.6561
450.2281, 181.3048
450.7102, 180.6941
451.1923, 179.6371
451.6744, 178.4895
452.1565, 177.2361
452.6386, 176.0534
453.1208, 175.4512
453.6029, 175.7290
454.0850, 176.6303
454.5671, 177.4528
455.0492, 178.6123
455.5313, 179.0761
456.0135, 178.1371
456.4956, 176.9677
456.9777, 176.7560
457.4598, 177.4810
457.9419, 177.9844
458.4240, 177.0324
458.9062, 174.5950
459.3883, 173.0349
459.8704, 173.1471
460.3525, 173.2916
460.8346, 173.1495
461.3167, 172.8265
461.7989, 172.4592
462.2810, 172.0963
462.7631, 171.7652
463.2452, 171.4878
463.7273, 171.2484
464.2094, 171.1628
464.6916, 171.4727
465.1737, 171.7195
465.6558, 171.4571
466.1379, 170.8592
466.6200, 170.5721
467.1021, 171.1460
467.5843, 172.1698
468.0664, 172.8828
468.5485, 173.2913
469.0306, 173.3220
469.5127, 172.5886
469.9948, 171.6664
470.4770, 171.5694
470.9591, 172.6199
471.4412, 173.4056
471.9233, 172.9280
472.4054, 171.7811
472.8875, 171.0362
473.3697, 170.8897
473.8518, 171.0486
474.3339, 171.3457
474.8160, 171.7656
475.2981, 171.8870
475.7802, 171.5857
476.2624, 171.1265
476.7445, 170.4668
477.2266, 169.7554
477.7087, 169.2897
478.1908, 169.1859
478.6729, 169.2702
479.1551, 169.2175
479.6372, 168.8595
480.1193, 168.7688
480.6014, 169.1544
481.0835, 169.5808
481.5656, 169.7717
482.0478, 169.7887
482.5299, 169.8643
483.0120, 170.1594
483.4941, 170.6125
483.9762, 170.9775
484.4583, 171.2041
484.9405, 171.4469
485.4226, 172.0991
485.9047, 172.5403
486.3868, 171.9582
486.8689, 170.3832
487.3510, 169.0889
487.8332, 169.3449
488.3153, 170.8484
488.7974, 172.2006
489.2795, 173.4413
489.7616, 174.3011
490.2437, 174.0848
490.7259, 173.5000
491.2080, 173.7505
491.6901, 175.4778
492.1722, 177.2129
492.6543, 177.8187
493.1364, 177.5808
493.6186, 177.2811
494.1007, 177.0904
494.5828, 176.9886
495.0649, 176.9072
495.5470, 176.8335
496.0291, 177.1182
496.5113, 177.9385
496.9934, 178.9682
497.4755, 180.3450
497.9576, 181.7747
498.4397, 182.4438
498.9218, 181.9097
499.4040, 180.8762
499.8861, 180.9537
500.3682, 182.9631
500.8503, 184.6079
501.3324, 185.9827
501.8145, 186.9675
502.2967, 187.3171
502.7788, 187.1912
503.2609, 186.9988
503.7430, 186.9480
504.2251, 187.1395
504.7072, 188.0826
505.1894, 190.2720
505.6715, 192.0847
506.1536, 192.9049
506.6357, 193.3323
507.1178, 193.7068
507.5999, 194.0984
508.0821, 194.6350
508.5642, 195.5050
509.0463, 196.5901
509.5284, 197.4172
510.0105, 197.8058
510.4926, 198.6553
510.9748, 200.9955
511.4569, 204.0634
511.9390, 206.0481
512.4211, 206.4226
512.9032, 206.4737
513.3853, 206.6120
513.8674, 206.8999
514.3495, 207.4901
514.8317, 208.4201
515.3138, 209.5094
515.7959, 210.6857
516.2780, 212.0055
516.7601, 212.4230
517.2422, 211.4749
517.7244, 210.3014
518.2065, 209.0676
518.6886, 207.9206
519.1707, 207.0741
519.6528, 206.5940
520.1349, 206.2790
520.6171, 205.9046
521.0992, 205.5830
521.5813, 204.7410
522.0634, 202.2740
522.5455, 200.3994
523.0276, 200.2525
523.5098, 201.2336
523.9919, 202.2411
524.4740, 202.8678
524.9561, 203.1023
525.4382, 202.6763
525.9203, 201.5706
526.4025, 201.1458
526.8846, 202.2395
527.3667, 203.4109
527.8488, 202.9725
528.3309, 201.2117
528.8130, 199.9995
529.2952, 200.3544
529.7773, 201.1260
530.2594, 201.2784
530.7415, 200.8952
531.2236, 200.4470
531.7057, 200.1126
532.1879, 199.9097
532.6700, 199.8964
533.1521, 200.2428
533.6342, 200.3857
534.1163, 200.1740
534.5984, 199.8769
535.0806, 199.7211
535.5627, 199.6390
536.0448, 199.2872
536.5269, 198.3876
537.0090, 197.3546
537.4911, 197.6109
537.9733, 200.1180
538.4554, 201.7934
538.9375, 201.7019
539.4196, 201.1893
539.9017, 200.9845
540.3839, 201.1176
540.8660, 201.3350
541.3481, 201.6342
541.8302, 201.8206
542.3123, 201.2500
542.7944, 199.7899
543.2766, 198.7911
543.7587, 199.0955
544.2408, 199.8858
544.7229, 199.9392
545.2050, 199.1815
545.6871, 198.4247
546.1693, 198.0561
546.6514, 197.7596
547.1335, 197.0044
547.6156, 195.8825
548.0977, 195.1678
548.5798, 195.3979
549.0620, 196.2689
549.5441, 196.7551
550.0262, 196.7056
550.5083, 196.4305
550.9904, 195.7180
551.4725, 194.9371
551.9547, 194.3863
552.4368, 194.0453
552.9189, 193.6903
553.4010, 193.1448
553.8831, 192.4721
554.3652, 191.9757
554.8474, 191.8140
555.3295, 191.4363
555.8116, 190.4400
556.2937, 189.3581
556.7758, 188.6007
557.2579, 188.1799
557.7401, 187.7747
558.2222, 187.0715
558.7043, 186.3154
559.1864, 185.9733
559.6685, 186.0605
560.1506, 186.2529
560.6328, 186.5628
561.1149, 186.7200
561.5970, 186.0059
562.0791, 184.1763
562.5612, 182.4680
563.0433, 181.0347
563.5255, 179.8662
564.0076, 179.0337
564.4897, 178.4712
564.9718, 177.9177
565.4539, 177.1860
565.9360, 176.4087
566.4182, 176.1023
566.9003, 176.8734
567.3824, 176.9512
567.8645, 175.6356
568.3466, 174.1679
568.8287, 173.2639
569.3109, 172.9210
569.7930, 172.8775
570.2751, 173.1352
570.7572, 173.4144
571.2393, 173.0280
571.7214, 171.9182
572.2036, 170.8623
572.6857, 170.0963
573.1678, 169.5083
573.6499, 168.9920
574.1320, 168.5464
574.6141, 168.0621
575.0963, 167.6119
575.5784, 167.0303
576.0605, 166.0255
576.5426, 164.7439
577.0247, 163.6850
577.5068, 163.0919
577.9890, 162.7609
578.4711, 162.3412
578.9532, 161.9516
579.4353, 161.1415
579.9174, 159.4769
580.3995, 157.8789
580.8817, 156.9720
581.3638, 156.4350
581.8459, 155.5698
582.3280, 154.0185
582.8101, 152.2212
583.2922, 150.8533
583.7744, 149.9341
584.2565, 149.2458
584.7386, 148.9615
585.2207, 148.6072
585.7029, 147.6850
586.1850, 146.4351
586.6671, 145.4839
587.1492, 145.0821
587.6313, 144.8770
588.1135, 144.8506
588.5956, 144.8019
589.0777, 144.0715
589.5598, 142.4722
590.0419, 140.9077
590.5240, 140.3987
591.0062, 141.0065
591.4883, 141.2949
591.9704, 141.3923
592.4525, 141.0632
592.9346, 140.0016
593.4167, 138.6098
593.8989, 137.2219
594.3810, 135.9722
594.8631, 134.9853
595.3452, 134.5160
595.8273, 134.4969
596.3094, 134.1077
596.7916, 133.2246
597.2737, 132.2514
597.7558, 131.0863
598.2379, 130.0560
598.7200, 129.6687
599.2021, 130.0640
599.6843, 130.2549
600.1664, 129.5282
600.6485, 128.3989
601.1306, 127.5832
601.6127, 127.1180
602.0948, 126.7478
602.5770, 126.3591
603.0591, 125.9071
603.5412, 125.2511
604.0233, 123.9054
604.5054, 123.1822
604.9875, 123.7480
605.4697, 124.3389
605.9518, 124.0835
606.4339, 123.1659
606.9160, 122.2267
607.3981, 121.6149
607.8802, 121.2162
608.3624, 120.8975
608.8445, 120.7140
609.3266, 120.1355
609.8087, 118.7502
610.2908, 117.3819
610.7729, 116.6558
611.2551, 116.4251
611.7372, 116.2701
612.2193, 116.1661
612.7014, 116.0049
613.1835, 115.6395
613.6656, 115.1694
614.1478, 114.8486
614.6299, 114.7392
615.1120, 114.6222
615.5941, 114.2710
616.0762, 113.6829
616.5583, 113.1061
617.0405, 112.2793
617.5226, 111.7882
618.0047, 112.3658
618.4868, 112.9319
618.9689, 112.1728
619.4510, 110.0737
619.9332, 107.9813
620.4153, 107.0219
620.8974, 106.9719
621.3795, 107.1936
621.8616, 107.8114
622.3438, 108.0231
622.8259, 107.3431
623.3080, 106.2694
623.7901, 105.4388
624.2722, 104.8529
624.7543, 104.4054
625.2365, 104.0320
625.7186, 103.8127
626.2007, 104.0299
626.6828, 104.4627
627.1649, 104.5092
627.6470, 103.9131
628.1292, 102.8993
628.6113, 101.7482
629.0934, 100.2927
629.5755, 99.39201
630.0576, 99.62111
630.5397, 99.80980
631.0219, 99.49697
631.5040, 98.98763
631.9861, 98.80986
632.4682, 99.13172
632.9503, 99.33389
633.4324, 98.71815
633.9146, 97.52739
634.3967, 96.49217
634.8788, 95.66425
635.3609, 95.09180
635.8430, 94.87425
636.3251, 94.89482
636.8073, 94.83614
637.2894, 94.72608
637.7715, 94.49303
638.2536, 94.10422
638.7357, 93.60620
639.2178, 92.77064
639.7000, 91.84989
640.1821, 91.59883
640.6642, 92.47766
641.1463, 93.79229
641.6284, 94.04049
642.1105, 92.96985
642.5927, 92.18601
643.0748, 92.03518
643.5569, 91.92501
644.0390, 91.44805
644.5211, 90.78242
645.0032, 90.36626
645.4854, 90.55379
645.9675, 90.39321
646.4496, 88.62270
646.9317, 86.24973
647.4138, 85.30612
647.8959, 86.01897
648.3781, 87.10803
648.8602, 87.70126
649.3423, 87.81898
649.8244, 87.51540
650.3065, 86.11531
650.7886, 85.31580
651.2708, 85.57668
651.7529, 86.07751
652.2350, 86.30180
652.7171, 86.28719
653.1992, 86.33118
653.6813, 86.63000
654.1635, 86.96364
654.6456, 87.01126
655.1277, 86.78173
655.6098, 86.33342
656.0919, 85.57793
656.5740, 84.89133
657.0562, 84.63318
657.5383, 84.75648
658.0204, 84.81738
658.5025, 84.98893
658.9846, 84.88012
659.4667, 84.00031
659.9489, 83.01511
660.4310, 82.81502
660.9131, 83.33369
661.3952, 83.59866
661.8773, 82.77307
662.3594, 81.39560
662.8416, 81.50806
663.3237, 83.81532
663.8058, 84.97179
664.2879, 83.40385
664.7700, 81.52670
665.2521, 81.39149
665.7343, 82.43056
666.2164, 82.61597
666.6985, 80.56812
667.1806, 78.58887
667.6627, 78.61884
668.1448, 79.78771
668.6270, 80.53604
669.1091, 80.52835
669.5912, 79.96770
670.0733, 78.90828
670.5554, 77.50237
671.0375, 76.86471
671.5197, 77.66389
672.0018, 78.14519
672.4839, 77.79058
672.9660, 77.37045
673.4481, 77.50127
673.9302, 78.05401
674.4124, 78.46083
674.8945, 78.41989
675.3766, 78.12594
675.8587, 77.79006
676.3408, 77.40872
676.8229, 76.93761
677.3051, 76.34622
677.7872, 75.78535
678.2693, 75.37403
678.7514, 75.11102
679.2335, 74.98841
679.7156, 75.17661
680.1978, 75.26132
680.6799, 75.12072
681.1620, 74.90221
681.6441, 74.72967
682.1262, 74.60076
682.6083, 74.45004
683.0905, 74.23830
683.5726, 73.97401
684.0547, 73.69834
684.5368, 73.41193
685.0189, 72.88987
685.5010, 71.90257
685.9832, 71.11271
686.4653, 71.29563
686.9474, 72.20438
687.4295, 72.54202
687.9116, 71.83853
688.3937, 71.16382
688.8759, 70.65166
689.3580, 70.43080
689.8401, 70.87328
690.3222, 71.80006
690.8043, 72.48119
691.2864, 72.43336
691.7686, 71.87395
692.2507, 71.28951
692.7328, 70.67641
693.2149, 70.04438
693.6970, 69.28742
694.1791, 68.67250
694.6613, 68.57939
695.1434, 68.74264
695.6255, 68.49240
696.1076, 67.32442
696.5897, 66.56393
697.0718, 67.16980
697.5540, 68.30315
698.0361, 69.04998
698.5182, 69.30814
699.0003, 69.27374
699.4824, 69.06140
699.9645, 68.66798
700.4467, 68.00575
700.9288, 66.88911
701.4109, 66.21892
701.8930, 66.33962
702.3751, 66.56271
702.8572, 66.64555
703.3394, 66.57168
703.8215, 66.22145
704.3036, 65.43326
704.7857, 64.94560
705.2678, 65.40366
705.7499, 66.30016
706.2321, 67.09200
706.7142, 67.67709
707.1963, 67.88716
707.6784, 67.61851
708.1605, 67.03352
708.6426, 66.44888
709.1248, 65.88612
709.6069, 65.23715
710.0890, 64.06998
710.5711, 63.34040
711.0532, 63.73043
711.5353, 64.56934
712.0175, 65.00615
712.4996, 64.86893
712.9817, 64.49253
713.4638, 63.83902
713.9459, 63.21002
714.4280, 63.16644
714.9102, 63.59497
715.3923, 63.83269
715.8744, 63.58803
716.3565, 63.14322
716.8386, 62.92255
717.3207, 62.97908
717.8029, 62.88143
718.2850, 62.47449
718.7671, 62.10303
719.2492, 61.71739
719.7313, 61.48326
720.2134, 61.71074
720.6956, 62.36147
721.1777, 62.80277
721.6598, 62.53506
722.1419, 61.94188
722.6240, 61.46612
723.1061, 61.09182
723.5883, 60.70448
724.0704, 60.25868
724.5525, 60.00264
725.0346, 60.29292
725.5167, 61.09697
725.9988, 61.21800
726.4810, 59.86699
726.9631, 58.96756
727.4452, 58.83871
727.9273, 59.14437
728.4094, 59.96663
728.8915, 61.03334
729.3737, 61.48809
729.8558, 60.67576
730.3379, 59.54284
730.8200, 59.11109
731.3021, 59.16315
731.7842, 59.04992
732.2664, 58.66315
732.7485, 58.42784
733.2306, 58.70514
733.7127, 59.34072
734.1948, 59.74003
734.6769, 59.99044
735.1591, 59.82815
735.6412, 58.68778
736.1233, 57.72596
736.6054, 57.74985
737.0875, 58.32275
737.5696, 58.51650
738.0518, 57.95710
738.5339, 57.50022
739.0160, 58.11419
739.4981, 59.18322
739.9802, 59.61798
740.4623, 59.36047
740.9445, 58.59101
741.4266, 57.29794
741.9087, 56.02483
742.3908, 55.82985
742.8729, 57.06450
743.3550, 57.85457
743.8372, 57.88379
744.3193, 57.83128
744.8014, 57.88815
745.2835, 57.94986
745.7656, 57.91595
746.2477, 57.76730
746.7299, 57.49236
747.2120, 56.86815
747.6941, 56.27533
748.1762, 56.30090
748.6583, 56.73980
749.1404, 56.85432
749.6226, 56.44230
750.1047, 56.10551
750.5868, 56.51467
751.0689, 57.57484
751.5510, 58.24434
752.0331, 58.29278
752.5153, 58.38806
752.9974, 58.95750
753.4795, 59.32379
753.9616, 58.80834
754.4437, 57.71228
754.9258, 57.02201
755.4080, 57.15533
755.8901, 57.52417
756.3722, 57.80523
756.8543, 58.03243
757.3364, 58.31909
757.8185, 58.62830
758.3007, 58.72675
758.7828, 58.46489
759.2649, 57.95025
759.7470, 57.34005
760.2291, 56.52247
760.7112, 56.13945
761.1934, 56.31911
761.6755, 56.75924
762.1576, 57.69620
762.6397, 58.63415
763.1218, 58.87838
763.6039, 58.31578
764.0861, 57.61077
764.5682, 56.53991
765.0503, 55.82830
765.5324, 56.57069
766.0145, 57.97187
766.4966, 58.32019
766.9788, 57.21136
767.4609, 55.81679
767.9430, 55.27338
768.4251, 55.47897
768.9072, 56.02790
769.3893, 57.03549
769.8715, 57.73297
770.3536, 57.68847
770.8357, 57.62869
771.3178, 58.46581
771.7999, 59.94716
772.2820, 60.75047
772.7642, 60.22469
773.2463, 59.79317
773.7284, 59.79429
774.2105, 60.08370
774.6926, 60.66916
775.1747, 61.42566
775.6569, 62.07006
776.1390, 62.45739
776.6211, 62.72898
777.1032, 63.11893
777.5853, 63.58017
778.0674, 63.81387
778.5496, 63.77552
779.0317, 63.66918
779.5138, 63.46784
779.9959, 63.44985
780.4780, 64.17925
780.9601, 65.92896
781.4423, 67.33559
781.9244, 67.88831
782.4065, 68.72841
782.8886, 70.63224
783.3707, 72.75108
783.8528, 73.95689
784.3350, 74.27730
784.8171, 74.95918
785.2992, 76.91086
785.7813, 79.45712
786.2634, 81.63124
786.7455, 83.65722
787.2277, 86.15113
787.7098, 89.24124
788.1919, 93.29332
788.6740, 98.71264
789.1561, 105.0526
789.6382, 110.5344
790.1204, 114.2755
790.6025, 119.2341
791.0846, 126.7123
791.5667, 134.1459
792.0488, 140.2678
792.5309, 145.6968
793.0131, 151.4108
793.4952, 157.5709
793.9773, 164.0919
794.4594, 170.7726
794.9415, 177.9260
795.4236, 185.8575
795.9058, 194.4944
796.3879, 203.5844
796.8700, 213.0808
797.3521, 223.3380
797.8342, 234.8818
798.3163, 247.5183
798.7985, 260.0810
799.2806, 272.4307
799.7627, 285.6310
800.2448, 300.0567
800.7269, 315.3143
801.2090, 331.4356
801.6912, 348.2256
802.1733, 364.8536
802.6554, 381.7622
803.1375, 397.8162
803.6196, 414.4214
804.1017, 428.5877
804.5839, 438.1987
805.0660, 443.5810
805.5481, 445.6886
806.0302, 444.8967
806.5123, 441.0815
806.9944, 434.1342
807.4766, 424.1073
807.9587, 410.5768
808.4408, 393.7264
808.9229, 375.0638
809.4050, 355.0061
809.8871, 334.6248
810.3693, 314.9335
810.8514, 295.9474
811.3335, 278.8359
811.8156, 264.2540
812.2977, 250.3942
812.7798, 236.8216
813.2620, 223.9521
813.7441, 211.8962
814.2262, 200.8298
814.7083, 191.1594
815.1904, 183.1911
815.6725, 176.1208
816.1547, 169.4788
816.6368, 163.4571
817.1189, 158.2263
817.6010, 153.7954
818.0831, 150.3087
818.5652, 147.8086
819.0474, 145.7959
819.5295, 143.3586
820.0116, 142.5389
820.4937, 139.9777
820.9758, 141.5039
821.4579, 142.9502
821.9401, 143.2353
822.4222, 143.7846
822.9043, 146.2779
823.3864, 150.6373
823.8685, 154.8471
824.3506, 158.3122
824.8328, 162.4333
825.3149, 167.7681
825.7970, 173.5175
826.2791, 179.4647
826.7612, 185.3200
827.2433, 190.4836
827.7255, 194.6648
828.2076, 198.9093
828.6897, 204.0357
829.1718, 209.8439
829.6539, 215.9914
830.1360, 222.4864
830.6182, 229.3285
831.1003, 236.4902
831.5824, 244.8628
832.0645, 255.6428
832.5466, 268.6684
833.0287, 281.1787
833.5109, 292.7919
833.9930, 304.8537
834.4751, 317.1691
834.9572, 330.5005
835.4393, 345.9763
835.9214, 362.8407
836.4036, 379.1507
836.8857, 395.1231
837.3678, 409.6764
837.8499, 424.1454
838.3320, 435.5428
838.8141, 442.4698
839.2963, 444.4060
839.7784, 440.4909
840.2605, 430.5414
840.7426, 416.3145
841.2247, 398.8723
841.7068, 378.4137
842.1890, 354.3757
842.6711, 327.2747
843.1532, 300.2768
843.6353, 274.0504
844.1174, 250.1833
844.5995, 230.4218
845.0817, 213.9667
845.5638, 197.7733
846.0459, 180.9750
846.5280, 166.9624
847.0101, 157.2627
847.4922, 148.8310
847.9744, 139.9544
848.4565, 131.3918
848.9386, 124.4927
849.4207, 119.6018
849.9028, 114.6579
850.3849, 108.6796
850.8671, 102.9879
851.3492, 98.27978
851.8313, 94.38956
852.3134, 90.99744
852.7955, 88.09658
853.2776, 85.97488
853.7598, 85.08824
854.2419, 84.50633
854.7240, 82.61546
855.2061, 79.76331
855.6882, 77.44868
856.1703, 75.85196
856.6525, 74.21231
857.1346, 72.08360
857.6167, 69.79028
858.0988, 67.98578
858.5809, 66.73060
859.0630, 65.56274
859.5452, 64.45889
860.0273, 63.48685
860.5094, 62.78322
860.9915, 62.13518
861.4736, 61.25091
861.9557, 60.21385
862.4379, 59.53103
862.9200, 59.56549
863.4021, 59.58501
863.8842, 59.25862
864.3663, 58.87881
864.8484, 58.82539
865.3306, 58.91642
865.8127, 58.62260
866.2948, 57.74790
866.7769, 56.78339
867.2590, 56.15107
867.7411, 55.80514
868.2233, 55.62854
868.7054, 55.64476
869.1875, 56.16895
869.6696, 57.30245
870.1517, 58.14778
870.6339, 57.76446
871.1160, 56.49731
871.5981, 55.93908
872.0802, 56.30173
872.5623, 56.59037
873.0444, 56.58645
873.5266, 56.71056
874.0087, 57.39185
874.4908, 58.26615
874.9729, 58.68570
875.4550, 58.62468
875.9371, 58.25775
876.4193, 57.11386
876.9014, 56.25617
877.3835, 56.27857
877.8656, 56.71861
878.3477, 57.15934
878.8298, 57.51464
879.3120, 57.74786
879.7941, 57.70081
880.2762, 57.89283
880.7583, 59.12957
881.2404, 60.81187
881.7225, 61.72972
882.2047, 61.99431
882.6868, 62.78222
883.1689, 64.59915
883.6510, 66.20706
884.1331, 65.74917
884.6152, 63.64143
885.0974, 63.19598
885.5795, 64.63785
886.0616, 66.13334
886.5437, 67.27507
887.0258, 68.32365
887.5079, 69.44566
887.9901, 70.65919
888.4722, 72.06932
888.9543, 74.18493
889.4364, 75.52226
889.9185, 75.55542
890.4006, 75.43449
890.8828, 75.93066
891.3649, 76.34094
891.8470, 75.65172
892.3291, 73.82449
892.8112, 71.98981
893.2933, 70.64179
893.7755, 69.37370
894.2576, 68.06147
894.7397, 66.60233
895.2218, 64.72679
895.7039, 62.56595
896.1860, 60.67377
896.6682, 59.31313
897.1503, 57.97717
897.6324, 55.72672
898.1145, 53.05477
898.5966, 51.53328
899.0787, 51.09631
899.5609, 50.65253
900.0430, 49.85852
900.5251, 49.02113
901.0072, 48.45219
901.4893, 47.74860
901.9714, 47.06739
902.4536, 46.59496
902.9357, 45.87811
903.4178, 45.39841
903.8999, 45.08021
904.3820, 45.08624
904.8641, 45.11989
905.3463, 44.49807
905.8284, 43.05690
906.3105, 42.35062
906.7926, 43.29659
907.2747, 43.95758
907.7568, 43.56635
908.2390, 42.79061
908.7211, 42.02469
909.2032, 41.42151
909.6853, 41.27126
910.1674, 41.84315
910.6495, 42.19931
911.1317, 41.39225
911.6138, 40.29361
912.0959, 39.86220
912.5780, 39.97358
913.0601, 40.30939
913.5422, 40.71757
914.0244, 40.86435
914.5065, 40.30663
914.9886, 39.56727
915.4707, 39.85969
915.9528, 41.02792
916.4349, 42.23872
916.9171, 43.38240
917.3992, 43.86977
917.8813, 43.23429
918.3634, 42.34349
918.8455, 42.75463
919.3276, 44.57760
919.8098, 45.71523
920.2919, 45.80541
920.7740, 46.15398
921.2561, 47.19582
921.7382, 48.43154
922.2203, 49.61314
922.7025, 50.65823
923.1846, 51.24598
923.6667, 51.02851
924.1488, 51.12263
924.6309, 51.65276
925.1130, 52.49085
925.5952, 53.65816
926.0773, 55.05429
926.5594, 56.66996
927.0415, 58.43396
927.5236, 59.99611
928.0057, 60.96709
928.4879, 62.05282
928.9700, 63.79869
929.4521, 65.85088
929.9342, 67.93236
930.4163, 69.93295
930.8984, 71.77804
931.3806, 73.43079
931.8627, 74.76389
932.3448, 75.87425
932.8269, 76.45277
933.3090, 75.77942
933.7911, 73.98592
934.2733, 71.38338
934.7554, 68.10174
935.2375, 65.12479
935.7196, 63.16430
936.2017, 60.46712
936.6838, 58.28621
937.1660, 56.47692
937.6481, 54.27211
938.1302, 53.08448
938.6123, 51.73838
939.0944, 49.77065
939.5765, 47.63673
940.0587, 45.67168
940.5408, 43.92971
941.0229, 42.93707
941.5050, 43.40532
941.9871, 43.31873
942.4692, 41.95066
942.9514, 40.78422
943.4335, 40.75903
943.9156, 41.06630
944.3977, 40.49115
944.8798, 38.99315
945.3619, 38.10030
945.8441, 38.72717
946.3262, 39.23453
946.8083, 38.84986
947.2904, 38.27489
947.7725, 38.32786
948.2546, 38.63116
948.7368, 38.03451
949.2189, 36.15963
949.7010, 34.72727
950.1831, 35.39641
950.6652, 36.55514
951.1473, 36.45536
951.6295, 35.70477
952.1116, 35.67025
952.5937, 36.30463
953.0758, 36.12871
953.5579, 34.18278
954.0400, 32.06986
954.5222, 32.32322
955.0043, 34.08863
955.4864, 34.78880
955.9685, 34.47613
956.4506, 34.36620
956.9327, 34.82025
957.4149, 35.12582
957.8970, 34.60375
958.3791, 33.55351
958.8612, 32.85896
959.3433, 32.53434
959.8254, 32.39288
960.3076, 32.42007
960.7897, 32.67493
961.2718, 33.27140
961.7539, 33.93307
962.2360, 34.35881
962.7181, 34.54109
963.2003, 34.23616
963.6824, 32.98788
964.1645, 32.18908
964.6466, 32.01533
965.1287, 32.25615
965.6108, 33.30627
966.0930, 34.47339
966.5751, 34.58026
967.0572, 33.48248
967.5393, 32.69225
968.0214, 32.47607
968.5035, 32.43803
968.9857, 32.64977
969.4678, 32.83652
969.9499, 32.80798
970.4320, 32.58681
970.9141, 32.20009
971.3962, 31.61692
971.8784, 31.22572
972.3605, 31.26195
972.8426, 31.49265
973.3247, 31.87140
973.8068, 32.27665
974.2889, 32.63372
974.7711, 32.87943
975.2532, 32.81280
975.7353, 32.27250
976.2174, 31.88438
976.6995, 32.32338
977.1816, 33.18136
977.6638, 34.14227
978.1459, 34.98911
978.6280, 35.19039
979.1101, 34.69506
979.5922, 33.90847
980.0743, 33.04527
980.5565, 32.37677
981.0386, 32.61108
981.5207, 32.18740
982.0028, 32.02990
982.4849, 32.41465
982.9670, 32.00891
983.4492, 32.54743
983.9313, 33.19089
984.4134, 33.13268
984.8955, 32.57943
985.3776, 32.16114
985.8597, 31.87914
986.3419, 31.66189
986.8240, 31.47703
987.3061, 31.59898
987.7882, 32.28160
988.2703, 32.90707
988.7524, 32.67212
989.2346, 31.67175
989.7167, 30.89457
990.1988, 30.25698
990.6809, 30.16014
991.1630, 31.08467
991.6451, 31.68835
992.1273, 31.02787
992.6094, 29.91154
993.0915, 29.63101
993.5736, 30.25767
994.0557, 30.38889
994.5378, 29.13644
995.0200, 28.70324
995.5021, 30.20817
995.9842, 31.61038
996.4663, 31.52061
996.9484, 30.73841
997.4305, 30.71640
997.9127, 31.64911
998.3948, 32.11691
998.8769, 31.43505
999.3590, 30.86590
999.8411, 30.90365
1000.323, 31.09884
1000.805, 30.95885
1001.287, 30.74234
1001.770, 31.15596
1002.252, 32.40086
1002.734, 33.30011
1003.216, 33.21603
1003.698, 32.81667
1004.180, 32.21563
1004.662, 31.70859
1005.144, 31.73991
1005.627, 32.12837
1006.109, 32.27728
1006.591, 31.96511
1007.073, 31.71401
1007.555, 32.10072
1008.037, 32.51088
1008.519, 32.20414
1009.001, 31.58970
1009.483, 31.32974
1009.966, 31.44922
1010.448, 31.64593
1010.930, 31.78188
1011.412, 31.87101
1011.894, 31.82804
1012.376, 31.81270
1012.858, 32.32436
1013.340, 33.01764
1013.823, 32.77274
1014.305, 31.62597
1014.787, 30.94008
1015.269, 31.52701
1015.751, 32.45854
1016.233, 32.47448
1016.715, 31.84168
1017.197, 31.21902
1017.679, 30.63818
1018.162, 30.16930
1018.644, 29.83002
1019.126, 29.62263
1019.608, 29.55804
1020.090, 29.56269
1020.572, 29.57144
1021.054, 29.55054
1021.536, 29.13763
1022.018, 28.35586
1022.501, 27.96902
1022.983, 28.17816
1023.465, 28.47166
1023.947, 28.47740
1024.429, 28.32021
1024.911, 28.25001
1025.393, 28.26737
1025.875, 28.35502
1026.358, 28.51838
1026.840, 28.69669
1027.322, 28.85993
1027.804, 29.13950
1028.286, 29.72372
1028.768, 30.33919
1029.250, 30.20074
1029.732, 29.14439
1030.214, 28.63979
1030.697, 28.83022
1031.179, 29.13845
1031.661, 29.58706
1032.143, 29.69967
1032.625, 29.01657
1033.107, 27.78072
1033.589, 26.60422
1034.071, 25.29431
1034.553, 24.99437
1035.036, 26.32630
1035.518, 27.29825
1036.000, 27.20257
1036.482, 26.90006
1036.964, 27.14077
1037.446, 26.85442
1037.928, 27.63739
1038.410, 26.76322
1038.893, 26.40778
1039.375, 26.80165
1039.857, 27.36042
1040.339, 28.38171
1040.821, 29.06973
1041.303, 28.46060
1041.785, 27.10147
1042.267, 26.63322
1042.750, 27.46756
1043.232, 27.81466
1043.714, 27.05911
1044.196, 26.62439
1044.678, 27.22292
1045.160, 27.88583
1045.642, 27.79645
1046.124, 27.24841
1046.606, 26.95396
1047.089, 26.95678
1047.571, 27.21345
1048.053, 28.25603
1048.535, 28.82866
1049.017, 28.25311
1049.499, 27.39987
1049.981, 26.78054
1050.463, 26.43269
1050.945, 26.44800
1051.428, 26.93625
1051.910, 27.12648
1052.392, 26.47851
1052.874, 26.04242
1053.356, 26.46929
1053.838, 26.93526
1054.320, 26.69712
1054.802, 26.05022
1055.285, 25.62978
1055.767, 25.53627
1056.249, 25.61173
1056.731, 26.08792
1057.213, 26.36502
1057.695, 26.06298
1058.177, 25.63219
1058.659, 25.44050
1059.141, 25.37159
1059.624, 25.00643
1060.106, 24.27520
1060.588, 24.20309
1061.070, 25.89963
1061.552, 27.26905
1062.034, 27.52877
1062.516, 27.10326
1062.998, 25.62382
1063.480, 24.00982
1063.963, 24.02163
1064.445, 25.82565
1064.927, 27.08226
1065.409, 26.58536
1065.891, 25.85571
1066.373, 25.06937
1066.855, 24.71723
1067.337, 25.58223
1067.820, 26.93588
1068.302, 27.75238
1068.784, 27.84977
1069.266, 27.37918
1069.748, 25.77884
1070.230, 24.70380
1070.712, 25.41295
1071.194, 26.38139
1071.677, 26.52384
1072.159, 26.14709
1072.641, 25.76274
1073.123, 25.43708
1073.605, 24.96684
1074.087, 23.97286
1074.569, 23.55947
1075.051, 24.95975
1075.533, 26.36589
1076.016, 26.49869
1076.498, 25.84299
1076.980, 24.77644
1077.462, 23.60989
1077.944, 23.17143
1078.426, 23.96501
1078.908, 24.68537
1079.390, 24.38425
1079.873, 24.19223
1080.355, 25.25580
1080.837, 26.55321
1081.319, 26.79228
1081.801, 26.14196
1082.283, 25.53275
1082.765, 25.22822
1083.247, 25.01382
1083.729, 24.67396
1084.212, 24.53654
1084.694, 25.20954
1085.176, 25.84383
1085.658, 25.36721
1086.140, 24.16674
1086.622, 23.29131
1087.104, 22.99076
1087.586, 22.96711
1088.068, 23.37042
1088.551, 23.66824
1089.033, 23.40233
1089.515, 23.09317
1089.997, 23.20991
1090.479, 23.62610
1090.961, 24.08426
1091.443, 24.52658
1091.925, 24.86596
1092.408, 25.23777
1092.890, 25.27065
1093.372, 24.49226
1093.854, 23.65542
1094.336, 23.15909
1094.818, 23.03938
1095.300, 23.41887
1095.782, 24.21792
1096.265, 24.87659
1096.747, 25.35957
1097.229, 25.43914
1097.711, 24.59128
1098.193, 23.82591
1098.675, 23.81078
1099.157, 24.15087
1099.639, 24.57153
1100.121, 24.90288
1100.604, 24.64256
1101.086, 23.44687
1101.568, 22.40519
1102.050, 21.49138
1102.532, 21.17608
1103.014, 22.08930
1103.496, 23.32334
1103.978, 24.38152
1104.460, 25.02659
1104.943, 24.64322
1105.425, 22.85546
1105.907, 21.78039
1106.389, 22.40552
1106.871, 22.95170
1107.353, 22.67846
1107.835, 22.38604
1108.317, 22.75686
1108.800, 23.43319
1109.282, 23.80450
1109.764, 23.82535
1110.246, 23.62095
1110.728, 22.85255
1111.210, 22.38922
1111.692, 22.58356
1112.174, 22.83222
1112.656, 22.81232
1113.139, 22.71093
1113.621, 22.83875
1114.103, 22.67702
1114.585, 22.48235
1115.067, 22.47674
1115.549, 22.06532
1116.031, 21.98937
1116.513, 22.04403
1116.995, 22.14214
1117.478, 22.37593
1117.960, 22.93261
1118.442, 23.66553
1118.924, 24.09934
1119.406, 24.14148
1119.888, 24.26785
1120.370, 24.66533
1120.852, 24.72860
1121.335, 24.10996
1121.817, 23.52032
1122.299, 23.44962
1122.781, 23.67016
1123.263, 23.79078
1123.745, 23.81076
1124.227, 23.69685
1124.709, 23.30429
1125.192, 23.34927
1125.674, 24.10477
1126.156, 24.71598
1126.638, 24.73599
1127.120, 24.58337
1127.602, 24.80429
1128.084, 24.48904
1128.566, 25.06631
1129.048, 24.14507
1129.531, 23.70800
1130.013, 23.87679
1130.495, 24.05324
1130.977, 24.07724
1131.459, 23.83600
1131.941, 23.16106
1132.423, 22.40918
1132.905, 22.47247
1133.387, 23.27992
1133.870, 23.71454
1134.352, 23.78474
1134.834, 23.62246
1135.316, 23.25873
1135.798, 22.96649
1136.280, 22.88941
1136.762, 23.04211
1137.244, 23.56069
1137.727, 24.21316
1138.209, 24.06219
1138.691, 23.40922
1139.173, 23.86286
1139.655, 25.28588
1140.137, 25.73200
1140.619, 24.60381
1141.101, 23.38894
1141.583, 23.33890
1142.066, 23.73939
1142.548, 23.43286
1143.030, 23.45347
1143.512, 23.38071
1143.994, 23.05643
1144.476, 23.01181
1144.958, 22.56600
1145.440, 22.24299
1145.922, 22.31421
1146.405, 22.44865
1146.887, 22.16438
1147.369, 21.94271
1147.851, 22.51093
1148.333, 23.38860
1148.815, 23.87061
1149.297, 23.99850
1149.779, 24.15814
1150.262, 24.43053
1150.744, 24.40773
1151.226, 23.46101
1151.708, 22.81436
1152.190, 23.72986
1152.672, 24.80583
1153.154, 24.83267
1153.636, 24.25204
1154.119, 23.67477
1154.601, 23.23514
1155.083, 22.99647
1155.565, 22.99317
1156.047, 23.12615
1156.529, 23.55005
1157.011, 23.86300
1157.493, 23.94781
1157.975, 23.79468
1158.458, 23.17184
1158.940, 22.38721
1159.422, 22.06540
1159.904, 22.28344
1160.386, 22.59921
1160.868, 23.26251
1161.350, 23.57597
1161.832, 22.95946
1162.314, 22.65447
1162.797, 23.63888
1163.279, 24.71487
1163.761, 24.52277
1164.243, 23.32634
1164.725, 22.30603
1165.207, 21.25057
1165.689, 21.23304
1166.171, 22.81449
1166.654, 23.66465
1167.136, 22.93620
1167.618, 22.28715
1168.100, 22.90473
1168.582, 24.01947
1169.064, 24.33085
1169.546, 23.91254
1170.028, 23.33574
1170.510, 22.58938
1170.993, 22.12513
1171.475, 21.98974
1171.957, 22.18349
1172.439, 22.71761
1172.921, 23.28735
1173.403, 23.63447
1173.885, 23.77802
1174.367, 23.68911
1174.849, 23.44227
1175.332, 23.38296
1175.814, 23.40227
1176.296, 22.90149
1176.778, 21.91396
1177.260, 21.29815
1177.742, 21.46321
1178.224, 21.71250
1178.706, 21.27070
1179.189, 20.66022
1179.671, 20.40193
1180.153, 20.51956
1180.635, 21.33709
1181.117, 22.46634
1181.599, 23.13836
1182.081, 23.18433
1182.563, 22.70907
1183.046, 21.47007
1183.528, 20.70573
1184.010, 21.75747
1184.492, 22.83066
1184.974, 22.64789
1185.456, 21.90649
1185.938, 21.02046
1186.420, 20.32627
1186.902, 20.61382
1187.385, 22.08498
1187.867, 22.78861
1188.349, 21.40564
1188.831, 20.64607
1189.313, 21.72313
1189.795, 22.67547
1190.277, 22.17978
1190.759, 21.43212
1191.241, 21.81576
1191.724, 22.94022
1192.206, 23.23711
1192.688, 22.47960
1193.170, 21.78588
1193.652, 20.91534
1194.134, 21.02850
1194.616, 22.79640
1195.098, 24.05109
1195.581, 23.47277
1196.063, 22.03814
1196.545, 20.95644
1197.027, 20.30152
1197.509, 20.58009
1197.991, 21.71129
1198.473, 22.47910
1198.955, 22.78309
1199.438, 22.14725
1199.920, 20.54931
1200.402, 19.54597
1200.884, 20.23052
1201.366, 21.42563
1201.848, 21.50037
1202.330, 21.05009
1202.812, 21.25072
1203.294, 21.77727
1203.776, 21.97201
1204.259, 21.84810
1204.741, 21.61921
1205.223, 21.39226
1205.705, 21.44155
1206.187, 22.17408
1206.669, 22.55798
1207.151, 21.24631
1207.633, 19.99476
1208.116, 20.43108
1208.598, 21.51835
1209.080, 22.17744
1209.562, 22.34051
1210.044, 22.09055
1210.526, 21.38552
1211.008, 21.06350
1211.490, 21.58331
1211.973, 22.04332
1212.455, 22.14065
1212.937, 22.33079
1213.419, 23.24648
1213.901, 23.86835
1214.383, 22.77372
1214.865, 23.36222
1215.347, 23.19039
1215.829, 22.53602
1216.312, 23.05443
1216.794, 21.56590
1217.276, 21.10015
1217.758, 22.36271
1218.240, 23.51524
1218.722, 23.67691
1219.204, 23.21009
1219.686, 22.37210
1220.168, 21.54855
1220.651, 22.02243
1221.133, 23.34392
1221.615, 23.63419
1222.097, 23.02922
1222.579, 22.29513
1223.061, 21.67947
1223.543, 21.52685
1224.025, 21.99584
1224.508, 22.44161
1224.990, 22.15615
1225.472, 21.75368
1225.954, 21.79184
1226.436, 22.10328
1226.918, 22.88325
1227.400, 23.58394
1227.882, 22.89777
1228.365, 21.18800
1228.847, 20.81024
1229.329, 22.83052
1229.811, 24.43795
1230.293, 24.60677
1230.775, 24.59775
1231.257, 24.96780
1231.739, 25.13025
1232.221, 24.52025
1232.703, 23.60894
1233.186, 22.87032
1233.668, 22.36118
1234.150, 22.59538
1234.632, 21.97406
1235.114, 24.09922
1235.596, 22.14723
1236.078, 21.51385
1236.560, 23.15787
1237.043, 24.81848
1237.525, 25.20477
1238.007, 24.88164
1238.489, 24.50686
1238.971, 24.11683
1239.453, 23.85802
1239.935, 23.65729
1240.417, 23.17432
1240.900, 22.52998
1241.382, 22.15818
1241.864, 22.16153
1242.346, 22.56009
1242.828, 23.38089
1243.310, 24.14470
1243.792, 24.37150
1244.274, 24.50759
1244.756, 25.03508
1245.239, 25.52918
1245.721, 25.49960
1246.203, 25.19977
1246.685, 25.06501
1247.167, 25.09325
1247.649, 24.98685
1248.131, 24.65095
1248.613, 24.32675
1249.095, 23.79346
1249.578, 23.67671
1250.060, 24.35209
1250.542, 25.03349
1251.024, 25.32439
1251.506, 25.43814
1251.988, 25.64097
1252.470, 25.86780
1252.952, 25.80046
1253.435, 25.42427
1253.917, 25.39471
1254.399, 25.71124
1254.881, 26.15970
1255.363, 26.67275
1255.845, 26.98415
1256.327, 26.96657
1256.809, 26.50745
1257.292, 25.20034
1257.774, 24.11756
1258.256, 25.28529
1258.738, 27.17320
1259.220, 27.45843
1259.702, 26.93019
1260.184, 27.36506
1260.666, 28.46266
1261.148, 28.29718
1261.630, 26.33084
1262.113, 25.33053
1262.595, 27.33655
1263.077, 28.90157
1263.559, 28.68902
1264.041, 28.26397
1264.523, 28.31268
1265.005, 28.55566
1265.487, 28.79559
1265.970, 29.00789
1266.452, 29.17440
1266.934, 29.30178
1267.416, 28.83776
1267.898, 27.58796
1268.380, 27.40292
1268.862, 28.52945
1269.344, 29.38236
1269.827, 29.44871
1270.309, 29.24217
1270.791, 29.12343
1271.273, 29.04852
1271.755, 28.91799
1272.237, 28.81619
1272.719, 28.95277
1273.201, 29.20086
1273.683, 29.23610
1274.166, 29.21854
1274.648, 29.71894
1275.130, 30.67112
1275.612, 31.15202
1276.094, 30.70655
1276.576, 30.26445
1277.058, 30.14567
1277.540, 30.16626
1278.022, 30.23486
1278.505, 30.44322
1278.987, 31.10837
1279.469, 31.74136
1279.951, 31.73837
1280.433, 31.23387
1280.915, 30.75653
1281.397, 30.29577
1281.879, 29.96443
1282.362, 29.74517
1282.844, 29.92507
1283.326, 30.55765
1283.808, 31.09396
1284.290, 31.30380
1284.772, 31.44823
1285.254, 31.71688
1285.736, 32.10960
##END=



