##NAMES=Tetrawickmanite
##RRUFFID=R100003
##IDEAL CHEMISTRY=Mn^2+^Sn^4+^(OH)_6_
##LOCALITY=Langban, Filipstad, Varmland, Sweden
##OWNER=RRUFF
##SOURCE=William Pinch
##DESCRIPTION=Yellowish-orange pseudocubic crystals
##STATUS=The identification of this mineral is confirmed by single-crystal X-ray diffraction and chemical analysis.
##URL=rruff.info/R100003
##MEASURED CHEMISTRY=(Mn^2+^_0.94_Mg^2+^_0.05_Fe^2+^_0.01_)_Σ=1_(Sn^4+^_0.92_W^6+^_0.05_)_Σ=0.97_(OH)_6_
158.5462, 1289.785
159.0283, 1293.086
159.5104, 1296.058
159.9926, 1301.813
160.4747, 1315.524
160.9568, 1327.708
161.4389, 1334.098
161.9210, 1335.427
162.4031, 1337.975
162.8853, 1345.833
163.3674, 1355.257
163.8495, 1362.820
164.3316, 1367.450
164.8137, 1369.967
165.2958, 1369.716
165.7780, 1366.777
166.2601, 1364.731
166.7422, 1365.807
167.2243, 1368.748
167.7064, 1371.942
168.1885, 1375.294
168.6707, 1378.331
169.1528, 1380.511
169.6349, 1381.770
170.1170, 1383.094
170.5991, 1385.654
171.0812, 1388.736
171.5634, 1391.058
172.0455, 1391.190
172.5276, 1390.774
173.0097, 1391.231
173.4918, 1392.623
173.9739, 1395.201
174.4561, 1399.983
174.9382, 1406.223
175.4203, 1412.143
175.9024, 1416.717
176.3845, 1420.428
176.8666, 1423.845
177.3488, 1427.020
177.8309, 1429.995
178.3130, 1432.850
178.7951, 1435.586
179.2772, 1438.086
179.7593, 1440.122
180.2415, 1441.914
180.7236, 1444.012
181.2057, 1446.615
181.6878, 1449.206
182.1699, 1451.225
182.6520, 1452.648
183.1342, 1453.583
183.6163, 1454.305
184.0984, 1454.595
184.5805, 1453.481
185.0626, 1450.160
185.5447, 1446.439
186.0269, 1445.804
186.5090, 1448.132
186.9911, 1450.598
187.4732, 1450.520
187.9553, 1448.590
188.4374, 1448.521
188.9196, 1451.887
189.4017, 1456.393
189.8838, 1456.111
190.3659, 1450.791
190.8480, 1445.643
191.3301, 1445.400
191.8123, 1449.534
192.2944, 1452.722
192.7765, 1453.887
193.2586, 1453.505
193.7407, 1452.918
194.2228, 1452.183
194.7050, 1450.911
195.1871, 1448.165
195.6692, 1443.973
196.1513, 1441.150
196.6334, 1440.457
197.1155, 1441.511
197.5977, 1443.314
198.0798, 1446.193
198.5619, 1448.442
199.0440, 1448.106
199.5261, 1445.021
200.0082, 1441.834
200.4904, 1438.877
200.9725, 1436.254
201.4546, 1434.614
201.9367, 1434.016
202.4188, 1434.185
202.9009, 1435.486
203.3831, 1438.358
203.8652, 1439.220
204.3473, 1436.482
204.8294, 1430.583
205.3115, 1426.687
205.7936, 1425.275
206.2758, 1424.847
206.7579, 1423.789
207.2400, 1421.924
207.7221, 1420.296
208.2042, 1419.177
208.6863, 1418.568
209.1685, 1418.126
209.6506, 1417.665
210.1327, 1417.710
210.6148, 1419.295
211.0969, 1423.220
211.5790, 1425.903
212.0612, 1425.852
212.5433, 1422.977
213.0254, 1422.154
213.5075, 1424.125
213.9896, 1427.122
214.4717, 1429.074
214.9538, 1429.895
215.4360, 1429.909
215.9181, 1429.083
216.4002, 1427.376
216.8823, 1425.191
217.3644, 1421.595
217.8465, 1418.554
218.3287, 1419.099
218.8108, 1425.520
219.2929, 1430.251
219.7750, 1430.920
220.2571, 1426.977
220.7392, 1423.717
221.2214, 1420.533
221.7035, 1418.611
222.1856, 1420.055
222.6677, 1427.229
223.1498, 1432.749
223.6319, 1434.108
224.1141, 1430.705
224.5962, 1427.901
225.0783, 1425.101
225.5604, 1423.442
226.0425, 1424.766
226.5246, 1430.688
227.0068, 1436.486
227.4889, 1441.024
227.9710, 1444.434
228.4531, 1446.005
228.9352, 1445.067
229.4173, 1442.847
229.8995, 1440.636
230.3816, 1437.042
230.8637, 1436.030
231.3458, 1439.562
231.8279, 1448.865
232.3100, 1454.984
232.7922, 1456.682
233.2743, 1456.221
233.7564, 1456.484
234.2385, 1457.849
234.7206, 1459.296
235.2027, 1460.668
235.6849, 1462.046
236.1670, 1462.802
236.6491, 1462.536
237.1312, 1461.982
237.6133, 1462.019
238.0954, 1462.585
238.5776, 1463.869
239.0597, 1466.129
239.5418, 1469.544
240.0239, 1472.473
240.5060, 1474.656
240.9881, 1476.570
241.4703, 1478.890
241.9524, 1482.132
242.4345, 1484.812
242.9166, 1486.103
243.3987, 1485.576
243.8808, 1487.254
244.3630, 1492.601
244.8451, 1498.908
245.3272, 1502.661
245.8093, 1501.731
246.2914, 1502.217
246.7735, 1506.142
247.2557, 1514.056
247.7378, 1519.793
248.2199, 1522.369
248.7020, 1523.758
249.1841, 1526.309
249.6662, 1531.235
250.1484, 1534.782
250.6305, 1535.226
251.1126, 1532.192
251.5947, 1532.737
252.0768, 1538.408
252.5589, 1545.943
253.0411, 1551.921
253.5232, 1555.464
254.0053, 1559.218
254.4874, 1563.980
254.9695, 1569.811
255.4516, 1574.261
255.9338, 1576.592
256.4159, 1578.501
256.8980, 1581.683
257.3801, 1586.785
257.8622, 1591.692
258.3444, 1595.648
258.8265, 1598.782
259.3086, 1603.721
259.7907, 1610.914
260.2728, 1619.161
260.7549, 1626.976
261.2371, 1633.432
261.7192, 1642.328
262.2013, 1654.879
262.6834, 1670.766
263.1655, 1685.254
263.6476, 1697.474
264.1298, 1709.962
264.6119, 1725.154
265.0940, 1743.426
265.5761, 1762.640
266.0582, 1782.374
266.5403, 1802.592
267.0225, 1824.060
267.5046, 1847.182
267.9867, 1870.375
268.4688, 1892.432
268.9509, 1913.431
269.4330, 1933.595
269.9152, 1952.199
270.3973, 1970.221
270.8794, 1991.016
271.3615, 2014.957
271.8436, 2040.541
272.3257, 2066.152
272.8079, 2091.696
273.2900, 2118.698
273.7721, 2147.905
274.2542, 2178.592
274.7363, 2208.661
275.2184, 2237.536
275.7006, 2267.896
276.1827, 2300.948
276.6648, 2337.006
277.1469, 2373.769
277.6290, 2410.770
278.1111, 2448.767
278.5933, 2490.411
279.0754, 2536.970
279.5575, 2581.921
280.0396, 2621.732
280.5217, 2656.037
281.0038, 2689.483
281.4860, 2723.393
281.9681, 2754.390
282.4502, 2777.106
282.9323, 2791.508
283.4144, 2797.758
283.8965, 2795.777
284.3787, 2785.633
284.8608, 2767.023
285.3429, 2739.098
285.8250, 2705.150
286.3071, 2669.252
286.7892, 2631.428
287.2714, 2591.838
287.7535, 2549.332
288.2356, 2504.383
288.7177, 2462.131
289.1998, 2422.225
289.6819, 2384.514
290.1641, 2348.794
290.6462, 2315.092
291.1283, 2283.445
291.6104, 2253.852
292.0925, 2226.420
292.5746, 2202.918
293.0568, 2183.385
293.5389, 2165.630
294.0210, 2147.356
294.5031, 2128.995
294.9852, 2112.578
295.4673, 2099.354
295.9495, 2088.228
296.4316, 2077.835
296.9137, 2068.180
297.3958, 2058.324
297.8779, 2046.924
298.3600, 2034.751
298.8422, 2023.429
299.3243, 2013.326
299.8064, 2004.307
300.2885, 1997.130
300.7706, 1991.428
301.2527, 1984.376
301.7349, 1973.298
302.2170, 1959.672
302.6991, 1946.234
303.1812, 1933.479
303.6633, 1920.923
304.1454, 1907.500
304.6276, 1893.688
305.1097, 1880.898
305.5918, 1872.176
306.0739, 1864.211
306.5560, 1852.674
307.0381, 1835.731
307.5203, 1818.338
308.0024, 1804.294
308.4845, 1792.891
308.9666, 1782.478
309.4487, 1773.252
309.9308, 1764.040
310.4130, 1753.284
310.8951, 1740.353
311.3772, 1729.009
311.8593, 1723.154
312.3414, 1720.373
312.8235, 1716.751
313.3057, 1710.001
313.7878, 1702.407
314.2699, 1695.073
314.7520, 1688.080
315.2341, 1681.699
315.7162, 1676.352
316.1984, 1671.618
316.6805, 1667.094
317.1626, 1662.542
317.6447, 1658.206
318.1268, 1654.400
318.6089, 1651.042
319.0911, 1647.347
319.5732, 1641.137
320.0553, 1635.501
320.5374, 1632.873
321.0195, 1639.379
321.5016, 1642.928
321.9838, 1638.049
322.4659, 1626.899
322.9480, 1619.977
323.4301, 1622.857
323.9122, 1627.990
324.3943, 1631.291
324.8765, 1629.986
325.3586, 1630.251
325.8407, 1634.388
326.3228, 1640.553
326.8049, 1644.079
327.2870, 1641.184
327.7692, 1638.591
328.2513, 1638.660
328.7334, 1642.490
329.2155, 1646.470
329.6976, 1651.296
330.1797, 1656.052
330.6619, 1659.192
331.1440, 1659.539
331.6261, 1659.854
332.1082, 1660.589
332.5903, 1661.558
333.0724, 1664.233
333.5546, 1669.511
334.0367, 1675.696
334.5188, 1680.833
335.0009, 1684.354
335.4830, 1688.173
335.9651, 1692.487
336.4473, 1697.356
336.9294, 1703.240
337.4115, 1710.532
337.8936, 1718.048
338.3757, 1724.667
338.8578, 1730.216
339.3399, 1735.994
339.8221, 1741.951
340.3042, 1748.414
340.7863, 1755.888
341.2684, 1764.420
341.7505, 1774.279
342.2326, 1786.191
342.7148, 1800.042
343.1969, 1813.870
343.6790, 1827.542
344.1611, 1840.866
344.6432, 1852.715
345.1253, 1863.093
345.6075, 1874.270
346.0896, 1886.710
346.5717, 1900.728
347.0538, 1917.989
347.5359, 1939.098
348.0180, 1960.697
348.5002, 1979.578
348.9823, 1995.832
349.4644, 2009.758
349.9465, 2019.675
350.4286, 2028.268
350.9107, 2040.584
351.3929, 2056.534
351.8750, 2073.753
352.3571, 2091.503
352.8392, 2109.079
353.3213, 2125.066
353.8034, 2138.643
354.2856, 2151.222
354.7677, 2164.054
355.2498, 2177.135
355.7319, 2190.594
356.2140, 2205.228
356.6961, 2219.875
357.1783, 2233.558
357.6604, 2246.036
358.1425, 2257.516
358.6246, 2268.413
359.1067, 2278.396
359.5888, 2286.961
360.0710, 2292.529
360.5531, 2297.565
361.0352, 2304.086
361.5173, 2312.601
361.9994, 2319.404
362.4815, 2321.836
362.9637, 2322.314
363.4458, 2323.433
363.9279, 2327.293
364.4100, 2330.521
364.8921, 2332.222
365.3742, 2332.435
365.8564, 2331.436
366.3385, 2328.533
366.8206, 2324.934
367.3027, 2321.371
367.7848, 2319.899
368.2669, 2316.055
368.7491, 2308.293
369.2312, 2297.967
369.7133, 2289.131
370.1954, 2284.054
370.6775, 2278.030
371.1596, 2269.038
371.6418, 2255.339
372.1239, 2243.601
372.6060, 2234.289
373.0881, 2226.769
373.5702, 2220.555
374.0523, 2217.188
374.5345, 2211.440
375.0166, 2201.128
375.4987, 2186.259
375.9808, 2172.921
376.4629, 2161.004
376.9450, 2150.395
377.4272, 2141.173
377.9093, 2133.510
378.3914, 2124.892
378.8735, 2114.700
379.3556, 2103.291
379.8377, 2091.458
380.3199, 2079.289
380.8020, 2066.170
381.2841, 2051.025
381.7662, 2034.277
382.2483, 2018.899
382.7304, 2005.040
383.2126, 1992.624
383.6947, 1981.903
384.1768, 1972.576
384.6589, 1963.141
385.1410, 1953.127
385.6231, 1942.392
386.1053, 1930.013
386.5874, 1915.999
387.0695, 1902.108
387.5516, 1889.355
388.0337, 1877.641
388.5158, 1866.927
388.9980, 1857.686
389.4801, 1848.739
389.9622, 1838.673
390.4443, 1827.986
390.9264, 1818.530
391.4085, 1812.980
391.8907, 1808.238
392.3728, 1801.688
392.8549, 1792.475
393.3370, 1782.660
393.8191, 1772.145
394.3012, 1761.802
394.7834, 1753.106
395.2655, 1748.928
395.7476, 1744.291
396.2297, 1736.752
396.7118, 1725.695
397.1939, 1715.659
397.6761, 1707.801
398.1582, 1701.012
398.6403, 1694.371
399.1224, 1688.917
399.6045, 1682.286
400.0866, 1672.891
400.5688, 1661.603
401.0509, 1654.094
401.5330, 1653.922
402.0151, 1653.171
402.4972, 1647.547
402.9793, 1633.908
403.4615, 1623.841
403.9436, 1619.021
404.4257, 1616.409
404.9078, 1610.464
405.3899, 1600.015
405.8720, 1590.542
406.3542, 1583.847
406.8363, 1579.763
407.3184, 1577.139
407.8005, 1576.486
408.2826, 1575.039
408.7647, 1569.284
409.2469, 1559.598
409.7290, 1550.609
410.2111, 1542.684
410.6932, 1536.542
411.1753, 1534.840
411.6574, 1537.137
412.1396, 1538.886
412.6217, 1536.104
413.1038, 1531.031
413.5859, 1528.234
414.0680, 1528.471
414.5501, 1528.919
415.0323, 1526.560
415.5144, 1522.475
415.9965, 1518.710
416.4786, 1516.300
416.9607, 1514.455
417.4428, 1512.627
417.9250, 1510.808
418.4071, 1508.976
418.8892, 1505.727
419.3713, 1503.196
419.8534, 1503.613
420.3355, 1510.605
420.8177, 1515.402
421.2998, 1513.622
421.7819, 1507.739
422.2640, 1503.077
422.7461, 1501.258
423.2282, 1500.578
423.7104, 1500.513
424.1925, 1501.074
424.6746, 1502.229
425.1567, 1504.245
425.6388, 1506.698
426.1209, 1509.275
426.6031, 1512.224
427.0852, 1514.821
427.5673, 1516.823
428.0494, 1518.341
428.5315, 1520.024
429.0136, 1521.958
429.4958, 1523.725
429.9779, 1525.034
430.4600, 1525.812
430.9421, 1526.364
431.4242, 1526.503
431.9063, 1526.748
432.3885, 1528.130
432.8706, 1530.657
433.3527, 1532.923
433.8348, 1534.112
434.3169, 1534.797
434.7990, 1536.898
435.2812, 1540.429
435.7633, 1544.175
436.2454, 1547.089
436.7275, 1549.416
437.2096, 1551.875
437.6917, 1554.817
438.1739, 1557.424
438.6560, 1557.844
439.1381, 1557.112
439.6202, 1557.954
440.1023, 1563.428
440.5844, 1569.964
441.0666, 1574.925
441.5487, 1578.077
442.0308, 1580.029
442.5129, 1579.426
442.9950, 1578.518
443.4771, 1579.453
443.9593, 1585.796
444.4414, 1590.822
444.9235, 1591.985
445.4056, 1590.277
445.8877, 1589.295
446.3698, 1590.294
446.8520, 1591.435
447.3341, 1591.775
447.8162, 1590.545
448.2983, 1590.856
448.7804, 1594.389
449.2625, 1598.249
449.7447, 1598.754
450.2268, 1594.002
450.7089, 1590.276
451.1910, 1588.861
451.6731, 1589.443
452.1552, 1591.066
452.6374, 1594.456
453.1195, 1596.231
453.6016, 1592.962
454.0837, 1584.923
454.5658, 1579.810
455.0479, 1578.458
455.5301, 1579.214
456.0122, 1580.523
456.4943, 1582.204
456.9764, 1583.011
457.4585, 1581.854
457.9406, 1579.918
458.4228, 1579.127
458.9049, 1579.415
459.3870, 1580.139
459.8691, 1581.212
460.3512, 1582.283
460.8333, 1582.971
461.3155, 1583.279
461.7976, 1582.939
462.2797, 1580.904
462.7618, 1578.197
463.2439, 1576.648
463.7260, 1578.011
464.2082, 1579.714
464.6903, 1580.796
465.1724, 1581.216
465.6545, 1581.037
466.1366, 1579.009
466.6187, 1577.217
467.1009, 1577.024
467.5830, 1579.361
468.0651, 1582.276
468.5472, 1587.041
469.0293, 1591.984
469.5114, 1593.303
469.9936, 1588.750
470.4757, 1584.918
470.9578, 1584.154
471.4399, 1586.415
471.9220, 1587.570
472.4041, 1587.220
472.8863, 1586.886
473.3684, 1588.202
473.8505, 1591.109
474.3326, 1593.453
474.8147, 1594.866
475.2968, 1595.662
475.7790, 1596.039
476.2611, 1596.122
476.7432, 1596.740
477.2253, 1599.387
477.7074, 1602.434
478.1895, 1602.623
478.6717, 1599.939
479.1538, 1597.755
479.6359, 1599.323
480.1180, 1602.645
480.6001, 1605.210
481.0822, 1606.009
481.5644, 1606.611
482.0465, 1607.921
482.5286, 1609.643
483.0107, 1611.115
483.4928, 1612.211
483.9749, 1612.952
484.4571, 1613.225
484.9392, 1612.941
485.4213, 1612.824
485.9034, 1612.915
486.3855, 1613.172
486.8676, 1613.461
487.3498, 1612.844
487.8319, 1614.067
488.3140, 1618.380
488.7961, 1624.062
489.2782, 1626.792
489.7603, 1625.777
490.2425, 1624.290
490.7246, 1623.412
491.2067, 1623.134
491.6888, 1623.406
492.1709, 1624.258
492.6530, 1625.630
493.1352, 1628.057
493.6173, 1631.138
494.0994, 1632.894
494.5815, 1632.601
495.0636, 1631.776
495.5457, 1632.268
496.0279, 1633.858
496.5100, 1635.845
496.9921, 1637.717
497.4742, 1639.969
497.9563, 1643.337
498.4384, 1647.799
498.9206, 1651.943
499.4027, 1655.164
499.8848, 1657.692
500.3669, 1659.651
500.8490, 1659.877
501.3311, 1661.437
501.8133, 1666.083
502.2954, 1672.344
502.7775, 1677.454
503.2596, 1680.052
503.7417, 1682.844
504.2238, 1686.486
504.7060, 1690.946
505.1881, 1695.116
505.6702, 1699.111
506.1523, 1702.560
506.6344, 1704.933
507.1165, 1705.952
507.5987, 1707.795
508.0808, 1710.547
508.5629, 1714.189
509.0450, 1719.042
509.5271, 1725.015
510.0092, 1730.803
510.4914, 1736.330
510.9735, 1741.218
511.4556, 1744.066
511.9377, 1745.147
512.4199, 1746.902
512.9020, 1751.422
513.3841, 1757.391
513.8662, 1763.533
514.3483, 1769.901
514.8304, 1775.215
515.3126, 1777.168
515.7947, 1778.052
516.2768, 1780.816
516.7589, 1787.492
517.2410, 1794.934
517.7231, 1802.996
518.2053, 1811.279
518.6874, 1817.999
519.1695, 1820.838
519.6516, 1823.987
520.1337, 1829.123
520.6158, 1837.029
521.0980, 1843.483
521.5801, 1847.889
522.0622, 1851.661
522.5443, 1856.230
523.0264, 1861.690
523.5085, 1867.359
523.9907, 1872.731
524.4728, 1878.679
524.9549, 1888.194
525.4370, 1901.135
525.9191, 1912.849
526.4012, 1920.121
526.8834, 1924.820
527.3655, 1931.080
527.8476, 1938.860
528.3297, 1946.382
528.8118, 1951.538
529.2939, 1955.797
529.7761, 1960.980
530.2582, 1967.594
530.7403, 1974.788
531.2224, 1982.707
531.7045, 1990.703
532.1866, 1997.694
532.6688, 2001.433
533.1509, 2006.122
533.6330, 2013.623
534.1151, 2023.760
534.5972, 2033.051
535.0793, 2040.099
535.5615, 2047.587
536.0436, 2057.143
536.5257, 2070.110
537.0078, 2080.753
537.4899, 2088.902
537.9720, 2095.065
538.4542, 2099.374
538.9363, 2101.794
539.4184, 2103.936
539.9005, 2105.908
540.3826, 2108.153
540.8647, 2111.515
541.3469, 2115.972
541.8290, 2121.207
542.3111, 2128.016
542.7932, 2135.163
543.2753, 2140.476
543.7574, 2143.898
544.2396, 2147.287
544.7217, 2151.399
545.2038, 2156.267
545.6859, 2161.829
546.1680, 2167.518
546.6501, 2174.828
547.1323, 2187.181
547.6144, 2200.878
548.0965, 2209.728
548.5786, 2206.766
549.0607, 2205.543
549.5428, 2208.973
550.0250, 2216.703
550.5071, 2225.366
550.9892, 2236.248
551.4713, 2245.801
551.9534, 2251.408
552.4355, 2252.467
552.9177, 2256.076
553.3998, 2262.509
553.8819, 2270.813
554.3640, 2280.664
554.8461, 2291.691
555.3282, 2301.702
555.8104, 2309.609
556.2925, 2317.000
556.7746, 2325.389
557.2567, 2334.901
557.7388, 2345.980
558.2209, 2360.505
558.7031, 2375.410
559.1852, 2387.658
559.6673, 2397.359
560.1494, 2407.802
560.6315, 2420.690
561.1136, 2434.422
561.5958, 2447.789
562.0779, 2459.485
562.5600, 2473.178
563.0421, 2488.667
563.5242, 2506.354
564.0063, 2527.138
564.4885, 2552.393
564.9706, 2576.809
565.4527, 2598.730
565.9348, 2619.307
566.4169, 2643.243
566.8990, 2670.541
567.3812, 2699.947
567.8633, 2730.583
568.3454, 2762.763
568.8275, 2798.745
569.3096, 2838.234
569.7917, 2881.659
570.2739, 2930.089
570.7560, 2982.026
571.2381, 3034.693
571.7202, 3087.347
572.2023, 3142.688
572.6844, 3200.867
573.1666, 3263.582
573.6487, 3334.597
574.1308, 3418.266
574.6129, 3506.422
575.0950, 3596.630
575.5771, 3688.844
576.0593, 3786.081
576.5414, 3886.098
577.0235, 3992.382
577.5056, 4107.129
577.9877, 4229.895
578.4698, 4361.106
578.9520, 4501.719
579.4341, 4648.313
579.9162, 4799.193
580.3983, 4953.425
580.8804, 5107.260
581.3625, 5258.336
581.8447, 5411.315
582.3268, 5572.679
582.8089, 5739.815
583.2910, 5913.118
583.7731, 6093.510
584.2552, 6277.108
584.7373, 6459.185
585.2194, 6641.195
585.7015, 6828.502
586.1837, 7034.430
586.6658, 7236.369
587.1479, 7425.536
587.6300, 7598.695
588.1121, 7767.927
588.5942, 7939.458
589.0764, 8104.016
589.5585, 8257.063
590.0406, 8405.246
590.5227, 8527.123
591.0048, 8623.570
591.4869, 8692.955
591.9691, 8735.901
592.4512, 8752.831
592.9333, 8728.938
593.4154, 8657.884
593.8975, 8546.061
594.3796, 8404.229
594.8618, 8233.715
595.3439, 8034.600
595.8260, 7794.982
596.3081, 7534.372
596.7902, 7268.636
597.2723, 6998.695
597.7545, 6724.697
598.2366, 6440.523
598.7187, 6159.734
599.2008, 5890.106
599.6829, 5632.391
600.1650, 5386.263
600.6472, 5152.341
601.1293, 4931.971
601.6114, 4728.131
602.0935, 4545.449
602.5756, 4373.201
603.0577, 4208.249
603.5399, 4052.861
604.0220, 3908.759
604.5041, 3777.422
604.9862, 3654.780
605.4683, 3538.947
605.9504, 3430.709
606.4326, 3331.490
606.9147, 3241.456
607.3968, 3157.440
607.8789, 3079.638
608.3610, 3006.258
608.8431, 2936.567
609.3253, 2869.781
609.8074, 2806.474
610.2895, 2745.913
610.7716, 2689.543
611.2537, 2638.096
611.7358, 2595.495
612.2180, 2553.956
612.7001, 2511.827
613.1822, 2470.381
613.6643, 2430.592
614.1464, 2392.750
614.6285, 2357.562
615.1107, 2324.851
615.5928, 2294.833
616.0749, 2268.204
616.5570, 2245.215
617.0391, 2223.505
617.5212, 2202.251
618.0034, 2181.439
618.4855, 2159.676
618.9676, 2136.809
619.4497, 2116.381
619.9318, 2103.991
620.4139, 2094.156
620.8961, 2080.099
621.3782, 2058.930
621.8603, 2038.407
622.3424, 2021.657
622.8245, 2007.309
623.3066, 1993.795
623.7888, 1981.241
624.2709, 1969.042
624.7530, 1956.593
625.2351, 1944.572
625.7172, 1935.215
626.1993, 1929.652
626.6815, 1922.941
627.1636, 1912.922
627.6457, 1900.677
628.1278, 1890.684
628.6099, 1882.945
629.0920, 1876.494
629.5742, 1871.863
630.0563, 1867.745
630.5384, 1861.082
631.0205, 1851.712
631.5026, 1842.866
631.9847, 1837.713
632.4669, 1833.782
632.9490, 1828.384
633.4311, 1820.027
633.9132, 1812.689
634.3953, 1808.295
634.8774, 1805.172
635.3596, 1801.112
635.8417, 1795.064
636.3238, 1789.760
636.8059, 1785.414
637.2880, 1782.008
637.7701, 1780.054
638.2523, 1779.932
638.7344, 1778.175
639.2165, 1772.823
639.6986, 1765.210
640.1807, 1758.606
640.6628, 1753.015
641.1450, 1749.087
641.6271, 1748.807
642.1092, 1749.525
642.5913, 1747.698
643.0734, 1743.051
643.5555, 1739.570
644.0377, 1740.830
644.5198, 1742.963
645.0019, 1743.073
645.4840, 1740.101
645.9661, 1736.408
646.4482, 1731.334
646.9304, 1726.224
647.4125, 1722.414
647.8946, 1719.728
648.3767, 1719.150
648.8588, 1721.656
649.3409, 1725.143
649.8231, 1725.634
650.3052, 1723.298
650.7873, 1719.793
651.2694, 1714.708
651.7515, 1709.724
652.2336, 1707.672
652.7158, 1707.972
653.1979, 1708.403
653.6800, 1707.949
654.1621, 1707.108
654.6442, 1705.933
655.1263, 1704.449
655.6085, 1703.574
656.0906, 1704.418
656.5727, 1705.147
657.0548, 1704.722
657.5369, 1702.706
658.0190, 1701.367
658.5012, 1700.843
658.9833, 1700.741
659.4654, 1701.188
659.9475, 1702.108
660.4296, 1701.027
660.9117, 1697.296
661.3939, 1692.770
661.8760, 1688.970
662.3581, 1686.214
662.8402, 1685.480
663.3223, 1688.862
663.8044, 1691.804
664.2866, 1689.965
664.7687, 1685.422
665.2508, 1682.558
665.7329, 1684.853
666.2150, 1686.731
666.6971, 1685.841
667.1793, 1682.904
667.6614, 1681.838
668.1435, 1683.624
668.6256, 1685.350
669.1077, 1686.076
669.5898, 1685.777
670.0720, 1683.396
670.5541, 1678.662
671.0362, 1674.834
671.5183, 1675.559
672.0004, 1678.669
672.4825, 1679.401
672.9647, 1677.207
673.4468, 1674.699
673.9289, 1673.578
674.4110, 1673.133
674.8931, 1672.623
675.3752, 1671.632
675.8574, 1671.108
676.3395, 1672.305
676.8216, 1673.606
677.3037, 1673.038
677.7858, 1669.344
678.2679, 1666.678
678.7501, 1665.607
679.2322, 1665.764
679.7143, 1666.523
680.1964, 1667.883
680.6785, 1669.695
681.1606, 1672.238
681.6428, 1674.835
682.1249, 1676.787
682.6070, 1677.881
683.0891, 1677.287
683.5712, 1672.160
684.0533, 1667.184
684.5355, 1665.890
685.0176, 1667.994
685.4997, 1669.693
685.9818, 1668.370
686.4639, 1667.972
686.9460, 1670.695
687.4282, 1677.130
687.9103, 1681.117
688.3924, 1682.177
688.8745, 1682.003
689.3566, 1681.737
689.8387, 1681.350
690.3209, 1680.527
690.8030, 1679.237
691.2851, 1677.676
691.7672, 1675.930
692.2493, 1674.125
692.7314, 1672.383
693.2136, 1670.570
693.6957, 1669.386
694.1778, 1669.447
694.6599, 1670.326
695.1420, 1671.496
695.6241, 1673.521
696.1063, 1674.949
696.5884, 1675.315
697.0705, 1675.191
697.5526, 1675.636
698.0347, 1676.743
698.5168, 1678.194
698.9990, 1680.496
699.4811, 1682.453
699.9632, 1679.693
700.4453, 1673.174
700.9274, 1669.031
701.4095, 1672.713
701.8917, 1678.720
702.3738, 1681.000
702.8559, 1680.256
703.3380, 1679.748
703.8201, 1681.582
704.3022, 1683.448
704.7844, 1683.984
705.2665, 1683.039
705.7486, 1682.871
706.2307, 1684.170
706.7128, 1685.292
707.1949, 1685.069
707.6771, 1683.429
708.1592, 1683.340
708.6413, 1684.986
709.1234, 1686.923
709.6055, 1687.104
710.0876, 1686.701
710.5698, 1689.116
711.0519, 1695.099
711.5340, 1700.364
712.0161, 1700.860
712.4982, 1699.516
712.9803, 1699.437
713.4625, 1702.506
713.9446, 1704.454
714.4267, 1702.914
714.9088, 1700.710
715.3909, 1700.813
715.8730, 1704.036
716.3552, 1707.418
716.8373, 1711.104
717.3194, 1714.080
717.8015, 1714.202
718.2836, 1711.786
718.7657, 1708.872
719.2479, 1705.417
719.7300, 1702.928
720.2121, 1704.356
720.6942, 1708.057
721.1763, 1710.352
721.6584, 1707.432
722.1406, 1705.071
722.6227, 1706.450
723.1048, 1710.539
723.5869, 1713.184
724.0690, 1713.716
724.5511, 1713.508
725.0333, 1712.612
725.5154, 1711.265
725.9975, 1710.660
726.4796, 1710.774
726.9617, 1711.927
727.4438, 1715.100
727.9260, 1719.200
728.4081, 1721.800
728.8902, 1723.024
729.3723, 1723.922
729.8544, 1725.479
730.3365, 1726.694
730.8187, 1726.430
731.3008, 1724.432
731.7829, 1723.403
732.2650, 1725.332
732.7471, 1726.887
733.2292, 1726.000
733.7114, 1721.818
734.1935, 1720.627
734.6756, 1722.957
735.1577, 1726.361
735.6398, 1729.124
736.1219, 1731.207
736.6041, 1732.148
737.0862, 1731.803
737.5683, 1731.601
738.0504, 1733.612
738.5325, 1736.082
739.0146, 1736.808
739.4968, 1734.477
739.9789, 1732.748
740.4610, 1733.189
740.9431, 1734.417
741.4252, 1734.841
741.9073, 1733.295
742.3895, 1734.223
742.8716, 1738.962
743.3537, 1744.376
743.8358, 1745.204
744.3179, 1742.111
744.8000, 1740.771
745.2822, 1742.780
745.7643, 1746.134
746.2464, 1749.304
746.7285, 1752.056
747.2106, 1753.948
747.6927, 1753.973
748.1749, 1754.131
748.6570, 1755.428
749.1391, 1757.283
749.6212, 1758.411
750.1033, 1758.159
750.5854, 1758.398
751.0676, 1759.491
751.5497, 1761.225
752.0318, 1763.269
752.5139, 1765.608
752.9960, 1767.408
753.4781, 1767.709
753.9603, 1768.010
754.4424, 1771.761
754.9245, 1777.495
755.4066, 1780.804
755.8887, 1777.080
756.3708, 1773.034
756.8530, 1771.578
757.3351, 1772.557
757.8172, 1774.500
758.2993, 1777.943
758.7814, 1781.310
759.2635, 1784.520
759.7457, 1787.267
760.2278, 1787.440
760.7099, 1784.878
761.1920, 1782.901
761.6741, 1783.421
762.1563, 1785.653
762.6384, 1788.566
763.1205, 1792.050
763.6026, 1795.648
764.0847, 1800.203
764.5668, 1803.836
765.0490, 1804.722
765.5311, 1802.838
766.0132, 1802.516
766.4953, 1805.441
766.9774, 1807.925
767.4595, 1808.423
767.9417, 1806.993
768.4238, 1804.196
768.9059, 1799.852
769.3880, 1796.606
769.8701, 1797.579
770.3522, 1800.443
770.8344, 1800.465
771.3165, 1797.623
771.7986, 1795.751
772.2807, 1797.506
772.7628, 1800.664
773.2449, 1804.445
773.7271, 1809.281
774.2092, 1810.786
774.6913, 1806.914
775.1734, 1802.382
775.6555, 1799.893
776.1376, 1799.543
776.6198, 1799.810
777.1019, 1800.825
777.5840, 1801.551
778.0661, 1800.445
778.5482, 1798.713
779.0303, 1799.059
779.5125, 1801.902
779.9946, 1803.440
780.4767, 1799.587
780.9588, 1794.906
781.4409, 1792.879
781.9230, 1794.976
782.4052, 1796.691
782.8873, 1798.548
783.3694, 1799.188
783.8515, 1796.700
784.3336, 1791.052
784.8157, 1788.353
785.2979, 1789.139
785.7800, 1790.305
786.2621, 1788.251
786.7442, 1784.865
787.2263, 1783.405
787.7084, 1784.735
788.1906, 1785.512
788.6727, 1783.056
789.1548, 1780.100
789.6369, 1779.127
790.1190, 1781.696
790.6011, 1782.275
791.0833, 1779.964
791.5654, 1777.147
792.0475, 1776.582
792.5296, 1777.948
793.0117, 1776.973
793.4938, 1772.970
793.9760, 1769.324
794.4581, 1770.826
794.9402, 1774.026
795.4223, 1773.938
795.9044, 1768.949
796.3865, 1763.743
796.8687, 1757.920
797.3508, 1753.997
797.8329, 1754.461
798.3150, 1762.891
798.7971, 1766.131
799.2792, 1762.840
799.7614, 1757.453
800.2435, 1753.781
800.7256, 1751.796
801.2077, 1751.556
801.6898, 1753.233
802.1719, 1755.150
802.6541, 1756.309
803.1362, 1756.622
803.6183, 1755.770
804.1004, 1753.034
804.5825, 1751.043
805.0646, 1751.008
805.5468, 1751.387
806.0289, 1750.908
806.5110, 1749.104
806.9931, 1748.501
807.4752, 1749.391
807.9573, 1750.641
808.4395, 1751.126
808.9216, 1751.030
809.4037, 1750.829
809.8858, 1750.602
810.3679, 1750.212
810.8500, 1748.764
811.3322, 1747.598
811.8143, 1748.109
812.2964, 1751.504
812.7785, 1754.085
813.2606, 1755.635
813.7427, 1756.416
814.2249, 1756.557
814.7070, 1756.046
815.1891, 1754.983
815.6712, 1753.233
816.1533, 1751.997
816.6354, 1752.904
817.1176, 1754.951
817.5997, 1756.761
818.0818, 1758.210
818.5639, 1758.903
819.0460, 1757.727
819.5281, 1756.381
820.0103, 1756.144
820.4924, 1757.114
820.9745, 1758.928
821.4566, 1762.038
821.9387, 1764.979
822.4208, 1766.538
822.9030, 1766.819
823.3851, 1765.819
823.8672, 1763.490
824.3493, 1761.918
824.8314, 1763.156
825.3135, 1765.796
825.7957, 1768.943
826.2778, 1772.742
826.7599, 1774.893
827.2420, 1772.594
827.7241, 1770.691
828.2062, 1771.785
828.6884, 1776.151
829.1705, 1780.670
829.6526, 1785.509
830.1347, 1789.525
830.6168, 1791.390
831.0989, 1791.959
831.5811, 1792.717
832.0632, 1793.753
832.5453, 1795.295
833.0274, 1797.408
833.5095, 1800.078
833.9916, 1803.367
834.4738, 1807.311
834.9559, 1811.324
835.4380, 1815.239
835.9201, 1819.454
836.4022, 1824.190
836.8843, 1829.374
837.3665, 1834.556
837.8486, 1839.749
838.3307, 1845.048
838.8128, 1850.424
839.2949, 1856.025
839.7770, 1862.265
840.2592, 1869.045
840.7413, 1875.274
841.2234, 1879.136
841.7055, 1884.043
842.1876, 1891.455
842.6697, 1900.966
843.1519, 1909.903
843.6340, 1918.087
844.1161, 1926.729
844.5982, 1935.659
845.0803, 1945.936
845.5624, 1961.719
846.0446, 1981.029
846.5267, 1996.705
847.0088, 1999.925
847.4909, 2003.940
847.9730, 2016.495
848.4551, 2035.464
848.9373, 2051.984
849.4194, 2064.615
849.9015, 2077.607
850.3836, 2091.374
850.8657, 2106.553
851.3478, 2125.829
851.8300, 2148.366
852.3121, 2168.828
852.7942, 2183.379
853.2763, 2197.640
853.7584, 2216.556
854.2405, 2238.782
854.7227, 2262.046
855.2048, 2287.338
855.6869, 2311.089
856.1690, 2332.579
856.6511, 2352.529
857.1332, 2372.397
857.6154, 2392.208
858.0975, 2413.168
858.5796, 2435.967
859.0617, 2458.890
859.5438, 2480.546
860.0259, 2500.444
860.5081, 2516.837
860.9902, 2527.291
861.4723, 2539.034
861.9544, 2557.410
862.4365, 2576.591
862.9186, 2590.324
863.4008, 2596.246
863.8829, 2604.635
864.3650, 2616.635
864.8471, 2628.340
865.3292, 2636.207
865.8113, 2640.609
866.2935, 2642.198
866.7756, 2640.943
867.2577, 2639.079
867.7398, 2637.913
868.2219, 2636.898
868.7040, 2635.938
869.1862, 2635.487
869.6683, 2632.407
870.1504, 2625.591
870.6325, 2618.168
871.1146, 2612.283
871.5967, 2607.645
872.0789, 2602.429
872.5610, 2596.520
873.0431, 2588.715
873.5252, 2576.760
874.0073, 2563.568
874.4894, 2551.607
874.9716, 2540.848
875.4537, 2530.572
875.9358, 2523.321
876.4179, 2513.354
876.9000, 2498.399
877.3821, 2479.454
877.8643, 2461.111
878.3464, 2443.452
878.8285, 2425.307
879.3106, 2406.002
879.7927, 2386.576
880.2748, 2369.523
880.7570, 2353.529
881.2391, 2335.314
881.7212, 2310.572
882.2033, 2287.017
882.6854, 2267.193
883.1675, 2249.845
883.6497, 2232.358
884.1318, 2214.753
884.6139, 2196.690
885.0960, 2177.782
885.5781, 2159.230
886.0602, 2142.743
886.5424, 2127.869
887.0245, 2114.038
887.5066, 2101.697
887.9887, 2088.922
888.4708, 2074.681
888.9529, 2059.704
889.4351, 2044.348
889.9172, 2027.336
890.3993, 2014.472
890.8814, 2006.949
891.3635, 2000.451
891.8456, 1990.451
892.3278, 1978.156
892.8099, 1966.256
893.2920, 1955.108
893.7741, 1946.082
894.2562, 1942.504
894.7383, 1939.654
895.2205, 1934.136
895.7026, 1925.506
896.1847, 1916.229
896.6668, 1905.123
897.1489, 1896.424
897.6310, 1893.487
898.1132, 1894.552
898.5953, 1892.879
899.0774, 1888.785
899.5595, 1884.419
900.0416, 1882.172
900.5237, 1878.933
901.0059, 1871.200
901.4880, 1860.426
901.9701, 1852.058
902.4522, 1847.659
902.9343, 1843.958
903.4164, 1840.541
903.8986, 1837.152
904.3807, 1832.909
904.8628, 1828.008
905.3449, 1823.588
905.8270, 1819.932
906.3091, 1817.030
906.7913, 1815.613
907.2734, 1814.679
907.7555, 1812.894
908.2376, 1809.036
908.7197, 1805.949
909.2018, 1804.320
909.6840, 1802.720
910.1661, 1799.489
910.6482, 1794.791
911.1303, 1790.399
911.6124, 1786.434
912.0945, 1782.993
912.5767, 1780.120
913.0588, 1777.827
913.5409, 1776.027
914.0230, 1774.669
914.5051, 1774.459
914.9872, 1777.175
915.4694, 1778.680
915.9515, 1776.550
916.4336, 1771.480
916.9157, 1769.189
917.3978, 1769.532
917.8799, 1769.273
918.3621, 1765.450
918.8442, 1761.055
919.3263, 1759.441
919.8084, 1759.724
920.2905, 1759.279
920.7726, 1756.851
921.2548, 1754.281
921.7369, 1751.595
922.2190, 1749.143
922.7011, 1747.979
923.1832, 1748.016
923.6653, 1746.937
924.1475, 1743.902
924.6296, 1740.777
925.1117, 1739.686
925.5938, 1739.559
926.0759, 1738.908
926.5580, 1736.766
927.0402, 1735.864
927.5223, 1737.333
928.0044, 1739.067
928.4865, 1739.437
928.9686, 1738.471
929.4507, 1737.165
929.9329, 1735.523
930.4150, 1735.236
930.8971, 1739.766
931.3792, 1744.766
931.8613, 1745.258
932.3434, 1741.460
932.8256, 1738.511
933.3077, 1737.652
933.7898, 1737.697
934.2719, 1738.679
934.7540, 1740.180
935.2361, 1740.359
935.7183, 1739.358
936.2004, 1739.632
936.6825, 1743.845
937.1646, 1746.820
937.6467, 1740.817
938.1288, 1730.893
938.6110, 1725.140
939.0931, 1729.457
939.5752, 1732.533
940.0573, 1733.351
940.5394, 1733.297
941.0215, 1734.121
941.5037, 1735.643
941.9858, 1735.812
942.4679, 1734.417
942.9500, 1732.289
943.4321, 1728.071
943.9142, 1724.919
944.3964, 1726.602
944.8785, 1733.976
945.3606, 1738.899
945.8427, 1739.931
946.3248, 1739.941
946.8069, 1740.047
947.2891, 1740.079
947.7712, 1738.913
948.2533, 1736.824
948.7354, 1735.722
949.2175, 1738.146
949.6996, 1740.307
950.1818, 1738.502
950.6639, 1734.663
951.1460, 1733.117
951.6281, 1735.520
952.1102, 1737.611
952.5923, 1739.018
953.0745, 1739.969
953.5566, 1741.499
954.0387, 1742.908
954.5208, 1740.517
955.0029, 1733.166
955.4850, 1727.789
955.9672, 1731.076
956.4493, 1736.775
956.9314, 1740.290
957.4135, 1741.251
957.8956, 1740.125
958.3777, 1735.912
958.8599, 1732.660
959.3420, 1733.607
959.8241, 1736.667
960.3062, 1735.601
960.7883, 1731.574
961.2704, 1729.343
961.7526, 1733.693
962.2347, 1737.661
962.7168, 1737.450
963.1989, 1734.984
963.6810, 1734.152
964.1631, 1735.263
964.6453, 1736.809
965.1274, 1738.855
965.6095, 1740.248
966.0916, 1738.086
966.5737, 1734.699
967.0558, 1734.701
967.5380, 1739.554
968.0201, 1743.738
968.5022, 1745.219
968.9843, 1745.351
969.4664, 1744.671
969.9485, 1743.210
970.4307, 1742.789
970.9128, 1743.491
971.3949, 1743.887
971.8770, 1741.851
972.3591, 1739.968
972.8412, 1742.134
973.3234, 1747.101
973.8055, 1751.283
974.2876, 1753.941
974.7697, 1755.060
975.2518, 1753.973
975.7339, 1752.064
976.2161, 1751.549
976.6982, 1752.318
977.1803, 1753.215
977.6624, 1754.027
978.1445, 1754.964
978.6266, 1757.140
979.1088, 1758.949
979.5909, 1758.365
980.0730, 1754.395
980.5551, 1752.278
981.0372, 1752.607
981.5193, 1753.894
982.0015, 1755.701
982.4836, 1757.767
982.9657, 1759.589
983.4478, 1760.963
983.9299, 1760.927
984.4120, 1756.327
984.8942, 1753.027
985.3763, 1755.648
985.8584, 1761.163
986.3405, 1763.255
986.8226, 1760.529
987.3047, 1759.348
987.7869, 1760.754
988.2690, 1762.670
988.7511, 1762.730
989.2332, 1761.525
989.7153, 1759.567
990.1974, 1756.810
990.6796, 1755.698
991.1617, 1758.975
991.6438, 1762.482
992.1259, 1764.347
992.6080, 1764.669
993.0901, 1764.030
993.5723, 1762.416
994.0544, 1761.125
994.5365, 1760.472
995.0186, 1760.737
995.5007, 1762.580
995.9828, 1765.442
996.4650, 1768.352
996.9471, 1772.289
997.4292, 1774.021
997.9113, 1772.103
998.3934, 1769.795
998.8755, 1771.360
999.3577, 1775.913
999.8398, 1778.132
1000.322, 1777.682
1000.804, 1776.516
1001.286, 1776.121
1001.768, 1775.401
1002.250, 1772.992
1002.732, 1769.180
1003.215, 1767.861
1003.697, 1770.087
1004.179, 1770.876
1004.661, 1767.897
1005.143, 1763.953
1005.625, 1764.378
1006.107, 1767.491
1006.589, 1769.558
1007.072, 1768.613
1007.554, 1768.175
1008.036, 1769.724
1008.518, 1771.895
1009.000, 1774.024
1009.482, 1776.208
1009.964, 1776.233
1010.446, 1773.995
1010.928, 1772.608
1011.411, 1775.613
1011.893, 1779.471
1012.375, 1780.548
1012.857, 1779.336
1013.339, 1778.780
1013.821, 1779.366
1014.303, 1780.538
1014.785, 1782.308
1015.268, 1784.432
1015.750, 1787.191
1016.232, 1790.011
1016.714, 1790.689
1017.196, 1788.464
1017.678, 1786.080
1018.160, 1784.842
1018.642, 1784.400
1019.124, 1784.515
1019.607, 1785.174
1020.089, 1786.429
1020.571, 1788.397
1021.053, 1790.095
1021.535, 1790.773
1022.017, 1791.078
1022.499, 1792.181
1022.981, 1793.615
1023.464, 1794.330
1023.946, 1793.522
1024.428, 1792.371
1024.910, 1789.882
1025.392, 1788.451
1025.874, 1791.713
1026.356, 1798.859
1026.838, 1805.330
1027.320, 1810.742
1027.803, 1813.089
1028.285, 1808.119
1028.767, 1801.982
1029.249, 1798.959
1029.731, 1799.016
1030.213, 1799.602
1030.695, 1801.076
1031.177, 1801.738
1031.660, 1801.004
1032.142, 1799.520
1032.624, 1797.654
1033.106, 1795.983
1033.588, 1795.590
1034.070, 1796.829
1034.552, 1799.282
1035.034, 1805.256
1035.516, 1809.838
1035.999, 1809.145
1036.481, 1803.710
1036.963, 1801.370
1037.445, 1801.960
1037.927, 1803.084
1038.409, 1802.947
1038.891, 1803.130
1039.373, 1805.283
1039.855, 1808.469
1040.338, 1810.507
1040.820, 1811.189
1041.302, 1810.458
1041.784, 1807.441
1042.266, 1805.778
1042.748, 1812.426
1043.230, 1822.318
1043.712, 1825.412
1044.195, 1820.684
1044.677, 1817.068
1045.159, 1819.939
1045.641, 1822.103
1046.123, 1820.482
1046.605, 1816.494
1047.087, 1814.969
1047.569, 1815.697
1048.052, 1816.800
1048.534, 1817.786
1049.016, 1818.679
1049.498, 1820.483
1049.980, 1821.646
1050.462, 1819.720
1050.944, 1812.965
1051.426, 1810.492
1051.908, 1813.081
1052.391, 1816.656
1052.873, 1818.375
1053.355, 1819.423
1053.837, 1823.165
1054.319, 1828.226
1054.801, 1830.183
1055.283, 1823.236
1055.765, 1818.685
1056.247, 1818.811
1056.730, 1821.566
1057.212, 1825.190
1057.694, 1829.283
1058.176, 1830.541
1058.658, 1828.572
1059.140, 1826.383
1059.622, 1826.274
1060.104, 1826.616
1060.587, 1825.917
1061.069, 1824.529
1061.551, 1825.409
1062.033, 1829.250
1062.515, 1831.084
1062.997, 1828.724
1063.479, 1825.506
1063.961, 1826.510
1064.443, 1829.247
1064.926, 1829.699
1065.408, 1825.635
1065.890, 1824.052
1066.372, 1826.792
1066.854, 1829.939
1067.336, 1831.483
1067.818, 1831.557
1068.300, 1828.918
1068.782, 1824.809
1069.265, 1824.596
1069.747, 1837.173
1070.229, 1846.931
1070.711, 1844.051
1071.193, 1836.697
1071.675, 1834.058
1072.157, 1836.481
1072.639, 1840.665
1073.122, 1846.561
1073.604, 1851.315
1074.086, 1852.014
1074.568, 1850.842
1075.050, 1849.109
1075.532, 1847.174
1076.014, 1846.408
1076.496, 1846.833
1076.979, 1848.781
1077.461, 1853.106
1077.943, 1857.085
1078.425, 1854.859
1078.907, 1849.901
1079.389, 1849.338
1079.871, 1854.948
1080.353, 1859.913
1080.835, 1861.794
1081.318, 1862.657
1081.800, 1863.373
1082.282, 1863.630
1082.764, 1861.047
1083.246, 1856.395
1083.728, 1854.520
1084.210, 1858.516
1084.692, 1863.279
1085.174, 1866.742
1085.656, 1868.601
1086.139, 1868.282
1086.621, 1865.080
1087.103, 1864.801
1087.585, 1867.716
1088.067, 1870.649
1088.549, 1871.925
1089.031, 1871.759
1089.513, 1868.900
1089.996, 1864.894
1090.478, 1863.886
1090.960, 1869.334
1091.442, 1871.775
1091.924, 1869.201
1092.406, 1866.598
1092.888, 1871.605
1093.370, 1879.995
1093.853, 1881.693
1094.335, 1876.594
1094.817, 1873.060
1095.299, 1875.650
1095.781, 1879.276
1096.263, 1883.250
1096.745, 1886.546
1097.227, 1885.951
1097.709, 1882.320
1098.192, 1881.078
1098.674, 1883.641
1099.156, 1886.548
1099.638, 1887.784
1100.120, 1888.193
1100.602, 1888.112
1101.084, 1887.679
1101.566, 1888.615
1102.048, 1891.059
1102.531, 1891.955
1103.013, 1889.544
1103.495, 1886.121
1103.977, 1883.049
1104.459, 1881.041
1104.941, 1881.442
1105.423, 1886.129
1105.905, 1887.802
1106.388, 1885.723
1106.870, 1883.019
1107.352, 1881.866
1107.834, 1881.362
1108.316, 1878.615
1108.798, 1875.033
1109.280, 1874.444
1109.762, 1882.363
1110.245, 1887.115
1110.727, 1886.276
1111.209, 1883.827
1111.691, 1884.474
1112.173, 1887.013
1112.655, 1886.188
1113.137, 1882.135
1113.619, 1878.661
1114.101, 1877.498
1114.583, 1877.802
1115.066, 1879.853
1115.548, 1882.734
1116.030, 1885.513
1116.512, 1888.072
1116.994, 1886.543
1117.476, 1879.925
1117.958, 1874.577
1118.440, 1877.482
1118.923, 1881.899
1119.405, 1882.331
1119.887, 1879.408
1120.369, 1878.223
1120.851, 1878.922
1121.333, 1880.375
1121.815, 1882.726
1122.297, 1884.329
1122.780, 1882.173
1123.262, 1878.896
1123.744, 1877.783
1124.226, 1879.842
1124.708, 1881.516
1125.190, 1882.738
1125.672, 1883.742
1126.154, 1885.015
1126.636, 1885.651
1127.119, 1882.971
1127.601, 1878.683
1128.083, 1876.176
1128.565, 1877.429
1129.047, 1878.317
1129.529, 1878.579
1130.011, 1878.112
1130.493, 1876.261
1130.975, 1873.741
1131.458, 1873.300
1131.940, 1874.422
1132.422, 1875.155
1132.904, 1873.757
1133.386, 1873.008
1133.868, 1873.895
1134.350, 1875.387
1134.832, 1876.958
1135.315, 1878.400
1135.797, 1877.162
1136.279, 1873.410
1136.761, 1870.660
1137.243, 1872.255
1137.725, 1874.155
1138.207, 1873.958
1138.689, 1872.884
1139.172, 1873.027
1139.654, 1874.421
1140.136, 1875.507
1140.618, 1876.051
1141.100, 1877.367
1141.582, 1882.035
1142.064, 1886.558
1142.546, 1888.239
1143.028, 1887.311
1143.510, 1885.304
1143.993, 1881.755
1144.475, 1880.759
1144.957, 1883.700
1145.439, 1887.042
1145.921, 1886.401
1146.403, 1884.522
1146.885, 1884.454
1147.367, 1886.648
1147.850, 1887.720
1148.332, 1887.082
1148.814, 1887.701
1149.296, 1891.413
1149.778, 1894.889
1150.260, 1892.281
1150.742, 1886.768
1151.224, 1882.987
1151.707, 1881.999
1152.189, 1882.164
1152.671, 1883.817
1153.153, 1885.234
1153.635, 1885.399
1154.117, 1885.023
1154.599, 1886.281
1155.081, 1888.015
1155.563, 1887.552
1156.046, 1882.963
1156.528, 1878.875
1157.010, 1875.931
1157.492, 1873.510
1157.974, 1871.034
1158.456, 1868.861
1158.938, 1868.358
1159.420, 1869.210
1159.902, 1870.392
1160.385, 1871.348
1160.867, 1872.904
1161.349, 1876.339
1161.831, 1879.013
1162.313, 1877.666
1162.795, 1873.292
1163.277, 1872.128
1163.759, 1873.733
1164.242, 1875.242
1164.724, 1874.160
1165.206, 1873.977
1165.688, 1877.195
1166.170, 1880.763
1166.652, 1880.562
1167.134, 1877.110
1167.616, 1875.853
1168.099, 1876.931
1168.581, 1877.893
1169.063, 1877.077
1169.545, 1875.961
1170.027, 1875.340
1170.509, 1874.896
1170.991, 1873.927
1171.473, 1872.484
1171.955, 1871.834
1172.438, 1872.121
1172.920, 1872.733
1173.402, 1873.885
1173.884, 1874.541
1174.366, 1872.860
1174.848, 1870.403
1175.330, 1871.769
1175.812, 1877.054
1176.294, 1879.331
1176.777, 1877.098
1177.259, 1875.274
1177.741, 1880.108
1178.223, 1885.122
1178.705, 1884.658
1179.187, 1879.820
1179.669, 1875.865
1180.151, 1872.744
1180.634, 1871.115
1181.116, 1871.275
1181.598, 1872.294
1182.080, 1873.997
1182.562, 1875.630
1183.044, 1876.400
1183.526, 1876.335
1184.008, 1876.401
1184.490, 1876.612
1184.973, 1876.732
1185.455, 1876.658
1185.937, 1876.576
1186.419, 1876.168
1186.901, 1876.195
1187.383, 1878.134
1187.865, 1882.257
1188.347, 1883.151
1188.829, 1880.322
1189.312, 1878.334
1189.794, 1879.354
1190.276, 1881.093
1190.758, 1880.315
1191.240, 1879.098
1191.722, 1880.504
1192.204, 1885.517
1192.686, 1887.808
1193.169, 1886.992
1193.651, 1885.641
1194.133, 1884.469
1194.615, 1884.080
1195.097, 1886.502
1195.579, 1889.593
1196.061, 1890.199
1196.543, 1887.739
1197.026, 1883.174
1197.508, 1875.663
1197.990, 1871.172
1198.472, 1874.406
1198.954, 1880.954
1199.436, 1888.007
1199.918, 1893.670
1200.400, 1894.228
1200.882, 1887.230
1201.365, 1881.193
1201.847, 1875.698
1202.329, 1873.435
1202.811, 1878.356
1203.293, 1885.495
1203.775, 1889.690
1204.257, 1891.498
1204.739, 1891.825
1205.221, 1889.674
1205.704, 1889.388
1206.186, 1891.369
1206.668, 1893.045
1207.150, 1891.635
1207.632, 1889.676
1208.114, 1890.707
1208.596, 1893.359
1209.078, 1894.303
1209.561, 1892.212
1210.043, 1891.756
1210.525, 1893.405
1211.007, 1894.917
1211.489, 1893.817
1211.971, 1892.275
1212.453, 1893.709
1212.935, 1896.552
1213.417, 1896.041
1213.900, 1889.611
1214.382, 1887.879
1214.864, 1891.992
1215.346, 1896.846
1215.828, 1899.322
1216.310, 1899.423
1216.792, 1894.886
1217.274, 1888.130
1217.756, 1886.770
1218.239, 1893.179
1218.721, 1896.544
1219.203, 1895.891
1219.685, 1893.901
1220.167, 1892.140
1220.649, 1890.850
1221.131, 1889.995
1221.613, 1889.898
1222.096, 1891.601
1222.578, 1895.879
1223.060, 1898.120
1223.542, 1897.716
1224.024, 1897.018
1224.506, 1898.183
1224.988, 1899.890
1225.470, 1901.174
1225.953, 1901.960
1226.435, 1902.361
1226.917, 1902.371
1227.399, 1901.456
1227.881, 1899.370
1228.363, 1898.305
1228.845, 1901.537
1229.327, 1905.296
1229.809, 1907.151
1230.292, 1906.896
1230.774, 1903.691
1231.256, 1896.914
1231.738, 1895.824
1232.220, 1901.913
1232.702, 1907.802
1233.184, 1907.812
1233.666, 1905.300
1234.148, 1901.240
1234.631, 1896.873
1235.113, 1894.860
1235.595, 1895.235
1236.077, 1897.478
1236.559, 1901.627
1237.041, 1904.512
1237.523, 1901.403
1238.005, 1898.739
1238.488, 1901.710
1238.970, 1907.430
1239.452, 1910.115
1239.934, 1909.964
1240.416, 1910.869
1240.898, 1913.323
1241.380, 1914.554
1241.862, 1910.245
1242.344, 1907.123
1242.827, 1909.306
1243.309, 1914.109
1243.791, 1916.571
1244.273, 1917.044
1244.755, 1917.211
1245.237, 1917.300
1245.719, 1917.864
1246.201, 1920.517
1246.683, 1921.960
1247.166, 1920.312
1247.648, 1917.699
1248.130, 1918.477
1248.612, 1921.527
1249.094, 1922.823
1249.576, 1921.926
1250.058, 1921.308
1250.540, 1923.366
1251.023, 1924.007
1251.505, 1921.894
1251.987, 1918.399
1252.469, 1914.706
1252.951, 1911.559
1253.433, 1910.884
1253.915, 1912.807
1254.397, 1915.689
1254.880, 1920.477
1255.362, 1923.709
1255.844, 1924.480
1256.326, 1923.879
1256.808, 1922.848
1257.290, 1921.776
1257.772, 1921.185
1258.254, 1921.169
1258.736, 1922.234
1259.219, 1925.058
1259.701, 1927.277
1260.183, 1928.398
1260.665, 1929.093
1261.147, 1930.562
1261.629, 1931.788
1262.111, 1931.488
1262.593, 1929.622
1263.075, 1926.630
1263.558, 1921.426
1264.040, 1920.190
1264.522, 1924.464
1265.004, 1929.726
1265.486, 1931.919
1265.968, 1932.698
1266.450, 1933.122
1266.932, 1933.477
1267.415, 1934.719
1267.897, 1937.041
1268.379, 1937.977
1268.861, 1937.067
1269.343, 1936.526
1269.825, 1939.875
1270.307, 1942.558
1270.789, 1940.015
1271.271, 1934.993
1271.754, 1933.028
1272.236, 1933.969
1272.718, 1935.055
1273.200, 1935.951
1273.682, 1936.307
1274.164, 1934.606
1274.646, 1933.899
1275.128, 1936.008
1275.610, 1939.228
1276.093, 1940.601
1276.575, 1940.688
1277.057, 1942.436
1277.539, 1945.814
1278.021, 1947.501
1278.503, 1943.508
1278.985, 1941.078
1279.467, 1942.360
1279.950, 1944.783
1280.432, 1945.001
1280.914, 1943.902
1281.396, 1943.298
1281.878, 1943.274
1282.360, 1943.567
1282.842, 1945.247
1283.324, 1944.608
1283.807, 1940.353
1284.289, 1936.696
1284.771, 1939.499
1285.253, 1944.510
1285.735, 1945.662
1286.217, 1943.856
1286.699, 1943.635
1287.181, 1945.760
1287.663, 1947.849
1288.146, 1949.772
1288.628, 1950.932
1289.110, 1949.787
1289.592, 1948.643
1290.074, 1951.152
1290.556, 1954.429
1291.038, 1951.673
1291.520, 1942.114
1292.002, 1938.646
1292.485, 1941.774
1292.967, 1946.824
1293.449, 1954.049
1293.931, 1958.577
1294.413, 1955.247
1294.895, 1949.793
1295.377, 1947.867
1295.859, 1949.117
1296.342, 1951.770
1296.824, 1955.432
1297.306, 1958.089
1297.788, 1958.307
1298.270, 1957.764
1298.752, 1956.637
1299.234, 1955.371
1299.716, 1953.456
1300.198, 1952.040
1300.681, 1955.638
1301.163, 1962.320
1301.645, 1966.695
1302.127, 1966.632
##END=



