##NAMES=Tetrahedrite-(Zn)
##RRUFFID=R070423
##IDEAL CHEMISTRY=Cu^1+^_6_(Cu^1+^_4_Zn^2+^_2_)Sb^3+^_4_S^2-^_13_
##LOCALITY=Tunnel Extension mine, Marysvale District (Marysvale Uranium area), Piute County, Utah, USA
##OWNER=RRUFF
##SOURCE=Michael Scott
##DESCRIPTION=Lead-gray massive in a polished slab, associated with pyrite and quartz
##STATUS=The identification of this mineral is confirmed by single-crystal X-ray diffraction and chemical analysis.
##URL=rruff.info/R070423
##MEASURED CHEMISTRY=gray: (Cu_10.26_Zn_1.66_Fe_0.08_)_Σ=12_(Sb_2.63_Te_0.27_As_0.10_)_Σ=4_(S_12.84_As_1.16_)_Σ=13_; lighter: (Cu_10.05_Zn_1.90_Fe_0.05_)_Σ=12_(Sb_3.72_As_0.24_Te_0.04_)_Σ=4_(S_12.90_As_0.10_)_Σ=13_
205.3996, 6276.225
205.8817, 6276.057
206.3638, 6283.625
206.8459, 6294.709
207.3280, 6303.270
207.8102, 6306.740
208.2923, 6314.259
208.7744, 6332.084
209.2565, 6348.750
209.7386, 6357.252
210.2207, 6356.988
210.7029, 6352.233
211.1850, 6347.918
211.6671, 6344.970
212.1492, 6339.001
212.6313, 6318.037
213.1134, 6304.292
213.5956, 6314.994
214.0777, 6346.065
214.5598, 6377.604
215.0419, 6388.253
215.5240, 6373.366
216.0061, 6368.341
216.4883, 6378.859
216.9704, 6393.768
217.4525, 6410.318
217.9346, 6427.914
218.4167, 6447.669
218.8988, 6472.900
219.3810, 6504.283
219.8631, 6516.261
220.3452, 6480.416
220.8273, 6452.011
221.3094, 6449.399
221.7915, 6465.861
222.2737, 6486.821
222.7558, 6503.298
223.2379, 6515.017
223.7200, 6517.396
224.2021, 6492.585
224.6842, 6477.965
225.1664, 6489.479
225.6485, 6514.399
226.1306, 6533.169
226.6127, 6533.913
227.0948, 6521.372
227.5770, 6515.610
228.0591, 6522.919
228.5412, 6528.899
229.0233, 6527.013
229.5054, 6524.015
229.9875, 6529.013
230.4697, 6546.379
230.9518, 6570.184
231.4339, 6585.765
231.9160, 6588.756
232.3981, 6590.252
232.8802, 6587.959
233.3624, 6587.010
233.8445, 6593.566
234.3266, 6609.342
234.8087, 6628.102
235.2908, 6637.328
235.7729, 6628.473
236.2551, 6630.875
236.7372, 6658.564
237.2193, 6688.901
237.7014, 6706.690
238.1835, 6709.177
238.6656, 6704.364
239.1478, 6700.954
239.6299, 6698.369
240.1120, 6699.489
240.5941, 6705.631
241.0762, 6691.669
241.5583, 6724.525
242.0405, 6744.496
242.5226, 6752.272
243.0047, 6711.336
243.4868, 6733.303
243.9689, 6730.061
244.4510, 6725.785
244.9332, 6756.605
245.4153, 6722.754
245.8974, 6753.018
246.3795, 6757.688
246.8616, 6774.071
247.3437, 6765.090
247.8259, 6763.944
248.3080, 6788.169
248.7901, 6798.346
249.2722, 6786.445
249.7543, 6803.573
250.2364, 6768.836
250.7186, 6801.097
251.2007, 6828.226
251.6828, 6838.541
252.1649, 6822.460
252.6470, 6808.860
253.1291, 6805.631
253.6113, 6809.861
254.0934, 6820.830
254.5755, 6839.952
255.0576, 6859.273
255.5397, 6862.302
256.0219, 6841.855
256.5040, 6832.547
256.9861, 6861.090
257.4682, 6894.966
257.9503, 6906.306
258.4324, 6888.507
258.9146, 6869.125
259.3967, 6883.802
259.8788, 6934.778
260.3609, 6967.041
260.8430, 6953.395
261.3251, 6932.488
261.8073, 6933.986
262.2894, 6957.849
262.7715, 6982.795
263.2536, 6992.384
263.7357, 6989.375
264.2178, 6990.954
264.7000, 7004.237
265.1821, 7013.641
265.6642, 7003.727
266.1463, 6980.061
266.6284, 6961.255
267.1105, 6957.475
267.5927, 6964.221
268.0748, 6973.274
268.5569, 6985.536
269.0390, 6996.480
269.5211, 6998.647
270.0032, 6997.630
270.4854, 7003.990
270.9675, 7026.158
271.4496, 7052.123
271.9317, 7066.381
272.4138, 7068.531
272.8959, 7074.741
273.3781, 7100.899
273.8602, 7131.986
274.3423, 7138.591
274.8244, 7106.790
275.3065, 7073.301
275.7886, 7060.762
276.2708, 7066.688
276.7529, 7082.984
277.2350, 7111.628
277.7171, 7142.957
278.1992, 7158.141
278.6813, 7152.591
279.1635, 7155.072
279.6456, 7189.519
280.1277, 7235.679
280.6098, 7253.627
281.0919, 7231.442
281.5740, 7200.571
282.0562, 7201.000
282.5383, 7235.922
283.0204, 7261.074
283.5025, 7268.116
283.9846, 7265.467
284.4667, 7255.950
284.9489, 7241.317
285.4310, 7232.694
285.9131, 7240.737
286.3952, 7241.635
286.8773, 7280.269
287.3594, 7306.019
287.8416, 7319.576
288.3237, 7284.419
288.8058, 7312.165
289.2879, 7314.702
289.7700, 7316.205
290.2521, 7352.804
290.7343, 7324.734
291.2164, 7360.776
291.6985, 7371.226
292.1806, 7393.388
292.6627, 7390.187
293.1448, 7394.819
293.6270, 7424.826
294.1091, 7440.782
294.5912, 7434.660
295.0733, 7454.145
295.5554, 7477.447
296.0375, 7484.337
296.5197, 7488.029
297.0018, 7494.259
297.4839, 7473.279
297.9660, 7509.921
298.4481, 7533.677
298.9302, 7545.240
299.4124, 7508.091
299.8945, 7533.844
300.3766, 7534.387
300.8587, 7533.897
301.3408, 7568.502
301.8229, 7538.438
302.3050, 7572.486
302.7871, 7580.941
303.2693, 7601.111
303.7514, 7623.720
304.2335, 7649.474
304.7156, 7661.375
305.1977, 7665.454
305.6798, 7665.913
306.1620, 7663.987
306.6441, 7665.146
307.1262, 7680.070
307.6083, 7712.677
308.0904, 7744.244
308.5725, 7775.091
309.0547, 7801.199
309.5368, 7816.219
310.0189, 7820.960
310.5010, 7826.746
310.9831, 7848.250
311.4652, 7883.027
311.9474, 7901.387
312.4295, 7888.946
312.9116, 7877.593
313.3937, 7886.160
313.8758, 7910.900
314.3579, 7942.879
314.8401, 7987.486
315.3222, 8032.775
315.8043, 8052.369
316.2864, 8041.034
316.7685, 8034.855
317.2506, 8059.623
317.7328, 8099.862
318.2149, 8129.090
318.6970, 8138.461
319.1791, 8146.344
319.6612, 8168.563
320.1433, 8201.635
320.6255, 8228.424
321.1076, 8238.811
321.5897, 8247.073
322.0718, 8279.943
322.5539, 8340.855
323.0360, 8396.862
323.5182, 8443.623
324.0003, 8478.434
324.4824, 8489.779
324.9645, 8476.020
325.4466, 8466.580
325.9287, 8491.092
326.4109, 8553.677
326.8930, 8612.704
327.3751, 8677.042
327.8572, 8730.294
328.3393, 8754.883
328.8214, 8759.476
329.3036, 8770.544
329.7857, 8804.807
330.2678, 8855.613
330.7499, 8891.719
331.2320, 8904.490
331.7141, 8913.273
332.1963, 8914.667
332.6784, 8915.505
333.1605, 8924.260
333.6426, 8943.078
334.1247, 8965.745
334.6068, 8983.148
335.0890, 8993.424
335.5711, 9003.097
336.0532, 9009.364
336.5353, 9017.513
337.0174, 9032.346
337.4995, 9051.916
337.9817, 9070.840
338.4638, 9087.048
338.9459, 9099.059
339.4280, 9091.597
339.9101, 9047.146
340.3922, 9008.927
340.8744, 8992.255
341.3565, 8987.232
341.8386, 8980.410
342.3207, 8965.816
342.8028, 8951.966
343.2849, 8954.299
343.7671, 8975.775
344.2492, 8992.157
344.7313, 8991.788
345.2134, 8989.025
345.6955, 8995.484
346.1776, 9011.648
346.6598, 9030.292
347.1419, 9056.837
347.6240, 9082.308
348.1061, 9073.986
348.5882, 9016.529
349.0703, 8963.179
349.5525, 8968.891
350.0346, 9014.049
350.5167, 9040.825
350.9988, 9027.423
351.4809, 9001.356
351.9630, 8980.754
352.4452, 8965.896
352.9273, 8959.686
353.4094, 8967.758
353.8915, 8980.424
354.3736, 8969.586
354.8557, 8925.320
355.3379, 8884.373
355.8200, 8860.255
356.3021, 8841.311
356.7842, 8814.302
357.2663, 8776.294
357.7484, 8731.739
358.2306, 8683.421
358.7127, 8627.308
359.1948, 8591.578
359.6769, 8602.805
360.1590, 8605.192
360.6411, 8566.087
361.1233, 8498.787
361.6054, 8435.501
362.0875, 8395.456
362.5696, 8371.436
363.0517, 8336.522
363.5338, 8283.326
364.0160, 8230.557
364.4981, 8177.484
364.9802, 8127.534
365.4623, 8082.880
365.9444, 8044.384
366.4265, 8012.166
366.9087, 7992.084
367.3908, 7985.735
367.8729, 7960.789
368.3550, 7901.196
368.8371, 7839.862
369.3192, 7789.543
369.8014, 7750.178
370.2835, 7722.130
370.7656, 7713.250
371.2477, 7709.417
371.7298, 7680.750
372.2119, 7623.379
372.6941, 7580.139
373.1762, 7582.574
373.6583, 7601.452
374.1404, 7590.820
374.6225, 7542.196
375.1046, 7489.881
375.5868, 7449.289
376.0689, 7418.191
376.5510, 7395.357
377.0331, 7381.827
377.5152, 7366.316
377.9973, 7335.037
378.4795, 7285.917
378.9616, 7246.360
379.4437, 7227.562
379.9258, 7208.736
380.4079, 7175.104
380.8900, 7131.030
381.3722, 7089.501
381.8543, 7057.097
382.3364, 7033.521
382.8185, 7017.835
383.3006, 7030.152
383.7827, 7023.303
384.2649, 6978.917
384.7470, 6926.634
385.2291, 6891.009
385.7112, 6875.439
386.1933, 6866.443
386.6754, 6848.788
387.1576, 6821.526
387.6397, 6792.160
388.1218, 6819.193
388.6039, 6833.340
389.0860, 6835.294
389.5681, 6788.536
390.0503, 6804.679
390.5324, 6795.615
391.0145, 6785.517
391.4966, 6810.514
391.9787, 6770.841
392.4608, 6795.283
392.9430, 6794.130
393.4251, 6804.691
393.9072, 6789.889
394.3893, 6782.920
394.8714, 6766.547
395.3535, 6755.656
395.8357, 6745.309
396.3178, 6751.376
396.7999, 6776.375
397.2820, 6796.217
397.7641, 6790.589
398.2462, 6765.314
398.7284, 6753.442
399.2105, 6770.637
399.6926, 6783.522
400.1747, 6770.640
400.6568, 6746.942
401.1389, 6741.345
401.6211, 6763.472
402.1032, 6791.695
402.5853, 6792.301
403.0674, 6749.555
403.5495, 6727.323
404.0316, 6746.116
404.5138, 6763.246
404.9959, 6750.179
405.4780, 6716.689
405.9601, 6691.710
406.4422, 6694.892
406.9243, 6717.001
407.4065, 6724.817
407.8886, 6711.262
408.3707, 6697.664
408.8528, 6687.818
409.3349, 6679.702
409.8170, 6671.264
410.2992, 6662.353
410.7813, 6655.417
411.2634, 6652.835
411.7455, 6654.124
412.2276, 6657.145
412.7097, 6662.115
413.1919, 6667.956
413.6740, 6675.789
414.1561, 6683.841
414.6382, 6688.075
415.1203, 6687.768
415.6024, 6683.447
416.0846, 6673.440
416.5667, 6659.490
417.0488, 6646.073
417.5309, 6633.984
418.0130, 6625.870
418.4951, 6626.359
418.9773, 6638.200
419.4594, 6649.992
419.9415, 6663.073
420.4236, 6674.545
420.9057, 6668.023
421.3878, 6684.630
421.8700, 6694.630
422.3521, 6698.377
422.8342, 6677.144
423.3163, 6688.167
423.7984, 6686.264
424.2805, 6683.831
424.7627, 6699.396
425.2448, 6681.795
425.7269, 6689.286
426.2090, 6682.395
426.6911, 6674.297
427.1732, 6666.402
427.6554, 6658.977
428.1375, 6656.362
428.6196, 6660.337
429.1017, 6665.775
429.5838, 6670.681
430.0659, 6675.166
430.5481, 6679.935
431.0302, 6686.889
431.5123, 6690.397
431.9944, 6681.989
432.4765, 6665.604
432.9586, 6656.029
433.4408, 6658.000
433.9229, 6664.391
434.4050, 6666.249
434.8871, 6662.708
435.3692, 6664.777
435.8513, 6678.224
436.3335, 6692.775
436.8156, 6702.814
437.2977, 6708.777
437.7798, 6715.375
438.2619, 6725.864
438.7440, 6732.629
439.2262, 6713.227
439.7083, 6631.324
440.1904, 6589.387
440.6725, 6618.445
441.1546, 6658.674
441.6367, 6670.258
442.1189, 6655.363
442.6010, 6640.945
443.0831, 6649.094
443.5652, 6672.793
444.0473, 6683.787
444.5294, 6677.426
445.0116, 6671.405
445.4937, 6675.526
445.9758, 6681.652
446.4579, 6681.122
446.9400, 6672.151
447.4221, 6662.366
447.9043, 6654.361
448.3864, 6649.243
448.8685, 6652.277
449.3506, 6665.032
449.8327, 6673.191
450.3148, 6661.899
450.7970, 6634.450
451.2791, 6623.917
451.7612, 6647.657
452.2433, 6666.764
452.7254, 6662.391
453.2076, 6647.908
453.6897, 6644.292
454.1718, 6656.881
454.6539, 6671.722
455.1360, 6669.854
455.6181, 6647.548
456.1003, 6629.745
456.5824, 6612.163
457.0645, 6604.218
457.5466, 6617.607
458.0287, 6640.593
458.5108, 6653.680
458.9930, 6647.498
459.4751, 6634.334
459.9572, 6632.327
460.4393, 6641.676
460.9214, 6648.590
461.4035, 6647.586
461.8857, 6647.441
462.3678, 6659.089
462.8499, 6679.734
463.3320, 6694.299
463.8141, 6699.793
464.2962, 6696.710
464.7784, 6679.632
465.2605, 6652.916
465.7426, 6633.489
466.2247, 6629.208
466.7068, 6634.300
467.1889, 6638.056
467.6711, 6617.349
468.1532, 6646.869
468.6353, 6663.502
469.1174, 6667.943
469.5995, 6623.671
470.0816, 6642.302
470.5638, 6635.724
471.0459, 6628.113
471.5280, 6655.597
472.0101, 6618.410
472.4922, 6645.337
472.9743, 6646.672
473.4565, 6659.719
473.9386, 6647.403
474.4207, 6642.920
474.9028, 6663.811
475.3849, 6670.652
475.8670, 6655.416
476.3492, 6669.208
476.8313, 6631.135
477.3134, 6638.575
477.7955, 6665.651
478.2776, 6651.690
478.7597, 6654.725
479.2419, 6658.837
479.7240, 6655.081
480.2061, 6647.317
480.6882, 6631.366
481.1703, 6615.009
481.6524, 6602.287
482.1346, 6595.409
482.6167, 6601.651
483.0988, 6629.750
483.5809, 6671.908
484.0630, 6683.144
484.5451, 6635.195
485.0273, 6602.522
485.5094, 6606.146
485.9915, 6619.931
486.4736, 6622.000
486.9557, 6610.868
487.4378, 6601.571
487.9200, 6604.884
488.4021, 6619.086
488.8842, 6644.941
489.3663, 6687.278
489.8484, 6711.627
490.3305, 6688.877
490.8127, 6642.677
491.2948, 6624.362
491.7769, 6644.045
492.2590, 6661.646
492.7411, 6661.166
493.2232, 6652.947
493.7054, 6648.553
494.1875, 6648.974
494.6696, 6648.564
495.1517, 6642.412
495.6338, 6632.162
496.1159, 6628.312
496.5981, 6632.619
497.0802, 6641.515
497.5623, 6661.704
498.0444, 6681.300
498.5265, 6691.162
499.0086, 6690.011
499.4908, 6680.960
499.9729, 6659.808
500.4550, 6633.027
500.9371, 6627.575
501.4192, 6647.538
501.9013, 6672.461
502.3835, 6701.343
502.8656, 6725.157
503.3477, 6728.924
503.8298, 6707.716
504.3119, 6686.144
504.7940, 6668.984
505.2762, 6658.840
505.7583, 6664.896
506.2404, 6684.339
506.7225, 6696.423
507.2046, 6685.836
507.6867, 6658.956
508.1689, 6643.917
508.6510, 6651.690
509.1331, 6655.570
509.6152, 6649.885
510.0973, 6643.245
510.5794, 6641.083
511.0616, 6644.081
511.5437, 6651.423
512.0258, 6665.603
512.5079, 6681.734
512.9901, 6683.563
513.4722, 6667.815
513.9543, 6658.331
514.4364, 6669.818
514.9185, 6685.951
515.4006, 6681.783
515.8828, 6654.902
516.3649, 6639.191
516.8470, 6652.885
517.3291, 6676.250
517.8112, 6696.615
518.2933, 6710.816
518.7755, 6712.042
519.2576, 6695.804
519.7397, 6668.206
520.2218, 6642.165
520.7039, 6605.596
521.1860, 6594.749
521.6682, 6629.812
522.1503, 6668.462
522.6324, 6692.558
523.1145, 6701.319
523.5966, 6696.394
524.0787, 6674.480
524.5609, 6648.755
525.0430, 6644.740
525.5251, 6662.243
526.0072, 6669.497
526.4893, 6654.650
526.9714, 6634.348
527.4536, 6626.412
527.9357, 6629.369
528.4178, 6632.901
528.8999, 6632.625
529.3820, 6635.500
529.8641, 6649.509
530.3463, 6668.928
530.8284, 6680.875
531.3105, 6681.266
531.7926, 6680.091
532.2747, 6693.464
532.7568, 6726.636
533.2390, 6741.691
533.7211, 6723.251
534.2032, 6703.633
534.6853, 6691.921
535.1674, 6685.162
535.6495, 6678.339
536.1317, 6669.723
536.6138, 6663.541
537.0959, 6667.474
537.5780, 6677.145
538.0601, 6675.272
538.5422, 6657.841
539.0244, 6644.495
539.5065, 6650.124
539.9886, 6671.425
540.4707, 6691.265
540.9528, 6719.058
541.4349, 6733.124
541.9171, 6719.672
542.3992, 6696.664
542.8813, 6677.636
543.3634, 6666.101
543.8455, 6664.513
544.3276, 6677.618
544.8098, 6699.481
545.2919, 6701.136
545.7740, 6671.861
546.2561, 6651.869
546.7382, 6660.719
547.2203, 6675.781
547.7025, 6678.095
548.1846, 6668.313
548.6666, 6662.798
549.1487, 6677.052
549.6309, 6693.218
550.1130, 6687.146
550.5951, 6664.080
551.0772, 6649.816
551.5593, 6655.829
552.0414, 6668.217
552.5236, 6662.454
553.0057, 6626.103
553.4878, 6614.298
553.9699, 6643.946
554.4520, 6676.277
554.9341, 6703.118
555.4163, 6720.101
555.8984, 6719.540
556.3805, 6698.180
556.8626, 6671.420
557.3447, 6654.022
557.8268, 6646.460
558.3090, 6657.086
558.7911, 6694.395
559.2732, 6725.125
559.7553, 6722.681
560.2374, 6697.049
560.7195, 6682.318
561.2017, 6683.546
561.6838, 6687.184
562.1659, 6687.417
562.6480, 6688.942
563.1301, 6699.513
563.6122, 6717.721
564.0944, 6733.629
564.5765, 6740.287
565.0586, 6738.697
565.5407, 6731.461
566.0228, 6713.373
566.5049, 6702.844
566.9871, 6711.386
567.4692, 6721.806
567.9513, 6724.094
568.4334, 6718.647
568.9155, 6709.974
569.3976, 6695.707
569.8798, 6682.823
570.3619, 6680.673
570.8440, 6686.093
571.3261, 6686.229
571.8082, 6676.304
572.2903, 6669.446
572.7725, 6684.620
573.2546, 6726.742
573.7367, 6744.361
574.2188, 6705.685
574.7009, 6681.935
575.1830, 6706.532
575.6652, 6747.063
576.1473, 6766.046
576.6294, 6755.805
577.1115, 6737.311
577.5936, 6728.599
578.0757, 6726.868
578.5579, 6721.038
579.0400, 6709.807
579.5221, 6705.680
580.0042, 6718.658
580.4863, 6738.307
580.9684, 6742.016
581.4506, 6724.383
581.9327, 6716.324
582.4148, 6727.527
582.8969, 6744.634
583.3790, 6768.309
583.8611, 6789.599
584.3433, 6788.367
584.8254, 6755.098
585.3075, 6710.788
585.7896, 6687.239
586.2717, 6685.426
586.7538, 6696.376
587.2360, 6731.939
587.7181, 6760.092
588.2002, 6755.473
588.6823, 6733.435
589.1644, 6717.682
589.6465, 6711.122
590.1287, 6711.440
590.6108, 6724.812
591.0929, 6740.492
591.5750, 6740.923
592.0571, 6727.705
592.5392, 6719.730
593.0214, 6730.354
593.5035, 6752.676
593.9856, 6765.753
594.4677, 6767.702
594.9498, 6764.727
595.4319, 6755.155
595.9141, 6742.550
596.3962, 6724.526
596.8783, 6704.961
597.3604, 6693.555
597.8425, 6696.721
598.3246, 6703.686
598.8068, 6702.548
599.2889, 6697.803
599.7710, 6702.359
600.2531, 6718.750
600.7352, 6737.598
601.2173, 6750.864
601.6995, 6759.521
602.1816, 6771.701
602.6637, 6801.380
603.1458, 6814.833
603.6279, 6800.163
604.1100, 6776.075
604.5922, 6751.809
605.0743, 6730.651
605.5564, 6717.338
606.0385, 6716.216
606.5206, 6722.031
607.0027, 6729.876
607.4849, 6738.754
607.9670, 6739.650
608.4491, 6729.023
608.9312, 6714.613
609.4133, 6702.146
609.8954, 6691.671
610.3776, 6692.406
610.8597, 6716.853
611.3418, 6735.554
611.8239, 6741.731
612.3060, 6738.932
612.7881, 6725.311
613.2703, 6704.541
613.7524, 6691.301
614.2345, 6699.333
614.7166, 6720.547
615.1987, 6735.724
615.6808, 6744.699
616.1630, 6751.448
616.6451, 6757.521
617.1272, 6760.798
617.6093, 6755.406
618.0914, 6741.127
618.5735, 6740.202
619.0557, 6773.468
619.5378, 6797.121
620.0199, 6784.404
620.5020, 6757.429
620.9841, 6745.026
621.4662, 6751.882
621.9484, 6761.996
622.4305, 6760.872
622.9126, 6751.549
623.3947, 6744.065
623.8768, 6737.067
624.3589, 6741.433
624.8411, 6769.485
625.3232, 6800.029
625.8053, 6803.924
626.2874, 6782.963
626.7695, 6767.614
627.2516, 6765.285
627.7338, 6766.002
628.2159, 6767.782
628.6980, 6768.277
629.1801, 6762.560
629.6622, 6750.551
630.1443, 6739.546
630.6265, 6736.890
631.1086, 6741.377
631.5907, 6747.260
632.0728, 6756.095
632.5549, 6759.773
633.0370, 6750.771
633.5192, 6740.483
634.0013, 6744.158
634.4834, 6760.831
634.9655, 6771.016
635.4476, 6765.237
635.9297, 6757.885
636.4119, 6756.930
636.8940, 6759.729
637.3761, 6761.888
637.8582, 6762.338
638.3403, 6762.721
638.8224, 6764.888
639.3046, 6768.369
639.7867, 6770.459
640.2688, 6771.425
640.7509, 6770.057
641.2330, 6765.847
641.7151, 6759.229
642.1973, 6749.518
642.6794, 6737.087
643.1615, 6727.042
643.6436, 6718.290
644.1257, 6714.465
644.6078, 6719.643
645.0900, 6730.218
645.5721, 6743.660
646.0542, 6757.850
646.5363, 6764.834
647.0184, 6754.042
647.5005, 6731.695
647.9827, 6731.993
648.4648, 6764.800
648.9469, 6779.333
649.4290, 6749.750
649.9111, 6711.450
650.3932, 6698.784
650.8754, 6708.559
651.3575, 6719.075
651.8396, 6729.811
652.3217, 6737.042
652.8038, 6734.119
653.2859, 6729.078
653.7681, 6733.024
654.2502, 6747.231
654.7323, 6766.304
655.2144, 6788.070
655.6965, 6808.431
656.1786, 6809.330
656.6608, 6785.661
657.1429, 6775.823
657.6250, 6797.829
658.1071, 6821.386
658.5892, 6813.730
659.0714, 6782.633
659.5535, 6762.810
660.0356, 6765.603
660.5177, 6769.780
660.9998, 6771.267
661.4819, 6768.603
661.9641, 6757.000
662.4462, 6738.895
662.9283, 6723.936
663.4104, 6718.362
663.8925, 6720.419
664.3746, 6727.381
664.8568, 6739.380
665.3389, 6753.575
665.8210, 6773.710
666.3031, 6785.649
666.7852, 6772.628
667.2673, 6742.436
667.7495, 6729.725
668.2316, 6750.073
668.7137, 6762.478
669.1958, 6747.102
669.6779, 6730.718
670.1600, 6739.319
670.6422, 6765.562
671.1243, 6782.558
671.6064, 6775.801
672.0885, 6763.962
672.5706, 6780.068
673.0527, 6818.016
673.5349, 6832.232
674.0170, 6816.118
674.4991, 6788.144
674.9812, 6752.481
675.4633, 6717.559
675.9454, 6707.201
676.4276, 6737.547
676.9097, 6757.176
677.3918, 6759.095
677.8739, 6755.856
678.3560, 6746.747
678.8381, 6739.359
679.3203, 6749.088
679.8024, 6780.758
680.2845, 6809.545
680.7666, 6808.086
681.2487, 6787.280
681.7308, 6770.386
682.2130, 6758.688
682.6951, 6755.661
683.1772, 6764.578
683.6593, 6777.035
684.1414, 6779.122
684.6235, 6767.488
685.1057, 6763.238
685.5878, 6778.549
686.0699, 6786.558
686.5520, 6772.664
687.0341, 6753.274
687.5162, 6747.375
687.9984, 6756.240
688.4805, 6763.466
688.9626, 6755.707
689.4447, 6744.656
689.9268, 6744.321
690.4089, 6751.808
690.8911, 6759.530
691.3732, 6765.274
691.8553, 6767.104
692.3374, 6762.262
692.8195, 6751.843
693.3016, 6745.753
693.7838, 6745.678
694.2659, 6746.230
694.7480, 6747.413
695.2301, 6748.035
695.7122, 6745.386
696.1943, 6741.194
696.6765, 6742.360
697.1586, 6758.284
697.6407, 6768.341
698.1228, 6753.298
698.6049, 6730.851
699.0870, 6726.201
699.5692, 6738.056
700.0513, 6745.988
700.5334, 6736.965
701.0155, 6719.102
701.4976, 6707.789
701.9797, 6703.003
702.4619, 6705.822
702.9440, 6719.746
703.4261, 6732.492
703.9082, 6735.661
704.3903, 6733.140
704.8724, 6734.570
705.3546, 6741.688
705.8367, 6747.467
706.3188, 6757.033
706.8009, 6758.970
707.2830, 6736.932
707.7651, 6705.743
708.2473, 6691.854
708.7294, 6702.656
709.2115, 6719.260
709.6936, 6724.249
710.1757, 6721.322
710.6578, 6720.314
711.1400, 6721.065
711.6221, 6717.065
712.1042, 6704.561
712.5863, 6693.095
713.0684, 6696.832
713.5505, 6717.249
714.0327, 6720.799
714.5148, 6677.650
714.9969, 6658.874
715.4790, 6701.554
715.9611, 6751.893
716.4432, 6761.487
716.9254, 6736.118
717.4075, 6719.286
717.8896, 6738.870
718.3717, 6757.759
718.8538, 6738.265
719.3359, 6701.161
719.8181, 6683.869
720.3002, 6689.130
720.7823, 6693.801
721.2644, 6681.417
721.7465, 6662.481
722.2286, 6665.151
722.7108, 6693.947
723.1929, 6713.541
723.6750, 6721.703
724.1571, 6719.593
724.6392, 6703.072
725.1213, 6678.345
725.6035, 6657.084
726.0856, 6637.863
726.5677, 6627.813
727.0498, 6637.517
727.5319, 6647.255
728.0140, 6640.618
728.4962, 6627.771
728.9783, 6627.756
729.4604, 6644.672
729.9425, 6663.040
730.4246, 6669.912
730.9067, 6667.816
731.3889, 6660.541
731.8710, 6648.705
732.3531, 6636.418
732.8352, 6623.677
733.3173, 6619.577
733.7994, 6637.240
734.2816, 6673.510
734.7637, 6686.313
735.2458, 6656.123
735.7279, 6635.097
736.2100, 6635.523
736.6921, 6640.445
737.1743, 6641.047
737.6564, 6637.566
738.1385, 6631.467
738.6206, 6620.288
739.1027, 6613.525
739.5848, 6623.625
740.0670, 6636.247
740.5491, 6631.532
741.0312, 6613.353
741.5133, 6597.405
741.9954, 6591.092
742.4775, 6595.122
742.9597, 6619.439
743.4418, 6660.671
743.9239, 6666.951
744.4060, 6630.540
744.8881, 6598.100
745.3702, 6586.714
745.8524, 6589.034
746.3345, 6597.985
746.8166, 6615.284
747.2987, 6622.550
747.7808, 6609.002
748.2629, 6600.035
748.7451, 6604.714
749.2272, 6614.144
749.7093, 6622.657
750.1914, 6628.441
750.6735, 6628.558
751.1556, 6619.204
751.6378, 6608.278
752.1199, 6608.936
752.6020, 6611.124
753.0841, 6584.811
753.5662, 6534.265
754.0483, 6510.664
754.5305, 6546.711
755.0126, 6607.470
755.4947, 6619.553
755.9768, 6575.226
756.4589, 6557.145
756.9410, 6577.689
757.4232, 6596.875
757.9053, 6595.280
758.3874, 6584.498
758.8695, 6584.962
759.3516, 6599.073
759.8337, 6598.796
760.3159, 6561.504
760.7980, 6533.851
761.2801, 6539.529
761.7622, 6559.567
762.2443, 6578.149
762.7264, 6590.663
763.2086, 6592.300
763.6907, 6573.687
764.1728, 6554.926
764.6549, 6565.603
765.1370, 6593.090
765.6191, 6605.778
766.1013, 6599.920
766.5834, 6587.346
767.0655, 6574.605
767.5476, 6563.007
768.0297, 6556.676
768.5118, 6557.540
768.9940, 6549.821
769.4761, 6522.518
769.9582, 6510.272
770.4403, 6538.387
770.9224, 6582.933
771.4045, 6613.416
771.8867, 6630.627
772.3688, 6627.083
772.8509, 6576.059
773.3330, 6534.955
773.8151, 6535.551
774.2972, 6550.775
774.7794, 6551.085
775.2615, 6535.586
775.7436, 6520.978
776.2257, 6514.843
776.7078, 6516.680
777.1899, 6532.773
777.6721, 6554.758
778.1542, 6562.171
778.6363, 6553.753
779.1184, 6539.470
779.6005, 6523.915
780.0826, 6512.923
780.5648, 6520.924
781.0469, 6551.163
781.5290, 6567.518
782.0111, 6568.077
782.4932, 6558.935
782.9753, 6533.622
783.4575, 6507.945
783.9396, 6503.396
784.4217, 6520.267
784.9038, 6539.657
785.3859, 6578.784
785.8680, 6596.969
786.3502, 6560.788
786.8323, 6516.987
787.3144, 6507.310
787.7965, 6527.278
788.2786, 6549.462
788.7607, 6565.093
789.2429, 6571.052
789.7250, 6557.285
790.2071, 6536.048
790.6892, 6528.418
791.1713, 6532.768
791.6534, 6533.985
792.1356, 6525.537
792.6177, 6514.853
793.0998, 6510.207
793.5819, 6512.042
794.0640, 6530.480
794.5461, 6571.556
795.0283, 6588.748
795.5104, 6560.022
795.9925, 6521.810
796.4746, 6510.216
796.9567, 6522.392
797.4388, 6528.063
797.9210, 6519.638
798.4031, 6515.535
798.8852, 6521.122
799.3673, 6526.697
799.8494, 6526.860
800.3315, 6522.950
800.8137, 6515.738
801.2958, 6503.570
801.7779, 6501.385
802.2600, 6533.262
802.7421, 6563.760
803.2242, 6552.275
803.7064, 6517.769
804.1885, 6500.994
804.6706, 6510.129
805.1527, 6518.539
805.6348, 6500.243
806.1169, 6471.261
806.5991, 6468.618
807.0812, 6488.797
807.5633, 6506.988
808.0454, 6519.351
808.5275, 6523.837
809.0096, 6518.831
809.4918, 6505.613
809.9739, 6485.109
810.4560, 6449.652
810.9381, 6435.341
811.4202, 6450.607
811.9023, 6473.468
812.3845, 6507.156
812.8666, 6536.447
813.3487, 6538.922
813.8308, 6514.670
814.3129, 6499.712
814.7950, 6506.662
815.2772, 6514.299
815.7593, 6518.146
816.2414, 6517.421
816.7235, 6510.524
817.2056, 6498.581
817.6877, 6481.793
818.1699, 6456.672
818.6520, 6443.956
819.1341, 6477.591
819.6162, 6525.643
820.0983, 6535.690
820.5804, 6513.694
821.0626, 6489.703
821.5447, 6474.885
822.0268, 6469.781
822.5089, 6477.425
822.9910, 6483.346
823.4731, 6504.942
823.9553, 6516.626
824.4374, 6518.931
824.9195, 6483.765
825.4016, 6496.985
825.8837, 6490.814
826.3658, 6483.848
826.8480, 6503.878
827.3301, 6474.163
827.8122, 6493.765
828.2943, 6493.680
828.7764, 6502.605
829.2585, 6492.021
829.7407, 6487.461
830.2228, 6502.419
830.7049, 6487.834
831.1870, 6490.126
831.6691, 6474.985
832.1512, 6460.959
832.6334, 6455.447
833.1155, 6455.372
833.5976, 6459.037
834.0797, 6464.991
834.5618, 6471.179
835.0439, 6477.213
835.5261, 6480.304
836.0082, 6474.226
836.4903, 6465.495
836.9724, 6468.134
837.4545, 6478.408
837.9366, 6478.413
838.4188, 6462.774
838.9009, 6446.756
839.3830, 6447.095
839.8651, 6459.405
840.3472, 6470.307
840.8293, 6480.002
841.3115, 6474.636
841.7936, 6448.078
842.2757, 6424.463
842.7578, 6420.514
843.2399, 6430.155
843.7220, 6438.170
844.2042, 6443.567
844.6863, 6451.295
845.1684, 6470.590
845.6505, 6478.430
846.1326, 6451.874
846.6147, 6420.833
847.0969, 6420.200
847.5790, 6446.976
848.0611, 6458.608
848.5432, 6424.452
849.0253, 6408.223
849.5074, 6448.782
849.9896, 6494.347
850.4717, 6505.556
850.9538, 6489.516
851.4359, 6465.298
851.9180, 6437.641
852.4001, 6418.033
852.8823, 6415.677
853.3644, 6423.501
853.8465, 6440.285
854.3286, 6459.475
854.8107, 6469.029
855.2928, 6466.720
855.7750, 6455.569
856.2571, 6434.544
856.7392, 6415.485
857.2213, 6427.837
857.7034, 6461.589
858.1855, 6469.410
858.6677, 6447.467
859.1498, 6419.936
859.6319, 6396.713
860.1140, 6382.312
860.5961, 6385.591
861.0782, 6405.566
861.5604, 6413.552
862.0425, 6405.000
862.5246, 6402.840
863.0067, 6414.982
863.4888, 6429.035
863.9709, 6435.121
864.4531, 6435.494
864.9352, 6438.703
865.4173, 6451.911
865.8994, 6452.871
866.3815, 6422.223
866.8636, 6402.932
867.3458, 6421.930
867.8279, 6452.430
868.3100, 6463.670
868.7921, 6454.654
869.2742, 6445.304
869.7563, 6437.873
870.2385, 6434.651
870.7206, 6443.848
871.2027, 6451.571
871.6848, 6440.371
872.1669, 6418.363
872.6490, 6409.623
873.1312, 6423.041
873.6133, 6427.566
874.0954, 6381.827
874.5775, 6331.119
875.0596, 6332.751
875.5417, 6367.129
876.0239, 6392.949
876.5060, 6402.093
876.9881, 6408.118
877.4702, 6421.352
877.9523, 6431.408
878.4344, 6411.373
878.9166, 6373.863
879.3987, 6373.762
879.8808, 6410.843
880.3629, 6435.908
880.8450, 6428.704
881.3271, 6407.510
881.8093, 6392.639
882.2914, 6383.529
882.7735, 6376.832
883.2556, 6372.651
883.7377, 6369.256
884.2198, 6364.237
884.7020, 6368.338
885.1841, 6393.670
885.6662, 6426.695
886.1483, 6437.446
886.6304, 6421.763
887.1125, 6401.532
887.5947, 6365.319
888.0768, 6343.331
888.5589, 6352.995
889.0410, 6371.699
889.5231, 6379.837
890.0052, 6380.017
890.4874, 6384.852
890.9695, 6404.931
891.4516, 6411.932
891.9337, 6388.705
892.4158, 6365.991
892.8979, 6363.777
893.3801, 6369.891
893.8622, 6364.965
894.3443, 6347.570
894.8264, 6336.126
895.3085, 6338.956
895.7906, 6348.437
896.2728, 6369.165
896.7549, 6387.944
897.2370, 6386.199
897.7191, 6371.028
898.2012, 6363.327
898.6833, 6370.581
899.1655, 6381.964
899.6476, 6387.787
900.1297, 6393.793
900.6118, 6414.427
901.0939, 6438.553
901.5760, 6437.367
902.0582, 6410.863
902.5403, 6388.501
903.0224, 6389.101
903.5045, 6400.037
903.9866, 6406.087
904.4688, 6406.970
904.9509, 6400.856
905.4330, 6388.184
905.9151, 6370.976
906.3972, 6350.011
906.8793, 6331.382
907.3615, 6320.272
907.8436, 6317.261
908.3257, 6330.765
908.8078, 6361.081
909.2899, 6359.979
909.7720, 6317.127
910.2542, 6283.451
910.7363, 6284.072
911.2184, 6305.275
911.7005, 6330.073
912.1826, 6358.255
912.6647, 6375.141
913.1469, 6380.419
913.6290, 6373.658
914.1111, 6344.855
914.5932, 6323.052
915.0753, 6331.311
915.5574, 6357.288
916.0396, 6373.614
916.5217, 6380.521
917.0038, 6376.376
917.4859, 6340.294
917.9680, 6322.804
918.4501, 6354.082
918.9323, 6392.218
919.4144, 6408.299
919.8965, 6403.834
920.3786, 6384.607
920.8607, 6337.857
921.3428, 6305.721
921.8250, 6291.532
922.3071, 6296.280
922.7892, 6341.454
923.2713, 6392.151
923.7534, 6404.848
924.2355, 6380.572
924.7177, 6356.443
925.1998, 6341.588
925.6819, 6331.861
926.1640, 6324.443
926.6461, 6322.633
927.1282, 6334.895
927.6104, 6352.346
928.0925, 6357.787
928.5746, 6348.698
929.0567, 6343.267
929.5388, 6360.695
930.0209, 6374.974
930.5031, 6357.730
930.9852, 6332.194
931.4673, 6331.781
931.9494, 6349.438
932.4315, 6353.808
932.9136, 6333.901
933.3958, 6317.615
933.8779, 6335.918
934.3600, 6365.722
934.8421, 6379.479
935.3242, 6381.034
935.8063, 6374.338
936.2885, 6363.212
936.7706, 6360.182
937.2527, 6372.582
937.7348, 6384.206
938.2169, 6371.621
938.6990, 6345.007
939.1812, 6326.603
939.6633, 6315.582
940.1454, 6306.522
940.6275, 6298.250
941.1096, 6292.947
941.5917, 6292.107
942.0739, 6295.259
942.5560, 6301.075
943.0381, 6310.049
943.5202, 6328.738
944.0023, 6355.848
944.4844, 6371.597
944.9666, 6369.796
945.4487, 6357.895
945.9308, 6341.278
946.4129, 6322.629
946.8950, 6309.133
947.3771, 6300.769
947.8593, 6295.161
948.3414, 6291.864
948.8235, 6295.729
949.3056, 6309.599
949.7877, 6327.130
950.2698, 6343.063
950.7520, 6355.169
951.2341, 6347.509
951.7162, 6314.492
952.1983, 6299.218
952.6804, 6308.999
953.1625, 6326.093
953.6447, 6346.617
954.1268, 6360.859
954.6089, 6352.988
955.0910, 6324.583
955.5731, 6310.165
956.0552, 6313.335
956.5374, 6321.320
957.0195, 6341.022
957.5016, 6346.781
957.9837, 6316.737
958.4658, 6273.188
958.9479, 6251.962
959.4301, 6254.062
959.9122, 6264.380
960.3943, 6291.585
960.8764, 6309.435
961.3585, 6309.959
961.8406, 6305.926
962.3228, 6303.941
962.8049, 6303.124
963.2870, 6300.950
963.7691, 6295.939
964.2512, 6297.517
964.7333, 6308.233
965.2155, 6321.847
965.6976, 6350.188
966.1797, 6368.636
966.6618, 6347.965
967.1439, 6308.893
967.6260, 6304.040
968.1082, 6350.857
968.5903, 6366.204
969.0724, 6313.937
969.5545, 6272.907
970.0366, 6267.822
970.5187, 6276.494
971.0009, 6286.651
971.4830, 6296.252
971.9651, 6302.167
972.4472, 6304.688
972.9293, 6301.432
973.4114, 6280.714
973.8936, 6268.638
974.3757, 6288.381
974.8578, 6308.922
975.3399, 6293.620
975.8220, 6256.121
976.3041, 6244.526
976.7863, 6276.341
977.2684, 6300.718
977.7505, 6301.998
978.2326, 6298.830
978.7147, 6295.828
979.1968, 6294.964
979.6790, 6302.322
980.1611, 6313.292
980.6432, 6310.566
981.1253, 6283.414
981.6074, 6264.642
982.0895, 6269.487
982.5717, 6278.629
983.0538, 6288.544
983.5359, 6292.953
984.0180, 6277.059
984.5001, 6249.212
984.9822, 6244.051
985.4644, 6281.438
985.9465, 6309.688
986.4286, 6306.939
986.9107, 6293.601
987.3928, 6269.818
987.8749, 6250.200
988.3571, 6257.146
988.8392, 6284.816
989.3213, 6302.861
989.8034, 6302.099
990.2855, 6291.233
990.7676, 6259.065
991.2498, 6234.054
991.7319, 6241.073
992.2140, 6261.490
992.6961, 6275.318
993.1782, 6279.457
993.6603, 6274.100
994.1425, 6252.897
994.6246, 6241.148
995.1067, 6262.094
995.5888, 6283.430
996.0709, 6279.664
996.5530, 6265.474
997.0352, 6258.817
997.5173, 6261.412
997.9994, 6268.731
998.4815, 6282.652
998.9636, 6290.677
999.4457, 6280.187
999.9279, 6269.147
1000.410, 6275.524
1000.892, 6285.349
1001.374, 6277.612
1001.856, 6254.575
1002.338, 6235.839
1002.821, 6227.484
1003.303, 6226.126
1003.785, 6233.607
1004.267, 6243.779
1004.749, 6251.417
1005.231, 6259.859
1005.713, 6281.207
1006.195, 6308.420
1006.677, 6310.353
1007.160, 6266.916
1007.642, 6230.253
1008.124, 6230.311
1008.606, 6238.131
1009.088, 6233.754
1009.570, 6227.142
1010.052, 6231.708
1010.534, 6246.775
1011.017, 6265.067
1011.499, 6287.999
1011.981, 6300.612
1012.463, 6293.100
1012.945, 6277.323
1013.427, 6255.756
1013.909, 6233.360
1014.391, 6210.978
1014.873, 6192.708
1015.356, 6190.636
1015.838, 6212.234
1016.320, 6232.042
1016.802, 6240.763
1017.284, 6244.621
1017.766, 6251.212
1018.248, 6251.389
1018.730, 6228.688
1019.213, 6191.775
1019.695, 6167.522
1020.177, 6163.633
1020.659, 6164.716
1021.141, 6168.247
1021.623, 6172.546
1022.105, 6179.655
1022.587, 6184.806
1023.069, 6178.107
1023.552, 6166.918
1024.034, 6172.481
1024.516, 6202.526
1024.998, 6223.656
1025.480, 6217.682
1025.962, 6213.773
1026.444, 6229.995
1026.926, 6245.775
1027.409, 6242.235
1027.891, 6226.007
1028.373, 6212.240
1028.855, 6202.826
1029.337, 6196.538
1029.819, 6189.590
1030.301, 6190.685
1030.783, 6211.905
1031.266, 6232.136
1031.748, 6234.306
1032.230, 6226.694
1032.712, 6226.764
1033.194, 6237.041
1033.676, 6236.026
1034.158, 6206.734
1034.640, 6187.758
1035.122, 6189.375
1035.604, 6198.415
1036.087, 6219.941
1036.569, 6237.975
1037.051, 6221.201
1037.533, 6167.667
1038.015, 6140.421
1038.497, 6158.475
1038.979, 6172.840
1039.461, 6178.671
1039.944, 6183.150
1040.426, 6189.392
1040.908, 6195.859
1041.390, 6201.570
1041.872, 6206.182
1042.354, 6205.851
1042.836, 6200.579
1043.318, 6189.374
1043.800, 6163.091
1044.283, 6148.335
1044.765, 6159.440
1045.247, 6179.847
1045.729, 6195.220
1046.211, 6204.995
1046.693, 6205.763
1047.175, 6193.380
1047.657, 6185.975
1048.140, 6184.009
1048.622, 6186.920
1049.104, 6197.223
1049.586, 6205.636
1050.068, 6204.427
1050.550, 6195.322
1051.032, 6181.179
1051.514, 6160.452
1051.996, 6152.643
1052.479, 6161.184
1052.961, 6158.599
1053.443, 6135.064
1053.925, 6119.643
1054.407, 6134.067
1054.889, 6160.844
1055.371, 6167.139
1055.853, 6154.915
1056.335, 6147.166
1056.818, 6143.832
1057.300, 6143.581
1057.782, 6146.219
1058.264, 6147.622
1058.746, 6145.256
1059.228, 6145.487
1059.710, 6160.375
1060.192, 6181.565
1060.675, 6175.700
1061.157, 6149.020
1061.639, 6135.903
1062.121, 6139.243
1062.603, 6147.135
1063.085, 6154.845
1063.567, 6165.272
1064.049, 6182.515
1064.531, 6201.271
1065.014, 6216.394
1065.496, 6223.666
1065.978, 6203.529
1066.460, 6165.708
1066.942, 6146.898
1067.424, 6155.337
1067.906, 6171.920
1068.388, 6185.506
1068.870, 6194.789
1069.353, 6202.173
1069.835, 6201.416
1070.317, 6171.408
1070.799, 6131.455
1071.281, 6123.673
1071.763, 6147.611
1072.245, 6171.168
1072.727, 6181.997
1073.210, 6175.307
1073.692, 6123.037
1074.174, 6078.257
1074.656, 6098.861
1075.138, 6142.897
1075.620, 6163.768
1076.102, 6159.914
1076.584, 6140.150
1077.067, 6105.893
1077.549, 6085.770
1078.031, 6100.892
1078.513, 6121.474
1078.995, 6141.092
1079.477, 6154.030
1079.959, 6148.549
1080.441, 6137.188
1080.923, 6145.161
1081.406, 6173.424
1081.888, 6185.168
1082.370, 6155.342
1082.852, 6136.981
1083.334, 6150.620
1083.816, 6162.269
1084.298, 6147.457
1084.780, 6129.942
1085.262, 6143.374
1085.745, 6178.283
1086.227, 6187.057
1086.709, 6158.353
1087.191, 6132.786
1087.673, 6105.160
1088.155, 6092.368
1088.637, 6105.029
1089.119, 6121.765
1089.602, 6125.540
1090.084, 6125.013
1090.566, 6143.609
1091.048, 6183.390
1091.530, 6176.407
1092.012, 6112.094
1092.494, 6068.125
1092.976, 6056.917
1093.458, 6070.997
1093.941, 6110.891
1094.423, 6150.391
1094.905, 6153.244
1095.387, 6132.049
1095.869, 6138.544
1096.351, 6166.694
1096.833, 6163.153
1097.315, 6128.017
1097.797, 6107.349
1098.280, 6115.242
1098.762, 6126.830
1099.244, 6121.854
1099.726, 6112.261
1100.208, 6117.233
1100.690, 6130.460
1101.172, 6143.271
1101.654, 6152.135
1102.137, 6145.817
1102.619, 6126.906
1103.101, 6114.199
1103.583, 6116.878
1104.065, 6121.465
1104.547, 6117.689
1105.029, 6109.923
1105.511, 6101.248
1105.994, 6091.613
1106.476, 6073.947
1106.958, 6057.356
1107.440, 6064.317
1107.922, 6098.130
1108.404, 6130.122
1108.886, 6161.409
1109.368, 6169.434
1109.850, 6124.811
1110.333, 6077.907
1110.815, 6058.764
1111.297, 6055.422
1111.779, 6050.996
1112.261, 6046.784
1112.743, 6057.159
1113.225, 6097.840
1113.707, 6116.580
1114.189, 6091.467
1114.672, 6076.791
1115.154, 6085.989
1115.636, 6108.023
1116.118, 6144.490
1116.600, 6179.917
1117.082, 6184.294
1117.564, 6157.454
1118.046, 6125.000
1118.529, 6084.054
1119.011, 6051.907
1119.493, 6028.917
1119.975, 6029.318
1120.457, 6062.270
1120.939, 6098.946
1121.421, 6108.681
1121.903, 6102.326
1122.385, 6112.225
1122.868, 6131.778
1123.350, 6118.730
1123.832, 6079.904
1124.314, 6063.748
1124.796, 6078.375
1125.278, 6091.588
1125.760, 6084.769
1126.242, 6074.966
1126.724, 6085.336
1127.207, 6100.663
1127.689, 6097.174
1128.171, 6085.652
1128.653, 6085.836
1129.135, 6093.398
1129.617, 6089.548
1130.099, 6070.929
1130.581, 6057.778
1131.064, 6065.546
1131.546, 6071.630
1132.028, 6056.640
1132.510, 6044.384
1132.992, 6057.693
1133.474, 6078.293
1133.956, 6080.009
1134.438, 6067.950
1134.921, 6071.964
1135.403, 6106.290
1135.885, 6119.903
1136.367, 6086.877
1136.849, 6065.884
1137.331, 6078.997
1137.813, 6087.702
1138.295, 6063.853
1138.777, 6030.500
1139.260, 6021.423
1139.742, 6034.693
1140.224, 6055.171
1140.706, 6086.269
1141.188, 6096.459
1141.670, 6082.011
1142.152, 6064.014
1142.634, 6048.534
1143.116, 6044.054
1143.599, 6058.876
1144.081, 6079.852
1144.563, 6088.034
1145.045, 6082.535
1145.527, 6049.921
1146.009, 6002.982
1146.491, 5980.294
1146.973, 5984.463
1147.456, 6005.361
1147.938, 6037.110
1148.420, 6056.251
1148.902, 6037.215
1149.384, 6012.677
1149.866, 6010.907
1150.348, 6018.447
1150.830, 6021.604
1151.313, 6025.130
1151.795, 6043.622
1152.277, 6071.566
1152.759, 6079.224
1153.241, 6051.190
1153.723, 6035.681
1154.205, 6060.783
1154.687, 6075.966
1155.169, 6052.614
1155.651, 6029.874
1156.134, 6036.340
1156.616, 6054.091
1157.098, 6056.371
1157.580, 6044.918
1158.062, 6040.507
1158.544, 6044.590
1159.026, 6050.988
1159.508, 6061.798
1159.991, 6057.263
1160.473, 6028.846
1160.955, 6006.859
1161.437, 6014.398
1161.919, 6034.831
1162.401, 6039.337
1162.883, 6033.939
1163.365, 6039.809
1163.848, 6053.252
1164.330, 6065.120
1164.812, 6072.437
1165.294, 6069.183
1165.776, 6054.188
1166.258, 6034.807
1166.740, 6013.903
1167.222, 5995.467
1167.704, 5983.404
1168.187, 5974.630
1168.669, 5960.475
1169.151, 5952.419
1169.633, 5973.555
1170.115, 6012.087
1170.597, 6029.524
1171.079, 6015.949
1171.561, 6008.454
1172.043, 6016.715
1172.526, 6026.378
1173.008, 6044.203
1173.490, 6049.527
1173.972, 6024.852
1174.454, 5995.852
1174.936, 5989.540
1175.418, 6000.355
1175.900, 6009.503
1176.383, 6016.675
1176.865, 6030.050
1177.347, 6050.198
1177.829, 6047.935
1178.311, 6018.516
1178.793, 5992.568
1179.275, 5984.952
1179.757, 5990.806
1180.240, 6012.409
1180.722, 6030.561
1181.204, 6002.215
1181.686, 5956.377
1182.168, 5941.834
1182.650, 5950.961
1183.132, 5962.855
1183.614, 5973.689
1184.096, 5989.052
1184.578, 6012.387
1185.061, 6028.961
1185.543, 6035.995
1186.025, 6029.465
1186.507, 5992.021
1186.989, 5957.090
1187.471, 5946.036
1187.953, 5952.909
1188.435, 5974.017
1188.918, 6004.973
1189.400, 6018.179
1189.882, 6005.043
1190.364, 6006.838
1190.846, 6029.460
1191.328, 6040.625
1191.810, 6032.693
1192.292, 6014.084
1192.775, 5987.684
1193.257, 5968.615
1193.739, 5979.615
1194.221, 6005.925
1194.703, 6009.748
1195.185, 6000.234
1195.667, 6005.539
1196.149, 6018.983
1196.631, 6012.943
1197.114, 5987.132
1197.596, 5967.900
1198.078, 5967.175
1198.560, 5970.711
1199.042, 5971.729
1199.524, 5971.678
1200.006, 5972.882
1200.488, 5971.819
1200.970, 5962.103
1201.453, 5950.542
1201.935, 5948.345
1202.417, 5954.500
1202.899, 5955.592
1203.381, 5943.686
1203.863, 5956.306
1204.345, 6011.012
1204.827, 6029.019
1205.310, 5986.253
1205.792, 5942.199
1206.274, 5927.431
1206.756, 5934.125
1207.238, 5956.414
1207.720, 5986.771
1208.202, 6009.995
1208.684, 6024.536
1209.167, 6025.677
1209.649, 6013.873
1210.131, 5979.677
1210.613, 5933.218
1211.095, 5922.034
1211.577, 5965.732
1212.059, 6003.520
1212.541, 5991.195
1213.023, 5972.364
1213.505, 5969.075
1213.988, 5968.489
1214.470, 5955.017
1214.952, 5943.926
1215.434, 5965.754
1215.916, 6005.849
1216.398, 6005.590
1216.880, 5953.702
1217.362, 5933.942
1217.845, 5957.006
1218.327, 5964.306
1218.809, 5944.579
1219.291, 5933.357
1219.773, 5946.252
1220.255, 5959.949
1220.737, 5952.988
1221.219, 5934.993
1221.702, 5914.300
1222.184, 5900.284
1222.666, 5923.842
1223.148, 5963.698
1223.630, 5971.456
1224.112, 5954.543
1224.594, 5955.862
1225.076, 5983.779
1225.558, 5994.170
1226.041, 5950.243
1226.523, 5921.604
1227.005, 5949.367
1227.487, 5974.088
1227.969, 5966.424
1228.451, 5948.896
1228.933, 5933.881
1229.415, 5924.538
##END=



