##NAMES=Thaumasite
##RRUFFID=R060814
##IDEAL CHEMISTRY=Ca_3_Si(OH)_6_(S^6+^O_4_)(CO_3_)&#183;12H_2_O
##LOCALITY=Crestmore Quarry, Riverside County, Jurupa Mountains, California, USA
##OWNER=RRUFF
##SOURCE=Michael Scott
##DESCRIPTION=Mass of colorless acicular crystals associated with afwillite, R080022
##STATUS=The identification of this mineral has been confirmed only by single crystal X-ray diffraction.
##URL=rruff.info/R060814
156.0814, 59.43555
156.5635, 59.23859
157.0456, 59.20339
157.5278, 59.33189
158.0099, 59.58985
158.4920, 60.15862
158.9741, 60.77376
159.4562, 61.20282
159.9383, 61.20046
160.4205, 61.18004
160.9026, 61.30168
161.3847, 61.58325
161.8668, 61.83048
162.3489, 61.93682
162.8310, 61.98524
163.3132, 62.07209
163.7953, 62.10456
164.2774, 62.27907
164.7595, 62.78643
165.2416, 63.70198
165.7237, 64.50447
166.2059, 64.88496
166.6880, 65.00271
167.1701, 65.10011
167.6522, 65.26729
168.1343, 65.45861
168.6164, 65.64690
169.0986, 65.83229
169.5807, 66.00208
170.0628, 66.13662
170.5449, 66.25040
171.0270, 66.37038
171.5091, 66.48479
171.9913, 66.62520
172.4734, 66.84003
172.9555, 67.16156
173.4376, 67.47721
173.9197, 67.68462
174.4018, 67.80934
174.8840, 67.91771
175.3661, 68.06116
175.8482, 68.20470
176.3303, 68.29314
176.8124, 68.30098
177.2945, 68.29333
177.7767, 68.31131
178.2588, 68.36344
178.7409, 68.48547
179.2230, 68.74887
179.7051, 69.09214
180.1872, 69.40189
180.6694, 69.66557
181.1515, 69.88184
181.6336, 70.00505
182.1157, 70.05167
182.5978, 70.13857
183.0799, 70.45168
183.5621, 70.87761
184.0442, 71.06446
184.5263, 70.83842
185.0084, 70.49031
185.4905, 70.52671
185.9726, 70.93821
186.4547, 71.47466
186.9369, 72.06300
187.4190, 72.65266
187.9011, 72.98409
188.3832, 72.93930
188.8653, 72.67321
189.3474, 72.48689
189.8296, 72.37822
190.3117, 72.37216
190.7938, 72.52669
191.2759, 72.82397
191.7580, 73.11853
192.2401, 73.37032
192.7223, 73.60560
193.2044, 73.94214
193.6865, 74.40238
194.1686, 74.81120
194.6507, 74.95893
195.1328, 74.85880
195.6150, 74.80271
196.0971, 74.86790
196.5792, 75.02399
197.0613, 75.13702
197.5434, 75.18848
198.0255, 75.27854
198.5077, 75.58885
198.9898, 76.13834
199.4719, 76.44572
199.9540, 76.31545
200.4361, 75.84578
200.9182, 75.54047
201.4004, 75.39401
201.8825, 75.43838
202.3646, 75.80831
202.8467, 76.56062
203.3288, 77.13836
203.8109, 77.38831
204.2931, 77.33987
204.7752, 77.19091
205.2573, 76.88023
205.7394, 76.61576
206.2215, 76.65176
206.7036, 77.04569
207.1858, 77.44437
207.6679, 77.81651
208.1500, 78.14783
208.6321, 78.18475
209.1142, 77.85961
209.5963, 77.36767
210.0785, 76.88916
210.5606, 76.41185
211.0427, 76.01174
211.5248, 75.74100
212.0069, 75.59445
212.4890, 75.33866
212.9712, 74.98565
213.4533, 74.50417
213.9354, 73.84629
214.4175, 72.95902
214.8996, 72.03281
215.3817, 71.06191
215.8639, 70.05354
216.3460, 69.23679
216.8281, 68.69054
217.3102, 68.22735
217.7923, 67.62418
218.2744, 66.78470
218.7566, 66.04250
219.2387, 65.52474
219.7208, 65.23347
220.2029, 64.83028
220.6850, 64.27940
221.1671, 63.66264
221.6493, 63.04237
222.1314, 62.31127
222.6135, 61.82567
223.0956, 61.79112
223.5777, 62.24067
224.0598, 62.27575
224.5420, 61.76256
225.0241, 60.98524
225.5062, 60.19617
225.9883, 59.31239
226.4704, 58.61036
226.9525, 58.21482
227.4347, 58.13676
227.9168, 57.94824
228.3989, 57.59340
228.8810, 57.18795
229.3631, 56.87397
229.8452, 56.74758
230.3274, 56.50928
230.8095, 56.04243
231.2916, 55.33247
231.7737, 54.82268
232.2558, 54.62772
232.7379, 54.51410
233.2201, 54.23732
233.7022, 53.68464
234.1843, 53.19590
234.6664, 52.87811
235.1485, 52.73789
235.6306, 52.45283
236.1128, 51.93083
236.5949, 51.35390
237.0770, 50.90944
237.5591, 50.72686
238.0412, 50.41872
238.5233, 49.84290
239.0055, 48.99762
239.4876, 48.41484
239.9697, 48.21214
240.4518, 48.13845
240.9339, 47.98992
241.4160, 47.79279
241.8982, 47.46059
242.3803, 46.89431
242.8624, 46.10576
243.3445, 45.62059
243.8266, 45.64211
244.3087, 45.73197
244.7909, 45.49219
245.2730, 44.65270
245.7551, 44.03398
246.2372, 43.84092
246.7193, 44.03028
247.2014, 43.98781
247.6836, 43.54156
248.1657, 43.07032
248.6478, 42.91246
249.1299, 43.34256
249.6120, 43.47884
250.0941, 43.14341
250.5762, 42.39408
251.0584, 41.67472
251.5405, 40.95581
252.0226, 40.31556
252.5047, 39.83193
252.9868, 39.57387
253.4689, 39.30448
253.9511, 38.99654
254.4332, 38.65699
254.9153, 38.34181
255.3974, 38.09577
255.8795, 37.80770
256.3617, 37.39014
256.8438, 36.75219
257.3259, 36.22439
257.8080, 35.87751
258.2901, 35.65749
258.7722, 35.31966
259.2544, 34.76450
259.7365, 34.25629
260.2186, 33.95846
260.7007, 33.97382
261.1828, 33.88824
261.6649, 33.62836
262.1471, 33.26953
262.6292, 33.05069
263.1113, 33.05184
263.5934, 33.03190
264.0755, 32.84987
264.5576, 32.43869
265.0398, 32.09808
265.5219, 31.83636
266.0040, 31.64611
266.4861, 31.52029
266.9682, 31.49392
267.4503, 31.44803
267.9325, 31.32739
268.4146, 31.11706
268.8967, 30.89216
269.3788, 30.64475
269.8609, 30.39181
270.3430, 30.17779
270.8252, 30.01959
271.3073, 29.84521
271.7894, 29.61891
272.2715, 29.33282
272.7536, 29.06780
273.2357, 28.80887
273.7179, 28.59592
274.2000, 28.51186
274.6821, 28.58953
275.1642, 28.64988
275.6463, 28.62239
276.1284, 28.50666
276.6106, 28.40392
277.0927, 28.31129
277.5748, 28.23777
278.0569, 28.21893
278.5390, 28.26950
279.0211, 28.25224
279.5032, 28.08537
279.9854, 27.79751
280.4675, 27.65798
280.9496, 27.70370
281.4317, 27.77529
281.9138, 27.68924
282.3959, 27.43983
282.8781, 27.18496
283.3602, 26.93472
283.8423, 26.71392
284.3244, 26.65905
284.8065, 26.78833
285.2886, 26.96407
285.7708, 27.07232
286.2529, 27.11507
286.7350, 27.13124
287.2171, 27.12645
287.6992, 27.10138
288.1813, 27.06969
288.6635, 27.03337
289.1456, 26.95129
289.6277, 26.74783
290.1098, 26.44769
290.5919, 26.23428
291.0740, 26.15858
291.5562, 26.14616
292.0383, 26.03108
292.5204, 25.81899
293.0025, 25.65027
293.4846, 25.63354
293.9667, 25.73649
294.4489, 25.87269
294.9310, 26.06180
295.4131, 26.20120
295.8952, 26.05519
296.3773, 25.67475
296.8594, 25.38186
297.3416, 25.45703
297.8237, 25.73949
298.3058, 25.84955
298.7879, 25.74387
299.2700, 25.55599
299.7521, 25.41577
300.2343, 25.31787
300.7164, 25.25264
301.1985, 25.24742
301.6806, 25.26018
302.1627, 25.20119
302.6448, 25.05999
303.1270, 24.94945
303.6091, 25.00669
304.0912, 25.16955
304.5733, 25.31168
305.0554, 25.37443
305.5375, 25.39320
306.0197, 25.42095
306.5018, 25.45419
306.9839, 25.42921
307.4660, 25.21317
307.9481, 24.92953
308.4302, 24.75875
308.9124, 24.84357
309.3945, 24.97366
309.8766, 24.94481
310.3587, 24.79115
310.8408, 24.69390
311.3229, 24.81814
311.8051, 25.02869
312.2872, 25.19551
312.7693, 25.31862
313.2514, 25.34377
313.7335, 25.14371
314.2156, 24.80325
314.6978, 24.56768
315.1799, 24.63417
315.6620, 24.79582
316.1441, 24.91976
316.6262, 25.00184
317.1083, 24.99874
317.5905, 24.77169
318.0726, 24.45978
318.5547, 24.30307
319.0368, 24.60144
319.5189, 24.90621
320.0010, 24.95810
320.4832, 24.67278
320.9653, 24.45914
321.4474, 24.50237
321.9295, 24.65511
322.4116, 24.74492
322.8937, 24.65208
323.3759, 24.57123
323.8580, 24.57654
324.3401, 24.67635
324.8222, 24.73794
325.3043, 24.75566
325.7864, 24.72105
326.2686, 24.62761
326.7507, 24.37567
327.2328, 24.17441
327.7149, 24.06671
328.1970, 24.04570
328.6791, 24.02228
329.1613, 23.94779
329.6434, 23.90731
330.1255, 23.94757
330.6076, 24.18335
331.0897, 24.33378
331.5718, 24.37806
332.0540, 24.33383
332.5361, 24.24965
333.0182, 24.10184
333.5003, 23.94315
333.9824, 23.77846
334.4645, 23.55963
334.9467, 23.49142
335.4288, 23.65202
335.9109, 23.90847
336.3930, 24.02697
336.8751, 23.93499
337.3572, 23.88163
337.8394, 23.98190
338.3215, 24.24954
338.8036, 24.30666
339.2857, 24.06904
339.7678, 23.76715
340.2499, 23.66236
340.7321, 23.78965
341.2142, 23.91229
341.6963, 23.96147
342.1784, 23.96583
342.6605, 24.09518
343.1426, 24.38293
343.6248, 24.63299
344.1069, 24.62365
344.5890, 24.37085
345.0711, 24.25574
345.5532, 24.35999
346.0353, 24.59500
346.5175, 24.80047
346.9996, 24.97779
347.4817, 25.10830
347.9638, 25.15787
348.4459, 25.14822
348.9280, 25.14884
349.4102, 25.15896
349.8923, 25.20401
350.3744, 25.33215
350.8565, 25.52747
351.3386, 25.73188
351.8207, 25.94599
352.3029, 26.14063
352.7850, 26.24122
353.2671, 26.24637
353.7492, 26.27584
354.2313, 26.49608
354.7134, 26.80352
355.1956, 27.01477
355.6777, 26.99685
356.1598, 26.92321
356.6419, 26.93877
357.1240, 27.03758
357.6061, 27.18721
358.0883, 27.41994
358.5704, 27.67011
359.0525, 27.86642
359.5346, 27.97419
360.0167, 28.06597
360.4988, 28.15012
360.9810, 28.24742
361.4631, 28.40356
361.9452, 28.69570
362.4273, 29.00747
362.9094, 29.26657
363.3915, 29.45024
363.8737, 29.64977
364.3558, 29.95908
364.8379, 30.27685
365.3200, 30.48284
365.8021, 30.42435
366.2842, 30.37468
366.7664, 30.44065
367.2485, 30.62644
367.7306, 30.73462
368.2127, 30.63912
368.6948, 30.52378
369.1769, 30.51016
369.6591, 30.73486
370.1412, 30.90005
370.6233, 30.99236
371.1054, 31.01648
371.5875, 30.98942
372.0696, 30.91621
372.5518, 30.78566
373.0339, 30.57210
373.5160, 30.20404
373.9981, 29.97186
374.4802, 29.96499
374.9623, 30.01971
375.4445, 29.83554
375.9266, 29.28241
376.4087, 28.85028
376.8908, 28.71708
377.3729, 28.87047
377.8550, 28.97218
378.3372, 29.02589
378.8193, 29.01576
379.3014, 28.88453
379.7835, 28.62176
380.2656, 28.45820
380.7477, 28.47019
381.2299, 28.57782
381.7120, 28.57946
382.1941, 28.47346
382.6762, 28.33315
383.1583, 28.18492
383.6404, 28.03823
384.1226, 27.94791
384.6047, 27.93163
385.0868, 27.92637
385.5689, 27.82198
386.0510, 27.65104
386.5331, 27.53407
387.0153, 27.54880
387.4974, 27.64202
387.9795, 27.77015
388.4616, 27.93176
388.9437, 28.03590
389.4258, 27.92741
389.9080, 27.73893
390.3901, 27.66774
390.8722, 27.85427
391.3543, 28.08187
391.8364, 28.17416
392.3185, 28.16871
392.8007, 28.20747
393.2828, 28.50113
393.7649, 28.77197
394.2470, 28.77227
394.7291, 28.31866
395.2112, 27.99853
395.6934, 28.14075
396.1755, 28.51828
396.6576, 28.79162
397.1397, 28.72745
397.6218, 28.69011
398.1039, 28.85314
398.5861, 29.25330
399.0682, 29.48310
399.5503, 29.30790
400.0324, 29.06508
400.5145, 29.00773
400.9966, 29.35366
401.4788, 29.57802
401.9609, 29.58137
402.4430, 29.43161
402.9251, 29.39327
403.4072, 29.50664
403.8893, 29.67181
404.3714, 29.86125
404.8535, 30.10332
405.3357, 30.25187
405.8178, 30.28695
406.2999, 30.25294
406.7820, 30.16811
407.2641, 29.99681
407.7462, 29.99162
408.2284, 30.30379
408.7105, 30.84215
409.1926, 31.15336
409.6747, 31.21519
410.1568, 31.21540
410.6389, 31.29352
411.1211, 31.44375
411.6032, 31.64418
412.0853, 31.90665
412.5674, 32.18917
413.0495, 32.48080
413.5316, 32.76315
414.0138, 32.93623
414.4959, 32.76239
414.9780, 32.51313
415.4601, 32.70055
415.9422, 33.38308
416.4243, 34.00698
416.9065, 33.94721
417.3886, 33.57823
417.8707, 33.46288
418.3528, 34.09474
418.8349, 34.75497
419.3170, 34.92795
419.7992, 34.71187
420.2813, 34.56279
420.7634, 34.77599
421.2455, 35.06015
421.7276, 35.19981
422.2097, 35.05993
422.6919, 35.02312
423.1740, 35.30331
423.6561, 35.71747
424.1382, 35.99168
424.6203, 35.92067
425.1024, 35.86262
425.5846, 35.91358
426.0667, 36.08070
426.5488, 36.23524
427.0309, 36.40393
427.5130, 36.53811
427.9951, 36.58164
428.4773, 36.40409
428.9594, 36.43848
429.4415, 36.81507
429.9236, 37.37341
430.4057, 37.68522
430.8878, 37.67070
431.3700, 37.65050
431.8521, 37.76014
432.3342, 37.99982
432.8163, 38.28539
433.2984, 38.63219
433.7805, 38.97313
434.2627, 39.23700
434.7448, 39.42659
435.2269, 39.55516
435.7090, 39.58375
436.1911, 39.59962
436.6732, 39.79765
437.1554, 40.16084
437.6375, 40.54999
438.1196, 40.88239
438.6017, 41.17683
439.0838, 41.42846
439.5659, 41.61224
440.0481, 41.89497
440.5302, 42.53986
441.0123, 43.36447
441.4944, 44.06276
441.9765, 44.44572
442.4586, 44.71722
442.9408, 44.94926
443.4229, 45.15499
443.9050, 45.43606
444.3871, 45.93677
444.8692, 46.45656
445.3513, 46.85316
445.8335, 47.00813
446.3156, 47.21360
446.7977, 47.54300
447.2798, 47.95046
447.7619, 48.35674
448.2440, 48.92929
448.7262, 49.30214
449.2083, 49.28092
449.6904, 48.82965
450.1725, 48.75235
450.6546, 49.33521
451.1367, 49.93603
451.6189, 50.00713
452.1010, 49.32653
452.5831, 48.90194
453.0652, 48.92976
453.5473, 49.15199
454.0294, 48.92472
454.5116, 48.18734
454.9937, 47.48460
455.4758, 47.13283
455.9579, 47.04400
456.4400, 46.68176
456.9221, 46.02132
457.4043, 45.28959
457.8864, 44.72540
458.3685, 44.26758
458.8506, 43.70574
459.3327, 42.94316
459.8148, 42.13834
460.2970, 41.47976
460.7791, 40.93438
461.2612, 40.41415
461.7433, 39.92537
462.2254, 39.40363
462.7076, 38.76474
463.1897, 37.98172
463.6718, 37.25785
464.1539, 36.74142
464.6360, 36.32233
465.1181, 35.90035
465.6003, 35.38308
466.0824, 34.93118
466.5645, 34.69760
467.0466, 34.59180
467.5287, 34.26653
468.0108, 33.30665
468.4930, 32.46423
468.9751, 32.06247
469.4572, 32.28609
469.9393, 32.25340
470.4214, 31.81085
470.9035, 31.25134
471.3857, 30.90257
471.8678, 30.83385
472.3499, 30.75686
472.8320, 30.62384
473.3141, 30.44491
473.7962, 30.26562
474.2784, 30.09463
474.7605, 29.86313
475.2426, 29.46517
475.7247, 28.94570
476.2068, 28.59597
476.6889, 28.43513
477.1711, 28.37476
477.6532, 28.36537
478.1353, 28.38182
478.6174, 28.35122
479.0995, 28.22387
479.5816, 28.06812
480.0638, 27.97733
480.5459, 27.92959
481.0280, 27.84511
481.5101, 27.58423
481.9922, 27.32780
482.4743, 27.26969
482.9565, 27.48178
483.4386, 27.59277
483.9207, 27.37307
484.4028, 27.00886
484.8849, 26.69454
485.3670, 26.45981
485.8492, 26.29476
486.3313, 26.24197
486.8134, 26.27395
487.2955, 26.24820
487.7776, 26.14020
488.2597, 26.00510
488.7419, 25.84068
489.2240, 25.61306
489.7061, 25.55073
490.1882, 25.73781
490.6703, 25.96627
491.1524, 25.95768
491.6346, 25.66264
492.1167, 25.53420
492.5988, 25.72723
493.0809, 26.07188
493.5630, 26.08620
494.0451, 25.78092
494.5273, 25.50326
495.0094, 25.49030
495.4915, 25.64740
495.9736, 25.78510
496.4557, 25.89689
496.9378, 25.93599
497.4200, 25.78824
497.9021, 25.55745
498.3842, 25.40790
498.8663, 25.42215
499.3484, 25.48016
499.8305, 25.51938
500.3127, 25.54420
500.7948, 25.56535
501.2769, 25.58294
501.7590, 25.60171
502.2411, 25.62152
502.7232, 25.64115
503.2054, 25.67303
503.6875, 25.77714
504.1696, 25.85608
504.6517, 25.83036
505.1338, 25.58872
505.6159, 25.43851
506.0981, 25.41905
506.5802, 25.49132
507.0623, 25.57273
507.5444, 25.67021
508.0265, 25.75759
508.5086, 25.83034
508.9908, 25.88671
509.4729, 25.90464
509.9550, 25.88015
510.4371, 25.84891
510.9192, 25.84770
511.4013, 25.86743
511.8835, 25.85291
512.3655, 25.76944
512.8477, 25.73632
513.3298, 25.95222
513.8119, 26.32953
514.2940, 26.65945
514.7761, 26.89731
515.2582, 27.01297
515.7404, 26.91070
516.2225, 26.62636
516.7046, 26.41651
517.1867, 26.42293
517.6688, 26.52250
518.1509, 26.63946
518.6331, 26.76145
519.1152, 26.90430
519.5973, 27.13440
520.0794, 27.36025
520.5615, 27.46120
521.0436, 27.33010
521.5258, 27.24024
522.0079, 27.23903
522.4900, 27.31203
522.9721, 27.38495
523.4542, 27.44232
523.9363, 27.53986
524.4185, 27.72919
524.9006, 28.01029
525.3827, 28.22591
525.8648, 28.36750
526.3469, 28.49458
526.8290, 28.68786
527.3112, 28.92566
527.7933, 29.12241
528.2754, 29.24727
528.7575, 29.34695
529.2396, 29.47014
529.7217, 29.61530
530.2039, 29.77463
530.6860, 29.91937
531.1681, 30.09650
531.6502, 30.36242
532.1323, 30.71805
532.6144, 31.05994
533.0966, 31.36701
533.5787, 31.63511
534.0608, 31.86856
534.5429, 32.10256
535.0250, 32.23690
535.5071, 32.08579
535.9893, 31.89559
536.4714, 32.05913
536.9535, 32.83704
537.4356, 33.45834
537.9177, 33.70626
538.3998, 33.65025
538.8820, 33.69635
539.3641, 33.85196
539.8462, 34.07079
540.3283, 34.37218
540.8104, 34.73036
541.2925, 34.94179
541.7747, 34.97832
542.2568, 34.99166
542.7389, 35.16933
543.2210, 35.44844
543.7031, 35.68942
544.1852, 35.88130
544.6674, 35.97592
545.1495, 35.82273
545.6316, 35.52925
546.1137, 35.36395
546.5958, 35.62782
547.0779, 35.89931
547.5601, 35.94396
548.0422, 35.74412
548.5243, 35.51814
549.0064, 35.25997
549.4885, 35.02685
549.9706, 34.85668
550.4528, 34.79173
550.9349, 34.71564
551.4170, 34.66693
551.8991, 34.57478
552.3812, 34.29669
552.8633, 33.76182
553.3455, 33.33508
553.8276, 33.13082
554.3097, 33.08011
554.7918, 32.96963
555.2739, 32.80148
555.7560, 32.60805
556.2382, 32.39172
556.7203, 32.16829
557.2024, 31.99628
557.6845, 31.88120
558.1666, 31.71805
558.6487, 31.30787
559.1309, 30.83999
559.6130, 30.58425
560.0951, 30.71936
560.5772, 30.84936
561.0593, 30.75097
561.5414, 30.52417
562.0236, 30.34735
562.5057, 30.31102
562.9878, 30.27785
563.4699, 30.19165
563.9520, 30.06193
564.4341, 29.99754
564.9163, 30.03629
565.3984, 30.08680
565.8805, 30.10303
566.3626, 30.07740
566.8447, 30.06771
567.3268, 30.08181
567.8090, 30.08955
568.2911, 30.04349
568.7732, 29.95140
569.2553, 29.88329
569.7374, 29.84841
570.2195, 29.85324
570.7017, 29.91302
571.1838, 30.02097
571.6659, 30.15333
572.1480, 30.36939
572.6301, 30.55461
573.1122, 30.58082
573.5944, 30.46612
574.0765, 30.37378
574.5586, 30.36339
575.0407, 30.40692
575.5228, 30.49822
576.0049, 30.66439
576.4871, 30.79753
576.9692, 30.86172
577.4513, 30.90759
577.9334, 30.99574
578.4155, 31.18887
578.8976, 31.25559
579.3798, 31.10183
579.8619, 30.85919
580.3440, 30.89010
580.8261, 31.21920
581.3082, 31.50174
581.7903, 31.54821
582.2725, 31.45376
582.7546, 31.49690
583.2367, 31.66986
583.7188, 31.88016
584.2009, 32.08780
584.6830, 32.27850
585.1652, 32.42216
585.6473, 32.50684
586.1294, 32.60221
586.6115, 32.80042
587.0936, 33.00933
587.5757, 33.12923
588.0579, 33.02510
588.5400, 32.95886
589.0221, 33.02185
589.5042, 33.15064
589.9863, 33.18622
590.4684, 32.98517
590.9506, 32.93068
591.4327, 33.18931
591.9148, 33.70688
592.3969, 33.98096
592.8790, 33.97062
593.3611, 33.89380
593.8433, 33.88027
594.3254, 33.92006
594.8075, 33.94080
595.2896, 33.93342
595.7717, 33.97301
596.2538, 34.20502
596.7360, 34.52251
597.2181, 34.71633
597.7002, 34.66319
598.1823, 34.62059
598.6644, 34.78786
599.1465, 35.07802
599.6287, 35.34267
600.1108, 35.54808
600.5929, 35.70295
601.0750, 35.79968
601.5571, 35.84086
602.0392, 35.86226
602.5214, 35.85020
603.0035, 35.83773
603.4856, 35.84499
603.9677, 35.87606
604.4498, 35.84718
604.9319, 35.73089
605.4141, 35.63795
605.8962, 35.70587
606.3783, 35.90539
606.8604, 36.03781
607.3425, 36.07710
607.8246, 36.05390
608.3068, 35.98318
608.7889, 35.87856
609.2710, 35.76688
609.7531, 35.60449
610.2352, 35.50145
610.7173, 35.55318
611.1995, 35.72306
611.6816, 35.90992
612.1637, 36.19963
612.6458, 36.38976
613.1279, 36.35478
613.6100, 36.08281
614.0922, 35.91571
614.5743, 35.94300
615.0564, 35.95530
615.5385, 35.80336
616.0206, 35.42663
616.5027, 35.24943
616.9849, 35.30377
617.4670, 35.46117
617.9491, 35.63121
618.4312, 35.79266
618.9133, 35.79731
619.3954, 35.55676
619.8776, 35.30614
620.3597, 35.37469
620.8418, 35.64787
621.3239, 35.86792
621.8060, 35.93571
622.2881, 35.91418
622.7703, 35.76587
623.2524, 35.53865
623.7345, 35.42476
624.2166, 35.56187
624.6987, 35.73927
625.1808, 35.87988
625.6630, 35.98153
626.1451, 36.07134
626.6272, 36.14655
627.1093, 36.21479
627.5914, 36.27703
628.0735, 36.33162
628.5557, 36.42013
629.0378, 36.56203
629.5199, 36.66925
630.0020, 36.52303
630.4841, 36.24535
630.9662, 36.24813
631.4484, 36.72687
631.9305, 37.32413
632.4126, 37.75316
632.8947, 38.03943
633.3768, 38.24367
633.8589, 38.18382
634.3411, 38.24930
634.8232, 38.65798
635.3053, 39.35993
635.7874, 40.04442
636.2695, 40.68544
636.7516, 41.28700
637.2338, 41.80827
637.7159, 42.24284
638.1980, 42.86140
638.6801, 43.72508
639.1622, 44.60377
639.6443, 45.25123
640.1265, 45.70789
640.6086, 46.43168
641.0907, 47.48719
641.5728, 48.59654
642.0549, 49.38653
642.5370, 50.04067
643.0192, 50.94322
643.5013, 52.33711
643.9834, 53.72406
644.4655, 54.73139
644.9476, 55.53399
645.4297, 56.46882
645.9119, 57.79753
646.3940, 59.07097
646.8761, 60.08603
647.3582, 60.94267
647.8403, 62.00299
648.3224, 63.41533
648.8046, 64.75720
649.2867, 65.80643
649.7688, 66.63024
650.2509, 67.91283
650.7330, 69.72837
651.2151, 71.32884
651.6973, 72.04350
652.1794, 72.15316
652.6615, 72.31544
653.1436, 72.59023
653.6257, 72.71486
654.1078, 72.44129
654.5900, 71.92613
655.0721, 71.37522
655.5542, 71.03893
656.0363, 70.23674
656.5184, 68.42899
657.0005, 66.17561
657.4827, 64.20570
657.9648, 62.92653
658.4469, 61.29972
658.9290, 59.09201
659.4111, 56.52738
659.8932, 54.13182
660.3754, 51.91600
660.8575, 49.77473
661.3396, 47.66274
661.8217, 45.60283
662.3038, 43.60204
662.7859, 41.68009
663.2681, 39.97294
663.7502, 38.56610
664.2323, 37.41776
664.7144, 36.57137
665.1965, 36.01136
665.6786, 35.35452
666.1608, 34.21805
666.6429, 33.09519
667.1250, 32.31247
667.6071, 32.03655
668.0892, 31.74303
668.5714, 31.41523
669.0535, 31.08571
669.5356, 30.79035
670.0177, 30.53382
670.4998, 30.27518
670.9819, 30.01626
671.4641, 29.74039
671.9462, 29.37560
672.4283, 28.96569
672.9104, 28.66827
673.3925, 28.58624
673.8746, 28.54115
674.3568, 28.32578
674.8389, 28.01230
675.3210, 27.75685
675.8031, 27.68483
676.2852, 27.62327
676.7673, 27.49134
677.2495, 27.30284
677.7316, 27.15552
678.2137, 27.04335
678.6958, 26.98595
679.1779, 27.01723
679.6600, 27.12998
680.1422, 27.12244
680.6243, 26.97070
681.1064, 26.83918
681.5885, 26.89625
682.0706, 27.06463
682.5527, 27.07567
683.0349, 26.91261
683.5170, 26.71697
683.9991, 26.54811
684.4812, 26.43269
684.9633, 26.40929
685.4454, 26.51215
685.9276, 26.62270
686.4097, 26.76275
686.8918, 26.86120
687.3739, 26.83571
687.8560, 26.62387
688.3381, 26.38738
688.8203, 26.06565
689.3024, 25.78300
689.7845, 25.81258
690.2666, 26.18710
690.7487, 26.40173
691.2308, 26.26086
691.7130, 25.98826
692.1951, 26.00430
692.6772, 26.23535
693.1593, 26.41388
693.6414, 26.38634
694.1235, 26.27417
694.6057, 26.13860
695.0878, 25.99117
695.5699, 25.86957
696.0520, 25.78275
696.5341, 25.72833
697.0162, 25.71550
697.4984, 25.74336
697.9805, 25.76143
698.4626, 25.77003
698.9447, 25.76943
699.4268, 25.75991
699.9089, 25.74166
700.3911, 25.71600
700.8732, 25.68336
701.3553, 25.63863
701.8374, 25.54371
702.3195, 25.44328
702.8016, 25.43854
703.2838, 25.56003
703.7659, 25.64671
704.2480, 25.57444
704.7301, 25.43265
705.2122, 25.30322
705.6943, 25.17897
706.1765, 25.10646
706.6586, 25.09565
707.1407, 25.12958
707.6228, 25.19973
708.1049, 25.32462
708.5870, 25.40714
709.0692, 25.42540
709.5513, 25.40799
710.0334, 25.41748
710.5155, 25.44114
710.9976, 25.40664
711.4797, 25.25040
711.9618, 25.07740
712.4439, 25.01323
712.9260, 25.01854
713.4081, 24.99666
713.8903, 24.81797
714.3724, 24.69786
714.8545, 24.77112
715.3366, 24.99800
715.8187, 25.10494
716.3008, 25.01645
716.7830, 24.93935
717.2651, 24.95734
717.7472, 25.05276
718.2293, 25.06162
718.7114, 24.97738
719.1935, 24.91798
719.6757, 25.01447
720.1578, 25.16920
720.6399, 25.15849
721.1220, 24.98821
721.6041, 24.86948
722.0862, 25.03389
722.5684, 25.23766
723.0505, 25.26071
723.5326, 25.00831
724.0147, 24.92484
724.4968, 25.26668
724.9789, 25.62977
725.4611, 25.75678
725.9432, 25.58063
726.4253, 25.41928
726.9074, 25.27314
727.3895, 25.14311
727.8716, 24.99885
728.3538, 24.86503
728.8359, 24.86710
729.3180, 25.04976
729.8001, 25.25855
730.2822, 25.37898
730.7643, 25.43155
731.2465, 25.43937
731.7286, 25.38960
732.2107, 25.32606
732.6928, 25.22590
733.1749, 25.13098
733.6570, 25.10470
734.1392, 25.16963
734.6213, 25.25464
735.1034, 25.35819
735.5855, 25.46713
736.0676, 25.56876
736.5497, 25.66005
737.0319, 25.69157
737.5140, 25.61955
737.9961, 25.51825
738.4782, 25.47402
738.9603, 25.47934
739.4424, 25.51452
739.9246, 25.62217
740.4067, 25.70714
740.8888, 25.68886
741.3709, 25.60062
741.8530, 25.60937
742.3351, 25.86428
742.8173, 25.98926
743.2994, 25.81254
743.7815, 25.41854
744.2636, 25.28795
744.7457, 25.43592
745.2278, 25.63684
745.7100, 25.77770
746.1921, 25.87758
746.6742, 25.97176
747.1563, 26.05793
747.6384, 26.11809
748.1205, 26.03997
748.6027, 26.01441
749.0848, 26.24720
749.5669, 26.76153
750.0490, 27.06473
750.5311, 26.93295
751.0132, 26.76217
751.4954, 26.72910
751.9775, 26.84374
752.4596, 26.95995
752.9417, 27.08026
753.4238, 27.19625
753.9059, 27.30997
754.3881, 27.41544
754.8702, 27.49900
755.3523, 27.55898
755.8344, 27.60519
756.3165, 27.67578
756.7986, 27.71615
757.2808, 27.64807
757.7629, 27.39741
758.2450, 27.27659
758.7271, 27.44340
759.2092, 27.66781
759.6913, 27.79293
760.1735, 27.78758
760.6556, 27.81338
761.1377, 27.88373
761.6198, 27.95388
762.1019, 27.94795
762.5840, 27.89925
763.0662, 27.95012
763.5483, 28.15600
764.0304, 28.28642
764.5125, 28.02069
764.9946, 27.62652
765.4767, 27.42521
765.9589, 27.64871
766.4410, 27.78181
766.9231, 27.65127
767.4052, 27.44476
767.8873, 27.36795
768.3694, 27.47562
768.8516, 27.50096
769.3337, 27.40542
769.8158, 27.24344
770.2979, 27.06896
770.7800, 26.89250
771.2621, 26.76731
771.7443, 26.74676
772.2264, 26.68339
772.7085, 26.33446
773.1906, 25.89512
773.6727, 25.65654
774.1548, 25.95498
774.6370, 26.14679
775.1191, 26.05239
775.6012, 25.82533
776.0833, 25.70774
776.5654, 25.72707
777.0475, 25.73432
777.5297, 25.69173
778.0118, 25.64177
778.4939, 25.71032
778.9760, 25.84775
779.4581, 25.85739
779.9402, 25.58075
780.4224, 25.27801
780.9045, 25.17114
781.3866, 25.18549
781.8687, 25.18256
782.3508, 25.07516
782.8329, 25.00898
783.3151, 25.05097
783.7972, 25.13538
784.2793, 25.10295
784.7614, 24.93029
785.2435, 24.76150
785.7256, 24.61054
786.2078, 24.52020
786.6899, 24.66337
787.1720, 24.96272
787.6541, 25.12778
788.1362, 24.96462
788.6183, 24.69163
789.1005, 24.37011
789.5826, 24.05168
790.0647, 23.87428
790.5468, 23.89287
791.0289, 24.04573
791.5110, 24.44812
791.9932, 24.93836
792.4753, 24.90885
792.9574, 24.28461
793.4395, 23.82081
793.9216, 23.83871
794.4037, 24.10986
794.8859, 24.24947
795.3680, 24.27614
795.8501, 24.24223
796.3322, 24.10251
796.8143, 23.97737
797.2964, 23.93936
797.7786, 23.97138
798.2607, 24.01726
798.7428, 24.15690
799.2249, 24.16666
799.7070, 23.91571
800.1891, 23.52991
800.6713, 23.47774
801.1534, 23.76483
801.6355, 24.02196
802.1176, 24.09624
802.5997, 24.05137
803.0818, 23.92172
803.5640, 23.74494
804.0461, 23.63538
804.5282, 23.67141
805.0103, 23.75847
805.4924, 23.88965
805.9745, 24.04469
806.4567, 24.14724
806.9388, 24.19135
807.4209, 24.18959
807.9030, 24.13221
808.3851, 24.03944
808.8672, 23.96123
809.3494, 23.89944
809.8315, 23.87354
810.3136, 23.92884
810.7957, 23.99148
811.2778, 23.96857
811.7599, 23.88973
812.2421, 23.83817
812.7242, 23.86999
813.2063, 23.90453
813.6884, 23.93617
814.1705, 23.95132
814.6526, 23.89408
815.1348, 23.74187
815.6169, 23.60653
816.0990, 23.51604
816.5811, 23.46924
817.0632, 23.48658
817.5453, 23.55164
818.0275, 23.59701
818.5096, 23.59310
818.9917, 23.55606
819.4738, 23.46303
819.9559, 23.34399
820.4380, 23.28000
820.9202, 23.31419
821.4023, 23.37652
821.8844, 23.48960
822.3665, 23.60518
822.8486, 23.21725
823.3307, 23.60234
823.8129, 23.80991
824.2950, 23.84951
824.7771, 23.21801
825.2592, 23.45309
825.7413, 23.34089
826.2234, 23.21444
826.7056, 23.57149
827.1877, 23.03760
827.6698, 23.38698
828.1519, 23.38377
828.6340, 23.54194
829.1161, 23.35067
829.5983, 23.26733
830.0804, 23.53353
830.5625, 23.60619
831.0446, 23.37470
831.5267, 23.54312
832.0089, 22.99702
832.4910, 23.07792
832.9731, 23.42935
833.4552, 23.00617
833.9373, 22.82163
834.4194, 22.74528
834.9016, 22.95158
835.3837, 23.09812
835.8658, 23.11209
836.3479, 23.06861
836.8300, 23.11675
837.3121, 23.28407
837.7943, 23.21972
838.2764, 22.78552
838.7585, 22.33051
839.2406, 22.39661
839.7227, 22.78542
840.2048, 23.09598
840.6870, 23.20226
841.1691, 23.25231
841.6512, 23.35541
842.1333, 23.42359
842.6154, 23.33315
843.0975, 22.92850
843.5797, 22.71938
844.0618, 22.77765
844.5439, 22.93869
845.0260, 23.03792
845.5081, 23.07181
845.9902, 22.98290
846.4724, 22.73677
846.9545, 22.53700
847.4366, 22.64300
847.9187, 22.84848
848.4008, 22.91404
848.8829, 22.72084
849.3651, 22.60385
849.8472, 22.67674
850.3293, 22.76527
850.8114, 22.71247
851.2935, 22.48986
851.7756, 22.44446
852.2578, 22.60821
852.7399, 22.78779
853.2220, 22.78774
853.7041, 22.69665
854.1862, 22.64151
854.6683, 22.63655
855.1505, 22.68251
855.6326, 22.87449
856.1147, 23.04051
856.5968, 23.05641
857.0789, 22.90608
857.5610, 22.76454
858.0432, 22.62646
858.5253, 22.51609
859.0074, 22.43984
859.4895, 22.40466
859.9716, 22.45880
860.4537, 22.59331
860.9359, 22.71121
861.4180, 22.73485
861.9001, 22.73370
862.3822, 22.73871
862.8643, 22.75533
863.3464, 22.84510
863.8286, 23.13768
864.3107, 23.28760
864.7928, 23.13187
865.2749, 22.74414
865.7570, 22.41261
866.2391, 22.14144
866.7213, 22.04770
867.2034, 22.35459
867.6855, 22.73680
868.1676, 22.80784
868.6497, 22.66744
869.1318, 22.59914
869.6140, 22.81614
870.0961, 22.96939
870.5782, 22.94286
871.0603, 22.80880
871.5424, 22.73562
872.0245, 22.72348
872.5067, 22.78744
872.9888, 22.97888
873.4709, 23.15620
873.9530, 23.03823
874.4351, 22.74887
874.9172, 22.56273
875.3994, 22.64663
875.8815, 22.73268
876.3636, 22.68450
876.8457, 22.59849
877.3278, 22.61921
877.8099, 22.81268
878.2921, 22.89896
878.7742, 22.82490
879.2563, 22.71059
879.7384, 22.71853
880.2205, 22.80902
880.7026, 22.87925
881.1848, 22.91635
881.6669, 22.90059
882.1490, 22.75014
882.6311, 22.58351
883.1132, 22.50337
883.5953, 22.52881
884.0775, 22.63631
884.5596, 22.88239
885.0417, 23.10349
885.5238, 23.16305
886.0059, 23.08265
886.4880, 22.96862
886.9702, 22.82695
887.4523, 22.72399
887.9344, 22.73559
888.4165, 22.78777
888.8986, 22.85007
889.3807, 22.91732
889.8629, 22.86406
890.3450, 22.55773
890.8271, 22.30064
891.3092, 22.21012
891.7913, 22.26127
892.2734, 22.34841
892.7556, 22.46826
893.2377, 22.56292
893.7198, 22.58491
894.2019, 22.57990
894.6840, 22.60500
895.1661, 22.64328
895.6483, 22.64787
896.1304, 22.55594
896.6125, 22.48955
897.0946, 22.48471
897.5767, 22.51232
898.0588, 22.49912
898.5410, 22.44143
899.0231, 22.44507
899.5052, 22.55693
899.9873, 22.67885
900.4694, 22.69317
900.9515, 22.63161
901.4337, 22.53866
901.9158, 22.37436
902.3979, 22.28496
902.8800, 22.40302
903.3621, 22.54980
903.8442, 22.55548
904.3264, 22.38037
904.8085, 22.31183
905.2906, 22.37684
905.7727, 22.46117
906.2548, 22.45498
906.7369, 22.39425
907.2191, 22.32424
907.7012, 22.24933
908.1833, 22.20754
908.6654, 22.24584
909.1475, 22.29602
909.6296, 22.31394
910.1118, 22.30031
910.5939, 22.34511
911.0760, 22.47154
911.5581, 22.52821
912.0402, 22.33574
912.5223, 22.06786
913.0045, 22.15213
913.4866, 22.48981
913.9687, 22.71479
914.4508, 22.55799
914.9329, 22.35275
915.4150, 22.21597
915.8972, 22.13675
916.3793, 22.07878
916.8614, 22.03474
917.3435, 22.05121
917.8256, 22.15734
918.3077, 22.28783
918.7899, 22.35991
919.2720, 22.37085
919.7541, 22.29882
920.2362, 22.08102
920.7183, 21.91591
921.2004, 21.91281
921.6826, 21.99979
922.1647, 22.10945
922.6468, 22.27518
923.1289, 22.34210
923.6110, 22.28308
924.0931, 22.21435
924.5753, 22.29440
925.0574, 22.43608
925.5395, 22.41328
926.0216, 22.21356
926.5037, 22.04385
926.9858, 22.00533
927.4680, 22.04140
927.9501, 22.18193
928.4322, 22.40594
928.9143, 22.39943
929.3964, 22.08028
929.8785, 21.83897
930.3607, 21.86731
930.8428, 22.06655
931.3249, 22.28596
931.8070, 22.49269
932.2891, 22.57965
932.7712, 22.31388
933.2534, 22.12350
933.7355, 22.29111
934.2176, 22.62337
934.6997, 22.72852
935.1818, 22.52118
935.6639, 22.38601
936.1461, 22.38070
936.6282, 22.43459
937.1103, 22.49158
937.5924, 22.52931
938.0745, 22.46139
938.5566, 22.22974
939.0388, 22.11694
939.5209, 22.40221
940.0030, 22.75404
940.4851, 22.93043
940.9672, 22.91408
941.4493, 22.82932
941.9315, 22.65781
942.4136, 22.50478
942.8957, 22.43884
943.3778, 22.44119
943.8599, 22.47929
944.3420, 22.55069
944.8242, 22.64949
945.3063, 22.78930
945.7884, 22.93850
946.2705, 23.12554
946.7526, 23.30732
947.2347, 23.34384
947.7169, 23.21050
948.1990, 23.09557
948.6811, 23.04679
949.1632, 23.03925
949.6453, 23.05042
950.1274, 23.07332
950.6096, 23.09607
951.0917, 23.12085
951.5738, 23.13267
952.0559, 23.12676
952.5380, 23.10477
953.0201, 23.04212
953.5023, 22.91314
953.9844, 22.97634
954.4665, 23.25392
954.9486, 23.53164
955.4307, 23.63372
955.9128, 23.63144
956.3950, 23.58850
956.8771, 23.51655
957.3591, 23.47966
957.8412, 23.47865
958.3234, 23.54609
958.8055, 23.70542
959.2876, 23.93588
959.7697, 24.19204
960.2518, 24.47204
960.7339, 24.62879
961.2161, 24.53829
961.6982, 24.43295
962.1803, 24.60484
962.6624, 24.91712
963.1445, 25.15656
963.6266, 25.14161
964.1088, 25.24945
964.5909, 25.55753
965.0730, 25.91553
965.5551, 26.16931
966.0372, 26.32726
966.5193, 26.43762
967.0015, 26.50049
967.4836, 26.66299
967.9657, 27.11432
968.4478, 27.65628
968.9299, 28.06782
969.4120, 28.34318
969.8942, 28.88063
970.3763, 29.74340
970.8584, 30.76661
971.3405, 31.91134
971.8226, 33.16964
972.3047, 34.49274
972.7869, 35.92376
973.2690, 37.65613
973.7511, 39.79199
974.2332, 42.20734
974.7153, 44.67189
975.1974, 47.46704
975.6796, 51.08159
976.1617, 55.79614
976.6438, 60.44630
977.1259, 64.87019
977.6080, 69.41538
978.0901, 74.53816
978.5723, 79.91609
979.0544, 84.85234
979.5365, 89.27189
980.0186, 93.97990
980.5007, 99.30231
980.9828, 104.9967
981.4650, 110.8877
981.9471, 117.0220
982.4292, 123.8551
982.9113, 131.3597
983.3934, 139.8291
983.8755, 149.2253
984.3577, 159.8973
984.8398, 172.4275
985.3219, 186.7223
985.8040, 202.3932
986.2861, 219.9525
986.7682, 238.1116
987.2504, 257.5890
987.7325, 276.7059
988.2146, 294.3015
988.6967, 310.3129
989.1788, 322.3008
989.6609, 330.1959
990.1431, 332.1772
990.6252, 326.5266
991.1073, 314.6602
991.5894, 296.4200
992.0715, 272.1811
992.5536, 246.9853
993.0358, 220.3880
993.5179, 194.4643
994.0000, 169.6329
994.4821, 146.5067
994.9642, 126.7997
995.4464, 110.3942
995.9285, 96.27332
996.4106, 84.46864
996.8927, 74.49174
997.3748, 66.45179
997.8569, 60.03393
998.3391, 54.71264
998.8212, 50.64982
999.3033, 47.01439
999.7854, 43.86266
1000.268, 41.11814
1000.750, 38.81484
1001.232, 36.88684
1001.714, 35.28770
1002.196, 34.00930
1002.678, 32.90440
1003.160, 32.03771
1003.642, 31.23493
1004.124, 30.42211
1004.607, 29.64910
1005.089, 29.10189
1005.571, 28.76750
1006.053, 28.47217
1006.535, 28.17292
1007.017, 27.86914
1007.499, 27.51432
1007.981, 27.16937
1008.464, 26.90546
1008.946, 26.77725
1009.428, 26.63928
1009.910, 26.50907
1010.392, 26.32534
1010.874, 25.98136
1011.356, 25.55263
1011.838, 25.37192
1012.320, 25.39924
1012.803, 25.39793
1013.285, 25.16373
1013.767, 24.94950
1014.249, 24.93469
1014.731, 25.01495
1015.213, 24.95004
1015.695, 24.70182
1016.177, 24.55735
1016.659, 24.58499
1017.142, 24.64603
1017.624, 24.55556
1018.106, 24.40124
1018.588, 24.30584
1019.070, 24.29632
1019.552, 24.29835
1020.034, 24.31652
1020.516, 24.31244
1020.999, 24.23754
1021.481, 24.12628
1021.963, 24.24557
1022.445, 24.54567
1022.927, 24.67319
1023.409, 24.27649
1023.891, 23.85532
1024.373, 23.73600
1024.855, 23.81679
1025.338, 23.93355
1025.820, 24.13138
1026.302, 24.18055
1026.784, 24.03063
1027.266, 23.85612
1027.748, 23.85686
1028.230, 23.95549
1028.712, 24.01130
1029.195, 24.01378
1029.677, 24.00822
1030.159, 24.02165
1030.641, 24.01819
1031.123, 23.97297
1031.605, 23.90604
1032.087, 23.89907
1032.569, 23.94741
1033.052, 23.96457
1033.534, 23.91985
1034.016, 23.84438
1034.498, 23.73130
1034.980, 23.62057
1035.462, 23.55695
1035.944, 23.53364
1036.426, 23.58658
1036.908, 22.99139
1037.391, 23.40867
1037.873, 23.64840
1038.355, 23.72015
1038.837, 23.12081
1039.319, 23.38805
1039.801, 23.30800
1040.283, 23.21371
1040.765, 23.60292
1041.247, 23.96638
1041.730, 24.05920
1042.212, 24.06124
1042.694, 23.96982
1043.176, 23.98138
1043.658, 24.13662
1044.140, 24.29689
1044.622, 24.32502
1045.104, 24.30640
1045.587, 24.31798
1046.069, 24.36971
1046.551, 24.43858
1047.033, 24.50937
1047.515, 24.63639
1047.997, 24.86881
1048.479, 25.13824
1048.961, 25.26399
1049.443, 25.30574
1049.926, 25.42226
1050.408, 25.72192
1050.890, 26.00764
1051.372, 26.13034
1051.854, 26.27756
1052.336, 26.61436
1052.818, 27.15402
1053.300, 27.67200
1053.782, 28.16588
1054.265, 28.69456
1054.747, 29.30914
1055.229, 29.96857
1055.711, 30.63575
1056.193, 31.32318
1056.675, 32.07796
1057.157, 32.88595
1057.639, 33.77250
1058.122, 34.70843
1058.604, 35.80679
1059.086, 37.32507
1059.568, 39.08792
1060.050, 40.75197
1060.532, 42.24545
1061.014, 43.86212
1061.496, 45.75289
1061.979, 47.73562
1062.461, 49.73248
1062.943, 51.74536
1063.425, 53.85488
1063.907, 56.07195
1064.389, 58.40111
1064.871, 60.89435
1065.353, 63.44921
1065.835, 66.01931
1066.318, 68.58093
1066.800, 71.18415
1067.282, 73.85082
1067.764, 76.49402
1068.246, 79.09135
1068.728, 81.66450
1069.210, 84.23605
1069.692, 86.78526
1070.174, 89.52314
1070.657, 92.25542
1071.139, 94.29745
1071.621, 95.63132
1072.103, 95.87715
1072.585, 94.94824
1073.067, 92.99728
1073.549, 90.18007
1074.031, 86.54515
1074.514, 81.85512
1074.996, 76.07163
1075.478, 70.27203
1075.960, 64.83439
1076.442, 59.96357
1076.924, 55.96171
1077.406, 52.66484
1077.888, 49.56844
1078.370, 46.66519
1078.853, 44.01860
1079.335, 41.63566
1079.817, 39.61654
1080.299, 38.13090
1080.781, 37.02390
1081.263, 36.12423
1081.745, 35.49479
1082.227, 34.76616
1082.709, 33.87004
1083.192, 33.04917
1083.674, 32.44326
1084.156, 32.02778
1084.638, 31.81785
1085.120, 31.74873
1085.602, 31.59230
1086.084, 31.15473
1086.566, 30.74203
1087.048, 30.40589
1087.531, 30.14471
1088.013, 29.94338
1088.495, 29.80815
1088.977, 29.85660
1089.459, 30.09510
1089.941, 30.31406
1090.423, 30.38782
1090.905, 30.37060
1091.388, 30.22898
1091.870, 30.02005
1092.352, 29.97467
1092.834, 30.11320
1093.316, 30.27005
1093.798, 30.40873
1094.280, 30.55139
1094.762, 30.77274
1095.245, 30.98726
1095.727, 31.06853
1096.209, 30.96709
1096.691, 30.93872
1097.173, 31.06517
1097.655, 31.10107
1098.137, 30.86983
1098.619, 30.53894
1099.101, 30.55430
1099.583, 30.79255
1100.066, 30.92756
1100.548, 30.72538
1101.030, 30.62955
1101.512, 30.80613
1101.994, 31.07653
1102.476, 31.35842
1102.958, 31.63829
1103.440, 31.66717
1103.923, 31.47347
1104.405, 31.37290
1104.887, 31.69738
1105.369, 32.01621
1105.851, 32.08123
1106.333, 31.97428
1106.815, 31.82385
1107.297, 31.59194
1107.780, 31.64470
1108.262, 32.05022
1108.744, 32.46082
1109.226, 32.50859
1109.708, 32.44059
1110.190, 32.55133
1110.672, 32.82198
1111.154, 32.86417
1111.636, 32.56100
1112.119, 32.30318
1112.601, 32.16067
1113.083, 32.14822
1113.565, 32.43689
1114.047, 32.81931
1114.529, 32.86085
1115.011, 32.40926
1115.493, 32.15990
1115.975, 32.40294
1116.458, 32.66268
1116.940, 32.75673
1117.422, 32.71523
1117.904, 32.58402
1118.386, 32.40075
1118.868, 32.29880
1119.350, 32.40128
1119.832, 32.44484
1120.315, 32.17530
1120.797, 31.92660
1121.279, 32.00441
1121.761, 32.40277
1122.243, 32.52953
1122.725, 32.39988
1123.207, 32.24905
1123.689, 32.21644
1124.172, 32.21071
1124.654, 32.21791
1125.136, 32.19217
1125.618, 32.04869
1126.100, 31.75023
1126.582, 31.50393
1127.064, 31.31364
1127.546, 31.25279
1128.028, 31.52396
1128.510, 31.85093
1128.993, 31.95870
1129.475, 31.85622
1129.957, 31.66705
1130.439, 31.33166
1130.921, 31.13420
1131.403, 31.15765
1131.885, 31.22454
1132.367, 31.09754
1132.850, 30.86530
1133.332, 30.62985
1133.814, 30.40282
1134.296, 30.30764
1134.778, 30.52898
1135.260, 30.60120
1135.742, 30.32692
1136.224, 29.89271
1136.707, 29.68339
1137.189, 29.63552
1137.671, 29.59735
1138.153, 29.55446
1138.635, 29.42352
1139.117, 29.08139
1139.599, 28.73682
1140.081, 28.47065
1140.563, 28.28999
1141.046, 28.24194
1141.528, 28.30285
1142.010, 28.35360
1142.492, 28.36912
1142.974, 28.32071
1143.456, 28.14025
1143.938, 27.92765
1144.420, 27.78361
1144.902, 27.71188
1145.385, 27.55401
1145.867, 27.31532
1146.349, 27.09741
1146.831, 27.00393
1147.313, 26.91279
1147.795, 26.69120
1148.277, 26.44107
1148.759, 26.33546
1149.242, 26.40789
1149.724, 26.47610
1150.206, 26.53740
1150.688, 26.52171
1151.170, 26.27930
1151.652, 26.01003
1152.134, 25.93677
1152.616, 26.00113
1153.099, 25.95951
1153.581, 25.77141
1154.063, 25.56152
1154.545, 25.32740
1155.027, 25.15888
1155.509, 25.28769
1155.991, 25.46473
1156.473, 25.28868
1156.955, 24.76760
1157.438, 24.52573
1157.920, 24.74521
1158.402, 24.93166
1158.884, 24.97860
1159.366, 24.92191
1159.848, 24.75278
1160.330, 24.54084
1160.812, 24.40014
1161.294, 24.35032
1161.777, 24.36372
1162.259, 24.50072
1162.741, 24.57847
1163.223, 24.52347
1163.705, 24.38134
1164.187, 24.21359
1164.669, 24.04632
1165.151, 23.94902
1165.634, 23.96795
1166.116, 23.95037
1166.598, 23.80219
1167.080, 23.68148
1167.562, 23.68362
1168.044, 23.76487
1168.526, 23.79355
1169.008, 23.76535
1169.490, 23.65470
1169.973, 23.36171
1170.455, 23.16425
1170.937, 23.22796
1171.419, 23.35546
1171.901, 23.42063
1172.383, 23.43354
1172.865, 23.50316
1173.347, 23.60916
1173.829, 23.64273
1174.312, 23.48218
1174.794, 23.31691
1175.276, 23.19540
1175.758, 23.12596
1176.240, 23.14894
1176.722, 23.25854
1177.204, 23.23266
1177.686, 23.07844
1178.169, 22.94002
1178.651, 22.85382
1179.133, 22.86716
1179.615, 23.09318
1180.097, 23.38916
1180.579, 23.56899
1181.061, 23.63011
1181.543, 23.55929
1182.026, 23.35524
1182.508, 23.15083
1182.990, 23.03811
1183.472, 22.96091
1183.954, 22.86933
1184.436, 22.79346
1184.918, 22.81585
1185.400, 22.94335
1185.882, 23.03576
1186.365, 23.07433
1186.847, 23.08536
1187.329, 23.07331
1187.811, 23.05803
1188.293, 23.03341
1188.775, 23.01982
1189.257, 23.13190
1189.739, 23.39284
1190.221, 23.43991
1190.704, 23.17369
1191.186, 22.85087
1191.668, 22.60690
1192.150, 22.50321
1192.632, 22.72541
1193.114, 23.19866
1193.596, 23.23834
1194.078, 22.78578
1194.561, 22.47359
1195.043, 22.49710
1195.525, 22.64035
1196.007, 22.73949
1196.489, 22.80999
1196.971, 22.87303
1197.453, 22.92986
1197.935, 22.93613
1198.417, 22.89002
1198.900, 22.80113
1199.382, 22.64748
1199.864, 22.51884
1200.346, 22.55060
1200.828, 22.63547
1201.310, 22.62910
1201.792, 22.50193
1202.274, 22.51385
1202.756, 22.68435
1203.239, 22.82644
1203.721, 22.86224
1204.203, 22.82283
1204.685, 22.65182
1205.167, 22.46936
1205.649, 22.47058
1206.131, 22.72409
1206.613, 22.83912
1207.096, 22.80647
1207.578, 22.72087
1208.060, 22.57410
1208.542, 22.47569
1209.024, 22.63447
1209.506, 22.88882
1209.988, 22.95554
1210.470, 22.73503
1210.953, 22.68512
1211.435, 22.82044
1211.917, 23.00821
1212.399, 23.26478
1212.881, 23.43942
1213.363, 23.26098
1213.845, 22.92677
1214.327, 22.81655
1214.809, 23.05213
1215.292, 23.14074
1215.774, 23.06293
1216.256, 22.96651
1216.738, 22.98176
1217.220, 23.00959
1217.702, 22.93699
1218.184, 22.80874
1218.666, 22.71675
1219.148, 22.65564
1219.631, 22.69034
1220.113, 22.83712
1220.595, 22.94805
1221.077, 22.84101
1221.559, 22.70585
1222.041, 22.70926
1222.523, 22.82131
1223.005, 22.97191
1223.488, 23.20015
1223.970, 23.23131
1224.452, 23.03075
1224.934, 22.81976
1225.416, 22.78905
1225.898, 22.81196
1226.380, 22.79448
1226.862, 22.74147
1227.344, 22.67813
1227.827, 22.59904
1228.309, 22.52795
1228.791, 22.46126
1229.273, 22.47836
1229.755, 22.76173
1230.237, 23.04777
1230.719, 23.11321
1231.201, 23.01233
1231.683, 22.91953
1232.166, 22.83343
1232.648, 22.78132
1233.130, 22.76719
1233.612, 22.76322
1234.094, 22.73179
1234.576, 22.71622
1235.058, 22.76840
1235.540, 22.85623
1236.023, 22.90992
1236.505, 22.92969
1236.987, 22.88865
1237.469, 22.77982
1237.951, 22.68231
1238.433, 22.65556
1238.915, 22.66344
1239.397, 22.70854
1239.880, 22.76282
1240.362, 22.75754
1240.844, 22.69725
1241.326, 22.64091
1241.808, 22.59611
1242.290, 22.58084
1242.772, 22.63496
1243.254, 22.69246
1243.736, 22.72454
1244.219, 22.73139
1244.701, 22.70762
1245.183, 22.65700
1245.665, 22.59541
1246.147, 22.52332
1246.629, 22.49024
1247.111, 22.50296
1247.593, 22.59898
1248.075, 22.85189
1248.558, 23.13908
1249.040, 23.12074
1249.522, 22.88453
1250.004, 22.80789
1250.486, 22.96502
1250.968, 23.07433
1251.450, 22.95334
1251.932, 22.81900
1252.415, 22.72843
1252.897, 22.69155
1253.379, 22.77820
1253.861, 22.92921
1254.343, 22.96857
1254.825, 22.85737
1255.307, 22.80322
1255.789, 22.98159
1256.271, 23.04984
1256.754, 22.86509
1257.236, 22.58356
1257.718, 22.45968
1258.200, 22.46774
1258.682, 22.60786
1259.164, 22.89719
1259.646, 23.03097
1260.128, 22.88300
1260.610, 22.78842
1261.093, 22.86737
1261.575, 23.00129
1262.057, 22.99032
1262.539, 22.92686
1263.021, 22.97865
1263.503, 23.18072
1263.985, 23.20713
1264.467, 22.99283
1264.950, 22.78511
1265.432, 22.64805
1265.914, 22.56873
1266.396, 22.53402
1266.878, 22.54671
1267.360, 22.63523
1267.842, 22.80112
1268.324, 22.90406
1268.807, 22.95116
1269.289, 22.83862
1269.771, 22.46969
1270.253, 22.17905
1270.735, 22.43520
1271.217, 22.81697
1271.699, 22.87157
1272.181, 22.66136
1272.663, 22.68102
1273.146, 22.92386
1273.628, 22.97508
1274.110, 22.67966
1274.592, 22.38578
1275.074, 22.38112
1275.556, 22.44395
1276.038, 22.40659
1276.520, 22.31293
1277.002, 22.35821
1277.485, 22.51700
1277.967, 22.65456
1278.449, 22.75118
1278.931, 22.74037
1279.413, 22.40817
1279.895, 22.17312
1280.377, 22.25317
1280.859, 22.52521
1281.342, 22.72046
1281.824, 22.83879
1282.306, 22.87314
1282.788, 22.81118
1283.270, 22.74238
1283.752, 22.69740
1284.234, 22.63581
1284.716, 22.52524
1285.198, 22.42267
1285.681, 22.49393
1286.163, 22.62392
1286.645, 22.57323
1287.127, 22.28339
1287.609, 22.11379
1288.091, 22.10687
1288.573, 22.18766
1289.055, 22.34958
1289.537, 22.54640
1290.020, 22.77494
1290.502, 22.96213
1290.984, 23.00915
1291.466, 22.90204
1291.948, 22.73953
1292.430, 22.49354
1292.912, 22.42859
1293.394, 22.65374
1293.877, 22.88843
1294.359, 22.85338
1294.841, 22.72160
1295.323, 22.62572
1295.805, 22.56489
1296.287, 22.52646
1296.769, 22.50810
1297.251, 22.45356
1297.734, 22.33701
1298.216, 22.31083
1298.698, 22.60597
1299.180, 22.87095
1299.662, 22.92850
1300.144, 22.84233
1300.626, 22.71225
1301.108, 22.57141
1301.590, 22.57406
1302.073, 22.75308
1302.555, 22.84080
1303.037, 22.60407
1303.519, 22.43515
1304.001, 22.45647
1304.483, 22.54609
1304.965, 22.54962
##END=



