##NAMES=Thaumasite
##RRUFFID=R060814
##IDEAL CHEMISTRY=Ca_3_Si(OH)_6_(S^6+^O_4_)(CO_3_)&#183;12H_2_O
##LOCALITY=Crestmore Quarry, Riverside County, Jurupa Mountains, California, USA
##OWNER=RRUFF
##SOURCE=Michael Scott
##DESCRIPTION=Mass of colorless acicular crystals associated with afwillite, R080022
##STATUS=The identification of this mineral has been confirmed only by single crystal X-ray diffraction.
##URL=rruff.info/R060814
161.5243, 76.11143
162.0064, 76.67256
162.4885, 77.18328
162.9706, 77.51789
163.4527, 77.71803
163.9349, 77.85143
164.4170, 77.92208
164.8991, 77.96959
165.3812, 78.03089
165.8633, 78.03547
166.3454, 78.22684
166.8276, 78.92134
167.3097, 80.03130
167.7918, 80.89877
168.2739, 81.15691
168.7560, 81.10342
169.2381, 81.07370
169.7203, 81.07176
170.2024, 81.17651
170.6845, 81.55746
171.1666, 82.28896
171.6487, 82.84814
172.1308, 82.87354
172.6130, 82.73492
173.0951, 82.69527
173.5772, 82.83721
174.0593, 83.08550
174.5414, 83.32375
175.0235, 83.57557
175.5057, 83.75710
175.9878, 83.68653
176.4699, 83.61962
176.9520, 83.86583
177.4341, 84.58500
177.9162, 85.55577
178.3984, 86.08355
178.8805, 85.66736
179.3626, 85.41823
179.8447, 85.51925
180.3268, 85.84665
180.8089, 86.27763
181.2911, 86.75347
181.7732, 87.23820
182.2553, 87.52078
182.7374, 87.23550
183.2195, 87.15269
183.7016, 87.60180
184.1838, 88.34956
184.6659, 88.93398
185.1480, 89.03600
185.6301, 88.73721
186.1122, 88.88226
186.5943, 89.86186
187.0765, 90.77625
187.5586, 91.21962
188.0407, 91.28689
188.5228, 91.32994
189.0049, 91.57598
189.4870, 91.99779
189.9692, 92.36777
190.4513, 92.52760
190.9334, 92.76493
191.4155, 93.36590
191.8976, 94.30226
192.3797, 95.16139
192.8619, 95.63949
193.3440, 95.82338
193.8261, 95.99371
194.3082, 96.09901
194.7903, 96.25465
195.2724, 96.58842
195.7546, 97.11147
196.2367, 97.73537
196.7188, 98.62518
197.2009, 99.54440
197.6830, 100.1232
198.1651, 100.0785
198.6473, 99.75114
199.1294, 99.71102
199.6115, 99.99965
200.0936, 100.4959
200.5757, 101.3004
201.0578, 102.2179
201.5400, 103.0075
202.0221, 103.5465
202.5042, 103.8865
202.9863, 104.1566
203.4684, 104.2199
203.9505, 104.4477
204.4327, 105.0093
204.9148, 105.7677
205.3969, 106.5538
205.8790, 107.2950
206.3611, 107.9751
206.8432, 108.5285
207.3254, 108.9444
207.8075, 109.2205
208.2896, 109.3365
208.7717, 109.3248
209.2538, 109.2277
209.7359, 109.0711
210.2181, 108.8538
210.7002, 108.5691
211.1823, 108.4428
211.6644, 107.9991
212.1465, 106.9872
212.6286, 105.6000
213.1108, 104.1448
213.5929, 102.8136
214.0750, 101.6031
214.5571, 100.5119
215.0392, 99.83769
215.5213, 98.95284
216.0035, 97.56846
216.4856, 95.83171
216.9677, 94.08032
217.4498, 92.52055
217.9319, 91.15078
218.4140, 89.80492
218.8962, 88.46329
219.3783, 87.17051
219.8604, 85.86691
220.3425, 84.60795
220.8246, 83.57661
221.3067, 82.94824
221.7889, 82.63889
222.2710, 82.02889
222.7531, 80.79629
223.2352, 79.60732
223.7173, 78.80619
224.1994, 78.34941
224.6816, 78.00970
225.1637, 77.70884
225.6458, 77.40004
226.1279, 76.94627
226.6100, 76.33649
227.0921, 75.59953
227.5743, 74.61526
228.0564, 73.42791
228.5385, 72.47470
229.0206, 72.12856
229.5027, 72.13630
229.9848, 71.92564
230.4670, 71.39520
230.9491, 70.73106
231.4312, 70.03151
231.9133, 69.29403
232.3954, 68.66181
232.8775, 68.28063
233.3597, 68.01435
233.8418, 67.68652
234.3239, 67.25851
234.8060, 66.79012
235.2881, 66.33360
235.7702, 65.88850
236.2524, 65.46140
236.7345, 65.12090
237.2166, 64.76579
237.6987, 64.26962
238.1808, 63.57460
238.6629, 62.87928
239.1451, 62.48948
239.6272, 62.48775
240.1093, 62.34789
240.5914, 61.78654
241.0735, 61.09742
241.5556, 60.44799
242.0378, 59.87340
242.5199, 59.38969
243.0020, 59.06074
243.4841, 58.96906
243.9662, 58.72649
244.4483, 58.08172
244.9305, 57.38125
245.4126, 56.83238
245.8947, 56.48462
246.3768, 56.26277
246.8589, 56.12882
247.3410, 56.20383
247.8232, 55.97334
248.3053, 55.05954
248.7874, 54.08238
249.2695, 53.44039
249.7516, 53.19093
250.2337, 53.09322
250.7159, 52.82649
251.1980, 52.31462
251.6801, 51.83799
252.1622, 51.40232
252.6443, 50.99778
253.1264, 50.61581
253.6086, 50.25655
254.0907, 49.92760
254.5728, 49.64879
255.0549, 49.45099
255.5370, 49.20373
256.0191, 48.86256
256.5013, 48.51621
256.9834, 48.24642
257.4655, 48.03900
257.9476, 47.79340
258.4297, 47.38385
258.9118, 46.73591
259.3940, 46.22639
259.8761, 45.97899
260.3582, 45.73344
260.8403, 45.29421
261.3224, 44.70286
261.8045, 44.17524
262.2867, 43.93034
262.7688, 44.02532
263.2509, 44.02539
263.7330, 43.89900
264.2151, 43.73087
264.6972, 43.54421
265.1794, 43.34845
265.6615, 43.16426
266.1436, 43.02803
266.6257, 42.94896
267.1078, 42.64506
267.5899, 41.81615
268.0721, 41.10163
268.5542, 40.82170
269.0363, 40.89837
269.5184, 41.08242
270.0005, 41.22554
270.4826, 41.32049
270.9648, 41.25692
271.4469, 40.91672
271.9290, 40.57927
272.4111, 40.37809
272.8932, 40.26337
273.3753, 40.09435
273.8575, 39.77677
274.3396, 39.35286
274.8217, 39.04616
275.3038, 38.85595
275.7859, 38.75047
276.2680, 38.80748
276.7502, 38.94082
277.2323, 38.94557
277.7144, 38.69688
278.1965, 38.31521
278.6786, 38.19078
279.1607, 38.51188
279.6429, 38.69776
280.1250, 38.44928
280.6071, 37.97739
281.0892, 37.67397
281.5713, 37.69338
282.0534, 37.89907
282.5356, 38.05101
283.0177, 38.17537
283.4998, 38.19676
283.9819, 38.01537
284.4640, 37.73957
284.9461, 37.55474
285.4283, 37.52439
285.9104, 37.52187
286.3925, 37.31626
286.8746, 36.87373
287.3567, 36.59103
287.8388, 36.69926
288.3210, 36.95144
288.8031, 37.00739
289.2852, 36.79463
289.7673, 36.51249
290.2494, 36.38332
290.7315, 36.39679
291.2137, 36.36917
291.6958, 36.25778
292.1779, 36.10017
292.6600, 35.91183
293.1421, 35.69252
293.6242, 35.51849
294.1064, 35.48958
294.5885, 35.57154
295.0706, 35.57693
295.5527, 35.40025
296.0348, 35.20052
296.5169, 35.14323
296.9991, 35.22461
297.4812, 35.27578
297.9633, 35.17069
298.4454, 34.95796
298.9275, 34.80428
299.4096, 34.74302
299.8918, 34.70976
300.3739, 34.64625
300.8560, 34.56208
301.3381, 34.53871
301.8202, 34.66516
302.3023, 34.83163
302.7845, 34.81122
303.2666, 34.52220
303.7487, 34.24642
304.2308, 34.16966
304.7129, 34.24332
305.1950, 34.29245
305.6772, 34.25154
306.1593, 34.17641
306.6414, 34.13506
307.1235, 34.12075
307.6056, 34.16482
308.0877, 34.37517
308.5699, 34.64918
309.0520, 34.72081
309.5341, 34.48311
310.0162, 34.16389
310.4983, 34.05327
310.9804, 34.11470
311.4626, 34.10042
311.9447, 33.85835
312.4268, 33.51795
312.9089, 33.26155
313.3910, 33.10441
313.8731, 33.04124
314.3553, 33.13743
314.8374, 33.33611
315.3195, 33.45305
315.8016, 33.43835
316.2837, 33.33307
316.7658, 33.11897
317.2480, 32.78984
317.7301, 32.57595
318.2122, 32.69935
318.6943, 33.02122
319.1764, 33.19201
319.6585, 33.10750
320.1407, 32.96614
320.6228, 32.91689
321.1049, 32.94820
321.5870, 32.98394
322.0691, 33.02943
322.5512, 33.02325
323.0334, 32.84111
323.5155, 32.40566
323.9976, 32.04654
324.4797, 32.01355
324.9618, 32.20596
325.4439, 32.31916
325.9261, 32.26689
326.4082, 32.11300
326.8903, 31.87749
327.3724, 31.55248
327.8545, 31.38150
328.3366, 31.57496
328.8188, 31.94333
329.3009, 32.17629
329.7830, 32.21804
330.2651, 32.16556
330.7472, 32.07698
331.2293, 31.96150
331.7115, 31.87294
332.1936, 31.80393
332.6757, 31.77653
333.1578, 31.87908
333.6399, 32.11390
334.1220, 32.22093
334.6042, 31.95920
335.0863, 31.43170
335.5684, 31.06665
336.0505, 30.91903
336.5326, 30.89246
337.0147, 30.98409
337.4969, 31.16437
337.9790, 31.29377
338.4611, 31.29675
338.9432, 31.22376
339.4253, 31.17692
339.9074, 31.12971
340.3896, 31.16399
340.8717, 31.43189
341.3538, 31.79038
341.8359, 31.92804
342.3180, 31.73044
342.8001, 31.38918
343.2823, 31.15685
343.7644, 31.03378
344.2465, 30.95514
344.7286, 30.89508
345.2107, 30.88080
345.6928, 30.96779
346.1750, 31.16256
346.6571, 31.36537
347.1392, 31.48160
347.6213, 31.50721
348.1034, 31.56393
348.5855, 31.74204
349.0677, 31.87598
349.5498, 31.79931
350.0319, 31.55765
350.5140, 31.37472
350.9961, 31.38917
351.4782, 31.56504
351.9604, 31.72674
352.4425, 31.96985
352.9246, 32.09185
353.4067, 31.89211
353.8888, 31.54992
354.3709, 31.41911
354.8531, 31.65108
355.3352, 32.04873
355.8173, 32.22120
356.2994, 31.99648
356.7815, 31.95250
357.2636, 32.32684
357.7458, 32.79942
358.2279, 33.04654
358.7100, 33.01794
359.1921, 32.88602
359.6742, 32.81826
360.1563, 32.81052
360.6385, 32.94101
361.1206, 33.41682
361.6027, 33.82970
362.0848, 33.88677
362.5669, 33.67097
363.0490, 33.49281
363.5312, 33.57763
364.0133, 33.87807
364.4954, 34.00387
364.9775, 33.72334
365.4596, 33.55257
365.9417, 33.69989
366.4239, 33.98503
366.9060, 34.16002
367.3881, 34.12458
367.8702, 33.95442
368.3523, 33.80139
368.8344, 33.65378
369.3166, 33.54798
369.7987, 33.47018
370.2808, 33.43891
370.7629, 33.49202
371.2450, 33.62004
371.7271, 33.76030
372.2093, 33.85076
372.6914, 33.89548
373.1735, 33.86386
373.6556, 33.65461
374.1377, 33.47533
374.6198, 33.45574
375.1020, 33.52246
375.5841, 33.51167
376.0662, 33.30984
376.5483, 32.96380
377.0304, 32.69791
377.5125, 32.52721
377.9947, 32.42682
378.4768, 32.42260
378.9589, 32.46631
379.4410, 32.53196
379.9231, 32.60693
380.4052, 32.64850
380.8874, 32.56882
381.3695, 32.30950
381.8516, 32.12185
382.3337, 32.09352
382.8158, 32.08413
383.2979, 32.00574
383.7801, 31.87059
384.2622, 31.76291
384.7443, 31.77267
385.2264, 31.88677
385.7085, 31.93924
386.1906, 31.90372
386.6728, 31.83965
387.1549, 31.71684
387.6370, 31.59713
388.1191, 31.59094
388.6012, 31.77623
389.0833, 32.03361
389.5655, 32.13338
390.0476, 32.03629
390.5297, 31.96230
391.0118, 32.05009
391.4939, 32.14597
391.9760, 32.08442
392.4582, 31.83935
392.9403, 31.63913
393.4224, 31.70780
393.9045, 32.00167
394.3866, 32.25819
394.8687, 32.45226
395.3509, 32.58152
395.8330, 32.60785
396.3151, 32.56458
396.7972, 32.56286
397.2793, 32.66830
397.7614, 32.82817
398.2436, 32.95297
398.7257, 33.03471
399.2078, 33.18266
399.6899, 33.54255
400.1720, 33.97264
400.6541, 34.15902
401.1363, 33.95190
401.6184, 33.75799
402.1005, 33.84893
402.5826, 34.14309
403.0647, 34.42049
403.5468, 34.61832
404.0290, 34.76591
404.5111, 34.89404
404.9932, 35.00011
405.4753, 35.11589
405.9574, 35.23311
406.4395, 35.37022
406.9217, 35.56658
407.4038, 35.81758
407.8859, 36.04673
408.3680, 36.19263
408.8501, 36.25996
409.3322, 36.32027
409.8144, 36.32854
410.2965, 36.38047
410.7786, 36.52367
411.2607, 36.73102
411.7428, 36.96276
412.2249, 37.20245
412.7071, 37.44476
413.1892, 37.68308
413.6713, 37.97027
414.1534, 38.14496
414.6355, 38.07771
415.1176, 37.99818
415.5998, 38.12659
416.0819, 38.43851
416.5640, 38.69665
417.0461, 38.65720
417.5282, 38.31293
418.0103, 38.21616
418.4925, 38.64294
418.9746, 39.02485
419.4567, 39.25655
419.9388, 39.36343
420.4209, 39.36606
420.9030, 39.27092
421.3852, 39.14823
421.8673, 39.15782
422.3494, 39.37813
422.8315, 39.52925
423.3136, 39.53487
423.7957, 39.50715
424.2779, 39.52781
424.7600, 39.59016
425.2421, 39.61442
425.7242, 39.48259
426.2063, 39.22516
426.6884, 39.16208
427.1706, 39.41319
427.6527, 39.66173
428.1348, 39.70978
428.6169, 39.68560
429.0990, 39.79403
429.5811, 40.14756
430.0633, 40.55017
430.5454, 40.72195
431.0275, 40.65709
431.5096, 40.65294
431.9917, 40.82193
432.4738, 41.05844
432.9560, 41.22010
433.4381, 41.30873
433.9202, 41.47808
434.4023, 41.89126
434.8844, 42.40596
435.3665, 42.76112
435.8487, 42.92543
436.3308, 43.00637
436.8129, 43.00330
437.2950, 42.98154
437.7771, 43.18161
438.2592, 43.86777
438.7414, 44.49987
439.2235, 44.69372
439.7056, 44.61002
440.1877, 44.63385
440.6698, 44.90687
441.1519, 45.33482
441.6341, 45.77763
442.1162, 46.23146
442.5983, 46.71352
443.0804, 47.28244
443.5625, 47.83578
444.0446, 48.31573
444.5268, 48.71112
445.0089, 49.03185
445.4910, 49.28474
445.9731, 49.46894
446.4552, 49.57917
446.9373, 49.47226
447.4195, 49.46468
447.9016, 49.68748
448.3837, 49.99401
448.8658, 50.21985
449.3479, 50.31608
449.8300, 50.35102
450.3122, 50.43470
450.7943, 50.61150
451.2764, 50.66907
451.7585, 50.52866
452.2406, 50.33861
452.7227, 50.10643
453.2049, 49.86968
453.6870, 49.70803
454.1691, 49.69771
454.6512, 49.75138
455.1333, 49.65022
455.6154, 49.38606
456.0976, 48.98854
456.5797, 48.34460
457.0618, 47.63947
457.5439, 47.01281
458.0260, 46.48772
458.5081, 45.96029
458.9903, 45.32668
459.4724, 44.62673
459.9545, 44.00496
460.4366, 43.49077
460.9187, 43.01257
461.4008, 42.51488
461.8830, 42.01131
462.3651, 41.54270
462.8472, 41.17529
463.3293, 40.77966
463.8114, 40.22399
464.2935, 39.55029
464.7756, 38.91193
465.2578, 38.36921
465.7399, 37.87554
466.2220, 37.34818
466.7041, 36.74849
467.1862, 36.26654
467.6683, 36.06479
468.1505, 35.88599
468.6326, 35.46976
469.1147, 34.84706
469.5968, 34.26659
470.0789, 33.90248
470.5610, 33.72772
471.0432, 33.56664
471.5253, 33.44542
472.0074, 33.30398
472.4895, 33.12782
472.9716, 32.93267
473.4537, 32.71498
473.9359, 32.48411
474.4180, 32.28910
474.9001, 32.20506
475.3822, 32.25207
475.8643, 32.24907
476.3464, 32.22786
476.8286, 32.11323
477.3107, 31.79419
477.7928, 31.38624
478.2749, 31.07514
478.7570, 30.94971
479.2391, 30.93065
479.7213, 30.92080
480.2034, 30.93218
480.6855, 30.84078
481.1676, 30.52754
481.6497, 30.18626
482.1318, 29.99038
482.6140, 29.92313
483.0961, 29.84092
483.5782, 29.66116
484.0603, 29.43014
484.5424, 29.19758
485.0245, 28.96387
485.5067, 28.79808
485.9888, 28.76484
486.4709, 28.81218
486.9530, 28.80384
487.4351, 28.73270
487.9172, 28.62757
488.3994, 28.42703
488.8815, 28.22738
489.3636, 28.20041
489.8457, 28.36814
490.3278, 28.54095
490.8099, 28.52907
491.2921, 28.32264
491.7742, 28.18169
492.2563, 28.15348
492.7384, 28.12558
493.2205, 28.02081
493.7026, 27.90997
494.1848, 27.93263
494.6669, 28.13255
495.1490, 28.35629
495.6311, 28.32819
496.1132, 27.91954
496.5953, 27.67691
497.0775, 27.79695
497.5596, 27.89817
498.0417, 27.76279
498.5238, 27.49343
499.0059, 27.33477
499.4880, 27.43594
499.9702, 27.67970
500.4523, 27.84079
500.9344, 27.91204
501.4165, 27.95093
501.8986, 27.99271
502.3807, 27.98588
502.8629, 27.83246
503.3450, 27.54379
503.8271, 27.36268
504.3092, 27.50891
504.7913, 27.78915
505.2734, 27.90070
505.7556, 27.82809
506.2377, 27.69846
506.7198, 27.54863
507.2019, 27.41428
507.6840, 27.41165
508.1661, 27.62187
508.6483, 27.79115
509.1304, 27.84281
509.6125, 27.82471
510.0946, 27.78107
510.5767, 27.72320
511.0588, 27.27099
511.5410, 27.75019
512.0231, 28.02317
512.5052, 28.10101
512.9873, 27.39926
513.4694, 27.70420
513.9515, 27.60569
514.4337, 27.49065
514.9158, 27.93727
515.3979, 27.34891
515.8800, 27.78662
516.3621, 27.81474
516.8442, 28.03032
517.3264, 27.83998
517.8085, 27.77501
518.2906, 28.24481
518.7727, 28.23523
519.2548, 27.93945
519.7369, 27.69532
520.2191, 27.61516
520.7012, 27.62424
521.1833, 27.64439
521.6654, 27.67944
522.1475, 27.76692
522.6296, 27.93278
523.1118, 28.11896
523.5939, 28.27627
524.0760, 28.40469
524.5581, 28.47902
525.0402, 28.42520
525.5223, 28.37721
526.0045, 28.46574
526.4866, 28.64250
526.9687, 28.76190
527.4508, 28.75895
527.9329, 28.67784
528.4150, 28.58950
528.8972, 28.43367
529.3793, 28.42542
529.8614, 28.74158
530.3435, 29.03267
530.8256, 29.03640
531.3077, 28.85141
531.7899, 28.76632
532.2720, 28.96299
532.7541, 29.31426
533.2362, 29.47392
533.7183, 29.35549
534.2004, 29.29263
534.6826, 29.39739
535.1647, 29.52951
535.6468, 29.58929
536.1289, 29.59361
536.6110, 29.64659
537.0931, 29.88286
537.5753, 30.17061
538.0574, 30.24503
538.5395, 30.09867
539.0216, 29.89856
539.5037, 29.64173
539.9858, 29.43729
540.4680, 29.50964
540.9501, 29.91950
541.4322, 30.21190
541.9143, 30.12943
542.3964, 29.95639
542.8785, 30.01032
543.3607, 30.27179
543.8428, 30.49771
544.3249, 30.52944
544.8070, 30.41503
545.2891, 30.33075
545.7712, 30.25519
546.2534, 30.24543
546.7355, 30.42349
547.2176, 30.57598
547.6997, 30.49109
548.1818, 30.20664
548.6639, 29.95278
549.1461, 29.92949
549.6282, 30.06542
550.1103, 30.05225
550.5924, 29.82986
551.0745, 29.61398
551.5566, 29.47922
552.0388, 29.36928
552.5209, 29.21990
553.0030, 29.03012
553.4851, 28.90447
553.9672, 28.96265
554.4493, 29.10264
554.9315, 29.14556
555.4136, 29.08220
555.8957, 28.96053
556.3778, 28.79331
556.8599, 28.59600
557.3420, 28.40900
557.8242, 28.22161
558.3063, 28.06604
558.7884, 27.93446
559.2705, 27.84743
559.7526, 27.84503
560.2347, 27.91395
560.7169, 27.98900
561.1990, 28.02166
561.6811, 28.02455
562.1632, 28.06264
562.6453, 28.21232
563.1274, 28.26029
563.6096, 28.07304
564.0917, 27.87442
564.5738, 27.87547
565.0559, 28.04517
565.5380, 28.13983
566.0201, 27.92093
566.5023, 27.53503
566.9844, 27.38028
567.4665, 27.48618
567.9486, 27.64039
568.4307, 27.83546
568.9128, 27.97530
569.3950, 27.89515
569.8771, 27.56885
570.3592, 27.33877
570.8413, 27.34930
571.3234, 27.48810
571.8055, 27.70511
572.2877, 27.96108
572.7698, 28.12030
573.2519, 28.10624
573.7340, 27.95196
574.2161, 27.73290
574.6982, 27.30954
575.1804, 27.07122
575.6625, 27.06792
576.1446, 27.19431
576.6267, 27.48519
577.1088, 27.85030
577.5909, 28.09018
578.0731, 28.06876
578.5552, 27.90628
579.0373, 27.87232
579.5194, 27.99080
580.0015, 28.10427
580.4836, 28.17681
580.9658, 28.24130
581.4479, 28.33607
581.9300, 28.44918
582.4121, 28.52769
582.8942, 28.51844
583.3763, 28.49450
583.8585, 28.53602
584.3406, 28.62582
584.8227, 28.70580
585.3048, 28.76002
585.7869, 28.77627
586.2690, 28.72183
586.7512, 28.56252
587.2333, 28.51310
587.7154, 28.65032
588.1975, 28.80640
588.6796, 28.91835
589.1617, 28.99976
589.6439, 29.06608
590.1260, 29.12555
590.6081, 29.21436
591.0902, 29.40939
591.5723, 29.73078
592.0544, 29.96250
592.5366, 30.09704
593.0187, 30.14112
593.5008, 30.01591
593.9829, 29.83732
594.4650, 29.79741
594.9471, 29.97531
595.4293, 30.16381
595.9114, 30.18557
596.3935, 30.10366
596.8756, 30.05575
597.3577, 30.06198
597.8398, 30.11377
598.3220, 30.20490
598.8041, 30.33631
599.2862, 30.51799
599.7683, 30.86778
600.2504, 31.10494
600.7325, 31.10149
601.2147, 31.02339
601.6968, 31.02989
602.1789, 31.12928
602.6610, 31.23428
603.1431, 31.28461
603.6252, 31.27495
604.1074, 31.15322
604.5895, 30.83535
605.0716, 30.62536
605.5537, 30.65834
606.0358, 30.78497
606.5179, 30.92147
607.0001, 31.05883
607.4822, 31.19046
607.9643, 31.35492
608.4464, 31.48429
608.9285, 31.44744
609.4106, 31.27797
609.8928, 31.17847
610.3749, 31.23116
610.8570, 31.37214
611.3391, 31.51882
611.8212, 31.68580
612.3033, 31.79019
612.7855, 31.80688
613.2676, 31.79096
613.7497, 31.73288
614.2318, 31.66899
614.7139, 31.65270
615.1960, 31.70288
615.6782, 31.79570
616.1603, 31.93796
616.6424, 32.13866
617.1245, 32.15108
617.6066, 31.81405
618.0887, 31.56627
618.5709, 31.72324
619.0530, 32.06291
619.5351, 32.28733
620.0172, 32.33651
620.4993, 32.33346
620.9814, 32.33357
621.4636, 32.33241
621.9457, 32.31287
622.4278, 32.27731
622.9099, 32.26472
623.3920, 32.30117
623.8741, 32.37846
624.3563, 32.46638
624.8384, 32.52859
625.3205, 32.65904
625.8026, 32.94942
626.2847, 33.22676
626.7668, 33.38631
627.2490, 33.43507
627.7311, 33.41271
628.2132, 33.32586
628.6953, 33.22924
629.1774, 33.22062
629.6595, 33.30207
630.1417, 33.42753
630.6238, 33.62563
631.1059, 33.80460
631.5880, 33.84828
632.0701, 33.80266
632.5522, 33.81314
633.0344, 33.91590
633.5165, 34.06127
633.9986, 34.23677
634.4807, 34.43502
634.9628, 34.63852
635.4449, 34.84675
635.9271, 35.09062
636.4092, 35.40506
636.8913, 35.78070
637.3734, 36.09992
637.8555, 36.35648
638.3376, 36.56273
638.8198, 36.57133
639.3019, 36.64912
639.7840, 37.05409
640.2661, 37.75525
640.7482, 38.47843
641.2303, 39.07169
641.7125, 39.57711
642.1946, 40.01630
642.6767, 40.40128
643.1588, 40.89984
643.6409, 41.59882
644.1230, 42.33998
644.6052, 42.94726
645.0873, 43.40863
645.5694, 43.74097
646.0515, 43.73622
646.5336, 43.83785
647.0157, 44.28170
647.4979, 44.90955
647.9800, 45.53328
648.4621, 46.09349
648.9442, 46.58889
649.4263, 47.00232
649.9084, 47.34838
650.3906, 47.74933
650.8727, 48.23437
651.3548, 48.70207
651.8369, 49.15211
652.3190, 49.54346
652.8011, 49.80089
653.2833, 49.92187
653.7654, 50.08168
654.2475, 50.58723
654.7296, 50.97215
655.2117, 50.65985
655.6938, 49.83213
656.1760, 49.10923
656.6581, 48.73597
657.1402, 48.49353
657.6223, 48.07405
658.1044, 47.46449
658.5865, 46.75587
659.0687, 46.07318
659.5508, 45.13220
660.0329, 43.70254
660.5150, 42.06454
660.9971, 40.50897
661.4792, 39.11233
661.9614, 37.81067
662.4435, 36.58038
662.9256, 35.41463
663.4077, 34.28946
663.8898, 33.20628
664.3719, 32.26744
664.8541, 31.53926
665.3362, 30.94758
665.8183, 30.35858
666.3004, 29.74688
666.7825, 29.23899
667.2646, 28.88549
667.7468, 28.58356
668.2289, 28.30280
668.7110, 28.03194
669.1931, 27.74107
669.6752, 27.42486
670.1573, 27.15707
670.6395, 27.06522
671.1216, 27.13061
671.6037, 27.09955
672.0858, 26.95259
672.5679, 26.76832
673.0500, 26.56143
673.5322, 26.34908
674.0143, 26.14293
674.4964, 25.93380
674.9785, 25.79525
675.4606, 25.75654
675.9427, 25.79022
676.4249, 25.91892
676.9070, 26.09870
677.3891, 26.24271
677.8712, 26.31566
678.3533, 26.30755
678.8354, 26.18423
679.3176, 25.92635
679.7997, 25.74483
680.2818, 25.69639
680.7639, 25.63797
681.2460, 25.46170
681.7281, 25.28259
682.2103, 25.25486
682.6924, 25.40235
683.1745, 25.52131
683.6566, 25.47056
684.1387, 25.35145
684.6208, 25.27558
685.1030, 25.24672
685.5851, 25.25085
686.0672, 25.28251
686.5493, 25.34803
687.0314, 25.47399
687.5135, 25.69755
687.9957, 25.77835
688.4778, 25.56491
688.9599, 25.38268
689.4420, 25.30743
689.9241, 25.30778
690.4063, 25.38311
690.8884, 25.51978
691.3705, 25.59547
691.8526, 25.46033
692.3347, 25.22655
692.8168, 25.11383
693.2990, 25.11771
693.7811, 25.11623
694.2632, 25.05652
694.7453, 24.99312
695.2274, 25.01061
695.7095, 25.13157
696.1917, 25.19527
696.6738, 25.18917
697.1559, 25.14691
697.6380, 25.04453
698.1201, 24.93052
698.6022, 24.85408
699.0844, 24.82566
699.5665, 24.83415
700.0486, 24.89420
700.5307, 24.97317
701.0128, 24.98121
701.4949, 24.91685
701.9771, 24.82253
702.4592, 24.70346
702.9413, 24.57506
703.4234, 24.44473
703.9055, 24.31125
704.3876, 24.23745
704.8698, 24.26110
705.3519, 24.29935
705.8340, 24.32587
706.3161, 24.35059
706.7982, 24.38751
707.2803, 24.43713
707.7625, 24.49276
708.2446, 24.56225
708.7267, 24.61829
709.2088, 24.56550
709.6909, 24.39194
710.1730, 24.23998
710.6552, 24.14059
711.1373, 24.07383
711.6194, 24.02186
712.1015, 23.98655
712.5836, 23.97955
713.0657, 24.01584
713.5479, 24.06286
714.0300, 24.13370
714.5121, 24.19469
714.9942, 24.19848
715.4763, 24.15215
715.9584, 24.09757
716.4406, 24.05305
716.9227, 24.05050
717.4048, 24.22363
717.8869, 24.61421
718.3690, 24.76054
718.8511, 24.48127
719.3333, 24.15011
719.8154, 24.06361
720.2975, 24.12419
720.7796, 24.07700
721.2617, 23.80049
721.7438, 23.63186
722.2260, 23.79681
722.7081, 24.03874
723.1902, 24.11519
723.6723, 24.03910
724.1544, 23.92513
724.6365, 23.82947
725.1187, 23.78147
725.6008, 23.86027
726.0829, 24.07981
726.5650, 24.21885
727.0471, 24.24650
727.5292, 24.23767
728.0114, 24.22205
728.4935, 24.19648
728.9756, 24.16894
729.4577, 24.15539
729.9398, 24.06015
730.4219, 23.74514
730.9041, 23.43537
731.3862, 23.29668
731.8683, 23.30452
732.3504, 23.42228
732.8325, 23.62503
733.3146, 23.79110
733.7968, 23.73162
734.2789, 23.46904
734.7610, 23.38070
735.2431, 23.53306
735.7252, 23.65598
736.2073, 23.62803
736.6895, 23.55156
737.1716, 23.56074
737.6537, 23.65043
738.1358, 23.68097
738.6179, 23.53144
739.1000, 23.41604
739.5822, 23.48172
740.0643, 23.63943
740.5464, 23.79892
741.0285, 23.91962
741.5106, 23.92382
741.9927, 23.71215
742.4749, 23.38474
742.9570, 23.30576
743.4391, 23.52327
743.9212, 23.67652
744.4033, 23.63287
744.8854, 23.60829
745.3676, 23.88360
745.8497, 24.33007
746.3318, 24.50014
746.8139, 24.13222
747.2960, 23.85442
747.7781, 23.94772
748.2603, 24.15430
748.7424, 23.85198
749.2245, 24.34980
749.7066, 24.64141
750.1887, 24.73788
750.6708, 24.05475
751.1530, 24.37832
751.6351, 24.29844
752.1172, 24.20203
752.5993, 24.66727
753.0814, 24.09754
753.5635, 24.55387
754.0457, 24.60063
754.5278, 24.83484
755.0099, 24.66312
755.4920, 24.61678
755.9741, 24.97650
756.4562, 25.11137
756.9384, 24.89293
757.4205, 25.13906
757.9026, 24.55514
758.3847, 24.76819
758.8668, 24.71641
759.3489, 24.70986
759.8311, 24.73564
760.3132, 24.77474
760.7953, 24.82889
761.2774, 24.78324
761.7595, 24.54643
762.2416, 24.35286
762.7238, 24.49648
763.2059, 24.96288
763.6880, 25.19314
764.1701, 25.05182
764.6522, 24.88056
765.1343, 24.71918
765.6165, 24.56381
766.0986, 24.39988
766.5807, 24.23847
767.0628, 24.10895
767.5449, 24.02535
768.0270, 23.98340
768.5092, 23.99229
768.9913, 24.03969
769.4734, 24.10182
769.9555, 24.17650
770.4376, 24.18710
770.9197, 24.08381
771.4019, 23.89640
771.8840, 23.68102
772.3661, 23.38100
772.8482, 23.21584
773.3303, 23.29292
773.8124, 23.37281
774.2946, 23.30461
774.7767, 23.23180
775.2588, 23.41282
775.7409, 23.86573
776.2230, 24.15439
776.7051, 23.82562
777.1873, 23.33003
777.6694, 23.24029
778.1515, 23.44776
778.6336, 23.62601
779.1157, 23.68205
779.5978, 23.60199
780.0800, 23.33759
780.5621, 22.94317
781.0442, 22.79810
781.5263, 23.05257
782.0084, 23.19747
782.4905, 23.00209
782.9727, 22.84015
783.4548, 23.00359
783.9369, 23.36743
784.4190, 23.61659
784.9011, 23.66599
785.3832, 23.65221
785.8654, 23.65026
786.3475, 23.60865
786.8296, 23.39863
787.3117, 23.09820
787.7938, 22.95629
788.2759, 23.08142
788.7581, 23.31675
789.2402, 23.47882
789.7223, 23.56425
790.2044, 23.44077
790.6865, 23.01275
791.1686, 22.78807
791.6508, 23.08785
792.1329, 23.52711
792.6150, 23.55601
793.0971, 23.17057
793.5792, 23.02900
794.0613, 23.44447
794.5435, 23.76216
795.0256, 23.68351
795.5077, 23.47658
795.9898, 23.39651
796.4719, 23.45418
796.9540, 23.53292
797.4362, 23.56842
797.9183, 23.59058
798.4004, 23.67249
798.8825, 23.77944
799.3646, 23.75055
799.8467, 23.56368
800.3289, 23.35577
800.8110, 23.18092
801.2931, 23.08560
801.7752, 23.19544
802.2573, 23.63282
802.7394, 23.86206
803.2216, 23.72958
803.7037, 23.56365
804.1858, 23.37796
804.6679, 23.24889
805.1500, 23.28667
805.6321, 23.48826
806.1143, 23.68189
806.5964, 23.84722
807.0785, 23.91438
807.5606, 23.75052
808.0427, 23.46903
808.5248, 23.27361
809.0070, 23.20443
809.4891, 23.21869
809.9712, 23.29403
810.4533, 23.40051
810.9354, 23.45554
811.4175, 23.45302
811.8997, 23.44893
812.3818, 23.45075
812.8639, 23.44739
813.3460, 23.44262
813.8281, 23.42324
814.3102, 23.35744
814.7924, 23.23040
815.2745, 23.11845
815.7566, 23.02308
816.2387, 22.95391
816.7208, 22.89264
817.2029, 22.87235
817.6851, 22.98526
818.1672, 23.21626
818.6493, 23.36685
819.1314, 23.24264
819.6135, 23.00729
820.0956, 22.92464
820.5778, 22.97101
821.0599, 23.05483
821.5420, 23.15957
822.0241, 23.23823
822.5062, 23.25078
822.9883, 23.22016
823.4705, 23.22756
823.9526, 23.31868
824.4347, 23.33389
824.9168, 23.21288
825.3989, 23.08475
825.8810, 23.01550
826.3632, 22.96201
826.8453, 22.84989
827.3274, 22.66647
827.8095, 22.53623
828.2916, 22.56649
828.7737, 22.60540
829.2559, 22.51034
829.7380, 22.36217
830.2201, 22.29141
830.7022, 22.32214
831.1843, 22.41131
831.6664, 22.53739
832.1486, 22.67410
832.6307, 22.77894
833.1128, 22.84957
833.5949, 22.81996
834.0770, 22.66206
834.5591, 22.49483
835.0413, 22.37575
835.5233, 22.31492
836.0054, 22.35354
836.4875, 22.57608
836.9697, 22.65270
837.4518, 22.47530
837.9339, 22.29333
838.4160, 22.16616
838.8981, 22.08949
839.3802, 22.06682
839.8624, 22.09144
840.3445, 22.12279
840.8266, 22.14220
841.3087, 22.16033
841.7908, 22.20304
842.2729, 22.24385
842.7551, 22.22772
843.2372, 22.15689
843.7193, 22.08608
844.2014, 22.04961
844.6835, 22.02731
845.1656, 21.95856
845.6478, 21.84214
846.1299, 21.86323
846.6120, 22.07522
847.0941, 22.23861
847.5762, 22.24844
848.0583, 22.16034
848.5405, 22.04264
849.0226, 21.89158
849.5047, 21.74637
849.9868, 21.52307
850.4689, 21.41645
850.9510, 21.55243
851.4332, 21.75508
851.9153, 21.91958
852.3974, 22.01939
852.8795, 22.02053
853.3616, 21.88367
853.8438, 21.73154
854.3259, 21.67342
854.8080, 21.65248
855.2901, 21.56942
855.7722, 21.44327
856.2543, 21.38550
856.7365, 21.43869
857.2186, 21.49104
857.7007, 21.38613
858.1828, 21.15516
858.6649, 21.04267
859.1470, 21.06976
859.6292, 21.08329
860.1113, 21.04977
860.5934, 20.98128
861.0755, 20.84756
861.5576, 20.68547
862.0397, 20.69338
862.5219, 21.07669
863.0040, 21.28081
863.4861, 21.13021
863.9682, 20.95839
864.4503, 20.95212
864.9324, 21.02662
865.4146, 21.03131
865.8967, 20.93774
866.3788, 20.87270
866.8609, 20.93450
867.3430, 21.03460
867.8251, 21.13070
868.3073, 21.18823
868.7894, 21.08909
869.2715, 20.84996
869.7536, 20.71579
870.2357, 20.88589
870.7178, 21.13949
871.2000, 20.90317
871.6821, 20.20195
872.1642, 20.00034
872.6463, 20.46925
873.1284, 20.88970
873.6105, 20.92848
874.0927, 20.72778
874.5748, 20.47328
875.0569, 20.14208
875.5390, 19.94731
876.0211, 19.94795
876.5032, 20.01105
876.9854, 20.18155
877.4675, 20.35262
877.9496, 20.44218
878.4317, 20.46414
878.9138, 20.47566
879.3959, 20.49960
879.8781, 20.49271
880.3602, 20.42849
880.8423, 20.32632
881.3244, 20.14614
881.8065, 19.95641
882.2886, 19.91747
882.7708, 20.06579
883.2529, 20.25016
883.7350, 20.35881
884.2171, 20.37895
884.6992, 20.22540
885.1813, 19.92926
885.6635, 19.75945
886.1456, 19.77173
886.6277, 19.81565
887.1098, 19.78464
887.5919, 19.71787
888.0740, 19.73001
888.5562, 19.87441
889.0383, 19.88979
889.5204, 19.71140
890.0025, 19.51131
890.4846, 19.30390
890.9667, 19.13915
891.4489, 19.06579
891.9310, 19.08251
892.4131, 19.16973
892.8952, 19.52711
893.3773, 19.68534
893.8594, 19.28031
894.3416, 18.81210
894.8237, 18.76600
895.3058, 18.98740
895.7879, 18.99465
896.2700, 18.61163
896.7521, 18.29346
897.2343, 18.51745
897.7164, 18.94871
898.1985, 19.13183
898.6806, 19.11179
899.1627, 19.05168
899.6448, 18.99601
900.1270, 18.92742
900.6091, 18.83558
901.0912, 18.71231
901.5733, 18.51546
902.0554, 18.24298
902.5375, 18.02979
903.0197, 17.87902
903.5018, 17.84897
903.9839, 18.01693
904.4660, 18.23991
904.9481, 18.27329
905.4302, 18.08613
905.9124, 18.01278
906.3945, 18.20829
906.8766, 18.29183
907.3587, 18.08152
907.8408, 17.85506
908.3229, 17.83327
908.8051, 17.94619
909.2872, 17.98800
909.7693, 17.90045
910.2514, 17.80453
910.7335, 17.73491
911.2156, 17.68267
911.6978, 17.62412
912.1799, 17.58637
912.6620, 17.63392
913.1441, 17.76241
913.6262, 17.87175
914.1083, 17.90526
914.5905, 17.86880
915.0726, 17.73268
915.5547, 17.54181
916.0368, 17.38838
916.5189, 17.29036
917.0010, 17.29407
917.4832, 17.42881
917.9653, 17.55502
918.4474, 17.43942
918.9295, 17.11395
919.4116, 16.92747
919.8937, 16.89565
920.3759, 16.90276
920.8580, 16.92695
921.3401, 16.96761
921.8222, 17.03475
922.3043, 17.11364
922.7864, 17.14643
923.2686, 17.09336
923.7507, 17.08144
924.2328, 17.18780
924.7149, 17.24315
925.1970, 17.15347
925.6791, 17.01101
926.1613, 16.88364
926.6434, 16.78553
927.1255, 16.79926
927.6076, 17.12152
928.0897, 17.32543
928.5718, 17.11106
929.0540, 16.83481
929.5361, 16.85370
930.0182, 17.05345
930.5003, 17.12064
930.9824, 16.95775
931.4645, 16.75878
931.9467, 16.63660
932.4288, 16.59127
932.9109, 16.63718
933.3930, 16.75635
933.8751, 16.95872
934.3572, 17.21262
934.8394, 17.33458
935.3215, 17.19515
935.8036, 16.94646
936.2857, 16.84702
936.7678, 16.87817
937.2499, 16.92598
937.7321, 16.98778
938.2142, 16.98475
938.6963, 16.87905
939.1784, 16.75271
939.6605, 16.68339
940.1426, 16.67417
940.6248, 16.76484
941.1069, 17.03021
941.5890, 17.16759
942.0711, 17.13998
942.5532, 16.99837
943.0353, 16.64218
943.5175, 16.26395
943.9996, 16.21150
944.4817, 16.51399
944.9638, 16.74914
945.4459, 16.90560
945.9280, 16.98831
946.4102, 16.91923
946.8923, 16.84763
947.3744, 16.92116
947.8565, 17.07018
948.3386, 17.12136
948.8207, 17.02204
949.3029, 16.90401
949.7850, 16.76714
950.2671, 16.69496
950.7492, 16.86920
951.2313, 17.08098
951.7134, 16.93651
952.1956, 16.49303
952.6777, 16.24713
953.1598, 16.51043
953.6419, 16.89562
954.1240, 16.98303
954.6061, 16.89943
955.0883, 16.85940
955.5704, 16.86553
956.0525, 16.85874
956.5346, 16.82258
957.0167, 16.80032
957.4988, 16.83413
957.9810, 16.90612
958.4631, 16.96499
958.9452, 17.01460
959.4273, 17.12316
959.9094, 17.30289
960.3915, 17.44829
960.8737, 17.50833
961.3558, 17.50315
961.8379, 17.43680
962.3200, 17.31749
962.8021, 17.40890
963.2842, 17.81734
963.7664, 18.09073
964.2485, 18.09466
964.7306, 18.05821
965.2127, 18.10716
965.6948, 18.22758
966.1769, 18.39906
966.6591, 18.65018
967.1412, 18.83949
967.6233, 18.84751
968.1054, 18.95424
968.5875, 19.24664
969.0696, 19.63674
969.5518, 20.04907
970.0339, 20.50030
970.5160, 21.06102
970.9981, 21.75336
971.4802, 22.51162
971.9623, 23.25485
972.4445, 24.12225
972.9266, 25.13993
973.4087, 26.36227
973.8908, 27.77509
974.3729, 29.43159
974.8550, 31.54042
975.3372, 34.24119
975.8193, 37.29856
976.3014, 40.67417
976.7835, 44.20951
977.2656, 47.92413
977.7477, 51.61571
978.2299, 54.87348
978.7120, 57.61604
979.1941, 60.17588
979.6762, 62.76023
980.1583, 65.39503
980.6404, 67.94400
981.1226, 70.61892
981.6047, 73.81564
982.0868, 77.61413
982.5689, 82.25005
983.0510, 87.80932
983.5331, 93.64443
984.0153, 99.01573
984.4974, 104.1389
984.9795, 109.7166
985.4616, 115.7091
985.9437, 121.6100
986.4258, 127.3276
986.9080, 133.5558
987.3901, 140.8024
987.8722, 148.2889
988.3543, 154.9257
988.8364, 160.7010
989.3185, 165.6252
989.8007, 170.1344
990.2828, 171.7969
990.7649, 170.3055
991.2470, 165.4177
991.7291, 156.5901
992.2112, 144.6097
992.6934, 130.8321
993.1755, 114.7492
993.6576, 99.93698
994.1397, 86.18954
994.6218, 74.18381
995.1039, 64.33925
995.5861, 56.05290
996.0682, 49.11166
996.5503, 43.41136
997.0324, 38.67258
997.5145, 35.04235
997.9966, 31.96024
998.4788, 29.45574
998.9609, 27.41284
999.4430, 25.92669
999.9251, 24.77888
1000.407, 23.86942
1000.889, 23.13021
1001.371, 22.39567
1001.854, 21.59117
1002.336, 20.90020
1002.818, 20.37935
1003.300, 19.98200
1003.782, 19.73428
1004.264, 19.55889
1004.746, 19.33472
1005.228, 19.09212
1005.711, 19.04450
1006.193, 19.39716
1006.675, 19.57828
1007.157, 19.07712
1007.639, 18.40746
1008.121, 17.98150
1008.603, 17.74677
1009.085, 17.58173
1009.567, 17.45803
1010.050, 17.40050
1010.532, 17.43435
1011.014, 17.50496
1011.496, 17.61722
1011.978, 17.69584
1012.460, 17.60052
1012.942, 17.38511
1013.424, 17.19145
1013.906, 17.05790
1014.389, 16.93921
1014.871, 16.79790
1015.353, 16.66859
1015.835, 16.61234
1016.317, 16.60251
1016.799, 16.58543
1017.281, 16.55495
1017.763, 16.48796
1018.246, 16.38465
1018.728, 16.34095
1019.210, 16.46275
1019.692, 16.65452
1020.174, 16.71453
1020.656, 16.66133
1021.138, 16.55654
1021.620, 16.41567
1022.102, 16.35149
1022.585, 16.40751
1023.067, 16.54017
1023.549, 16.72577
1024.031, 16.91755
1024.513, 16.93912
1024.995, 16.79511
1025.477, 16.71870
1025.959, 16.73803
1026.442, 16.68208
1026.924, 16.45904
1027.406, 16.25019
1027.888, 16.28124
1028.370, 16.49408
1028.852, 16.56599
1029.334, 16.47243
1029.816, 16.42327
1030.298, 16.44704
1030.781, 16.47488
1031.263, 16.48548
1031.745, 16.45978
1032.227, 16.35571
1032.709, 16.19333
1033.191, 16.16257
1033.673, 16.33295
1034.155, 16.38775
1034.638, 16.24791
1035.120, 16.12102
1035.602, 16.11529
1036.084, 16.14504
1036.566, 16.08826
1037.048, 15.95537
1037.530, 15.91421
1038.012, 16.00114
1038.495, 16.10297
1038.977, 16.25301
1039.459, 16.35127
1039.941, 16.31948
1040.423, 16.24249
1040.905, 16.21734
1041.387, 16.24388
1041.869, 16.31858
1042.351, 16.46105
1042.833, 16.61947
1043.316, 16.88448
1043.798, 17.05364
1044.280, 16.91489
1044.762, 16.71801
1045.244, 16.81687
1045.726, 17.18633
1046.208, 17.37049
1046.690, 17.19086
1047.173, 17.07203
1047.655, 17.06292
1048.137, 17.10118
1048.619, 17.14897
1049.101, 17.23527
1049.583, 17.41748
1050.065, 17.68470
1050.547, 17.92015
1051.030, 18.11514
1051.512, 18.26895
1051.994, 18.24082
1052.476, 18.33485
1052.958, 18.77639
1053.440, 19.37289
1053.922, 19.93531
1054.404, 20.43732
1054.886, 20.82231
1055.369, 20.88540
1055.851, 21.19413
1056.333, 21.97909
1056.815, 22.92460
1057.297, 23.93572
1057.779, 24.96065
1058.261, 25.89363
1058.743, 26.77809
1059.225, 27.86643
1059.708, 29.26056
1060.190, 30.74764
1060.672, 32.29070
1061.154, 33.87858
1061.636, 35.59636
1062.118, 37.29520
1062.600, 38.70719
1063.082, 39.92431
1063.565, 41.36671
1064.047, 43.21423
1064.529, 45.12319
1065.011, 46.99076
1065.493, 48.87394
1065.975, 50.83327
1066.457, 52.80898
1066.939, 54.69455
1067.422, 56.52261
1067.904, 58.45675
1068.386, 60.59784
1068.868, 62.59215
1069.350, 64.26059
1069.832, 65.76987
1070.314, 67.33242
1070.796, 68.69898
1071.278, 69.59619
1071.760, 70.05593
1072.243, 70.34327
1072.725, 70.61026
1073.207, 70.10289
1073.689, 68.53916
1074.171, 66.05230
1074.653, 62.34132
1075.135, 58.03496
1075.617, 53.47120
1076.100, 48.89753
1076.582, 44.77731
1077.064, 41.23108
1077.546, 38.01759
1078.028, 34.85927
1078.510, 32.19248
1078.992, 30.46277
1079.474, 29.15393
1079.957, 27.77878
1080.439, 26.43034
1080.921, 25.40051
1081.403, 24.75079
1081.885, 24.31091
1082.367, 24.19439
1082.849, 24.02194
1083.331, 23.46652
1083.813, 22.90336
1084.296, 22.75440
1084.778, 22.78997
1085.260, 22.53369
1085.742, 21.93192
1086.224, 21.42205
1086.706, 21.25459
1087.188, 21.09853
1087.670, 20.68847
1088.152, 20.34673
1088.635, 20.40118
1089.117, 20.64226
1089.599, 20.75473
1090.081, 20.70900
1090.563, 20.65228
1091.045, 20.63139
1091.527, 20.61608
1092.009, 20.55318
1092.491, 20.53618
1092.974, 20.67913
1093.456, 20.86852
1093.938, 20.96833
1094.420, 20.97646
1094.902, 20.96366
1095.384, 20.95522
1095.866, 20.90594
1096.348, 20.71737
1096.831, 20.58095
1097.313, 20.62406
1097.795, 20.74969
1098.277, 20.85814
1098.759, 20.95831
1099.241, 21.13833
1099.723, 21.45892
1100.205, 21.59643
1100.688, 21.30074
1101.170, 20.99960
1101.652, 20.88186
1102.134, 20.81630
1102.616, 20.65959
1103.098, 20.48196
1103.580, 20.46701
1104.062, 20.65116
1104.544, 20.73964
1105.026, 20.58387
1105.509, 20.43699
1105.991, 20.35497
1106.473, 20.31794
1106.955, 20.35288
1107.437, 20.40276
1107.919, 20.36205
1108.401, 20.23324
1108.883, 20.18613
1109.366, 20.36743
1109.848, 20.44462
1110.330, 20.28648
1110.812, 20.11629
1111.294, 19.96834
1111.776, 19.90975
1112.258, 20.10604
1112.740, 20.48046
1113.223, 20.59522
1113.705, 20.26688
1114.187, 20.02719
1114.669, 20.00959
1115.151, 19.94345
1115.633, 19.59563
1116.115, 19.31217
1116.597, 19.47448
1117.079, 19.89361
1117.562, 20.04531
1118.044, 19.84507
1118.526, 19.74615
1119.008, 19.89042
1119.490, 19.88518
1119.972, 19.54922
1120.454, 19.20511
1120.936, 19.01158
1121.418, 18.95748
1121.901, 19.07397
1122.383, 19.36899
1122.865, 19.38492
1123.347, 18.95920
1123.829, 18.68107
1124.311, 18.66071
1124.793, 18.67223
1125.275, 18.63124
1125.758, 18.54565
1126.240, 18.39689
1126.722, 18.22057
1127.204, 18.25092
1127.686, 18.59092
1128.168, 18.58895
1128.650, 18.10586
1129.132, 17.78424
1129.615, 17.85294
1130.097, 18.02042
1130.579, 18.06477
1131.061, 18.00708
1131.543, 17.87077
1132.025, 17.65314
1132.507, 17.60563
1132.989, 17.74461
1133.471, 17.78291
1133.953, 17.65772
1134.436, 17.50983
1134.918, 17.42146
1135.400, 17.33677
1135.882, 17.15515
1136.364, 16.92411
1136.846, 16.87587
1137.328, 16.98520
1137.810, 17.02895
1138.293, 16.98674
1138.775, 16.93489
1139.257, 16.90283
1139.739, 16.88357
1140.221, 16.87059
1140.703, 16.86545
1141.185, 16.89985
1141.667, 16.93739
1142.150, 16.83949
1142.632, 16.63934
1143.114, 16.48166
1143.596, 16.40228
1144.078, 16.37609
1144.560, 16.39002
1145.042, 16.42861
1145.524, 16.52168
1146.006, 16.59184
1146.489, 16.46651
1146.971, 16.24813
1147.453, 16.16857
1147.935, 16.20245
1148.417, 16.14366
1148.899, 15.92611
1149.381, 15.72893
1149.863, 15.71066
1150.345, 15.72891
1150.828, 15.66286
1151.310, 15.55646
1151.792, 15.42288
1152.274, 15.30480
1152.756, 15.29896
1153.238, 15.39249
1153.720, 15.41981
1154.202, 15.26650
1154.685, 15.17734
1155.167, 15.40291
1155.649, 15.58974
1156.131, 15.43618
1156.613, 15.18261
1157.095, 15.07376
1157.577, 15.10216
1158.059, 15.18516
1158.542, 15.31585
1159.024, 15.43070
1159.506, 15.57386
1159.988, 15.61554
1160.470, 15.43272
1160.952, 15.23133
1161.434, 15.14329
1161.916, 15.11158
1162.398, 15.03839
1162.880, 14.92670
1163.363, 14.87656
1163.845, 14.91983
1164.327, 14.96814
1164.809, 15.03735
1165.291, 15.08471
1165.773, 15.10537
1166.255, 15.08112
1166.737, 14.95580
1167.220, 14.80951
1167.702, 14.86345
1168.184, 15.14643
1168.666, 15.32403
1169.148, 15.38853
1169.630, 15.37855
1170.112, 15.28874
1170.594, 15.16307
1171.077, 15.00038
1171.559, 14.92595
1172.041, 15.13233
1172.523, 15.50880
1173.005, 15.59927
1173.487, 15.43341
1173.969, 15.43026
1174.451, 15.59561
1174.933, 15.59984
1175.416, 15.36069
1175.898, 15.15450
1176.380, 15.17595
1176.862, 15.30943
1177.344, 15.43238
1177.826, 15.51744
1178.308, 15.46608
1178.790, 15.33353
1179.272, 15.24452
1179.755, 15.22079
1180.237, 15.28350
1180.719, 15.42825
1181.201, 15.51108
1181.683, 15.38569
1182.165, 15.22663
1182.647, 15.16812
1183.129, 15.19786
1183.612, 15.38175
1184.094, 15.60094
1184.576, 15.65692
1185.058, 15.54885
1185.540, 15.38391
1186.022, 15.15388
1186.504, 15.10507
1186.986, 15.58988
1187.469, 15.96819
1187.951, 15.84305
1188.433, 15.56553
1188.915, 15.35132
1189.397, 15.22976
1189.879, 15.25543
1190.361, 15.42809
1190.843, 15.47810
1191.325, 15.17647
1191.807, 15.09154
1192.290, 15.50774
1192.772, 15.75004
1193.254, 15.48153
1193.736, 15.10989
1194.218, 14.95442
1194.700, 14.98505
1195.182, 15.15548
1195.664, 15.49215
1196.147, 15.61048
1196.629, 15.45521
1197.111, 15.39169
1197.593, 15.49132
1198.075, 15.58480
1198.557, 15.59449
1199.039, 15.54331
1199.521, 15.43736
1200.004, 15.33248
1200.486, 15.41875
1200.968, 15.64797
1201.450, 15.76878
1201.932, 15.78411
1202.414, 15.76183
1202.896, 15.72532
1203.378, 15.70053
1203.860, 15.70120
1204.343, 15.74203
1204.825, 15.89385
1205.307, 16.04148
1205.789, 16.01078
1206.271, 15.88748
1206.753, 15.74243
1207.235, 15.63388
1207.717, 15.70286
1208.199, 15.93400
1208.682, 16.05321
1209.164, 15.89780
1209.646, 15.74889
1210.128, 15.77074
1210.610, 15.81087
1211.092, 15.77684
1211.574, 15.72224
1212.056, 15.71353
1212.539, 15.72219
1213.021, 15.64585
1213.503, 15.46127
1213.985, 15.44848
1214.467, 15.80804
1214.949, 16.03711
1215.431, 16.03438
1215.913, 16.03194
1216.396, 16.15931
1216.878, 16.22940
1217.360, 16.01860
1217.842, 15.68931
1218.324, 15.69662
1218.806, 16.05142
1219.288, 16.21158
1219.770, 16.16665
1220.252, 16.06464
1220.734, 15.92596
1221.217, 15.86893
1221.699, 15.94661
1222.181, 16.05492
1222.663, 16.08991
1223.145, 16.09707
1223.627, 16.17243
1224.109, 16.28027
1224.591, 16.32856
1225.074, 16.33775
1225.556, 16.37563
1226.038, 16.44425
1226.520, 16.50446
1227.002, 16.54032
1227.484, 16.54617
1227.966, 16.52216
1228.448, 16.46144
1228.931, 16.27893
1229.413, 16.13749
1229.895, 16.25098
1230.377, 16.45416
1230.859, 16.53072
1231.341, 16.46544
1231.823, 16.28780
1232.305, 15.90567
1232.787, 15.77591
1233.270, 16.22322
1233.752, 16.52801
1234.234, 16.49072
1234.716, 16.37690
1235.198, 16.29491
1235.680, 16.23887
1236.162, 16.19701
1236.644, 16.17731
1237.126, 16.22724
1237.609, 16.35612
1238.091, 16.46868
1238.573, 16.56553
1239.055, 16.56665
1239.537, 16.45414
1240.019, 16.39034
1240.501, 16.46696
1240.983, 16.54516
1241.466, 16.42952
1241.948, 16.26444
1242.430, 16.36333
1242.912, 16.60138
1243.394, 16.74433
1243.876, 16.79255
1244.358, 16.77869
1244.840, 16.72585
1245.323, 16.67452
1245.805, 16.63807
1246.287, 16.64579
1246.769, 16.81948
1247.251, 16.90523
1247.733, 16.59395
1248.215, 16.31068
1248.697, 16.52618
1249.179, 16.88997
1249.661, 16.79700
1250.144, 16.32680
1250.626, 16.23254
1251.108, 16.75477
1251.590, 17.00603
1252.072, 16.89232
1252.554, 16.69706
1253.036, 16.38825
1253.518, 16.24864
1254.001, 16.47699
1254.483, 16.77338
1254.965, 16.75555
1255.447, 16.56374
1255.929, 16.70091
1256.411, 17.09017
1256.893, 17.12444
1257.375, 16.85977
1257.858, 16.72598
1258.340, 16.78491
1258.822, 16.84719
1259.304, 16.82983
1259.786, 16.84032
1260.268, 17.00472
1260.750, 17.17365
1261.232, 17.19760
1261.714, 17.14827
1262.197, 17.05862
1262.679, 16.97385
1263.161, 16.94547
1263.643, 16.97259
1264.125, 17.05133
1264.607, 17.19830
1265.089, 17.23855
1265.571, 16.99098
1266.053, 16.86917
1266.536, 17.05659
1267.018, 17.19301
1267.500, 17.09231
1267.982, 16.96746
1268.464, 17.02707
1268.946, 17.18529
1269.428, 17.23585
1269.910, 17.18172
1270.393, 17.06719
1270.875, 16.89813
1271.357, 16.86455
1271.839, 16.97584
1272.321, 17.06285
1272.803, 17.07204
1273.285, 17.11031
1273.767, 17.26818
1274.250, 17.40930
1274.732, 17.31150
1275.214, 17.16995
1275.696, 17.23641
1276.178, 17.39837
1276.660, 17.55190
1277.142, 17.64784
1277.624, 17.60175
1278.106, 17.42014
1278.589, 17.26128
1279.071, 17.15845
1279.553, 17.10155
1280.035, 17.09356
1280.517, 17.12772
1280.999, 17.24308
1281.481, 17.33603
1281.963, 17.32785
1282.445, 17.29343
1282.928, 17.33874
1283.410, 17.44161
1283.892, 17.50442
1284.374, 17.52750
1284.856, 17.53183
1285.338, 17.51627
1285.820, 17.41193
1286.302, 17.23345
1286.785, 17.26822
1287.267, 17.63178
1287.749, 17.92882
1288.231, 17.87834
##END=



