##NAMES=Thenardite
##RRUFFID=R040178
##IDEAL CHEMISTRY=Na_2_S^6+^O_4_
##LOCALITY=Bonita Flow, Flagstaff, Coconino County, Arizona, USA
##OWNER=RRUFF
##SOURCE=University of Arizona Mineral Museum
##DESCRIPTION=Tan colored powder
##STATUS=The identification of this mineral has been confirmed by X-ray diffraction.
##URL=rruff.info/R040178
160.2684, 7664.830
160.7505, 7696.265
161.2326, 7741.351
161.7148, 7782.310
162.1969, 7809.361
162.6790, 7829.729
163.1611, 7850.084
163.6432, 7867.971
164.1253, 7890.321
164.6075, 7924.277
165.0896, 7970.219
165.5717, 8012.839
166.0538, 8041.939
166.5359, 8062.623
167.0180, 8082.329
167.5002, 8099.322
167.9823, 8119.668
168.4644, 8150.572
168.9465, 8194.231
169.4286, 8236.826
169.9107, 8266.654
170.3929, 8287.747
170.8750, 8309.382
171.3571, 8337.428
171.8392, 8367.647
172.3213, 8395.630
172.8034, 8420.468
173.2856, 8443.293
173.7677, 8464.280
174.2498, 8483.896
174.7319, 8503.351
175.2140, 8521.165
175.6961, 8539.794
176.1783, 8563.559
176.6604, 8594.432
177.1425, 8628.006
177.6246, 8662.432
178.1067, 8696.358
178.5888, 8723.264
179.0710, 8731.177
179.5531, 8728.195
180.0352, 8732.296
180.5173, 8749.369
180.9994, 8773.846
181.4815, 8799.608
181.9637, 8826.666
182.4458, 8848.147
182.9279, 8850.811
183.4100, 8841.098
183.8921, 8844.001
184.3742, 8872.487
184.8564, 8915.622
185.3385, 8949.355
185.8206, 8973.971
186.3027, 8989.271
186.7848, 8987.872
187.2669, 8972.913
187.7491, 8968.280
188.2312, 8986.034
188.7133, 9020.632
189.1954, 9053.660
189.6775, 9085.308
190.1596, 9113.567
190.6418, 9135.811
191.1239, 9152.001
191.6060, 9165.448
192.0881, 9177.052
192.5702, 9186.879
193.0524, 9194.830
193.5345, 9200.089
194.0166, 9205.528
194.4987, 9213.724
194.9808, 9224.373
195.4629, 9242.435
195.9451, 9277.056
196.4272, 9328.038
196.9093, 9356.315
197.3914, 9353.816
197.8735, 9339.379
198.3556, 9353.661
198.8378, 9402.021
199.3199, 9444.739
199.8020, 9453.809
200.2841, 9425.882
200.7662, 9414.781
201.2483, 9428.061
201.7305, 9455.734
202.2126, 9471.720
202.6947, 9472.432
203.1768, 9474.841
203.6589, 9491.408
204.1410, 9524.636
204.6232, 9553.158
205.1053, 9574.602
205.5874, 9590.352
206.0695, 9603.628
206.5516, 9612.503
207.0337, 9623.971
207.5159, 9643.632
207.9980, 9672.552
208.4801, 9704.014
208.9622, 9741.583
209.4443, 9780.978
209.9264, 9797.547
210.4086, 9781.696
210.8907, 9762.268
211.3728, 9765.335
211.8549, 9801.646
212.3370, 9822.420
212.8191, 9813.655
213.3013, 9780.770
213.7834, 9770.190
214.2655, 9788.516
214.7476, 9818.668
215.2297, 9847.582
215.7118, 9877.569
216.1940, 9900.313
216.6761, 9912.421
217.1582, 9914.522
217.6403, 9919.243
218.1224, 9926.868
218.6045, 9936.644
219.0867, 9949.192
219.5688, 9968.297
220.0509, 9980.458
220.5330, 9979.126
221.0151, 9963.740
221.4972, 9961.823
221.9794, 9979.688
222.4615, 10003.93
222.9436, 10019.96
223.4257, 10023.10
223.9078, 10027.89
224.3899, 10038.67
224.8721, 10056.42
225.3542, 10068.37
225.8363, 10070.05
226.3184, 10070.28
226.8005, 10080.20
227.2827, 10104.36
227.7648, 10129.55
228.2469, 10152.64
228.7290, 10173.24
229.2111, 10194.06
229.6932, 10215.02
230.1754, 10236.02
230.6575, 10258.62
231.1396, 10289.22
231.6217, 10309.42
232.1038, 10310.42
232.5859, 10286.27
233.0681, 10275.92
233.5502, 10286.61
234.0323, 10305.89
234.5144, 10313.64
234.9965, 10294.91
235.4786, 10290.28
235.9608, 10317.86
236.4429, 10389.01
236.9250, 10437.22
237.4071, 10453.76
237.8892, 10452.35
238.3713, 10454.02
238.8535, 10459.50
239.3356, 10466.92
239.8177, 10476.87
240.2998, 10491.61
240.7819, 10498.62
241.2640, 10488.28
241.7462, 10475.89
242.2283, 10491.90
242.7104, 10562.51
243.1925, 10618.21
243.6746, 10631.96
244.1567, 10587.83
244.6389, 10554.89
245.1210, 10531.12
245.6031, 10519.64
246.0852, 10528.10
246.5673, 10565.92
247.0494, 10607.93
247.5316, 10649.37
248.0137, 10698.07
248.4958, 10716.52
248.9779, 10686.70
249.4600, 10636.66
249.9421, 10621.50
250.4243, 10660.15
250.9064, 10699.47
251.3885, 10717.89
251.8706, 10705.33
252.3527, 10707.33
252.8348, 10733.25
253.3170, 10767.92
253.7991, 10779.03
254.2812, 10750.24
254.7633, 10729.08
255.2454, 10736.07
255.7275, 10780.76
256.2097, 10818.38
256.6918, 10848.29
257.1739, 10871.19
257.6560, 10888.50
258.1381, 10899.91
258.6202, 10906.35
259.1024, 10907.59
259.5845, 10902.51
260.0666, 10895.14
260.5487, 10879.23
261.0308, 10865.83
261.5129, 10879.40
261.9951, 10933.48
262.4772, 10981.89
262.9593, 11004.48
263.4414, 10995.70
263.9235, 10987.66
264.4056, 10978.70
264.8878, 10971.98
265.3699, 10974.44
265.8520, 10989.74
266.3341, 11003.62
266.8162, 11006.51
267.2983, 10993.43
267.7805, 11004.04
268.2626, 11047.48
268.7447, 11104.38
269.2268, 11142.30
269.7089, 11159.07
270.1910, 11164.43
270.6732, 11157.83
271.1553, 11136.94
271.6374, 11127.80
272.1195, 11132.33
272.6016, 11145.83
273.0837, 11163.55
273.5659, 11187.75
274.0480, 11204.88
274.5301, 11205.02
275.0122, 11187.09
275.4943, 11185.58
275.9764, 11204.36
276.4586, 11232.23
276.9407, 11252.77
277.4228, 11264.94
277.9049, 11276.65
278.3870, 11290.51
278.8691, 11306.47
279.3513, 11323.25
279.8334, 11340.73
280.3155, 11359.39
280.7976, 11382.84
281.2798, 11411.40
281.7619, 11432.35
282.2440, 11436.10
282.7261, 11425.96
283.2082, 11430.69
283.6903, 11454.19
284.1725, 11478.14
284.6546, 11472.03
285.1367, 11437.53
285.6188, 11417.34
286.1009, 11433.30
286.5830, 11476.47
287.0652, 11510.33
287.5473, 11534.56
288.0294, 11549.59
288.5115, 11550.23
288.9936, 11538.67
289.4757, 11533.10
289.9579, 11542.81
290.4400, 11562.05
290.9221, 11575.17
291.4042, 11581.91
291.8863, 11586.12
292.3684, 11594.59
292.8506, 11604.82
293.3327, 11605.00
293.8148, 11581.12
294.2969, 11550.81
294.7790, 11554.83
295.2611, 11593.31
295.7433, 11632.36
296.2254, 11637.29
296.7075, 11619.02
297.1896, 11607.39
297.6717, 11607.96
298.1538, 11621.96
298.6360, 11659.17
299.1181, 11717.74
299.6002, 11771.68
300.0823, 11804.81
300.5644, 11819.26
301.0465, 11817.52
301.5287, 11791.26
302.0108, 11760.42
302.4929, 11747.15
302.9750, 11749.69
303.4571, 11758.67
303.9392, 11766.01
304.4214, 11776.45
304.9035, 11798.64
305.3856, 11842.06
305.8677, 11884.96
306.3498, 11902.78
306.8319, 11901.95
307.3141, 11905.52
307.7962, 11939.96
308.2783, 11979.26
308.7604, 11996.53
309.2425, 11979.38
309.7246, 11954.02
310.2068, 11930.16
310.6889, 11910.23
311.1710, 11900.10
311.6531, 11903.68
312.1352, 11917.48
312.6173, 11942.09
313.0995, 11982.97
313.5816, 12017.95
314.0637, 12030.75
314.5458, 12030.88
315.0279, 12036.38
315.5100, 12067.01
315.9922, 12095.13
316.4743, 12102.93
316.9564, 12082.68
317.4385, 12065.79
317.9206, 12061.81
318.4027, 12067.58
318.8849, 12078.69
319.3670, 12102.84
319.8491, 12124.33
320.3312, 12133.00
320.8133, 12123.91
321.2954, 12128.31
321.7776, 12165.00
322.2597, 12213.24
322.7418, 12250.93
323.2239, 12283.54
323.7060, 12296.71
324.1881, 12272.58
324.6703, 12205.19
325.1524, 12173.18
325.6345, 12223.75
326.1166, 12289.96
326.5987, 12318.20
327.0808, 12268.93
327.5630, 12227.72
328.0451, 12201.90
328.5272, 12191.46
329.0093, 12197.31
329.4914, 12231.37
329.9735, 12270.67
330.4557, 12299.89
330.9378, 12311.34
331.4199, 12326.30
331.9020, 12348.41
332.3841, 12375.68
332.8662, 12397.54
333.3484, 12408.47
333.8305, 12422.05
334.3126, 12451.51
334.7947, 12512.61
335.2768, 12536.14
335.7589, 12501.34
336.2411, 12436.62
336.7232, 12417.18
337.2053, 12457.20
337.6874, 12501.58
338.1695, 12522.94
338.6516, 12517.67
339.1338, 12520.82
339.6159, 12536.99
340.0980, 12555.22
340.5801, 12549.98
341.0622, 12517.13
341.5443, 12499.10
342.0265, 12522.70
342.5086, 12581.71
342.9907, 12618.85
343.4728, 12631.64
343.9549, 12631.01
344.4370, 12624.86
344.9192, 12614.30
345.4013, 12610.57
345.8834, 12622.43
346.3655, 12642.67
346.8476, 12647.90
347.3297, 12637.46
347.8119, 12630.57
348.2940, 12651.28
348.7761, 12690.96
349.2582, 12723.59
349.7403, 12743.33
350.2225, 12751.94
350.7046, 12742.78
351.1867, 12719.17
351.6688, 12707.55
352.1509, 12741.94
352.6331, 12796.59
353.1152, 12831.93
353.5973, 12834.31
354.0794, 12824.56
354.5615, 12815.24
355.0436, 12807.77
355.5258, 12806.49
356.0079, 12818.06
356.4900, 12834.46
356.9721, 12848.86
357.4542, 12859.81
357.9363, 12870.07
358.4185, 12879.31
358.9006, 12889.12
359.3827, 12902.24
359.8648, 12925.61
360.3469, 12947.92
360.8290, 12962.51
361.3112, 12967.95
361.7933, 12972.48
362.2754, 12978.97
362.7575, 12985.89
363.2396, 12991.63
363.7217, 12987.70
364.2039, 12990.60
364.6860, 13012.04
365.1681, 13052.38
365.6502, 13075.08
366.1323, 13052.15
366.6144, 13024.90
367.0966, 13021.96
367.5787, 13072.19
368.0608, 13112.44
368.5429, 13136.02
369.0250, 13145.71
369.5071, 13155.62
369.9893, 13170.66
370.4714, 13180.23
370.9535, 13177.16
371.4356, 13149.91
371.9177, 13136.92
372.3998, 13143.20
372.8820, 13161.72
373.3641, 13176.98
373.8462, 13187.56
374.3283, 13198.53
374.8104, 13213.95
375.2925, 13235.29
375.7747, 13242.37
376.2568, 13229.55
376.7389, 13213.71
377.2210, 13219.26
377.7031, 13247.53
378.1852, 13278.69
378.6674, 13311.49
379.1495, 13342.14
379.6316, 13350.38
380.1137, 13333.79
380.5958, 13316.05
381.0779, 13322.41
381.5601, 13348.14
382.0422, 13369.60
382.5243, 13381.99
383.0064, 13387.47
383.4885, 13385.24
383.9706, 13376.90
384.4528, 13374.35
384.9349, 13391.64
385.4170, 13418.53
385.8991, 13438.82
386.3812, 13450.23
386.8633, 13455.09
387.3455, 13448.19
387.8276, 13436.08
388.3097, 13433.74
388.7918, 13449.48
389.2739, 13477.65
389.7560, 13519.74
390.2382, 13577.76
390.7203, 13626.25
391.2024, 13649.43
391.6845, 13656.14
392.1666, 13656.71
392.6487, 13651.17
393.1309, 13643.04
393.6130, 13632.74
394.0951, 13620.48
394.5772, 13608.98
395.0593, 13583.29
395.5414, 13568.40
396.0236, 13580.33
396.5057, 13662.28
396.9878, 13722.60
397.4699, 13742.24
397.9520, 13732.50
398.4341, 13729.08
398.9163, 13740.94
399.3984, 13749.72
399.8805, 13745.91
400.3626, 13718.42
400.8447, 13713.13
401.3268, 13744.57
401.8090, 13787.50
402.2911, 13803.41
402.7732, 13778.22
403.2553, 13763.04
403.7374, 13776.16
404.2195, 13815.28
404.7017, 13835.84
405.1838, 13832.62
405.6659, 13825.01
406.1480, 13830.09
406.6301, 13847.96
407.1122, 13871.53
407.5944, 13903.06
408.0765, 13936.03
408.5586, 13949.75
409.0407, 13944.71
409.5228, 13944.22
410.0049, 13971.55
410.4871, 14015.45
410.9692, 14042.55
411.4513, 14046.79
411.9334, 14045.29
412.4155, 14058.45
412.8976, 14082.15
413.3798, 14103.89
413.8619, 14113.90
414.3440, 14121.81
414.8261, 14142.29
415.3082, 14175.54
415.7903, 14200.48
416.2725, 14203.04
416.7546, 14190.07
417.2367, 14168.17
417.7188, 14115.08
418.2009, 14080.84
418.6830, 14102.14
419.1652, 14165.20
419.6473, 14218.79
420.1294, 14238.53
420.6115, 14249.99
421.0937, 14267.47
421.5758, 14295.90
422.0579, 14322.99
422.5400, 14349.58
423.0221, 14373.45
423.5042, 14391.23
423.9864, 14389.39
424.4685, 14396.47
424.9506, 14422.36
425.4327, 14468.74
425.9148, 14507.75
426.3969, 14535.83
426.8791, 14560.60
427.3612, 14590.64
427.8433, 14632.54
428.3254, 14656.32
428.8075, 14647.83
429.2896, 14622.14
429.7718, 14634.35
430.2539, 14690.18
430.7360, 14752.94
431.2181, 14801.10
431.7002, 14835.65
432.1823, 14869.40
432.6645, 14901.51
433.1466, 14937.91
433.6287, 14986.78
434.1108, 15046.82
434.5929, 15112.66
435.0750, 15185.24
435.5572, 15260.29
436.0393, 15330.68
436.5214, 15396.47
437.0035, 15459.49
437.4856, 15519.02
437.9677, 15576.68
438.4499, 15633.00
438.9320, 15682.14
439.4141, 15740.10
439.8962, 15818.50
440.3783, 15914.28
440.8604, 16021.89
441.3426, 16148.87
441.8247, 16277.96
442.3068, 16399.78
442.7889, 16512.99
443.2710, 16620.41
443.7531, 16731.56
444.2353, 16833.59
444.7174, 16914.23
445.1995, 16941.87
445.6816, 16979.36
446.1637, 17039.78
446.6458, 17120.71
447.1280, 17204.61
447.6101, 17304.94
448.0922, 17393.67
448.5743, 17453.21
449.0564, 17474.57
449.5385, 17492.05
450.0207, 17507.66
450.5028, 17518.77
450.9849, 17521.88
451.4670, 17518.35
451.9491, 17499.52
452.4312, 17455.67
452.9134, 17391.23
453.3955, 17340.87
453.8776, 17306.27
454.3597, 17274.93
454.8418, 17229.86
455.3239, 17176.37
455.8061, 17138.75
456.2882, 17124.00
456.7703, 17124.43
457.2524, 17135.20
457.7345, 17153.45
458.2166, 17167.79
458.6988, 17156.72
459.1809, 17145.49
459.6630, 17170.11
460.1451, 17240.71
460.6272, 17300.52
461.1093, 17294.30
461.5915, 17262.17
462.0736, 17254.10
462.5557, 17321.81
463.0378, 17381.88
463.5199, 17405.98
464.0020, 17395.46
464.4842, 17364.77
464.9663, 17303.49
465.4484, 17232.63
465.9305, 17162.02
466.4126, 17084.21
466.8947, 17020.09
467.3769, 16986.48
467.8590, 16959.47
468.3411, 16895.98
468.8232, 16775.21
469.3053, 16659.45
469.7874, 16563.67
470.2696, 16487.26
470.7517, 16422.25
471.2338, 16373.95
471.7159, 16321.37
472.1980, 16238.34
472.6801, 16125.74
473.1623, 16038.88
473.6444, 15990.37
474.1265, 15959.99
474.6086, 15914.29
475.0907, 15855.27
475.5728, 15795.87
476.0550, 15727.68
476.5371, 15668.60
477.0192, 15660.38
477.5013, 15705.00
477.9834, 15745.68
478.4655, 15733.03
478.9477, 15691.80
479.4298, 15654.49
479.9119, 15632.59
480.3940, 15613.97
480.8761, 15589.44
481.3582, 15562.90
481.8404, 15546.00
482.3225, 15544.80
482.8046, 15552.25
483.2867, 15567.90
483.7688, 15596.75
484.2509, 15616.13
484.7331, 15624.29
485.2152, 15621.89
485.6973, 15607.52
486.1794, 15564.29
486.6615, 15539.00
487.1436, 15545.88
487.6258, 15575.95
488.1079, 15584.66
488.5900, 15565.23
489.0721, 15542.93
489.5542, 15532.90
490.0363, 15535.25
490.5185, 15529.96
491.0006, 15513.73
491.4827, 15499.32
491.9648, 15506.89
492.4470, 15532.76
492.9291, 15556.58
493.4112, 15568.38
493.8933, 15576.58
494.3754, 15595.75
494.8575, 15624.21
495.3397, 15650.27
495.8218, 15665.52
496.3039, 15675.04
496.7860, 15685.63
497.2681, 15700.70
497.7502, 15708.10
498.2324, 15690.81
498.7145, 15664.98
499.1966, 15652.24
499.6787, 15669.38
500.1608, 15690.24
500.6429, 15714.22
501.1251, 15739.62
501.6072, 15743.75
502.0893, 15695.28
502.5714, 15651.68
503.0535, 15642.34
503.5356, 15688.88
504.0178, 15717.48
504.4999, 15722.31
504.9820, 15714.21
505.4641, 15707.98
505.9462, 15703.07
506.4283, 15703.70
506.9105, 15714.97
507.3926, 15731.87
507.8747, 15724.91
508.3568, 15691.87
508.8389, 15676.77
509.3210, 15739.73
509.8032, 15845.72
510.2853, 15891.41
510.7674, 15854.36
511.2495, 15797.76
511.7316, 15772.72
512.2137, 15776.70
512.6959, 15804.48
513.1780, 15887.72
513.6601, 15965.88
514.1422, 15993.98
514.6243, 15977.79
515.1064, 15959.33
515.5886, 15955.35
516.0707, 15953.94
516.5528, 15947.21
517.0349, 15928.55
517.5170, 15916.12
517.9991, 15914.50
518.4813, 15918.99
518.9634, 15923.54
519.4455, 15923.91
519.9276, 15931.89
520.4097, 15952.21
520.8918, 15982.50
521.3740, 16011.08
521.8561, 16039.38
522.3382, 16061.24
522.8203, 16073.98
523.3024, 16077.35
523.7845, 16064.18
524.2667, 16029.78
524.7488, 15994.88
525.2309, 15986.77
525.7130, 15999.48
526.1951, 16011.60
526.6772, 16008.01
527.1594, 16007.65
527.6415, 16041.07
528.1236, 16100.29
528.6057, 16151.05
529.0878, 16163.02
529.5699, 16165.67
530.0521, 16185.42
530.5342, 16233.51
531.0163, 16263.53
531.4984, 16243.59
531.9805, 16205.64
532.4626, 16183.63
532.9448, 16194.06
533.4269, 16206.59
533.9090, 16221.76
534.3911, 16237.01
534.8732, 16240.59
535.3553, 16225.53
535.8375, 16211.77
536.3196, 16206.76
536.8017, 16210.37
537.2838, 16226.16
537.7659, 16257.68
538.2480, 16290.25
538.7302, 16307.93
539.2123, 16312.32
539.6944, 16311.41
540.1765, 16302.23
540.6586, 16297.10
541.1407, 16319.76
541.6229, 16363.02
542.1050, 16401.29
542.5871, 16416.52
543.0692, 16423.48
543.5513, 16435.54
544.0334, 16453.26
544.5156, 16468.29
544.9977, 16475.36
545.4798, 16478.89
545.9619, 16481.70
546.4440, 16476.49
546.9261, 16482.21
547.4083, 16524.61
547.8904, 16574.83
548.3725, 16578.17
548.8546, 16500.22
549.3367, 16431.13
549.8188, 16388.14
550.3010, 16371.55
550.7831, 16392.91
551.2652, 16463.86
551.7473, 16534.14
552.2294, 16561.61
552.7115, 16551.35
553.1937, 16553.72
553.6758, 16574.40
554.1579, 16600.72
554.6400, 16614.86
555.1221, 16621.76
555.6042, 16635.94
556.0864, 16672.47
556.5685, 16708.74
557.0506, 16720.60
557.5327, 16712.89
558.0148, 16703.32
558.4969, 16690.41
558.9791, 16685.94
559.4612, 16702.74
559.9433, 16748.88
560.4254, 16780.18
560.9075, 16782.05
561.3896, 16768.97
561.8718, 16751.91
562.3539, 16705.80
562.8360, 16702.55
563.3181, 16773.93
563.8002, 16878.68
564.2823, 16907.44
564.7645, 16840.37
565.2466, 16785.94
565.7287, 16794.64
566.2108, 16851.75
566.6929, 16883.69
567.1750, 16889.25
567.6572, 16890.91
568.1393, 16913.92
568.6214, 16945.30
569.1035, 16954.72
569.5856, 16932.46
570.0677, 16908.95
570.5499, 16905.06
571.0320, 16917.36
571.5141, 16940.30
571.9962, 16987.38
572.4783, 17029.24
572.9604, 17050.23
573.4426, 17054.06
573.9247, 17061.19
574.4068, 17084.53
574.8889, 17102.59
575.3710, 17104.91
575.8531, 17086.89
576.3353, 17077.05
576.8174, 17076.30
577.2995, 17082.53
577.7816, 17098.02
578.2637, 17124.74
578.7458, 17136.34
579.2280, 17124.33
579.7101, 17104.19
580.1922, 17100.44
580.6743, 17112.43
581.1564, 17136.35
581.6385, 17185.02
582.1207, 17236.89
582.6028, 17259.36
583.0849, 17255.39
583.5670, 17249.77
584.0491, 17264.30
584.5313, 17278.37
585.0134, 17271.56
585.4955, 17229.89
585.9776, 17203.44
586.4597, 17213.34
586.9418, 17241.72
587.4240, 17268.31
587.9061, 17288.33
588.3882, 17313.90
588.8703, 17355.10
589.3524, 17400.31
589.8345, 17410.01
590.3167, 17374.01
590.7988, 17341.29
591.2809, 17331.74
591.7630, 17342.99
592.2451, 17368.13
592.7272, 17407.69
593.2094, 17448.09
593.6915, 17477.79
594.1736, 17500.33
594.6557, 17523.41
595.1378, 17549.05
595.6199, 17570.08
596.1021, 17579.71
596.5842, 17581.58
597.0663, 17580.86
597.5485, 17573.88
598.0306, 17570.33
598.5127, 17573.04
598.9948, 17581.71
599.4769, 17594.55
599.9590, 17606.90
600.4412, 17628.92
600.9233, 17666.49
601.4054, 17721.17
601.8875, 17769.95
602.3696, 17812.99
602.8517, 17848.80
603.3339, 17867.49
603.8160, 17871.78
604.2981, 17900.54
604.7802, 17962.36
605.2623, 18033.35
605.7444, 18073.55
606.2266, 18097.34
606.7087, 18140.83
607.1908, 18218.09
607.6729, 18320.21
608.1550, 18462.77
608.6371, 18628.45
609.1193, 18765.83
609.6014, 18821.71
610.0835, 18871.38
610.5656, 18947.36
611.0477, 19053.75
611.5298, 19173.63
612.0120, 19321.22
612.4941, 19465.88
612.9762, 19583.43
613.4583, 19663.42
613.9404, 19753.98
614.4225, 19860.40
614.9047, 19971.00
615.3868, 20058.07
615.8689, 20126.63
616.3510, 20236.35
616.8331, 20419.02
617.3152, 20632.35
617.7974, 20822.99
618.2795, 20990.46
618.7616, 21143.19
619.2437, 21311.89
619.7258, 21447.29
620.2079, 21510.96
620.6901, 21500.43
621.1722, 21450.23
621.6543, 21352.19
622.1364, 21232.01
622.6185, 21106.06
623.1006, 20971.91
623.5828, 20835.21
624.0649, 20675.07
624.5470, 20531.55
625.0291, 20456.79
625.5112, 20460.08
625.9933, 20486.02
626.4755, 20532.37
626.9576, 20585.23
627.4397, 20598.25
627.9218, 20580.58
628.4039, 20602.20
628.8860, 20725.90
629.3682, 20894.38
629.8503, 21043.79
630.3324, 21172.15
630.8145, 21263.28
631.2966, 21289.08
631.7787, 21286.17
632.2609, 21288.98
632.7430, 21319.24
633.2251, 21285.84
633.7072, 21120.51
634.1893, 20915.18
634.6714, 20743.95
635.1536, 20619.25
635.6357, 20499.21
636.1178, 20375.43
636.5999, 20262.15
637.0820, 20188.34
637.5641, 20155.32
638.0463, 20141.43
638.5284, 20144.80
639.0105, 20158.25
639.4926, 20159.11
639.9747, 20152.83
640.4568, 20170.28
640.9390, 20255.42
641.4211, 20356.73
641.9032, 20423.94
642.3853, 20453.29
642.8674, 20482.81
643.3495, 20521.21
643.8317, 20569.29
644.3138, 20632.24
644.7959, 20745.74
645.2780, 20802.66
645.7601, 20780.57
646.2422, 20721.73
646.7244, 20684.81
647.2065, 20686.49
647.6886, 20620.07
648.1707, 20452.88
648.6528, 20229.38
649.1349, 20026.01
649.6171, 19842.61
650.0992, 19671.65
650.5813, 19510.64
651.0634, 19359.55
651.5455, 19213.40
652.0276, 19074.10
652.5098, 18959.19
652.9919, 18895.46
653.4740, 18845.14
653.9561, 18780.99
654.4382, 18694.56
654.9203, 18630.38
655.4025, 18602.61
655.8846, 18591.42
656.3667, 18585.04
656.8488, 18583.45
657.3309, 18588.44
657.8130, 18604.08
658.2952, 18619.07
658.7773, 18615.94
659.2594, 18595.93
659.7415, 18573.74
660.2236, 18552.66
660.7057, 18532.01
661.1879, 18501.74
661.6700, 18470.18
662.1521, 18461.21
662.6342, 18510.91
663.1163, 18565.69
663.5984, 18589.56
664.0806, 18585.65
664.5627, 18586.46
665.0448, 18603.69
665.5269, 18624.13
666.0090, 18647.07
666.4911, 18676.46
666.9733, 18674.00
667.4554, 18627.11
667.9375, 18573.32
668.4196, 18539.72
668.9017, 18526.23
669.3839, 18535.20
669.8660, 18570.55
670.3481, 18610.32
670.8302, 18632.77
671.3123, 18640.00
671.7944, 18634.70
672.2766, 18607.34
672.7587, 18584.62
673.2408, 18591.41
673.7229, 18614.42
674.2050, 18627.70
674.6871, 18609.45
675.1693, 18596.57
675.6514, 18604.60
676.1335, 18627.93
676.6156, 18633.85
677.0977, 18609.25
677.5798, 18597.72
678.0620, 18628.09
678.5441, 18693.41
679.0262, 18718.34
679.5083, 18700.95
679.9904, 18678.02
680.4725, 18679.62
680.9547, 18695.56
681.4368, 18710.32
681.9189, 18722.66
682.4010, 18727.28
682.8831, 18705.67
683.3652, 18681.71
683.8474, 18681.13
684.3295, 18734.08
684.8116, 18771.78
685.2937, 18776.77
685.7758, 18764.55
686.2579, 18753.31
686.7401, 18742.01
687.2222, 18735.19
687.7043, 18735.80
688.1864, 18739.42
688.6685, 18729.46
689.1506, 18707.60
689.6328, 18701.57
690.1149, 18734.54
690.5970, 18783.56
691.0791, 18817.74
691.5612, 18838.07
692.0433, 18848.92
692.5255, 18844.77
693.0076, 18838.63
693.4897, 18836.45
693.9718, 18838.25
694.4539, 18850.95
694.9360, 18887.65
695.4182, 18924.09
695.9003, 18949.95
696.3824, 18967.03
696.8645, 18959.76
697.3466, 18920.48
697.8287, 18876.94
698.3109, 18860.65
698.7930, 18867.20
699.2751, 18873.46
699.7572, 18875.30
700.2393, 18876.34
700.7214, 18880.07
701.2036, 18885.60
701.6857, 18891.31
702.1678, 18890.08
702.6499, 18896.58
703.1320, 18930.46
703.6141, 18975.79
704.0963, 18991.01
704.5784, 18947.69
705.0605, 18914.89
705.5426, 18904.61
706.0247, 18916.35
706.5068, 18958.68
706.9890, 19038.29
707.4711, 19094.47
707.9532, 19079.15
708.4353, 19020.80
708.9174, 18995.03
709.3995, 18998.71
709.8817, 19002.59
710.3638, 18971.14
710.8459, 18941.02
711.3280, 18950.39
711.8101, 19008.02
712.2922, 19060.78
712.7744, 19104.05
713.2565, 19129.62
713.7386, 19131.39
714.2207, 19096.18
714.7028, 19069.30
715.1849, 19046.80
715.6671, 19039.11
716.1492, 19073.29
716.6313, 19142.97
717.1134, 19168.93
717.5955, 19128.08
718.0776, 19070.36
718.5598, 19053.75
719.0419, 19065.44
719.5240, 19081.07
720.0061, 19100.46
720.4882, 19111.54
720.9703, 19097.40
721.4525, 19071.72
721.9346, 19065.84
722.4167, 19110.26
722.8988, 19139.14
723.3809, 19129.88
723.8630, 19097.02
724.3452, 19104.19
724.8273, 19157.04
725.3094, 19209.38
725.7915, 19243.54
726.2736, 19259.94
726.7557, 19253.71
727.2379, 19227.27
727.7200, 19199.63
728.2021, 19171.81
728.6842, 19156.01
729.1663, 19168.98
729.6484, 19212.97
730.1306, 19248.45
730.6127, 19260.11
731.0948, 19263.19
731.5769, 19265.53
732.0590, 19266.33
732.5411, 19270.04
733.0233, 19277.26
733.5054, 19286.03
733.9875, 19293.62
734.4696, 19300.73
734.9517, 19313.34
735.4338, 19333.16
735.9160, 19352.62
736.3981, 19372.57
736.8802, 19384.54
737.3623, 19371.36
737.8444, 19302.68
738.3266, 19258.66
738.8087, 19303.86
739.2908, 19380.28
739.7729, 19399.59
740.2551, 19307.25
740.7372, 19253.57
741.2193, 19267.29
741.7014, 19318.87
742.1835, 19348.18
742.6656, 19354.89
743.1478, 19354.45
743.6299, 19344.32
744.1120, 19339.23
744.5941, 19379.19
745.0762, 19446.25
745.5583, 19485.89
746.0405, 19441.28
746.5226, 19389.15
747.0047, 19372.88
747.4868, 19387.50
747.9689, 19399.06
748.4510, 19395.82
748.9332, 19399.18
749.4153, 19420.71
749.8974, 19457.38
750.3795, 19471.48
750.8616, 19460.34
751.3438, 19447.34
751.8259, 19448.16
752.3080, 19457.78
752.7901, 19465.25
753.2722, 19470.26
753.7543, 19473.36
754.2365, 19473.05
754.7186, 19472.28
755.2007, 19472.02
755.6828, 19471.31
756.1649, 19477.98
756.6470, 19498.26
757.1292, 19522.07
757.6113, 19547.28
758.0934, 19580.09
758.5755, 19577.99
759.0576, 19528.90
759.5397, 19485.26
760.0219, 19518.17
760.5040, 19602.15
760.9861, 19656.39
761.4682, 19666.58
761.9503, 19653.73
762.4324, 19610.42
762.9146, 19563.69
763.3967, 19547.18
763.8788, 19600.35
764.3609, 19632.90
764.8430, 19614.32
765.3251, 19576.67
765.8073, 19552.75
766.2894, 19541.51
766.7715, 19550.64
767.2536, 19586.75
767.7357, 19633.31
768.2178, 19668.07
768.7000, 19690.35
769.1821, 19696.38
769.6642, 19681.57
770.1463, 19655.90
770.6284, 19610.40
771.1105, 19562.55
771.5927, 19546.15
772.0748, 19612.92
772.5569, 19664.46
773.0390, 19674.34
773.5211, 19653.93
774.0032, 19625.35
774.4854, 19581.03
774.9675, 19558.03
775.4496, 19572.38
775.9317, 19610.76
776.4138, 19644.97
776.8959, 19674.31
777.3781, 19696.58
777.8602, 19709.35
778.3423, 19715.46
778.8244, 19718.02
779.3065, 19716.32
779.7886, 19707.26
780.2708, 19666.77
780.7529, 19643.78
781.2350, 19656.83
781.7171, 19702.38
782.1992, 19751.96
782.6813, 19810.25
783.1635, 19852.22
783.6456, 19859.53
784.1277, 19841.37
784.6098, 19823.36
785.0919, 19806.32
785.5740, 19797.04
786.0562, 19804.04
786.5383, 19817.60
787.0204, 19828.88
787.5025, 19837.45
787.9846, 19851.34
788.4667, 19879.75
788.9489, 19907.10
789.4310, 19931.39
789.9131, 19953.75
790.3952, 19938.27
790.8773, 19874.02
791.3594, 19823.52
791.8416, 19853.95
792.3237, 19931.83
792.8058, 19965.68
793.2879, 19951.79
793.7700, 19927.94
794.2521, 19910.51
794.7343, 19900.92
795.2164, 19900.88
795.6985, 19911.30
796.1806, 19929.27
796.6627, 19969.38
797.1448, 20000.46
797.6270, 19997.08
798.1091, 19952.69
798.5912, 19927.73
799.0733, 19924.37
799.5554, 19930.00
800.0375, 19930.14
800.5197, 19930.98
801.0018, 19945.29
801.4839, 19975.46
801.9660, 20013.16
802.4481, 20076.59
802.9302, 20130.97
803.4124, 20143.16
803.8945, 20077.85
804.3766, 20039.68
804.8587, 20040.95
805.3408, 20053.20
805.8229, 20047.73
806.3051, 20024.72
806.7872, 20019.43
807.2693, 20037.82
807.7514, 20055.53
808.2335, 20038.33
808.7156, 20007.25
809.1978, 19995.39
809.6799, 20014.05
810.1620, 20037.11
810.6441, 20055.84
811.1262, 20072.74
811.6083, 20090.40
812.0905, 20111.46
812.5726, 20128.85
813.0547, 20144.84
813.5368, 20152.22
814.0189, 20136.27
814.5010, 20101.76
814.9832, 20077.89
815.4653, 20071.06
815.9474, 20067.51
816.4295, 20045.26
816.9116, 20022.59
817.3937, 20024.62
817.8759, 20075.79
818.3580, 20115.63
818.8401, 20122.22
819.3222, 20118.13
819.8043, 20124.53
820.2864, 20144.45
820.7686, 20163.01
821.2507, 20181.25
821.7328, 20190.36
822.2149, 20166.12
822.6970, 20124.40
823.1791, 20105.10
823.6613, 20119.00
824.1434, 20151.14
824.6255, 20221.71
825.1076, 20291.42
825.5897, 20315.44
826.0718, 20220.56
826.5540, 20175.72
827.0361, 20200.11
827.5182, 20252.31
828.0003, 20286.94
828.4824, 20303.84
828.9645, 20312.17
829.4467, 20313.34
829.9288, 20305.32
830.4109, 20276.47
830.8930, 20239.94
831.3751, 20213.88
831.8572, 20197.83
832.3394, 20205.24
832.8215, 20258.46
833.3036, 20328.56
833.7857, 20388.76
834.2678, 20454.14
834.7499, 20453.53
835.2321, 20360.04
835.7142, 20252.08
836.1963, 20239.15
836.6784, 20296.60
837.1605, 20333.43
837.6426, 20328.65
838.1248, 20317.21
838.6069, 20318.66
839.0890, 20331.84
839.5711, 20357.62
840.0532, 20418.55
840.5353, 20448.93
841.0175, 20429.01
841.4996, 20394.79
841.9817, 20385.65
842.4638, 20403.00
842.9459, 20404.55
843.4280, 20383.07
843.9102, 20362.42
844.3923, 20380.54
844.8744, 20413.22
845.3565, 20417.35
845.8386, 20375.09
846.3207, 20339.68
846.8029, 20329.19
847.2850, 20337.65
847.7671, 20360.72
848.2492, 20405.95
848.7313, 20443.39
849.2134, 20469.95
849.6956, 20495.90
850.1777, 20546.88
850.6598, 20607.03
851.1419, 20608.47
851.6240, 20537.01
852.1061, 20470.87
852.5883, 20481.84
853.0704, 20517.89
853.5525, 20527.05
854.0346, 20482.61
854.5167, 20472.84
854.9988, 20520.13
855.4810, 20579.40
855.9631, 20621.99
856.4452, 20647.91
856.9273, 20659.63
857.4094, 20656.50
857.8915, 20649.06
858.3737, 20643.59
858.8558, 20640.81
859.3379, 20644.49
859.8200, 20655.94
860.3021, 20659.56
860.7842, 20647.45
861.2664, 20626.95
861.7485, 20598.18
862.2306, 20557.67
862.7127, 20543.52
863.1948, 20558.48
863.6769, 20587.20
864.1591, 20625.86
864.6412, 20668.63
865.1233, 20705.04
865.6054, 20734.59
866.0875, 20752.59
866.5696, 20756.36
867.0518, 20747.86
867.5339, 20719.48
868.0160, 20669.48
868.4981, 20649.73
868.9802, 20667.95
869.4623, 20700.72
869.9445, 20744.79
870.4266, 20793.89
870.9087, 20816.62
871.3908, 20814.77
871.8729, 20805.04
872.3550, 20791.04
872.8372, 20778.88
873.3193, 20769.53
873.8014, 20765.09
874.2835, 20776.48
874.7656, 20832.77
875.2477, 20872.83
875.7299, 20876.68
876.2120, 20853.66
876.6941, 20840.31
877.1762, 20836.66
877.6583, 20830.73
878.1404, 20810.67
878.6226, 20792.72
879.1047, 20808.29
879.5869, 20843.44
880.0690, 20862.63
880.5511, 20830.56
881.0332, 20805.87
881.5153, 20809.03
881.9974, 20829.46
882.4796, 20845.78
882.9617, 20855.90
883.4438, 20876.31
883.9259, 20916.35
884.4080, 20956.83
884.8901, 20963.63
885.3723, 20947.06
885.8544, 20929.10
886.3365, 20901.42
886.8186, 20900.22
887.3007, 20975.39
887.7828, 21072.44
888.2650, 21113.26
888.7471, 21073.31
889.2292, 21036.92
889.7113, 21005.64
890.1934, 20991.45
890.6755, 21026.86
891.1577, 21092.29
891.6398, 21124.67
892.1219, 21107.78
892.6040, 21078.99
893.0861, 21051.91
893.5682, 21032.57
894.0504, 21028.69
894.5325, 21051.63
895.0146, 21062.29
895.4967, 21052.89
895.9788, 21045.59
896.4609, 21065.32
896.9431, 21105.87
897.4252, 21126.38
897.9073, 21124.50
898.3894, 21117.42
898.8715, 21112.94
899.3536, 21112.69
899.8358, 21120.18
900.3179, 21136.58
900.8000, 21147.87
901.2821, 21153.31
901.7642, 21152.04
902.2463, 21135.86
902.7285, 21110.71
903.2106, 21129.41
903.6927, 21190.08
904.1748, 21243.99
904.6569, 21260.63
905.1390, 21256.96
905.6212, 21241.37
906.1033, 21218.65
906.5854, 21206.41
907.0675, 21217.69
907.5496, 21231.38
908.0317, 21246.50
908.5139, 21258.98
908.9960, 21247.10
909.4781, 21210.76
909.9602, 21203.47
910.4423, 21261.29
910.9244, 21328.91
911.4066, 21322.90
911.8887, 21281.05
912.3708, 21272.97
912.8529, 21378.41
913.3350, 21446.60
913.8171, 21429.54
914.2993, 21378.35
914.7814, 21363.10
915.2635, 21387.71
915.7456, 21391.55
916.2277, 21360.75
916.7098, 21330.83
917.1920, 21356.30
917.6741, 21404.29
918.1562, 21420.58
918.6383, 21379.18
919.1204, 21360.24
919.6025, 21408.74
920.0847, 21471.47
920.5668, 21518.61
921.0489, 21552.76
921.5310, 21546.26
922.0131, 21495.51
922.4952, 21435.08
922.9774, 21380.32
923.4595, 21339.91
923.9416, 21329.43
924.4237, 21348.81
924.9058, 21381.17
925.3879, 21436.32
925.8701, 21486.24
926.3522, 21520.40
926.8343, 21539.81
927.3164, 21550.36
927.7985, 21551.44
928.2806, 21549.76
928.7628, 21545.36
929.2449, 21542.88
929.7270, 21553.94
930.2091, 21573.09
930.6912, 21585.93
931.1733, 21574.89
931.6555, 21570.12
932.1376, 21578.55
932.6197, 21599.70
933.1018, 21643.12
933.5839, 21717.44
934.0660, 21744.85
934.5482, 21700.59
935.0303, 21639.50
935.5124, 21633.28
935.9945, 21659.60
936.4766, 21679.16
936.9587, 21680.03
937.4409, 21681.89
937.9230, 21700.40
938.4051, 21715.01
938.8872, 21705.75
939.3693, 21664.29
939.8514, 21649.57
940.3336, 21664.04
940.8157, 21688.69
941.2978, 21718.80
941.7799, 21743.76
942.2620, 21744.67
942.7441, 21721.75
943.2263, 21697.45
943.7084, 21662.57
944.1905, 21648.59
944.6726, 21672.33
945.1547, 21727.60
945.6368, 21781.27
946.1190, 21834.86
946.6011, 21866.67
947.0832, 21854.72
947.5653, 21829.39
948.0474, 21832.10
948.5295, 21853.40
949.0117, 21871.22
949.4938, 21875.73
949.9759, 21878.51
950.4580, 21878.91
950.9401, 21881.02
951.4222, 21892.06
951.9044, 21912.23
952.3865, 21934.65
952.8686, 21960.65
953.3507, 21977.02
953.8328, 21959.85
954.3149, 21929.30
954.7971, 21907.85
955.2792, 21896.57
955.7613, 21910.69
956.2434, 21983.95
956.7255, 22044.14
957.2076, 22036.03
957.6898, 21962.58
958.1719, 21930.48
958.6540, 21939.33
959.1361, 21976.98
959.6182, 22071.89
960.1003, 22163.09
960.5825, 22188.24
961.0646, 22155.60
961.5467, 22124.10
962.0288, 22092.25
962.5109, 22082.94
962.9930, 22109.68
963.4752, 22155.63
963.9573, 22170.96
964.4394, 22163.10
964.9215, 22183.40
965.4036, 22268.96
965.8857, 22347.06
966.3679, 22331.68
966.8500, 22285.23
967.3321, 22292.71
967.8142, 22435.44
968.2963, 22495.22
968.7784, 22435.11
969.2606, 22363.78
969.7427, 22400.14
970.2248, 22517.73
970.7069, 22631.28
971.1890, 22733.54
971.6711, 22808.59
972.1533, 22808.53
972.6354, 22807.73
973.1175, 22860.44
973.5996, 22967.54
974.0817, 23071.05
974.5638, 23170.10
975.0460, 23268.05
975.5281, 23365.64
976.0102, 23465.04
976.4923, 23562.85
976.9744, 23666.46
977.4565, 23797.51
977.9387, 23956.62
978.4208, 24155.10
978.9029, 24361.79
979.3850, 24628.74
979.8671, 25020.09
980.3492, 25526.38
980.8314, 26204.41
981.3135, 27062.41
981.7956, 28097.25
982.2777, 29308.22
982.7598, 30705.19
983.2419, 32350.36
983.7241, 34284.41
984.2062, 36189.52
984.6883, 37984.50
985.1704, 39712.05
985.6525, 41384.35
986.1346, 43009.23
986.6168, 44675.79
987.0989, 46382.61
987.5810, 48084.20
988.0631, 49723.52
988.5452, 51378.29
989.0273, 53115.36
989.5095, 54914.22
989.9916, 56709.88
990.4737, 58678.44
990.9558, 60427.96
991.4379, 62164.66
991.9200, 63278.41
992.4022, 62755.91
992.8843, 60754.56
993.3664, 57741.50
993.8485, 53691.02
994.3306, 49525.67
994.8127, 45674.24
995.2949, 42126.03
995.7770, 38907.89
996.2591, 36002.30
996.7412, 33479.96
997.2233, 31358.16
997.7054, 29635.42
998.1876, 28383.70
998.6697, 27511.94
999.1518, 26853.32
999.6339, 26383.87
1000.116, 25996.15
1000.598, 25661.50
1001.080, 25374.06
1001.562, 25131.81
1002.044, 24931.98
1002.527, 24773.97
1003.009, 24661.13
1003.491, 24563.93
1003.973, 24484.30
1004.455, 24396.63
1004.937, 24246.34
1005.419, 24085.58
1005.901, 23992.59
1006.384, 24006.26
1006.866, 23978.49
1007.348, 23876.84
1007.830, 23755.78
1008.312, 23633.93
1008.794, 23517.77
1009.276, 23456.11
1009.758, 23442.36
1010.240, 23419.50
1010.723, 23333.53
1011.205, 23248.37
1011.687, 23217.34
1012.169, 23217.01
1012.651, 23177.43
1013.133, 23068.13
1013.615, 23008.15
1014.097, 23024.32
1014.580, 23070.71
1015.062, 23099.50
1015.544, 23107.75
1016.026, 23082.70
1016.508, 23015.25
1016.990, 22955.66
1017.472, 22923.57
1017.954, 22906.85
1018.436, 22903.03
1018.919, 22910.91
1019.401, 22898.76
1019.883, 22866.50
1020.365, 22838.63
1020.847, 22833.50
1021.329, 22835.94
1021.811, 22836.58
1022.293, 22832.54
1022.776, 22816.04
1023.258, 22768.40
1023.740, 22737.88
1024.222, 22733.59
1024.704, 22740.51
1025.186, 22739.28
1025.668, 22731.94
1026.150, 22722.87
1026.632, 22711.80
1027.115, 22710.75
1027.597, 22742.33
1028.079, 22773.36
1028.561, 22779.09
1029.043, 22760.74
1029.525, 22743.03
1030.007, 22724.35
1030.489, 22722.99
1030.972, 22757.37
1031.454, 22802.59
1031.936, 22816.08
1032.418, 22815.02
1032.900, 22835.83
1033.382, 22950.56
1033.864, 22995.61
1034.346, 22918.38
1034.828, 22818.01
1035.311, 22817.24
1035.793, 22899.00
1036.275, 22958.69
1036.757, 22988.38
1037.239, 22977.97
1037.721, 22870.52
1038.203, 22763.37
1038.685, 22732.43
1039.167, 22772.79
1039.650, 22808.05
1040.132, 22839.26
1040.614, 22858.00
1041.096, 22855.58
1041.578, 22848.54
1042.060, 22863.08
1042.542, 22892.24
1043.024, 22925.95
1043.507, 22980.77
1043.989, 22997.55
1044.471, 22934.40
1044.953, 22867.41
1045.435, 22862.40
1045.917, 22913.32
1046.399, 22939.50
1046.881, 22940.24
1047.364, 22935.92
1047.846, 22944.88
1048.328, 22949.26
1048.810, 22923.89
1049.292, 22881.92
1049.774, 22882.14
1050.256, 22942.41
1050.738, 22980.22
1051.220, 22973.30
1051.703, 22953.53
1052.185, 22969.77
1052.667, 23003.98
1053.149, 23026.03
1053.631, 23028.73
1054.113, 23024.91
1054.595, 23005.85
1055.077, 22995.38
1055.559, 23011.01
1056.042, 23046.84
1056.524, 23062.25
1057.006, 23058.88
1057.488, 23050.10
1057.970, 23028.19
1058.452, 23018.70
1058.934, 23047.73
1059.416, 23097.46
1059.899, 23131.02
1060.381, 23137.73
1060.863, 23173.51
1061.345, 23254.95
1061.827, 23314.40
1062.309, 23239.84
1062.791, 23119.88
1063.273, 23101.28
1063.755, 23193.52
1064.238, 23261.41
1064.720, 23247.14
1065.202, 23231.33
1065.684, 23242.87
1066.166, 23264.47
1066.648, 23233.59
1067.130, 23165.19
1067.612, 23129.91
1068.094, 23166.30
1068.577, 23202.15
1069.059, 23172.13
1069.541, 23135.98
1070.023, 23157.09
1070.505, 23251.92
1070.987, 23311.49
1071.469, 23335.03
1071.951, 23338.98
1072.434, 23328.50
1072.916, 23309.62
1073.398, 23281.71
1073.880, 23250.56
1074.362, 23235.97
1074.844, 23256.37
1075.326, 23266.38
1075.808, 23250.93
1076.291, 23240.29
1076.773, 23290.29
1077.255, 23378.57
1077.737, 23442.92
1078.219, 23473.90
1078.701, 23482.18
1079.183, 23446.39
1079.665, 23416.10
1080.147, 23422.25
1080.630, 23455.43
1081.112, 23451.69
1081.594, 23412.81
1082.076, 23396.41
1082.558, 23436.78
1083.040, 23483.41
1083.522, 23481.56
1084.004, 23462.77
1084.486, 23471.43
1084.969, 23525.97
1085.451, 23562.86
1085.933, 23572.55
1086.415, 23599.32
1086.897, 23688.29
1087.379, 23811.23
1087.861, 23931.67
1088.343, 24043.83
1088.826, 24129.27
1089.308, 24141.97
1089.790, 24178.86
1090.272, 24260.21
1090.754, 24368.99
1091.236, 24472.42
1091.718, 24578.53
1092.200, 24734.74
1092.682, 24950.56
1093.165, 25161.10
1093.647, 25321.03
1094.129, 25465.85
1094.611, 25615.42
1095.093, 25770.87
1095.575, 25948.16
1096.057, 26149.44
1096.539, 26319.09
1097.022, 26428.89
1097.504, 26506.93
1097.986, 26571.29
1098.468, 26625.43
1098.950, 26673.52
1099.432, 26719.10
1099.914, 26756.28
1100.396, 26792.66
1100.879, 26794.43
1101.361, 26739.16
1101.843, 26631.24
1102.325, 26468.30
1102.807, 26256.99
1103.289, 26025.93
1103.771, 25753.43
1104.253, 25502.00
1104.735, 25276.81
1105.218, 25076.46
1105.700, 24902.06
1106.182, 24751.93
1106.664, 24632.24
1107.146, 24542.58
1107.628, 24452.02
1108.110, 24301.74
1108.592, 24184.54
1109.074, 24175.91
1109.557, 24242.04
1110.039, 24249.28
1110.521, 24196.92
1111.003, 24137.83
1111.485, 24080.35
1111.967, 24044.26
1112.449, 24073.75
1112.931, 24121.12
1113.414, 24127.60
1113.896, 24072.76
1114.378, 24062.73
1114.860, 24109.54
1115.342, 24148.13
1115.824, 24129.05
1116.306, 24090.47
1116.788, 24080.34
1117.271, 24099.92
1117.753, 24152.33
1118.235, 24284.60
1118.717, 24380.12
1119.199, 24423.15
1119.681, 24445.98
1120.163, 24465.01
1120.645, 24491.81
1121.127, 24560.97
1121.609, 24673.22
1122.092, 24814.05
1122.574, 25002.92
1123.056, 25185.05
1123.538, 25336.86
1124.020, 25475.62
1124.502, 25637.70
1124.984, 25820.16
1125.466, 26008.52
1125.949, 26202.33
1126.431, 26354.88
1126.913, 26396.80
1127.395, 26414.78
1127.877, 26467.14
1128.359, 26552.51
1128.841, 26668.11
1129.323, 26818.24
1129.806, 26928.53
1130.288, 26975.98
1130.770, 26964.72
1131.252, 26891.46
1131.734, 26764.52
1132.216, 26587.49
1132.698, 26341.07
1133.180, 26120.60
1133.662, 25932.71
1134.145, 25747.95
1134.627, 25528.31
1135.109, 25310.41
1135.591, 25157.71
1136.073, 25054.75
1136.555, 24966.44
1137.037, 24875.22
1137.519, 24809.85
1138.001, 24771.55
1138.484, 24760.22
1138.966, 24757.16
1139.448, 24786.34
1139.930, 24954.38
1140.412, 25243.53
1140.894, 25438.20
1141.376, 25340.26
1141.858, 25278.33
1142.341, 25337.68
1142.823, 25479.48
1143.305, 25641.00
1143.787, 25823.84
1144.269, 26046.51
1144.751, 26316.44
1145.233, 26575.39
1145.715, 26783.42
1146.198, 26980.93
1146.680, 27192.97
1147.162, 27415.11
1147.644, 27612.39
1148.126, 27788.15
1148.608, 27978.68
1149.090, 28209.74
1149.572, 28429.83
1150.054, 28640.45
1150.536, 28791.84
1151.019, 28842.60
1151.501, 28794.85
1151.983, 28636.26
1152.465, 28364.30
1152.947, 28035.49
1153.429, 27658.15
1153.911, 27262.87
1154.393, 26843.72
1154.876, 26442.35
1155.358, 26143.97
1155.840, 25998.64
1156.322, 25799.84
1156.804, 25530.50
1157.286, 25281.11
1157.768, 25132.67
1158.250, 25040.44
1158.733, 24960.44
1159.215, 24888.88
1159.697, 24813.40
1160.179, 24704.75
1160.661, 24657.52
1161.143, 24697.67
1161.625, 24758.83
1162.107, 24761.36
1162.589, 24734.13
1163.072, 24727.64
1163.554, 24744.20
1164.036, 24749.73
1164.518, 24722.87
1165.000, 24708.01
1165.482, 24721.93
1165.964, 24742.88
1166.446, 24726.49
1166.928, 24687.67
1167.411, 24661.26
1167.893, 24656.16
1168.375, 24644.33
1168.857, 24585.01
1169.339, 24561.26
1169.821, 24626.78
1170.303, 24734.59
1170.785, 24736.42
1171.268, 24661.80
1171.750, 24606.59
1172.232, 24601.44
1172.714, 24618.69
1173.196, 24675.15
1173.678, 24724.20
1174.160, 24736.07
1174.642, 24715.27
1175.125, 24676.53
1175.607, 24626.74
1176.089, 24606.40
1176.571, 24673.26
1177.053, 24722.01
1177.535, 24672.81
1178.017, 24609.39
1178.499, 24618.55
1178.981, 24699.04
1179.464, 24731.95
1179.946, 24717.91
1180.428, 24690.66
1180.910, 24645.63
1181.392, 24621.36
1181.874, 24657.30
1182.356, 24717.81
1182.838, 24746.10
1183.320, 24740.89
1183.803, 24751.81
1184.285, 24783.38
1184.767, 24810.36
1185.249, 24807.31
1185.731, 24799.58
1186.213, 24811.05
1186.695, 24830.52
1187.177, 24819.21
1187.660, 24773.34
1188.142, 24760.45
1188.624, 24795.75
1189.106, 24830.84
1189.588, 24816.32
1190.070, 24789.40
1190.552, 24770.73
1191.034, 24765.90
1191.516, 24811.35
1191.999, 24917.12
1192.481, 24975.18
1192.963, 24951.96
1193.445, 24900.16
1193.927, 24855.64
1194.409, 24820.48
1194.891, 24792.70
1195.373, 24771.86
1195.855, 24794.43
1196.338, 24866.51
1196.820, 24931.53
1197.302, 24971.71
1197.784, 24985.85
1198.266, 24940.81
1198.748, 24885.35
1199.230, 24892.28
1199.712, 24985.22
1200.195, 25019.99
1200.677, 24987.86
1201.159, 24960.03
1201.641, 24991.74
1202.123, 25025.40
1202.605, 24971.37
1203.087, 24882.48
1203.569, 24848.46
1204.052, 24902.01
1204.534, 24934.71
1205.016, 24943.19
1205.498, 24952.51
1205.980, 24987.66
1206.462, 25027.09
1206.944, 25053.08
1207.426, 25063.07
1207.908, 25045.86
1208.391, 24980.30
1208.873, 24952.26
1209.355, 24969.69
1209.837, 24999.86
1210.319, 25021.86
1210.801, 25035.96
1211.283, 25036.34
1211.765, 25028.41
1212.247, 25031.49
1212.730, 25051.09
1213.212, 25066.44
1213.694, 25073.95
1214.176, 25084.03
1214.658, 25117.15
1215.140, 25151.39
1215.622, 25155.81
1216.104, 25135.62
1216.587, 25131.59
1217.069, 25154.78
1217.551, 25159.56
1218.033, 25132.34
1218.515, 25112.25
1218.997, 25165.74
1219.479, 25234.96
1219.961, 25243.54
1220.443, 25191.82
1220.926, 25180.44
1221.408, 25228.44
1221.890, 25251.66
1222.372, 25223.94
1222.854, 25188.59
1223.336, 25203.27
1223.818, 25235.74
1224.300, 25245.89
1224.782, 25228.32
1225.265, 25231.68
1225.747, 25262.32
1226.229, 25283.28
1226.711, 25280.84
1227.193, 25270.71
1227.675, 25266.10
1228.157, 25268.09
1228.639, 25279.59
1229.122, 25301.91
1229.604, 25323.71
1230.086, 25346.12
1230.568, 25360.92
1231.050, 25363.02
1231.532, 25360.22
1232.014, 25356.55
1232.496, 25355.96
1232.979, 25364.64
1233.461, 25383.86
1233.943, 25405.63
1234.425, 25431.78
1234.907, 25438.02
1235.389, 25396.03
1235.871, 25356.52
1236.353, 25371.09
1236.835, 25417.36
1237.318, 25472.97
1237.800, 25542.64
1238.282, 25565.11
1238.764, 25537.96
1239.246, 25509.41
1239.728, 25503.04
1240.210, 25510.32
1240.692, 25541.83
1241.175, 25573.07
1241.657, 25565.16
1242.139, 25505.72
1242.621, 25491.15
1243.103, 25521.69
1243.585, 25560.62
1244.067, 25599.46
1244.549, 25624.22
1245.031, 25612.81
1245.514, 25588.55
1245.996, 25582.10
1246.478, 25593.71
1246.960, 25631.58
1247.442, 25693.56
1247.924, 25733.12
1248.406, 25699.19
1248.888, 25657.17
1249.370, 25641.68
1249.853, 25640.75
1250.335, 25639.20
1250.817, 25637.14
1251.299, 25635.62
1251.781, 25635.08
1252.263, 25640.66
1252.745, 25667.95
1253.227, 25687.21
1253.710, 25679.95
1254.192, 25661.78
1254.674, 25646.73
1255.156, 25636.63
1255.638, 25653.88
1256.120, 25696.10
1256.602, 25721.18
1257.084, 25686.97
1257.567, 25654.44
1258.049, 25634.12
1258.531, 25635.48
1259.013, 25685.43
1259.495, 25768.27
1259.977, 25829.54
1260.459, 25865.21
1260.941, 25883.44
1261.423, 25864.23
1261.906, 25862.46
1262.388, 25902.24
1262.870, 25944.43
1263.352, 25921.86
1263.834, 25861.24
1264.316, 25823.32
1264.798, 25812.52
1265.280, 25804.10
1265.762, 25774.15
1266.245, 25779.21
1266.727, 25843.20
1267.209, 25913.78
1267.691, 25914.77
1268.173, 25875.47
1268.655, 25834.00
1269.137, 25795.92
1269.619, 25790.24
1270.102, 25824.51
1270.584, 25877.13
1271.066, 25952.36
1271.548, 26013.88
1272.030, 25997.91
1272.512, 25952.65
1272.994, 25927.06
1273.476, 25928.20
1273.958, 25963.24
1274.441, 26043.70
1274.923, 26099.00
1275.405, 26113.27
1275.887, 26098.54
1276.369, 26041.98
1276.851, 25982.24
1277.333, 25948.61
1277.815, 25946.03
1278.297, 26006.72
1278.780, 26135.75
1279.262, 26202.90
1279.744, 26170.19
1280.226, 26118.33
1280.708, 26109.05
1281.190, 26107.90
1281.672, 26082.59
1282.154, 26045.61
1282.637, 26051.05
1283.119, 26093.89
1283.601, 26127.01
1284.083, 26140.76
1284.565, 26143.72
1285.047, 26133.98
1285.529, 26122.35
1286.011, 26114.39
1286.494, 26108.42
1286.976, 26092.38
1287.458, 26074.61
1287.940, 26090.11
1288.422, 26151.36
1288.904, 26200.19
1289.386, 26215.52
1289.868, 26210.13
1290.350, 26177.18
1290.833, 26140.56
1291.315, 26160.33
1291.797, 26208.61
1292.279, 26225.02
1292.761, 26192.52
1293.243, 26186.95
1293.725, 26228.37
1294.207, 26263.46
1294.689, 26272.17
1295.172, 26273.14
1295.654, 26296.00
1296.136, 26326.55
1296.618, 26348.36
1297.100, 26358.42
1297.582, 26351.23
1298.064, 26324.61
1298.546, 26293.69
1299.029, 26260.33
1299.511, 26233.57
1299.993, 26219.17
1300.475, 26219.10
1300.957, 26241.44
1301.439, 26281.50
1301.921, 26323.20
1302.403, 26365.67
1302.885, 26375.88
1303.368, 26336.47
1303.850, 26300.28
1304.332, 26292.77
1304.814, 26315.84
1305.296, 26379.56
1305.778, 26465.21
1306.260, 26512.26
1306.742, 26523.47
1307.224, 26504.55
1307.707, 26449.07
##END=



