##NAMES=Thomsonite-Ca
##RRUFFID=R050091
##IDEAL CHEMISTRY=NaCa_2_(Al_5_Si_5_)O_20_&#183;6H_2_O
##LOCALITY=Amudikha River, near Mirny, Yakutia, Siberia, Russia
##OWNER=RRUFF
##SOURCE=Rock Currier
##DESCRIPTION=Radial groups of colorless bladed crystals
##STATUS=The identification of this mineral has been confirmed by X-ray diffraction and chemical analysis
##URL=rruff.info/R050091
##MEASURED CHEMISTRY=(Na_0.94_[box]_0.06_)_Σ=1_(Ca_1.71_Na_0.29_)_Σ=2_(Si_5.35_Al_4.65_)O_20_·7.09H_2_O
138.3520, 537.7219
138.8341, 569.2399
139.3162, 609.6938
139.7984, 649.6653
140.2805, 676.7045
140.7626, 686.0858
141.2447, 698.5932
141.7268, 722.8157
142.2089, 761.2111
142.6911, 790.2084
143.1732, 804.8729
143.6553, 813.4220
144.1374, 832.1779
144.6195, 867.2588
145.1016, 902.1419
145.5838, 930.1030
146.0659, 949.0194
146.5480, 965.6649
147.0301, 978.5905
147.5122, 989.0953
147.9943, 1002.840
148.4765, 1019.739
148.9586, 1039.780
149.4407, 1063.779
149.9228, 1100.390
150.4049, 1129.305
150.8870, 1143.059
151.3692, 1141.865
151.8513, 1153.277
152.3334, 1191.123
152.8155, 1234.054
153.2976, 1266.846
153.7797, 1275.544
154.2619, 1287.090
154.7440, 1307.877
155.2261, 1339.926
155.7082, 1369.179
156.1903, 1394.509
156.6724, 1416.282
157.1546, 1434.225
157.6367, 1443.502
158.1188, 1453.213
158.6009, 1466.964
159.0830, 1486.991
159.5652, 1506.042
160.0473, 1518.483
160.5294, 1528.914
161.0115, 1545.994
161.4936, 1574.834
161.9757, 1609.456
162.4579, 1648.338
162.9400, 1699.332
163.4221, 1740.762
163.9042, 1755.897
164.3863, 1752.187
164.8684, 1754.604
165.3506, 1782.459
165.8327, 1817.066
166.3148, 1842.986
166.7969, 1848.725
167.2790, 1851.977
167.7611, 1863.736
168.2433, 1882.954
168.7254, 1900.068
169.2075, 1903.217
169.6896, 1903.001
170.1717, 1911.866
170.6538, 1942.210
171.1360, 1978.307
171.6181, 2009.537
172.1002, 2035.812
172.5823, 2057.306
173.0644, 2068.819
173.5465, 2076.076
174.0287, 2089.567
174.5108, 2115.728
174.9929, 2149.696
175.4750, 2191.252
175.9571, 2243.062
176.4392, 2286.791
176.9214, 2301.200
177.4035, 2292.494
177.8856, 2278.008
178.3677, 2264.799
178.8498, 2252.298
179.3319, 2240.885
179.8141, 2232.581
180.2962, 2220.087
180.7783, 2194.292
181.2604, 2156.434
181.7425, 2110.591
182.2246, 2053.318
182.7068, 1990.303
183.1889, 1933.560
183.6710, 1886.959
184.1531, 1845.993
184.6352, 1806.143
185.1173, 1766.942
185.5995, 1726.266
186.0816, 1677.432
186.5637, 1624.533
187.0458, 1582.395
187.5279, 1558.535
188.0100, 1545.474
188.4922, 1526.672
188.9743, 1501.595
189.4564, 1476.242
189.9385, 1455.769
190.4206, 1439.930
190.9027, 1426.873
191.3849, 1415.673
191.8670, 1406.777
192.3491, 1402.081
192.8312, 1401.891
193.3133, 1404.203
193.7955, 1407.808
194.2776, 1412.647
194.7597, 1415.861
195.2418, 1416.953
195.7239, 1415.767
196.2060, 1410.440
196.6882, 1400.420
197.1703, 1387.687
197.6524, 1374.917
198.1345, 1362.335
198.6166, 1348.896
199.0987, 1334.659
199.5809, 1319.625
200.0630, 1302.386
200.5451, 1283.133
201.0272, 1261.442
201.5093, 1235.529
201.9914, 1204.784
202.4736, 1173.032
202.9557, 1140.981
203.4378, 1108.325
203.9199, 1078.744
204.4020, 1051.848
204.8841, 1028.618
205.3663, 1012.031
205.8484, 1002.921
206.3305, 997.5358
206.8126, 993.9066
207.2947, 992.0820
207.7768, 992.0078
208.2590, 994.5732
208.7411, 998.5740
209.2232, 999.0540
209.7053, 994.3187
210.1874, 990.1230
210.6695, 991.2062
211.1517, 999.3497
211.6338, 1004.964
212.1159, 1005.890
212.5980, 1003.176
213.0801, 1003.295
213.5622, 1007.342
214.0444, 1012.162
214.5265, 1014.210
215.0086, 1011.157
215.4907, 1013.329
215.9728, 1024.595
216.4549, 1043.887
216.9371, 1056.066
217.4192, 1057.516
217.9013, 1057.027
218.3834, 1064.818
218.8655, 1087.308
219.3476, 1100.198
219.8298, 1095.340
220.3119, 1072.562
220.7940, 1057.962
221.2761, 1055.136
221.7582, 1056.362
222.2403, 1053.712
222.7225, 1047.609
223.2046, 1036.515
223.6867, 1017.955
224.1688, 990.4543
224.6509, 971.4545
225.1330, 965.2938
225.6152, 963.3452
226.0973, 953.9064
226.5794, 932.9958
227.0615, 913.0555
227.5436, 897.9019
228.0257, 888.2848
228.5079, 878.2149
228.9900, 867.4104
229.4721, 856.2562
229.9542, 845.5111
230.4363, 836.3915
230.9185, 825.4606
231.4006, 810.7329
231.8827, 790.5610
232.3648, 773.9724
232.8469, 761.6838
233.3290, 752.4179
233.8112, 744.3221
234.2933, 739.1625
234.7754, 732.1740
235.2575, 720.7042
235.7396, 701.6008
236.2217, 688.4554
236.7039, 683.1925
237.1860, 682.9193
237.6681, 681.4271
238.1502, 675.8983
238.6323, 673.6540
239.1144, 679.1357
239.5966, 699.1201
240.0787, 707.6665
240.5608, 699.0266
241.0429, 681.0562
241.5250, 671.5534
242.0071, 674.4456
242.4893, 679.8717
242.9714, 684.0643
243.4535, 687.3665
243.9356, 688.4509
244.4177, 685.1284
244.8998, 680.1377
245.3820, 681.2112
245.8641, 692.1541
246.3462, 703.5979
246.8283, 711.0344
247.3104, 712.2930
247.7925, 714.6643
248.2747, 718.4873
248.7568, 723.4288
249.2389, 728.4581
249.7210, 733.0514
250.2031, 738.5259
250.6852, 745.7162
251.1674, 755.4177
251.6495, 764.1279
252.1316, 767.9915
252.6137, 771.3698
253.0958, 790.8924
253.5779, 840.4028
254.0601, 884.6772
254.5422, 902.4041
255.0243, 879.8345
255.5064, 866.7348
255.9885, 868.5325
256.4706, 880.6548
256.9528, 887.9315
257.4349, 888.9703
257.9170, 887.4537
258.3991, 884.6034
258.8812, 878.7284
259.3633, 876.8541
259.8455, 882.0406
260.3276, 890.9892
260.8097, 891.4436
261.2918, 879.9476
261.7739, 866.2997
262.2560, 856.1697
262.7382, 851.2642
263.2203, 843.9551
263.7024, 830.9467
264.1845, 815.8224
264.6666, 813.2450
265.1487, 830.8377
265.6309, 845.2492
266.1130, 840.8755
266.5951, 811.7073
267.0772, 784.4206
267.5593, 759.3708
268.0414, 737.7327
268.5236, 725.7057
269.0057, 726.4652
269.4878, 728.9211
269.9699, 725.7861
270.4520, 715.3347
270.9341, 707.4099
271.4163, 703.4899
271.8984, 702.2765
272.3805, 699.9861
272.8626, 696.5813
273.3447, 692.1310
273.8268, 685.4470
274.3090, 675.5613
274.7911, 670.8185
275.2732, 673.7475
275.7553, 681.1054
276.2374, 683.6818
276.7195, 680.5500
277.2017, 676.3147
277.6838, 674.1497
278.1659, 674.3509
278.6480, 672.3890
279.1301, 666.5068
279.6122, 659.5405
280.0944, 658.4658
280.5765, 663.8607
281.0586, 672.0281
281.5407, 683.6132
282.0229, 698.7076
282.5050, 703.7499
282.9871, 694.3283
283.4692, 678.3771
283.9513, 673.5614
284.4334, 680.6842
284.9156, 689.5593
285.3977, 694.0958
285.8798, 694.6220
286.3619, 695.1683
286.8440, 695.5106
287.3261, 697.0012
287.8083, 703.6672
288.2904, 715.5688
288.7725, 726.1447
289.2546, 730.2338
289.7367, 729.0521
290.2188, 729.9431
290.7010, 733.8042
291.1831, 739.3020
291.6652, 743.2615
292.1473, 746.0103
292.6294, 751.5870
293.1115, 765.1448
293.5937, 783.8325
294.0758, 797.5739
294.5579, 805.1358
295.0400, 809.0531
295.5221, 811.6296
296.0042, 813.2000
296.4864, 815.5930
296.9685, 819.0986
297.4506, 824.2250
297.9327, 833.0013
298.4148, 846.3631
298.8969, 860.0854
299.3791, 868.0944
299.8612, 871.7678
300.3433, 875.5914
300.8254, 879.9366
301.3075, 886.4217
301.7896, 900.1257
302.2718, 922.8909
302.7539, 943.2028
303.2360, 945.7903
303.7181, 936.7159
304.2002, 930.6943
304.6823, 936.9240
305.1645, 949.0215
305.6466, 960.1944
306.1287, 970.3032
306.6108, 978.5040
307.0929, 984.9494
307.5750, 988.9854
308.0572, 989.6867
308.5393, 984.0145
309.0214, 976.4302
309.5035, 970.1461
309.9856, 965.3106
310.4677, 962.3979
310.9499, 965.2664
311.4320, 969.4233
311.9141, 968.7144
312.3962, 954.7120
312.8783, 939.7244
313.3604, 931.4502
313.8426, 929.9233
314.3247, 931.4292
314.8068, 936.2552
315.2889, 942.2834
315.7710, 947.3311
316.2531, 948.2275
316.7353, 950.2617
317.2174, 956.9462
317.6995, 967.7790
318.1816, 977.4750
318.6637, 984.9925
319.1458, 989.9951
319.6280, 992.2131
320.1101, 990.8435
320.5922, 987.4265
321.0743, 980.3654
321.5564, 970.7116
322.0385, 964.3137
322.5207, 961.9958
323.0028, 963.8419
323.4849, 970.0266
323.9670, 988.4079
324.4491, 1001.784
324.9312, 1004.071
325.4134, 998.4597
325.8955, 996.9494
326.3776, 1004.783
326.8597, 1014.173
327.3418, 1021.517
327.8239, 1023.929
328.3061, 1027.961
328.7882, 1035.625
329.2703, 1045.098
329.7524, 1051.705
330.2345, 1054.196
330.7166, 1055.019
331.1988, 1054.231
331.6809, 1048.273
332.1630, 1049.306
332.6451, 1062.698
333.1272, 1081.192
333.6093, 1090.639
334.0915, 1085.546
334.5736, 1079.995
335.0557, 1077.142
335.5378, 1075.608
336.0199, 1084.682
336.5020, 1109.974
336.9842, 1140.515
337.4663, 1160.715
337.9484, 1166.964
338.4305, 1172.921
338.9126, 1183.847
339.3947, 1199.759
339.8769, 1207.539
340.3590, 1205.046
340.8411, 1198.919
341.3232, 1196.568
341.8053, 1198.571
342.2874, 1200.279
342.7696, 1201.561
343.2517, 1201.599
343.7338, 1195.231
344.2159, 1181.549
344.6980, 1165.903
345.1801, 1153.377
345.6623, 1143.755
346.1444, 1131.762
346.6265, 1115.012
347.1086, 1096.552
347.5907, 1083.808
348.0728, 1076.968
348.5550, 1071.168
349.0371, 1062.415
349.5192, 1051.836
350.0013, 1043.306
350.4834, 1038.390
350.9655, 1034.067
351.4477, 1026.151
351.9298, 1014.948
352.4119, 1002.453
352.8940, 988.3738
353.3762, 974.1231
353.8583, 962.1893
354.3404, 952.9240
354.8225, 945.7931
355.3046, 942.8574
355.7867, 941.8791
356.2689, 937.4845
356.7510, 921.9399
357.2331, 904.6686
357.7152, 894.2842
358.1973, 891.7101
358.6794, 893.1310
359.1616, 899.4197
359.6437, 907.4501
360.1258, 912.8481
360.6079, 911.4290
361.0900, 908.9877
361.5721, 908.9957
362.0543, 911.5067
362.5364, 913.1317
363.0185, 915.6899
363.5006, 915.2431
363.9827, 908.2766
364.4648, 881.7090
364.9470, 861.0573
365.4291, 858.0921
365.9112, 869.8503
366.3933, 874.6926
366.8754, 860.9353
367.3575, 844.1738
367.8397, 833.3837
368.3218, 835.3749
368.8039, 835.8347
369.2860, 831.4797
369.7681, 824.7721
370.2502, 823.0601
370.7324, 830.7173
371.2145, 839.0200
371.6966, 844.5005
372.1787, 845.4323
372.6608, 847.9499
373.1429, 853.4673
373.6251, 859.7930
374.1072, 862.6255
374.5893, 858.4949
375.0714, 858.0175
375.5535, 866.1917
376.0356, 883.9003
376.5178, 895.6280
376.9999, 899.5411
377.4820, 900.4320
377.9641, 903.9861
378.4462, 910.8148
378.9283, 916.2634
379.4105, 918.5448
379.8926, 918.5546
380.3747, 920.5394
380.8568, 924.7316
381.3389, 929.5614
381.8210, 932.7321
382.3032, 934.7652
382.7853, 941.0423
383.2674, 954.3698
383.7495, 969.8013
384.2316, 977.1177
384.7137, 977.0042
385.1959, 974.9843
385.6780, 975.1147
386.1601, 975.8578
386.6422, 973.1278
387.1243, 965.3676
387.6064, 957.8676
388.0886, 957.0014
388.5707, 960.8557
389.0528, 964.5067
389.5349, 963.8030
390.0170, 962.6910
390.4991, 967.2823
390.9813, 978.5274
391.4634, 984.9989
391.9455, 973.1516
392.4276, 953.9239
392.9097, 941.2122
393.3918, 950.1086
393.8740, 957.5587
394.3561, 951.1899
394.8382, 932.1822
395.3203, 912.9522
395.8024, 894.4003
396.2845, 879.5901
396.7667, 870.8989
397.2488, 876.1594
397.7309, 878.2623
398.2130, 872.7621
398.6951, 861.6625
399.1772, 851.2444
399.6594, 843.2979
400.1415, 835.2617
400.6236, 825.7490
401.1057, 812.4466
401.5878, 803.3341
402.0699, 800.9601
402.5521, 801.5343
403.0342, 799.3456
403.5163, 792.5051
403.9984, 786.1165
404.4805, 780.4489
404.9626, 775.4613
405.4448, 777.3342
405.9269, 789.0532
406.4090, 802.1511
406.8911, 808.1085
407.3732, 805.9488
407.8553, 803.2318
408.3375, 801.3583
408.8196, 799.8453
409.3017, 796.0671
409.7838, 789.5953
410.2659, 785.6862
410.7480, 790.1703
411.2302, 801.1277
411.7123, 808.4180
412.1944, 810.1209
412.6765, 810.0936
413.1586, 813.4197
413.6407, 819.6293
414.1229, 826.5223
414.6050, 832.6962
415.0871, 839.1055
415.5692, 848.1056
416.0513, 860.0980
416.5334, 870.0689
417.0156, 871.8585
417.4977, 869.6548
417.9798, 869.6987
418.4619, 875.3521
418.9440, 883.0074
419.4261, 890.5311
419.9083, 898.0110
420.3904, 906.7797
420.8725, 918.4297
421.3546, 930.8983
421.8367, 942.4508
422.3188, 951.8189
422.8010, 962.1074
423.2831, 974.1786
423.7652, 987.7139
424.2473, 1002.302
424.7295, 1022.116
425.2116, 1039.207
425.6937, 1049.461
426.1758, 1049.301
426.6579, 1056.193
427.1400, 1075.479
427.6222, 1098.324
428.1043, 1115.820
428.5864, 1124.917
429.0685, 1134.402
429.5506, 1143.961
430.0327, 1154.524
430.5149, 1175.803
430.9970, 1212.456
431.4791, 1248.481
431.9612, 1269.965
432.4433, 1275.666
432.9254, 1288.848
433.4076, 1313.283
433.8897, 1343.263
434.3718, 1367.920
434.8539, 1387.422
435.3360, 1407.739
435.8181, 1430.933
436.3003, 1456.984
436.7824, 1488.408
437.2645, 1525.811
437.7466, 1560.529
438.2287, 1581.822
438.7108, 1594.090
439.1930, 1607.016
439.6751, 1623.547
440.1572, 1642.258
440.6393, 1664.639
441.1214, 1689.177
441.6035, 1708.409
442.0857, 1716.860
442.5678, 1718.768
443.0499, 1717.893
443.5320, 1715.565
444.0141, 1708.887
444.4962, 1695.646
444.9784, 1677.470
445.4605, 1657.087
445.9426, 1627.059
446.4247, 1602.539
446.9068, 1595.119
447.3889, 1610.405
447.8711, 1602.604
448.3532, 1543.549
448.8353, 1477.139
449.3174, 1436.432
449.7995, 1443.396
450.2816, 1438.629
450.7638, 1410.754
451.2459, 1367.139
451.7280, 1338.544
452.2101, 1330.272
452.6922, 1324.494
453.1743, 1313.556
453.6565, 1297.687
454.1386, 1273.536
454.6207, 1238.004
455.1028, 1200.829
455.5849, 1175.063
456.0670, 1160.448
456.5492, 1151.635
457.0313, 1149.705
457.5134, 1151.133
457.9955, 1145.839
458.4776, 1134.101
458.9597, 1124.594
459.4419, 1125.148
459.9240, 1132.339
460.4061, 1140.561
460.8882, 1148.661
461.3703, 1157.386
461.8524, 1169.313
462.3346, 1182.427
462.8167, 1191.790
463.2988, 1186.232
463.7809, 1182.803
464.2630, 1194.206
464.7451, 1222.642
465.2273, 1250.301
465.7094, 1272.846
466.1915, 1290.704
466.6736, 1304.492
467.1557, 1305.814
467.6378, 1312.479
468.1200, 1328.051
468.6021, 1351.500
469.0842, 1377.912
469.5663, 1412.164
470.0484, 1443.595
470.5305, 1468.228
471.0127, 1485.556
471.4948, 1497.370
471.9769, 1504.000
472.4590, 1504.875
472.9411, 1496.495
473.4232, 1476.632
473.9054, 1462.979
474.3875, 1465.398
474.8696, 1476.837
475.3517, 1465.543
475.8338, 1430.396
476.3159, 1393.324
476.7981, 1375.153
477.2802, 1368.989
477.7623, 1352.522
478.2444, 1320.409
478.7265, 1283.861
479.2086, 1254.420
479.6908, 1230.887
480.1729, 1210.629
480.6550, 1191.568
481.1371, 1175.747
481.6192, 1167.869
482.1013, 1167.569
482.5835, 1163.292
483.0656, 1144.126
483.5477, 1121.227
484.0298, 1103.838
484.5119, 1093.906
484.9940, 1089.822
485.4762, 1095.190
485.9583, 1106.280
486.4404, 1113.492
486.9225, 1113.890
487.4046, 1112.212
487.8867, 1108.998
488.3689, 1103.530
488.8510, 1101.273
489.3331, 1104.810
489.8152, 1108.438
490.2973, 1105.291
490.7794, 1092.786
491.2616, 1085.076
491.7437, 1085.688
492.2258, 1091.457
492.7079, 1093.557
493.1900, 1091.799
493.6722, 1089.797
494.1543, 1089.782
494.6364, 1091.225
495.1185, 1092.574
495.6006, 1093.802
496.0828, 1094.396
496.5649, 1096.691
497.0470, 1097.780
497.5291, 1091.047
498.0112, 1065.611
498.4933, 1040.312
498.9755, 1033.985
499.4576, 1042.191
499.9397, 1048.545
500.4218, 1045.118
500.9039, 1037.471
501.3860, 1027.679
501.8682, 1013.803
502.3503, 1005.449
502.8324, 1008.820
503.3145, 1017.369
503.7966, 1023.295
504.2787, 1024.214
504.7609, 1024.755
505.2430, 1023.833
505.7251, 1022.395
506.2072, 1028.154
506.6893, 1045.542
507.1714, 1062.183
507.6536, 1070.090
508.1357, 1067.613
508.6178, 1070.677
509.0999, 1081.268
509.5820, 1093.720
510.0641, 1098.487
510.5463, 1096.442
511.0284, 1097.983
511.5105, 1105.767
511.9926, 1119.735
512.4747, 1141.916
512.9568, 1171.518
513.4390, 1201.918
513.9211, 1227.860
514.4032, 1252.363
514.8853, 1277.794
515.3674, 1303.640
515.8495, 1334.754
516.3317, 1380.306
516.8138, 1431.304
517.2959, 1475.313
517.7780, 1494.869
518.2601, 1520.502
518.7422, 1563.689
519.2244, 1623.336
519.7065, 1685.572
520.1886, 1744.584
520.6707, 1809.105
521.1528, 1883.489
521.6349, 1971.288
522.1171, 2059.927
522.5992, 2150.168
523.0813, 2240.492
523.5634, 2329.052
524.0455, 2413.174
524.5276, 2510.696
525.0098, 2630.488
525.4919, 2764.815
525.9740, 2891.094
526.4561, 3010.129
526.9382, 3128.214
527.4203, 3251.986
527.9025, 3380.525
528.3846, 3508.185
528.8667, 3634.239
529.3488, 3765.768
529.8309, 3915.556
530.3130, 4072.532
530.7952, 4220.910
531.2773, 4353.943
531.7594, 4475.610
532.2415, 4583.729
532.7236, 4680.806
533.2057, 4772.838
533.6879, 4869.197
534.1700, 4956.280
534.6521, 5029.805
535.1342, 5094.158
535.6163, 5129.655
536.0984, 5130.871
536.5806, 5106.654
537.0627, 5066.334
537.5448, 5010.580
538.0269, 4935.368
538.5090, 4840.384
538.9911, 4725.903
539.4733, 4592.799
539.9554, 4437.317
540.4375, 4282.045
540.9196, 4145.228
541.4017, 4019.546
541.8839, 3873.641
542.3660, 3704.599
542.8481, 3533.314
543.3302, 3370.777
543.8123, 3218.374
544.2944, 3077.937
544.7766, 2953.164
545.2587, 2835.616
545.7408, 2720.144
546.2229, 2608.443
546.7050, 2501.851
547.1871, 2398.077
547.6693, 2302.107
548.1514, 2219.260
548.6335, 2150.910
549.1156, 2083.536
549.5977, 2009.836
550.0798, 1939.926
550.5620, 1881.965
551.0441, 1843.077
551.5262, 1801.380
552.0083, 1755.211
552.4904, 1706.371
552.9725, 1657.943
553.4547, 1609.727
553.9368, 1562.625
554.4189, 1516.405
554.9010, 1471.920
555.3831, 1432.892
555.8652, 1399.312
556.3474, 1371.728
556.8295, 1355.810
557.3116, 1345.278
557.7937, 1326.835
558.2758, 1297.382
558.7579, 1264.877
559.2401, 1231.231
559.7222, 1200.225
560.2043, 1177.985
560.6864, 1173.581
561.1685, 1171.846
561.6506, 1169.052
562.1328, 1164.336
562.6149, 1153.573
563.0970, 1129.910
563.5791, 1105.333
564.0612, 1083.490
564.5433, 1062.978
565.0255, 1051.445
565.5076, 1053.584
565.9897, 1059.271
566.4718, 1057.221
566.9539, 1045.654
567.4360, 1038.533
567.9182, 1040.317
568.4003, 1044.982
568.8824, 1038.112
569.3645, 1020.668
569.8466, 1003.595
570.3287, 992.7701
570.8109, 986.1554
571.2930, 981.5114
571.7751, 978.6662
572.2572, 975.8355
572.7393, 971.7865
573.2214, 967.0632
573.7036, 962.1371
574.1857, 956.9361
574.6678, 951.9644
575.1499, 948.1668
575.6320, 944.5711
576.1141, 939.6921
576.5963, 930.9800
577.0784, 923.6913
577.5605, 919.6633
578.0426, 918.2225
578.5247, 914.0152
579.0068, 904.5723
579.4890, 897.4938
579.9711, 898.0115
580.4532, 906.7365
580.9353, 912.0773
581.4174, 914.0386
581.8995, 912.5683
582.3817, 903.5490
582.8638, 890.2510
583.3459, 886.1603
583.8280, 898.6902
584.3101, 913.5394
584.7922, 912.6023
585.2744, 900.7965
585.7565, 890.7665
586.2386, 888.1730
586.7207, 889.4431
587.2028, 894.8261
587.6849, 903.9295
588.1671, 908.6258
588.6492, 902.7131
589.1313, 894.5856
589.6134, 889.2177
590.0955, 887.1000
590.5776, 886.9119
591.0598, 889.5688
591.5419, 893.3336
592.0240, 895.5031
592.5061, 895.3640
592.9882, 897.9247
593.4703, 906.3375
593.9525, 916.0632
594.4346, 912.0117
594.9167, 895.4407
595.3988, 884.0302
595.8809, 892.6719
596.3630, 911.1894
596.8452, 924.2078
597.3273, 930.9362
597.8094, 933.4588
598.2915, 930.4135
598.7736, 925.1768
599.2557, 920.6994
599.7379, 916.7281
600.2200, 915.4968
600.7021, 919.6406
601.1843, 926.4458
601.6664, 922.2673
602.1485, 933.5291
602.6306, 939.7003
603.1127, 941.0545
603.5948, 923.1640
604.0770, 930.1239
604.5591, 927.1249
605.0412, 923.7176
605.5233, 934.1752
606.0054, 919.0838
606.4875, 929.3215
606.9697, 929.4482
607.4518, 934.2025
607.9339, 928.9363
608.4160, 926.7652
608.8981, 934.6177
609.3802, 936.9200
609.8624, 930.5003
610.3445, 935.5488
610.8266, 920.1074
611.3087, 922.6461
611.7908, 932.8286
612.2729, 936.8674
612.7551, 927.8598
613.2372, 907.7060
613.7193, 890.5406
614.2014, 875.1296
614.6835, 865.0928
615.1656, 863.3604
615.6478, 871.1160
616.1299, 875.6851
616.6120, 876.3583
617.0941, 875.6068
617.5762, 875.8630
618.0583, 876.9133
618.5405, 876.7374
619.0226, 874.7223
619.5047, 872.3573
619.9868, 872.4794
620.4689, 873.7288
620.9510, 872.8168
621.4332, 867.3942
621.9153, 860.1992
622.3974, 853.0067
622.8795, 845.5450
623.3616, 836.5826
623.8438, 819.2130
624.3259, 805.8680
624.8080, 803.9948
625.2901, 815.7874
625.7722, 825.3406
626.2543, 832.8967
626.7365, 837.9111
627.2186, 839.8657
627.7007, 838.6082
628.1828, 834.2789
628.6649, 825.4424
629.1470, 817.1351
629.6292, 818.3258
630.1113, 827.2582
630.5934, 834.8669
631.0755, 837.5891
631.5576, 838.3273
632.0397, 841.7835
632.5219, 846.4579
633.0040, 847.5640
633.4861, 838.0128
633.9682, 828.0728
634.4503, 823.9694
634.9324, 826.1791
635.4146, 828.9730
635.8967, 837.1465
636.3788, 840.6864
636.8609, 831.7480
637.3430, 798.4398
637.8251, 787.8576
638.3073, 808.7684
638.7894, 839.1851
639.2715, 852.4042
639.7536, 848.2056
640.2357, 840.4174
640.7178, 829.7029
641.2000, 820.5336
641.6821, 823.0870
642.1642, 833.9737
642.6463, 841.0753
643.1284, 833.6533
643.6105, 823.7418
644.0927, 821.3480
644.5748, 825.7253
645.0569, 831.2884
645.5390, 839.9887
646.0211, 845.9978
646.5032, 846.0199
646.9854, 838.4901
647.4675, 828.7878
647.9496, 812.8678
648.4317, 799.3741
648.9138, 796.9123
649.3959, 808.2021
649.8781, 813.9335
650.3602, 811.2186
650.8423, 805.1844
651.3244, 804.1954
651.8065, 807.0306
652.2886, 807.0652
652.7708, 799.9570
653.2529, 791.7774
653.7350, 788.8164
654.2171, 790.4073
654.6992, 794.6979
655.1813, 803.4781
655.6635, 812.3695
656.1456, 820.2135
656.6277, 826.8843
657.1098, 828.7891
657.5919, 821.0457
658.0740, 812.7292
658.5562, 807.9392
659.0383, 806.9929
659.5204, 808.7476
660.0025, 814.2457
660.4846, 820.0102
660.9667, 822.0819
661.4489, 820.8369
661.9310, 819.4551
662.4131, 818.4778
662.8952, 817.5314
663.3773, 815.8523
663.8594, 813.8737
664.3416, 812.5311
664.8237, 810.7145
665.3058, 811.0607
665.7879, 818.3067
666.2700, 829.5042
666.7521, 834.6352
667.2343, 824.0593
667.7164, 814.3025
668.1985, 811.2629
668.6806, 814.9274
669.1627, 816.5000
669.6448, 815.1107
670.1270, 813.6084
670.6091, 813.2016
671.0912, 813.9875
671.5733, 818.6747
672.0554, 827.8191
672.5375, 836.8497
673.0197, 842.2173
673.5018, 843.9914
673.9839, 841.2894
674.4660, 831.5803
674.9481, 823.6582
675.4302, 824.1476
675.9124, 829.7017
676.3945, 835.4196
676.8766, 840.8259
677.3587, 845.3690
677.8408, 848.3761
678.3229, 850.5169
678.8051, 854.3644
679.2872, 862.5048
679.7693, 865.5144
680.2514, 857.5123
680.7335, 841.7893
681.2156, 836.6436
681.6978, 842.1832
682.1799, 849.0352
682.6620, 851.8015
683.1441, 851.3095
683.6262, 846.6472
684.1083, 837.7328
684.5905, 833.5020
685.0726, 844.8519
685.5547, 860.5438
686.0368, 870.3640
686.5189, 868.9044
687.0010, 869.6094
687.4832, 878.1014
687.9653, 887.5510
688.4474, 890.7527
688.9295, 885.6320
689.4116, 879.4869
689.8937, 871.1382
690.3759, 864.9160
690.8580, 871.9030
691.3401, 890.8493
691.8222, 907.3853
692.3043, 917.5296
692.7864, 921.3046
693.2686, 915.5530
693.7507, 902.7206
694.2328, 891.8868
694.7149, 886.1992
695.1970, 884.7949
695.6791, 888.3122
696.1613, 896.6638
696.6434, 905.0502
697.1255, 915.8987
697.6076, 923.4374
698.0897, 923.2563
698.5718, 912.9457
699.0540, 913.3700
699.5361, 927.9752
700.0182, 942.8604
700.5003, 941.8148
700.9824, 928.8640
701.4645, 924.7753
701.9467, 933.5000
702.4288, 943.9115
702.9109, 944.9866
703.3930, 940.6818
703.8751, 936.8745
704.3572, 935.8836
704.8394, 934.8494
705.3215, 929.6217
705.8036, 924.1548
706.2857, 926.3631
706.7678, 941.6642
707.2499, 956.7166
707.7321, 971.4879
708.2142, 983.8310
708.6963, 984.7753
709.1784, 973.3301
709.6605, 960.1577
710.1426, 946.7040
710.6248, 936.2929
711.1069, 941.9644
711.5890, 961.0236
712.0711, 974.8892
712.5532, 965.4531
713.0353, 949.8829
713.5175, 942.4730
713.9996, 944.6475
714.4817, 947.4385
714.9638, 947.3823
715.4459, 948.0013
715.9280, 951.7441
716.4102, 960.3583
716.8923, 966.2654
717.3744, 969.1094
717.8565, 970.0148
718.3386, 970.3278
718.8207, 969.9263
719.3029, 966.7255
719.7850, 959.6453
720.2671, 953.0077
720.7492, 952.4283
721.2313, 955.8005
721.7134, 959.4348
722.1956, 963.0160
722.6777, 965.4005
723.1598, 963.2188
723.6419, 959.9078
724.1240, 962.3262
724.6061, 980.4626
725.0883, 992.1109
725.5704, 991.8938
726.0525, 983.1888
726.5346, 976.4306
727.0167, 971.5584
727.4988, 969.3065
727.9810, 971.2373
728.4631, 975.4051
728.9452, 977.1575
729.4273, 976.7505
729.9094, 975.8334
730.3915, 975.2443
730.8737, 974.7030
731.3558, 974.8831
731.8379, 975.7701
732.3200, 973.4376
732.8021, 957.9008
733.2842, 946.7448
733.7664, 950.6622
734.2485, 974.4720
734.7306, 988.3438
735.2127, 990.2121
735.6948, 987.0071
736.1769, 984.5893
736.6591, 982.4908
737.1412, 975.3898
737.6233, 961.5011
738.1054, 951.8219
738.5875, 964.7045
739.0696, 986.1047
739.5518, 994.6086
740.0339, 977.3597
740.5161, 962.7326
740.9982, 964.5947
741.4803, 974.1851
741.9624, 979.0266
742.4445, 972.7811
742.9266, 973.1179
743.4088, 985.3270
743.8909, 1001.760
744.3730, 1005.797
744.8551, 997.3356
745.3372, 991.0936
745.8193, 992.7549
746.3015, 997.1480
746.7836, 996.2262
747.2657, 991.3746
747.7478, 986.6799
748.2299, 984.0663
748.7120, 982.2424
749.1942, 979.1822
749.6763, 975.8077
750.1584, 977.4714
750.6405, 989.9930
751.1226, 1000.856
751.6047, 1006.441
752.0869, 1006.972
752.5690, 1003.617
753.0511, 995.4830
753.5332, 990.5412
754.0153, 997.6053
754.4974, 1010.694
754.9796, 1015.377
755.4617, 1011.660
755.9438, 1005.639
756.4259, 1001.673
756.9080, 996.8408
757.3901, 987.3838
757.8723, 971.1436
758.3544, 960.6843
758.8365, 962.0612
759.3186, 966.1710
759.8007, 967.4617
760.2828, 964.5485
760.7650, 966.0773
761.2471, 973.6237
761.7292, 980.3903
762.2113, 973.4071
762.6934, 959.5293
763.1755, 965.4521
763.6577, 1000.099
764.1398, 1029.202
764.6219, 1018.219
765.1040, 989.4263
765.5861, 968.9880
766.0682, 966.6357
766.5504, 967.4406
767.0325, 973.0255
767.5146, 978.3737
767.9967, 977.0211
768.4788, 967.0162
768.9609, 957.9196
769.4431, 951.0164
769.9252, 945.8120
770.4073, 941.4670
770.8894, 938.0776
771.3715, 936.4178
771.8536, 938.4095
772.3358, 939.5558
772.8179, 933.4976
773.3000, 924.0612
773.7821, 918.8141
774.2642, 924.5574
774.7463, 929.6706
775.2285, 932.3473
775.7106, 932.3031
776.1927, 927.7487
776.6748, 917.0372
777.1569, 907.9374
777.6390, 903.1420
778.1212, 901.3354
778.6033, 898.3969
779.0854, 894.9757
779.5675, 894.6224
780.0496, 906.0787
780.5317, 916.0168
781.0139, 908.0417
781.4960, 886.7293
781.9781, 874.9164
782.4602, 889.1243
782.9423, 904.3732
783.4244, 913.0689
783.9066, 915.3741
784.3887, 911.8145
784.8708, 900.5269
785.3529, 890.6764
785.8350, 888.7036
786.3171, 891.9836
786.7993, 891.1503
787.2814, 886.4670
787.7635, 881.1390
788.2456, 877.9435
788.7277, 874.5091
789.2098, 867.4749
789.6920, 856.4564
790.1741, 849.4860
790.6562, 851.1837
791.1383, 855.0084
791.6204, 859.1901
792.1025, 864.1643
792.5847, 862.3948
793.0668, 852.2897
793.5489, 842.4609
794.0310, 841.8117
794.5131, 846.5994
794.9952, 845.5166
795.4774, 837.7854
795.9595, 831.4066
796.4416, 834.8408
796.9237, 840.3279
797.4058, 840.8171
797.8879, 833.7531
798.3701, 827.8459
798.8522, 825.4825
799.3343, 822.9835
799.8164, 816.5759
800.2985, 804.8726
800.7806, 801.2651
801.2628, 807.2507
801.7449, 815.2076
802.2270, 816.2040
802.7091, 813.7454
803.1912, 815.2258
803.6733, 822.3470
804.1555, 829.7548
804.6376, 835.7769
805.1197, 839.6430
805.6018, 840.5467
806.0839, 836.9739
806.5660, 832.8876
807.0482, 828.2892
807.5303, 823.1788
808.0124, 815.8197
808.4945, 789.6592
808.9766, 809.9461
809.4587, 821.3246
809.9409, 824.2731
810.4230, 793.5436
810.9051, 806.3024
811.3872, 801.6330
811.8693, 796.2490
812.3514, 815.1285
812.8336, 789.2974
813.3157, 807.7922
813.7978, 808.5929
814.2799, 817.4917
814.7620, 808.8547
815.2441, 805.6340
815.7263, 819.9548
816.2084, 824.5626
816.6905, 813.9070
817.1726, 823.3206
817.6547, 796.8770
818.1368, 801.8985
818.6190, 820.4959
819.1011, 810.7220
819.5832, 820.4562
820.0653, 822.7607
820.5474, 791.3000
821.0295, 818.5603
821.5117, 820.4257
821.9938, 796.2160
822.4759, 821.4642
822.9580, 800.8493
823.4401, 796.6047
823.9222, 804.6799
824.4044, 799.9122
824.8865, 815.3928
825.3686, 811.3667
825.8507, 805.5978
826.3328, 807.4347
826.8149, 787.7191
827.2971, 807.9877
827.7792, 802.6914
828.2613, 820.2419
828.7434, 828.1480
829.2255, 821.6062
829.7076, 809.2633
830.1898, 803.4034
830.6719, 804.0558
831.1540, 802.0024
831.6361, 794.8711
832.1182, 786.9421
832.6003, 783.4594
833.0825, 782.7554
833.5646, 781.6677
834.0467, 776.4498
834.5288, 775.7527
835.0109, 788.1844
835.4930, 804.3354
835.9752, 811.0067
836.4573, 802.8613
836.9394, 800.5757
837.4215, 807.6276
837.9036, 818.0315
838.3857, 824.7876
838.8679, 827.8046
839.3500, 825.8348
839.8321, 817.4142
840.3142, 807.6984
840.7963, 798.3936
841.2784, 791.2090
841.7606, 788.4139
842.2427, 791.5980
842.7248, 798.3314
843.2069, 812.6199
843.6890, 826.4026
844.1711, 828.1050
844.6533, 816.9510
845.1354, 810.5728
845.6175, 812.5062
846.0996, 814.9868
846.5817, 805.4252
847.0638, 790.7466
847.5460, 783.4627
848.0281, 788.2897
848.5102, 796.2369
848.9923, 809.7716
849.4744, 821.1769
849.9565, 821.6220
850.4387, 804.1827
850.9208, 793.5883
851.4029, 791.8840
851.8850, 794.6577
852.3671, 797.2257
852.8492, 799.9193
853.3314, 804.6560
853.8135, 812.3467
854.2956, 818.6669
854.7777, 817.8270
855.2598, 815.2009
855.7419, 817.0789
856.2241, 829.8445
856.7062, 834.4125
857.1883, 823.9137
857.6704, 811.9705
858.1525, 811.8361
858.6346, 823.9706
859.1168, 831.2632
859.5989, 832.8605
860.0810, 828.2546
860.5631, 808.1301
861.0452, 785.3985
861.5273, 780.1284
862.0095, 798.2614
862.4916, 815.7427
862.9737, 826.1084
863.4558, 830.1927
863.9379, 827.6384
864.4200, 816.1898
864.9022, 810.0268
865.3843, 810.3794
865.8664, 811.2079
866.3485, 803.9306
866.8306, 793.8299
867.3127, 796.7704
867.7949, 813.5496
868.2770, 827.8184
868.7591, 827.0079
869.2412, 821.8208
869.7233, 820.2749
870.2054, 824.1736
870.6876, 823.3911
871.1697, 815.8725
871.6518, 807.5704
872.1339, 800.5598
872.6160, 795.3796
873.0981, 797.5526
873.5803, 806.7574
874.0624, 815.2951
874.5445, 817.5488
875.0266, 817.1066
875.5087, 816.6862
875.9908, 816.4548
876.4730, 816.3234
876.9551, 816.0785
877.4372, 816.2341
877.9193, 817.5955
878.4014, 819.6012
878.8835, 817.3358
879.3657, 810.6437
879.8478, 806.6422
880.3299, 811.9550
880.8120, 820.3029
881.2941, 822.0941
881.7763, 819.1438
882.2584, 817.8287
882.7405, 823.9586
883.2227, 828.6164
883.7048, 828.0767
884.1869, 823.8167
884.6690, 819.3707
885.1511, 814.2862
885.6332, 811.4463
886.1154, 812.2056
886.5975, 815.0345
887.0796, 819.2302
887.5617, 823.3182
888.0438, 823.1896
888.5259, 809.7753
889.0081, 800.1182
889.4902, 803.7899
889.9723, 815.9074
890.4544, 827.5807
890.9365, 840.5710
891.4186, 847.7132
891.9008, 847.5310
892.3829, 842.0713
892.8650, 830.4902
893.3471, 815.9629
893.8292, 810.5203
894.3113, 820.0994
894.7935, 830.6398
895.2756, 832.8228
895.7577, 830.0731
896.2398, 825.8837
896.7219, 815.4026
897.2040, 814.1769
897.6862, 826.6478
898.1683, 841.1708
898.6504, 844.6739
899.1325, 838.7683
899.6146, 834.4794
900.0967, 832.9862
900.5789, 831.7856
901.0610, 825.9678
901.5431, 821.1517
902.0252, 824.3815
902.5073, 839.2529
902.9894, 847.9096
903.4716, 844.9442
903.9537, 840.3779
904.4358, 839.8499
904.9179, 843.1528
905.4000, 845.7715
905.8821, 847.6922
906.3643, 848.8420
906.8464, 848.1065
907.3285, 847.3005
907.8106, 847.9302
908.2927, 850.1539
908.7748, 854.6017
909.2570, 863.8206
909.7391, 872.9413
910.2212, 882.5587
910.7033, 890.8363
911.1854, 884.0721
911.6675, 861.6172
912.1497, 848.8539
912.6318, 866.1184
913.1139, 889.6400
913.5960, 883.8013
914.0781, 859.9991
914.5602, 845.7747
915.0424, 858.9553
915.5245, 874.0695
916.0066, 886.9438
916.4887, 896.8016
916.9708, 900.9223
917.4529, 898.6092
917.9351, 898.2482
918.4172, 901.9727
918.8993, 906.9964
919.3814, 910.6389
919.8635, 912.7153
920.3456, 912.6905
920.8278, 909.5289
921.3099, 906.2346
921.7920, 900.2596
922.2741, 897.0377
922.7562, 902.8423
923.2383, 920.6368
923.7205, 930.3665
924.2026, 930.1935
924.6847, 928.7568
925.1668, 936.3444
925.6489, 947.3477
926.1310, 951.9572
926.6132, 948.8959
927.0953, 946.2857
927.5774, 945.4283
928.0595, 948.1210
928.5416, 957.5283
929.0237, 973.5781
929.5059, 976.3064
929.9880, 963.4428
930.4701, 953.4814
930.9522, 960.9902
931.4343, 976.3960
931.9164, 983.5718
932.3986, 984.0274
932.8807, 983.8552
933.3628, 983.4328
933.8449, 985.4349
934.3270, 977.4987
934.8091, 1000.040
935.2913, 1013.675
935.7734, 1018.878
936.2555, 990.4036
936.7376, 1005.417
937.2197, 1003.003
937.7018, 999.8740
938.1840, 1021.009
938.6661, 997.4329
939.1482, 1018.183
939.6303, 1021.239
940.1124, 1032.393
940.5945, 1026.010
941.0767, 1025.045
941.5588, 1041.621
942.0409, 1048.484
942.5230, 1040.083
943.0051, 1051.752
943.4872, 1027.563
943.9694, 1034.841
944.4515, 1055.693
944.9336, 1048.174
945.4157, 1060.163
945.8978, 1064.723
946.3799, 1035.517
946.8621, 1065.033
947.3442, 1069.153
947.8263, 1047.199
948.3084, 1074.702
948.7905, 1056.342
949.2726, 1054.353
949.7548, 1064.683
950.2369, 1062.171
950.7190, 1079.906
951.2011, 1078.135
951.6832, 1074.622
952.1653, 1078.713
952.6475, 1061.253
953.1296, 1083.777
953.6117, 1078.988
954.0938, 1087.776
954.5759, 1099.641
955.0580, 1111.252
955.5402, 1137.120
956.0223, 1135.800
956.5044, 1121.839
956.9865, 1117.742
957.4686, 1137.095
957.9507, 1148.241
958.4329, 1139.178
958.9150, 1128.011
959.3971, 1130.261
959.8792, 1146.303
960.3613, 1157.098
960.8434, 1162.181
961.3256, 1163.483
961.8077, 1155.306
962.2898, 1149.208
962.7719, 1160.668
963.2540, 1189.440
963.7361, 1210.396
964.2183, 1213.276
964.7004, 1215.574
965.1825, 1223.114
965.6646, 1233.966
966.1467, 1241.729
966.6288, 1246.343
967.1110, 1247.491
967.5931, 1241.177
968.0752, 1236.439
968.5573, 1246.117
969.0394, 1261.171
969.5215, 1265.041
970.0037, 1241.554
970.4858, 1231.612
970.9679, 1241.840
971.4500, 1259.487
971.9321, 1270.624
972.4142, 1275.472
972.8964, 1272.394
973.3785, 1260.292
973.8606, 1252.076
974.3427, 1258.650
974.8248, 1271.428
975.3069, 1284.446
975.7891, 1297.306
976.2712, 1309.975
976.7533, 1323.611
977.2354, 1333.299
977.7175, 1334.005
978.1996, 1329.979
978.6818, 1331.294
979.1639, 1337.536
979.6460, 1347.055
980.1281, 1365.119
980.6102, 1379.672
981.0923, 1381.546
981.5745, 1377.515
982.0566, 1381.643
982.5387, 1396.035
983.0208, 1407.196
983.5029, 1412.315
983.9850, 1415.028
984.4672, 1419.280
984.9493, 1424.616
985.4314, 1430.830
985.9135, 1438.785
986.3956, 1444.046
986.8777, 1442.659
987.3599, 1440.489
987.8420, 1440.218
988.3241, 1441.839
988.8062, 1448.328
989.2883, 1459.754
989.7704, 1469.350
990.2526, 1469.345
990.7347, 1467.687
991.2168, 1475.036
991.6989, 1488.542
992.1810, 1495.008
992.6631, 1486.083
993.1453, 1478.590
993.6274, 1477.278
994.1095, 1477.335
994.5916, 1467.901
995.0737, 1450.763
995.5558, 1433.979
996.0380, 1419.072
996.5201, 1407.305
997.0022, 1399.055
997.4843, 1394.761
997.9664, 1396.764
998.4485, 1410.053
998.9307, 1410.104
999.4128, 1393.071
999.8949, 1374.877
1000.377, 1369.142
1000.859, 1370.787
1001.341, 1368.437
1001.823, 1361.974
1002.305, 1352.865
1002.788, 1342.700
1003.270, 1328.849
1003.752, 1305.010
1004.234, 1277.745
1004.716, 1266.170
1005.198, 1272.108
1005.680, 1274.151
1006.162, 1266.088
1006.645, 1254.027
1007.127, 1243.158
1007.609, 1234.130
1008.091, 1228.682
1008.573, 1230.165
1009.055, 1227.364
1009.537, 1215.763
1010.019, 1204.142
1010.501, 1199.957
1010.984, 1202.200
1011.466, 1200.276
1011.948, 1194.203
1012.430, 1185.561
1012.912, 1174.487
1013.394, 1162.044
1013.876, 1146.422
1014.358, 1129.681
1014.841, 1120.496
1015.323, 1120.992
1015.805, 1124.123
1016.287, 1130.328
1016.769, 1134.541
1017.251, 1125.301
1017.733, 1108.178
1018.215, 1095.846
1018.697, 1093.986
1019.180, 1089.379
1019.662, 1069.852
1020.144, 1051.409
1020.626, 1046.602
1021.108, 1056.569
1021.590, 1060.765
1022.072, 1058.987
1022.554, 1056.310
1023.037, 1058.020
1023.519, 1059.221
1024.001, 1051.706
1024.483, 1038.653
1024.965, 1032.482
1025.447, 1042.514
1025.929, 1049.141
1026.411, 1050.059
1026.893, 1045.192
1027.376, 1030.192
1027.858, 1008.764
1028.340, 996.0051
1028.822, 995.5933
1029.304, 999.9351
1029.786, 1011.638
1030.268, 1020.516
1030.750, 1016.328
1031.233, 997.7438
1031.715, 985.7328
1032.197, 980.9062
1032.679, 979.9276
1033.161, 982.8527
1033.643, 987.1482
1034.125, 989.2736
1034.607, 989.5949
1035.089, 989.1379
1035.572, 989.9412
1036.054, 987.1395
1036.536, 977.2900
1037.018, 966.7435
1037.500, 966.8803
1037.982, 975.7682
1038.464, 976.5143
1038.946, 965.9685
1039.428, 959.3654
1039.911, 977.4562
1040.393, 997.1864
1040.875, 997.3345
1041.357, 976.5302
1041.839, 963.0972
1042.321, 957.3732
1042.803, 958.6699
1043.285, 969.8289
1043.768, 984.2654
1044.250, 988.7994
1044.732, 987.2231
1045.214, 988.0038
1045.696, 996.0486
1046.178, 1004.090
1046.660, 1010.862
1047.142, 1017.150
1047.625, 1025.045
1048.107, 1034.105
1048.589, 1035.882
1049.071, 1029.884
1049.553, 1023.959
1050.035, 1020.477
1050.517, 1022.318
1050.999, 1037.937
1051.481, 1063.770
1051.964, 1069.300
1052.446, 1046.021
1052.928, 1030.138
1053.410, 1032.411
1053.892, 1044.631
1054.374, 1055.738
1054.856, 1066.147
1055.338, 1077.097
1055.820, 1090.694
1056.303, 1099.566
1056.785, 1096.028
1057.267, 1093.272
1057.749, 1103.014
1058.231, 1123.361
1058.713, 1121.710
1059.195, 1100.047
1059.677, 1084.253
1060.160, 1094.169
1060.642, 1111.700
1061.124, 1128.425
1061.606, 1142.809
1062.088, 1151.256
1062.570, 1151.476
1063.052, 1153.772
1063.534, 1159.661
1064.016, 1167.339
1064.499, 1176.494
1064.981, 1185.333
1065.463, 1190.678
1065.945, 1192.040
1066.427, 1191.924
1066.909, 1186.694
1067.391, 1185.856
1067.873, 1195.045
1068.355, 1210.381
1068.838, 1216.993
1069.320, 1216.050
1069.802, 1214.770
1070.284, 1217.793
1070.766, 1218.000
1071.248, 1206.373
1071.730, 1192.171
1072.212, 1186.457
1072.695, 1191.313
1073.177, 1198.259
1073.659, 1207.962
1074.141, 1215.199
1074.623, 1215.390
1075.105, 1211.146
1075.587, 1204.604
1076.069, 1196.300
1076.552, 1188.366
1077.034, 1180.911
1077.516, 1174.272
1077.998, 1168.643
1078.480, 1163.539
1078.962, 1155.790
1079.444, 1147.866
1079.926, 1150.117
1080.408, 1166.475
1080.891, 1177.670
1081.373, 1168.741
1081.855, 1155.768
1082.337, 1147.494
1082.819, 1143.875
1083.301, 1145.765
1083.783, 1153.063
1084.265, 1156.523
1084.747, 1150.730
1085.230, 1141.093
1085.712, 1128.553
1086.194, 1116.872
1086.676, 1112.796
1087.158, 1122.705
1087.640, 1127.068
1088.122, 1125.493
1088.604, 1118.809
1089.087, 1103.966
1089.569, 1086.172
1090.051, 1074.689
1090.533, 1069.417
1091.015, 1067.007
1091.497, 1070.627
1091.979, 1071.203
1092.461, 1065.783
1092.943, 1057.258
1093.426, 1050.645
1093.908, 1045.744
1094.390, 1040.881
1094.872, 1035.308
1095.354, 1033.337
1095.836, 1043.073
1096.318, 1052.897
1096.800, 1054.550
1097.283, 1048.452
1097.765, 1039.833
1098.247, 1028.463
1098.729, 1018.360
1099.211, 1010.099
1099.693, 1006.007
1100.175, 1011.315
1100.657, 1021.647
1101.140, 1030.424
1101.622, 1040.954
1102.104, 1038.769
1102.586, 1019.715
1103.068, 1000.406
1103.550, 996.5022
1104.032, 1001.138
1104.514, 999.6148
1104.996, 993.2410
1105.479, 990.2339
1105.961, 1000.579
1106.443, 1005.480
1106.925, 1000.430
1107.407, 989.0276
1107.889, 973.2864
1108.371, 955.4916
1108.853, 949.9368
1109.335, 959.3544
1109.818, 969.5536
1110.300, 973.4130
1110.782, 973.3935
1111.264, 970.9636
1111.746, 966.1169
1112.228, 956.1996
1112.710, 940.8842
1113.192, 930.8696
1113.675, 931.2951
1114.157, 934.8956
1114.639, 932.1624
1115.121, 929.7246
1115.603, 938.3607
1116.085, 967.3207
1116.567, 973.3353
1117.049, 950.7955
1117.531, 927.6979
1118.014, 923.4426
1118.496, 929.0902
1118.978, 932.5813
1119.460, 933.6005
1119.942, 931.3471
1120.424, 919.6547
1120.906, 913.5495
1121.388, 915.5909
1121.870, 921.1158
1122.353, 927.1390
1122.835, 932.2367
1123.317, 930.2212
1123.799, 921.4056
1124.281, 914.7800
1124.763, 916.8408
1125.245, 919.9145
1125.727, 921.6227
1126.210, 922.0884
1126.692, 922.4211
1127.174, 922.2098
1127.656, 915.3893
1128.138, 898.9022
1128.620, 888.1499
1129.102, 902.0858
1129.584, 919.7303
1130.067, 923.0183
1130.549, 913.2064
1131.031, 911.6659
1131.513, 919.2690
1131.995, 920.9415
1132.477, 906.7916
1132.959, 891.2121
1133.441, 889.0118
1133.923, 894.8745
1134.406, 902.1591
1134.888, 911.9078
1135.370, 916.9154
1135.852, 916.8290
1136.334, 913.2455
1136.816, 904.4885
1137.298, 894.5370
1137.780, 888.4387
1138.262, 886.5785
1138.745, 890.0807
1139.227, 910.9210
1139.709, 918.3571
1140.191, 905.4083
1140.673, 888.0874
1141.155, 885.9155
1141.637, 892.9202
1142.119, 894.0699
1142.602, 888.8670
1143.084, 883.9783
1143.566, 876.6039
1144.048, 878.0546
1144.530, 896.0445
1145.012, 919.4741
1145.494, 926.8080
1145.976, 920.2745
1146.458, 908.6672
1146.941, 892.6019
1147.423, 880.3282
1147.905, 878.1263
1148.387, 879.7585
1148.869, 881.7925
1149.351, 884.2321
1149.833, 887.4769
1150.315, 891.4409
1150.797, 894.8883
1151.280, 898.0203
1151.762, 899.1391
1152.244, 895.0320
1152.726, 889.5985
1153.208, 886.5964
1153.690, 886.2291
1154.172, 887.0250
1154.654, 889.0218
1155.137, 891.4011
1155.619, 894.8061
1156.101, 897.2266
1156.583, 896.0329
1157.065, 892.6618
1157.547, 889.6261
1158.029, 887.1038
1158.511, 884.5010
1158.994, 881.2319
1159.476, 880.9160
1159.958, 892.2560
1160.440, 904.3364
1160.922, 899.0497
1161.404, 881.4759
1161.886, 873.4293
1162.368, 883.2388
1162.850, 891.7301
1163.333, 897.2203
1163.815, 899.2080
1164.297, 895.2526
1164.779, 888.2985
1165.261, 881.6754
1165.743, 876.0443
1166.225, 877.1687
1166.707, 892.8966
1167.189, 904.7358
1167.672, 908.3691
1168.154, 905.8813
1168.636, 898.6276
1169.118, 888.7571
1169.600, 880.6873
1170.082, 875.1439
1170.564, 872.0704
1171.046, 870.6093
1171.529, 873.1953
1172.011, 883.1363
1172.493, 896.1237
1172.975, 897.5264
1173.457, 891.0775
1173.939, 889.6437
1174.421, 899.7081
1174.903, 908.4822
1175.385, 912.3772
1175.868, 911.4164
1176.350, 902.4015
1176.832, 888.0500
1177.314, 889.9882
1177.796, 904.6929
1178.278, 913.0084
1178.760, 899.1595
1179.242, 886.8574
1179.724, 885.3168
1180.207, 891.2596
1180.689, 905.1369
1181.171, 926.7809
1181.653, 935.0669
1182.135, 930.5543
1182.617, 922.5870
1183.099, 913.5151
1183.581, 906.3062
1184.064, 904.6860
1184.546, 904.6486
1185.028, 899.3112
1185.510, 888.3234
1185.992, 883.4978
1186.474, 885.7405
1186.956, 887.9076
1187.438, 880.0510
1187.921, 874.9172
1188.403, 885.6290
1188.885, 904.8336
1189.367, 914.1378
1189.849, 913.1933
1190.331, 905.6461
1190.813, 890.8958
1191.295, 880.9723
1191.777, 894.8721
1192.260, 910.5228
1192.742, 906.2467
1193.224, 886.3054
1193.706, 880.6425
1194.188, 890.9368
1194.670, 899.0603
1195.152, 901.1536
1195.634, 898.4434
1196.116, 884.6172
1196.599, 871.9150
1197.081, 875.1866
1197.563, 894.6883
1198.045, 906.2576
1198.527, 909.3341
1199.009, 910.5212
1199.491, 912.7157
1199.973, 912.5392
1200.456, 902.0214
1200.938, 889.5604
1201.420, 886.7015
1201.902, 895.9561
1202.384, 898.9092
1202.866, 894.6362
1203.348, 891.3382
1203.830, 894.5504
1204.313, 898.3784
1204.795, 894.0445
1205.277, 886.9174
1205.759, 885.7849
1206.241, 894.2778
1206.723, 896.8850
1207.205, 892.7479
1207.687, 888.6224
1208.169, 882.9589
1208.651, 891.2074
1209.134, 895.8928
1209.616, 897.2059
1210.098, 885.0479
1210.580, 890.2851
1211.062, 888.5511
1211.544, 886.5312
1212.026, 894.2169
1212.508, 884.0181
1212.991, 891.5500
1213.473, 892.0040
1213.955, 895.6973
1214.437, 892.3763
1214.919, 891.2217
1215.401, 897.0838
1215.883, 899.0607
1216.365, 894.9323
1216.848, 898.8317
1217.330, 888.3879
1217.812, 890.5303
1218.294, 898.1030
1218.776, 894.3273
1219.258, 898.3547
1219.740, 899.4102
1220.222, 886.9597
1220.704, 897.9976
1221.187, 898.8777
1221.669, 889.3276
1222.151, 899.5607
1222.633, 891.4485
1223.115, 889.8844
1223.597, 899.6329
1224.079, 903.6904
1224.561, 900.5801
1225.043, 896.2640
1225.526, 897.8433
1226.008, 901.2440
1226.490, 900.9625
1226.972, 897.1799
1227.454, 900.0637
1227.936, 911.5690
1228.418, 920.0854
1228.900, 923.2896
1229.383, 920.4683
1229.865, 903.2676
1230.347, 884.6738
1230.829, 880.8087
1231.311, 892.7823
1231.793, 898.4328
1232.275, 896.9197
1232.757, 895.7311
1233.240, 897.1765
1233.722, 899.8220
1234.204, 904.5288
1234.686, 908.0380
1235.168, 906.4254
1235.650, 899.5375
1236.132, 889.9731
1236.614, 877.0399
1237.096, 871.8785
1237.579, 880.5537
1238.061, 894.4608
1238.543, 909.8864
1239.025, 923.5063
1239.507, 931.8682
1239.989, 935.3083
1240.471, 929.3071
1240.953, 913.6484
1241.436, 901.4368
1241.918, 899.0637
1242.400, 901.6427
1242.882, 909.1276
1243.364, 916.9269
1243.846, 920.0806
1244.328, 918.4708
1244.810, 915.1031
1245.292, 910.0147
1245.775, 905.5310
1246.257, 900.6113
1246.739, 899.7607
1247.221, 909.9630
1247.703, 923.0225
1248.185, 931.2177
1248.667, 934.6422
1249.149, 927.5594
1249.631, 911.4972
1250.114, 901.8907
1250.596, 914.0870
1251.078, 926.3587
1251.560, 926.2197
1252.042, 922.2156
1252.524, 923.9615
1253.006, 930.7946
1253.488, 926.6801
1253.971, 913.2397
1254.453, 902.9498
1254.935, 902.4829
1255.417, 906.5779
1255.899, 915.4391
1256.381, 925.9630
1256.863, 938.9591
1257.345, 951.9420
1257.828, 945.0730
1258.310, 921.4775
1258.792, 901.4279
1259.274, 893.3888
1259.756, 893.1377
1260.238, 902.6361
1260.720, 913.8948
1261.202, 917.9498
1261.684, 917.1647
1262.167, 920.8891
1262.649, 927.7661
1263.131, 929.4847
1263.613, 913.9733
1264.095, 906.2369
1264.577, 912.0649
1265.059, 921.7541
1265.541, 926.8545
1266.023, 927.3138
1266.506, 920.5781
1266.988, 908.3997
1267.470, 898.8580
1267.952, 890.1766
1268.434, 893.6182
1268.916, 914.2758
1269.398, 935.1669
1269.880, 937.8810
1270.363, 929.8546
1270.845, 917.8989
1271.327, 904.5248
1271.809, 900.2065
1272.291, 907.8003
1272.773, 918.1311
1273.255, 931.1271
1273.737, 941.2878
1274.219, 941.5984
1274.702, 937.1915
1275.184, 931.9685
1275.666, 926.6614
1276.148, 922.0256
1276.630, 917.1884
1277.112, 919.8069
1277.594, 931.7736
1278.076, 941.8939
1278.558, 939.5228
1279.041, 932.1927
1279.523, 922.3741
1280.005, 913.1776
1280.487, 912.2836
1280.969, 919.8294
1281.451, 929.5435
1281.933, 940.7625
1282.415, 946.7502
1282.898, 938.8469
1283.380, 928.3250
1283.862, 918.7728
1284.344, 912.5734
1284.826, 917.5383
1285.308, 931.3336
1285.790, 937.0612
1286.272, 932.9888
1286.755, 927.9957
1287.237, 925.4620
1287.719, 924.8463
1288.201, 925.9073
1288.683, 928.4991
1289.165, 932.2065
1289.647, 937.2158
1290.129, 946.5413
1290.611, 959.8463
1291.094, 964.9749
1291.576, 955.6307
1292.058, 938.0629
1292.540, 908.3515
1293.022, 882.5924
1293.504, 887.8944
1293.986, 909.9717
1294.468, 928.7979
1294.950, 942.1378
1295.433, 948.1295
1295.915, 946.6503
1296.397, 938.3903
1296.879, 921.2896
1297.361, 906.5657
1297.843, 910.7584
1298.325, 921.1351
1298.807, 922.6292
1299.290, 916.4915
1299.772, 920.2206
1300.254, 935.8275
1300.736, 943.8393
1301.218, 940.5782
1301.700, 933.1734
##END=



