##NAMES=Thomsenolite
##RRUFFID=R050282
##IDEAL CHEMISTRY=NaCaAlF_6_&#183;H_2_O
##LOCALITY=Ivigtut, Greenland
##OWNER=RRUFF
##SOURCE=Marcus Origlieri
##DESCRIPTION=Colorless prismatic rectangular single crystals associated with colorless ralstonite
##STATUS=The identification of this mineral has been confirmed by X-ray diffraction and chemical analysis
##URL=rruff.info/R050282
##MEASURED CHEMISTRY=Na_1.00_(Ca_0.96_Sr_0.04_)_Σ=1_Al_1.00_F_6.00_·H_2_O
104.1121, 24.13346
104.5942, 25.59713
105.0763, 26.65109
105.5585, 27.74109
106.0406, 29.27060
106.5227, 31.55015
107.0048, 33.70898
107.4869, 35.63166
107.9690, 37.31863
108.4512, 38.74539
108.9333, 39.65830
109.4154, 40.45025
109.8975, 41.51999
110.3796, 42.66650
110.8617, 44.30334
111.3439, 46.62785
111.8260, 49.87059
112.3081, 52.99839
112.7902, 56.29847
113.2723, 59.38503
113.7544, 61.66261
114.2366, 62.68217
114.7187, 63.16345
115.2008, 63.34834
115.6829, 63.25026
116.1650, 62.89919
116.6471, 61.95345
117.1293, 60.73571
117.6114, 59.97436
118.0935, 60.42611
118.5756, 61.12765
119.0577, 61.41320
119.5398, 60.76923
120.0220, 60.21179
120.5041, 60.18781
120.9862, 60.66687
121.4683, 61.52535
121.9504, 62.89565
122.4325, 64.53353
122.9147, 66.21561
123.3968, 68.07034
123.8789, 69.75829
124.3610, 70.78246
124.8431, 71.20744
125.3252, 71.69379
125.8074, 72.70399
126.2895, 74.13524
126.7716, 75.79112
127.2537, 77.55128
127.7358, 79.51643
128.2179, 81.94212
128.7001, 84.84679
129.1822, 87.79350
129.6643, 90.44156
130.1464, 92.77803
130.6285, 94.74931
131.1106, 96.45686
131.5928, 97.79576
132.0749, 98.41399
132.5570, 98.27431
133.0391, 97.47798
133.5212, 95.73132
134.0033, 92.91965
134.4855, 90.18298
134.9676, 88.51012
135.4497, 88.11503
135.9318, 87.89175
136.4139, 87.72533
136.8960, 87.78141
137.3782, 88.42950
137.8603, 89.71086
138.3424, 91.30578
138.8245, 93.22401
139.3066, 95.61400
139.7887, 97.38733
140.2709, 98.61122
140.7530, 99.11981
141.2351, 98.14725
141.7172, 95.31579
142.1993, 91.87121
142.6814, 88.63371
143.1636, 85.61961
143.6457, 82.65822
144.1278, 79.66982
144.6099, 76.68143
145.0920, 73.82653
145.5741, 70.94942
146.0563, 68.36481
146.5384, 66.37148
147.0205, 65.19029
147.5026, 64.19752
147.9847, 63.36642
148.4668, 62.71347
148.9490, 61.91010
149.4311, 60.52629
149.9132, 59.24548
150.3953, 58.71791
150.8774, 59.56912
151.3595, 60.47952
151.8417, 61.16893
152.3238, 61.54816
152.8059, 62.22415
153.2880, 63.20806
153.7701, 64.48428
154.2522, 66.05199
154.7344, 68.11225
155.2165, 70.26378
155.6986, 72.43923
156.1807, 74.70576
156.6628, 76.80918
157.1449, 78.29085
157.6271, 79.66009
158.1092, 81.62313
158.5913, 84.61590
159.0734, 87.97822
159.5555, 91.61382
160.0376, 95.81002
160.5198, 99.40097
161.0019, 102.0080
161.4840, 103.7933
161.9661, 104.9482
162.4482, 105.6739
162.9303, 105.7111
163.4125, 104.8369
163.8946, 102.7785
164.3767, 100.3692
164.8588, 97.43948
165.3409, 94.39576
165.8230, 92.13644
166.3052, 91.41172
166.7873, 91.43532
167.2694, 91.60508
167.7515, 91.72292
168.2336, 92.09081
168.7157, 92.93204
169.1978, 94.18093
169.6800, 95.65382
170.1621, 97.07745
170.6442, 98.73549
171.1263, 101.0093
171.6084, 104.3515
172.0905, 107.8156
172.5727, 110.4981
173.0548, 112.5434
173.5369, 114.7008
174.0190, 117.6132
174.5011, 120.9072
174.9832, 124.0994
175.4654, 127.2266
175.9475, 130.0160
176.4296, 132.3207
176.9117, 134.1296
177.3938, 135.2592
177.8759, 135.8336
178.3581, 135.6328
178.8402, 134.1730
179.3223, 131.0421
179.8044, 126.8246
180.2865, 121.9590
180.7686, 116.4980
181.2508, 111.3024
181.7329, 107.0907
182.2150, 103.7104
182.6971, 100.8110
183.1792, 98.35680
183.6613, 96.29343
184.1435, 94.62437
184.6256, 93.33861
185.1077, 92.30307
185.5898, 91.45802
186.0719, 90.77660
186.5540, 90.08231
187.0362, 89.43309
187.5183, 88.70683
188.0004, 87.58652
188.4825, 86.05178
188.9646, 84.22432
189.4467, 82.08416
189.9289, 79.67997
190.4110, 77.41927
190.8931, 75.40855
191.3752, 73.63839
191.8573, 72.03295
192.3394, 70.57201
192.8216, 69.29902
193.3037, 68.17462
193.7858, 67.20546
194.2679, 66.68330
194.7500, 66.82539
195.2321, 67.53725
195.7143, 68.22224
196.1964, 68.84299
196.6785, 69.54271
197.1606, 70.53133
197.6427, 71.83727
198.1248, 73.20857
198.6070, 74.71610
199.0891, 76.31711
199.5712, 77.31070
200.0533, 77.62885
200.5354, 77.50902
201.0175, 77.22417
201.4997, 76.76408
201.9818, 76.20031
202.4639, 75.55637
202.9460, 74.83293
203.4281, 74.01433
203.9102, 73.11982
204.3924, 72.09797
204.8745, 70.73979
205.3566, 68.90053
205.8387, 67.40253
206.3208, 66.63696
206.8029, 66.63788
207.2851, 66.60838
207.7672, 66.54965
208.2493, 66.45935
208.7314, 66.28044
209.2135, 65.93096
209.6956, 65.77570
210.1778, 66.00163
210.6599, 66.66303
211.1420, 67.23367
211.6241, 67.73609
212.1062, 68.11313
212.5883, 68.23089
213.0705, 67.99318
213.5526, 67.75279
214.0347, 67.57745
214.5168, 67.42225
214.9989, 67.64639
215.4810, 68.36960
215.9632, 69.35781
216.4453, 70.21897
216.9274, 70.89822
217.4095, 71.59457
217.8916, 72.35860
218.3737, 73.18059
218.8559, 74.07670
219.3380, 74.93405
219.8201, 75.95283
220.3022, 77.52832
220.7843, 79.93966
221.2664, 82.26937
221.7486, 84.12126
222.2307, 85.26439
222.7128, 87.00494
223.1949, 89.41602
223.6770, 92.35560
224.1591, 95.59200
224.6413, 99.28603
225.1234, 103.0329
225.6055, 106.8739
226.0876, 110.9564
226.5697, 114.2760
227.0518, 116.6522
227.5340, 118.4117
228.0161, 119.9931
228.4982, 121.4695
228.9803, 122.6722
229.4624, 123.6299
229.9445, 124.4541
230.4267, 124.4381
230.9088, 123.2610
231.3909, 121.4863
231.8730, 119.8818
232.3551, 118.4370
232.8372, 117.1663
233.3194, 116.2429
233.8015, 115.8662
234.2836, 114.5787
234.7657, 112.0141
235.2478, 108.8377
235.7299, 105.8509
236.2121, 103.1002
236.6942, 100.4954
237.1763, 98.00541
237.6584, 95.62791
238.1405, 93.43281
238.6226, 91.48843
239.1048, 89.71220
239.5869, 88.03824
240.0690, 86.56187
240.5511, 85.01349
241.0332, 83.20624
241.5153, 81.06114
241.9975, 79.45123
242.4796, 78.56399
242.9617, 78.06301
243.4438, 77.57678
243.9259, 77.01029
244.4080, 76.63670
244.8902, 76.56230
245.3723, 76.81026
245.8544, 76.98580
246.3365, 76.99716
246.8186, 77.02472
247.3007, 77.25384
247.7829, 77.75433
248.2650, 78.33364
248.7471, 79.03838
249.2292, 79.88017
249.7113, 80.39743
250.1934, 80.61308
250.6756, 80.48522
251.1577, 79.94110
251.6398, 78.81366
252.1219, 77.60559
252.6040, 76.35129
253.0861, 75.06751
253.5683, 73.87479
254.0504, 72.67931
254.5325, 71.68658
255.0146, 71.10296
255.4967, 71.11635
255.9788, 71.08856
256.4609, 70.90575
256.9431, 70.59634
257.4252, 70.36362
257.9073, 70.13268
258.3894, 70.08632
258.8715, 70.40475
259.3536, 71.28292
259.8358, 72.02635
260.3179, 72.55318
260.8000, 72.88945
261.2821, 73.16277
261.7642, 73.37614
262.2463, 73.52686
262.7285, 73.59866
263.2106, 73.55521
263.6927, 73.55907
264.1748, 73.67017
264.6569, 73.82890
265.1390, 73.82658
265.6212, 73.65279
266.1033, 73.34043
266.5854, 72.84097
267.0675, 72.05927
267.5496, 71.51480
268.0317, 71.31436
268.5139, 71.32481
268.9960, 71.19233
269.4781, 70.86317
269.9602, 70.53699
270.4423, 70.32402
270.9244, 70.24868
271.4066, 70.17300
271.8887, 70.12573
272.3708, 70.04454
272.8529, 69.71551
273.3350, 69.00206
273.8171, 68.53163
274.2993, 68.68089
274.7814, 69.53721
275.2635, 70.18002
275.7456, 70.61618
276.2277, 70.82744
276.7098, 70.63100
277.1920, 69.89726
277.6741, 69.46694
278.1562, 69.73592
278.6383, 70.70490
279.1204, 71.58007
279.6025, 72.33577
280.0847, 73.07153
280.5668, 73.91315
281.0489, 74.86516
281.5310, 75.87996
282.0131, 76.97542
282.4952, 78.13713
282.9774, 79.17152
283.4595, 80.04855
283.9416, 80.94423
284.4237, 82.04550
284.9058, 83.35210
285.3879, 84.75079
285.8701, 86.18018
286.3522, 87.68784
286.8343, 89.56432
287.3164, 91.84592
287.7985, 94.07177
288.2806, 95.54665
288.7628, 96.39561
289.2449, 97.94331
289.7270, 100.6239
290.2091, 104.0379
290.6912, 107.3160
291.1733, 110.4020
291.6555, 113.3993
292.1376, 116.2698
292.6197, 119.0695
293.1018, 122.0541
293.5839, 125.2084
294.0660, 128.6007
294.5482, 132.5621
295.0303, 137.0123
295.5124, 141.2130
295.9945, 144.7764
296.4766, 147.7769
296.9587, 150.3474
297.4409, 152.5134
297.9230, 154.2995
298.4051, 155.7844
298.8872, 156.9221
299.3693, 157.5337
299.8514, 157.6260
300.3336, 157.0970
300.8157, 155.5943
301.2978, 153.0224
301.7799, 150.0356
302.2620, 147.1950
302.7441, 144.4870
303.2263, 141.8908
303.7084, 139.4361
304.1905, 137.0512
304.6726, 134.4162
305.1547, 131.5340
305.6368, 129.0730
306.1190, 127.6622
306.6011, 127.0672
307.0832, 126.9312
307.5653, 127.4739
308.0474, 128.1479
308.5295, 128.2401
309.0117, 127.8512
309.4938, 127.8479
309.9759, 128.8796
310.4580, 130.6025
310.9401, 132.5775
311.4222, 134.6598
311.9044, 137.0088
312.3865, 139.8360
312.8686, 143.0281
313.3507, 146.2420
313.8328, 149.3810
314.3149, 152.3968
314.7971, 155.1848
315.2792, 157.7102
315.7613, 160.1513
316.2434, 162.8440
316.7255, 165.5251
317.2076, 167.6239
317.6898, 168.9069
318.1719, 169.5519
318.6540, 169.5972
319.1361, 168.9913
319.6182, 168.0125
320.1003, 166.6414
320.5825, 164.9818
321.0646, 163.1760
321.5467, 161.1481
322.0288, 159.0850
322.5109, 156.8210
322.9930, 154.2655
323.4752, 152.5493
323.9573, 152.3687
324.4394, 152.9083
324.9215, 153.4334
325.4036, 153.4256
325.8857, 153.8272
326.3679, 155.0113
326.8500, 156.9428
327.3321, 158.6753
327.8142, 159.4782
328.2963, 160.5114
328.7784, 162.4641
329.2606, 166.4469
329.7427, 170.0130
330.2248, 173.1309
330.7069, 175.8098
331.1890, 178.0168
331.6711, 179.6426
332.1533, 180.9389
332.6354, 182.0554
333.1175, 183.2023
333.5996, 183.6925
334.0817, 183.3816
334.5638, 182.4709
335.0460, 181.3600
335.5281, 180.1449
336.0102, 178.5344
336.4923, 176.4392
336.9744, 173.8463
337.4565, 170.7071
337.9387, 166.8035
338.4208, 162.5969
338.9029, 158.6147
339.3850, 154.8260
339.8671, 151.3927
340.3492, 148.3300
340.8313, 145.6262
341.3134, 143.2347
341.7956, 141.0647
342.2777, 139.4331
342.7598, 138.7139
343.2419, 138.9510
343.7240, 139.2742
344.2061, 139.4833
344.6883, 139.7700
345.1704, 140.7712
345.6525, 142.5442
346.1346, 144.2202
346.6167, 145.1213
347.0988, 145.3962
347.5810, 146.0009
348.0631, 147.1716
348.5452, 148.2144
349.0273, 148.1385
349.5094, 147.0210
349.9915, 145.3636
350.4737, 143.2711
350.9558, 140.8111
351.4379, 138.0068
351.9200, 134.8034
352.4021, 131.9713
352.8842, 130.4423
353.3664, 129.8251
353.8485, 129.1812
354.3306, 127.9265
354.8127, 126.6997
355.2948, 126.1842
355.7769, 126.3624
356.2591, 127.1534
356.7412, 128.8570
357.2233, 131.0005
357.7054, 133.0175
358.1875, 134.5776
358.6696, 136.3425
359.1518, 138.6604
359.6339, 141.5230
360.1160, 144.8957
360.5981, 149.0484
361.0802, 153.5091
361.5623, 157.8685
362.0445, 161.9480
362.5266, 166.5405
363.0087, 171.9800
363.4908, 178.0820
363.9729, 184.5887
364.4550, 191.6406
364.9372, 198.8802
365.4193, 206.0567
365.9014, 213.1553
366.3835, 220.8270
366.8656, 229.3472
367.3477, 238.3776
367.8299, 247.8394
368.3120, 258.0363
368.7941, 268.2932
369.2762, 278.6917
369.7583, 289.1383
370.2404, 299.2958
370.7226, 308.9171
371.2047, 318.3604
371.6868, 327.9391
372.1689, 338.3165
372.6510, 347.3448
373.1331, 354.8169
373.6153, 361.1292
374.0974, 366.9211
374.5795, 372.1197
375.0616, 376.8518
375.5437, 381.0941
376.0258, 384.8300
376.5080, 388.1658
376.9901, 390.9661
377.4722, 393.6278
377.9543, 396.4836
378.4364, 399.4624
378.9185, 403.0306
379.4007, 407.4139
379.8828, 412.2700
380.3649, 416.3730
380.8470, 419.6091
381.3291, 422.7864
381.8112, 426.5316
382.2934, 430.7543
382.7755, 434.5997
383.2576, 438.0380
383.7397, 440.9547
384.2218, 443.7684
384.7039, 446.2003
385.1861, 446.5760
385.6682, 443.4970
386.1503, 438.0280
386.6324, 432.1306
387.1145, 425.8961
387.5966, 418.6305
388.0788, 409.4637
388.5609, 398.8451
389.0430, 387.5259
389.5251, 375.3967
390.0072, 362.8715
390.4893, 350.0640
390.9715, 337.2053
391.4536, 324.3983
391.9357, 311.2404
392.4178, 298.6064
392.8999, 287.3708
393.3820, 277.8179
393.8642, 268.8111
394.3463, 259.8551
394.8284, 251.0331
395.3105, 242.6014
395.7926, 234.3688
396.2747, 226.6893
396.7569, 219.7624
397.2390, 213.6001
397.7211, 208.0721
398.2032, 203.3152
398.6853, 199.0680
399.1674, 195.1884
399.6496, 191.8964
400.1317, 188.6431
400.6138, 185.1544
401.0959, 181.6337
401.5780, 178.8141
402.0602, 177.1317
402.5423, 175.6243
403.0244, 173.9133
403.5065, 171.8602
403.9886, 170.0689
404.4707, 168.6461
404.9529, 167.3823
405.4350, 165.9155
405.9171, 164.0535
406.3992, 162.6393
406.8813, 162.0621
407.3634, 162.1500
407.8456, 161.6687
408.3277, 160.5765
408.8098, 159.0887
409.2919, 157.3181
409.7740, 155.2716
410.2561, 153.2185
410.7383, 151.2617
411.2204, 149.1620
411.7025, 146.3364
412.1846, 142.8502
412.6667, 139.2333
413.1488, 135.8339
413.6310, 132.5153
414.1131, 129.0107
414.5952, 125.3239
415.0773, 121.5347
415.5594, 117.3835
416.0415, 113.2098
416.5237, 109.5383
417.0058, 106.7274
417.4879, 104.3382
417.9700, 102.1402
418.4521, 100.0988
418.9342, 98.03737
419.4164, 95.61752
419.8985, 93.28847
420.3806, 91.46821
420.8627, 90.32120
421.3448, 89.28973
421.8269, 88.07219
422.3091, 86.84987
422.7912, 85.86897
423.2733, 85.53579
423.7554, 85.11198
424.2375, 84.35735
424.7196, 83.26718
425.2018, 82.12142
425.6839, 80.54624
426.1660, 79.21930
426.6481, 78.56123
427.1302, 79.32169
427.6123, 79.53181
428.0945, 78.75063
428.5766, 77.51417
429.0587, 77.15817
429.5408, 78.19449
430.0229, 79.01799
430.5050, 78.92928
430.9872, 77.88313
431.4693, 77.30202
431.9514, 77.32036
432.4335, 77.46195
432.9156, 77.22908
433.3977, 76.61433
433.8799, 75.90649
434.3620, 75.10975
434.8441, 74.31041
435.3262, 73.73656
435.8083, 73.37860
436.2904, 73.05013
436.7726, 72.68848
437.2547, 72.26582
437.7368, 71.66792
438.2189, 70.85991
438.7010, 70.07397
439.1831, 69.67432
439.6652, 69.44160
440.1473, 68.94534
440.6295, 67.75724
441.1116, 66.46901
441.5937, 65.54390
442.0758, 64.93974
442.5579, 64.46303
443.0400, 64.03270
443.5222, 63.67209
444.0043, 63.40464
444.4864, 63.25920
444.9685, 63.14800
445.4506, 63.06071
445.9327, 62.98610
446.4149, 62.90796
446.8970, 62.84649
447.3791, 62.75697
447.8612, 62.61576
448.3433, 62.42084
448.8254, 62.24166
449.3076, 62.12358
449.7897, 61.98045
450.2718, 61.73562
450.7539, 61.24339
451.2360, 61.00835
451.7181, 61.17095
452.2003, 61.50791
452.6824, 61.52486
453.1645, 61.11806
453.6466, 60.80919
454.1287, 60.86906
454.6108, 61.22796
455.0930, 61.15537
455.5751, 60.57209
456.0572, 60.05360
456.5393, 60.21321
457.0214, 60.93879
457.5035, 61.67175
457.9857, 62.37594
458.4678, 62.92623
458.9499, 63.01560
459.4320, 62.76266
459.9141, 62.60092
460.3962, 62.85184
460.8784, 63.27242
461.3605, 63.56578
461.8426, 63.72396
462.3247, 63.91711
462.8068, 64.32469
463.2889, 64.80031
463.7711, 65.17834
464.2532, 65.31693
464.7353, 65.48605
465.2174, 65.81327
465.6995, 66.24681
466.1816, 66.67259
466.6638, 66.95249
467.1459, 67.30561
467.6280, 67.84682
468.1101, 68.63251
468.5922, 69.34591
469.0743, 69.97927
469.5565, 70.53866
470.0386, 71.00357
470.5207, 71.24911
471.0028, 71.66225
471.4849, 72.36252
471.9670, 73.21989
472.4492, 73.84573
472.9313, 74.16505
473.4134, 74.49921
473.8955, 74.95762
474.3776, 75.54583
474.8597, 76.35612
475.3419, 77.42177
475.8240, 78.54963
476.3061, 79.61672
476.7882, 80.59552
477.2703, 81.29359
477.7524, 81.49490
478.2346, 81.69400
478.7167, 82.74847
479.1988, 84.45070
479.6809, 86.02782
480.1630, 86.91680
480.6451, 87.54128
481.1273, 88.31557
481.6094, 89.27605
482.0915, 90.26289
482.5736, 91.07368
483.0557, 91.92375
483.5378, 93.04331
484.0200, 94.86247
484.5021, 96.50166
484.9842, 97.59241
485.4663, 98.31624
485.9484, 99.14626
486.4305, 100.3267
486.9127, 101.4479
487.3948, 102.3743
487.8769, 103.0691
488.3590, 103.7410
488.8411, 104.2412
489.3232, 104.8847
489.8054, 106.0405
490.2875, 107.9745
490.7696, 109.3899
491.2517, 109.9192
491.7338, 110.0712
492.2159, 111.1762
492.6981, 113.3329
493.1802, 115.1540
493.6623, 115.7402
494.1444, 115.4634
494.6265, 115.7474
495.1086, 116.6012
495.5908, 117.6901
496.0729, 118.9660
496.5550, 120.2463
497.0371, 121.1098
497.5192, 121.3744
498.0013, 121.4324
498.4835, 121.5841
498.9656, 121.7875
499.4477, 121.9541
499.9298, 122.0168
500.4119, 122.0563
500.8940, 122.2451
501.3762, 122.5651
501.8583, 122.4837
502.3404, 121.3013
502.8225, 120.0448
503.3046, 119.3798
503.7867, 119.9052
504.2689, 120.1460
504.7510, 120.0411
505.2331, 119.6472
505.7152, 119.0130
506.1973, 118.0398
506.6794, 117.0450
507.1616, 116.0979
507.6437, 115.1855
508.1258, 114.2001
508.6079, 113.0472
509.0900, 112.1888
509.5721, 112.2021
510.0543, 112.9576
510.5364, 113.0131
511.0185, 112.2049
511.5006, 111.0368
511.9827, 109.9535
512.4648, 108.9927
512.9470, 108.2779
513.4291, 107.8988
513.9112, 107.7307
514.3933, 107.7337
514.8754, 107.8522
515.3575, 107.8832
515.8397, 107.6991
516.3218, 107.3972
516.8039, 106.9994
517.2860, 106.4782
517.7681, 106.0717
518.2502, 105.7541
518.7324, 105.6349
519.2145, 105.8122
519.6966, 106.7165
520.1787, 107.4048
520.6608, 107.6229
521.1429, 107.5919
521.6251, 107.8982
522.1072, 108.8263
522.5893, 109.5545
523.0714, 109.6398
523.5535, 109.1015
524.0356, 109.4688
524.5178, 110.9445
524.9999, 112.6378
525.4820, 113.7114
525.9641, 114.2345
526.4462, 115.0814
526.9283, 116.3864
527.4105, 117.9707
527.8926, 119.7061
528.3747, 121.5611
528.8568, 123.3944
529.3389, 124.9318
529.8210, 126.5822
530.3032, 128.9710
530.7853, 131.9319
531.2674, 134.6002
531.7495, 136.1696
532.2316, 137.4682
532.7137, 138.9652
533.1959, 140.6578
533.6780, 142.9005
534.1601, 146.2628
534.6422, 150.0187
535.1243, 153.4713
535.6064, 156.1458
536.0886, 159.0229
536.5707, 162.1118
537.0528, 165.4789
537.5349, 169.2806
538.0170, 173.8699
538.4991, 178.0267
538.9813, 180.9345
539.4634, 182.7335
539.9455, 185.8100
540.4276, 190.3204
540.9097, 195.1795
541.3918, 199.3160
541.8740, 202.8842
542.3561, 206.4391
542.8382, 209.9623
543.3203, 213.7613
543.8024, 218.3658
544.2845, 223.5374
544.7667, 228.6557
545.2488, 233.1686
545.7309, 237.7042
546.2130, 242.7961
546.6951, 248.3512
547.1772, 253.7199
547.6594, 257.5994
548.1415, 262.0474
548.6236, 268.3921
549.1057, 277.2484
549.5878, 285.9624
550.0699, 294.2299
550.5521, 302.4302
551.0342, 310.8386
551.5163, 319.1191
551.9984, 328.3999
552.4805, 339.0570
552.9626, 350.6292
553.4448, 361.6708
553.9269, 372.0460
554.4090, 383.3364
554.8911, 396.4714
555.3732, 410.9402
555.8553, 424.9279
556.3375, 438.3287
556.8196, 451.8835
557.3017, 466.3536
557.7838, 481.1237
558.2659, 495.1443
558.7480, 508.2842
559.2302, 520.6254
559.7123, 532.2142
560.1944, 543.0522
560.6765, 553.1696
561.1586, 563.7604
561.6407, 572.4718
562.1229, 578.2827
562.6050, 581.5828
563.0871, 583.6954
563.5692, 585.1049
564.0513, 584.9501
564.5334, 582.3640
565.0156, 577.2248
565.4977, 573.8361
565.9798, 572.9266
566.4619, 572.4917
566.9440, 571.0234
567.4261, 568.4365
567.9083, 566.2639
568.3904, 564.5849
568.8725, 563.4474
569.3546, 562.6128
569.8367, 562.2761
570.3188, 563.4192
570.8010, 566.9647
571.2831, 571.3189
571.7652, 574.7261
572.2473, 577.2928
572.7294, 579.2031
573.2115, 580.4074
573.6937, 581.1650
574.1758, 582.0919
574.6579, 583.2345
575.1400, 582.5660
575.6221, 579.5765
576.1042, 574.4928
576.5864, 567.4120
577.0685, 558.0591
577.5506, 547.3013
578.0327, 535.2340
578.5148, 521.5717
578.9969, 505.7095
579.4791, 486.9822
579.9612, 467.7616
580.4433, 448.6380
580.9254, 429.4888
581.4075, 409.6172
581.8896, 389.1117
582.3718, 368.9462
582.8539, 349.3230
583.3360, 330.4158
583.8181, 313.0912
584.3002, 297.4654
584.7823, 282.7277
585.2645, 268.3727
585.7466, 254.6744
586.2286, 241.6673
586.7108, 229.3170
587.1929, 218.1532
587.6750, 208.8164
588.1571, 200.6573
588.6392, 192.7915
589.1213, 184.7243
589.6035, 177.3964
590.0856, 171.0155
590.5677, 165.4172
591.0498, 160.1645
591.5319, 155.2402
592.0140, 150.6843
592.4962, 146.6262
592.9783, 142.9905
593.4604, 139.3001
593.9425, 135.5266
594.4246, 131.9132
594.9067, 128.5802
595.3889, 125.5536
595.8710, 122.9401
596.3531, 120.7606
596.8352, 118.7303
597.3173, 116.6710
597.7994, 114.5658
598.2816, 112.4187
598.7637, 110.2064
599.2458, 107.9560
599.7279, 105.5317
600.2100, 103.1227
600.6921, 101.0597
601.1743, 99.70116
601.6564, 98.38934
602.1385, 96.99185
602.6206, 95.51249
603.1027, 93.98625
603.5848, 92.31812
604.0670, 90.80834
604.5491, 89.64716
605.0312, 88.85137
605.5133, 87.88048
605.9954, 86.70540
606.4775, 85.54552
606.9597, 84.58908
607.4418, 83.82293
607.9239, 83.21898
608.4060, 82.80698
608.8881, 82.42529
609.3702, 81.93222
609.8524, 81.35791
610.3345, 80.76520
610.8166, 80.10521
611.2987, 79.49785
611.7808, 78.97054
612.2629, 78.53547
612.7451, 78.22935
613.2272, 78.25807
613.7093, 78.20930
614.1914, 77.91474
614.6735, 77.37273
615.1556, 76.98042
615.6378, 76.80977
616.1199, 76.64400
616.6020, 76.35566
617.0841, 75.94040
617.5662, 75.40289
618.0483, 74.69670
618.5305, 74.09840
619.0126, 74.00446
619.4947, 74.26064
619.9768, 74.44902
620.4589, 74.51031
620.9410, 74.38808
621.4232, 74.00142
621.9053, 73.39902
622.3874, 72.66899
622.8695, 71.55493
623.3516, 70.61776
623.8337, 70.17244
624.3159, 70.11609
624.7980, 69.96365
625.2801, 69.57762
625.7622, 69.18493
626.2443, 68.84035
626.7264, 68.54144
627.2086, 68.29457
627.6907, 68.05851
628.1728, 67.97969
628.6549, 68.25732
629.1370, 68.84529
629.6191, 69.27629
630.1013, 69.52374
630.5834, 69.60216
631.0655, 69.41039
631.5476, 69.08278
632.0297, 68.85606
632.5118, 68.73503
632.9940, 68.85318
633.4761, 69.34966
633.9582, 70.14318
634.4403, 71.08905
634.9224, 72.37651
635.4045, 73.55455
635.8867, 74.39579
636.3688, 75.00163
636.8509, 75.81216
637.3330, 76.92650
637.8151, 78.07362
638.2972, 79.06052
638.7794, 79.92354
639.2615, 81.50763
639.7436, 83.94087
640.2257, 86.35561
640.7078, 88.07981
641.1899, 89.29663
641.6721, 90.47540
642.1542, 91.64114
642.6363, 93.03505
643.1184, 94.94206
643.6005, 97.18247
644.0826, 99.55708
644.5648, 102.2764
645.0469, 104.6145
645.5290, 105.9256
646.0111, 106.8037
646.4932, 108.1153
646.9753, 110.4781
647.4575, 112.6549
647.9396, 114.4565
648.4217, 115.9906
648.9038, 117.5402
649.3859, 119.1811
649.8680, 120.5923
650.3502, 121.6063
650.8323, 122.3175
651.3144, 123.1368
651.7965, 124.0532
652.2786, 124.7092
652.7607, 125.0316
653.2429, 124.8766
653.7250, 123.8194
654.2071, 121.8562
654.6892, 119.9435
655.1713, 118.7559
655.6534, 117.7493
656.1356, 116.4933
656.6177, 114.8738
657.0998, 113.1323
657.5819, 111.2982
658.0640, 109.3578
658.5461, 107.3165
659.0283, 105.1692
659.5104, 102.8749
659.9925, 100.3251
660.4746, 97.78657
660.9567, 95.82435
661.4388, 94.40461
661.9210, 92.94514
662.4031, 91.28790
662.8852, 89.47504
663.3673, 87.47327
663.8494, 85.35700
664.3315, 83.37148
664.8137, 81.76073
665.2958, 80.21886
665.7779, 78.46154
666.2600, 76.53654
666.7421, 74.94051
667.2242, 74.15604
667.7064, 73.40077
668.1885, 72.34946
668.6706, 70.97659
669.1527, 69.47988
669.6348, 67.70133
670.1169, 66.10539
670.5991, 65.13807
671.0812, 64.76146
671.5633, 64.09071
672.0454, 63.05071
672.5275, 61.84239
673.0096, 60.51083
673.4918, 59.21457
673.9739, 58.33102
674.4560, 58.16548
674.9381, 57.86129
675.4202, 56.46662
675.9023, 54.67738
676.3845, 53.50576
676.8666, 53.94772
677.3487, 54.15012
677.8308, 53.62019
678.3129, 52.63646
678.7950, 51.78727
679.2772, 51.10678
679.7593, 50.50342
680.2414, 49.98816
680.7235, 49.52013
681.2056, 48.89998
681.6877, 48.14122
682.1699, 47.38148
682.6520, 46.72845
683.1341, 46.11977
683.6162, 45.42057
684.0983, 44.64523
684.5804, 43.99760
685.0626, 43.67104
685.5447, 43.46497
686.0268, 43.23661
686.5089, 42.96121
686.9910, 42.72733
687.4731, 42.54628
687.9553, 42.41277
688.4374, 42.33894
688.9195, 42.37174
689.4016, 42.30565
689.8837, 42.11194
690.3658, 41.88575
690.8480, 41.76516
691.3301, 41.72782
691.8122, 41.61698
692.2943, 41.40661
692.7764, 41.10675
693.2585, 40.62312
693.7407, 40.07184
694.2228, 39.67608
694.7049, 39.61666
695.1870, 39.59720
695.6691, 39.42399
696.1512, 39.20326
696.6334, 39.15921
697.1155, 39.63857
697.5976, 39.88653
698.0797, 39.66202
698.5618, 39.12082
699.0439, 38.89082
699.5261, 39.03332
700.0082, 39.15702
700.4903, 39.10482
700.9724, 38.90986
701.4545, 38.57949
701.9366, 38.14479
702.4188, 37.85740
702.9009, 38.09558
703.3830, 38.41750
703.8651, 38.26484
704.3472, 37.63465
704.8293, 37.28817
705.3115, 37.88557
705.7936, 38.56105
706.2757, 38.78093
706.7578, 38.43197
707.2399, 38.04429
707.7220, 37.54882
708.2042, 37.11686
708.6863, 36.86565
709.1684, 36.79284
709.6505, 37.01987
710.1326, 37.60984
710.6147, 38.19106
711.0969, 38.30427
711.5790, 38.11314
712.0611, 37.95386
712.5432, 37.90652
713.0253, 37.87987
713.5074, 37.76015
713.9896, 37.64634
714.4717, 37.66315
714.9538, 37.97568
715.4359, 38.25239
715.9180, 38.47446
716.4001, 38.63079
716.8823, 38.70166
717.3644, 38.68117
717.8465, 38.58553
718.3286, 38.38916
718.8107, 38.15652
719.2928, 37.99285
719.7750, 37.90882
720.2571, 37.98385
720.7392, 38.43677
721.2213, 38.90052
721.7034, 38.91813
722.1855, 38.62095
722.6677, 38.42386
723.1498, 38.56263
723.6319, 38.77390
724.1140, 38.93592
724.5961, 39.05835
725.0782, 39.31606
725.5604, 39.81400
726.0425, 40.25233
726.5246, 40.49876
727.0067, 40.56886
727.4888, 40.59502
727.9709, 40.57175
728.4531, 40.62994
728.9352, 40.97773
729.4173, 41.42472
729.8994, 41.60100
730.3815, 41.49820
730.8636, 41.43800
731.3458, 41.63186
731.8279, 41.93089
732.3100, 42.23792
732.7921, 42.55097
733.2742, 42.84206
733.7563, 43.06879
734.2385, 43.31736
734.7206, 43.67362
735.2027, 44.17924
735.6848, 44.52468
736.1669, 44.66894
736.6490, 44.79568
737.1312, 45.13372
737.6133, 45.61193
738.0954, 46.01274
738.5775, 46.27562
739.0596, 46.57543
739.5417, 47.09180
740.0239, 47.70836
740.5060, 48.30083
740.9881, 48.97314
741.4702, 49.40551
741.9523, 49.35277
742.4344, 49.12753
742.9166, 49.05616
743.3987, 49.10777
743.8808, 49.44486
744.3629, 50.15898
744.8450, 51.04100
745.3271, 51.82518
745.8093, 52.49092
746.2914, 52.87621
746.7735, 52.78532
747.2556, 52.66323
747.7377, 53.05114
748.2198, 53.71739
748.7020, 54.22279
749.1841, 54.26322
749.6662, 54.28498
750.1483, 54.41685
750.6304, 54.62865
751.1125, 54.83789
751.5947, 55.03845
752.0768, 55.26072
752.5589, 55.53413
753.0410, 55.81666
753.5231, 55.99570
754.0052, 56.07185
754.4874, 55.28802
754.9695, 55.94100
755.4516, 56.25248
755.9337, 56.23996
756.4158, 54.97994
756.8979, 55.29498
757.3801, 54.95686
757.8622, 54.57701
758.3443, 55.06902
758.8264, 53.90995
759.3085, 54.35664
759.7906, 54.14044
760.2728, 54.20474
760.7549, 53.61208
761.2370, 53.20186
761.7191, 53.41764
762.2012, 53.26254
762.6833, 52.18011
763.1655, 51.80447
763.6476, 51.44330
764.1297, 50.85496
764.6118, 50.07530
765.0939, 49.43542
765.5760, 49.23091
766.0582, 49.08810
766.5403, 48.78221
767.0224, 48.28527
767.5045, 47.86974
767.9866, 47.56869
768.4688, 47.29807
768.9509, 46.99766
769.4330, 46.67379
769.9151, 46.50917
770.3972, 46.51025
770.8793, 46.42628
771.3615, 46.00155
771.8436, 45.40011
772.3257, 44.80835
772.8078, 44.24303
773.2899, 43.80455
773.7720, 43.61596
774.2542, 43.52038
774.7363, 43.42987
775.2184, 43.34224
775.7005, 43.25880
776.1826, 43.27838
776.6647, 43.13766
777.1469, 42.51696
777.6290, 41.45104
778.1111, 40.84007
778.5932, 40.72524
779.0753, 40.70975
779.5574, 40.42968
780.0396, 40.03710
780.5217, 39.70702
781.0038, 39.45437
781.4859, 39.37149
781.9680, 39.80822
782.4501, 40.21428
782.9323, 40.10460
783.4144, 39.24209
783.8964, 38.66263
784.3785, 38.42225
784.8607, 38.36298
785.3428, 38.39050
785.8249, 38.49397
786.3070, 38.59254
786.7891, 38.68597
787.2712, 38.70134
787.7534, 38.51328
788.2355, 38.23104
788.7176, 37.98675
789.1997, 37.80169
789.6818, 37.66312
790.1639, 37.63985
790.6461, 37.61129
791.1282, 37.47286
791.6103, 37.16282
792.0924, 36.92382
792.5745, 36.77878
793.0566, 36.65712
793.5388, 36.49862
794.0209, 36.30339
794.5030, 36.04021
794.9851, 35.68600
795.4672, 35.43366
795.9493, 35.52204
796.4315, 35.77290
796.9136, 36.01740
797.3957, 36.28889
797.8778, 36.35519
798.3599, 35.94829
798.8420, 35.46441
799.3242, 35.20898
799.8063, 35.24320
800.2884, 35.29255
800.7705, 35.36640
801.2526, 35.40876
801.7347, 35.32445
802.2169, 35.16119
802.6990, 35.06100
803.1811, 35.04881
803.6632, 35.06540
804.1453, 35.20589
804.6274, 35.27205
805.1096, 35.03114
805.5917, 34.23604
806.0738, 33.67168
806.5559, 33.49169
807.0380, 33.46398
807.5201, 33.37582
808.0023, 33.19814
808.4844, 33.32813
808.9665, 33.84528
809.4486, 34.33162
809.9307, 34.28371
810.4128, 33.91902
810.8950, 33.61781
811.3771, 33.43309
811.8592, 33.34649
812.3413, 33.37535
812.8234, 33.47789
813.3055, 33.65597
813.7877, 34.05167
814.2698, 34.08357
814.7519, 33.53558
815.2340, 32.97147
815.7161, 32.97519
816.1982, 33.48146
816.6804, 33.63921
817.1625, 33.37786
817.6446, 33.05935
818.1267, 33.03065
818.6088, 33.12577
819.0909, 33.14207
819.5731, 33.04401
820.0552, 32.91516
820.5373, 32.67749
821.0194, 32.50826
821.5015, 32.55891
821.9836, 32.92213
822.4658, 32.99980
822.9479, 32.71163
823.4300, 32.40112
823.9121, 32.40017
824.3942, 32.60385
824.8763, 32.64619
825.3585, 32.50896
825.8406, 32.43682
826.3227, 32.79255
826.8048, 33.15691
827.2869, 33.12691
827.7690, 32.58688
828.2512, 32.23134
828.7333, 32.18905
829.2154, 32.24875
829.6975, 32.35041
830.1796, 32.49299
830.6617, 32.36082
831.1439, 31.93123
831.6260, 31.59842
832.1081, 31.79560
832.5902, 32.19493
833.0723, 32.28989
833.5544, 32.07932
834.0366, 31.89592
834.5187, 32.01958
835.0008, 32.09959
835.4829, 31.85139
835.9650, 31.28905
836.4471, 31.06227
836.9293, 31.26628
837.4114, 31.53709
837.8935, 31.73492
838.3756, 31.84790
838.8577, 31.79640
839.3398, 31.60382
839.8220, 31.44256
840.3041, 31.44627
840.7862, 31.49699
841.2683, 31.50590
841.7504, 31.47782
842.2325, 31.46460
842.7147, 31.53664
843.1968, 31.53559
843.6789, 31.34139
844.1610, 31.05066
844.6431, 31.22545
845.1252, 31.88632
845.6074, 32.27532
846.0895, 31.90893
846.5716, 31.23253
847.0537, 30.83198
847.5358, 30.64558
848.0179, 30.50119
848.5001, 30.25774
848.9822, 30.12030
849.4643, 30.28089
849.9464, 30.58433
850.4285, 30.63582
850.9106, 30.31148
851.3928, 30.16584
851.8749, 30.38763
852.3570, 30.75331
852.8391, 30.83715
853.3212, 30.68922
853.8033, 30.46668
854.2855, 30.17262
854.7676, 29.90541
855.2497, 29.70632
855.7318, 29.58655
856.2139, 29.56818
856.6960, 29.75211
857.1782, 29.89674
857.6603, 29.99976
858.1424, 30.04412
858.6245, 29.94397
859.1066, 29.71918
859.5887, 29.71011
860.0709, 30.02079
860.5530, 30.32438
861.0351, 30.22990
861.5172, 29.93696
861.9993, 29.71393
862.4814, 29.67924
862.9636, 29.55122
863.4457, 29.10891
863.9278, 28.66576
864.4099, 28.44226
864.8920, 28.45161
865.3741, 28.64175
865.8563, 29.04474
866.3384, 29.45891
866.8205, 29.73932
867.3026, 29.88489
867.7847, 29.84615
868.2668, 29.61435
868.7490, 29.39332
869.2311, 29.25919
869.7132, 29.19144
870.1953, 29.19554
870.6774, 29.27308
871.1595, 29.35750
871.6417, 29.48091
872.1238, 29.51750
872.6059, 29.32538
873.0880, 28.99394
873.5701, 28.90574
874.0522, 29.01966
874.5344, 29.03608
875.0165, 28.59294
875.4986, 28.14751
875.9807, 28.03165
876.4628, 28.21459
876.9449, 28.40295
877.4271, 28.58909
877.9092, 28.75475
878.3913, 28.93081
878.8734, 29.05992
879.3555, 28.91762
879.8376, 28.52815
880.3198, 28.13465
880.8019, 27.79569
881.2840, 27.54287
881.7661, 27.40992
882.2482, 27.38499
882.7303, 27.44526
883.2125, 27.80490
883.6946, 27.93854
884.1767, 27.61174
884.6588, 27.17255
885.1409, 27.25628
885.6230, 27.88813
886.1052, 28.17091
886.5873, 27.88748
887.0694, 27.46221
887.5515, 27.35451
888.0336, 27.43834
888.5157, 27.54315
888.9979, 27.64345
889.4800, 27.72514
889.9621, 27.80390
890.4442, 27.84653
890.9263, 27.81128
891.4084, 27.66730
891.8906, 27.64142
892.3727, 27.76024
892.8548, 27.84458
893.3369, 27.66604
893.8190, 27.37542
894.3011, 27.25068
894.7833, 27.30545
895.2654, 27.37299
895.7475, 27.51808
896.2296, 27.51908
896.7117, 27.11550
897.1938, 26.36873
897.6760, 26.07342
898.1581, 26.33618
898.6402, 26.62873
899.1223, 26.70378
899.6044, 26.64159
900.0865, 26.58897
900.5687, 26.54896
901.0508, 26.53437
901.5329, 26.49626
902.0150, 26.54276
902.4971, 26.86172
902.9792, 27.28708
903.4614, 27.38129
903.9435, 26.95542
904.4256, 26.72884
904.9077, 26.90283
905.3898, 27.17690
905.8719, 26.94291
906.3541, 26.37889
906.8362, 26.08028
907.3183, 26.29971
907.8004, 26.49571
908.2825, 26.25048
908.7646, 25.84481
909.2468, 25.57056
909.7289, 25.44128
910.2110, 25.51074
910.6931, 25.88947
911.1752, 26.22625
911.6573, 26.09685
912.1395, 25.65264
912.6216, 25.61787
913.1037, 26.01531
913.5858, 26.22836
914.0679, 25.45934
914.5500, 24.63361
915.0322, 24.49258
915.5143, 25.09329
915.9964, 25.52129
916.4785, 25.71549
916.9606, 25.78814
917.4427, 25.71794
917.9249, 25.59069
918.4070, 25.78763
918.8891, 26.22937
919.3712, 26.48405
919.8533, 26.16454
920.3354, 25.76317
920.8176, 25.56763
921.2997, 25.54612
921.7818, 25.64100
922.2639, 25.99673
922.7460, 26.17806
923.2281, 26.11180
923.7103, 25.89519
924.1924, 25.58386
924.6745, 25.22676
925.1566, 25.12697
925.6387, 25.37212
926.1208, 25.66970
926.6030, 25.90599
927.0851, 26.00783
927.5672, 25.84744
928.0493, 25.22457
928.5314, 24.99246
929.0135, 25.35145
929.4957, 25.74122
929.9778, 25.74038
930.4599, 25.42776
930.9420, 25.28599
931.4241, 25.30220
931.9063, 25.31382
932.3884, 25.15095
932.8705, 25.00224
933.3526, 25.03511
933.8347, 25.21567
934.3168, 25.31268
934.7990, 25.21070
935.2811, 25.24083
935.7632, 25.53929
936.2453, 25.95271
936.7274, 26.15876
937.2095, 26.17148
937.6917, 26.00487
938.1738, 25.56154
938.6559, 25.17375
939.1380, 25.13330
939.6201, 25.26328
940.1022, 25.34580
940.5844, 25.32794
941.0665, 25.32624
941.5486, 25.36061
942.0307, 25.36854
942.5128, 25.22953
942.9949, 25.01128
943.4771, 25.03789
943.9592, 25.31725
944.4413, 25.49041
944.9234, 25.12656
945.4055, 24.73631
945.8876, 24.73440
946.3698, 25.12222
946.8519, 25.23294
947.3340, 24.93198
947.8161, 24.72262
948.2982, 24.83649
948.7803, 25.11209
949.2625, 25.06363
949.7446, 24.83558
950.2267, 24.91442
950.7088, 25.95030
951.1909, 26.75459
951.6730, 26.54050
952.1552, 25.83087
952.6373, 25.42146
953.1194, 25.40741
953.6015, 25.44580
954.0836, 25.53088
954.5657, 25.60100
955.0479, 25.56122
955.5300, 25.46274
956.0121, 25.41418
956.4942, 25.42987
956.9763, 25.44654
957.4584, 25.44586
957.9406, 25.42491
958.4227, 25.38358
958.9048, 25.32294
959.3869, 25.19510
959.8690, 24.97004
960.3511, 24.91306
960.8333, 25.32409
961.3154, 25.81114
961.7975, 25.59838
962.2796, 24.94996
962.7617, 24.54036
963.2438, 24.75084
963.7260, 25.08719
964.2081, 25.59363
964.6902, 26.05565
965.1723, 26.14051
965.6544, 25.81385
966.1365, 25.64023
966.6187, 25.70553
967.1008, 25.78835
967.5829, 25.61342
968.0650, 25.35927
968.5471, 25.24112
969.0292, 25.29856
969.5114, 25.38943
969.9935, 25.63755
970.4756, 25.70505
970.9577, 25.30847
971.4398, 24.60346
971.9219, 24.61843
972.4041, 25.29300
972.8862, 25.87643
973.3683, 25.95872
973.8504, 25.82023
974.3325, 25.58080
974.8146, 25.31189
975.2968, 25.16727
975.7789, 25.27192
976.2610, 25.30063
976.7431, 25.16317
977.2252, 25.05559
977.7073, 25.37011
978.1895, 25.94369
978.6716, 26.10018
979.1537, 25.72938
979.6358, 25.36748
980.1179, 25.32254
980.6000, 25.46349
981.0822, 25.78740
981.5642, 26.29065
982.0463, 26.50203
982.5284, 26.35795
983.0106, 26.15892
983.4927, 26.03012
983.9748, 25.94364
984.4569, 25.81968
984.9390, 25.68847
985.4211, 25.63094
985.9033, 25.74492
986.3854, 25.86095
986.8675, 25.91295
987.3496, 25.94672
987.8317, 26.05462
988.3138, 26.27253
988.7960, 26.17804
989.2781, 25.68604
989.7602, 25.25862
990.2423, 25.46235
990.7244, 25.92292
991.2065, 26.22717
991.6887, 26.33438
992.1708, 26.23262
992.6529, 25.63003
993.1350, 25.20824
993.6171, 25.24297
994.0992, 25.61716
994.5814, 25.99171
995.0635, 26.33351
995.5456, 26.34142
996.0277, 25.61602
996.5098, 24.97416
996.9919, 25.19121
997.4741, 25.81502
997.9562, 26.19908
998.4383, 26.12306
998.9204, 26.14231
999.4025, 26.31300
999.8846, 26.45263
1000.367, 26.32582
1000.849, 26.04747
1001.331, 25.93730
1001.813, 25.99780
1002.295, 26.04620
1002.777, 26.00644
1003.259, 25.90871
1003.742, 25.72869
1004.224, 25.50558
1004.706, 25.39835
1005.188, 25.42349
1005.670, 25.37103
1006.152, 25.12823
1006.634, 24.91643
1007.116, 25.12028
1007.599, 25.50325
1008.081, 25.68579
1008.563, 25.44207
1009.045, 25.38244
1009.527, 25.73207
1010.009, 26.06922
1010.491, 26.06476
1010.973, 25.75790
1011.455, 25.58660
1011.938, 25.54006
1012.420, 25.51528
1012.902, 25.38677
1013.384, 25.31702
1013.866, 25.48396
1014.348, 25.79753
1014.830, 25.95994
1015.312, 25.89380
1015.794, 25.91209
1016.277, 26.10761
1016.759, 26.27513
1017.241, 26.00541
1017.723, 25.53502
1018.205, 25.39015
1018.687, 25.70849
1019.169, 25.91276
1019.651, 25.64336
1020.134, 25.32762
1020.616, 25.17291
1021.098, 25.16587
1021.580, 25.20476
1022.062, 25.28895
1022.544, 25.32887
1023.026, 25.20110
1023.508, 25.11101
1023.990, 25.36492
1024.473, 25.77022
1024.955, 25.99104
1025.437, 25.80327
1025.919, 25.70617
1026.401, 25.73209
1026.883, 25.81217
1027.365, 25.92376
1027.847, 26.02908
1028.330, 25.98788
1028.812, 25.80107
1029.294, 25.60830
1029.776, 25.41443
1030.258, 25.31350
1030.740, 25.42561
1031.222, 25.65986
1031.704, 25.72748
1032.187, 25.61865
1032.669, 25.44226
1033.151, 25.20003
1033.633, 24.97335
1034.115, 24.80130
1034.597, 24.72847
1035.079, 24.82507
1035.561, 25.14149
1036.043, 25.53660
1036.526, 26.13195
1037.008, 26.56647
1037.490, 26.58269
1037.972, 26.26664
1038.454, 25.83959
1038.936, 25.36304
1039.418, 25.12309
1039.900, 25.47826
1040.382, 25.88156
1040.865, 26.07269
1041.347, 26.14650
1041.829, 26.27442
1042.311, 26.49822
1042.793, 26.49797
1043.275, 26.22066
1043.757, 25.87234
1044.239, 25.51197
1044.722, 25.28506
1045.204, 25.51040
1045.686, 26.18195
1046.168, 26.48912
1046.650, 26.07026
1047.132, 25.63919
1047.614, 25.36099
1048.096, 25.23658
1048.578, 25.39544
1049.061, 25.71931
1049.543, 25.74247
1050.025, 25.15818
1050.507, 24.73125
1050.989, 25.06895
1051.471, 25.60811
1051.953, 25.85981
1052.435, 25.79921
1052.917, 25.69569
1053.400, 25.54264
1053.882, 25.43538
1054.364, 25.50577
1054.846, 25.59851
1055.328, 25.44338
1055.810, 25.17141
1056.292, 25.12755
1056.774, 25.67896
1057.257, 25.97390
1057.739, 25.88063
1058.221, 25.63297
1058.703, 25.45064
1059.185, 25.35187
1059.667, 25.44504
1060.149, 25.73228
1060.631, 25.96029
1061.114, 25.96584
1061.596, 25.90413
1062.078, 25.82262
1062.560, 25.74213
1063.042, 25.76189
1063.524, 25.88260
1064.006, 25.91384
1064.488, 25.79465
1064.970, 25.59060
1065.453, 25.21195
1065.935, 24.86793
1066.417, 24.85146
1066.899, 25.36858
1067.381, 25.56594
1067.863, 25.32230
1068.345, 25.10569
1068.827, 25.24561
1069.309, 25.56253
1069.792, 25.62162
1070.274, 25.50524
1070.756, 25.45024
1071.238, 25.66242
1071.720, 25.80285
1072.202, 25.82674
1072.684, 25.72750
1073.166, 25.37624
1073.649, 24.81766
1074.131, 24.77578
1074.613, 25.27916
1075.095, 25.79152
1075.577, 25.97299
1076.059, 26.00821
1076.541, 26.01566
1077.023, 25.98060
1077.505, 25.80451
1077.988, 25.43830
1078.470, 25.19666
1078.952, 25.15256
1079.434, 25.21037
1079.916, 25.35432
1080.398, 25.47610
1080.880, 25.37323
1081.362, 24.96136
1081.844, 24.76423
1082.327, 24.92244
1082.809, 25.12986
1083.291, 25.28188
1083.773, 25.37687
1084.255, 25.39610
1084.737, 25.35519
1085.219, 25.30813
1085.701, 25.29888
1086.183, 25.23836
1086.666, 24.97009
1087.148, 24.73544
1087.630, 24.75696
1088.112, 25.04939
1088.594, 25.23926
1089.076, 25.32623
1089.558, 25.34327
1090.040, 25.28937
1090.523, 25.19461
1091.005, 25.06778
1091.487, 24.91936
1091.969, 24.75091
1092.451, 24.48246
1092.933, 24.48592
1093.415, 24.83734
1093.897, 25.27703
1094.380, 25.60704
1094.862, 25.81501
1095.344, 25.86374
1095.826, 25.75698
1096.308, 25.57985
1096.790, 25.13439
1097.272, 25.00873
1097.754, 25.50924
1098.236, 26.18442
1098.719, 26.02588
1099.201, 25.30592
1099.683, 24.84213
1100.165, 24.85845
1100.647, 24.92579
1101.129, 24.88136
1101.611, 24.79500
1102.093, 24.67827
1102.575, 24.55032
1103.058, 24.59506
1103.540, 24.79560
1104.022, 24.92156
1104.504, 24.80824
1104.986, 24.71545
1105.468, 24.97262
1105.950, 25.28476
1106.432, 25.25225
1106.915, 24.73709
1107.397, 24.47061
1107.879, 24.47960
1108.361, 24.56035
1108.843, 24.61238
1109.325, 24.62964
1109.807, 24.60563
1110.289, 24.54016
1110.771, 24.42630
1111.254, 24.13626
1111.736, 24.05756
1112.218, 24.28787
1112.700, 24.56499
1113.182, 24.55812
1113.664, 24.40231
1114.146, 24.37718
1114.628, 24.49545
1115.110, 24.67740
1115.593, 24.90395
1116.075, 25.19401
1116.557, 25.65258
1117.039, 26.07619
1117.521, 26.02886
1118.003, 25.58785
1118.485, 25.02963
1118.967, 24.35561
1119.450, 23.99782
1119.932, 24.58127
1120.414, 25.20896
1120.896, 25.32605
1121.378, 25.02942
1121.860, 24.78669
1122.342, 24.60225
1122.824, 24.60658
1123.307, 24.94427
1123.789, 25.20007
1124.271, 24.84085
1124.753, 24.31500
1125.235, 24.12070
1125.717, 24.31228
1126.199, 24.56669
1126.681, 24.90510
1127.163, 25.16151
1127.646, 25.21803
1128.128, 25.17904
1128.610, 25.23157
1129.092, 25.27186
1129.574, 25.10157
1130.056, 24.39395
1130.538, 24.03885
1131.020, 24.13270
1131.502, 24.30770
1131.985, 24.26789
1132.467, 24.10046
1132.949, 23.92869
1133.431, 23.78402
1133.913, 23.77155
1134.395, 24.15996
1134.877, 24.33726
1135.359, 24.12415
1135.842, 23.82794
1136.324, 23.85328
1136.806, 24.10294
1137.288, 24.24829
1137.770, 24.27214
1138.252, 24.26131
1138.734, 24.19826
1139.216, 24.19242
1139.698, 24.36469
1140.181, 24.55099
1140.663, 24.28826
1141.145, 23.67506
1141.627, 23.48806
1142.109, 23.87936
1142.591, 24.31080
1143.073, 24.40995
1143.555, 24.44643
1144.037, 24.68746
1144.520, 25.01294
1145.002, 24.77383
1145.484, 23.97990
1145.966, 23.60398
1146.448, 24.02768
1146.930, 24.57104
1147.412, 24.62734
1147.894, 24.52214
1148.377, 24.61921
1148.859, 24.94201
1149.341, 25.00527
1149.823, 24.78935
1150.305, 24.48747
1150.787, 24.08294
1151.269, 23.81041
1151.751, 24.08053
1152.234, 24.57848
1152.716, 24.86202
1153.198, 24.80149
1153.680, 24.74921
1154.162, 24.69867
1154.644, 24.68565
1155.126, 24.75819
1155.608, 24.86027
1156.090, 25.01017
1156.573, 25.10506
1157.055, 24.93387
1157.537, 24.05310
1158.019, 23.52533
1158.501, 23.41255
1158.983, 23.51266
1159.465, 23.73308
1159.947, 24.01597
1160.429, 24.31651
1160.912, 24.58454
1161.394, 24.65032
1161.876, 24.15533
1162.358, 23.89904
1162.840, 24.03560
1163.322, 24.32228
1163.804, 24.53594
1164.286, 24.67902
1164.769, 24.74158
1165.251, 24.73112
1165.733, 24.70920
1166.215, 24.69633
1166.697, 24.68873
1167.179, 24.72090
1167.661, 24.71395
1168.143, 24.51021
1168.625, 24.16162
1169.108, 23.80670
1169.590, 23.47136
1170.072, 23.33830
1170.554, 23.63471
1171.036, 24.01561
1171.518, 24.41763
1172.000, 24.75849
1172.482, 24.80692
1172.964, 24.60998
1173.447, 24.41255
1173.929, 24.26166
1174.411, 24.09541
1174.893, 23.65724
1175.375, 23.44886
1175.857, 23.85628
1176.339, 24.64769
1176.821, 24.93098
1177.304, 24.75833
1177.786, 24.52782
1178.268, 24.30998
1178.750, 24.19260
1179.232, 24.34351
1179.714, 24.51533
1180.196, 24.49075
1180.678, 24.31040
1181.161, 24.41261
1181.643, 24.76677
1182.125, 24.88391
1182.607, 24.48771
1183.089, 24.06505
1183.571, 23.94192
1184.053, 23.99634
1184.535, 24.18295
1185.017, 24.49908
1185.500, 24.26496
1185.982, 23.49907
1186.464, 23.12922
1186.946, 23.89239
1187.428, 24.69370
1187.910, 24.52168
1188.392, 23.98470
1188.874, 23.80807
1189.356, 24.05487
1189.839, 24.23655
1190.321, 24.35275
1190.803, 24.34868
1191.285, 24.10825
1191.767, 23.82792
1192.249, 23.57031
1192.731, 23.42215
1193.213, 23.55153
1193.696, 24.08708
1194.178, 24.23153
1194.660, 23.96038
1195.142, 23.65731
1195.624, 23.53614
1196.106, 23.53503
1196.588, 23.65724
1197.070, 23.84729
1197.552, 23.99355
1198.035, 24.08158
1198.517, 24.19973
1198.999, 24.35992
1199.481, 24.45626
1199.963, 24.31766
1200.445, 24.16104
1200.927, 24.24946
1201.409, 24.45658
1201.891, 24.41708
1202.374, 24.00606
1202.856, 23.94887
1203.338, 24.33974
1203.820, 24.64197
1204.302, 24.14661
1204.784, 23.56450
1205.266, 23.59740
1205.748, 24.10237
1206.231, 24.46857
1206.713, 24.66557
1207.195, 24.83179
1207.677, 24.99259
1208.159, 25.05615
1208.641, 24.85492
1209.123, 24.58854
1209.605, 24.41038
1210.088, 24.33564
1210.570, 24.37050
1211.052, 24.56836
1211.534, 24.52286
1212.016, 24.13596
1212.498, 23.76101
1212.980, 23.79396
1213.462, 23.96383
1213.944, 24.00816
1214.427, 23.95127
1214.909, 24.02468
1215.391, 24.23917
1215.873, 24.54471
1216.355, 24.96180
1216.837, 25.28220
1217.319, 25.31375
1217.801, 25.14075
1218.283, 24.68842
1218.766, 24.05697
1219.248, 23.89737
1219.730, 24.28518
1220.212, 24.47789
1220.694, 24.27606
1221.176, 24.04133
1221.658, 24.13135
1222.140, 24.33184
1222.623, 24.47852
1223.105, 24.55709
1223.587, 24.52891
1224.069, 24.38379
1224.551, 24.26752
1225.033, 24.20685
1225.515, 24.22429
1225.997, 24.49953
1226.479, 24.73720
1226.962, 24.55179
1227.444, 24.04466
1227.926, 23.95009
1228.408, 24.27378
1228.890, 24.53051
1229.372, 24.58848
1229.854, 24.53283
1230.336, 24.33447
1230.818, 24.13400
1231.301, 24.01727
1231.783, 23.99620
1232.265, 24.25943
1232.747, 24.78899
1233.229, 25.04156
1233.711, 24.79511
1234.193, 24.47534
1234.675, 24.31335
1235.158, 24.28252
1235.640, 24.36461
1236.122, 24.54717
1236.604, 24.86599
1237.086, 25.27786
1237.568, 25.31263
1238.050, 24.61413
1238.532, 24.20438
1239.015, 25.29896
1239.497, 26.34023
1239.979, 26.18099
1240.461, 25.10833
1240.943, 24.60506
1241.425, 24.59875
1241.907, 24.68292
1242.389, 24.77629
1242.871, 24.78090
1243.354, 24.48532
1243.836, 24.25861
1244.318, 24.34657
1244.800, 24.65928
1245.282, 24.83067
1245.764, 24.87783
1246.246, 24.83811
1246.728, 24.65368
1247.210, 24.59784
1247.693, 24.95175
1248.175, 25.24417
1248.657, 25.21526
1249.139, 24.96611
1249.621, 24.79855
1250.103, 24.69503
1250.585, 24.59701
1251.067, 24.46589
1251.550, 24.40721
1252.032, 24.45195
1252.514, 24.55576
1252.996, 24.72541
1253.478, 24.91396
1253.960, 25.05835
1254.442, 25.11742
1254.924, 24.95744
1255.406, 24.37235
1255.889, 24.12028
1256.371, 24.35997
1256.853, 24.68533
1257.335, 24.89747
1257.817, 25.05595
1258.299, 25.39782
1258.781, 25.71462
1259.263, 25.59188
1259.745, 24.67442
1260.228, 24.20098
1260.710, 24.28476
1261.192, 24.47029
1261.674, 24.54933
1262.156, 24.59669
1262.638, 24.73967
1263.120, 24.90548
1263.602, 24.98283
1264.085, 24.94343
1264.567, 24.90107
1265.049, 24.85341
1265.531, 24.82526
1266.013, 24.85449
1266.495, 24.85994
1266.977, 24.61381
1267.459, 24.39100
1267.942, 24.61871
1268.424, 25.32055
1268.906, 25.56203
1269.388, 25.35099
1269.870, 25.04792
1270.352, 24.74591
1270.834, 24.52677
1271.316, 24.43911
1271.798, 24.47838
1272.281, 24.65327
1272.763, 24.94412
1273.245, 25.17514
1273.727, 25.33477
1274.209, 25.34498
1274.691, 25.12991
1275.173, 24.87510
1275.655, 24.62403
1276.137, 24.40613
1276.620, 24.18928
1277.102, 24.03429
1277.584, 24.33352
1278.066, 24.91946
1278.548, 25.19394
1279.030, 24.84447
1279.512, 24.55793
1279.994, 24.48448
1280.476, 24.56279
1280.959, 24.86847
##END=



