##NAMES=Thorianite
##RRUFFID=R130003
##IDEAL CHEMISTRY=ThO_2_
##LOCALITY=Millar's mine, Tory Hill, Monmouth Township, Haliburton County, Ontario, Canada
##OWNER=RRUFF
##SOURCE=Don Doell
##DESCRIPTION=Broken black cubes
##STATUS=The identification of this mineral has been confirmed by X-ray diffraction.
##URL=rruff.info/R130003
116.2996, 266.8763
116.7817, 266.0251
117.2639, 267.2519
117.7460, 269.1299
118.2281, 269.8481
118.7102, 267.5415
119.1923, 264.7197
119.6744, 262.7954
120.1566, 261.9341
120.6387, 261.8451
121.1208, 262.2966
121.6029, 263.3754
122.0850, 265.2732
122.5671, 269.7386
123.0493, 274.3396
123.5314, 276.4312
124.0135, 275.1473
124.4956, 272.3759
124.9777, 269.1878
125.4598, 265.7935
125.9420, 263.0747
126.4241, 261.7072
126.9062, 261.3878
127.3883, 261.6233
127.8704, 262.4470
128.3525, 263.5949
128.8347, 264.9326
129.3168, 266.4285
129.7989, 267.4579
130.2810, 267.5077
130.7631, 266.6711
131.2452, 265.2679
131.7274, 263.1070
132.2095, 260.5639
132.6916, 258.6335
133.1737, 257.3366
133.6558, 256.4649
134.1379, 255.7738
134.6201, 255.2676
135.1022, 255.1231
135.5843, 255.5113
136.0664, 256.3515
136.5485, 256.9225
137.0306, 257.0753
137.5128, 257.3256
137.9949, 258.5717
138.4770, 261.1269
138.9591, 263.1552
139.4412, 264.1595
139.9233, 264.1283
140.4055, 262.9386
140.8876, 260.1412
141.3697, 256.6229
141.8518, 253.7441
142.3339, 251.5012
142.8160, 249.9190
143.2982, 249.1481
143.7803, 249.5486
144.2624, 249.6014
144.7445, 249.0902
145.2266, 248.3001
145.7087, 247.9190
146.1909, 248.1917
146.6730, 248.5579
147.1551, 248.8307
147.6372, 249.1918
148.1193, 249.1506
148.6014, 248.5604
149.0836, 247.5535
149.5657, 246.5438
150.0478, 245.2917
150.5299, 244.2519
151.0120, 243.6194
151.4941, 243.8790
151.9763, 243.9749
152.4584, 243.7536
152.9405, 243.2960
153.4226, 243.0141
153.9047, 243.1356
154.3868, 243.3096
154.8690, 243.3448
155.3511, 243.7134
155.8332, 243.4150
156.3153, 241.9505
156.7974, 239.4741
157.2795, 237.2315
157.7617, 235.2489
158.2438, 233.7276
158.7259, 232.8138
159.2080, 233.3745
159.6901, 233.7565
160.1722, 233.2231
160.6544, 231.8312
161.1365, 230.8219
161.6186, 230.9061
162.1007, 231.4623
162.5828, 231.9181
163.0649, 232.4322
163.5471, 232.5165
164.0292, 231.7788
164.5113, 230.2046
164.9934, 228.5607
165.4755, 226.8275
165.9576, 225.3371
166.4398, 224.5183
166.9219, 225.2666
167.4040, 226.2096
167.8861, 226.3288
168.3682, 225.5341
168.8503, 224.7338
169.3325, 224.5566
169.8146, 224.7557
170.2967, 224.9334
170.7788, 225.2090
171.2609, 225.2257
171.7430, 224.5117
172.2252, 222.9657
172.7073, 221.3514
173.1894, 220.2760
173.6715, 219.5851
174.1536, 218.9644
174.6357, 218.1049
175.1179, 217.2793
175.6000, 216.8629
176.0821, 216.9315
176.5642, 217.1738
177.0463, 217.4973
177.5284, 217.7962
178.0106, 217.7447
178.4927, 216.8761
178.9748, 215.6096
179.4569, 214.6540
179.9390, 214.0770
180.4211, 213.7777
180.9033, 213.7134
181.3854, 213.8518
181.8675, 214.0348
182.3496, 214.2713
182.8317, 214.4828
183.3138, 214.4348
183.7960, 214.0340
184.2781, 213.5634
184.7602, 213.4269
185.2423, 213.6002
185.7244, 213.8952
186.2065, 214.3858
186.6887, 214.9431
187.1708, 215.0195
187.6529, 214.4353
188.1350, 213.6016
188.6171, 213.2176
189.0992, 213.2718
189.5814, 213.4862
190.0635, 213.8050
190.5456, 214.1866
191.0277, 214.2725
191.5098, 213.9356
191.9919, 213.4261
192.4741, 213.2666
192.9562, 213.4676
193.4383, 213.7943
193.9204, 214.1334
194.4025, 214.4804
194.8846, 214.7596
195.3668, 214.9506
195.8489, 215.0802
196.3310, 215.1910
196.8131, 215.2747
197.2952, 215.3968
197.7773, 215.7269
198.2595, 216.2789
198.7416, 216.3481
199.2237, 215.6509
199.7058, 214.5838
200.1879, 214.4053
200.6700, 215.3176
201.1522, 216.2089
201.6343, 216.2056
202.1164, 215.2004
202.5985, 214.4074
203.0806, 213.9872
203.5627, 213.8703
204.0449, 213.8608
204.5270, 213.9642
205.0091, 214.1514
205.4912, 214.4495
205.9733, 214.8994
206.4554, 215.1962
206.9376, 215.2625
207.4197, 215.1623
207.9018, 215.1193
208.3839, 215.1147
208.8660, 215.2200
209.3481, 215.5488
209.8303, 216.1989
210.3124, 216.6272
210.7945, 216.6781
211.2766, 216.4818
211.7587, 216.6406
212.2408, 217.3622
212.7230, 218.0056
213.2051, 218.0624
213.6872, 217.2838
214.1693, 216.7897
214.6514, 216.8097
215.1335, 217.1994
215.6157, 217.2427
216.0978, 216.7238
216.5799, 216.2447
217.0620, 216.2466
217.5441, 216.9414
218.0262, 217.4897
218.5084, 217.7774
218.9905, 217.8579
219.4726, 217.9904
219.9547, 218.2096
220.4368, 218.4300
220.9189, 218.6084
221.4011, 218.7734
221.8832, 218.8357
222.3653, 218.7834
222.8474, 218.6281
223.3295, 218.3775
223.8116, 217.9254
224.2938, 217.5566
224.7759, 217.4875
225.2580, 217.9198
225.7401, 218.1521
226.2222, 218.0689
226.7043, 217.7460
227.1865, 217.5051
227.6686, 217.3983
228.1507, 217.2990
228.6328, 217.1306
229.1149, 216.8502
229.5970, 216.5970
230.0792, 216.3577
230.5613, 216.1535
231.0434, 216.0814
231.5255, 216.1910
232.0076, 216.3673
232.4897, 216.5811
232.9719, 216.9592
233.4540, 217.0749
233.9361, 216.7380
234.4182, 216.1427
234.9003, 215.9847
235.3824, 216.4922
235.8646, 217.1108
236.3467, 217.5760
236.8288, 217.8450
237.3109, 218.0595
237.7930, 218.2905
238.2751, 218.4540
238.7573, 218.2266
239.2394, 217.1977
239.7215, 216.3613
240.2036, 216.2265
240.6857, 217.2638
241.1678, 217.9178
241.6500, 218.0412
242.1321, 217.8172
242.6142, 217.7179
243.0963, 217.8345
243.5784, 217.9420
244.0605, 217.9473
244.5427, 217.8302
245.0248, 217.6648
245.5069, 217.4348
245.9890, 217.1654
246.4711, 216.9116
246.9532, 216.6684
247.4354, 216.4525
247.9175, 216.2829
248.3996, 216.1869
248.8817, 216.0508
249.3638, 215.8375
249.8459, 215.6104
250.3281, 215.4807
250.8102, 215.4511
251.2923, 215.5248
251.7744, 215.7669
252.2565, 216.2915
252.7386, 216.4670
253.2208, 216.0840
253.7029, 215.5068
254.1850, 215.3196
254.6671, 215.6915
255.1492, 216.1213
255.6313, 216.4676
256.1135, 216.7218
256.5956, 216.9385
257.0777, 217.1816
257.5598, 217.3155
258.0419, 217.0991
258.5240, 216.3249
259.0062, 215.6676
259.4883, 215.3318
259.9704, 215.3431
260.4525, 215.3580
260.9346, 215.3957
261.4167, 215.4141
261.8989, 215.2960
262.3810, 214.8623
262.8631, 214.8124
263.3452, 215.5049
263.8273, 216.9433
264.3094, 217.6398
264.7916, 217.3710
265.2737, 216.7520
265.7558, 216.3300
266.2379, 216.1091
266.7200, 216.1183
267.2021, 216.4944
267.6843, 217.1612
268.1664, 217.3183
268.6485, 216.7786
269.1306, 216.1134
269.6127, 215.8157
270.0948, 215.9533
270.5770, 216.1476
271.0591, 216.3597
271.5412, 216.5735
272.0233, 216.7418
272.5054, 216.8788
272.9875, 216.9123
273.4697, 216.7702
273.9518, 216.4279
274.4339, 216.0379
274.9160, 215.5766
275.3981, 215.1060
275.8802, 214.7857
276.3624, 214.6129
276.8445, 214.6321
277.3266, 215.0315
277.8087, 215.8680
278.2908, 216.1842
278.7729, 215.7486
279.2551, 214.9364
279.7372, 214.6935
280.2193, 215.1213
280.7014, 215.4567
281.1835, 215.1315
281.6656, 214.1615
282.1478, 213.6549
282.6299, 213.7284
283.1120, 214.1337
283.5941, 214.5318
284.0762, 214.9293
284.5583, 215.2019
285.0405, 215.1857
285.5226, 214.9333
286.0047, 215.0511
286.4868, 215.6672
286.9689, 216.2348
287.4510, 215.7412
287.9332, 214.2541
288.4153, 213.1895
288.8974, 213.4626
289.3795, 214.6264
289.8616, 214.8801
290.3438, 214.1233
290.8259, 213.1467
291.3080, 212.8448
291.7901, 213.1202
292.2722, 213.3722
292.7543, 213.3842
293.2365, 213.2548
293.7186, 213.2181
294.2007, 213.2759
294.6828, 213.3433
295.1649, 213.4681
295.6470, 213.5632
296.1292, 213.2861
296.6113, 212.3246
297.0934, 211.2006
297.5755, 210.8241
298.0576, 211.1389
298.5397, 211.5461
299.0219, 211.7180
299.5040, 211.6570
299.9861, 211.2906
300.4682, 210.4498
300.9503, 209.6270
301.4324, 209.4935
301.9146, 209.9292
302.3967, 210.4183
302.8788, 210.7186
303.3609, 210.8514
303.8430, 210.7969
304.3251, 210.5058
304.8073, 210.2057
305.2894, 210.1539
305.7715, 210.2591
306.2536, 210.2996
306.7357, 210.0627
307.2178, 209.7495
307.7000, 209.6002
308.1821, 209.6496
308.6642, 209.6659
309.1463, 209.4420
309.6284, 209.0767
310.1105, 208.7218
310.5927, 208.4751
311.0748, 208.2405
311.5569, 207.8697
312.0390, 207.3668
312.5211, 207.0558
313.0032, 207.2212
313.4854, 207.6345
313.9675, 208.0517
314.4496, 208.5915
314.9317, 208.9404
315.4138, 208.9046
315.8959, 208.5244
316.3781, 208.0427
316.8602, 207.3134
317.3423, 206.6750
317.8244, 206.4081
318.3065, 206.9336
318.7886, 207.3252
319.2708, 207.0602
319.7529, 206.3968
320.2350, 206.0610
320.7171, 206.6084
321.1992, 207.2799
321.6813, 207.7093
322.1635, 207.8011
322.6456, 207.7526
323.1277, 207.5025
323.6098, 207.1469
324.0919, 206.8466
324.5740, 206.6127
325.0562, 206.4518
325.5383, 206.3812
326.0204, 206.4248
326.5025, 206.4652
326.9846, 206.3986
327.4667, 206.3680
327.9489, 206.5272
328.4310, 207.2622
328.9131, 207.7617
329.3952, 207.8412
329.8773, 207.4915
330.3594, 207.1892
330.8416, 206.9411
331.3237, 206.7397
331.8058, 206.5827
332.2879, 206.4869
332.7700, 206.4075
333.2521, 206.3638
333.7343, 206.3345
334.2164, 206.1975
334.6985, 205.8425
335.1806, 205.5485
335.6627, 205.4973
336.1448, 205.8122
336.6270, 205.9640
337.1091, 205.8416
337.5912, 205.6214
338.0733, 205.7496
338.5554, 206.3983
339.0375, 206.8349
339.5197, 206.6772
340.0018, 205.8857
340.4839, 205.2328
340.9660, 204.6823
341.4481, 204.3759
341.9302, 204.6822
342.4124, 205.6689
342.8945, 206.3448
343.3766, 206.2868
343.8587, 205.6878
344.3408, 205.4732
344.8229, 205.6890
345.3051, 205.9804
345.7872, 205.9893
346.2693, 205.7640
346.7514, 205.6394
347.2335, 205.7269
347.7156, 205.8986
348.1978, 205.8446
348.6799, 205.5903
349.1620, 205.4326
349.6441, 205.6733
350.1262, 206.1550
350.6083, 206.5044
351.0905, 206.6738
351.5726, 206.7343
352.0547, 206.7009
352.5368, 206.6140
353.0189, 206.5967
353.5010, 206.6374
353.9832, 206.8150
354.4653, 207.4486
354.9474, 208.5860
355.4295, 209.3176
355.9116, 208.4012
356.3937, 206.7241
356.8759, 205.6307
357.3580, 206.0344
357.8401, 206.8201
358.3222, 207.2387
358.8043, 207.3563
359.2864, 207.5444
359.7686, 208.1242
360.2507, 208.7977
360.7328, 209.3208
361.2149, 209.7020
361.6970, 209.8273
362.1791, 209.4421
362.6613, 208.7578
363.1434, 208.2638
363.6255, 207.9893
364.1076, 208.0364
364.5897, 208.6202
365.0718, 210.0567
365.5540, 210.9563
366.0361, 210.5665
366.5182, 209.6811
367.0003, 209.2529
367.4824, 209.9118
367.9645, 210.5033
368.4467, 210.7644
368.9288, 210.6750
369.4109, 210.6070
369.8930, 210.5652
370.3751, 210.5478
370.8572, 210.5404
371.3394, 210.4102
371.8215, 210.5394
372.3036, 211.1474
372.7857, 212.0298
373.2678, 212.3988
373.7499, 211.9050
374.2321, 211.5174
374.7142, 211.7729
375.1963, 212.9070
375.6784, 213.6671
376.1605, 213.9774
376.6426, 213.9961
377.1248, 213.8117
377.6069, 213.3095
378.0890, 213.3000
378.5711, 214.3169
379.0532, 216.1415
379.5353, 217.0327
380.0175, 216.8906
380.4996, 216.3587
380.9817, 215.9083
381.4638, 215.5579
381.9459, 215.4756
382.4280, 215.7589
382.9102, 216.2445
383.3923, 216.6531
383.8744, 216.9871
384.3565, 217.2507
384.8386, 217.2785
385.3207, 217.2609
385.8029, 217.6719
386.2850, 218.6306
386.7671, 219.6435
387.2492, 220.2772
387.7313, 220.5852
388.2134, 220.6734
388.6956, 220.3678
389.1777, 220.0127
389.6598, 219.8981
390.1419, 220.0289
390.6240, 220.3331
391.1061, 220.9980
391.5883, 221.7230
392.0704, 222.1708
392.5525, 221.9619
393.0346, 221.8627
393.5167, 222.2950
393.9988, 223.1214
394.4810, 223.9555
394.9631, 224.7778
395.4452, 225.4863
395.9273, 226.0148
396.4094, 226.3159
396.8915, 226.5633
397.3737, 226.5279
397.8558, 226.5382
398.3379, 226.9993
398.8200, 228.5266
399.3021, 229.8902
399.7842, 230.7929
400.2664, 231.2338
400.7485, 231.7772
401.2306, 232.5562
401.7127, 233.2951
402.1948, 233.8071
402.6769, 233.9874
403.1591, 234.1283
403.6412, 234.0857
404.1233, 234.0838
404.6054, 234.8196
405.0875, 236.5944
405.5696, 238.1987
406.0518, 239.0819
406.5339, 239.2249
407.0160, 239.3596
407.4981, 239.4336
407.9802, 239.6543
408.4623, 240.3657
408.9445, 241.5629
409.4266, 242.6729
409.9087, 243.5509
410.3908, 244.2506
410.8729, 244.7968
411.3550, 245.2027
411.8372, 245.7241
412.3193, 246.5334
412.8014, 247.6014
413.2835, 248.9324
413.7656, 250.6043
414.2477, 252.2554
414.7299, 253.4640
415.2120, 254.3360
415.6941, 255.0971
416.1762, 255.8120
416.6583, 256.4919
417.1404, 256.9730
417.6226, 257.2818
418.1047, 258.0228
418.5868, 260.1035
419.0689, 262.5208
419.5510, 264.3275
420.0331, 264.8402
420.5153, 265.2611
420.9974, 265.9914
421.4795, 266.9652
421.9616, 267.9866
422.4437, 269.1038
422.9258, 270.1958
423.4080, 271.1885
423.8901, 272.0383
424.3722, 272.9901
424.8543, 274.1039
425.3364, 275.3190
425.8185, 276.5685
426.3007, 277.8323
426.7828, 279.1954
427.2649, 280.7601
427.7470, 282.4585
428.2291, 283.8633
428.7112, 284.8218
429.1934, 285.7293
429.6755, 286.8711
430.1576, 288.3361
430.6397, 289.4615
431.1218, 290.0611
431.6039, 290.5785
432.0861, 291.8644
432.5682, 293.9811
433.0503, 295.9186
433.5324, 297.2927
434.0145, 298.2431
434.4966, 299.2003
434.9788, 300.1648
435.4609, 301.2094
435.9430, 302.5201
436.4251, 303.9796
436.9072, 305.1857
437.3893, 305.9586
437.8715, 306.7654
438.3536, 308.2716
438.8357, 310.2657
439.3178, 312.1573
439.7999, 313.5305
440.2820, 314.7348
440.7642, 316.1111
441.2463, 317.6869
441.7284, 319.1237
442.2105, 320.0070
442.6926, 320.7745
443.1747, 321.8613
443.6569, 323.8673
444.1390, 325.6238
444.6211, 326.5332
445.1032, 326.8848
445.5853, 327.4886
446.0674, 328.7306
446.5496, 330.0554
447.0317, 331.3309
447.5138, 332.6758
447.9959, 333.5645
448.4780, 333.6927
448.9601, 333.5971
449.4423, 333.7968
449.9244, 334.3727
450.4065, 335.0961
450.8886, 335.9902
451.3707, 337.0009
451.8528, 337.9389
452.3350, 338.8116
452.8171, 339.5906
453.2992, 340.2710
453.7813, 340.8502
454.2634, 341.2850
454.7455, 341.5215
455.2277, 341.7702
455.7098, 342.4951
456.1919, 343.5748
456.6740, 344.2280
457.1561, 344.0501
457.6382, 343.4090
458.1204, 342.8624
458.6025, 342.4059
459.0846, 342.0318
459.5667, 341.7612
460.0488, 341.5602
460.5309, 341.3822
461.0131, 341.2214
461.4952, 341.0971
461.9773, 341.0753
462.4594, 341.0899
462.9415, 341.0426
463.4236, 341.1399
463.9058, 340.9396
464.3879, 339.9046
464.8700, 338.1895
465.3521, 337.1031
465.8342, 337.5072
466.3163, 338.2184
466.7985, 338.6141
467.2806, 338.6909
467.7627, 338.3420
468.2448, 337.3000
468.7269, 335.9510
469.2090, 334.8575
469.6912, 334.2922
470.1733, 333.4413
470.6554, 331.9717
471.1375, 329.9865
471.6196, 328.5307
472.1017, 327.7175
472.5839, 327.1103
473.0660, 326.4896
473.5481, 325.8602
474.0302, 324.9103
474.5123, 323.5573
474.9944, 322.0502
475.4766, 320.7730
475.9587, 319.6913
476.4408, 318.5568
476.9229, 317.2079
477.4050, 315.8047
477.8871, 314.5752
478.3693, 313.5254
478.8514, 312.6907
479.3335, 312.5529
479.8156, 312.4481
480.2977, 311.4335
480.7798, 309.0551
481.2620, 306.7710
481.7441, 305.2995
482.2262, 304.4865
482.7083, 304.1063
483.1904, 304.8499
483.6725, 305.2631
484.1547, 304.7653
484.6368, 303.3846
485.1189, 301.7060
485.6010, 299.0199
486.0831, 296.6707
486.5652, 295.4150
487.0474, 296.0028
487.5295, 296.0563
488.0116, 295.4442
488.4937, 294.3946
488.9758, 293.1582
489.4579, 291.6299
489.9401, 290.2260
490.4222, 289.0374
490.9043, 288.0475
491.3864, 287.1140
491.8685, 286.2213
492.3506, 285.4748
492.8328, 285.0663
493.3149, 284.8972
493.7970, 284.5284
494.2791, 283.9360
494.7612, 283.0944
495.2433, 281.6922
495.7255, 279.9999
496.2076, 278.7044
496.6897, 278.3341
497.1718, 278.1989
497.6539, 277.7950
498.1360, 277.1120
498.6182, 276.0853
499.1003, 274.1852
499.5824, 272.2720
500.0645, 271.0331
500.5466, 270.6484
501.0287, 270.3624
501.5109, 270.1778
501.9930, 269.8809
502.4751, 269.2591
502.9572, 268.0687
503.4393, 266.8001
503.9214, 265.4507
504.4036, 264.0687
504.8857, 262.7691
505.3678, 261.4835
505.8499, 260.3817
506.3320, 259.5949
506.8141, 259.1572
507.2963, 258.5178
507.7784, 257.6074
508.2605, 256.6613
508.7426, 255.9745
509.2247, 255.5190
509.7068, 254.8586
510.1890, 253.8868
510.6711, 252.7244
511.1532, 251.4400
511.6353, 250.0974
512.1174, 249.0371
512.5995, 248.7752
513.0817, 248.6955
513.5638, 248.0240
514.0459, 246.7614
514.5280, 245.3405
515.0101, 243.7958
515.4922, 242.3415
515.9744, 241.2253
516.4565, 240.6685
516.9386, 240.0997
517.4207, 239.3704
517.9028, 238.5068
518.3849, 237.5507
518.8671, 236.3118
519.3492, 235.1993
519.8313, 234.4729
520.3134, 234.0773
520.7955, 232.9928
521.2776, 230.6529
521.7598, 228.4508
522.2419, 227.2875
522.7240, 227.3998
523.2061, 227.2397
523.6882, 226.7460
524.1703, 226.0567
524.6525, 225.3112
525.1346, 224.5122
525.6167, 223.7471
526.0988, 223.0745
526.5809, 222.4251
527.0630, 221.7271
527.5452, 220.9660
528.0273, 220.0426
528.5094, 218.5679
528.9915, 217.0684
529.4736, 216.1781
529.9557, 215.9544
530.4379, 215.9044
530.9200, 216.0485
531.4021, 216.0614
531.8842, 215.5938
532.3663, 214.0744
532.8484, 212.7643
533.3306, 212.1724
533.8127, 211.9875
534.2948, 211.5680
534.7769, 210.4555
535.2590, 209.5739
535.7411, 209.2514
536.2233, 209.4653
536.7054, 209.3369
537.1875, 208.8345
537.6696, 208.0615
538.1517, 206.9197
538.6339, 205.3564
539.1160, 204.3050
539.5981, 203.8584
540.0802, 203.8298
540.5623, 204.1987
541.0444, 204.8511
541.5266, 205.1230
542.0087, 204.6330
542.4908, 203.8602
542.9729, 203.5307
543.4550, 203.5392
543.9371, 203.4566
544.4193, 202.8628
544.9014, 202.1895
545.3835, 201.7885
545.8656, 201.6957
546.3477, 201.7342
546.8298, 201.9074
547.3120, 202.1378
547.7941, 202.3578
548.2762, 202.4581
548.7583, 202.6864
549.2404, 203.2902
549.7225, 203.9634
550.2047, 204.1326
550.6868, 203.4272
551.1689, 202.9483
551.6510, 203.0806
552.1331, 203.6918
552.6152, 203.7972
553.0974, 203.2636
553.5795, 202.8973
554.0616, 203.4422
554.5437, 204.6985
555.0258, 205.4391
555.5079, 205.5567
555.9901, 205.5014
556.4722, 205.6534
556.9543, 205.9950
557.4364, 206.5112
557.9185, 207.3110
558.4006, 208.0988
558.8828, 208.6282
559.3649, 208.9657
559.8470, 209.2810
560.3291, 209.5915
560.8112, 209.9300
561.2933, 210.3219
561.7755, 210.7648
562.2576, 211.1965
562.7397, 211.5773
563.2218, 211.9589
563.7039, 212.3549
564.1860, 212.7138
564.6682, 213.2345
565.1503, 213.9592
565.6324, 214.8060
566.1145, 215.7140
566.5966, 216.7196
567.0787, 217.5450
567.5609, 218.1079
568.0430, 218.4976
568.5251, 218.7518
569.0072, 218.9215
569.4893, 219.3761
569.9714, 220.6369
570.4536, 222.1627
570.9357, 223.1069
571.4178, 223.4850
571.8999, 223.8719
572.3820, 224.7226
572.8641, 225.6920
573.3463, 226.4236
573.8284, 226.7149
574.3105, 227.1633
574.7926, 228.1099
575.2747, 229.2505
575.7568, 230.1991
576.2390, 230.8887
576.7211, 231.4261
577.2032, 231.6322
577.6853, 231.7117
578.1674, 232.4471
578.6495, 234.0872
579.1317, 235.6628
579.6138, 236.8162
580.0959, 237.5641
580.5780, 237.8750
581.0601, 237.6970
581.5422, 237.6997
582.0244, 238.7266
582.5065, 240.3519
582.9886, 241.3651
583.4707, 241.4935
583.9528, 241.7160
584.4349, 243.4095
584.9171, 245.6407
585.3992, 247.0113
585.8813, 246.0189
586.3634, 245.1671
586.8455, 245.5631
587.3276, 246.8942
587.8098, 248.3095
588.2919, 249.7872
588.7740, 251.1830
589.2561, 252.5190
589.7382, 253.7992
590.2203, 254.6264
590.7025, 254.6924
591.1846, 254.8416
591.6667, 255.7606
592.1488, 257.5382
592.6309, 258.7458
593.1130, 259.2024
593.5952, 259.6143
594.0773, 261.0903
594.5594, 263.3190
595.0415, 264.9832
595.5236, 265.5217
596.0057, 265.8468
596.4879, 267.1000
596.9700, 268.9290
597.4521, 270.4941
597.9342, 271.0001
598.4163, 271.4992
598.8984, 272.6107
599.3806, 274.2951
599.8627, 276.0058
600.3448, 277.6589
600.8269, 279.2722
601.3090, 280.8702
601.7911, 282.4615
602.2733, 284.0473
602.7554, 285.7473
603.2375, 287.2702
603.7196, 288.1245
604.2017, 288.1906
604.6838, 288.9561
605.1660, 290.7026
605.6481, 292.9826
606.1302, 295.0962
606.6123, 297.0965
607.0944, 299.2292
607.5765, 301.7421
608.0587, 304.2954
608.5408, 306.5628
609.0229, 308.5558
609.5050, 310.4036
609.9871, 311.9629
610.4692, 313.5378
610.9514, 315.2705
611.4335, 317.1829
611.9156, 319.2973
612.3977, 321.7685
612.8798, 324.3316
613.3619, 326.7982
613.8441, 329.1561
614.3262, 331.5416
614.8083, 334.0385
615.2904, 336.4750
615.7725, 338.5228
616.2546, 340.1536
616.7368, 341.9533
617.2189, 344.1141
617.7010, 346.4117
618.1831, 348.2754
618.6652, 349.8558
619.1473, 351.7803
619.6295, 354.7970
620.1116, 357.9820
620.5937, 360.3075
621.0758, 361.9087
621.5579, 363.5421
622.0400, 365.4256
622.5222, 367.5255
623.0043, 369.9877
623.4864, 372.9943
623.9685, 375.3433
624.4506, 376.4044
624.9327, 377.2070
625.4149, 378.4345
625.8970, 380.2457
626.3791, 381.9654
626.8612, 383.5591
627.3433, 385.0758
627.8254, 386.6698
628.3076, 388.3221
628.7897, 389.5856
629.2718, 390.2172
629.7539, 390.6272
630.2360, 391.4761
630.7181, 392.6534
631.2003, 393.7968
631.6824, 394.6910
632.1645, 395.5142
632.6466, 396.4458
633.1287, 397.4578
633.6108, 398.2923
634.0930, 398.9418
634.5751, 399.3359
635.0572, 399.3090
635.5393, 398.6948
636.0214, 398.5413
636.5035, 399.0908
636.9857, 399.8033
637.4678, 400.3370
637.9499, 400.7193
638.4320, 400.6180
638.9141, 399.8804
639.3962, 399.0312
639.8784, 399.0309
640.3605, 399.6060
640.8426, 399.4864
641.3247, 398.0316
641.8068, 396.2868
642.2889, 395.4091
642.7711, 395.1123
643.2532, 394.7209
643.7353, 393.7358
644.2174, 392.7924
644.6995, 392.3428
645.1816, 392.2832
645.6638, 391.8629
646.1459, 390.5237
646.6280, 389.2612
647.1101, 388.4162
647.5922, 388.0175
648.0743, 387.6841
648.5565, 387.5668
649.0386, 387.1117
649.5207, 385.6856
650.0028, 383.4245
650.4849, 381.4969
650.9670, 380.0009
651.4492, 378.8097
651.9313, 378.1198
652.4134, 377.5935
652.8955, 376.5468
653.3776, 374.5346
653.8597, 372.5529
654.3419, 371.3982
654.8240, 370.6357
655.3061, 369.6181
655.7882, 367.7887
656.2703, 366.1396
656.7524, 364.9938
657.2346, 364.1947
657.7167, 363.2935
658.1988, 362.3099
658.6809, 361.1781
659.1630, 359.8014
659.6451, 358.2506
660.1273, 356.9732
660.6094, 355.9614
661.0915, 355.0156
661.5736, 354.0481
662.0557, 353.0184
662.5378, 351.8885
663.0200, 350.6512
663.5021, 349.1798
663.9842, 347.2104
664.4663, 345.0514
664.9484, 342.9753
665.4305, 340.9483
665.9127, 339.2063
666.3948, 338.0040
666.8769, 337.0205
667.3590, 335.9265
667.8411, 334.7318
668.3232, 333.4589
668.8054, 332.2053
669.2875, 330.7918
669.7696, 328.7303
670.2517, 326.0013
670.7338, 323.6300
671.2159, 322.0052
671.6981, 320.8170
672.1802, 319.8771
672.6623, 319.0033
673.1444, 317.5062
673.6265, 314.2339
674.1086, 310.8727
674.5908, 308.8453
675.0729, 307.9873
675.5550, 306.9174
676.0371, 304.7816
676.5192, 302.7407
677.0013, 301.4301
677.4835, 300.9682
677.9656, 299.9014
678.4477, 298.0271
678.9298, 295.8986
679.4119, 293.8957
679.8940, 291.9937
680.3762, 290.0444
680.8583, 288.0000
681.3404, 285.9979
681.8225, 284.1736
682.3046, 282.4781
682.7867, 280.7530
683.2689, 278.9563
683.7510, 277.2104
684.2331, 275.6400
684.7152, 274.1933
685.1973, 272.8422
685.6794, 271.7661
686.1616, 270.5426
686.6437, 268.9727
687.1258, 267.2370
687.6079, 265.7040
688.0900, 264.5365
688.5721, 263.1677
689.0543, 261.3600
689.5364, 259.3461
690.0185, 257.8725
690.5006, 256.9234
690.9827, 255.9094
691.4648, 254.4572
691.9470, 252.7827
692.4291, 251.1775
692.9112, 249.6263
693.3933, 248.0522
693.8754, 246.2691
694.3575, 244.5448
694.8397, 242.9941
695.3218, 241.6133
695.8039, 240.6096
696.2860, 240.5821
696.7681, 240.3805
697.2502, 239.3201
697.7324, 237.1438
698.2145, 235.4803
698.6966, 234.4802
699.1787, 233.5715
699.6608, 232.0166
700.1429, 230.0180
700.6251, 228.5995
701.1072, 227.9737
701.5893, 227.4719
702.0714, 226.4023
702.5535, 225.0353
703.0356, 223.7662
703.5178, 222.7790
703.9999, 221.7990
704.4820, 220.5515
704.9641, 219.2980
705.4462, 218.4597
705.9283, 218.5484
706.4105, 218.2487
706.8926, 217.3058
707.3747, 215.9333
707.8568, 214.5936
708.3389, 213.2798
708.8210, 211.9997
709.3032, 210.6141
709.7853, 209.3997
710.2674, 209.2654
710.7495, 209.9213
711.2316, 210.1524
711.7137, 209.0531
712.1959, 207.4864
712.6780, 205.8620
713.1601, 204.2472
713.6422, 203.0134
714.1243, 202.5013
714.6064, 202.1540
715.0886, 201.7870
715.5707, 201.3996
716.0528, 200.9037
716.5349, 200.3325
717.0170, 199.5591
717.4991, 198.3037
717.9813, 196.6872
718.4634, 195.6908
718.9455, 195.3662
719.4276, 195.1005
719.9097, 194.3520
720.3918, 193.3475
720.8740, 192.3681
721.3561, 191.4305
721.8382, 190.6206
722.3203, 190.1069
722.8024, 189.6530
723.2845, 189.0298
723.7667, 187.9317
724.2488, 187.1711
724.7309, 186.8967
725.2130, 186.7904
725.6951, 186.5112
726.1772, 186.0600
726.6594, 185.4083
727.1415, 184.4999
727.6236, 183.5737
728.1057, 183.0806
728.5878, 182.8319
729.0699, 182.2854
729.5521, 180.9352
730.0342, 179.7655
730.5163, 179.8288
730.9984, 180.4635
731.4805, 180.4897
731.9626, 178.9281
732.4448, 177.5573
732.9269, 176.7129
733.4090, 176.2627
733.8911, 175.9179
734.3732, 175.7387
734.8553, 175.4155
735.3375, 174.7778
735.8196, 173.9919
736.3017, 173.5162
736.7838, 173.3092
737.2659, 173.1187
737.7480, 172.8023
738.2302, 172.4425
738.7123, 172.1223
739.1944, 171.8279
739.6765, 171.4878
740.1586, 171.0792
740.6407, 170.6132
741.1229, 170.0998
741.6050, 169.5367
742.0871, 168.8719
742.5692, 167.9964
743.0513, 167.2700
743.5334, 166.9832
744.0156, 167.0569
744.4977, 166.7881
744.9798, 166.1769
745.4619, 165.5418
745.9440, 165.1276
746.4261, 164.8398
746.9083, 164.5686
747.3904, 164.3038
747.8725, 164.0436
748.3546, 163.8370
748.8367, 163.5984
749.3188, 163.2583
749.8010, 162.7896
750.2831, 162.3214
750.7652, 161.8664
751.2473, 161.3874
751.7294, 160.8075
752.2115, 160.1345
752.6937, 159.6163
753.1758, 159.2759
753.6579, 159.0290
754.1400, 158.7527
754.6221, 158.5231
755.1042, 158.5421
755.5864, 158.9655
756.0685, 159.1598
756.5506, 158.5557
757.0327, 157.6723
757.5148, 157.0470
757.9969, 157.0519
758.4791, 156.8124
758.9612, 156.1850
759.4433, 155.4707
759.9254, 155.0648
760.4075, 154.9765
760.8896, 154.8740
761.3718, 154.6967
761.8539, 154.5159
762.3360, 154.4327
762.8181, 154.4151
763.3002, 154.4051
763.7823, 154.4170
764.2645, 154.3735
764.7466, 154.1664
765.2287, 153.8986
765.7108, 153.7204
766.1929, 153.7439
766.6750, 153.7530
767.1572, 153.8095
767.6393, 153.7863
768.1214, 153.3665
768.6035, 152.5154
769.0856, 151.7626
769.5677, 151.2152
770.0499, 150.8649
770.5320, 150.8126
771.0141, 150.9488
771.4962, 150.9934
771.9783, 150.6670
772.4604, 150.3839
772.9426, 150.4475
773.4247, 150.7081
773.9068, 150.8165
774.3889, 150.6333
774.8710, 150.4372
775.3531, 150.2961
775.8353, 150.1643
776.3174, 149.8627
776.7995, 149.3828
777.2816, 149.0131
777.7637, 148.9176
778.2458, 148.9319
778.7280, 148.7821
779.2101, 148.5061
779.6922, 148.2276
780.1743, 147.9531
780.6564, 147.7412
781.1385, 147.5975
781.6207, 147.5341
782.1028, 147.6160
782.5849, 147.9801
783.0670, 148.2649
783.5491, 148.3594
784.0313, 148.3049
784.5134, 148.3103
784.9955, 148.3774
785.4776, 148.2708
785.9597, 147.7401
786.4418, 147.0656
786.9240, 146.5940
787.4061, 146.3466
787.8882, 146.4174
788.3703, 147.3377
788.8524, 148.1247
789.3345, 148.2583
789.8167, 147.7791
790.2988, 147.1677
790.7809, 146.1577
791.2630, 145.5592
791.7451, 145.8777
792.2272, 146.7805
792.7094, 146.6341
793.1915, 145.4836
793.6736, 144.4336
794.1557, 144.1656
794.6378, 144.3268
795.1199, 144.6318
795.6021, 145.0138
796.0842, 145.2112
796.5663, 144.6856
797.0484, 144.3544
797.5305, 144.8918
798.0126, 146.1381
798.4948, 146.6738
798.9769, 146.2747
799.4590, 145.6914
799.9411, 145.1734
800.4232, 144.7334
800.9053, 144.4695
801.3875, 144.3721
801.8696, 144.3411
802.3517, 144.4409
802.8338, 144.4874
803.3159, 144.2263
803.7980, 143.7134
804.2802, 143.2972
804.7623, 143.0840
805.2444, 142.9964
805.7265, 143.0363
806.2086, 143.1848
806.6907, 143.2707
807.1729, 143.2645
807.6550, 143.3170
808.1371, 143.5382
808.6192, 143.8528
809.1013, 144.1225
809.5834, 144.3265
810.0656, 144.3440
810.5477, 143.9334
811.0298, 143.4597
811.5119, 143.0821
811.9940, 142.8346
812.4761, 142.8931
812.9583, 143.7095
813.4404, 144.2763
813.9225, 144.1221
814.4046, 143.4454
814.8867, 143.6553
815.3688, 144.8144
815.8510, 145.5618
816.3331, 144.8596
816.8152, 143.4959
817.2973, 142.6347
817.7794, 142.2465
818.2615, 142.2429
818.7437, 143.0816
819.2258, 143.8033
819.7079, 143.8871
820.1900, 143.3977
820.6721, 142.9818
821.1542, 142.5983
821.6364, 142.3796
822.1185, 142.4278
822.6006, 142.6442
823.0827, 142.6664
823.5648, 142.5248
824.0469, 142.4628
824.5291, 142.7544
825.0112, 143.0716
825.4933, 143.1088
825.9754, 142.9129
826.4575, 142.6345
826.9396, 142.1164
827.4218, 141.7683
827.9039, 141.7667
828.3860, 142.0005
828.8681, 142.1053
829.3502, 142.0708
829.8323, 141.9700
830.3145, 141.8296
830.7966, 141.6332
831.2787, 141.2703
831.7608, 140.8127
832.2429, 140.4959
832.7250, 140.4290
833.2072, 140.5269
833.6893, 140.8117
834.1714, 141.2257
834.6535, 141.6340
835.1356, 142.1861
835.6177, 142.4374
836.0999, 142.2333
836.5820, 141.7591
837.0641, 141.3903
837.5462, 141.1261
838.0283, 140.9635
838.5104, 140.9247
838.9926, 140.9440
839.4747, 140.9405
839.9568, 140.9445
840.4389, 141.0098
840.9210, 141.3623
841.4031, 141.5172
841.8853, 141.1311
842.3674, 140.6049
842.8495, 140.5773
843.3316, 141.2035
843.8137, 141.5070
844.2958, 141.2574
844.7780, 140.8242
845.2601, 140.8138
845.7422, 141.0435
846.2243, 141.0477
846.7064, 140.6089
847.1885, 140.1602
847.6707, 140.0028
848.1528, 139.9491
848.6349, 139.7705
849.1170, 139.2854
849.5991, 138.9675
850.0812, 138.8085
850.5634, 138.8489
851.0455, 139.3047
851.5276, 140.0809
852.0097, 140.3723
852.4918, 140.0294
852.9739, 139.5425
853.4561, 139.3369
853.9382, 139.2508
854.4203, 139.1037
854.9024, 138.8411
855.3845, 138.5834
855.8666, 138.2053
856.3488, 137.9685
856.8309, 138.0946
857.3130, 138.6436
857.7951, 139.1381
858.2772, 139.6018
858.7593, 139.7912
859.2415, 139.2281
859.7236, 138.3461
860.2057, 137.9029
860.6878, 137.9633
861.1699, 138.0585
861.6520, 138.0877
862.1342, 137.9759
862.6163, 137.5911
863.0984, 136.9253
863.5805, 136.5201
864.0626, 136.4715
864.5447, 136.4152
865.0269, 136.0414
865.5090, 135.5120
865.9911, 135.4744
866.4732, 135.8663
866.9553, 136.2509
867.4374, 136.4606
867.9196, 136.4780
868.4017, 136.2416
868.8838, 135.7775
869.3659, 135.2486
869.8480, 134.5758
870.3301, 133.9993
870.8123, 133.5703
871.2944, 133.2876
871.7765, 133.1764
872.2586, 133.2241
872.7407, 133.3058
873.2228, 133.4398
873.7050, 133.4973
874.1871, 133.3754
874.6692, 133.0753
875.1513, 132.5955
875.6334, 131.4944
876.1155, 130.7930
876.5977, 130.7887
877.0798, 131.1801
877.5619, 131.5099
878.0440, 131.7976
878.5261, 131.7242
879.0082, 131.1547
879.4904, 130.3957
879.9725, 129.7521
880.4546, 129.2192
880.9367, 128.7847
881.4188, 128.4266
881.9009, 128.2062
882.3831, 128.2759
882.8652, 128.4145
883.3473, 128.4072
883.8294, 128.2391
884.3115, 127.9474
884.7936, 127.4843
885.2758, 127.0853
885.7579, 127.1066
886.2400, 127.3533
886.7221, 127.3606
887.2042, 127.0626
887.6863, 126.7351
888.1685, 126.5731
888.6506, 126.4073
889.1327, 126.0933
889.6148, 125.5957
890.0969, 125.1345
890.5790, 124.6220
891.0612, 124.3604
891.5433, 124.7996
892.0254, 125.6181
892.5075, 125.4214
892.9896, 124.3357
893.4717, 123.4022
893.9539, 123.4558
894.4360, 123.6927
894.9181, 123.5430
895.4002, 123.0648
895.8823, 122.7796
896.3644, 122.8698
896.8466, 122.8456
897.3287, 122.4823
897.8108, 122.0003
898.2929, 122.1591
898.7750, 122.8210
899.2571, 123.0683
899.7393, 122.2874
900.2214, 121.3650
900.7035, 121.0083
901.1856, 121.0307
901.6677, 121.1261
902.1498, 121.4168
902.6320, 121.5021
903.1141, 121.3361
903.5962, 120.9814
904.0783, 120.4355
904.5604, 119.7219
905.0425, 119.2073
905.5247, 118.9357
906.0068, 118.9238
906.4889, 119.6454
906.9710, 120.3908
907.4531, 120.1645
907.9352, 118.3168
908.4174, 117.4467
908.8995, 118.7594
909.3816, 120.1204
909.8637, 120.0843
910.3458, 118.6572
910.8279, 117.9211
911.3101, 117.8843
911.7922, 118.0711
912.2743, 118.3689
912.7564, 118.5486
913.2385, 118.2934
913.7206, 117.6434
914.2028, 116.9677
914.6849, 116.1874
915.1670, 115.6292
915.6491, 115.4663
916.1312, 115.5810
916.6133, 115.4407
917.0955, 115.0384
917.5776, 114.9334
918.0597, 115.5059
918.5418, 116.2098
919.0239, 116.3438
919.5060, 116.1103
919.9882, 115.9001
920.4703, 115.8653
920.9524, 115.8322
921.4345, 115.8189
921.9166, 115.7553
922.3987, 115.4967
922.8809, 115.0162
923.3630, 114.7743
923.8451, 114.8520
924.3272, 114.9801
924.8093, 114.8667
925.2914, 114.6319
925.7736, 114.4145
926.2557, 114.2247
926.7378, 114.1283
927.2199, 114.1504
927.7020, 114.2824
928.1841, 114.6320
928.6663, 115.1969
929.1484, 115.0825
929.6305, 114.2543
930.1126, 113.5015
930.5947, 113.4911
931.0768, 113.7286
931.5590, 113.5518
932.0411, 113.0465
932.5232, 112.6231
933.0053, 112.4171
933.4874, 112.3163
933.9695, 112.3620
934.4517, 112.4513
934.9338, 112.2568
935.4159, 111.7711
935.8980, 111.5031
936.3801, 111.6292
936.8622, 111.9348
937.3444, 112.2658
937.8265, 112.5741
938.3086, 112.7836
938.7907, 112.8017
939.2728, 112.8668
939.7549, 113.1723
940.2371, 113.3808
940.7192, 113.1345
941.2013, 112.4127
941.6834, 111.9183
942.1655, 111.6745
942.6476, 111.6537
943.1298, 112.0176
943.6119, 112.4757
944.0940, 112.7621
944.5761, 112.8551
945.0582, 112.7324
945.5403, 112.1653
946.0225, 111.6486
946.5046, 111.3117
946.9867, 111.1513
947.4688, 111.2199
947.9509, 111.4988
948.4330, 111.7102
948.9152, 111.7409
949.3973, 111.6488
949.8794, 111.3116
950.3615, 110.9320
950.8436, 110.8699
951.3257, 111.7972
951.8079, 112.1716
952.2900, 111.6730
952.7721, 110.9221
953.2542, 110.6942
953.7363, 110.9191
954.2184, 111.0741
954.7006, 111.0997
955.1827, 111.0661
955.6648, 111.0311
956.1469, 110.9637
956.6290, 110.8095
957.1111, 110.5453
957.5933, 110.4068
958.0754, 110.5170
958.5575, 110.5108
959.0396, 110.1065
959.5217, 109.4938
960.0038, 109.4162
960.4860, 109.7759
960.9681, 110.0642
961.4502, 109.8882
961.9323, 109.6824
962.4144, 109.6984
962.8965, 109.8693
963.3787, 110.0510
963.8608, 110.2757
964.3429, 110.4098
964.8250, 110.4380
965.3071, 110.3708
965.7892, 110.1153
966.2714, 109.7913
966.7535, 109.7483
967.2356, 110.0906
967.7177, 110.3732
968.1998, 110.3729
968.6819, 110.2005
969.1641, 109.8605
969.6462, 109.3227
970.1283, 109.1673
970.6104, 109.4659
971.0925, 109.7309
971.5746, 109.5717
972.0568, 109.2547
972.5389, 109.3079
973.0210, 109.6304
973.5031, 109.8893
973.9852, 109.9030
974.4673, 109.8829
974.9495, 109.9178
975.4316, 109.9426
975.9137, 109.7969
976.3958, 109.4635
976.8779, 109.3021
977.3600, 109.3911
977.8422, 109.5993
978.3243, 109.9277
978.8064, 110.2222
979.2885, 110.2438
979.7706, 109.8852
980.2527, 109.6052
980.7349, 109.5075
981.2170, 109.4591
981.6991, 109.3935
982.1812, 109.3159
982.6633, 109.2518
983.1454, 109.2059
983.6276, 109.2423
984.1097, 109.5006
984.5918, 109.7597
985.0739, 109.8163
985.5560, 109.7405
986.0381, 109.7323
986.5203, 109.9042
987.0024, 109.9195
987.4845, 109.6725
987.9666, 109.3803
988.4487, 109.4035
988.9308, 109.6399
989.4130, 109.7701
989.8951, 109.7224
990.3772, 109.7187
990.8593, 109.9866
991.3414, 110.2708
991.8235, 110.4373
992.3057, 110.4973
992.7878, 110.0537
993.2699, 108.9613
993.7520, 108.2385
994.2341, 108.7601
994.7162, 109.7484
995.1984, 109.7558
995.6805, 109.1123
996.1626, 108.7191
996.6447, 109.2224
997.1268, 109.6214
997.6089, 109.7022
998.0911, 109.5762
998.5732, 109.3023
999.0553, 108.8829
999.5374, 108.8478
1000.020, 109.3048
1000.502, 109.7608
1000.984, 109.6969
1001.466, 109.4478
1001.948, 109.3301
1002.430, 109.3911
1002.912, 109.4829
1003.394, 109.7039
1003.876, 109.7154
1004.359, 109.2307
1004.841, 108.5271
1005.323, 108.6145
1005.805, 109.2924
1006.287, 109.7308
1006.769, 109.2472
1007.251, 108.8590
1007.733, 109.2804
1008.216, 110.0258
1008.698, 110.4169
1009.180, 110.3869
1009.662, 110.1939
1010.144, 109.8005
1010.626, 109.4933
1011.108, 109.6491
1011.590, 110.0333
1012.072, 110.4167
1012.555, 110.7564
1013.037, 110.6908
1013.519, 109.3940
1014.001, 108.5107
1014.483, 108.7448
1014.965, 109.7045
1015.447, 110.0164
1015.929, 109.7443
1016.411, 109.5511
1016.894, 109.6958
1017.376, 109.8899
1017.858, 109.9398
1018.340, 109.8625
1018.822, 109.6461
1019.304, 109.1069
1019.786, 108.9310
1020.268, 109.2067
1020.751, 109.6145
1021.233, 110.0381
1021.715, 110.3778
1022.197, 110.2176
1022.679, 109.6549
1023.161, 109.2883
1023.643, 109.5873
1024.125, 109.9519
1024.607, 110.2005
1025.090, 110.3284
1025.572, 110.3066
1026.054, 110.1256
1026.536, 109.8364
1027.018, 109.3775
1027.500, 109.1195
1027.982, 109.7534
1028.464, 110.6478
1028.947, 111.0211
1029.429, 110.6233
1029.911, 110.3717
1030.393, 110.3889
1030.875, 110.4596
1031.357, 110.4881
1031.839, 110.4851
1032.321, 110.4949
1032.803, 110.5074
1033.286, 110.4750
1033.768, 110.3741
1034.250, 110.2252
1034.732, 109.8949
1035.214, 109.5919
1035.696, 109.6588
1036.178, 110.2052
1036.660, 110.4913
1037.143, 110.4448
1037.625, 110.2909
1038.107, 110.1866
1038.589, 110.1265
1039.071, 110.0666
1039.553, 110.0146
1040.035, 110.1613
1040.517, 110.8622
1041.000, 111.2622
1041.482, 111.0345
1041.964, 110.4463
1042.446, 110.0287
1042.928, 109.8008
1043.410, 109.9183
1043.892, 110.5913
1044.374, 111.1266
1044.856, 111.0329
1045.339, 110.6460
1045.821, 110.2433
1046.303, 109.8203
1046.785, 109.4772
1047.267, 109.2082
1047.749, 109.0780
1048.231, 109.2393
1048.713, 109.4915
1049.195, 109.5095
1049.677, 109.4000
1050.160, 109.4739
1050.642, 110.1195
1051.124, 110.5267
1051.606, 110.5813
1052.088, 110.4063
1052.570, 110.0644
1053.052, 109.6257
1053.534, 109.3660
1054.017, 109.3166
1054.499, 109.4683
1054.981, 110.1394
1055.463, 110.7150
1055.945, 110.7968
1056.427, 110.4424
1056.909, 109.8048
1057.391, 108.8352
1057.874, 108.1563
1058.356, 107.9921
1058.838, 108.1893
1059.320, 108.9695
1059.802, 109.8246
1060.284, 109.9986
1060.766, 108.8960
1061.248, 108.1127
1061.730, 107.7244
1062.213, 107.6249
1062.695, 107.8935
1063.177, 108.3783
1063.659, 108.5340
1064.141, 108.3974
1064.623, 108.1456
1065.105, 107.6417
1065.587, 107.2959
1066.070, 107.3226
1066.552, 107.5726
1067.034, 107.8712
1067.516, 108.2192
1067.998, 108.5838
1068.480, 108.9816
1068.962, 109.1554
1069.444, 108.6642
1069.927, 107.9918
1070.409, 107.5319
1070.891, 107.3393
1071.373, 107.3568
1071.855, 107.6850
1072.337, 107.9125
1072.819, 107.8517
1073.301, 107.7227
1073.783, 108.0969
1074.266, 108.6724
1074.748, 108.7511
1075.230, 107.8763
1075.712, 107.2682
1076.194, 107.5404
1076.676, 107.8293
1077.158, 107.4820
1077.640, 106.6175
1078.122, 106.6053
1078.604, 107.3420
1079.087, 107.9524
1079.569, 107.6458
1080.051, 107.3770
1080.533, 107.9068
1081.015, 108.7813
1081.497, 109.1854
1081.979, 109.0438
1082.461, 108.6739
1082.944, 108.0572
1083.426, 107.5030
1083.908, 107.3405
1084.390, 107.3944
1084.872, 107.5258
1085.354, 107.7047
1085.836, 107.7419
1086.318, 107.5393
1086.801, 107.3437
1087.283, 107.2246
1087.765, 107.1249
1088.247, 106.8542
1088.729, 106.5261
1089.211, 106.4563
1089.693, 106.7426
1090.175, 107.1121
1090.657, 107.7865
1091.140, 108.1501
1091.622, 107.7342
1092.104, 106.6821
1092.586, 106.1758
1093.068, 106.1821
1093.550, 106.3202
1094.032, 106.4814
1094.514, 106.6237
1094.997, 106.7485
1095.479, 106.8187
1095.961, 106.7798
1096.443, 106.5973
1096.925, 106.4430
1097.407, 106.3284
1097.889, 106.1696
1098.371, 105.7040
1098.854, 105.2935
1099.336, 105.6230
1099.818, 106.4547
1100.300, 106.8271
1100.782, 106.1888
1101.264, 105.6447
1101.746, 105.3032
1102.228, 105.1559
1102.710, 105.2782
1103.193, 105.5726
1103.675, 105.8547
1104.157, 106.1007
1104.639, 106.1396
1105.121, 105.5058
1105.603, 105.1222
1106.085, 105.4653
1106.567, 106.2331
1107.049, 106.4283
1107.531, 106.1334
1108.014, 105.9918
1108.496, 106.2121
1108.978, 106.4927
1109.460, 106.6078
1109.942, 106.6989
1110.424, 106.9761
1110.906, 107.4702
1111.388, 107.2790
1111.871, 106.3396
1112.353, 105.6315
1112.835, 105.8100
1113.317, 106.2496
1113.799, 106.3491
1114.281, 106.2148
1114.763, 106.0054
1115.245, 105.5957
1115.728, 105.4854
1116.210, 105.7647
1116.692, 106.0504
1117.174, 105.9972
1117.656, 105.7468
1118.138, 105.4114
1118.620, 105.0845
1119.102, 105.1093
1119.584, 106.1409
1120.067, 106.7544
1120.549, 106.5898
1121.031, 106.1510
1121.513, 106.1484
1121.995, 106.4398
1122.477, 106.5308
1122.959, 106.3765
1123.441, 106.1843
1123.924, 105.8965
1124.406, 105.7985
1124.888, 106.1222
1125.370, 106.6537
1125.852, 106.7509
1126.334, 106.4571
1126.816, 106.2701
1127.298, 106.3331
1127.781, 106.3931
1128.263, 106.2236
1128.745, 106.0052
1129.227, 105.8634
1129.709, 105.8012
1130.191, 105.9280
1130.673, 106.2672
1131.155, 106.4158
1131.637, 106.0917
1132.120, 105.7237
1132.602, 105.8036
1133.084, 106.1084
1133.566, 106.3452
1134.048, 106.5228
1134.530, 106.4396
1135.012, 106.0270
1135.494, 105.6244
1135.976, 105.4253
1136.458, 105.3873
1136.941, 105.5675
1137.423, 105.8456
1137.905, 105.9277
1138.387, 105.5617
1138.869, 105.2253
1139.351, 104.8935
1139.833, 104.7033
1140.315, 104.8480
1140.798, 105.2228
1141.280, 105.7047
1141.762, 106.2260
1142.244, 106.4196
1142.726, 105.7274
1143.208, 105.2426
1143.690, 105.3002
1144.172, 105.5572
1144.655, 105.4539
1145.137, 105.0898
1145.619, 104.8494
1146.101, 104.7829
1146.583, 104.8030
1147.065, 105.0153
1147.547, 105.1277
1148.029, 104.9320
1148.511, 104.5843
1148.994, 104.6143
1149.476, 104.9609
1149.958, 104.9786
1150.440, 104.4075
1150.922, 104.0629
1151.404, 104.8786
1151.886, 105.8572
1152.368, 106.2465
1152.851, 106.0887
1153.333, 105.7717
1153.815, 105.2930
1154.297, 104.8921
1154.779, 104.6759
1155.261, 104.5259
1155.743, 104.1726
1156.225, 103.9225
1156.708, 104.2530
1157.190, 105.2910
1157.672, 105.9408
1158.154, 106.1923
1158.636, 106.1370
1159.118, 105.6447
1159.600, 105.0765
1160.082, 104.7960
1160.564, 104.7392
1161.047, 104.8039
1161.529, 104.9823
1162.011, 105.3241
1162.493, 105.9258
1162.975, 106.2988
1163.457, 105.8446
1163.939, 105.0885
1164.421, 104.7942
1164.903, 104.8265
1165.385, 104.7337
1165.868, 104.1308
1166.350, 103.9867
1166.832, 104.5032
1167.314, 105.1239
1167.796, 105.2322
1168.278, 105.0562
1168.760, 104.9515
1169.242, 104.9401
1169.725, 105.0045
1170.207, 105.2807
1170.689, 105.4237
1171.171, 105.3699
1171.653, 105.1880
1172.135, 104.8734
1172.617, 104.5328
1173.099, 104.4519
1173.582, 104.6561
1174.064, 104.7820
1174.546, 104.5157
1175.028, 104.3851
1175.510, 104.5061
1175.992, 104.8596
1176.474, 105.7152
1176.956, 106.7464
1177.438, 106.8222
1177.921, 105.6026
1178.403, 104.6211
1178.885, 104.7322
1179.367, 104.9750
1179.849, 105.0470
1180.331, 104.9259
1180.813, 104.2776
1181.295, 103.3458
1181.778, 103.1346
1182.260, 104.1311
1182.742, 105.0860
1183.224, 105.5518
1183.706, 105.6704
1184.188, 105.4071
1184.670, 104.8793
1185.152, 104.7587
1185.635, 104.9902
1186.117, 105.3333
1186.599, 105.9339
1187.081, 106.1273
1187.563, 104.9759
1188.045, 103.8199
1188.527, 103.7534
1189.009, 104.6745
1189.491, 105.2948
1189.974, 105.6283
1190.456, 105.7687
1190.938, 105.6098
1191.420, 105.4773
1191.902, 105.6423
1192.384, 105.8294
1192.866, 105.7500
1193.348, 105.3975
1193.830, 105.0337
1194.313, 104.6736
1194.795, 104.4957
1195.277, 104.7541
1195.759, 105.0588
1196.241, 105.1461
1196.723, 105.1896
1197.205, 105.4407
1197.687, 105.9086
1198.169, 106.2844
1198.652, 106.5485
1199.134, 106.5896
1199.616, 106.0617
1200.098, 105.5738
1200.580, 105.6265
1201.062, 105.8979
1201.544, 105.8106
1202.026, 105.3510
1202.509, 105.0705
1202.991, 105.0178
1203.473, 105.0863
1203.955, 105.3139
1204.437, 105.5208
1204.919, 105.5092
1205.401, 105.4153
1205.883, 105.5745
1206.365, 105.9944
1206.848, 106.3395
1207.330, 106.5742
1207.812, 106.5752
1208.294, 106.0161
1208.776, 105.4054
1209.258, 105.0381
1209.740, 104.9184
1210.222, 105.2262
1210.705, 105.9740
1211.187, 106.0801
1211.669, 105.2741
1212.151, 104.5722
1212.633, 105.0285
1213.115, 105.6878
1213.597, 105.7160
1214.079, 105.3549
1214.562, 105.6904
1215.044, 106.6953
1215.526, 107.0516
1216.008, 106.3505
1216.490, 105.5606
1216.972, 105.3890
1217.454, 105.4791
1217.936, 105.5976
1218.418, 105.7338
1218.901, 105.9225
1219.383, 106.1580
1219.865, 106.3136
1220.347, 106.3504
1220.829, 106.3083
1221.311, 106.2470
1221.793, 106.0810
1222.275, 105.6318
1222.757, 104.9976
1223.240, 104.9949
1223.722, 105.5705
1224.204, 106.0092
1224.686, 106.0117
1225.168, 106.0101
1225.650, 106.4518
1226.132, 106.8643
1226.614, 106.8897
1227.096, 106.5628
1227.579, 106.0508
1228.061, 105.4101
1228.543, 105.1550
1229.025, 105.5878
1229.507, 106.1987
1229.989, 107.0331
1230.471, 107.5995
1230.953, 107.4054
1231.436, 106.5745
1231.918, 106.3589
1232.400, 106.6681
1232.882, 106.8957
1233.364, 106.7726
1233.846, 106.5502
1234.328, 106.1758
1234.810, 105.9132
1235.292, 105.9718
1235.775, 106.3204
1236.257, 106.8542
1236.739, 107.4870
1237.221, 107.7603
1237.703, 107.2317
1238.185, 106.7038
1238.667, 106.3638
1239.149, 106.2628
1239.632, 106.5937
1240.114, 107.2247
1240.596, 107.3459
1241.078, 107.0533
1241.560, 106.7568
1242.042, 106.5561
1242.524, 106.5126
1243.006, 106.7328
1243.489, 106.9828
1243.971, 107.0910
1244.453, 107.0753
1244.935, 106.9320
1245.417, 106.7176
1245.899, 106.6467
1246.381, 107.0860
1246.863, 107.2437
1247.345, 106.9108
1247.828, 106.4852
1248.310, 106.2687
1248.792, 106.2351
1249.274, 106.3193
1249.756, 106.5239
1250.238, 106.8587
1250.720, 107.6725
1251.202, 108.0341
1251.684, 107.7438
1252.167, 107.3257
1252.649, 107.2284
1253.131, 107.3224
1253.613, 107.3203
1254.095, 107.2832
1254.577, 107.4339
1255.059, 108.1361
1255.541, 108.4091
1256.023, 108.1208
1256.506, 107.6756
1256.988, 107.2996
1257.470, 107.0709
1257.952, 107.1854
1258.434, 107.5409
1258.916, 107.8612
1259.398, 108.2835
1259.880, 108.0605
1260.363, 107.0099
1260.845, 106.1669
1261.327, 106.7386
1261.809, 107.6797
1262.291, 107.9939
1262.773, 107.7816
1263.255, 107.3536
1263.737, 106.5872
1264.219, 106.4008
1264.702, 106.8958
1265.184, 107.3698
1265.666, 107.2070
1266.148, 106.8815
1266.630, 106.6976
1267.112, 106.6436
1267.594, 106.6796
1268.076, 106.8166
1268.559, 106.8763
1269.041, 106.8477
1269.523, 106.7946
1270.005, 106.6743
1270.487, 106.6355
1270.969, 106.9298
1271.451, 107.2593
1271.933, 107.1075
1272.416, 106.5364
1272.898, 106.4013
1273.380, 106.7242
1273.862, 107.0979
1274.344, 107.3647
1274.826, 107.5435
1275.308, 107.6992
1275.790, 107.7221
1276.272, 107.3351
1276.755, 106.7008
1277.237, 106.4554
1277.719, 106.5969
1278.201, 106.8139
1278.683, 107.1662
1279.165, 107.2761
1279.647, 107.0180
1280.129, 106.6297
1280.611, 106.2609
1281.094, 106.0015
1281.576, 106.1664
1282.058, 106.6556
1282.540, 106.9150
1283.022, 106.6191
1283.504, 106.4208
1283.986, 106.3787
1284.468, 106.4581
1284.950, 106.6874
1285.433, 106.9736
1285.915, 107.3074
1286.397, 107.5930
1286.879, 107.4379
1287.361, 106.6468
1287.843, 106.1331
1288.325, 105.9768
1288.807, 106.1281
1289.290, 106.9285
1289.772, 107.6647
1290.254, 107.4767
1290.736, 106.8075
1291.218, 106.7933
1291.700, 107.5022
1292.182, 107.9975
1292.664, 108.2139
1293.146, 108.1213
1293.629, 107.3883
1294.111, 106.6795
1294.593, 106.4338
1295.075, 106.3997
1295.557, 106.2475
1296.039, 106.0181
1296.521, 106.1572
1297.003, 106.6248
1297.486, 106.8968
1297.968, 106.4577
1298.450, 106.1342
1298.932, 106.2157
1299.414, 106.3681
1299.896, 106.1115
1300.378, 105.6649
1300.860, 105.7717
1301.343, 106.3021
1301.825, 106.5618
##END=



