##NAMES=Thortveitite
##RRUFFID=R060360
##IDEAL CHEMISTRY=Sc^3+^_2_Si_2_O_7_
##LOCALITY=Rossa, near Evje, southern Norway
##OWNER=RRUFF
##SOURCE=Michael Scott
##DESCRIPTION=Gray transparent prismatic crystal
##STATUS=The identification of this mineral is confirmed by single-crystal X-ray diffraction and chemical analysis.
##URL=rruff.info/R060360
##MEASURED CHEMISTRY=(Sc_1.44_Y_0.30_Zr_0.07_Fe^3+^_0.08_Mn_0.06_Yb_0.05_)_Σ=2_(Si_1.99_Al_0.01_)_Σ=2_O_7_
117.0086, 13.09524
117.4907, 13.06198
117.9728, 13.05376
118.4550, 13.07406
118.9371, 13.12708
119.4192, 13.31499
119.9013, 13.51509
120.3834, 13.56760
120.8655, 13.19506
121.3477, 12.78579
121.8298, 12.64775
122.3119, 12.84229
122.7940, 13.09365
123.2761, 13.12134
123.7582, 13.05171
124.2404, 13.16611
124.7225, 13.86465
125.2046, 14.74656
125.6867, 15.24551
126.1688, 15.15286
126.6509, 14.98581
127.1331, 15.28977
127.6152, 16.01477
128.0973, 16.91221
128.5794, 17.75661
129.0615, 18.64554
129.5436, 19.84177
130.0258, 21.50866
130.5079, 23.39334
130.9900, 24.99101
131.4721, 26.28835
131.9542, 27.75091
132.4363, 29.69292
132.9185, 32.11580
133.4006, 35.05687
133.8827, 38.71022
134.3648, 42.83640
134.8469, 46.65254
135.3290, 50.00655
135.8112, 53.73760
136.2933, 58.73761
136.7754, 65.05640
137.2575, 72.14834
137.7396, 80.00315
138.2217, 88.47556
138.7039, 97.33540
139.1860, 106.7212
139.6681, 116.2997
140.1502, 125.6010
140.6323, 134.2566
141.1144, 143.5627
141.5966, 154.4280
142.0787, 167.4706
142.5608, 178.9941
143.0429, 188.6428
143.5250, 196.9578
144.0071, 205.0344
144.4893, 212.7194
144.9714, 220.3016
145.4535, 227.7902
145.9356, 235.1768
146.4177, 242.6160
146.8998, 249.9385
147.3820, 257.3084
147.8641, 265.7176
148.3462, 274.9164
148.8283, 285.2793
149.3104, 297.1717
149.7925, 311.6425
150.2747, 326.2060
150.7568, 340.3918
151.2389, 354.2613
151.7210, 368.6153
152.2031, 384.0633
152.6852, 399.4760
153.1674, 414.3246
153.6495, 429.3388
154.1316, 442.8564
154.6137, 454.1559
155.0958, 463.1968
155.5779, 472.3254
156.0601, 482.4365
156.5422, 492.4945
157.0243, 501.4925
157.5064, 508.8866
157.9885, 515.5508
158.4706, 521.5656
158.9528, 526.8785
159.4349, 532.1131
159.9170, 536.9133
160.3991, 541.8718
160.8812, 547.6736
161.3633, 555.3314
161.8455, 563.2209
162.3276, 570.4158
162.8097, 576.4274
163.2918, 583.2930
163.7739, 592.1299
164.2560, 601.5951
164.7382, 606.8291
165.2203, 611.1085
165.7024, 615.1026
166.1845, 618.1578
166.6666, 619.7976
167.1487, 621.9000
167.6309, 626.2491
168.1130, 631.8600
168.5951, 636.5701
169.0772, 639.0717
169.5593, 640.4781
170.0414, 641.7429
170.5236, 643.1395
171.0057, 644.1877
171.4878, 644.4885
171.9699, 644.1577
172.4520, 643.5398
172.9341, 642.4883
173.4163, 641.3741
173.8984, 640.6674
174.3805, 640.6027
174.8626, 640.7196
175.3447, 641.1989
175.8268, 641.7491
176.3090, 640.9776
176.7911, 636.4822
177.2732, 630.3093
177.7553, 625.9503
178.2374, 625.1407
178.7195, 625.5100
179.2017, 623.8439
179.6838, 620.3219
180.1659, 616.8036
180.6480, 614.3234
181.1301, 612.8951
181.6122, 612.6871
182.0944, 614.8711
182.5765, 617.4758
183.0586, 616.8493
183.5407, 613.0434
184.0228, 608.2590
184.5049, 604.0748
184.9871, 600.4537
185.4692, 597.4644
185.9513, 595.3127
186.4334, 593.7047
186.9155, 591.8590
187.3976, 589.7582
187.8798, 587.7203
188.3619, 586.1695
188.8440, 585.0176
189.3261, 583.8046
189.8082, 582.4346
190.2903, 580.8754
190.7725, 578.9229
191.2546, 576.5002
191.7367, 573.9557
192.2188, 571.5931
192.7009, 569.3904
193.1830, 567.3770
193.6652, 565.6675
194.1473, 564.1774
194.6294, 562.5298
195.1115, 560.7532
195.5936, 558.7298
196.0757, 555.9055
196.5579, 552.2200
197.0400, 549.4254
197.5221, 548.7736
198.0042, 550.0607
198.4863, 549.9164
198.9684, 548.0457
199.4506, 545.4032
199.9327, 543.4645
200.4148, 542.3071
200.8969, 541.0518
201.3790, 539.2653
201.8611, 536.9308
202.3433, 534.5702
202.8254, 531.9731
203.3075, 529.6542
203.7896, 528.8323
204.2717, 529.8465
204.7538, 530.5541
205.2360, 529.7709
205.7181, 527.2424
206.2002, 525.6209
206.6823, 525.1938
207.1644, 525.3199
207.6465, 524.7238
208.1287, 523.1810
208.6108, 521.7421
209.0929, 521.0378
209.5750, 521.3314
210.0571, 520.8454
210.5392, 519.1822
211.0214, 517.1117
211.5035, 516.3380
211.9856, 517.2538
212.4677, 518.4177
212.9498, 519.5035
213.4319, 520.9046
213.9140, 520.3879
214.3962, 517.2254
214.8783, 512.5803
215.3604, 509.2263
215.8425, 507.5034
216.3246, 506.2061
216.8067, 504.7317
217.2889, 502.9083
217.7710, 501.5542
218.2531, 500.8831
218.7352, 500.5699
219.2173, 499.7036
219.6994, 497.7873
220.1816, 496.2464
220.6637, 495.9756
221.1458, 497.9305
221.6279, 498.2721
222.1100, 496.2164
222.5921, 492.8220
223.0743, 490.8398
223.5564, 490.8141
224.0385, 491.2938
224.5206, 491.5094
225.0027, 490.9563
225.4848, 491.6317
225.9670, 494.2231
226.4491, 497.8431
226.9312, 500.3912
227.4133, 502.3231
227.8954, 502.4073
228.3775, 499.5362
228.8597, 491.3282
229.3418, 485.9389
229.8239, 484.1857
230.3060, 485.0688
230.7881, 486.0122
231.2702, 487.2940
231.7524, 488.1956
232.2345, 488.2850
232.7166, 487.0070
233.1987, 486.1992
233.6808, 485.9850
234.1629, 486.2144
234.6451, 486.5570
235.1272, 487.2938
235.6093, 487.7446
236.0914, 487.6097
236.5735, 486.7684
237.0556, 485.5945
237.5378, 483.6794
238.0199, 481.5706
238.5020, 480.7211
238.9841, 481.7752
239.4662, 483.1392
239.9483, 484.1447
240.4305, 484.5865
240.9126, 485.1779
241.3947, 486.2620
241.8768, 487.3804
242.3589, 487.2661
242.8410, 485.0089
243.3232, 482.8943
243.8053, 481.9552
244.2874, 482.7690
244.7695, 483.3425
245.2516, 483.5995
245.7337, 483.6488
246.2159, 483.6959
246.6980, 483.5886
247.1801, 483.7281
247.6622, 484.2967
248.1443, 485.4267
248.6264, 486.6776
249.1086, 488.2570
249.5907, 489.8735
250.0728, 490.9142
250.5549, 491.2425
251.0370, 491.2199
251.5191, 490.8692
252.0013, 489.9458
252.4834, 489.5313
252.9655, 489.8423
253.4476, 490.5212
253.9297, 490.8797
254.4118, 490.6763
254.8940, 490.5859
255.3761, 490.9538
255.8582, 492.0419
256.3403, 492.4573
256.8224, 491.7969
257.3046, 490.7789
257.7867, 490.6610
258.2688, 491.8089
258.7509, 493.1129
259.2330, 494.3252
259.7151, 495.5558
260.1973, 496.0507
260.6794, 495.4005
261.1615, 494.4195
261.6436, 494.3932
262.1257, 495.7476
262.6078, 497.0067
263.0900, 497.5879
263.5721, 497.3633
264.0542, 497.8101
264.5363, 499.2325
265.0184, 500.9527
265.5005, 502.1048
265.9827, 502.4751
266.4648, 502.8463
266.9469, 503.4179
267.4290, 504.1856
267.9111, 505.0359
268.3932, 506.0370
268.8754, 506.9982
269.3575, 507.6850
269.8396, 508.0502
270.3217, 508.3250
270.8038, 508.4596
271.2859, 508.4879
271.7681, 509.0356
272.2502, 510.1889
272.7323, 511.6879
273.2144, 513.4061
273.6965, 515.4977
274.1786, 516.9950
274.6608, 517.4979
275.1429, 517.1896
275.6250, 517.3796
276.1071, 518.0823
276.5892, 519.2404
277.0714, 520.9542
277.5535, 523.3244
278.0356, 525.4129
278.5177, 527.0242
278.9998, 528.2344
279.4819, 529.2294
279.9641, 529.9301
280.4462, 530.8104
280.9283, 532.5243
281.4104, 535.1092
281.8925, 536.9482
282.3746, 537.5872
282.8568, 537.4831
283.3389, 537.6721
283.8210, 538.0746
284.3031, 539.3554
284.7852, 542.6978
285.2673, 547.8873
285.7495, 551.5141
286.2316, 552.7940
286.7137, 552.8152
287.1958, 553.7794
287.6779, 555.7007
288.1600, 557.9018
288.6422, 560.1449
289.1243, 562.3892
289.6064, 564.1348
290.0885, 565.2423
290.5706, 566.1539
291.0527, 567.6933
291.5349, 569.8168
292.0170, 571.8209
292.4991, 573.2250
292.9812, 574.1901
293.4633, 575.0475
293.9454, 575.6960
294.4276, 576.7844
294.9097, 579.5558
295.3918, 583.7103
295.8739, 587.6189
296.3560, 590.2857
296.8381, 592.1489
297.3203, 594.2369
297.8024, 596.6038
298.2845, 598.7751
298.7666, 599.9479
299.2487, 600.4380
299.7308, 601.2605
300.2130, 603.0765
300.6951, 605.3885
301.1772, 607.3312
301.6593, 608.9017
302.1414, 610.6059
302.6235, 613.1103
303.1057, 616.0587
303.5878, 618.6476
304.0699, 620.3502
304.5520, 621.8192
305.0341, 623.9012
305.5162, 626.5212
305.9984, 629.1223
306.4805, 631.1685
306.9626, 632.9605
307.4447, 634.8820
307.9268, 637.1276
308.4089, 639.4332
308.8911, 641.5360
309.3732, 643.4825
309.8553, 645.4835
310.3374, 647.6769
310.8195, 649.9761
311.3016, 652.2484
311.7838, 654.3918
312.2659, 656.6605
312.7480, 659.3508
313.2301, 662.2869
313.7122, 665.0800
314.1943, 666.8411
314.6765, 668.8889
315.1586, 672.4443
315.6407, 678.1822
316.1228, 683.6215
316.6049, 687.5394
317.0870, 690.3666
317.5692, 692.7595
318.0513, 695.1358
318.5334, 697.0066
319.0155, 697.5781
319.4976, 696.4215
319.9797, 696.6879
320.4619, 700.4683
320.9440, 705.8436
321.4261, 710.6142
321.9082, 713.7744
322.3903, 716.7464
322.8724, 720.0839
323.3546, 723.8187
323.8367, 727.0687
324.3188, 729.1871
324.8009, 731.0471
325.2830, 733.2943
325.7651, 735.9694
326.2473, 739.1282
326.7294, 743.2467
327.2115, 748.1316
327.6936, 752.2126
328.1757, 754.8447
328.6578, 757.0299
329.1400, 759.2538
329.6221, 760.9505
330.1042, 763.4174
330.5863, 767.0388
331.0684, 771.4518
331.5505, 775.5305
332.0327, 779.1722
332.5148, 782.6084
332.9969, 785.8326
333.4790, 788.3941
333.9611, 791.7989
334.4432, 796.3500
334.9254, 801.5787
335.4075, 806.6937
335.8896, 811.8917
336.3717, 816.6630
336.8538, 820.7068
337.3359, 823.9814
337.8180, 827.4018
338.3001, 830.9393
338.7823, 834.6741
339.2644, 838.6769
339.7465, 843.0353
340.2286, 847.3729
340.7107, 851.4233
341.1928, 855.3614
341.6750, 860.0613
342.1571, 865.7188
342.6392, 871.6133
343.1213, 877.5048
343.6034, 883.3509
344.0855, 888.1097
344.5677, 891.2126
345.0498, 893.4667
345.5319, 896.5564
346.0140, 900.4764
346.4961, 905.3387
346.9782, 912.0646
347.4604, 920.1047
347.9425, 926.1324
348.4246, 929.4997
348.9067, 932.0659
349.3888, 936.5643
349.8709, 942.7369
350.3531, 949.1056
350.8352, 954.9406
351.3173, 960.4518
351.7994, 966.1868
352.2815, 972.1653
352.7636, 978.0568
353.2458, 983.2507
353.7279, 988.1166
354.2100, 993.4649
354.6921, 999.9960
355.1742, 1006.846
355.6563, 1012.910
356.1385, 1018.276
356.6206, 1024.185
357.1027, 1031.698
357.5848, 1040.127
358.0669, 1048.816
358.5490, 1057.775
359.0312, 1066.607
359.5133, 1075.603
359.9954, 1084.402
360.4775, 1092.033
360.9596, 1097.030
361.4417, 1101.328
361.9239, 1106.117
362.4060, 1111.352
362.8881, 1117.740
363.3702, 1126.914
363.8523, 1137.146
364.3344, 1145.796
364.8166, 1150.662
365.2987, 1155.173
365.7808, 1160.402
366.2629, 1166.497
366.7450, 1173.078
367.2271, 1180.641
367.7093, 1188.414
368.1914, 1195.722
368.6735, 1201.902
369.1556, 1208.363
369.6377, 1215.262
370.1198, 1222.601
370.6020, 1229.944
371.0841, 1237.481
371.5662, 1244.877
372.0483, 1251.752
372.5304, 1257.074
373.0125, 1264.064
373.4947, 1273.889
373.9768, 1284.949
374.4589, 1293.418
374.9410, 1298.196
375.4231, 1302.646
375.9052, 1307.911
376.3874, 1314.004
376.8695, 1321.318
377.3516, 1330.640
377.8337, 1339.994
378.3158, 1346.629
378.7979, 1350.079
379.2801, 1354.562
379.7622, 1361.534
380.2443, 1370.413
380.7264, 1379.204
381.2085, 1387.945
381.6906, 1395.956
382.1728, 1402.126
382.6549, 1406.838
383.1370, 1412.217
383.6191, 1418.793
384.1012, 1425.969
384.5833, 1433.008
385.0655, 1439.917
385.5476, 1446.700
386.0297, 1453.841
386.5118, 1460.845
386.9939, 1466.765
387.4760, 1471.365
387.9582, 1475.758
388.4403, 1481.282
388.9224, 1487.430
389.4045, 1493.100
389.8866, 1497.058
390.3687, 1500.951
390.8509, 1506.425
391.3330, 1513.311
391.8151, 1520.004
392.2972, 1525.505
392.7793, 1530.296
393.2614, 1534.817
393.7436, 1538.807
394.2257, 1542.988
394.7078, 1547.533
395.1899, 1552.461
395.6720, 1557.821
396.1541, 1564.170
396.6363, 1570.546
397.1184, 1576.551
397.6005, 1582.183
398.0826, 1587.359
398.5647, 1591.246
399.0468, 1594.962
399.5290, 1599.865
400.0111, 1607.531
400.4932, 1614.787
400.9753, 1620.651
401.4574, 1625.157
401.9395, 1631.076
402.4217, 1639.231
402.9038, 1647.951
403.3859, 1656.143
403.8680, 1663.617
404.3501, 1670.908
404.8322, 1677.564
405.3144, 1684.242
405.7965, 1692.836
406.2786, 1704.085
406.7607, 1714.923
407.2428, 1723.640
407.7249, 1730.177
408.2071, 1737.660
408.6892, 1746.229
409.1713, 1755.421
409.6534, 1765.028
410.1355, 1774.962
410.6176, 1784.158
411.0998, 1792.055
411.5819, 1799.259
412.0640, 1807.102
412.5461, 1815.519
413.0282, 1824.592
413.5103, 1835.047
413.9925, 1845.999
414.4746, 1855.488
414.9567, 1862.802
415.4388, 1869.815
415.9209, 1878.600
416.4030, 1888.665
416.8852, 1899.050
417.3673, 1910.379
417.8494, 1920.942
418.3315, 1928.683
418.8136, 1933.371
419.2957, 1938.801
419.7779, 1947.501
420.2600, 1957.780
420.7421, 1967.802
421.2242, 1976.788
421.7063, 1985.831
422.1884, 1995.962
422.6706, 2006.663
423.1527, 2016.341
423.6348, 2024.191
424.1169, 2031.196
424.5990, 2037.660
425.0811, 2042.737
425.5633, 2049.247
426.0454, 2058.216
426.5275, 2068.248
427.0096, 2077.728
427.4917, 2086.347
427.9738, 2094.781
428.4560, 2103.024
428.9381, 2111.160
429.4202, 2119.632
429.9023, 2128.340
430.3844, 2137.330
430.8665, 2147.003
431.3487, 2157.829
431.8308, 2166.004
432.3129, 2170.319
432.7950, 2172.929
433.2771, 2178.388
433.7592, 2186.734
434.2414, 2195.312
434.7235, 2203.175
435.2056, 2210.277
435.6877, 2216.300
436.1698, 2221.160
436.6519, 2225.575
437.1341, 2230.718
437.6162, 2235.925
438.0983, 2239.414
438.5804, 2239.874
439.0625, 2239.627
439.5446, 2242.476
440.0268, 2247.267
440.5089, 2249.741
440.9910, 2244.256
441.4731, 2237.248
441.9552, 2235.385
442.4373, 2240.646
442.9195, 2244.371
443.4016, 2241.016
443.8837, 2234.030
444.3658, 2227.601
444.8479, 2224.167
445.3300, 2220.276
445.8122, 2214.146
446.2943, 2206.164
446.7764, 2199.450
447.2585, 2196.247
447.7406, 2193.036
448.2227, 2188.006
448.7049, 2180.434
449.1870, 2172.501
449.6691, 2164.418
450.1512, 2155.897
450.6333, 2146.639
451.1154, 2136.454
451.5976, 2125.728
452.0797, 2114.393
452.5618, 2102.496
453.0439, 2091.833
453.5260, 2083.208
454.0081, 2073.950
454.4903, 2061.242
454.9724, 2045.257
455.4545, 2030.737
455.9366, 2018.640
456.4187, 2007.711
456.9008, 1996.220
457.3830, 1984.090
457.8651, 1972.050
458.3472, 1960.106
458.8293, 1948.404
459.3114, 1937.055
459.7935, 1926.154
460.2757, 1915.146
460.7578, 1903.799
461.2399, 1892.133
461.7220, 1880.156
462.2041, 1867.432
462.6862, 1854.876
463.1684, 1843.034
463.6505, 1831.721
464.1326, 1820.800
464.6147, 1810.052
465.0968, 1799.721
465.5789, 1790.292
466.0611, 1781.894
466.5432, 1773.320
467.0253, 1763.710
467.5074, 1754.207
467.9895, 1745.807
468.4716, 1738.879
468.9538, 1732.515
469.4359, 1727.202
469.9180, 1722.470
470.4001, 1716.512
470.8822, 1708.094
471.3643, 1700.805
471.8465, 1696.577
472.3286, 1695.852
472.8107, 1693.496
473.2928, 1689.048
473.7749, 1684.262
474.2570, 1680.994
474.7392, 1679.250
475.2213, 1678.716
475.7034, 1679.608
476.1855, 1681.333
476.6676, 1682.243
477.1497, 1682.538
477.6319, 1684.043
478.1140, 1688.832
478.5961, 1695.221
479.0782, 1700.145
479.5603, 1703.270
480.0424, 1706.603
480.5246, 1711.770
481.0067, 1718.166
481.4888, 1724.921
481.9709, 1731.498
482.4530, 1738.713
482.9352, 1747.136
483.4173, 1756.561
483.8994, 1766.339
484.3815, 1776.312
484.8636, 1786.570
485.3457, 1797.306
485.8279, 1808.893
486.3100, 1819.781
486.7921, 1829.618
487.2742, 1838.806
487.7563, 1847.696
488.2384, 1855.586
488.7206, 1864.518
489.2027, 1875.034
489.6848, 1886.708
490.1669, 1897.984
490.6490, 1908.804
491.1311, 1919.168
491.6133, 1928.880
492.0954, 1938.001
492.5775, 1947.114
493.0596, 1956.274
493.5417, 1965.050
494.0238, 1972.355
494.5060, 1978.676
494.9881, 1986.552
495.4702, 1997.734
495.9523, 2008.853
496.4344, 2014.045
496.9165, 2014.582
497.3987, 2015.237
497.8808, 2019.535
498.3629, 2024.706
498.8450, 2028.206
499.3271, 2029.836
499.8092, 2030.367
500.2914, 2030.214
500.7735, 2029.147
501.2556, 2026.936
501.7377, 2022.999
502.2198, 2018.535
502.7019, 2014.197
503.1841, 2009.515
503.6662, 2003.208
504.1483, 1994.138
504.6304, 1984.398
505.1125, 1974.480
505.5946, 1964.348
506.0768, 1954.725
506.5589, 1946.354
507.0410, 1937.533
507.5231, 1926.270
508.0052, 1911.932
508.4873, 1899.903
508.9695, 1891.542
509.4516, 1884.917
509.9337, 1876.477
510.4158, 1866.309
510.8979, 1856.122
511.3800, 1846.500
511.8622, 1837.318
512.3443, 1828.309
512.8264, 1819.519
513.3085, 1810.566
513.7906, 1800.376
514.2728, 1790.163
514.7549, 1781.622
515.2370, 1775.369
515.7191, 1769.917
516.2012, 1764.788
516.6833, 1759.789
517.1655, 1754.533
517.6476, 1748.226
518.1297, 1742.344
518.6118, 1737.516
519.0939, 1733.688
519.5760, 1730.015
520.0582, 1725.664
520.5403, 1722.137
521.0224, 1720.122
521.5045, 1719.800
521.9866, 1720.542
522.4688, 1723.061
522.9509, 1725.828
523.4330, 1726.575
523.9151, 1724.688
524.3972, 1724.145
524.8793, 1725.964
525.3615, 1729.493
525.8436, 1733.005
526.3257, 1736.529
526.8078, 1740.875
527.2899, 1747.711
527.7720, 1755.580
528.2542, 1760.583
528.7363, 1762.466
529.2184, 1764.254
529.7005, 1767.961
530.1826, 1773.277
530.6647, 1779.974
531.1469, 1788.865
531.6290, 1797.563
532.1111, 1803.787
532.5932, 1808.858
533.0753, 1815.437
533.5574, 1826.412
534.0396, 1837.027
534.5217, 1845.381
535.0038, 1851.164
535.4859, 1857.730
535.9680, 1865.458
536.4501, 1873.588
536.9323, 1881.777
537.4144, 1890.457
537.8965, 1897.896
538.3786, 1903.155
538.8607, 1908.391
539.3428, 1917.638
539.8250, 1931.425
540.3071, 1943.161
540.7892, 1950.336
541.2713, 1954.706
541.7534, 1959.904
542.2355, 1965.913
542.7177, 1972.416
543.1998, 1979.172
543.6819, 1986.412
544.1640, 1994.594
544.6461, 2003.786
545.1282, 2013.195
545.6104, 2022.389
546.0925, 2031.331
546.5746, 2039.942
547.0567, 2047.567
547.5388, 2055.696
548.0209, 2064.769
548.5031, 2074.603
548.9852, 2085.002
549.4673, 2097.697
549.9494, 2109.028
550.4315, 2117.138
550.9136, 2122.054
551.3958, 2130.120
551.8779, 2142.340
552.3600, 2156.068
552.8421, 2170.211
553.3242, 2184.959
553.8063, 2198.061
554.2885, 2209.034
554.7706, 2219.437
555.2527, 2231.456
555.7348, 2244.856
556.2169, 2258.246
556.6990, 2271.231
557.1812, 2283.750
557.6633, 2294.972
558.1454, 2305.391
558.6275, 2316.915
559.1096, 2332.123
559.5917, 2347.776
560.0739, 2360.167
560.5560, 2369.042
561.0381, 2379.847
561.5202, 2398.379
562.0023, 2417.389
562.4844, 2431.342
562.9666, 2435.538
563.4487, 2440.560
563.9308, 2447.685
564.4129, 2455.650
564.8950, 2462.584
565.3771, 2468.344
565.8593, 2473.253
566.3414, 2477.690
566.8235, 2481.243
567.3056, 2482.452
567.7877, 2481.348
568.2698, 2477.437
568.7520, 2469.333
569.2341, 2458.067
569.7162, 2447.894
570.1983, 2439.223
570.6804, 2428.643
571.1625, 2412.235
571.6447, 2392.130
572.1268, 2371.943
572.6089, 2352.944
573.0910, 2332.831
573.5731, 2309.327
574.0552, 2283.742
574.5374, 2257.829
575.0195, 2233.247
575.5016, 2207.638
575.9837, 2180.228
576.4658, 2151.176
576.9479, 2120.862
577.4301, 2088.085
577.9122, 2055.961
578.3943, 2025.749
578.8764, 1998.090
579.3585, 1969.275
579.8406, 1938.631
580.3228, 1908.294
580.8049, 1880.834
581.2870, 1856.182
581.7691, 1831.221
582.2512, 1805.478
582.7333, 1779.459
583.2155, 1753.140
583.6975, 1727.252
584.1796, 1702.841
584.6617, 1680.763
585.1439, 1660.427
585.6260, 1641.763
586.1081, 1624.541
586.5902, 1607.642
587.0723, 1590.448
587.5544, 1573.590
588.0366, 1556.874
588.5187, 1540.088
589.0008, 1524.883
589.4829, 1512.481
589.9650, 1501.068
590.4471, 1489.281
590.9293, 1476.584
591.4114, 1464.635
591.8935, 1453.149
592.3756, 1442.782
592.8577, 1435.079
593.3398, 1430.246
593.8220, 1425.707
594.3041, 1420.625
594.7862, 1415.315
595.2683, 1410.146
595.7504, 1405.270
596.2325, 1401.485
596.7147, 1400.398
597.1968, 1400.111
597.6789, 1397.799
598.1610, 1393.220
598.6431, 1390.066
599.1252, 1391.720
599.6074, 1394.951
600.0895, 1396.991
600.5716, 1395.757
601.0537, 1396.123
601.5358, 1400.158
602.0179, 1405.655
602.5001, 1409.574
602.9822, 1410.067
603.4643, 1412.691
603.9464, 1418.907
604.4285, 1427.660
604.9106, 1435.609
605.3928, 1442.511
605.8749, 1450.058
606.3570, 1459.349
606.8391, 1469.888
607.3212, 1480.407
607.8033, 1490.841
608.2855, 1500.911
608.7676, 1509.392
609.2497, 1517.705
609.7318, 1527.597
610.2139, 1539.610
610.6960, 1552.300
611.1782, 1565.145
611.6603, 1578.102
612.1424, 1591.289
612.6245, 1604.889
613.1066, 1618.335
613.5887, 1631.895
614.0709, 1645.238
614.5530, 1658.019
615.0351, 1669.826
615.5172, 1681.505
615.9993, 1693.504
616.4814, 1705.619
616.9636, 1717.058
617.4457, 1727.796
617.9278, 1737.855
618.4099, 1747.212
618.8920, 1755.789
619.3741, 1763.524
619.8563, 1770.481
620.3384, 1776.820
620.8205, 1782.900
621.3026, 1788.356
621.7847, 1792.799
622.2668, 1796.346
622.7490, 1798.440
623.2311, 1798.456
623.7132, 1797.045
624.1953, 1795.040
624.6774, 1793.918
625.1595, 1790.476
625.6417, 1783.823
626.1238, 1774.690
626.6059, 1765.405
627.0880, 1756.374
627.5701, 1745.842
628.0522, 1732.911
628.5344, 1717.994
629.0165, 1702.994
629.4986, 1687.912
629.9807, 1672.733
630.4628, 1657.836
630.9449, 1642.754
631.4271, 1626.039
631.9092, 1607.525
632.3913, 1588.819
632.8734, 1571.290
633.3555, 1554.084
633.8376, 1535.890
634.3198, 1515.750
634.8019, 1496.347
635.2840, 1479.094
635.7661, 1462.794
636.2482, 1445.375
636.7303, 1425.166
637.2125, 1406.656
637.6946, 1391.080
638.1767, 1377.311
638.6588, 1361.673
639.1409, 1343.616
639.6230, 1326.751
640.1052, 1312.679
640.5873, 1300.621
641.0694, 1288.773
641.5515, 1277.033
642.0336, 1265.199
642.5157, 1251.715
642.9979, 1238.783
643.4800, 1229.630
643.9621, 1224.572
644.4442, 1220.187
644.9263, 1214.828
645.4084, 1209.308
645.8906, 1204.314
646.3727, 1200.159
646.8548, 1196.089
647.3369, 1191.654
647.8190, 1187.486
648.3011, 1184.509
648.7833, 1183.042
649.2654, 1181.430
649.7475, 1179.145
650.2296, 1176.857
650.7117, 1176.026
651.1938, 1176.554
651.6760, 1177.423
652.1581, 1178.194
652.6402, 1179.099
653.1223, 1180.365
653.6044, 1182.038
654.0865, 1184.363
654.5687, 1187.803
655.0508, 1191.677
655.5329, 1195.360
656.0150, 1198.769
656.4971, 1203.309
656.9792, 1210.298
657.4614, 1217.698
657.9435, 1224.420
658.4256, 1230.319
658.9077, 1235.812
659.3898, 1240.326
659.8719, 1245.417
660.3541, 1253.062
660.8362, 1263.137
661.3183, 1273.185
661.8004, 1282.910
662.2825, 1291.787
662.7646, 1298.170
663.2468, 1303.121
663.7289, 1309.287
664.2110, 1318.335
664.6931, 1328.028
665.1752, 1337.061
665.6573, 1345.528
666.1395, 1353.834
666.6216, 1362.637
667.1037, 1370.766
667.5858, 1377.640
668.0679, 1383.459
668.5500, 1389.057
669.0322, 1394.091
669.5143, 1399.700
669.9964, 1406.951
670.4785, 1415.619
670.9606, 1422.158
671.4427, 1426.507
671.9249, 1429.324
672.4070, 1430.106
672.8891, 1429.981
673.3712, 1432.021
673.8533, 1436.824
674.3354, 1440.367
674.8176, 1439.303
675.2997, 1435.705
675.7818, 1431.652
676.2639, 1427.142
676.7460, 1423.024
677.2281, 1420.266
677.7103, 1417.749
678.1924, 1414.144
678.6745, 1409.245
679.1566, 1403.767
679.6387, 1397.561
680.1208, 1391.048
680.6030, 1385.181
681.0851, 1380.042
681.5672, 1374.261
682.0493, 1367.335
682.5314, 1359.544
683.0135, 1351.440
683.4957, 1342.945
683.9778, 1334.113
684.4599, 1324.530
684.9420, 1314.873
685.4241, 1305.256
685.9063, 1295.799
686.3884, 1286.715
686.8705, 1277.812
687.3526, 1269.717
687.8347, 1263.021
688.3168, 1258.191
688.7990, 1251.394
689.2811, 1241.719
689.7632, 1231.922
690.2453, 1224.523
690.7274, 1219.223
691.2095, 1212.713
691.6917, 1204.661
692.1738, 1196.421
692.6559, 1189.238
693.1380, 1183.059
693.6201, 1178.091
694.1022, 1174.927
694.5844, 1171.413
695.0665, 1165.730
695.5486, 1159.201
696.0307, 1153.505
696.5128, 1149.752
696.9949, 1145.971
697.4771, 1141.901
697.9592, 1137.717
698.4413, 1133.931
698.9234, 1130.731
699.4055, 1127.176
699.8876, 1122.885
700.3698, 1118.204
700.8519, 1113.946
701.3340, 1110.110
701.8161, 1106.805
702.2982, 1104.555
702.7803, 1102.568
703.2625, 1099.865
703.7446, 1096.591
704.2267, 1093.544
704.7088, 1090.969
705.1909, 1088.773
705.6730, 1086.884
706.1552, 1085.285
706.6373, 1084.372
707.1194, 1084.687
707.6015, 1084.902
708.0836, 1084.114
708.5657, 1082.230
709.0479, 1081.102
709.5300, 1080.803
710.0121, 1080.668
710.4942, 1079.959
710.9763, 1078.953
711.4584, 1078.433
711.9406, 1078.581
712.4227, 1078.500
712.9048, 1077.514
713.3869, 1075.967
713.8690, 1074.091
714.3511, 1071.041
714.8333, 1069.367
715.3154, 1071.129
715.7975, 1073.728
716.2796, 1074.346
716.7617, 1072.292
717.2438, 1070.374
717.7260, 1068.953
718.2081, 1067.840
718.6902, 1066.360
719.1723, 1064.698
719.6544, 1064.509
720.1365, 1067.083
720.6187, 1070.123
721.1008, 1070.533
721.5829, 1069.287
722.0650, 1068.689
722.5471, 1070.023
723.0292, 1071.886
723.5114, 1074.371
723.9935, 1077.002
724.4756, 1077.684
724.9577, 1073.955
725.4398, 1072.148
725.9219, 1074.974
726.4041, 1081.316
726.8862, 1084.525
727.3683, 1084.433
727.8504, 1083.564
728.3325, 1082.829
728.8146, 1082.493
729.2968, 1083.302
729.7789, 1085.176
730.2610, 1087.306
730.7431, 1089.818
731.2252, 1091.926
731.7073, 1092.724
732.1895, 1091.994
732.6716, 1091.947
733.1537, 1093.200
733.6358, 1095.018
734.1179, 1097.114
734.6000, 1099.501
735.0822, 1102.026
735.5643, 1104.733
736.0464, 1107.420
736.5285, 1110.453
737.0106, 1113.380
737.4927, 1113.897
737.9749, 1111.516
738.4570, 1109.464
738.9391, 1111.049
739.4212, 1114.344
739.9033, 1117.251
740.3854, 1119.417
740.8676, 1121.019
741.3497, 1121.465
741.8318, 1121.753
742.3139, 1122.902
742.7960, 1125.111
743.2781, 1127.750
743.7603, 1131.033
744.2424, 1134.269
744.7245, 1136.186
745.2066, 1136.942
745.6887, 1138.116
746.1708, 1140.063
746.6530, 1142.519
747.1351, 1145.316
747.6172, 1148.363
748.0993, 1151.510
748.5814, 1155.726
749.0635, 1158.834
749.5457, 1158.929
750.0278, 1157.621
750.5099, 1158.391
750.9920, 1162.629
751.4741, 1166.489
751.9562, 1169.276
752.4384, 1171.287
752.9205, 1173.101
753.4026, 1174.738
753.8847, 1176.259
754.3668, 1177.617
754.8489, 1178.943
755.3311, 1180.250
755.8132, 1181.668
756.2953, 1183.534
756.7774, 1185.660
757.2595, 1188.620
757.7416, 1193.598
758.2238, 1199.932
758.7059, 1204.407
759.1880, 1205.952
759.6701, 1207.069
760.1522, 1208.359
760.6343, 1209.823
761.1165, 1211.232
761.5986, 1212.523
762.0807, 1215.064
762.5628, 1221.411
763.0449, 1228.697
763.5270, 1231.051
764.0092, 1229.340
764.4913, 1228.325
764.9734, 1230.939
765.4555, 1234.799
765.9376, 1239.137
766.4197, 1243.912
766.9019, 1246.637
767.3840, 1245.353
767.8661, 1244.763
768.3482, 1247.414
768.8303, 1253.126
769.3124, 1256.294
769.7946, 1256.689
770.2767, 1257.081
770.7588, 1259.519
771.2409, 1263.232
771.7230, 1267.156
772.2051, 1271.189
772.6873, 1274.660
773.1694, 1276.478
773.6515, 1278.106
774.1336, 1280.625
774.6157, 1284.308
775.0978, 1287.751
775.5800, 1290.964
776.0621, 1293.823
776.5442, 1296.118
777.0263, 1297.811
777.5084, 1299.791
777.9905, 1302.043
778.4727, 1304.738
778.9548, 1308.970
779.4369, 1313.428
779.9190, 1315.204
780.4011, 1313.862
780.8832, 1313.340
781.3654, 1316.470
781.8475, 1320.900
782.3296, 1325.245
782.8117, 1329.910
783.2938, 1332.197
783.7759, 1330.629
784.2581, 1328.780
784.7402, 1329.488
785.2223, 1332.752
785.7044, 1336.230
786.1865, 1339.876
786.6686, 1343.044
787.1508, 1344.977
787.6329, 1346.040
788.1150, 1346.583
788.5971, 1346.487
789.0792, 1346.971
789.5613, 1348.555
790.0435, 1350.970
790.5256, 1354.260
791.0077, 1359.303
791.4898, 1362.422
791.9719, 1362.535
792.4540, 1362.473
792.9362, 1365.159
793.4183, 1370.345
793.9004, 1374.816
794.3825, 1378.382
794.8646, 1381.123
795.3467, 1383.157
795.8289, 1384.471
796.3110, 1384.791
796.7931, 1383.747
797.2752, 1383.279
797.7573, 1384.177
798.2394, 1385.923
798.7216, 1388.095
799.2037, 1390.903
799.6858, 1393.623
800.1679, 1396.278
800.6500, 1398.779
801.1321, 1401.254
801.6143, 1403.568
802.0964, 1404.835
802.5785, 1404.791
803.0606, 1405.118
803.5427, 1407.996
804.0248, 1411.666
804.5070, 1414.025
804.9891, 1413.965
805.4712, 1414.812
805.9533, 1418.472
806.4354, 1422.431
806.9175, 1424.692
807.3997, 1424.588
807.8818, 1425.887
808.3639, 1428.907
808.8460, 1432.486
809.3281, 1436.209
809.8102, 1439.476
810.2924, 1439.938
810.7745, 1436.870
811.2566, 1434.972
811.7387, 1438.946
812.2208, 1444.754
812.7029, 1448.654
813.1851, 1448.962
813.6672, 1450.399
814.1493, 1453.549
814.6314, 1457.398
815.1135, 1461.281
815.5956, 1465.241
816.0778, 1468.441
816.5599, 1470.730
817.0420, 1473.293
817.5241, 1478.101
818.0062, 1483.602
818.4883, 1487.015
818.9705, 1487.651
819.4526, 1489.145
819.9347, 1494.628
820.4168, 1500.591
820.8989, 1504.125
821.3810, 1504.157
821.8632, 1506.080
822.3453, 1510.503
822.8274, 1515.523
823.3095, 1519.553
823.7916, 1522.800
824.2737, 1526.042
824.7559, 1529.330
825.2380, 1532.633
825.7201, 1535.699
826.2022, 1538.886
826.6843, 1542.701
827.1664, 1547.325
827.6486, 1551.392
828.1307, 1553.332
828.6128, 1555.881
829.0949, 1560.634
829.5770, 1567.731
830.0591, 1574.285
830.5413, 1580.226
831.0234, 1585.836
831.5055, 1591.443
831.9876, 1596.264
832.4697, 1601.340
832.9518, 1605.054
833.4340, 1608.714
833.9161, 1612.106
834.3982, 1616.066
834.8803, 1621.616
835.3624, 1628.956
835.8445, 1634.462
836.3267, 1637.014
836.8088, 1639.926
837.2909, 1645.083
837.7730, 1651.993
838.2551, 1657.527
838.7372, 1661.788
839.2194, 1666.169
839.7015, 1672.058
840.1836, 1678.182
840.6657, 1683.126
841.1478, 1687.103
841.6299, 1691.280
842.1121, 1695.600
842.5942, 1700.725
843.0763, 1707.262
843.5584, 1714.820
844.0405, 1721.036
844.5226, 1725.662
845.0048, 1730.574
845.4869, 1736.885
845.9690, 1743.723
846.4511, 1749.198
846.9332, 1753.643
847.4153, 1758.119
847.8975, 1763.185
848.3796, 1768.342
848.8617, 1773.084
849.3438, 1777.741
849.8259, 1783.445
850.3080, 1791.409
850.7902, 1797.746
851.2723, 1800.872
851.7544, 1802.704
852.2365, 1808.129
852.7186, 1816.443
853.2007, 1823.338
853.6829, 1826.536
854.1650, 1828.872
854.6471, 1832.542
855.1292, 1837.162
855.6113, 1842.105
856.0934, 1847.387
856.5756, 1852.686
857.0577, 1858.296
857.5398, 1863.602
858.0219, 1867.569
858.5040, 1870.081
858.9861, 1873.378
859.4683, 1877.877
859.9504, 1883.113
860.4325, 1888.510
860.9146, 1894.202
861.3967, 1900.554
861.8788, 1908.288
862.3610, 1914.887
862.8431, 1918.186
863.3252, 1920.616
863.8073, 1924.565
864.2894, 1931.072
864.7715, 1935.863
865.2537, 1938.540
865.7358, 1940.638
866.2179, 1943.524
866.7000, 1947.107
867.1821, 1951.304
867.6642, 1956.187
868.1464, 1960.941
868.6285, 1964.310
869.1106, 1967.958
869.5927, 1973.467
870.0748, 1981.593
870.5569, 1988.669
871.0391, 1994.303
871.5212, 1999.518
872.0033, 2004.915
872.4854, 2010.381
872.9675, 2014.516
873.4496, 2017.477
873.9318, 2021.378
874.4139, 2028.585
874.8960, 2036.617
875.3781, 2043.543
875.8602, 2049.332
876.3423, 2054.192
876.8245, 2056.266
877.3066, 2059.692
877.7887, 2066.090
878.2708, 2074.634
878.7529, 2081.870
879.2350, 2087.796
879.7172, 2093.446
880.1993, 2098.764
880.6814, 2104.483
881.1635, 2112.958
881.6456, 2122.517
882.1277, 2129.238
882.6099, 2127.224
883.0920, 2127.496
883.5741, 2134.578
884.0562, 2144.986
884.5383, 2153.705
885.0204, 2160.615
885.5026, 2166.286
885.9847, 2170.358
886.4668, 2174.550
886.9489, 2181.869
887.4310, 2190.972
887.9131, 2198.755
888.3953, 2203.493
888.8774, 2209.500
889.3595, 2220.490
889.8416, 2232.484
890.3237, 2241.610
890.8058, 2246.498
891.2880, 2252.144
891.7701, 2258.689
892.2522, 2265.409
892.7343, 2271.499
893.2164, 2277.314
893.6985, 2283.896
894.1807, 2291.268
894.6628, 2298.937
895.1449, 2306.598
895.6270, 2314.308
896.1091, 2322.565
896.5912, 2331.413
897.0734, 2338.222
897.5555, 2341.911
898.0376, 2345.998
898.5197, 2352.456
899.0018, 2360.471
899.4839, 2366.933
899.9661, 2372.051
900.4482, 2377.004
900.9303, 2383.199
901.4124, 2388.827
901.8945, 2392.192
902.3766, 2394.020
902.8588, 2396.883
903.3409, 2401.537
903.8230, 2406.256
904.3051, 2410.890
904.7872, 2415.325
905.2693, 2419.609
905.7515, 2423.622
906.2336, 2426.768
906.7157, 2428.858
907.1978, 2430.044
907.6799, 2429.043
908.1620, 2427.820
908.6442, 2428.901
909.1263, 2435.401
909.6084, 2439.540
910.0905, 2440.496
910.5726, 2439.942
911.0547, 2438.565
911.5369, 2436.661
912.0190, 2438.195
912.5011, 2443.542
912.9832, 2448.542
913.4653, 2449.760
913.9474, 2449.021
914.4296, 2447.556
914.9117, 2445.448
915.3938, 2444.308
915.8759, 2445.517
916.3580, 2445.987
916.8401, 2443.892
917.3223, 2439.943
917.8044, 2439.179
918.2865, 2441.324
918.7686, 2442.059
919.2507, 2438.070
919.7328, 2432.466
920.2150, 2428.423
920.6971, 2425.194
921.1792, 2420.822
921.6613, 2414.097
922.1434, 2407.078
922.6255, 2399.832
923.1077, 2392.657
923.5898, 2386.317
924.0719, 2380.780
924.5540, 2374.222
925.0361, 2366.022
925.5182, 2357.715
926.0004, 2351.259
926.4825, 2345.253
926.9646, 2337.849
927.4467, 2328.224
927.9288, 2318.344
928.4109, 2308.347
928.8931, 2298.126
929.3752, 2287.863
929.8573, 2277.585
930.3394, 2265.980
930.8215, 2253.159
931.3036, 2239.902
931.7858, 2226.415
932.2679, 2213.156
932.7500, 2200.437
933.2321, 2188.422
933.7142, 2176.371
934.1964, 2164.690
934.6785, 2152.364
935.1606, 2138.954
935.6427, 2124.910
936.1248, 2112.293
936.6069, 2100.781
937.0891, 2088.416
937.5712, 2073.506
938.0533, 2058.887
938.5354, 2047.859
939.0175, 2038.618
939.4996, 2028.753
939.9818, 2017.559
940.4639, 2005.469
940.9460, 1992.158
941.4281, 1978.670
941.9102, 1966.679
942.3923, 1955.908
942.8745, 1943.266
943.3566, 1928.351
943.8387, 1914.121
944.3208, 1904.038
944.8029, 1895.115
945.2850, 1884.564
945.7672, 1872.133
946.2493, 1860.597
946.7314, 1850.948
947.2135, 1840.739
947.6956, 1828.747
948.1777, 1815.539
948.6599, 1803.687
949.1420, 1793.058
949.6241, 1783.227
950.1062, 1774.727
950.5883, 1766.089
951.0704, 1755.763
951.5526, 1744.667
952.0347, 1734.768
952.5168, 1726.796
952.9989, 1718.607
953.4810, 1709.889
953.9631, 1701.212
954.4453, 1693.781
954.9274, 1687.013
955.4095, 1678.316
955.8916, 1667.228
956.3737, 1657.035
956.8558, 1650.385
957.3380, 1645.120
957.8201, 1639.887
958.3022, 1634.620
958.7843, 1628.257
959.2664, 1620.305
959.7485, 1612.681
960.2307, 1606.336
960.7128, 1600.947
961.1949, 1596.333
961.6770, 1592.139
962.1591, 1587.215
962.6412, 1579.977
963.1234, 1573.056
963.6055, 1567.328
964.0876, 1562.691
964.5697, 1559.000
965.0518, 1556.623
965.5339, 1553.836
966.0161, 1550.503
966.4982, 1546.482
966.9803, 1540.292
967.4624, 1533.750
967.9445, 1530.669
968.4266, 1532.108
968.9088, 1532.383
969.3909, 1527.932
969.8730, 1523.075
970.3551, 1520.203
970.8372, 1519.175
971.3193, 1516.740
971.8015, 1512.860
972.2836, 1508.639
972.7657, 1504.034
973.2478, 1500.014
973.7299, 1498.462
974.2120, 1498.359
974.6942, 1497.167
975.1763, 1493.287
975.6584, 1489.373
976.1405, 1485.754
976.6226, 1482.262
977.1047, 1478.555
977.5869, 1474.660
978.0690, 1471.199
978.5511, 1468.333
979.0332, 1465.527
979.5153, 1463.380
979.9974, 1460.352
980.4796, 1454.388
980.9617, 1444.716
981.4438, 1437.194
981.9259, 1432.817
982.4080, 1428.719
982.8901, 1423.693
983.3723, 1417.859
983.8544, 1411.283
984.3365, 1404.156
984.8186, 1397.294
985.3007, 1390.823
985.7828, 1384.990
986.2650, 1380.715
986.7471, 1376.770
987.2292, 1370.939
987.7113, 1362.308
988.1934, 1355.257
988.6755, 1350.497
989.1577, 1345.954
989.6398, 1339.342
990.1219, 1331.436
990.6040, 1323.466
991.0861, 1315.575
991.5682, 1307.793
992.0504, 1300.656
992.5325, 1293.075
993.0146, 1284.238
993.4967, 1274.652
993.9788, 1266.531
994.4609, 1259.888
994.9431, 1252.699
995.4252, 1243.965
995.9073, 1234.600
996.3894, 1224.654
996.8715, 1214.960
997.3536, 1206.678
997.8358, 1201.677
998.3179, 1195.971
998.8000, 1189.283
999.2821, 1182.115
999.7642, 1174.536
1000.246, 1166.681
1000.728, 1159.912
1001.211, 1154.160
1001.693, 1148.622
1002.175, 1143.285
1002.657, 1137.381
1003.139, 1130.070
1003.621, 1121.550
1004.103, 1113.936
1004.585, 1107.536
1005.068, 1100.914
1005.550, 1093.615
1006.032, 1085.913
1006.514, 1077.911
1006.996, 1069.823
1007.478, 1061.888
1007.960, 1054.227
1008.442, 1046.753
1008.924, 1039.057
1009.407, 1031.755
1009.889, 1025.366
1010.371, 1019.967
1010.853, 1013.679
1011.335, 1006.412
1011.817, 999.5253
1012.299, 994.6752
1012.781, 989.9047
1013.263, 983.0045
1013.746, 974.5743
1014.228, 966.7359
1014.710, 959.8007
1015.192, 953.5536
1015.674, 948.2767
1016.156, 943.2282
1016.638, 936.8640
1017.120, 929.7190
1017.603, 923.6351
1018.085, 918.9918
1018.567, 914.3073
1019.049, 908.4713
1019.531, 902.4636
1020.013, 896.8221
1020.495, 891.5479
1020.977, 886.7580
1021.459, 882.5175
1021.942, 878.1876
1022.424, 873.5965
1022.906, 868.6099
1023.388, 862.8344
1023.870, 856.5038
1024.352, 850.0695
1024.834, 842.7911
1025.316, 836.8193
1025.799, 832.9036
1026.281, 829.5224
1026.763, 825.0350
1027.245, 819.6884
1027.727, 814.3958
1028.209, 809.2337
1028.691, 804.6871
1029.173, 801.8972
1029.656, 799.0793
1030.138, 794.8693
1030.620, 789.5097
1031.102, 784.5598
1031.584, 780.1482
1032.066, 775.4076
1032.548, 769.8547
1033.030, 764.4020
1033.512, 760.7817
1033.995, 758.1292
1034.477, 754.9236
1034.959, 750.5158
1035.441, 746.7960
1035.923, 745.2474
1036.405, 743.3165
1036.887, 739.3613
1037.369, 733.6951
1037.851, 728.8792
1038.334, 724.8848
1038.816, 720.6292
1039.298, 714.7945
1039.780, 709.2537
1040.262, 705.6335
1040.744, 703.0646
1041.226, 699.6730
1041.708, 694.7686
1042.191, 690.8331
1042.673, 688.1072
1043.155, 685.9136
1043.637, 684.0508
1044.119, 681.9716
1044.601, 678.3572
1045.083, 673.1689
1045.565, 668.5686
1046.047, 665.9265
1046.530, 663.2156
1047.012, 659.6976
1047.494, 655.7686
1047.976, 652.4582
1048.458, 649.7181
1048.940, 647.7317
1049.422, 647.0272
1049.904, 645.4570
1050.386, 640.0182
1050.869, 633.7200
1051.351, 629.9555
1051.833, 629.4952
1052.315, 627.2950
1052.797, 622.8669
1053.279, 618.9054
1053.761, 617.4602
1054.243, 617.0830
1054.726, 615.4320
1055.208, 612.7670
1055.690, 609.7830
1056.172, 605.7099
1056.654, 602.8625
1057.136, 602.2123
1057.618, 601.9466
1058.100, 599.7972
1058.583, 596.0589
1059.065, 592.5510
1059.547, 589.4161
1060.029, 586.5309
1060.511, 583.8867
1060.993, 581.4845
1061.475, 579.7060
1061.957, 578.2294
1062.439, 575.5371
1062.922, 571.3450
1063.404, 567.7297
1063.886, 565.2873
1064.368, 563.4512
1064.850, 561.9673
1065.332, 560.4159
1065.814, 558.0615
1066.296, 554.4705
1066.778, 551.5760
1067.261, 549.8417
1067.743, 548.2451
1068.225, 546.2029
1068.707, 543.9255
1069.189, 542.4423
1069.671, 541.4406
1070.153, 539.7710
1070.635, 535.8329
1071.118, 532.6340
1071.600, 532.3482
1072.082, 532.8266
1072.564, 531.9705
1073.046, 529.7039
1073.528, 526.8508
1074.010, 523.4243
1074.492, 520.4773
1074.974, 519.6093
1075.457, 518.9541
1075.939, 516.2813
1076.421, 515.1903
1076.903, 513.9595
1077.385, 511.2025
1077.867, 510.9373
1078.349, 508.3369
1078.831, 505.0932
1079.313, 503.4967
1079.796, 502.8242
1080.278, 501.9289
1080.760, 500.6576
1081.242, 498.8275
1081.724, 495.7010
1082.206, 492.7906
1082.688, 490.8004
1083.170, 488.2488
1083.652, 486.0641
1084.135, 484.4310
1084.617, 482.2139
1085.099, 481.0847
1085.581, 480.0348
1086.063, 478.4669
1086.545, 476.6930
1087.027, 474.9398
1087.509, 473.2125
1087.992, 471.6649
1088.474, 470.3038
1088.956, 469.1026
1089.438, 468.3002
1089.920, 467.4272
1090.402, 465.7758
1090.884, 463.6963
1091.366, 461.9458
1091.849, 460.8256
1092.331, 459.6255
1092.813, 458.2763
1093.295, 456.8950
1093.777, 455.4682
1094.259, 454.1383
1094.741, 453.2766
1095.223, 452.8329
1095.705, 452.3268
1096.188, 452.2197
1096.670, 451.0959
1097.152, 448.1291
1097.634, 444.5140
1098.116, 442.5577
1098.598, 441.9434
1099.080, 440.8263
1099.562, 438.8387
1100.044, 437.1076
1100.527, 436.9560
1101.009, 436.7834
1101.491, 435.3102
1101.973, 432.8051
1102.455, 431.0464
1102.937, 430.0493
1103.419, 428.9439
1103.901, 427.3739
1104.384, 425.7607
1104.866, 424.4460
1105.348, 423.4106
1105.830, 422.7708
1106.312, 422.8575
1106.794, 421.7107
1107.276, 418.8361
1107.758, 416.4721
1108.240, 416.3278
1108.723, 417.1176
1109.205, 416.7029
1109.687, 415.3794
1110.169, 413.8369
1110.651, 411.9203
1111.133, 410.3544
1111.615, 409.2224
1112.097, 408.3639
1112.579, 407.9323
1113.062, 407.6400
1113.544, 406.1796
1114.026, 403.6948
1114.508, 401.4061
1114.990, 399.8794
1115.472, 398.7569
1115.954, 398.2147
1116.436, 397.7885
1116.919, 396.6053
1117.401, 394.7375
1117.883, 393.7163
1118.365, 393.7425
1118.847, 393.6010
1119.329, 392.2691
1119.811, 390.5452
1120.293, 388.7260
1120.776, 386.9769
1121.258, 385.8695
1121.740, 385.4238
1122.222, 385.5732
1122.704, 386.5121
1123.186, 387.2033
1123.668, 386.4932
1124.150, 384.9945
1124.632, 383.2372
1125.115, 381.2435
1125.597, 379.5974
1126.079, 378.3434
1126.561, 377.3395
1127.043, 376.5885
1127.525, 375.9666
1128.007, 375.4393
1128.489, 374.8365
1128.971, 373.7954
1129.454, 371.9138
1129.936, 370.5363
1130.418, 370.0468
1130.900, 369.5358
1131.382, 368.3442
1131.864, 366.7702
1132.346, 365.4620
1132.828, 364.4955
1133.311, 364.1252
1133.793, 365.2429
1134.275, 365.8482
1134.757, 365.5123
1135.239, 364.5227
1135.721, 362.8563
1136.203, 360.6558
1136.685, 358.9240
1137.167, 357.6716
1137.650, 356.8663
1138.132, 356.8045
1138.614, 356.8266
1139.096, 356.9942
1139.578, 356.8535
1140.060, 355.4616
1140.542, 352.7812
1141.024, 351.2906
1141.506, 351.2063
1141.989, 351.2358
1142.471, 350.3954
1142.953, 349.3287
1143.435, 348.3346
1143.917, 347.5030
1144.399, 347.1119
1144.881, 347.2787
1145.363, 346.9256
1145.846, 345.7840
1146.328, 344.6907
1146.810, 344.8993
1147.292, 345.2880
1147.774, 344.5318
1148.256, 342.5951
1148.738, 341.5787
1149.220, 341.8078
1149.703, 341.7773
1150.185, 341.0362
1150.667, 339.9833
1151.149, 338.8642
1151.631, 337.8911
1152.113, 337.4751
1152.595, 337.8057
1153.077, 337.6147
1153.559, 336.5354
1154.042, 335.7445
1154.524, 335.9188
1155.006, 336.3421
1155.488, 335.5329
1155.970, 334.0213
1156.452, 332.8750
1156.934, 332.4669
1157.416, 332.0880
1157.898, 331.7637
1158.381, 331.2154
1158.863, 330.1037
1159.345, 328.7667
1159.827, 328.2914
1160.309, 328.4176
1160.791, 328.4442
1161.273, 328.1342
1161.755, 327.6958
1162.238, 327.3125
1162.720, 326.6585
1163.202, 325.2588
1163.684, 323.3564
1164.166, 322.2438
1164.648, 321.7944
1165.130, 321.4688
1165.612, 320.9122
1166.094, 320.5667
1166.577, 320.8320
1167.059, 321.0993
1167.541, 320.7163
1168.023, 319.7452
1168.505, 318.7413
1168.987, 317.7419
1169.469, 316.9737
1169.951, 316.9566
1170.433, 316.7477
1170.916, 315.6129
1171.398, 314.2333
1171.880, 313.5962
1172.362, 313.6476
1172.844, 313.1387
1173.326, 312.0035
1173.808, 311.1225
1174.290, 311.5989
1174.773, 312.0224
1175.255, 311.1446
1175.737, 311.6615
1176.219, 309.8787
1176.701, 311.3794
1177.183, 311.8810
1177.665, 311.0486
1178.147, 309.7504
1178.630, 308.0333
1179.112, 306.6917
1179.594, 306.7485
1180.076, 307.6132
1180.558, 307.2056
1181.040, 305.4247
1181.522, 304.3528
1182.004, 304.4748
1182.486, 304.7100
1182.969, 303.9390
1183.451, 302.9983
1183.933, 302.5940
1184.415, 302.6783
1184.897, 302.8457
1185.379, 303.1584
1185.861, 302.7186
1186.343, 301.1223
1186.825, 299.4714
1187.308, 298.7559
1187.790, 298.5802
1188.272, 298.8484
1188.754, 299.4852
1189.236, 299.0353
1189.718, 297.3252
1190.200, 296.3356
1190.682, 296.9667
1191.165, 297.7912
1191.647, 297.2625
1192.129, 296.1318
1192.611, 295.1841
1193.093, 294.5204
1193.575, 293.6690
1194.057, 292.5755
1194.539, 291.6082
1195.021, 290.7836
1195.504, 290.3838
1195.986, 291.1372
1196.468, 292.2869
1196.950, 292.8262
1197.432, 292.5693
1197.914, 292.3206
1198.396, 292.0755
1198.878, 291.8638
1199.360, 291.7531
1199.843, 291.6050
1200.325, 291.3643
1200.807, 290.9416
1201.289, 290.1268
1201.771, 288.7552
1202.253, 287.7295
1202.735, 287.0529
1203.217, 286.7423
1203.700, 287.0150
1204.182, 287.4170
1204.664, 287.5610
1205.146, 287.4275
1205.628, 286.9142
1206.110, 285.7968
1206.592, 285.1163
1207.074, 284.9280
1207.557, 284.7618
1208.039, 284.1141
1208.521, 283.5196
1209.003, 283.8248
1209.485, 284.5297
1209.967, 284.6982
1210.449, 284.1342
1210.931, 283.2489
1211.413, 281.9031
1211.896, 281.1009
1212.378, 282.0818
1212.860, 283.4800
1213.342, 284.0349
1213.824, 283.8635
1214.306, 283.0638
1214.788, 281.2313
1215.270, 280.4393
1215.752, 280.8376
1216.235, 281.4258
1216.717, 281.6895
1217.199, 281.5838
1217.681, 280.7476
1218.163, 279.5782
1218.645, 279.0285
1219.127, 279.3444
1219.609, 279.4618
1220.092, 279.3519
1220.574, 278.8955
1221.056, 277.3906
1221.538, 276.0433
1222.020, 276.5531
1222.502, 277.9472
1222.984, 277.7089
1223.466, 275.0831
1223.948, 274.5109
1224.431, 276.4014
1224.913, 278.3869
1225.395, 278.6203
1225.877, 278.0982
1226.359, 277.2810
1226.841, 276.4371
1227.323, 276.2324
1227.805, 276.8757
1228.287, 276.5734
1228.770, 275.1543
1229.252, 273.7072
1229.734, 272.9752
1230.216, 272.6752
1230.698, 272.6522
1231.180, 272.9170
1231.662, 273.6614
1232.144, 274.9938
1232.627, 275.1146
1233.109, 273.8399
1233.591, 272.5728
1234.073, 272.3351
1234.555, 272.4815
1235.037, 272.8122
1235.519, 273.1407
1236.001, 273.0905
1236.484, 272.6645
1236.966, 272.4006
1237.448, 272.3497
1237.930, 272.3600
1238.412, 272.4330
1238.894, 272.4257
1239.376, 272.3789
1239.858, 272.1266
1240.340, 271.0897
1240.823, 269.4174
1241.305, 268.8345
1241.787, 269.4716
1242.269, 270.0963
1242.751, 269.8347
1243.233, 269.5082
1243.715, 269.4497
1244.197, 269.5605
1244.679, 269.8299
1245.162, 270.1608
1245.644, 269.8736
1246.126, 268.9546
1246.608, 268.2243
1247.090, 268.4307
1247.572, 268.4394
1248.054, 267.6553
1248.536, 266.8158
1249.019, 267.2245
1249.501, 268.4986
1249.983, 269.5260
1250.465, 270.1938
1250.947, 270.5667
1251.429, 270.8224
1251.911, 270.4362
1252.393, 268.9899
1252.875, 267.4527
1253.358, 267.3448
1253.840, 268.0703
1254.322, 268.3001
1254.804, 267.9748
1255.286, 267.6143
1255.768, 267.1103
1256.250, 267.1190
1256.732, 267.9441
1257.214, 268.8012
1257.697, 268.7792
1258.179, 268.1230
1258.661, 266.8247
1259.143, 265.1208
1259.625, 264.5623
1260.107, 265.9159
1260.589, 266.6918
1261.071, 266.4205
1261.554, 266.0040
1262.036, 266.7658
1262.518, 267.6574
1263.000, 267.1382
1263.482, 267.3120
1263.964, 267.1405
1264.446, 266.1031
1264.928, 266.1407
1265.411, 264.6795
1265.893, 263.4053
1266.375, 264.2802
1266.857, 265.5939
1267.339, 265.8058
1267.821, 265.2362
1268.303, 265.0695
1268.785, 265.3262
1269.267, 265.7740
1269.750, 266.3993
1270.232, 266.8225
1270.714, 266.4238
1271.196, 266.0846
1271.678, 266.8092
1272.160, 267.7444
1272.642, 267.2239
1273.124, 265.4063
1273.606, 264.6799
1274.089, 265.1778
1274.571, 265.6697
1275.053, 265.4959
1275.535, 265.0614
1276.017, 264.3499
1276.499, 263.6653
1276.981, 263.4584
1277.463, 263.6204
1277.946, 263.8093
1278.428, 263.9745
1278.910, 263.9653
1279.392, 263.4052
1279.874, 263.1346
1280.356, 263.4076
1280.838, 263.7798
1281.320, 263.6764
1281.802, 263.3517
1282.285, 263.3003
1282.767, 263.5194
1283.249, 263.9254
1283.731, 265.1273
1284.213, 265.1095
1284.695, 263.4335
1285.177, 261.6133
1285.659, 260.9704
1286.141, 261.0369
1286.624, 261.6165
1287.106, 262.3853
1287.588, 262.4189
1288.070, 261.4089
1288.552, 260.7421
1289.034, 260.4798
1289.516, 260.6926
1289.998, 261.8546
1290.481, 263.0941
1290.963, 263.9642
1291.445, 264.2715
1291.927, 263.5695
1292.409, 261.7216
1292.891, 261.5111
1293.373, 262.8926
1293.855, 264.2024
1294.338, 264.5583
1294.820, 264.4587
1295.302, 263.8153
1295.784, 263.0857
1296.266, 262.6791
1296.748, 262.5503
1297.230, 262.1288
1297.712, 261.6363
1298.194, 261.9910
1298.677, 265.0302
1299.159, 266.5593
1299.641, 265.3866
1300.123, 263.8636
1300.605, 263.9632
1301.087, 264.8731
1301.569, 264.5405
1302.051, 263.3944
1302.533, 262.4238
1303.016, 261.6386
##END=



