##NAMES=Tilasite
##RRUFFID=R060618
##IDEAL CHEMISTRY=CaMgAs^5+^O_4_F
##LOCALITY=Cervandone, Italy
##OWNER=RRUFF
##SOURCE=Michael Scott
##DESCRIPTION=Pinkish-gray spearhead shaped crystals associated with albite and hexagonal tablets of clinochlore
##STATUS=The identification of this mineral is confirmed by single-crystal X-ray diffraction and chemical analysis.
##URL=rruff.info/R060618
##MEASURED CHEMISTRY=Ca_1.00_(Mg_0.99_Fe_0.01_)_Σ=1_((As_0.99_P_0.01_)_Σ=1_O_4_)F_1.00_
83.918, 64.793
84.400, 60.996
84.882, 62.227
85.364, 64.995
85.846, 66.407
86.329, 63.975
86.811, 61.086
87.293, 59.846
87.775, 60.298
88.257, 60.931
88.739, 60.650
89.221, 59.835
89.703, 59.195
90.185, 59.363
90.668, 59.817
91.150, 59.836
91.632, 59.228
92.114, 58.449
92.596, 58.360
93.078, 58.811
93.560, 58.679
94.042, 56.282
94.525, 52.368
95.007, 49.819
95.489, 49.775
95.971, 51.421
96.453, 52.423
96.935, 52.635
97.417, 52.920
97.899, 54.700
98.381, 58.125
98.864, 60.881
99.346, 61.803
99.828, 60.747
100.310, 60.286
100.792, 60.542
101.274, 61.290
101.756, 61.852
102.238, 61.845
102.720, 62.529
103.203, 64.904
103.685, 69.798
104.167, 74.022
104.649, 76.529
105.131, 77.518
105.613, 81.107
106.095, 88.478
106.577, 97.630
107.060, 106.481
107.542, 113.881
108.024, 122.561
108.506, 133.694
108.988, 148.744
109.470, 161.737
109.952, 171.701
110.434, 179.674
110.916, 187.422
111.399, 191.466
111.881, 198.031
112.363, 209.727
112.845, 231.984
113.327, 252.531
113.809, 268.298
114.291, 280.445
114.773, 293.570
115.256, 309.760
115.738, 326.811
116.220, 343.254
116.702, 358.593
117.184, 373.174
117.666, 389.185
118.148, 406.901
118.630, 418.306
119.113, 414.660
119.595, 402.749
120.077, 392.251
120.559, 389.226
121.041, 388.176
121.523, 383.984
122.005, 374.462
122.487, 366.467
122.969, 368.223
123.451, 376.667
123.934, 382.592
124.416, 377.813
124.898, 367.436
125.380, 358.784
125.862, 353.294
126.344, 350.745
126.826, 352.030
127.308, 356.998
127.791, 362.444
128.273, 365.438
128.755, 366.608
129.237, 367.936
129.719, 369.437
130.201, 371.642
130.683, 376.272
131.165, 383.543
131.648, 392.226
132.130, 401.527
132.612, 411.374
133.094, 420.216
133.576, 426.861
134.058, 431.438
134.540, 435.973
135.022, 440.218
135.504, 444.960
135.986, 452.565
136.469, 463.713
136.951, 474.603
137.433, 481.920
137.915, 485.142
138.397, 489.111
138.879, 494.259
139.361, 500.727
139.844, 509.165
140.326, 519.601
140.808, 531.940
141.290, 546.248
141.772, 563.447
142.254, 580.510
142.736, 596.112
143.218, 609.902
143.700, 625.714
144.182, 643.141
144.665, 662.985
145.147, 687.103
145.629, 716.178
146.111, 748.279
146.593, 782.521
147.075, 820.023
147.557, 858.115
148.040, 895.797
148.522, 933.853
149.004, 975.062
149.486, 1023.209
149.968, 1071.965
150.450, 1118.198
150.932, 1160.067
151.414, 1202.243
151.896, 1244.294
152.378, 1286.822
152.861, 1330.033
153.343, 1382.207
153.825, 1431.171
154.307, 1467.234
154.789, 1486.394
155.271, 1495.670
155.753, 1498.680
156.235, 1496.963
156.718, 1478.740
157.200, 1433.972
157.682, 1373.393
158.164, 1310.788
158.646, 1248.779
159.128, 1185.787
159.610, 1119.432
160.092, 1046.647
160.574, 979.535
161.057, 921.699
161.539, 871.992
162.021, 829.385
162.503, 795.170
162.985, 766.861
163.467, 743.060
163.949, 724.600
164.431, 708.969
164.913, 696.565
165.396, 686.529
165.878, 675.089
166.360, 656.962
166.842, 637.822
167.324, 623.248
167.806, 618.958
168.288, 616.842
168.770, 610.315
169.253, 599.724
169.735, 591.721
170.217, 594.847
170.699, 602.696
171.181, 605.724
171.663, 595.629
172.145, 581.302
172.627, 570.106
173.109, 562.336
173.592, 557.775
174.074, 558.803
174.556, 563.208
175.038, 565.688
175.520, 562.013
176.002, 555.178
176.484, 549.085
176.966, 543.706
177.449, 540.194
177.931, 541.082
178.413, 545.495
178.895, 549.734
179.377, 552.596
179.859, 553.509
180.341, 550.138
180.823, 539.347
181.305, 528.114
181.788, 529.111
182.270, 541.445
182.752, 554.153
183.234, 558.008
183.716, 554.948
184.198, 551.200
184.680, 547.668
185.162, 544.793
185.645, 543.909
186.127, 545.141
186.609, 546.359
187.091, 543.880
187.573, 538.675
188.055, 536.905
188.537, 542.864
189.019, 553.963
189.501, 560.835
189.984, 563.115
190.466, 562.909
190.948, 561.890
191.430, 560.112
191.912, 559.383
192.394, 561.959
192.876, 567.043
193.358, 567.350
193.840, 561.290
194.323, 553.889
194.805, 553.970
195.287, 562.072
195.769, 570.739
196.251, 577.415
196.733, 582.069
197.215, 580.733
197.697, 570.987
198.180, 557.814
198.662, 552.945
199.144, 557.518
199.626, 564.076
200.108, 568.297
200.590, 570.017
201.072, 570.813
201.554, 570.104
202.036, 568.936
202.519, 571.494
203.001, 578.718
203.483, 586.595
203.965, 592.346
204.447, 595.904
204.929, 597.279
205.411, 595.235
205.893, 590.768
206.376, 590.790
206.858, 596.489
207.340, 604.075
207.822, 610.300
208.304, 615.131
208.786, 618.884
209.268, 622.353
209.750, 625.401
210.232, 621.947
210.715, 607.808
211.197, 593.651
211.679, 594.042
212.161, 615.157
212.643, 632.891
213.125, 639.396
213.607, 633.485
214.089, 630.784
214.572, 632.004
215.054, 635.687
215.536, 640.091
216.018, 645.847
216.500, 650.844
216.982, 654.427
217.464, 656.443
217.946, 657.325
218.428, 656.456
218.911, 654.822
219.393, 654.340
219.875, 655.305
220.357, 656.814
220.839, 658.297
221.321, 659.105
221.803, 662.146
222.285, 669.041
222.768, 677.644
223.250, 681.506
223.732, 676.880
224.214, 673.764
224.696, 677.471
225.178, 691.606
225.660, 703.720
226.142, 712.036
226.624, 718.176
227.107, 727.948
227.589, 742.951
228.071, 759.211
228.553, 774.525
229.035, 789.391
229.517, 802.302
229.999, 811.506
230.481, 818.372
230.964, 830.485
231.446, 849.715
231.928, 871.765
232.410, 893.900
232.892, 916.638
233.374, 938.247
233.856, 957.155
234.338, 974.005
234.820, 994.548
235.303, 1021.624
235.785, 1049.531
236.267, 1074.192
236.749, 1095.482
237.231, 1113.791
237.713, 1129.015
238.195, 1141.186
238.677, 1151.298
239.160, 1160.075
239.642, 1166.080
240.124, 1167.778
240.606, 1163.473
241.088, 1158.122
241.570, 1153.177
242.052, 1148.769
242.534, 1140.035
243.016, 1125.687
243.499, 1108.169
243.981, 1089.769
244.463, 1070.182
244.945, 1050.023
245.427, 1028.009
245.909, 1003.668
246.391, 985.768
246.873, 976.393
247.355, 971.587
247.838, 967.398
248.320, 965.280
248.802, 960.805
249.284, 951.013
249.766, 934.343
250.248, 926.309
250.730, 929.396
251.212, 939.092
251.695, 949.780
252.177, 961.469
252.659, 974.394
253.141, 989.088
253.623, 1005.946
254.105, 1021.630
254.587, 1035.375
255.069, 1048.860
255.551, 1064.572
256.034, 1084.262
256.516, 1102.918
256.998, 1119.076
257.480, 1132.375
257.962, 1144.616
258.444, 1156.264
258.926, 1166.498
259.408, 1175.429
259.891, 1186.278
260.373, 1188.520
260.855, 1177.964
261.337, 1153.165
261.819, 1121.863
262.301, 1080.944
262.783, 1036.274
263.265, 998.294
263.747, 967.856
264.229, 941.380
264.712, 918.601
265.194, 901.164
265.676, 878.323
266.158, 846.909
266.640, 813.675
267.122, 791.866
267.604, 784.563
268.086, 780.028
268.569, 775.145
269.051, 770.714
269.533, 759.711
270.015, 739.003
270.497, 715.405
270.979, 702.596
271.461, 703.267
271.943, 705.362
272.426, 703.932
272.908, 698.543
273.390, 693.271
273.872, 688.309
274.354, 683.274
274.836, 677.073
275.318, 669.362
275.800, 662.149
276.282, 655.858
276.765, 650.316
277.247, 648.271
277.729, 650.718
278.211, 655.170
278.693, 656.911
279.175, 655.455
279.657, 654.436
280.139, 656.201
280.621, 660.787
281.104, 662.961
281.586, 661.915
282.068, 659.744
282.550, 660.578
283.032, 664.710
283.514, 667.571
283.996, 665.281
284.478, 658.494
284.961, 657.287
285.443, 663.462
285.925, 671.629
286.407, 672.600
286.889, 666.464
287.371, 659.798
287.853, 654.800
288.335, 651.651
288.818, 652.486
289.300, 658.375
289.782, 665.047
290.264, 664.732
290.746, 658.201
291.228, 653.881
291.710, 659.134
292.192, 670.322
292.674, 672.901
293.156, 664.713
293.639, 655.010
294.121, 657.565
294.603, 670.283
295.085, 681.936
295.567, 685.223
296.049, 683.699
296.531, 687.380
297.013, 697.752
297.496, 707.143
297.978, 704.127
298.460, 692.105
298.942, 682.609
299.424, 681.890
299.906, 686.972
300.388, 693.521
300.870, 701.482
301.353, 709.550
301.835, 717.286
302.317, 724.089
302.799, 728.899
303.281, 728.286
303.763, 726.570
304.245, 729.905
304.727, 738.769
305.209, 748.245
305.691, 753.151
306.174, 755.790
306.656, 760.394
307.138, 770.836
307.620, 782.842
308.102, 792.926
308.584, 801.093
309.066, 807.296
309.548, 807.048
310.031, 805.844
310.513, 811.540
310.995, 830.917
311.477, 855.527
311.959, 880.314
312.441, 905.073
312.923, 930.682
313.405, 957.156
313.888, 984.782
314.370, 1013.396
314.852, 1039.876
315.334, 1070.654
315.816, 1108.910
316.298, 1154.548
316.780, 1205.520
317.262, 1262.879
317.744, 1324.699
318.227, 1387.922
318.709, 1448.341
319.191, 1514.131
319.673, 1588.524
320.155, 1671.095
320.637, 1757.993
321.119, 1848.197
321.601, 1942.352
322.083, 2041.309
322.566, 2147.946
323.048, 2255.022
323.530, 2360.753
324.012, 2465.536
324.494, 2571.767
324.976, 2676.147
325.458, 2784.480
325.940, 2900.347
326.422, 3039.825
326.905, 3166.498
327.387, 3286.004
327.869, 3392.326
328.351, 3467.659
328.833, 3511.250
329.315, 3524.341
329.797, 3507.345
330.280, 3461.407
330.762, 3383.538
331.244, 3267.738
331.726, 3120.562
332.208, 2957.019
332.690, 2764.556
333.172, 2571.994
333.654, 2387.542
334.136, 2206.679
334.618, 2044.006
335.101, 1898.621
335.583, 1769.004
336.065, 1655.234
336.547, 1559.280
337.029, 1472.448
337.511, 1391.969
337.993, 1316.402
338.475, 1252.846
338.958, 1203.406
339.440, 1162.946
339.922, 1125.062
340.404, 1089.046
340.886, 1057.750
341.368, 1033.740
341.850, 1016.601
342.332, 993.295
342.815, 962.119
343.297, 931.519
343.779, 914.101
344.261, 909.598
344.743, 903.421
345.225, 888.539
345.707, 868.980
346.189, 859.600
346.671, 861.208
347.154, 866.595
347.636, 868.908
348.118, 869.092
348.600, 871.780
349.082, 879.455
349.564, 889.263
350.046, 896.156
350.528, 900.203
351.010, 902.899
351.493, 903.241
351.975, 903.232
352.457, 906.798
352.939, 914.728
353.421, 926.716
353.903, 944.909
354.385, 967.829
354.867, 989.121
355.349, 1000.991
355.832, 1010.720
356.314, 1027.212
356.796, 1053.970
357.278, 1082.695
357.760, 1108.352
358.242, 1131.579
358.724, 1154.765
359.207, 1183.006
359.689, 1208.943
360.171, 1225.422
360.653, 1228.482
361.135, 1234.752
361.617, 1259.757
362.099, 1291.161
362.581, 1309.866
363.063, 1300.645
363.546, 1285.839
364.028, 1275.188
364.510, 1270.517
364.992, 1260.855
365.474, 1243.941
365.956, 1220.745
366.438, 1192.357
366.920, 1149.150
367.402, 1110.823
367.885, 1083.794
368.367, 1068.563
368.849, 1048.752
369.331, 1019.775
369.813, 989.316
370.295, 962.216
370.777, 936.054
371.259, 917.454
371.741, 908.612
372.224, 908.138
372.706, 908.829
373.188, 911.989
373.670, 914.369
374.152, 913.296
374.634, 906.383
375.116, 903.407
375.598, 904.172
376.081, 909.541
376.563, 922.298
377.045, 943.664
377.527, 968.235
378.009, 995.382
378.491, 1024.845
378.973, 1049.629
379.455, 1067.738
379.938, 1085.321
380.420, 1111.374
380.902, 1146.013
381.384, 1182.592
381.866, 1218.182
382.348, 1253.908
382.830, 1295.453
383.312, 1343.119
383.794, 1391.857
384.276, 1434.478
384.759, 1473.367
385.241, 1515.021
385.723, 1563.430
386.205, 1614.105
386.687, 1660.684
387.169, 1703.240
387.651, 1744.749
388.134, 1787.444
388.616, 1829.633
389.098, 1870.745
389.580, 1914.459
390.062, 1949.799
390.544, 1970.543
391.026, 1976.506
391.508, 1965.921
391.990, 1930.895
392.473, 1883.930
392.955, 1832.499
393.437, 1777.316
393.919, 1720.034
394.401, 1662.472
394.883, 1603.479
395.365, 1541.617
395.847, 1469.858
396.329, 1401.117
396.812, 1341.239
397.294, 1291.613
397.776, 1243.438
398.258, 1193.487
398.740, 1145.812
399.222, 1104.499
399.704, 1075.445
400.186, 1045.577
400.668, 1011.626
401.151, 974.289
401.633, 942.862
402.115, 919.436
402.597, 899.551
403.079, 879.874
403.561, 858.654
404.043, 842.668
404.525, 834.352
405.008, 830.705
405.490, 823.069
405.972, 809.812
406.454, 798.070
406.936, 792.938
407.418, 794.747
407.900, 790.453
408.382, 778.296
408.865, 764.135
409.347, 756.726
409.829, 755.762
410.311, 755.052
410.793, 751.213
411.275, 746.085
411.757, 745.668
412.239, 750.084
412.721, 754.684
413.203, 754.152
413.686, 750.587
414.168, 748.813
414.650, 750.986
415.132, 754.439
415.614, 756.073
416.096, 756.350
416.578, 757.389
417.060, 762.678
417.543, 768.216
418.025, 769.315
418.507, 763.182
418.989, 758.097
419.471, 757.188
419.953, 760.333
420.435, 767.305
420.917, 779.380
421.400, 794.103
421.882, 812.192
422.364, 834.948
422.846, 852.136
423.328, 855.234
423.810, 855.212
424.292, 862.401
424.774, 888.043
425.256, 909.122
425.738, 920.285
426.221, 922.993
426.703, 930.635
427.185, 940.909
427.667, 958.840
428.149, 988.773
428.631, 1036.358
429.113, 1080.173
429.595, 1120.480
430.078, 1156.238
430.560, 1182.117
431.042, 1194.960
431.524, 1213.288
432.006, 1248.401
432.488, 1298.936
432.970, 1341.114
433.452, 1374.262
433.935, 1401.968
434.417, 1427.833
434.899, 1451.610
435.381, 1471.929
435.863, 1488.545
436.345, 1501.081
436.827, 1512.440
437.309, 1521.580
437.791, 1517.533
438.274, 1484.795
438.756, 1436.165
439.238, 1389.176
439.720, 1346.514
440.202, 1307.764
440.684, 1274.993
441.166, 1245.928
441.648, 1215.429
442.130, 1178.056
442.613, 1141.318
443.095, 1107.731
443.577, 1076.923
444.059, 1054.666
444.541, 1047.984
445.023, 1048.470
445.505, 1047.940
445.987, 1041.470
446.470, 1037.710
446.952, 1038.403
447.434, 1043.390
447.916, 1050.254
448.398, 1058.247
448.880, 1068.932
449.362, 1083.071
449.844, 1100.395
450.327, 1121.443
450.809, 1145.949
451.291, 1174.483
451.773, 1209.428
452.255, 1252.286
452.737, 1296.194
453.219, 1337.385
453.701, 1377.098
454.183, 1425.476
454.665, 1483.492
455.148, 1548.146
455.630, 1619.616
456.112, 1697.087
456.594, 1772.399
457.076, 1841.667
457.558, 1912.025
458.040, 1995.333
458.522, 2090.235
459.005, 2192.377
459.487, 2302.802
459.969, 2415.823
460.451, 2524.920
460.933, 2627.221
461.415, 2731.927
461.897, 2845.386
462.379, 2963.032
462.862, 3079.178
463.344, 3207.818
463.826, 3318.689
464.308, 3399.451
464.790, 3449.499
465.272, 3470.656
465.754, 3461.714
466.236, 3424.152
466.718, 3359.028
467.201, 3263.446
467.683, 3142.010
468.165, 2982.796
468.647, 2800.741
469.129, 2626.127
469.611, 2463.423
470.093, 2302.240
470.575, 2134.325
471.057, 1957.419
471.540, 1802.686
472.022, 1672.306
472.504, 1560.175
472.986, 1464.620
473.468, 1385.976
473.950, 1311.504
474.432, 1236.368
474.914, 1165.067
475.397, 1109.636
475.879, 1069.602
476.361, 1035.832
476.843, 1004.958
477.325, 975.626
477.807, 944.359
478.289, 909.860
478.771, 878.335
479.254, 856.082
479.736, 840.745
480.218, 828.102
480.700, 818.307
481.182, 809.006
481.664, 798.550
482.146, 787.059
482.628, 776.487
483.110, 768.276
483.592, 760.761
484.075, 752.724
484.557, 743.074
485.039, 734.422
485.521, 726.072
486.003, 719.147
486.485, 715.895
486.967, 718.638
487.449, 722.029
487.931, 725.601
488.414, 729.510
488.896, 729.303
489.378, 724.080
489.860, 716.340
490.342, 706.690
490.824, 694.407
491.306, 686.816
491.789, 685.192
492.271, 688.253
492.753, 695.549
493.235, 706.857
493.717, 714.946
494.199, 713.124
494.681, 706.035
495.163, 704.719
495.645, 709.795
496.128, 715.247
496.610, 714.702
497.092, 711.216
497.574, 709.914
498.056, 715.372
498.538, 719.705
499.020, 717.437
499.502, 709.882
499.984, 701.273
500.467, 690.996
500.949, 681.744
501.431, 675.246
501.913, 672.204
502.395, 669.597
502.877, 668.504
503.359, 666.960
503.841, 662.972
504.323, 655.703
504.806, 647.064
505.288, 635.600
505.770, 622.825
506.252, 616.759
506.734, 619.666
507.216, 623.123
507.698, 621.996
508.181, 616.166
508.663, 611.666
509.145, 608.927
509.627, 606.678
510.109, 602.718
510.591, 597.529
511.073, 593.619
511.555, 592.283
512.037, 592.326
512.519, 592.324
513.002, 592.243
513.484, 591.846
513.966, 591.977
514.448, 591.184
514.930, 586.563
515.412, 575.376
515.894, 569.020
516.376, 579.761
516.859, 596.583
517.341, 604.571
517.823, 587.933
518.305, 574.911
518.787, 575.942
519.269, 589.827
519.751, 596.214
520.233, 590.366
520.716, 582.128
521.198, 575.580
521.680, 569.328
522.162, 570.046
522.644, 581.046
523.126, 594.479
523.608, 597.438
524.090, 588.922
524.572, 582.312
525.055, 582.261
525.537, 586.304
526.019, 588.090
526.501, 587.647
526.983, 585.934
527.465, 581.423
527.947, 576.679
528.429, 576.938
528.911, 583.833
529.394, 590.893
529.876, 593.781
530.358, 593.448
530.840, 591.387
531.322, 584.740
531.804, 579.767
532.286, 580.421
532.768, 585.823
533.250, 589.681
533.733, 588.301
534.215, 587.000
534.697, 588.714
535.179, 595.743
535.661, 599.850
536.143, 599.711
536.625, 597.802
537.107, 597.368
537.589, 599.036
538.072, 599.793
538.554, 598.857
539.036, 596.634
539.518, 594.518
540.000, 592.523
540.482, 590.366
540.964, 587.614
541.446, 584.596
541.929, 581.793
542.411, 579.086
542.893, 577.962
543.375, 581.990
543.857, 588.143
544.339, 591.100
544.821, 584.657
545.303, 579.551
545.786, 584.963
546.268, 597.267
546.750, 604.980
547.232, 599.843
547.714, 593.028
548.196, 589.169
548.678, 588.927
549.160, 590.959
549.643, 599.156
550.125, 606.443
550.607, 605.717
551.089, 591.880
551.571, 583.672
552.053, 585.001
552.535, 591.753
553.017, 593.029
553.499, 588.167
553.982, 585.150
554.464, 589.892
554.946, 599.330
555.428, 601.699
555.910, 596.861
556.392, 592.253
556.874, 596.595
557.356, 604.596
557.838, 607.028
558.321, 599.144
558.803, 591.933
559.285, 593.800
559.767, 601.357
560.249, 608.315
560.731, 614.764
561.213, 618.137
561.695, 615.884
562.177, 608.084
562.660, 603.008
563.142, 602.746
563.624, 603.801
564.106, 604.554
564.588, 604.984
565.070, 604.784
565.552, 603.020
566.034, 601.881
566.516, 605.844
566.999, 615.413
567.481, 621.552
567.963, 621.182
568.445, 616.509
568.927, 610.935
569.409, 604.840
569.891, 600.895
570.373, 601.510
570.856, 605.005
571.338, 609.580
571.820, 615.201
572.302, 620.945
572.784, 628.940
573.266, 635.647
573.748, 637.536
574.230, 629.720
574.713, 621.779
575.195, 615.159
575.677, 609.947
576.159, 606.390
576.641, 605.756
577.123, 605.011
577.605, 603.113
578.087, 600.099
578.570, 598.047
579.052, 596.948
579.534, 596.819
580.016, 597.461
580.498, 598.931
580.980, 602.468
581.462, 608.571
581.944, 615.374
582.426, 621.704
582.909, 626.937
583.391, 628.979
583.873, 623.874
584.355, 618.143
584.837, 618.367
585.319, 623.191
585.801, 627.260
586.283, 629.601
586.765, 629.394
587.248, 624.515
587.730, 612.529
588.212, 606.462
588.694, 612.893
589.176, 622.546
589.658, 628.601
590.140, 630.285
590.622, 629.570
591.104, 624.580
591.587, 618.983
592.069, 622.542
592.551, 636.276
593.033, 646.747
593.515, 646.212
593.997, 639.419
594.479, 640.935
594.961, 650.214
595.443, 657.389
595.926, 652.669
596.408, 642.796
596.890, 635.941
597.372, 633.040
597.854, 633.953
598.336, 644.253
598.818, 656.273
599.300, 660.731
599.783, 644.575
600.265, 633.325
600.747, 635.489
601.229, 646.151
601.711, 651.510
602.193, 648.390
602.675, 645.315
603.157, 645.479
603.640, 648.691
604.122, 649.346
604.604, 646.501
605.086, 645.373
605.568, 652.375
606.050, 665.178
606.532, 674.053
607.014, 677.513
607.497, 677.648
607.979, 674.009
608.461, 668.877
608.943, 666.580
609.425, 673.453
609.907, 678.806
610.389, 673.556
610.871, 661.445
611.353, 654.950
611.836, 662.021
612.318, 671.047
612.800, 678.459
613.282, 684.371
613.764, 686.872
614.246, 684.542
614.728, 680.791
615.210, 677.700
615.692, 675.173
616.175, 674.303
616.657, 675.302
617.139, 677.630
617.621, 680.632
618.103, 684.311
618.585, 688.979
619.067, 696.862
619.549, 703.311
620.031, 700.664
620.514, 691.520
620.996, 684.400
621.478, 684.467
621.960, 687.288
622.442, 690.948
622.924, 695.368
623.406, 698.692
623.888, 699.247
624.370, 699.578
624.853, 701.243
625.335, 704.925
625.817, 708.458
626.299, 712.015
626.781, 715.194
627.263, 718.340
627.745, 721.584
628.227, 720.226
628.710, 710.990
629.192, 699.309
629.674, 695.045
630.156, 697.445
630.638, 702.808
631.120, 713.244
631.602, 722.964
632.084, 725.246
632.567, 720.240
633.049, 715.577
633.531, 714.938
634.013, 715.573
634.495, 715.407
634.977, 712.560
635.459, 712.853
635.941, 718.649
636.424, 725.897
636.906, 730.170
637.388, 730.777
637.870, 730.780
638.352, 730.685
638.834, 730.136
639.316, 727.933
639.798, 724.209
640.280, 720.927
640.763, 718.604
641.245, 717.431
641.727, 718.095
642.209, 720.416
642.691, 723.080
643.173, 725.777
643.655, 728.256
644.137, 730.679
644.619, 733.485
645.102, 734.182
645.584, 729.279
646.066, 723.865
646.548, 722.017
647.030, 725.022
647.512, 729.334
647.994, 736.041
648.476, 742.609
648.958, 743.738
649.441, 738.999
649.923, 736.117
650.405, 738.458
650.887, 743.009
651.369, 743.565
651.851, 740.791
652.333, 738.290
652.815, 738.387
653.297, 739.562
653.780, 739.661
654.262, 738.700
654.744, 740.481
655.226, 754.412
655.708, 766.060
656.190, 764.530
656.672, 738.161
657.154, 722.872
657.636, 722.383
658.119, 729.422
658.601, 737.675
659.083, 747.987
659.565, 753.518
660.047, 752.043
660.529, 747.117
661.011, 744.124
661.494, 743.141
661.976, 744.730
662.458, 753.493
662.940, 761.549
663.422, 757.597
663.904, 744.437
664.386, 734.243
664.868, 736.186
665.350, 739.960
665.833, 739.579
666.315, 733.837
666.797, 729.706
667.279, 727.478
667.761, 726.990
668.243, 728.503
668.725, 732.685
669.207, 735.664
669.690, 736.851
670.172, 737.847
670.654, 740.828
671.136, 745.504
671.618, 750.351
672.100, 755.549
672.582, 759.762
673.064, 760.966
673.546, 759.992
674.029, 758.652
674.511, 758.757
674.993, 757.764
675.475, 752.989
675.957, 745.451
676.439, 741.091
676.921, 741.594
677.403, 744.698
677.885, 750.836
678.368, 760.221
678.850, 765.532
679.332, 765.920
679.814, 764.750
680.296, 763.910
680.778, 763.523
681.260, 765.111
681.742, 769.114
682.224, 772.244
682.707, 769.552
683.189, 764.269
683.671, 761.691
684.153, 765.120
684.635, 767.874
685.117, 763.505
685.599, 757.283
686.081, 757.754
686.563, 778.753
687.046, 790.893
687.528, 786.307
688.010, 770.584
688.492, 763.580
688.974, 767.167
689.456, 770.991
689.938, 770.944
690.420, 767.738
690.903, 762.084
691.385, 754.277
691.867, 749.684
692.349, 756.086
692.831, 765.487
693.313, 767.830
693.795, 761.559
694.277, 757.819
694.760, 765.242
695.242, 774.809
695.724, 779.396
696.206, 773.877
696.688, 771.786
697.170, 775.630
697.652, 780.396
698.134, 779.964
698.617, 773.837
699.099, 766.200
699.581, 756.261
700.063, 748.157
700.545, 751.382
701.027, 762.884
701.509, 772.213
701.991, 775.928
702.473, 774.899
702.956, 765.228
703.438, 750.701
703.920, 743.134
704.402, 754.690
704.884, 766.456
705.366, 771.264
705.848, 769.366
706.330, 763.641
706.812, 749.699
707.295, 740.178
707.777, 744.986
708.259, 763.382
708.741, 771.372
709.223, 768.158
709.705, 762.836
710.187, 765.826
710.669, 771.797
711.151, 769.447
711.634, 755.136
712.116, 743.070
712.598, 743.579
713.080, 750.227
713.562, 756.240
714.044, 759.110
714.526, 762.881
715.008, 769.384
715.490, 776.117
715.973, 779.003
716.455, 777.272
716.937, 774.781
717.419, 771.937
717.901, 769.262
718.383, 767.478
718.865, 766.740
719.347, 768.135
719.830, 775.570
720.312, 782.828
720.794, 781.620
721.276, 774.101
721.758, 769.147
722.240, 769.997
722.722, 774.626
723.204, 785.784
723.687, 803.937
724.169, 808.534
724.651, 790.072
725.133, 773.470
725.615, 775.507
726.097, 796.739
726.579, 803.538
727.061, 794.221
727.544, 783.571
728.026, 785.871
728.508, 795.847
728.990, 804.164
729.472, 809.735
729.954, 811.871
730.436, 807.099
730.918, 800.077
731.400, 795.556
731.883, 796.503
732.365, 797.076
732.847, 796.952
733.329, 796.228
733.811, 794.476
734.293, 790.873
734.775, 790.480
735.257, 795.276
735.739, 801.849
736.222, 802.963
736.704, 800.014
737.186, 799.149
737.668, 805.884
738.150, 812.685
738.632, 810.720
739.114, 803.166
739.596, 798.939
740.078, 804.935
740.561, 810.959
741.043, 812.338
741.525, 810.039
742.007, 811.425
742.489, 818.419
742.971, 824.541
743.453, 827.146
743.935, 826.419
744.417, 822.552
744.900, 815.580
745.382, 809.330
745.864, 805.815
746.346, 805.052
746.828, 807.674
747.310, 813.777
747.792, 820.305
748.274, 825.952
748.757, 831.417
749.239, 837.945
749.721, 848.360
750.203, 851.699
750.685, 845.072
751.167, 835.771
751.649, 830.509
752.131, 829.334
752.614, 827.598
753.096, 824.721
753.578, 821.712
754.060, 817.780
754.542, 814.918
755.024, 817.396
755.506, 828.785
755.988, 840.472
756.471, 846.641
756.953, 850.569
757.435, 856.949
757.917, 872.702
758.399, 881.829
758.881, 880.591
759.363, 873.701
759.845, 869.929
760.327, 869.279
760.810, 872.217
761.292, 880.934
761.774, 890.619
762.256, 890.532
762.738, 883.705
763.220, 879.377
763.702, 885.066
764.184, 891.968
764.666, 893.365
765.148, 891.058
765.631, 893.197
766.113, 907.368
766.595, 918.570
767.077, 921.683
767.559, 918.024
768.041, 917.148
768.523, 918.882
769.005, 924.395
769.487, 940.196
769.970, 958.816
770.452, 959.196
770.934, 943.288
771.416, 929.265
771.898, 930.151
772.380, 935.974
772.862, 938.865
773.344, 937.600
773.827, 940.448
774.309, 953.176
774.791, 965.526
775.273, 972.281
775.755, 972.896
776.237, 973.000
776.719, 972.566
777.201, 971.866
777.683, 970.574
778.166, 969.272
778.648, 968.972
779.130, 969.667
779.612, 972.779
780.094, 982.481
780.576, 993.242
781.058, 999.214
781.541, 995.720
782.023, 996.650
782.505, 1007.141
782.987, 1018.367
783.469, 1020.754
783.951, 1011.958
784.433, 1012.282
784.915, 1025.184
785.397, 1040.840
785.880, 1046.716
786.362, 1046.322
786.844, 1048.004
787.326, 1054.133
787.808, 1061.612
788.290, 1067.589
788.772, 1074.005
789.254, 1083.219
789.737, 1101.205
790.219, 1114.307
790.701, 1118.693
791.183, 1120.261
791.665, 1128.877
792.147, 1145.424
792.629, 1159.326
793.111, 1167.902
793.593, 1174.392
794.076, 1182.891
794.558, 1192.998
795.040, 1203.568
795.522, 1214.378
796.004, 1225.488
796.486, 1236.446
796.968, 1247.950
797.450, 1261.387
797.932, 1279.603
798.415, 1295.177
798.897, 1305.624
799.379, 1313.561
799.861, 1325.669
800.343, 1341.807
800.825, 1358.585
801.307, 1372.987
801.789, 1389.722
802.271, 1415.861
802.754, 1449.874
803.236, 1488.005
803.718, 1536.560
804.200, 1579.903
804.682, 1605.180
805.164, 1618.971
805.646, 1648.582
806.128, 1698.237
806.610, 1755.442
807.093, 1818.637
807.575, 1886.151
808.057, 1948.055
808.539, 2005.938
809.021, 2073.325
809.503, 2162.641
809.985, 2260.850
810.468, 2351.311
810.950, 2438.552
811.432, 2536.827
811.914, 2655.800
812.396, 2783.113
812.878, 2912.467
813.360, 3045.628
813.842, 3195.509
814.324, 3365.729
814.807, 3542.438
815.289, 3718.392
815.771, 3897.279
816.253, 4090.649
816.735, 4297.240
817.217, 4502.588
817.699, 4696.133
818.181, 4889.624
818.664, 5102.255
819.146, 5327.950
819.628, 5525.894
820.110, 5673.282
820.592, 5810.750
821.074, 5951.198
821.556, 6092.147
822.038, 6201.666
822.520, 6275.295
823.003, 6357.142
823.485, 6465.847
823.967, 6601.606
824.449, 6768.829
824.931, 6965.270
825.413, 7187.277
825.895, 7444.799
826.377, 7714.083
826.859, 7976.733
827.342, 8232.126
827.824, 8513.730
828.306, 8844.199
828.788, 9154.050
829.270, 9430.805
829.752, 9663.745
830.234, 9811.761
830.716, 9872.779
831.198, 9849.950
831.681, 9746.690
832.163, 9559.233
832.645, 9262.502
833.127, 8866.646
833.609, 8442.439
834.091, 7961.284
834.573, 7504.293
835.055, 7089.101
835.537, 6714.553
836.020, 6405.320
836.502, 6162.375
836.984, 5980.480
837.466, 5860.688
837.948, 5797.132
838.430, 5773.176
838.912, 5789.869
839.394, 5855.011
839.877, 5983.223
840.359, 6153.505
840.841, 6350.184
841.323, 6575.643
841.805, 6850.792
842.287, 7178.952
842.769, 7550.322
843.251, 7962.640
843.734, 8415.237
844.216, 8892.676
844.698, 9396.673
845.180, 9978.396
845.662, 10695.460
846.144, 11479.370
846.626, 12255.520
847.108, 13027.600
847.591, 13818.480
848.073, 14664.410
848.555, 15503.240
849.037, 16385.619
849.519, 17255.230
850.001, 17870.461
850.483, 18253.811
850.965, 18275.350
851.447, 17858.500
851.930, 17062.949
852.412, 15915.390
852.894, 14471.340
853.376, 12995.250
853.858, 11534.260
854.340, 10171.630
854.822, 8938.611
855.304, 7840.350
855.786, 6918.017
856.269, 6193.858
856.751, 5575.072
857.233, 5059.074
857.715, 4630.355
858.197, 4265.994
858.679, 3966.274
859.161, 3703.898
859.643, 3472.572
860.125, 3271.108
860.608, 3105.079
861.090, 2970.942
861.572, 2857.619
862.054, 2775.411
862.536, 2699.481
863.018, 2620.208
863.500, 2544.977
863.982, 2494.791
864.464, 2470.969
864.947, 2457.289
865.429, 2449.849
865.911, 2448.727
866.393, 2450.823
866.875, 2459.437
867.357, 2482.140
867.839, 2525.984
868.321, 2579.944
868.804, 2643.116
869.286, 2713.594
869.768, 2784.546
870.250, 2848.232
870.732, 2935.441
871.214, 3056.754
871.696, 3189.953
872.178, 3296.890
872.661, 3385.091
873.143, 3491.007
873.625, 3635.513
874.107, 3769.124
874.589, 3879.042
875.071, 3948.644
875.553, 3957.921
876.035, 3892.682
876.518, 3774.826
877.000, 3594.163
877.482, 3374.906
877.964, 3127.273
878.446, 2856.102
878.928, 2618.375
879.410, 2425.472
879.892, 2254.645
880.374, 2081.182
880.857, 1919.590
881.339, 1788.856
881.821, 1698.472
882.303, 1620.311
882.785, 1554.601
883.267, 1493.632
883.749, 1430.905
884.231, 1363.728
884.713, 1316.074
885.196, 1289.740
885.678, 1268.686
886.160, 1239.596
886.642, 1206.005
887.124, 1171.978
887.606, 1137.543
888.088, 1109.197
888.570, 1091.187
889.052, 1078.662
889.534, 1070.100
890.017, 1065.850
890.499, 1057.478
890.981, 1044.339
891.463, 1029.549
891.945, 1013.894
892.427, 998.275
892.909, 985.841
893.391, 976.116
893.874, 965.195
894.356, 944.529
894.838, 927.981
895.320, 925.981
895.802, 936.695
896.284, 940.904
896.766, 936.906
897.248, 930.619
897.731, 923.783
898.213, 916.270
898.695, 907.062
899.177, 896.659
899.659, 886.421
900.141, 876.643
900.623, 867.829
901.105, 862.439
901.588, 858.271
902.070, 849.162
902.552, 829.571
903.034, 815.042
903.516, 808.760
903.998, 807.713
904.480, 808.435
904.962, 810.075
905.444, 806.328
905.927, 792.209
906.409, 780.874
906.891, 788.020
907.373, 802.976
907.855, 811.944
908.337, 807.613
908.819, 803.468
909.301, 799.667
909.783, 796.555
910.266, 795.099
910.748, 795.086
911.230, 793.362
911.712, 789.424
912.194, 785.850
912.676, 784.688
913.158, 785.226
913.640, 787.267
914.122, 791.356
914.605, 793.288
915.087, 790.037
915.569, 787.518
916.051, 790.238
916.533, 797.894
917.015, 797.901
917.497, 790.121
917.979, 783.023
918.461, 784.199
918.944, 787.930
919.426, 786.852
919.908, 781.775
920.390, 780.320
920.872, 790.494
921.354, 797.651
921.836, 795.612
922.318, 787.794
922.801, 789.084
923.283, 799.590
923.765, 809.349
924.247, 815.413
924.729, 817.567
925.211, 811.488
925.693, 801.891
926.175, 798.426
926.657, 812.453
927.140, 822.472
927.622, 825.088
928.104, 821.852
928.586, 811.838
929.068, 794.626
929.550, 788.207
930.032, 797.093
930.515, 810.455
930.997, 817.675
931.479, 821.307
931.961, 825.391
932.443, 831.914
932.925, 834.720
933.407, 828.279
933.889, 821.481
934.371, 820.562
934.854, 826.135
935.336, 830.253
935.818, 833.109
936.300, 832.162
936.782, 820.927
937.264, 807.550
937.746, 801.629
938.228, 803.443
938.710, 807.965
939.193, 813.509
939.675, 822.240
940.157, 837.358
940.639, 856.162
941.121, 862.510
941.603, 856.397
942.085, 850.335
942.567, 850.612
943.049, 852.754
943.532, 852.778
944.014, 850.424
944.496, 845.090
944.978, 833.212
945.460, 822.848
945.942, 816.216
946.424, 810.770
946.906, 801.807
947.388, 789.353
947.871, 781.042
948.353, 778.331
948.835, 778.312
949.317, 781.644
949.799, 784.155
950.281, 779.904
950.763, 765.000
951.245, 753.450
951.728, 747.839
952.210, 744.543
952.692, 741.616
953.174, 739.049
953.656, 736.900
954.138, 735.157
954.620, 733.524
955.102, 732.375
955.584, 730.815
956.067, 727.931
956.549, 723.813
957.031, 719.318
957.513, 712.768
957.995, 708.721
958.477, 708.686
958.959, 711.635
959.442, 716.238
959.924, 721.833
960.406, 724.568
960.888, 723.016
961.370, 718.263
961.852, 707.956
962.334, 696.150
962.816, 688.888
963.298, 687.918
963.781, 690.617
964.263, 699.310
964.745, 707.225
965.227, 704.253
965.709, 694.038
966.191, 693.671
966.673, 704.939
967.155, 713.609
967.638, 710.070
968.120, 700.565
968.602, 687.089
969.084, 669.699
969.566, 659.558
970.048, 658.020
970.530, 660.181
971.012, 665.591
971.494, 671.988
971.977, 673.791
972.459, 671.649
972.941, 667.773
973.423, 660.516
973.905, 654.751
974.387, 652.736
974.869, 653.509
975.351, 656.380
975.833, 662.963
976.316, 663.163
976.798, 654.359
977.280, 642.870
977.762, 634.715
978.244, 630.120
978.726, 630.890
979.208, 639.107
979.690, 643.759
980.172, 636.757
980.655, 628.865
981.137, 626.119
981.619, 628.553
982.101, 633.817
982.583, 642.113
983.065, 646.958
983.547, 641.657
984.029, 632.597
984.511, 625.606
984.994, 620.828
985.476, 618.267
985.958, 620.328
986.440, 621.392
986.922, 619.547
987.404, 617.124
987.886, 620.714
988.369, 629.034
988.851, 630.716
989.333, 621.349
989.815, 611.967
990.297, 613.241
990.779, 618.285
991.261, 619.743
991.743, 614.811
992.225, 611.999
992.708, 612.108
993.190, 612.483
993.672, 611.750
994.154, 609.730
994.636, 604.229
995.118, 596.029
995.600, 591.000
996.082, 595.968
996.565, 601.288
997.047, 601.734
997.529, 598.727
998.011, 596.069
998.493, 593.522
998.975, 593.140
999.457, 596.314
999.939, 599.676
1000.421, 597.532
1000.904, 592.667
1001.386, 589.719
1001.868, 589.443
1002.350, 592.230
1002.832, 602.969
1003.314, 612.103
1003.796, 613.081
1004.278, 605.894
1004.760, 594.359
1005.243, 578.594
1005.725, 564.827
1006.207, 554.768
1006.689, 551.100
1007.171, 561.547
1007.653, 582.443
1008.135, 592.820
1008.617, 583.965
1009.099, 578.819
1009.582, 583.957
1010.064, 593.006
1010.546, 593.056
1011.028, 586.620
1011.510, 582.048
1011.992, 581.770
1012.474, 582.679
1012.956, 584.212
1013.438, 585.287
1013.921, 585.033
1014.403, 583.449
1014.885, 580.315
1015.367, 575.443
1015.849, 570.215
1016.331, 562.932
1016.813, 557.360
1017.295, 562.297
1017.778, 575.073
1018.260, 583.089
1018.742, 578.708
1019.224, 572.458
1019.706, 565.415
1020.188, 559.133
1020.670, 557.444
1021.152, 559.911
1021.634, 562.661
1022.117, 565.424
1022.599, 565.615
1023.081, 557.466
1023.563, 547.798
1024.045, 543.820
1024.527, 547.902
1025.009, 551.738
1025.491, 556.118
1025.974, 557.955
1026.456, 551.611
1026.938, 542.602
1027.420, 547.768
1027.902, 563.407
1028.384, 574.790
1028.866, 573.822
1029.348, 568.603
1029.830, 557.793
1030.313, 546.787
1030.795, 545.492
1031.277, 554.408
1031.759, 563.058
1032.241, 570.520
1032.723, 573.817
1033.205, 565.960
1033.687, 554.665
1034.170, 548.631
1034.652, 550.003
1035.134, 549.153
1035.616, 543.260
1036.098, 539.412
1036.580, 541.542
1037.062, 547.805
1037.544, 553.916
1038.026, 559.198
1038.509, 561.197
1038.991, 554.659
1039.473, 549.283
1039.955, 549.771
1040.437, 553.664
1040.919, 557.748
1041.401, 562.211
1041.883, 566.529
1042.365, 570.936
1042.848, 573.266
1043.330, 568.823
1043.812, 562.794
1044.294, 562.502
1044.776, 568.223
1045.258, 569.918
1045.740, 562.915
1046.222, 556.828
1046.705, 554.565
1047.187, 554.990
1047.669, 556.416
1048.151, 558.180
1048.633, 557.437
1049.115, 551.546
1049.597, 546.889
1050.079, 548.464
1050.562, 552.017
1051.044, 552.952
1051.526, 550.270
1052.008, 550.643
1052.490, 554.373
1052.972, 558.441
1053.454, 563.131
1053.936, 565.175
1054.418, 556.630
1054.901, 540.922
1055.383, 533.024
1055.865, 543.322
1056.347, 551.955
1056.829, 556.739
1057.311, 557.254
1057.793, 550.199
1058.275, 538.142
1058.757, 529.917
1059.240, 527.285
1059.722, 528.070
1060.204, 534.444
1060.686, 540.902
1061.168, 543.862
1061.650, 543.440
1062.132, 541.359
1062.614, 537.393
1063.097, 535.609
1063.579, 539.443
1064.061, 544.698
1064.543, 546.481
1065.025, 546.292
1065.507, 546.924
1065.989, 551.490
1066.471, 552.710
1066.953, 549.569
1067.436, 544.719
1067.918, 539.137
1068.400, 534.102
1068.882, 535.106
1069.364, 541.816
1069.846, 546.010
1070.328, 539.732
1070.810, 534.133
1071.292, 534.687
1071.775, 539.036
1072.257, 540.437
1072.739, 538.928
1073.221, 537.721
1073.703, 537.535
1074.185, 538.072
1074.667, 540.122
1075.149, 542.096
1075.631, 541.833
1076.114, 538.085
1076.596, 537.475
1077.078, 541.046
1077.560, 544.445
1078.042, 545.487
1078.524, 544.568
1079.006, 541.201
1079.488, 536.506
1079.971, 533.630
1080.453, 536.315
1080.935, 537.293
1081.417, 533.373
1081.899, 529.545
1082.381, 533.028
1082.863, 542.488
1083.345, 546.442
1083.828, 544.074
1084.310, 542.148
1084.792, 545.641
1085.274, 550.780
1085.756, 556.922
1086.238, 562.774
1086.720, 562.643
1087.202, 555.726
1087.684, 548.744
1088.167, 543.235
1088.649, 538.797
1089.131, 534.290
1089.613, 530.951
1090.095, 530.814
1090.577, 535.401
1091.059, 538.972
1091.541, 541.866
1092.023, 542.268
1092.506, 537.187
1092.988, 529.969
1093.470, 530.847
1093.952, 537.420
1094.434, 541.998
1094.916, 541.601
1095.398, 537.994
1095.880, 526.119
1096.363, 516.227
1096.845, 522.496
1097.327, 543.605
1097.809, 552.384
1098.291, 547.353
1098.773, 538.676
1099.255, 528.834
1099.737, 522.241
1100.219, 523.391
1100.702, 530.736
1101.184, 538.406
1101.666, 547.378
1102.148, 550.462
1102.630, 544.820
1103.112, 537.823
1103.594, 540.434
1104.076, 546.032
1104.558, 545.465
1105.041, 535.967
1105.523, 529.669
1106.005, 527.526
1106.487, 528.515
1106.969, 533.428
1107.451, 540.100
1107.933, 543.375
1108.415, 543.915
1108.898, 543.182
1109.380, 540.292
1109.862, 538.717
1110.344, 541.825
1110.826, 544.008
1111.308, 539.635
1111.790, 529.421
1112.272, 521.739
1112.755, 516.901
1113.237, 516.768
1113.719, 527.490
1114.201, 538.131
1114.683, 542.403
1115.165, 542.150
1115.647, 540.264
1116.129, 536.005
1116.611, 537.386
1117.094, 546.148
1117.576, 554.958
1118.058, 559.195
1118.540, 558.282
1119.022, 547.351
1119.504, 527.161
1119.986, 522.146
1120.468, 539.239
1120.950, 550.768
1121.433, 546.909
1121.915, 537.023
1122.397, 535.642
1122.879, 539.008
1123.361, 540.643
1123.843, 538.281
1124.325, 537.472
1124.807, 540.307
1125.290, 542.410
1125.772, 540.156
1126.254, 535.862
1126.736, 537.986
1127.218, 545.081
1127.700, 552.133
1128.182, 560.367
1128.664, 563.294
1129.146, 554.386
1129.629, 543.089
1130.111, 536.919
1130.593, 535.796
1131.075, 540.028
1131.557, 549.149
1132.039, 555.679
1132.521, 551.261
1133.003, 546.288
1133.485, 548.045
1133.968, 553.472
1134.450, 555.774
1134.932, 554.730
1135.414, 552.598
1135.896, 549.529
1136.378, 546.690
1136.860, 546.557
1137.342, 546.208
1137.825, 541.159
1138.307, 531.854
1138.789, 530.164
1139.271, 538.490
1139.753, 545.372
1140.235, 547.641
1140.717, 546.837
1141.199, 541.901
1141.682, 536.788
1142.164, 538.679
1142.646, 552.091
1143.128, 556.696
1143.610, 548.115
1144.092, 537.815
1144.574, 530.229
1145.056, 525.732
1145.538, 525.978
1146.021, 529.893
1146.503, 534.978
1146.985, 543.365
1147.467, 547.458
1147.949, 545.320
1148.431, 540.294
1148.913, 533.159
1149.395, 525.231
1149.877, 523.360
1150.360, 526.771
1150.842, 530.887
1151.324, 533.009
1151.806, 535.947
1152.288, 541.799
1152.770, 547.939
1153.252, 551.041
1153.734, 551.281
1154.217, 550.348
1154.699, 548.391
1155.181, 547.065
1155.663, 551.102
1156.145, 552.456
1156.627, 541.791
1157.109, 526.172
1157.591, 521.947
1158.073, 529.265
1158.556, 539.288
1159.038, 551.090
1159.520, 560.177
1160.002, 559.842
1160.484, 557.369
1160.966, 561.573
1161.448, 571.018
1161.930, 565.131
1162.412, 541.093
1162.895, 526.645
1163.377, 533.160
1163.859, 544.900
1164.341, 543.930
1164.823, 538.958
1165.305, 541.739
1165.787, 556.607
1166.269, 559.489
1166.752, 547.915
1167.234, 537.376
1167.716, 536.629
1168.198, 539.508
1168.680, 535.435
1169.162, 529.443
1169.644, 530.808
1170.126, 548.948
1170.609, 558.017
1171.091, 556.179
1171.573, 550.682
1172.055, 544.472
1172.537, 539.276
1173.019, 540.043
1173.501, 544.363
1173.983, 545.477
1174.465, 535.481
1174.948, 531.682
1175.430, 537.191
1175.912, 544.473
1176.394, 545.690
1176.876, 543.350
1177.358, 543.266
1177.840, 545.154
1178.322, 545.578
1178.804, 541.334
1179.287, 538.294
1179.769, 537.708
1180.251, 538.270
1180.733, 537.249
1181.215, 536.054
1181.697, 540.075
1182.179, 549.486
1182.661, 555.225
1183.144, 549.437
1183.626, 544.112
1184.108, 542.258
1184.590, 543.401
1185.072, 549.060
1185.554, 556.871
1186.036, 558.332
1186.518, 551.282
1187.000, 543.859
1187.483, 537.152
1187.965, 534.338
1188.447, 537.752
1188.929, 545.224
1189.411, 552.112
1189.893, 557.372
1190.375, 555.355
1190.857, 541.278
1191.339, 531.014
1191.822, 536.479
1192.304, 544.457
1192.786, 547.699
1193.268, 546.870
1193.750, 545.231
1194.232, 542.931
1194.714, 540.757
1195.196, 538.752
1195.678, 537.548
1196.161, 537.495
1196.643, 538.425
1197.125, 540.860
1197.607, 544.544
1198.089, 544.185
1198.571, 540.342
1199.053, 537.780
1199.535, 539.986
1200.018, 542.618
1200.500, 543.597
1200.982, 544.016
1201.464, 544.487
1201.946, 545.007
1202.428, 549.252
1202.910, 556.789
1203.392, 562.393
1203.875, 560.843
1204.357, 558.798
1204.839, 561.668
1205.321, 564.829
1205.803, 560.610
1206.285, 549.034
1206.767, 545.203
1207.249, 549.646
1207.731, 553.545
1208.214, 548.317
1208.696, 543.523
1209.178, 546.894
1209.660, 553.398
1210.142, 553.819
1210.624, 548.363
1211.106, 545.131
1211.588, 544.948
1212.070, 546.006
1212.553, 548.474
1213.035, 550.291
1213.517, 548.742
1213.999, 546.087
1214.481, 548.456
1214.963, 555.442
1215.445, 557.573
1215.927, 552.874
1216.410, 549.126
1216.892, 556.951
1217.374, 562.516
1217.856, 553.675
1218.338, 536.683
1218.820, 530.286
1219.302, 533.927
1219.784, 538.411
1220.266, 541.913
1220.749, 545.115
1221.231, 550.870
1221.713, 554.045
1222.195, 549.316
1222.677, 539.538
1223.159, 537.719
1223.641, 543.039
1224.123, 546.937
1224.605, 546.429
1225.088, 546.733
1225.570, 553.498
1226.052, 560.105
1226.534, 562.284
1227.016, 560.498
1227.498, 556.597
1227.980, 550.924
1228.462, 545.994
1228.945, 541.872
1229.427, 540.766
1229.909, 546.647
##END=



