##NAMES=Tilleyite
##RRUFFID=R050227
##IDEAL CHEMISTRY=Ca_5_Si_2_O_7_(CO_3_)_2_
##LOCALITY=Crestmore Quarry, Riverside County, California, USA
##OWNER=RRUFF
##SOURCE=Marcus Origlieri
##DESCRIPTION=Aggregate of colorless subhedral crystals
##STATUS=The identification of this mineral has been confirmed by X-ray diffraction.
##URL=rruff.info/R050227
91.33551, 0.0000000E+00
91.81763, 0.0000000E+00
92.29974, 0.0000000E+00
92.78186, 0.0000000E+00
93.26398, 0.0000000E+00
93.74609, 7.919522
94.22821, 7.787484
94.71033, 7.780372
95.19244, 7.910806
95.67456, 8.230089
96.15668, 8.802104
96.63879, 9.589574
97.12091, 10.46326
97.60303, 11.42338
98.08514, 12.47729
98.56726, 13.62410
99.04938, 14.86904
99.53149, 16.19963
100.0136, 17.48565
100.4957, 18.70735
100.9778, 20.46149
101.4600, 22.84306
101.9421, 25.73500
102.4242, 28.74047
102.9063, 31.87482
103.3884, 35.14192
103.8705, 38.59361
104.3527, 42.47314
104.8348, 45.91459
105.3169, 48.77350
105.7990, 51.08080
106.2811, 53.46006
106.7632, 55.87091
107.2454, 58.37355
107.7275, 60.97797
108.2096, 63.72260
108.6917, 66.56921
109.1738, 69.60142
109.6559, 72.92007
110.1381, 75.93349
110.6202, 78.54491
111.1023, 80.90571
111.5844, 83.18185
112.0665, 85.44060
112.5486, 87.58266
113.0308, 89.43053
113.5129, 90.68493
113.9950, 92.67120
114.4771, 95.90029
114.9592, 99.90054
115.4413, 104.0072
115.9235, 107.4311
116.4056, 111.3825
116.8877, 116.3776
117.3698, 122.7349
117.8519, 129.7956
118.3340, 137.0046
118.8162, 144.7123
119.2983, 153.7380
119.7804, 165.0179
120.2625, 177.5902
120.7446, 190.9588
121.2267, 207.0805
121.7089, 221.2110
122.1910, 231.0816
122.6731, 236.6918
123.1552, 238.0407
123.6373, 234.1103
124.1194, 226.2324
124.6015, 215.7432
125.0837, 201.5076
125.5658, 186.3385
126.0479, 172.7211
126.5300, 160.6591
127.0121, 150.2068
127.4942, 141.2641
127.9764, 134.0006
128.4585, 128.5842
128.9406, 125.8850
129.4227, 124.8885
129.9048, 123.7788
130.3869, 122.5006
130.8691, 121.6593
131.3512, 122.1798
131.8333, 123.8747
132.3154, 125.6347
132.7975, 126.7010
133.2796, 127.3514
133.7618, 128.7557
134.2439, 130.6790
134.7260, 132.6281
135.2081, 134.7251
135.6902, 137.2725
136.1723, 140.2868
136.6545, 143.7472
137.1366, 147.6335
137.6187, 152.0950
138.1008, 157.1690
138.5829, 162.7962
139.0650, 169.2935
139.5472, 177.0409
140.0293, 184.2739
140.5114, 190.2164
140.9935, 194.9271
141.4756, 198.3912
141.9577, 200.7820
142.4399, 201.9896
142.9220, 201.4177
143.4041, 198.6488
143.8862, 194.9172
144.3683, 190.8311
144.8504, 186.2086
145.3326, 181.6900
145.8147, 177.2486
146.2968, 172.9003
146.7789, 169.3567
147.2610, 166.5337
147.7431, 164.5266
148.2253, 163.4028
148.7074, 163.5539
149.1895, 164.0024
149.6716, 164.3909
150.1537, 164.6756
150.6358, 166.1779
151.1180, 169.0994
151.6001, 173.1012
152.0822, 177.8653
152.5643, 183.7762
153.0464, 190.0228
153.5285, 196.1993
154.0107, 202.0667
154.4928, 209.3176
154.9749, 218.5673
155.4570, 229.0745
155.9391, 240.0873
156.4212, 253.1214
156.9034, 265.3080
157.3855, 276.4256
157.8676, 286.7263
158.3497, 293.9106
158.8318, 298.1786
159.3139, 299.0124
159.7961, 295.8079
160.2782, 286.8315
160.7603, 275.1217
161.2424, 261.4759
161.7245, 245.5404
162.2066, 229.4351
162.6888, 212.7952
163.1709, 196.5603
163.6530, 182.2615
164.1351, 170.8804
164.6172, 161.2857
165.0993, 152.9294
165.5815, 145.8213
166.0636, 139.5887
166.5457, 133.9977
167.0278, 129.0877
167.5099, 124.9450
167.9920, 121.7339
168.4742, 119.2304
168.9563, 117.2990
169.4384, 115.9852
169.9205, 115.0578
170.4026, 114.3571
170.8847, 113.9100
171.3669, 113.8039
171.8490, 113.9704
172.3311, 114.5484
172.8132, 115.7206
173.2953, 117.6434
173.7774, 119.9611
174.2596, 122.3073
174.7417, 124.7596
175.2238, 127.5979
175.7059, 130.8512
176.1880, 134.6079
176.6701, 139.0215
177.1523, 144.2942
177.6344, 150.0195
178.1165, 155.8976
178.5986, 161.9370
179.0807, 167.8396
179.5628, 174.1662
180.0450, 180.2366
180.5271, 184.6265
181.0092, 187.0835
181.4913, 187.6970
181.9734, 186.2357
182.4555, 182.7819
182.9377, 178.3479
183.4198, 173.7806
183.9019, 168.8361
184.3840, 162.7707
184.8661, 154.7203
185.3482, 145.9458
185.8304, 138.5759
186.3125, 132.6477
186.7946, 127.6104
187.2767, 123.0614
187.7588, 118.9842
188.2409, 115.5179
188.7231, 112.6278
189.2052, 110.3645
189.6873, 108.9786
190.1694, 108.4991
190.6515, 108.3582
191.1336, 107.8997
191.6158, 107.2010
192.0979, 106.9862
192.5800, 107.5687
193.0621, 108.7570
193.5442, 109.8714
194.0263, 110.9002
194.5084, 111.9941
194.9906, 113.4032
195.4727, 115.1115
195.9548, 116.6483
196.4369, 117.9618
196.9190, 118.9963
197.4011, 119.4394
197.8833, 119.2651
198.3654, 118.6224
198.8475, 117.6064
199.3296, 116.2033
199.8117, 114.6772
200.2938, 113.1394
200.7760, 111.5639
201.2581, 109.6164
201.7402, 107.2207
202.2223, 104.6875
202.7044, 102.3354
203.1865, 100.1931
203.6687, 98.17312
204.1508, 96.28909
204.6329, 94.52922
205.1150, 92.73318
205.5971, 90.92101
206.0792, 89.02888
206.5614, 86.81791
207.0435, 84.14095
207.5256, 81.99174
208.0077, 80.78023
208.4898, 80.48376
208.9719, 79.93745
209.4541, 79.00709
209.9362, 78.05708
210.4183, 77.57552
210.9004, 77.70851
211.3825, 77.78661
211.8646, 77.58372
212.3468, 77.09197
212.8289, 76.82272
213.3110, 76.79009
213.7931, 76.96064
214.2752, 77.28855
214.7573, 77.76637
215.2395, 78.43983
215.7216, 79.37640
216.2037, 80.57930
216.6858, 81.73912
217.1679, 82.89352
217.6500, 83.96281
218.1322, 84.74895
218.6143, 84.99833
219.0964, 85.64758
219.5785, 87.08619
220.0606, 89.39010
220.5427, 91.03570
221.0249, 91.61479
221.5070, 91.98614
221.9891, 93.18189
222.4712, 95.58121
222.9533, 97.97229
223.4354, 100.0070
223.9176, 101.6878
224.3997, 103.4410
224.8818, 105.2875
225.3639, 107.2000
225.8460, 109.1765
226.3281, 111.1745
226.8103, 113.3171
227.2924, 115.6923
227.7745, 118.3653
228.2566, 120.5780
228.7387, 122.1428
229.2208, 123.4467
229.7030, 124.8591
230.1851, 126.4232
230.6672, 128.0409
231.1493, 129.6999
231.6314, 131.4004
232.1135, 133.1217
232.5957, 134.8627
233.0778, 136.6243
233.5599, 138.4158
234.0420, 140.3672
234.5241, 142.0873
235.0062, 143.4857
235.4883, 144.5509
235.9705, 145.4384
236.4526, 146.1869
236.9347, 146.7280
237.4168, 147.0474
237.8989, 147.3495
238.3810, 147.0223
238.8632, 145.8523
239.3453, 143.8386
239.8274, 141.7369
240.3095, 139.5885
240.7916, 137.2876
241.2737, 134.7384
241.7559, 131.8970
242.2380, 128.8875
242.7201, 125.5783
243.2022, 122.0060
243.6843, 119.0749
244.1664, 117.0288
244.6486, 115.3092
245.1307, 113.4451
245.6128, 111.1338
246.0949, 109.3053
246.5770, 108.1509
247.0591, 107.6196
247.5413, 107.2400
248.0234, 107.0854
248.5055, 106.9938
248.9876, 106.8144
249.4697, 106.3460
249.9518, 106.2361
250.4340, 106.6308
250.9161, 107.4562
251.3982, 108.2238
251.8803, 108.6486
252.3624, 109.4026
252.8445, 111.0013
253.3267, 113.9645
253.8088, 116.5141
254.2909, 118.3134
254.7730, 119.6038
255.2551, 121.3526
255.7372, 123.6442
256.2194, 126.2498
256.7015, 129.0695
257.1836, 132.2728
257.6657, 135.2748
258.1478, 138.0036
258.6299, 140.5170
259.1121, 143.1160
259.5942, 146.0002
260.0763, 148.6310
260.5584, 150.8946
261.0405, 152.9549
261.5226, 153.9745
262.0048, 153.4622
262.4869, 152.1455
262.9690, 151.8882
263.4511, 153.2731
263.9332, 154.4568
264.4153, 154.4897
264.8975, 152.9237
265.3796, 151.9779
265.8617, 151.7338
266.3438, 152.0280
266.8259, 152.5813
267.3080, 153.4068
267.7902, 154.4491
268.2723, 155.6909
268.7544, 157.1698
269.2365, 158.6322
269.7186, 159.9018
270.2007, 161.3771
270.6829, 163.7836
271.1650, 167.3823
271.6471, 170.9419
272.1292, 173.8433
272.6113, 176.0560
273.0934, 179.0223
273.5756, 182.9394
274.0577, 187.2103
274.5398, 191.0859
275.0219, 194.4175
275.5040, 198.0145
275.9861, 202.2783
276.4683, 207.1173
276.9504, 211.3305
277.4325, 214.8757
277.9146, 217.9045
278.3967, 220.5748
278.8788, 222.8858
279.3610, 224.7539
279.8431, 226.0714
280.3252, 226.9087
280.8073, 227.6522
281.2894, 228.2837
281.7715, 228.8990
282.2537, 229.5166
282.7358, 230.1314
283.2179, 231.0578
283.7000, 232.5371
284.1821, 234.2624
284.6642, 235.0697
285.1464, 234.8528
285.6285, 234.6963
286.1106, 235.4433
286.5927, 237.0448
287.0748, 238.8201
287.5569, 240.6625
288.0391, 242.6516
288.5212, 245.0843
289.0033, 247.9788
289.4854, 250.6817
289.9675, 252.8821
290.4496, 254.5721
290.9318, 255.7457
291.4139, 256.5346
291.8960, 256.5245
292.3781, 254.7212
292.8602, 251.2390
293.3423, 247.4924
293.8245, 244.1208
294.3066, 241.0493
294.7887, 237.9175
295.2708, 234.6466
295.7529, 231.7123
296.2350, 229.5447
296.7172, 228.1919
297.1992, 227.8185
297.6814, 228.6154
298.1635, 230.4222
298.6456, 233.0736
299.1277, 236.6223
299.6098, 240.4360
300.0919, 243.8471
300.5741, 246.9814
301.0562, 250.0647
301.5383, 254.0215
302.0204, 257.5530
302.5025, 258.6834
302.9846, 257.4617
303.4668, 254.7502
303.9489, 250.9813
304.4310, 246.2563
304.9131, 240.4965
305.3952, 233.1275
305.8773, 225.3958
306.3595, 218.4168
306.8416, 212.2418
307.3237, 206.9624
307.8058, 203.2843
308.2879, 200.3767
308.7701, 197.0817
309.2522, 192.5633
309.7343, 188.6669
310.2164, 187.2719
310.6985, 187.7398
311.1806, 188.3017
311.6628, 187.9195
312.1449, 187.2564
312.6270, 186.9031
313.1091, 186.9964
313.5912, 187.2113
314.0733, 187.5340
314.5555, 187.8309
315.0376, 187.8649
315.5197, 187.4790
316.0018, 186.8328
316.4839, 186.0071
316.9660, 184.9979
317.4482, 183.8626
317.9303, 182.5475
318.4124, 181.1499
318.8945, 179.7661
319.3766, 178.2777
319.8587, 176.9573
320.3409, 176.0635
320.8230, 175.5860
321.3051, 174.9042
321.7872, 173.7793
322.2693, 172.4159
322.7514, 170.9752
323.2336, 170.0341
323.7157, 168.4406
324.1978, 165.6108
324.6799, 161.7810
325.1620, 158.1942
325.6441, 155.1439
326.1263, 152.3034
326.6084, 149.5020
327.0905, 146.5782
327.5726, 143.8904
328.0547, 141.4967
328.5368, 139.3660
329.0190, 137.3455
329.5011, 135.3609
329.9832, 133.5724
330.4653, 132.0042
330.9474, 130.5589
331.4295, 129.5900
331.9117, 129.1515
332.3938, 129.1712
332.8759, 129.5761
333.3580, 130.6617
333.8401, 131.6933
334.3222, 132.4409
334.8044, 132.8700
335.2865, 133.4185
335.7686, 133.9113
336.2507, 134.7162
336.7328, 136.3344
337.2149, 139.2989
337.6971, 141.6368
338.1792, 142.7795
338.6613, 142.9797
339.1434, 143.9413
339.6255, 145.8732
340.1076, 148.0847
340.5898, 150.2108
341.0719, 152.2375
341.5540, 154.0405
342.0361, 155.6615
342.5182, 156.9712
343.0003, 157.4776
343.4825, 157.0639
343.9646, 156.6593
344.4467, 156.6745
344.9288, 157.1059
345.4109, 158.0580
345.8930, 159.6215
346.3752, 161.4128
346.8573, 162.8406
347.3394, 163.9467
347.8215, 165.0831
348.3036, 166.1957
348.7857, 167.4742
349.2679, 169.5616
349.7500, 172.4687
350.2321, 175.7386
350.7142, 179.1068
351.1963, 182.4684
351.6784, 185.5674
352.1606, 188.2432
352.6427, 190.6772
353.1248, 193.3210
353.6069, 196.1034
354.0890, 198.4151
354.5711, 199.7175
355.0533, 200.3305
355.5354, 200.6932
356.0175, 200.8578
356.4996, 200.8546
356.9817, 201.0418
357.4638, 201.1116
357.9460, 200.3268
358.4281, 197.6069
358.9102, 194.3297
359.3923, 191.5114
359.8744, 189.2354
360.3565, 187.4917
360.8387, 186.7231
361.3208, 186.3643
361.8029, 185.7210
362.2850, 183.9043
362.7671, 182.3351
363.2492, 181.8203
363.7314, 182.2817
364.2135, 182.6332
364.6956, 182.4738
365.1777, 182.0933
365.6598, 181.6821
366.1419, 180.9259
366.6241, 180.5708
367.1062, 181.0144
367.5883, 181.9957
368.0704, 182.7442
368.5525, 183.7876
369.0346, 184.0627
369.5168, 183.0607
369.9989, 180.1534
370.4810, 177.3941
370.9631, 174.8844
371.4452, 172.4650
371.9273, 169.9232
372.4095, 167.3596
372.8916, 164.5585
373.3737, 161.4051
373.8558, 157.8733
374.3379, 154.3377
374.8200, 150.6098
375.3022, 147.0809
375.7843, 144.2487
376.2664, 142.4303
376.7485, 140.0980
377.2306, 136.8456
377.7127, 133.0411
378.1949, 129.9699
378.6770, 127.7666
379.1591, 125.8512
379.6412, 123.9267
380.1233, 121.9747
380.6054, 120.2068
381.0875, 118.6067
381.5696, 117.2552
382.0518, 116.4694
382.5339, 116.2054
383.0160, 115.5987
383.4981, 114.0231
383.9802, 111.8908
384.4623, 110.5664
384.9445, 110.0732
385.4266, 109.6885
385.9087, 108.5974
386.3908, 107.1019
386.8729, 105.9849
387.3550, 105.5149
387.8372, 105.3804
388.3193, 105.2707
388.8014, 105.1830
389.2835, 105.1025
389.7656, 105.1305
390.2477, 105.1096
390.7299, 104.7746
391.2120, 103.9922
391.6941, 103.3622
392.1762, 103.4760
392.6583, 103.9898
393.1404, 104.3586
393.6226, 104.1742
394.1047, 103.9512
394.5868, 103.9996
395.0689, 104.3183
395.5510, 104.5737
396.0331, 104.5062
396.5153, 104.4048
396.9974, 104.4906
397.4795, 105.0088
397.9616, 105.4836
398.4437, 105.8414
398.9258, 106.0962
399.4080, 106.2914
399.8901, 106.4240
400.3722, 106.5045
400.8543, 106.5177
401.3364, 106.4070
401.8185, 106.3877
402.3007, 106.3943
402.7828, 106.5311
403.2649, 106.9601
403.7470, 107.8902
404.2291, 108.7130
404.7112, 109.2586
405.1934, 109.5594
405.6755, 109.9990
406.1576, 110.6733
406.6397, 111.2645
407.1218, 111.4696
407.6039, 111.2238
408.0861, 111.2020
408.5682, 111.5945
409.0503, 112.0639
409.5324, 111.7899
410.0145, 110.7489
410.4966, 109.9420
410.9788, 109.9914
411.4609, 110.7023
411.9430, 111.2566
412.4251, 111.6448
412.9072, 111.9672
413.3893, 112.2986
413.8715, 112.6493
414.3536, 113.0494
414.8357, 113.5276
415.3178, 114.0369
415.7999, 114.3799
416.2820, 114.6410
416.7642, 115.2090
417.2463, 116.6832
417.7284, 118.4172
418.2105, 119.6552
418.6926, 120.1923
419.1747, 120.6882
419.6569, 121.7631
420.1390, 123.0344
420.6211, 123.8858
421.1032, 123.5542
421.5853, 123.2784
422.0674, 123.7707
422.5496, 125.0093
423.0317, 125.9393
423.5138, 126.1656
423.9959, 126.0748
424.4780, 125.9221
424.9601, 125.8407
425.4423, 125.5685
425.9244, 125.2040
426.4065, 124.6276
426.8886, 123.5505
427.3707, 121.5284
427.8528, 119.5356
428.3350, 117.8504
428.8171, 116.4931
429.2992, 115.3100
429.7813, 114.3304
430.2634, 113.4901
430.7455, 112.7460
431.2277, 112.1397
431.7098, 111.4477
432.1919, 110.5583
432.6740, 109.5978
433.1561, 109.0455
433.6382, 108.9515
434.1204, 108.8261
434.6025, 108.2460
435.0846, 107.3239
435.5667, 106.7843
436.0488, 106.6946
436.5309, 106.7949
437.0131, 106.8718
437.4952, 106.8935
437.9773, 106.7394
438.4594, 106.2703
438.9415, 105.6792
439.4236, 105.1762
439.9058, 104.7660
440.3879, 104.4868
440.8700, 104.4514
441.3521, 104.5159
441.8342, 104.5053
442.3163, 104.3372
442.7985, 104.2502
443.2806, 104.4269
443.7627, 104.7666
444.2448, 105.1121
444.7269, 105.5705
445.2090, 105.8690
445.6912, 105.8518
446.1733, 105.5136
446.6554, 105.1406
447.1375, 104.5127
447.6196, 104.0505
448.1017, 104.0256
448.5839, 105.1352
449.0660, 105.7659
449.5481, 105.6561
450.0302, 105.1262
450.5123, 104.8509
450.9944, 104.9002
451.4766, 105.0926
451.9587, 105.4421
452.4408, 105.9691
452.9229, 106.2083
453.4050, 106.0927
453.8871, 105.8581
454.3693, 105.6816
454.8514, 105.5601
455.3335, 105.5882
455.8156, 105.8366
456.2977, 106.1592
456.7798, 106.2275
457.2620, 106.0599
457.7441, 105.9020
458.2262, 105.8450
458.7083, 105.8979
459.1904, 106.1148
459.6725, 106.5023
460.1547, 106.9231
460.6368, 107.3831
461.1189, 107.7716
461.6010, 107.8531
462.0831, 107.2373
462.5652, 106.7507
463.0473, 107.2157
463.5294, 108.3304
464.0116, 109.2367
464.4937, 109.3762
464.9758, 109.3212
465.4579, 109.3779
465.9400, 109.5950
466.4221, 109.8207
466.9043, 109.9915
467.3864, 110.1648
467.8685, 110.3949
468.3506, 110.8241
468.8327, 111.1468
469.3148, 111.3257
469.7970, 111.3762
470.2791, 111.3411
470.7612, 111.1297
471.2433, 110.9684
471.7254, 110.9013
472.2076, 110.8842
472.6897, 111.3563
473.1718, 112.5594
473.6539, 113.7947
474.1360, 114.1541
474.6181, 113.5965
475.1003, 113.0776
475.5824, 112.7457
476.0645, 112.6447
476.5466, 113.0285
477.0287, 113.8546
477.5108, 114.5685
477.9930, 114.7691
478.4751, 114.6313
478.9572, 114.4351
479.4393, 114.1861
479.9214, 114.0329
480.4035, 114.0347
480.8857, 114.2350
481.3678, 114.7261
481.8499, 115.9193
482.3320, 116.9786
482.8141, 117.3169
483.2962, 117.0945
483.7784, 116.7956
484.2605, 116.3698
484.7426, 116.1082
485.2247, 116.2714
485.7068, 117.0655
486.1889, 117.4946
486.6711, 117.0104
487.1532, 116.3263
487.6353, 116.1114
488.1174, 116.7134
488.5995, 117.2380
489.0816, 117.5633
489.5638, 117.7522
490.0459, 118.0481
490.5280, 118.5295
491.0101, 118.9181
491.4922, 119.0818
491.9743, 119.0159
492.4565, 118.8386
492.9386, 118.4901
493.4207, 118.2528
493.9028, 118.5860
494.3849, 119.3771
494.8670, 119.7492
495.3492, 119.1668
495.8313, 118.7006
496.3134, 120.5894
496.7955, 124.1805
497.2776, 127.0545
497.7597, 127.7202
498.2419, 127.0580
498.7240, 125.4985
499.2061, 123.0722
499.6882, 121.2617
500.1703, 121.3504
500.6524, 122.2615
501.1346, 123.0073
501.6167, 123.4004
502.0988, 123.5525
502.5809, 123.3419
503.0630, 122.9205
503.5451, 122.6067
504.0273, 122.1932
504.5094, 122.1577
504.9915, 122.7299
505.4736, 123.9289
505.9557, 125.0064
506.4378, 126.0643
506.9200, 126.8446
507.4021, 127.0718
507.8842, 126.5761
508.3663, 126.3192
508.8484, 126.3707
509.3305, 126.6664
509.8127, 127.2390
510.2948, 128.0782
510.7769, 128.6453
511.2590, 128.5721
511.7411, 128.1773
512.2232, 128.1889
512.7053, 128.5906
513.1874, 129.2057
513.6696, 130.0559
514.1517, 130.9871
514.6338, 131.7406
515.1159, 132.2328
515.5980, 132.7877
516.0801, 133.7662
516.5623, 134.9048
517.0444, 135.8520
517.5265, 136.2538
518.0086, 136.6805
518.4907, 137.3179
518.9728, 138.1437
519.4550, 139.0533
519.9371, 139.9475
520.4192, 140.9921
520.9013, 142.2868
521.3834, 143.9424
521.8655, 145.3843
522.3477, 146.5130
522.8298, 147.5383
523.3119, 148.5901
523.7940, 149.5535
524.2761, 151.0362
524.7582, 153.2833
525.2404, 155.9268
525.7225, 158.2088
526.2046, 160.1417
526.6867, 161.5659
527.1688, 162.2176
527.6509, 162.3355
528.1331, 162.6284
528.6152, 163.0870
529.0973, 163.2350
529.5794, 162.6004
530.0615, 161.4580
530.5436, 160.1602
531.0258, 158.6959
531.5079, 157.2832
531.9900, 156.0913
532.4721, 154.9989
532.9542, 153.8355
533.4363, 152.3374
533.9185, 150.9563
534.4006, 149.7676
534.8827, 148.7951
535.3648, 148.1252
535.8469, 147.9052
536.3290, 147.8655
536.8112, 147.9314
537.2933, 148.1492
537.7754, 148.2791
538.2575, 148.2889
538.7396, 148.2514
539.2217, 148.2019
539.7039, 148.1192
540.1860, 148.2679
540.6681, 148.7943
541.1502, 149.4418
541.6323, 149.5347
542.1144, 149.1488
542.5966, 149.0342
543.0787, 149.7378
543.5608, 150.8992
544.0429, 152.0682
544.5250, 153.2184
545.0071, 154.0925
545.4893, 154.2818
545.9714, 154.2019
546.4535, 154.3821
546.9356, 155.2377
547.4177, 155.5415
547.8998, 154.3396
548.3820, 152.4169
548.8641, 150.8564
549.3462, 150.1062
549.8283, 149.4683
550.3104, 148.8539
550.7925, 148.2482
551.2747, 147.5578
551.7568, 146.5137
552.2389, 145.8111
552.7210, 145.9359
553.2031, 147.0140
553.6852, 147.3402
554.1674, 146.7874
554.6495, 145.8790
555.1316, 144.9725
555.6137, 144.1243
556.0958, 143.6768
556.5779, 143.7700
557.0601, 144.0906
557.5422, 144.2905
558.0243, 144.3778
558.5064, 144.3733
558.9885, 144.0895
559.4706, 143.8658
559.9528, 144.1358
560.4349, 144.8005
560.9170, 145.2461
561.3991, 144.8716
561.8812, 144.4223
562.3633, 144.4125
562.8455, 145.0832
563.3276, 145.5849
563.8097, 145.7435
564.2918, 145.7222
564.7739, 145.6354
565.2560, 145.3236
565.7382, 145.2841
566.2203, 145.6907
566.7024, 146.3227
567.1845, 146.5759
567.6666, 146.4001
568.1487, 146.2408
568.6309, 146.2309
569.1130, 146.3868
569.5951, 146.8719
570.0772, 147.6884
570.5593, 148.4047
571.0414, 148.6434
571.5236, 148.6058
572.0057, 148.6207
572.4878, 148.7431
572.9699, 148.8354
573.4520, 148.5936
573.9341, 148.3375
574.4163, 148.4625
574.8984, 149.7523
575.3805, 150.6715
575.8626, 150.3784
576.3447, 149.3757
576.8268, 149.0688
577.3090, 150.2383
577.7911, 151.3327
578.2732, 151.9511
578.7553, 152.0945
579.2374, 152.2522
579.7195, 152.4337
580.2017, 152.6043
580.6838, 152.7339
581.1659, 152.8223
581.6480, 152.9110
582.1301, 153.0007
582.6122, 153.0935
583.0944, 153.1626
583.5765, 153.2336
584.0586, 153.3980
584.5407, 153.7431
585.0228, 154.0839
585.5049, 154.1760
585.9871, 154.1187
586.4692, 154.1506
586.9513, 154.5526
587.4334, 154.9162
587.9155, 154.9786
588.3976, 154.7519
588.8798, 154.5948
589.3619, 154.4384
589.8440, 154.4895
590.3261, 154.8835
590.8082, 155.7488
591.2903, 156.5289
591.7725, 157.3269
592.2546, 157.8940
592.7367, 157.8161
593.2188, 156.9938
593.7009, 156.5103
594.1830, 156.5369
594.6652, 156.9661
595.1473, 157.8212
595.6294, 158.9952
596.1115, 159.9361
596.5936, 160.4117
597.0757, 160.5208
597.5579, 160.0245
598.0400, 159.1317
598.5221, 158.8417
599.0042, 160.4794
599.4863, 162.3389
599.9684, 163.1441
600.4506, 162.5557
600.9327, 162.2217
601.4148, 162.9026
601.8969, 163.7259
602.3790, 163.9893
602.8611, 163.1166
603.3433, 162.7944
603.8254, 163.3025
604.3075, 164.1580
604.7896, 164.5717
605.2717, 164.4943
605.7538, 164.3090
606.2360, 163.9578
606.7181, 163.7164
607.2002, 164.6043
607.6823, 166.4336
608.1644, 167.7663
608.6465, 167.1192
609.1287, 165.8209
609.6108, 165.7224
610.0929, 166.8093
610.5750, 167.9105
611.0571, 168.2930
611.5392, 168.4654
612.0214, 168.8513
612.5035, 169.6443
612.9856, 170.2957
613.4677, 170.5108
613.9498, 170.6416
614.4319, 171.0598
614.9141, 171.9542
615.3962, 172.7776
615.8783, 173.4654
616.3604, 174.0632
616.8425, 174.6526
617.3246, 175.2318
617.8068, 175.7939
618.2889, 176.3651
618.7710, 176.8853
619.2531, 177.0729
619.7352, 176.9834
620.2173, 177.0792
620.6995, 177.7167
621.1816, 178.6742
621.6637, 179.7979
622.1458, 181.0905
622.6279, 182.1648
623.1100, 182.5666
623.5922, 182.8259
624.0743, 183.3747
624.5564, 184.4652
625.0385, 185.4898
625.5206, 186.1309
626.0027, 186.8240
626.4849, 188.1078
626.9670, 190.2633
627.4491, 192.3274
627.9312, 194.1740
628.4133, 195.8379
628.8954, 197.2655
629.3776, 198.4511
629.8597, 199.9626
630.3418, 202.0681
630.8239, 204.6458
631.3060, 207.5284
631.7881, 210.6960
632.2703, 214.0210
632.7524, 217.5566
633.2345, 221.1185
633.7166, 224.5329
634.1987, 227.7296
634.6808, 231.1286
635.1630, 234.6405
635.6451, 238.5561
636.1272, 243.1440
636.6093, 248.7913
637.0914, 254.3430
637.5735, 259.5586
638.0557, 264.8543
638.5378, 270.7348
639.0199, 277.3546
639.5020, 283.7129
639.9841, 289.3960
640.4662, 295.0900
640.9484, 302.4184
641.4305, 311.1932
641.9126, 320.3283
642.3947, 329.5373
642.8768, 338.7799
643.3589, 348.1475
643.8411, 357.6665
644.3232, 367.2037
644.8053, 377.7665
645.2874, 387.5513
645.7695, 395.7813
646.2516, 402.2899
646.7338, 407.4310
647.2159, 412.0094
647.6980, 414.4977
648.1801, 414.0753
648.6622, 410.7002
649.1443, 404.2481
649.6265, 394.3417
650.1086, 382.1165
650.5907, 368.5421
651.0728, 353.6123
651.5549, 338.7592
652.0370, 324.0591
652.5192, 310.0381
653.0013, 297.9221
653.4834, 287.3884
653.9655, 277.6271
654.4476, 268.2346
654.9297, 259.7522
655.4119, 252.5470
655.8940, 246.4924
656.3761, 241.0714
656.8582, 236.2534
657.3403, 232.0253
657.8224, 228.2930
658.3046, 225.0734
658.7867, 222.7637
659.2688, 221.8245
659.7509, 220.9109
660.2330, 219.1248
660.7151, 216.4635
661.1973, 214.7081
661.6794, 213.9375
662.1615, 213.4857
662.6436, 212.9682
663.1257, 212.2758
663.6078, 210.9621
664.0900, 208.7667
664.5721, 206.9387
665.0542, 206.6773
665.5363, 207.2318
666.0184, 207.6942
666.5005, 207.8342
666.9827, 207.8274
667.4647, 207.6724
667.9468, 207.3967
668.4290, 207.0506
668.9111, 206.5125
669.3932, 206.1318
669.8753, 206.0423
670.3574, 206.1249
670.8395, 205.9222
671.3217, 205.4021
671.8038, 205.0753
672.2859, 205.2563
672.7680, 205.7625
673.2501, 206.3873
673.7322, 207.0690
674.2144, 207.3497
674.6965, 206.3652
675.1786, 205.2341
675.6607, 204.9674
676.1428, 205.6999
676.6249, 206.5804
677.1071, 207.6712
677.5892, 208.5923
678.0713, 209.0415
678.5534, 208.7983
679.0355, 208.7083
679.5176, 208.7833
679.9998, 208.9948
680.4819, 209.3285
680.9640, 209.7893
681.4461, 210.2793
681.9282, 210.7905
682.4103, 211.3214
682.8925, 211.9782
683.3746, 212.6572
683.8567, 213.0119
684.3388, 212.6269
684.8209, 212.3506
685.3030, 213.0162
685.7852, 214.2343
686.2673, 215.1733
686.7494, 215.1429
687.2315, 215.2870
687.7136, 215.9067
688.1957, 216.9666
688.6779, 218.4214
689.1600, 220.5095
689.6421, 222.4974
690.1242, 224.0613
690.6063, 225.2824
691.0884, 226.5952
691.5706, 228.0035
692.0527, 229.5191
692.5348, 231.1799
693.0169, 232.9708
693.4990, 234.8237
693.9811, 236.7286
694.4633, 238.9215
694.9454, 241.6303
695.4275, 244.6131
695.9096, 247.8881
696.3917, 251.9214
696.8738, 254.7890
697.3560, 255.9627
697.8381, 256.1027
698.3202, 255.5598
698.8023, 253.9998
699.2844, 252.7888
699.7665, 251.9009
700.2487, 251.6255
700.7308, 252.4868
701.2129, 254.3854
701.6950, 256.9184
702.1771, 260.4795
702.6592, 263.5289
703.1414, 264.2551
703.6235, 263.1477
704.1056, 261.1252
704.5877, 258.0359
705.0698, 254.6474
705.5519, 250.6150
706.0341, 246.4498
706.5162, 243.8508
706.9983, 243.5650
707.4804, 243.7820
707.9625, 243.9953
708.4446, 244.3587
708.9268, 245.8468
709.4089, 248.5620
709.8910, 251.4501
710.3731, 253.6607
710.8552, 255.7168
711.3373, 259.1571
711.8195, 263.8413
712.3016, 268.7142
712.7837, 273.1108
713.2658, 277.3461
713.7479, 281.7990
714.2300, 286.5565
714.7122, 291.0502
715.1943, 294.5870
715.6764, 298.3737
716.1585, 303.5434
716.6406, 311.4196
717.1227, 315.6764
717.6049, 316.0483
718.0870, 313.4489
718.5691, 307.6012
719.0512, 298.9422
719.5333, 291.9034
720.0154, 286.9117
720.4976, 283.2924
720.9797, 280.6902
721.4618, 278.8224
721.9439, 277.3927
722.4260, 277.0492
722.9081, 275.4996
723.3903, 270.8432
723.8724, 264.6776
724.3545, 258.9798
724.8366, 253.4763
725.3187, 249.3352
725.8008, 246.9605
726.2830, 245.7258
726.7651, 244.5632
727.2472, 243.4635
727.7293, 242.2947
728.2114, 240.8247
728.6935, 239.5592
729.1757, 239.7724
729.6578, 241.0807
730.1399, 242.1351
730.6220, 242.3212
731.1041, 242.0276
731.5862, 241.1823
732.0684, 240.0234
732.5505, 239.3241
733.0326, 239.8253
733.5147, 240.2340
733.9968, 239.9930
734.4789, 239.2699
734.9611, 239.2352
735.4432, 240.0203
735.9253, 241.0611
736.4074, 242.2456
736.8895, 243.4602
737.3716, 244.2486
737.8538, 244.6156
738.3359, 244.7117
738.8180, 244.3860
739.3001, 243.9970
739.7822, 243.9856
740.2643, 244.3686
740.7465, 244.6434
741.2286, 244.4254
741.7107, 244.1942
742.1928, 244.2459
742.6749, 244.6302
743.1570, 244.9989
743.6392, 245.3313
744.1213, 245.6821
744.6034, 246.0524
745.0855, 246.4503
745.5676, 247.1310
746.0497, 248.1288
746.5319, 249.0240
747.0140, 249.2327
747.4961, 249.1548
747.9782, 249.3929
748.4603, 250.0967
748.9424, 250.9035
749.4246, 251.9987
749.9067, 252.9119
750.3888, 253.1791
750.8709, 252.1090
751.3530, 251.5903
751.8351, 251.7609
752.3173, 252.3148
752.7994, 253.0070
753.2815, 253.8531
753.7636, 254.3902
754.2457, 254.5555
754.7278, 254.4101
755.2100, 253.5884
755.6921, 252.5798
756.1742, 252.4382
756.6563, 254.0137
757.1384, 255.5223
757.6205, 255.8984
758.1027, 255.6640
758.5848, 255.5653
759.0669, 255.6133
759.5490, 255.9462
760.0311, 256.6031
760.5132, 257.5402
760.9954, 258.8522
761.4775, 260.5975
761.9596, 261.7838
762.4417, 262.0516
762.9238, 261.8302
763.4059, 261.6046
763.8881, 261.4400
764.3702, 261.5118
764.8523, 262.1159
765.3344, 262.7560
765.8165, 263.2189
766.2986, 263.5172
766.7808, 263.6649
767.2629, 263.3183
767.7450, 263.2816
768.2271, 263.7849
768.7092, 264.6723
769.1913, 265.5107
769.6735, 266.3053
770.1556, 266.9989
770.6377, 267.5912
771.1198, 268.0488
771.6019, 268.3134
772.0840, 268.3891
772.5662, 268.2919
773.0483, 267.2791
773.5304, 266.7847
774.0125, 268.2896
774.4946, 271.2910
774.9767, 273.0598
775.4589, 272.0877
775.9410, 271.3125
776.4231, 271.6642
776.9052, 272.9030
777.3873, 273.6064
777.8694, 273.7516
778.3516, 273.7055
778.8337, 273.4380
779.3158, 273.2086
779.7979, 273.8043
780.2800, 275.0216
780.7621, 275.8255
781.2443, 274.9491
781.7264, 274.0695
782.2085, 274.3279
782.6906, 275.7103
783.1727, 276.8368
783.6548, 277.5259
784.1370, 278.0367
784.6191, 278.4769
785.1012, 278.8281
785.5833, 278.8258
786.0654, 278.4302
786.5475, 278.2872
787.0297, 278.9174
787.5118, 280.0293
787.9939, 281.2458
788.4760, 282.5206
788.9581, 283.5355
789.4402, 284.1705
789.9224, 284.4352
790.4045, 284.0706
790.8866, 283.0161
791.3687, 282.8005
791.8508, 283.9069
792.3329, 285.0995
792.8151, 285.8205
793.2972, 286.1035
793.7793, 286.1751
794.2614, 286.0319
794.7435, 285.9427
795.2256, 286.0513
795.7078, 286.3526
796.1899, 286.9730
796.6720, 287.8789
797.1541, 288.5507
797.6362, 288.3555
798.1183, 288.1890
798.6005, 288.6771
799.0826, 289.8919
799.5647, 290.6470
800.0468, 290.7378
800.5289, 290.8147
801.0110, 291.2292
801.4932, 291.9529
801.9753, 292.9056
802.4574, 294.0760
802.9395, 295.0762
803.4216, 295.5223
803.9037, 295.7210
804.3859, 296.0670
804.8680, 296.5753
805.3501, 296.7416
805.8322, 295.6957
806.3143, 294.9384
806.7964, 295.3717
807.2786, 297.0649
807.7607, 298.0739
808.2428, 298.2764
808.7249, 298.2627
809.2070, 298.1685
809.6891, 298.1725
810.1713, 299.0955
810.6534, 300.8590
811.1355, 302.4720
811.6176, 303.2580
812.0997, 303.6386
812.5818, 303.7292
813.0640, 303.5367
813.5461, 303.8969
814.0282, 305.6665
814.5103, 307.1523
814.9924, 307.4488
815.4745, 306.6133
815.9567, 306.6371
816.4388, 307.5746
816.9209, 308.7015
817.4030, 309.5960
817.8851, 310.3386
818.3672, 311.1806
818.8494, 312.0674
819.3315, 312.5605
819.8136, 311.6992
820.2957, 311.0142
820.7778, 311.5809
821.2599, 313.4935
821.7421, 314.9102
822.2242, 315.5949
822.7063, 316.2267
823.1884, 317.1377
823.6705, 318.2465
824.1526, 319.1525
824.6348, 319.8644
825.1169, 320.5128
825.5990, 321.1324
826.0811, 321.7631
826.5632, 322.3051
827.0453, 322.8426
827.5275, 323.8581
828.0096, 326.0641
828.4917, 328.2079
828.9738, 329.8933
829.4559, 331.1399
829.9380, 332.0871
830.4202, 332.6697
830.9023, 333.2955
831.3844, 334.0756
831.8665, 335.0804
832.3486, 336.5226
832.8307, 338.3662
833.3128, 340.4506
833.7949, 342.9210
834.2770, 345.3952
834.7592, 347.5981
835.2413, 349.6072
835.7234, 351.7397
836.2055, 354.3190
836.6876, 356.5149
837.1697, 358.0780
837.6519, 359.0986
838.1340, 359.9881
838.6161, 360.7236
839.0982, 360.8385
839.5803, 360.0129
840.0624, 358.6007
840.5446, 356.7240
841.0267, 354.5763
841.5088, 352.7134
841.9909, 351.8901
842.4730, 350.7089
842.9551, 348.3607
843.4373, 345.5083
843.9194, 343.5005
844.4015, 342.4303
844.8836, 341.8642
845.3657, 341.8712
845.8478, 342.0445
846.3300, 341.5486
846.8121, 340.6304
847.2942, 339.9888
847.7763, 339.9919
848.2584, 340.1504
848.7405, 340.1651
849.2227, 340.1584
849.7048, 340.3372
850.1869, 340.9551
850.6690, 341.3277
851.1511, 341.3106
851.6332, 341.1451
852.1154, 341.1216
852.5975, 341.2526
853.0796, 341.7088
853.5617, 342.5966
854.0438, 343.5246
854.5259, 343.9777
855.0081, 344.2759
855.4902, 344.8907
855.9723, 346.2399
856.4544, 347.2531
856.9365, 347.4615
857.4186, 347.4591
857.9008, 347.7055
858.3829, 348.1988
858.8650, 348.9974
859.3471, 350.1801
859.8292, 351.3026
860.3113, 351.8694
860.7935, 352.0681
861.2756, 352.0746
861.7577, 351.8536
862.2398, 352.1241
862.7219, 353.8226
863.2040, 355.7318
863.6862, 356.8795
864.1683, 357.0528
864.6504, 357.5923
865.1325, 358.5098
865.6146, 359.7673
866.0967, 361.4853
866.5789, 363.5357
867.0610, 365.4019
867.5431, 367.0868
868.0252, 368.4374
868.5073, 369.4879
868.9894, 370.0875
869.4716, 370.0703
869.9537, 369.4338
870.4358, 368.3833
870.9179, 366.4161
871.4000, 364.8813
871.8821, 364.3520
872.3643, 364.6570
872.8464, 364.9662
873.3285, 365.2819
873.8106, 365.6659
874.2927, 366.1660
874.7748, 366.7374
875.2570, 367.2011
875.7391, 367.6792
876.2212, 368.5279
876.7033, 370.5420
877.1854, 372.1054
877.6675, 372.5882
878.1497, 372.4837
878.6318, 373.1440
879.1139, 374.6801
879.5960, 375.8932
880.0781, 376.3726
880.5602, 376.5970
881.0424, 377.2186
881.5245, 378.1180
882.0066, 379.0381
882.4887, 379.7572
882.9708, 380.6956
883.4529, 382.0155
883.9351, 383.6423
884.4172, 385.5041
884.8993, 387.7075
885.3814, 389.7846
885.8635, 391.6909
886.3456, 393.4108
886.8278, 394.5776
887.3099, 395.5727
887.7920, 397.3454
888.2741, 400.0726
888.7562, 403.4436
889.2383, 407.8887
889.7205, 412.4409
890.2026, 416.0054
890.6847, 417.7997
891.1668, 421.7556
891.6489, 428.4684
892.1310, 435.8292
892.6132, 441.8355
893.0953, 447.1293
893.5774, 455.0054
894.0595, 465.4795
894.5416, 476.3271
895.0237, 486.5435
895.5059, 496.4990
895.9880, 506.0212
896.4701, 515.2798
896.9522, 525.5760
897.4343, 537.4631
897.9164, 549.5857
898.3986, 560.8916
898.8807, 572.1920
899.3628, 585.5181
899.8449, 600.9786
900.3270, 618.4603
900.8091, 637.9093
901.2913, 659.6707
901.7734, 683.5077
902.2555, 709.8845
902.7376, 740.2148
903.2197, 776.3173
903.7018, 814.2640
904.1840, 854.2141
904.6661, 895.7003
905.1482, 939.2452
905.6303, 985.0525
906.1124, 1028.023
906.5945, 1068.265
907.0767, 1101.868
907.5588, 1131.408
908.0409, 1148.293
908.5230, 1141.245
909.0051, 1103.228
909.4872, 1051.651
909.9694, 982.0081
910.4515, 908.2814
910.9336, 837.7421
911.4157, 770.4716
911.8978, 712.7473
912.3799, 664.7495
912.8621, 624.4397
913.3442, 592.2215
913.8263, 565.9338
914.3084, 544.3190
914.7905, 527.1632
915.2726, 513.1383
915.7548, 503.8412
916.2369, 495.5511
916.7190, 486.7207
917.2011, 477.8063
917.6832, 471.0186
918.1653, 466.3832
918.6475, 462.9497
919.1296, 460.5770
919.6117, 458.8794
920.0938, 457.6683
920.5759, 456.7156
921.0580, 455.5074
921.5402, 452.7221
922.0223, 451.1586
922.5044, 451.9808
922.9865, 453.8083
923.4686, 454.5117
923.9507, 453.9766
924.4329, 453.9092
924.9150, 454.6003
925.3971, 455.6500
925.8792, 456.7404
926.3613, 457.8451
926.8434, 458.9936
927.3256, 460.3197
927.8077, 461.1485
928.2898, 461.1806
928.7719, 460.7017
929.2540, 459.8226
929.7361, 458.5298
930.2183, 457.0423
930.7004, 455.3656
931.1825, 453.4223
931.6646, 450.5484
932.1467, 447.7812
932.6288, 446.8032
933.1110, 447.3322
933.5931, 447.5795
934.0752, 446.5623
934.5573, 445.5980
935.0394, 445.0750
935.5215, 444.9059
936.0037, 444.8316
936.4858, 444.8489
936.9679, 444.9377
937.4500, 444.9611
937.9321, 445.3047
938.4142, 446.7461
938.8964, 448.7592
939.3785, 450.4415
939.8606, 451.2837
940.3427, 452.1065
940.8248, 453.1189
941.3069, 454.0513
941.7891, 454.5279
942.2712, 454.5060
942.7533, 455.0229
943.2354, 456.1738
943.7175, 457.5323
944.1996, 458.5424
944.6818, 459.6796
945.1639, 461.8525
945.6460, 465.1460
946.1281, 467.4223
946.6102, 467.1282
947.0923, 466.9797
947.5745, 467.9043
948.0566, 469.7718
948.5387, 472.0247
949.0208, 474.6449
949.5029, 477.1999
949.9850, 479.3667
950.4672, 481.5262
950.9493, 484.2964
951.4314, 487.2833
951.9135, 489.6748
952.3956, 491.3033
952.8777, 492.2428
953.3599, 492.6028
953.8420, 492.1548
954.3241, 490.0613
954.8062, 486.6415
955.2883, 484.5124
955.7704, 484.1987
956.2526, 483.7629
956.7347, 480.8466
957.2168, 477.4970
957.6989, 475.7354
958.1810, 476.1463
958.6631, 476.2430
959.1453, 475.7059
959.6274, 475.2611
960.1095, 475.4082
960.5916, 475.9322
961.0737, 475.7734
961.5558, 475.0602
962.0380, 474.5818
962.5201, 474.7711
963.0022, 475.3207
963.4843, 476.4498
963.9664, 477.7673
964.4485, 478.1881
964.9307, 477.1303
965.4128, 476.6922
965.8949, 477.3824
966.3770, 478.3582
966.8591, 478.0627
967.3412, 477.1194
967.8234, 477.4737
968.3055, 479.8747
968.7876, 481.4942
969.2697, 479.2044
969.7518, 476.7326
970.2339, 477.2658
970.7161, 481.2674
971.1982, 483.5984
971.6803, 484.0144
972.1624, 484.1265
972.6445, 485.0410
973.1266, 486.2874
973.6088, 486.8399
974.0909, 486.9114
974.5730, 487.3004
975.0551, 488.5451
975.5372, 489.9262
976.0193, 491.4470
976.5015, 492.8514
976.9836, 493.4612
977.4657, 493.1869
977.9478, 493.5768
978.4299, 494.9886
978.9120, 496.8444
979.3942, 498.7431
979.8763, 500.6000
980.3584, 502.3398
980.8405, 503.9595
981.3226, 505.3614
981.8047, 506.7848
982.2869, 507.7001
982.7690, 507.5835
983.2511, 506.6053
983.7332, 506.5003
984.2153, 507.1916
984.6974, 507.6029
985.1796, 506.8726
985.6617, 505.8124
986.1438, 504.7654
986.6259, 503.8837
987.1080, 503.6295
987.5901, 504.1514
988.0723, 505.1166
988.5544, 506.8011
989.0365, 508.2909
989.5186, 507.6909
990.0007, 505.7286
990.4828, 504.6818
990.9650, 505.0111
991.4471, 505.9149
991.9292, 507.2888
992.4113, 508.7762
992.8934, 510.1289
993.3755, 511.3387
993.8577, 512.5775
994.3398, 513.8828
994.8219, 514.9515
995.3040, 515.2172
995.7861, 515.3994
996.2682, 517.1269
996.7503, 519.8377
997.2324, 521.9363
997.7145, 521.9543
998.1967, 522.3682
998.6788, 523.8992
999.1609, 525.9725
999.6430, 527.7742
1000.125, 529.2814
1000.607, 530.8781
1001.089, 532.5652
1001.571, 534.6328
1002.054, 537.8267
1002.536, 541.2274
1003.018, 543.8071
1003.500, 545.2711
1003.982, 547.3652
1004.464, 550.2875
1004.946, 553.6285
1005.428, 557.3543
1005.911, 561.2625
1006.393, 564.2167
1006.875, 566.6093
1007.357, 569.9078
1007.839, 574.9777
1008.321, 580.8948
1008.803, 587.8151
1009.285, 595.0862
1009.767, 601.7952
1010.250, 607.8894
1010.732, 613.8997
1011.214, 619.8760
1011.696, 625.3409
1012.178, 629.9044
1012.660, 633.4980
1013.142, 636.4558
1013.624, 638.6957
1014.107, 638.5674
1014.589, 634.5624
1015.071, 628.9982
1015.553, 622.2386
1016.035, 614.6876
1016.517, 607.5966
1016.999, 600.9819
1017.481, 594.6906
1017.963, 588.6098
1018.446, 583.0699
1018.928, 578.1285
1019.410, 573.9160
1019.892, 570.6494
1020.374, 568.5428
1020.856, 566.9739
1021.338, 566.1646
1021.820, 565.2963
1022.302, 563.3995
1022.785, 561.0593
1023.267, 559.7343
1023.749, 559.3925
1024.231, 559.6506
1024.713, 561.1960
1025.195, 562.3289
1025.677, 562.1501
1026.159, 561.2037
1026.642, 560.5811
1027.124, 560.3124
1027.606, 559.6654
1028.088, 558.3464
1028.570, 557.3096
1029.052, 557.6125
1029.534, 558.7186
1030.016, 560.2166
1030.499, 562.2450
1030.981, 563.4341
1031.463, 563.5438
1031.945, 563.1390
1032.427, 562.1346
1032.909, 560.9741
1033.391, 561.3898
1033.873, 563.0668
1034.355, 564.6620
1034.838, 565.3341
1035.320, 566.0482
1035.802, 567.4990
1036.284, 569.0989
1036.766, 570.0169
1037.248, 570.1488
1037.730, 570.1093
1038.212, 569.8824
1038.694, 569.8944
1039.177, 570.5060
1039.659, 571.6039
1040.141, 573.4121
1040.623, 575.8075
1041.105, 577.2477
1041.587, 576.9841
1042.069, 576.3882
1042.551, 575.5842
1043.034, 574.8798
1043.516, 575.0919
1043.998, 576.0507
1044.480, 577.0430
1044.962, 577.8639
1045.444, 578.7787
1045.926, 580.1608
1046.408, 581.5586
1046.891, 582.5004
1047.373, 582.8931
1047.855, 583.8018
1048.337, 585.3007
1048.819, 586.6946
1049.301, 587.3754
1049.783, 587.8229
1050.265, 588.7557
1050.747, 589.9530
1051.229, 590.8334
1051.712, 590.6213
1052.194, 591.0049
1052.676, 592.3970
1053.158, 593.9996
1053.640, 594.6279
1054.122, 594.5643
1054.604, 594.9346
1055.086, 595.8586
1055.569, 596.9168
1056.051, 598.0349
1056.533, 599.0474
1057.015, 599.5417
1057.497, 599.8074
1057.979, 601.4025
1058.461, 604.4354
1058.943, 607.6081
1059.426, 610.7836
1059.908, 613.3121
1060.390, 613.8727
1060.872, 613.5991
1061.354, 614.1078
1061.836, 616.3115
1062.318, 617.5290
1062.800, 616.9420
1063.282, 616.8839
1063.765, 619.5621
1064.247, 623.8447
1064.729, 625.2391
1065.211, 624.5881
1065.693, 625.3873
1066.175, 630.1362
1066.657, 635.7148
1067.139, 640.2029
1067.621, 645.4668
1068.104, 654.2728
1068.586, 666.6164
1069.068, 680.6892
1069.550, 696.5760
1070.032, 711.4308
1070.514, 722.4437
1070.996, 731.6005
1071.478, 739.9737
1071.961, 747.8763
1072.443, 757.3879
1072.925, 768.5472
1073.407, 781.4467
1073.889, 796.2838
1074.371, 812.8514
1074.853, 830.1510
1075.335, 849.5756
1075.818, 873.5640
1076.300, 901.1514
1076.782, 938.0379
1077.264, 984.7679
1077.746, 1042.503
1078.228, 1111.748
1078.710, 1191.885
1079.192, 1280.391
1079.674, 1376.984
1080.156, 1481.380
1080.639, 1640.194
1081.121, 1757.551
1081.603, 1779.533
1082.085, 1721.195
1082.567, 1604.426
1083.049, 1410.307
1083.531, 1249.788
1084.013, 1127.195
1084.495, 1037.987
1084.978, 986.0526
1085.460, 959.2239
1085.942, 947.5693
1086.424, 948.6824
1086.906, 953.9928
1087.388, 964.6956
1087.870, 973.4244
1088.352, 976.6462
1088.835, 981.1617
1089.317, 993.7178
1089.799, 1017.002
1090.281, 1057.655
1090.763, 1117.259
1091.245, 1190.959
1091.727, 1280.620
1092.209, 1381.513
1092.692, 1492.699
1093.174, 1611.991
1093.656, 1750.288
1094.138, 1897.040
1094.620, 1957.977
1095.102, 1881.379
1095.584, 1735.906
1096.066, 1521.272
1096.548, 1292.621
1097.031, 1110.400
1097.513, 980.0986
1097.995, 883.3798
1098.477, 822.0526
1098.959, 780.4006
1099.441, 753.0781
1099.923, 735.3539
1100.405, 722.6364
1100.887, 714.0267
1101.370, 707.3699
1101.852, 703.0404
1102.334, 699.2963
1102.816, 695.9244
1103.298, 693.2480
1103.780, 692.2055
1104.262, 691.9503
1104.744, 690.1867
1105.227, 686.8340
1105.709, 684.0571
1106.191, 682.7785
1106.673, 682.2638
1107.155, 682.3483
1107.637, 682.9119
1108.119, 683.9639
1108.601, 685.3424
1109.083, 685.7042
1109.566, 684.4578
1110.048, 683.7869
1110.530, 686.1416
1111.012, 688.8594
1111.494, 689.9036
1111.976, 689.3487
1112.458, 688.3038
1112.940, 686.7155
1113.422, 685.5521
1113.905, 685.2518
1114.387, 685.4577
1114.869, 685.4403
1115.351, 685.8246
1115.833, 687.7633
1116.315, 692.6655
1116.797, 695.2159
1117.279, 694.9464
1117.762, 694.1099
1118.244, 694.5281
1118.726, 695.3039
1119.208, 694.2985
1119.690, 692.3367
1120.172, 691.8549
1120.654, 695.0567
1121.136, 697.8463
1121.619, 699.9170
1122.101, 701.2706
1122.583, 701.6747
1123.065, 701.3808
1123.547, 701.0604
1124.029, 700.7808
1124.511, 700.7706
1124.993, 701.3834
1125.475, 701.9940
1125.958, 702.2165
1126.440, 702.4121
1126.922, 703.5465
1127.404, 705.4603
1127.886, 706.7340
1128.368, 707.0920
1128.850, 707.1269
1129.332, 707.0428
1129.814, 706.9908
1130.297, 706.8779
1130.779, 706.8348
1131.261, 707.9646
1131.743, 710.3246
1132.225, 712.3499
1132.707, 713.4868
1133.189, 714.2305
1133.671, 714.8546
1134.154, 715.5121
1134.636, 716.4691
1135.118, 717.8619
1135.600, 718.6569
1136.082, 718.6757
1136.564, 718.9852
1137.046, 720.4617
1137.528, 722.2115
1138.010, 722.7633
1138.493, 722.6744
1138.975, 722.9609
1139.457, 724.1200
1139.939, 725.3242
1140.421, 726.6262
1140.903, 727.8333
1141.385, 728.7722
1141.867, 729.5349
1142.349, 730.3213
1142.832, 731.1299
1143.314, 731.9760
1143.796, 732.9211
1144.278, 733.7925
1144.760, 734.4642
1145.242, 735.1989
1145.724, 736.5336
1146.206, 738.1827
1146.689, 738.8376
1147.171, 738.5244
1147.653, 738.8343
1148.135, 741.3448
1148.617, 743.7661
1149.099, 745.3715
1149.581, 746.3331
1150.063, 746.8381
1150.546, 746.9612
1151.028, 747.2333
1151.510, 747.7288
1151.992, 748.4341
1152.474, 749.6827
1152.956, 750.7884
1153.438, 751.0417
1153.920, 750.7972
1154.402, 751.6953
1154.885, 753.6960
1155.367, 755.3910
1155.849, 756.2731
1156.331, 757.0704
1156.813, 758.3654
1157.295, 759.8933
1157.777, 761.5558
1158.259, 763.3476
1158.741, 764.5106
1159.224, 765.0292
1159.706, 765.0244
1160.188, 764.1213
1160.670, 763.4914
1161.152, 764.6511
1161.634, 766.7021
1162.116, 768.4329
1162.598, 769.5594
1163.081, 771.1069
1163.563, 773.2471
1164.045, 774.8154
1164.527, 774.6023
1165.009, 773.8533
1165.491, 774.1146
1165.973, 775.1066
1166.455, 776.2945
1166.938, 777.8674
1167.420, 779.0223
1167.902, 779.6558
1168.384, 780.2463
1168.866, 781.4746
1169.348, 782.7663
1169.830, 782.8730
1170.312, 782.1960
1170.794, 782.0709
1171.276, 783.0035
1171.759, 784.3909
1172.241, 786.3201
1172.723, 788.3990
1173.205, 790.2571
1173.687, 791.9529
1174.169, 793.8061
1174.651, 795.7512
1175.133, 797.2079
1175.616, 797.9880
1176.098, 798.0923
1176.580, 797.1133
1177.062, 796.1428
1177.544, 797.0436
1178.026, 799.1344
1178.508, 800.8269
1178.990, 801.9370
1179.473, 802.9261
1179.955, 804.4169
1180.437, 805.1250
1180.919, 804.1922
1181.401, 802.8854
1181.883, 804.0026
1182.365, 806.8358
1182.847, 809.4281
1183.329, 811.5082
1183.812, 812.4507
1184.294, 810.5119
1184.776, 809.0255
1185.258, 809.3290
1185.740, 811.0070
1186.222, 813.1864
1186.704, 815.6765
1187.186, 817.8050
1187.668, 819.5221
1188.151, 820.4250
1188.633, 819.1238
1189.115, 818.2025
1189.597, 819.2079
1190.079, 821.6595
1190.561, 823.6466
1191.043, 825.1526
1191.525, 825.9355
1192.008, 825.4508
1192.490, 825.3147
1192.972, 826.4664
1193.454, 828.1453
1193.936, 829.9678
1194.418, 831.8736
1194.900, 833.4200
1195.382, 834.5520
1195.865, 834.8998
1196.347, 833.4010
1196.829, 832.5521
1197.311, 834.3336
1197.793, 836.7165
1198.275, 837.8586
1198.757, 837.8177
1199.239, 839.0792
1199.721, 841.4374
1200.203, 842.9698
1200.686, 841.3796
1201.168, 840.1943
1201.650, 841.5322
1202.132, 843.8967
1202.614, 845.8021
1203.096, 847.2390
1203.578, 848.1711
1204.060, 848.6539
1204.543, 849.5440
1205.025, 851.7692
1205.507, 854.0870
1205.989, 856.0034
1206.471, 857.5042
1206.953, 858.3475
1207.435, 858.5569
1207.917, 859.3642
1208.400, 860.8026
1208.882, 862.3074
1209.364, 863.9592
1209.846, 865.0626
1210.328, 864.5245
1210.810, 863.5154
1211.292, 863.7777
1211.774, 865.2821
1212.256, 867.2198
1212.739, 869.5253
1213.221, 871.2738
1213.703, 870.8373
1214.185, 870.7512
1214.667, 873.0025
1215.149, 876.3376
1215.631, 878.7164
1216.113, 880.1307
1216.595, 879.9828
1217.078, 878.1283
1217.560, 877.0782
1218.042, 879.6091
1218.524, 882.2903
1219.006, 882.7630
1219.488, 882.1835
1219.970, 883.4983
1220.452, 886.4784
1220.935, 888.2066
1221.417, 888.1195
1221.899, 888.2008
1222.381, 890.0579
1222.863, 892.1699
1223.345, 893.7377
1223.827, 894.9051
1224.309, 896.0079
1224.792, 897.0623
1225.274, 898.3163
1225.756, 899.9150
1226.238, 900.8063
1226.720, 899.0352
1227.202, 897.7907
1227.684, 898.8932
1228.166, 901.6363
1228.648, 903.8875
1229.130, 905.7411
1229.613, 907.8138
1230.095, 910.3622
1230.577, 912.3498
1231.059, 913.1461
1231.541, 913.1806
1232.023, 912.3636
1232.505, 911.2042
1232.987, 911.5638
1233.470, 913.1025
1233.952, 914.4612
1234.434, 915.3535
1234.916, 915.7933
1235.398, 915.1931
1235.880, 914.8348
1236.362, 915.4125
1236.844, 916.6273
1237.327, 917.3578
1237.809, 917.8418
1238.291, 918.9208
1238.773, 921.0092
1239.255, 922.9940
1239.737, 924.8109
1240.219, 925.8923
1240.701, 925.5569
1241.183, 924.5944
1241.666, 925.4758
1242.148, 927.6730
1242.630, 929.7547
1243.112, 931.4076
1243.594, 932.5563
1244.076, 933.0242
1244.558, 933.2178
1245.040, 932.8987
1245.522, 932.8146
1246.005, 935.8724
1246.487, 940.5076
1246.969, 942.8444
1247.451, 940.1965
1247.933, 940.2843
1248.415, 945.2988
1248.897, 949.9320
1249.379, 951.0621
1249.861, 950.3246
1250.344, 950.6940
1250.826, 951.8559
1251.308, 953.2386
1251.790, 954.6774
1252.272, 956.5912
1252.754, 959.3636
1253.236, 961.4315
1253.718, 961.6323
1254.201, 960.9326
1254.683, 960.5824
1255.165, 960.5479
1255.647, 960.6833
1256.129, 960.5458
1256.611, 962.3015
1257.093, 966.4667
1257.575, 969.9890
1258.057, 970.6963
1258.540, 970.3831
1259.022, 970.5599
1259.504, 971.4125
1259.986, 973.5479
1260.468, 977.5080
1260.950, 979.8192
1261.432, 980.3773
1261.914, 980.3209
1262.396, 979.9706
1262.879, 979.6866
1263.361, 979.4183
1263.843, 979.6652
1264.325, 981.3569
1264.807, 984.8456
1265.289, 986.2687
1265.771, 985.6938
1266.253, 985.4017
1266.736, 986.9452
1267.218, 988.7441
1267.700, 989.6868
1268.182, 990.4137
1268.664, 991.5577
1269.146, 993.0989
1269.628, 994.9240
1270.110, 997.0081
1270.593, 999.1939
1271.075, 1002.080
1271.557, 1004.087
1272.039, 1003.908
1272.521, 1003.005
1273.003, 1001.780
1273.485, 1000.672
1273.967, 1003.648
1274.449, 1009.586
1274.932, 1013.540
1275.414, 1011.743
1275.896, 1010.415
1276.378, 1010.774
1276.860, 1012.118
1277.342, 1014.561
1277.824, 1017.407
1278.306, 1018.038
1278.788, 1017.310
1279.271, 1017.676
1279.753, 1020.993
1280.235, 1023.552
1280.717, 1025.078
1281.199, 1025.862
1281.681, 1025.231
1282.163, 1024.639
1282.645, 1027.912
1283.128, 1032.958
1283.610, 1035.257
1284.092, 1031.763
1284.574, 1031.019
1285.056, 1033.430
1285.538, 1036.489
1286.020, 1039.027
1286.502, 1041.033
1286.984, 1042.709
1287.467, 1043.789
1287.949, 1043.604
1288.431, 1041.723
1288.913, 1041.147
1289.395, 1041.875
1289.877, 1043.987
1290.359, 1048.980
1290.841, 1053.336
1291.323, 1053.757
1291.806, 1052.748
1292.288, 1053.159
1292.770, 1054.967
1293.252, 1055.793
1293.734, 1055.787
1294.216, 1056.144
1294.698, 1057.396
1295.180, 1059.139
1295.663, 1061.732
1296.145, 1064.257
1296.627, 1066.116
1297.109, 1067.366
1297.591, 1067.982
1298.073, 1068.174
1298.555, 1068.559
1299.037, 1069.151
1299.520, 1070.572
1300.002, 1073.453
1300.484, 1076.056
1300.966, 1076.905
1301.448, 1076.921
1301.930, 1078.251
1302.412, 1080.382
1302.894, 1082.278
1303.376, 1083.718
##END=



