##NAMES=Tincalconite
##RRUFFID=R050660
##IDEAL CHEMISTRY=Na_2_B_4_O_5_(OH)_4_&#183;3H_2_O
##LOCALITY=Boron, Kern County, California, USA
##OWNER=RRUFF
##SOURCE=Marcus Origlieri
##DESCRIPTION=Colorless pseudo-octahedral crystal
##STATUS=The identification of this mineral has been confirmed by X-ray diffraction.
##URL=rruff.info/R050660
92.02539, 802.8782
92.50751, 810.3175
92.98962, 819.6516
93.47174, 818.3369
93.95386, 814.1130
94.43597, 808.3005
94.91809, 802.7320
95.40021, 797.6652
95.88232, 790.7048
96.36444, 780.1163
96.84656, 770.1364
97.32867, 762.7607
97.81078, 757.1895
98.29290, 751.9874
98.77502, 745.6441
99.25713, 737.0438
99.73925, 727.6518
100.2214, 713.6917
100.7035, 702.4461
101.1856, 697.8090
101.6677, 699.5491
102.1498, 704.3638
102.6320, 708.3936
103.1141, 711.0527
103.5962, 714.3643
104.0783, 718.7366
104.5604, 723.5202
105.0425, 728.2001
105.5247, 732.7685
106.0068, 736.6498
106.4889, 738.8807
106.9710, 739.9073
107.4531, 738.6827
107.9352, 734.1469
108.4173, 726.6661
108.8995, 718.2665
109.3816, 709.5674
109.8637, 700.1162
110.3458, 689.3825
110.8279, 677.0294
111.3100, 664.1879
111.7922, 651.8975
112.2743, 639.9650
112.7564, 629.4636
113.2385, 621.2585
113.7206, 614.1789
114.2027, 607.2213
114.6849, 599.9299
115.1670, 592.5814
115.6491, 586.3387
116.1312, 582.3876
116.6133, 578.1677
117.0954, 572.8925
117.5776, 567.0927
118.0597, 561.7089
118.5418, 557.4741
119.0239, 554.4102
119.5060, 549.8766
119.9881, 542.3713
120.4703, 535.0901
120.9524, 529.5919
121.4345, 525.6987
121.9166, 522.0602
122.3987, 517.5174
122.8808, 511.8858
123.3630, 505.9595
123.8451, 500.2415
124.3272, 493.9610
124.8093, 486.0355
125.2914, 476.0479
125.7735, 465.7632
126.2557, 457.3050
126.7378, 450.3198
127.2199, 443.8043
127.7020, 437.3653
128.1841, 431.1219
128.6662, 425.6292
129.1483, 421.3301
129.6305, 417.3949
130.1126, 413.1748
130.5947, 408.6692
131.0768, 404.0512
131.5589, 399.3914
132.0410, 394.6613
132.5232, 390.1455
133.0053, 385.6948
133.4874, 381.5804
133.9695, 378.0326
134.4516, 375.0712
134.9337, 372.5196
135.4159, 370.1980
135.8980, 368.6092
136.3801, 366.1996
136.8622, 362.2853
137.3443, 357.9771
137.8264, 354.3152
138.3086, 351.6774
138.7907, 349.5765
139.2728, 346.7340
139.7549, 342.0476
140.2370, 337.8410
140.7191, 334.5473
141.2013, 331.7866
141.6834, 328.9590
142.1655, 325.7374
142.6476, 322.2730
143.1297, 319.2956
143.6118, 317.1037
144.0939, 314.9791
144.5761, 312.6124
145.0582, 310.0578
145.5403, 307.5113
146.0224, 304.9656
146.5045, 302.5917
146.9866, 300.7116
147.4688, 299.4767
147.9509, 298.6361
148.4330, 298.0473
148.9151, 297.7508
149.3972, 297.4464
149.8793, 296.7949
150.3615, 296.0489
150.8436, 295.5324
151.3257, 295.3738
151.8078, 295.5094
152.2899, 295.8398
152.7720, 296.5148
153.2542, 297.1234
153.7363, 297.6112
154.2184, 297.9266
154.7005, 297.9593
155.1826, 297.5448
155.6647, 296.7523
156.1469, 296.3201
156.6290, 296.6936
157.1111, 297.0202
157.5932, 296.9445
158.0753, 296.6317
158.5574, 296.4994
159.0396, 296.9851
159.5217, 298.2430
160.0038, 298.6567
160.4859, 297.4958
160.9680, 296.2737
161.4501, 295.5023
161.9323, 295.2526
162.4144, 295.4471
162.8965, 296.0975
163.3786, 297.4613
163.8607, 298.0219
164.3428, 297.4103
164.8250, 296.3367
165.3071, 295.1407
165.7892, 293.9098
166.2713, 292.8516
166.7534, 292.2394
167.2355, 292.1197
167.7177, 292.1964
168.1998, 292.6907
168.6819, 293.2806
169.1640, 293.5129
169.6461, 293.2501
170.1282, 292.7959
170.6104, 292.3923
171.0925, 292.0300
171.5746, 291.9873
172.0567, 292.3886
172.5388, 293.1952
173.0209, 294.3429
173.5031, 295.9917
173.9852, 297.7563
174.4673, 299.4154
174.9494, 300.9514
175.4315, 302.2060
175.9136, 302.9846
176.3958, 303.3026
176.8779, 303.5733
177.3600, 304.0552
177.8421, 304.3007
178.3242, 304.0871
178.8063, 303.3971
179.2885, 302.3133
179.7706, 300.8594
180.2527, 298.9660
180.7348, 296.9799
181.2169, 294.7000
181.6990, 292.4976
182.1812, 290.8057
182.6633, 289.5800
183.1454, 288.2465
183.6275, 285.8503
184.1096, 281.4569
184.5917, 278.0013
185.0738, 276.2127
185.5560, 274.7084
186.0381, 272.4958
186.5202, 269.3405
187.0023, 265.7359
187.4844, 262.5202
187.9665, 259.7039
188.4487, 257.3492
188.9308, 255.8535
189.4129, 254.6170
189.8950, 253.0431
190.3771, 250.9462
190.8592, 248.6264
191.3414, 246.6886
191.8235, 245.4455
192.3056, 244.0021
192.7877, 241.9925
193.2698, 239.8141
193.7519, 238.0170
194.2341, 236.8205
194.7162, 235.9785
195.1983, 235.0123
195.6804, 233.8976
196.1625, 232.7881
196.6446, 231.7606
197.1268, 230.7693
197.6089, 229.7012
198.0910, 228.5066
198.5731, 227.2345
199.0552, 225.9861
199.5373, 224.7775
200.0195, 223.4902
200.5016, 221.8344
200.9837, 219.9460
201.4658, 218.6174
201.9479, 218.5063
202.4300, 218.6236
202.9122, 217.8611
203.3943, 216.1309
203.8764, 214.1386
204.3585, 212.3504
204.8406, 210.7624
205.3227, 209.3501
205.8048, 208.2284
206.2870, 207.2128
206.7691, 206.2070
207.2512, 205.1998
207.7333, 204.1583
208.2154, 203.0951
208.6975, 202.0421
209.1797, 200.7733
209.6618, 198.9787
210.1439, 197.1327
210.6260, 195.3757
211.1081, 193.7727
211.5902, 192.5044
212.0724, 191.9744
212.5545, 192.6241
213.0366, 192.6605
213.5187, 191.4446
214.0008, 190.0013
214.4829, 188.9660
214.9651, 188.4551
215.4472, 188.1206
215.9293, 187.4215
216.4114, 186.0271
216.8935, 184.9586
217.3756, 184.4012
217.8578, 183.9795
218.3399, 183.4097
218.8220, 182.6434
219.3041, 181.8478
219.7862, 181.2949
220.2683, 181.1761
220.7505, 180.9417
221.2326, 180.3450
221.7147, 179.7948
222.1968, 179.7607
222.6789, 180.2998
223.1610, 180.9024
223.6432, 180.7833
224.1253, 179.3783
224.6074, 178.3791
225.0895, 178.2227
225.5716, 178.2235
226.0537, 177.6995
226.5358, 176.5012
227.0180, 175.0696
227.5001, 174.0017
227.9822, 173.3880
228.4643, 172.9194
228.9464, 172.6417
229.4285, 172.4738
229.9107, 172.2899
230.3928, 172.0555
230.8749, 171.9602
231.3570, 172.4533
231.8391, 173.6626
232.3212, 174.1311
232.8034, 173.0141
233.2855, 171.2681
233.7676, 170.1612
234.2497, 169.9863
234.7318, 170.0507
235.2139, 169.4211
235.6961, 168.2042
236.1782, 167.4243
236.6603, 167.5615
237.1424, 168.2236
237.6245, 168.8581
238.1066, 169.4207
238.5888, 169.8852
239.0709, 170.3301
239.5530, 170.7005
240.0351, 170.6998
240.5172, 170.0116
240.9993, 168.9262
241.4815, 167.9929
241.9636, 167.2660
242.4457, 166.6234
242.9278, 165.8822
243.4099, 165.1426
243.8920, 164.6556
244.3742, 164.5622
244.8563, 164.7889
245.3384, 165.2910
245.8205, 166.3411
246.3026, 167.0291
246.7847, 166.8365
247.2668, 165.9922
247.7490, 164.7336
248.2311, 162.7820
248.7132, 160.6776
249.1953, 159.8776
249.6774, 161.0535
250.1595, 162.2071
250.6417, 162.5475
251.1238, 162.3600
251.6059, 161.9826
252.0880, 161.5742
252.5701, 161.0616
253.0522, 160.1711
253.5344, 158.5547
254.0165, 157.2705
254.4986, 156.6385
254.9807, 156.4445
255.4628, 156.5237
255.9449, 156.8435
256.4271, 157.2623
256.9092, 157.4407
257.3913, 157.2672
257.8734, 157.0487
258.3555, 156.8062
258.8376, 156.5789
259.3198, 156.4415
259.8019, 156.4258
260.2840, 156.4158
260.7661, 156.1479
261.2482, 155.4534
261.7303, 154.8108
262.2125, 154.2342
262.6946, 153.7394
263.1767, 153.3628
263.6588, 153.1077
264.1409, 152.9158
264.6230, 152.6505
265.1052, 152.1087
265.5873, 151.9183
266.0694, 152.4077
266.5515, 152.9979
267.0336, 153.1797
267.5157, 152.8767
267.9979, 152.4826
268.4800, 152.7044
268.9621, 154.3852
269.4442, 154.7590
269.9263, 152.6628
270.4084, 150.3795
270.8906, 149.4925
271.3727, 150.1444
271.8548, 151.3359
272.3369, 151.8822
272.8190, 151.6354
273.3011, 151.1722
273.7833, 150.0156
274.2654, 149.0761
274.7475, 149.0805
275.2296, 149.9087
275.7117, 150.8010
276.1938, 150.9925
276.6760, 150.3567
277.1581, 149.7684
277.6402, 149.1568
278.1223, 148.6418
278.6044, 148.1751
279.0865, 147.8290
279.5686, 147.8399
280.0508, 148.4673
280.5329, 149.7337
281.0150, 150.4371
281.4971, 150.6003
281.9792, 150.3123
282.4613, 149.1347
282.9435, 147.4982
283.4256, 146.4054
283.9077, 146.5741
284.3898, 147.8191
284.8719, 148.4690
285.3540, 148.0038
285.8362, 147.6295
286.3183, 147.8219
286.8004, 148.3068
287.2825, 148.5264
287.7646, 148.1618
288.2467, 147.4336
288.7289, 147.1211
289.2110, 147.5207
289.6931, 147.9325
290.1752, 148.4226
290.6573, 148.8198
291.1394, 148.7883
291.6216, 148.1768
292.1037, 147.3135
292.5858, 146.8604
293.0679, 146.8696
293.5500, 147.1987
294.0321, 148.4247
294.5143, 149.7124
294.9964, 149.9326
295.4785, 148.7887
295.9606, 147.2131
296.4427, 146.5213
296.9248, 147.0497
297.4070, 147.5452
297.8891, 147.8274
298.3712, 148.1435
298.8533, 148.8502
299.3354, 149.9577
299.8175, 150.9660
300.2997, 151.3204
300.7818, 150.8804
301.2639, 150.6555
301.7460, 150.8676
302.2281, 151.1170
302.7102, 151.0768
303.1924, 150.7708
303.6745, 150.4896
304.1566, 150.4207
304.6387, 150.5857
305.1208, 151.0195
305.6029, 151.9681
306.0851, 152.9209
306.5672, 153.5841
307.0493, 154.0284
307.5314, 154.5415
308.0135, 155.3408
308.4956, 156.2854
308.9778, 156.7319
309.4599, 156.0406
309.9420, 155.7267
310.4241, 156.3831
310.9062, 157.7435
311.3883, 159.3122
311.8705, 160.8888
312.3526, 162.5480
312.8347, 164.5321
313.3168, 167.2338
313.7989, 169.3326
314.2810, 170.0452
314.7632, 170.1881
315.2453, 170.8197
315.7274, 172.2261
316.2095, 174.1340
316.6916, 176.3132
317.1737, 178.9338
317.6559, 181.0467
318.1380, 182.1682
318.6201, 182.9928
319.1022, 184.1143
319.5843, 185.6224
320.0664, 187.3725
320.5485, 189.3403
321.0306, 191.5352
321.5128, 193.2160
321.9949, 193.6291
322.4770, 194.1817
322.9591, 195.9394
323.4412, 198.7400
323.9233, 201.5788
324.4055, 203.6628
324.8876, 205.2372
325.3697, 207.8753
325.8518, 212.8759
326.3339, 217.3757
326.8160, 219.5862
327.2982, 220.5222
327.7803, 222.5340
328.2624, 226.8270
328.7445, 232.5629
329.2266, 237.5247
329.7087, 241.2628
330.1909, 245.1643
330.6730, 249.5802
331.1551, 254.2518
331.6372, 258.8999
332.1193, 263.4462
332.6014, 267.8311
333.0836, 271.9983
333.5657, 275.9265
334.0478, 279.6112
334.5299, 283.1943
335.0120, 286.4182
335.4941, 289.0318
335.9763, 291.0120
336.4584, 292.5862
336.9405, 293.8700
337.4226, 294.8241
337.9047, 296.1489
338.3868, 298.2677
338.8690, 300.3291
339.3511, 301.5403
339.8332, 302.2611
340.3153, 303.6127
340.7974, 306.3545
341.2795, 310.2766
341.7617, 314.0447
342.2438, 317.5099
342.7259, 321.0133
343.2080, 325.0087
343.6901, 329.0067
344.1722, 332.2328
344.6544, 334.3531
345.1365, 335.6716
345.6186, 336.8342
346.1007, 338.8640
346.5828, 338.9662
347.0649, 336.6222
347.5471, 332.6328
348.0292, 327.4556
348.5113, 321.3078
348.9934, 314.3974
349.4755, 307.0387
349.9576, 299.1540
350.4398, 290.9214
350.9219, 282.3116
351.4040, 273.4449
351.8861, 264.0759
352.3682, 254.5174
352.8503, 245.4555
353.3325, 237.4318
353.8146, 230.4429
354.2967, 224.2799
354.7788, 219.7556
355.2609, 215.1377
355.7430, 209.7015
356.2252, 204.0581
356.7073, 199.1041
357.1894, 195.2828
357.6715, 192.2353
358.1536, 188.9922
358.6357, 185.0121
359.1179, 181.7105
359.5999, 179.2900
360.0821, 177.4035
360.5642, 175.9649
361.0463, 174.8594
361.5284, 173.7681
362.0105, 172.2792
362.4926, 170.3130
362.9748, 168.2424
363.4569, 166.0786
363.9390, 163.8154
364.4211, 161.2200
364.9032, 158.4850
365.3853, 156.1494
365.8675, 154.6761
366.3496, 153.9596
366.8317, 152.9955
367.3138, 151.6967
367.7959, 150.2286
368.2780, 148.1961
368.7602, 146.1777
369.2423, 144.9678
369.7244, 144.9374
370.2065, 145.5345
370.6886, 145.6597
371.1707, 145.0864
371.6529, 144.6049
372.1350, 144.6763
372.6171, 144.6227
373.0992, 143.8039
373.5813, 142.2264
374.0634, 140.6222
374.5456, 139.7520
375.0277, 139.6433
375.5098, 139.6865
375.9919, 139.9388
376.4740, 140.2772
376.9561, 140.8004
377.4383, 141.3648
377.9204, 141.6020
378.4025, 141.0430
378.8846, 140.1603
379.3667, 140.4052
379.8488, 142.2341
380.3310, 144.0144
380.8131, 145.1207
381.2952, 145.8313
381.7773, 146.3215
382.2594, 146.5798
382.7415, 146.8860
383.2237, 147.5161
383.7058, 148.4697
384.1879, 149.6709
384.6700, 151.1353
385.1521, 152.8375
385.6342, 154.8363
386.1164, 157.0906
386.5985, 159.2334
387.0806, 160.9646
387.5627, 162.4288
388.0448, 164.0099
388.5269, 165.7826
389.0091, 167.5046
389.4912, 168.9659
389.9733, 170.2473
390.4554, 171.5086
390.9375, 172.6947
391.4196, 173.9524
391.9018, 175.6033
392.3839, 177.5751
392.8660, 179.0867
393.3481, 179.6101
393.8302, 179.6462
394.3123, 180.1701
394.7945, 181.2288
395.2766, 182.5341
395.7587, 183.9322
396.2408, 185.5130
396.7229, 187.3689
397.2050, 189.5247
397.6872, 192.0764
398.1693, 195.1862
398.6514, 198.9002
399.1335, 202.8982
399.6156, 207.3454
400.0977, 211.9687
400.5798, 216.6615
401.0620, 221.3844
401.5441, 226.0420
402.0262, 230.5643
402.5083, 234.9841
402.9904, 239.3650
403.4725, 244.4584
403.9547, 248.6110
404.4368, 251.2282
404.9189, 252.8452
405.4010, 254.2375
405.8831, 255.6167
406.3652, 256.4144
406.8474, 255.8069
407.3295, 253.6659
407.8116, 250.2609
408.2937, 245.3012
408.7758, 239.5322
409.2579, 233.0471
409.7401, 226.0707
410.2222, 219.0508
410.7043, 212.2676
411.1864, 205.0618
411.6685, 198.7058
412.1506, 190.7227
412.6328, 183.1293
413.1149, 175.8653
413.5970, 169.2036
414.0791, 163.4369
414.5612, 158.6579
415.0433, 154.6715
415.5255, 151.2373
416.0076, 148.4167
416.4897, 145.8901
416.9718, 144.1423
417.4539, 142.2671
417.9360, 139.4567
418.4182, 136.0359
418.9003, 133.2208
419.3824, 132.1188
419.8645, 132.2898
420.3466, 131.6586
420.8287, 129.7695
421.3109, 128.0317
421.7930, 126.9702
422.2751, 126.3751
422.7572, 126.1996
423.2393, 126.5540
423.7214, 126.7420
424.2036, 125.7057
424.6857, 123.5151
425.1678, 122.0102
425.6499, 121.9280
426.1320, 122.2563
426.6141, 121.9634
427.0963, 121.1421
427.5784, 120.5216
428.0605, 120.6555
428.5426, 121.0757
429.0247, 120.9686
429.5068, 120.2567
429.9890, 119.6596
430.4711, 119.8155
430.9532, 120.3766
431.4353, 120.1938
431.9174, 118.4943
432.3995, 117.1935
432.8817, 117.7782
433.3638, 119.4042
433.8459, 120.2029
434.3280, 119.5351
434.8101, 118.2721
435.2922, 117.5731
435.7744, 117.5564
436.2565, 117.7266
436.7386, 118.2293
437.2207, 118.7842
437.7028, 119.3142
438.1849, 119.7410
438.6671, 119.8180
439.1492, 119.3217
439.6313, 118.4000
440.1134, 117.9359
440.5955, 118.2169
441.0776, 118.6139
441.5598, 119.3601
442.0418, 120.0404
442.5240, 120.0398
443.0061, 119.2855
443.4882, 118.4835
443.9703, 118.6221
444.4524, 119.9708
444.9345, 120.9990
445.4167, 121.4402
445.8988, 121.8174
446.3809, 122.2408
446.8630, 122.7401
447.3451, 123.3978
447.8272, 124.3176
448.3094, 125.2680
448.7915, 125.5371
449.2736, 124.7383
449.7557, 124.3640
450.2378, 124.8798
450.7199, 125.8898
451.2021, 127.2983
451.6842, 129.0471
452.1663, 130.7642
452.6484, 132.1725
453.1305, 133.3069
453.6126, 134.2538
454.0948, 134.9598
454.5769, 135.6112
455.0590, 136.0843
455.5411, 136.6196
456.0232, 137.7482
456.5053, 139.9030
456.9875, 142.2394
457.4696, 143.8666
457.9517, 144.9977
458.4338, 146.6987
458.9159, 149.4397
459.3980, 152.6763
459.8802, 155.7097
460.3623, 158.5833
460.8444, 161.0668
461.3265, 162.6834
461.8086, 164.1776
462.2907, 166.3732
462.7729, 169.1943
463.2550, 171.8745
463.7371, 173.9376
464.2192, 175.4124
464.7013, 176.5128
465.1834, 177.6580
465.6656, 177.9329
466.1477, 176.5997
466.6298, 174.6362
467.1119, 173.3313
467.5940, 172.8693
468.0761, 172.1098
468.5583, 169.5078
469.0404, 164.5810
469.5225, 160.8067
470.0046, 159.2660
470.4867, 157.7763
470.9688, 155.6644
471.4510, 153.1712
471.9331, 150.7464
472.4152, 148.5910
472.8973, 146.6663
473.3794, 144.9129
473.8615, 143.3462
474.3437, 141.8990
474.8258, 140.8222
475.3079, 139.6492
475.7900, 137.9290
476.2721, 135.7767
476.7542, 133.8127
477.2364, 132.5293
477.7185, 131.6893
478.2006, 130.7341
478.6827, 129.6389
479.1648, 128.5795
479.6469, 127.5538
480.1291, 126.6779
480.6112, 126.1916
481.0933, 126.2804
481.5754, 126.2714
482.0575, 125.5332
482.5396, 124.5339
483.0217, 124.1941
483.5038, 124.7111
483.9860, 125.5874
484.4681, 126.4712
484.9502, 127.3519
485.4323, 127.7371
485.9144, 127.2244
486.3965, 126.6760
486.8787, 126.3284
487.3608, 126.2236
487.8429, 126.4427
488.3250, 127.0167
488.8071, 127.8051
489.2892, 128.5862
489.7714, 129.5186
490.2535, 130.0419
490.7356, 129.8376
491.2177, 129.5908
491.6998, 129.5436
492.1819, 129.7451
492.6641, 130.2312
493.1462, 131.0542
493.6283, 132.1100
494.1104, 133.1427
494.5925, 134.2512
495.0746, 135.0605
495.5568, 135.0706
496.0389, 135.0311
496.5210, 135.3211
497.0031, 136.0219
497.4852, 137.3105
497.9673, 139.8790
498.4495, 143.0852
498.9316, 145.0219
499.4137, 145.4311
499.8958, 145.4671
500.3779, 145.5061
500.8600, 145.7157
501.3422, 146.4042
501.8243, 147.6667
502.3064, 149.2370
502.7885, 151.4068
503.2706, 153.6979
503.7527, 155.2463
504.2349, 155.8574
504.7170, 155.9470
505.1991, 155.9069
505.6812, 155.7357
506.1633, 155.2108
506.6454, 154.2200
507.1276, 153.0470
507.6097, 151.9683
508.0918, 150.7252
508.5739, 148.8139
509.0560, 146.0688
509.5381, 142.9659
510.0203, 140.2215
510.5024, 137.7843
510.9845, 135.8770
511.4666, 134.7247
511.9487, 133.8875
512.4308, 133.4334
512.9130, 133.1401
513.3951, 132.5668
513.8772, 131.4101
514.3593, 130.1031
514.8414, 129.5845
515.3235, 130.0090
515.8057, 129.9863
516.2878, 128.7486
516.7699, 127.4156
517.2520, 127.0091
517.7341, 127.4194
518.2162, 127.7973
518.6984, 127.4589
519.1805, 127.0807
519.6626, 127.8855
520.1447, 129.7591
520.6268, 130.8957
521.1089, 130.1764
521.5911, 128.5107
522.0732, 128.0946
522.5553, 129.4082
523.0374, 130.3070
523.5195, 130.5601
524.0016, 130.1684
524.4838, 128.7819
524.9659, 126.6308
525.4480, 124.6332
525.9301, 123.4780
526.4122, 123.0040
526.8943, 122.3518
527.3765, 121.3016
527.8586, 120.3949
528.3407, 119.8236
528.8228, 119.3008
529.3049, 118.5073
529.7870, 117.4686
530.2692, 116.5651
530.7513, 116.2379
531.2334, 116.3483
531.7155, 115.9835
532.1976, 114.8474
532.6797, 113.9316
533.1619, 113.8039
533.6440, 114.0403
534.1261, 114.2755
534.6082, 114.4681
535.0903, 114.5718
535.5724, 114.7055
536.0546, 114.7008
536.5367, 113.9404
537.0188, 112.2682
537.5009, 110.9803
537.9830, 111.1667
538.4651, 112.5618
538.9473, 113.5476
539.4294, 113.8858
539.9115, 114.1590
540.3936, 114.6545
540.8757, 115.1166
541.3578, 115.1093
541.8400, 114.6073
542.3221, 114.1131
542.8042, 114.1627
543.2863, 114.7665
543.7684, 115.2716
544.2505, 115.6014
544.7326, 115.9164
545.2147, 116.3381
545.6968, 116.7144
546.1790, 116.7230
546.6611, 116.3296
547.1432, 116.1300
547.6253, 116.9956
548.1074, 118.8017
548.5895, 120.0048
549.0717, 120.3036
549.5538, 120.5153
550.0359, 121.2063
550.5180, 122.0995
551.0001, 122.7560
551.4822, 122.9826
551.9644, 123.2613
552.4465, 123.8892
552.9286, 124.7863
553.4107, 125.7798
553.8928, 126.8345
554.3749, 128.0450
554.8571, 129.4914
555.3392, 131.1791
555.8213, 133.0546
556.3034, 135.3532
556.7855, 137.5229
557.2676, 139.0489
557.7498, 140.5603
558.2319, 142.8756
558.7140, 146.1416
559.1961, 149.7093
559.6782, 152.7817
560.1603, 155.3235
560.6425, 158.8722
561.1246, 164.0253
561.6067, 169.3117
562.0888, 174.2134
562.5709, 179.0213
563.0530, 183.9666
563.5352, 189.0739
564.0173, 194.7896
564.4994, 201.7875
564.9815, 209.7130
565.4636, 217.0412
565.9457, 223.3243
566.4279, 230.8045
566.9100, 241.1672
567.3921, 253.9877
567.8742, 267.1752
568.3563, 279.9474
568.8384, 294.3503
569.3206, 310.9328
569.8027, 329.5823
570.2848, 350.1197
570.7669, 372.4846
571.2490, 397.3199
571.7311, 424.7566
572.2133, 455.0172
572.6954, 489.2621
573.1775, 527.8210
573.6596, 570.5485
574.1417, 617.3665
574.6238, 668.3014
575.1060, 725.2986
575.5881, 787.6349
576.0702, 849.5967
576.5523, 909.3845
577.0344, 964.8613
577.5165, 1009.946
577.9987, 1046.572
578.4808, 1064.259
578.9629, 1057.269
579.4450, 1028.026
579.9271, 980.1804
580.4092, 911.8558
580.8914, 838.7213
581.3735, 761.4456
581.8556, 685.6397
582.3377, 615.0489
582.8198, 551.0560
583.3019, 496.5970
583.7841, 453.5591
584.2662, 420.8253
584.7483, 395.2531
585.2304, 379.8181
585.7125, 367.0983
586.1946, 356.7970
586.6768, 349.2155
587.1589, 345.2070
587.6410, 344.0704
588.1231, 344.3545
588.6052, 345.4473
589.0873, 346.7792
589.5695, 347.3332
590.0516, 347.1810
590.5337, 345.7259
591.0158, 342.9301
591.4979, 338.6028
591.9800, 333.3112
592.4622, 326.7162
592.9443, 317.2533
593.4264, 303.0380
593.9085, 287.0880
594.3906, 271.5870
594.8727, 256.4631
595.3549, 241.0826
595.8370, 225.2077
596.3191, 210.1550
596.8012, 197.5212
597.2833, 187.5183
597.7654, 178.4231
598.2476, 170.4767
598.7297, 163.0137
599.2118, 155.4538
599.6939, 148.3882
600.1760, 142.5511
600.6581, 138.1432
601.1403, 134.8600
601.6224, 132.7323
602.1045, 131.6761
602.5866, 129.8396
603.0687, 126.9335
603.5508, 123.8915
604.0330, 120.7136
604.5151, 117.8692
604.9972, 116.2295
605.4793, 116.1359
605.9614, 115.9729
606.4435, 114.6675
606.9257, 112.9359
607.4078, 111.8619
607.8899, 111.4768
608.3720, 111.0746
608.8541, 110.2051
609.3362, 109.0181
609.8184, 107.9771
610.3005, 107.0799
610.7826, 106.3574
611.2647, 106.0228
611.7468, 105.6714
612.2289, 104.9908
612.7111, 104.0684
613.1932, 103.1381
613.6753, 102.2719
614.1574, 101.6599
614.6395, 101.8363
615.1216, 102.8900
615.6038, 103.5279
616.0859, 103.3798
616.5680, 102.9500
617.0501, 102.7446
617.5322, 102.6315
618.0143, 102.1116
618.4965, 100.5314
618.9786, 99.13759
619.4607, 98.68133
619.9428, 98.93366
620.4249, 99.64836
620.9070, 100.7228
621.3892, 101.6926
621.8713, 102.0920
622.3534, 101.9267
622.8355, 101.5260
623.3176, 100.4321
623.7997, 99.70166
624.2819, 99.82079
624.7640, 100.1481
625.2461, 100.0639
625.7282, 99.52801
626.2103, 98.98788
626.6924, 98.71689
627.1745, 98.71172
627.6566, 99.13179
628.1387, 100.0350
628.6208, 100.5105
629.1030, 100.0272
629.5851, 99.18058
630.0672, 98.88982
630.5493, 99.17601
631.0314, 99.36088
631.5135, 99.18005
631.9957, 99.02615
632.4778, 98.89429
632.9599, 99.02185
633.4420, 100.0943
633.9241, 102.3190
634.4063, 104.6629
634.8884, 105.4842
635.3705, 104.4903
635.8526, 104.4925
636.3347, 106.3278
636.8168, 107.9979
637.2990, 108.7003
637.7811, 108.9277
638.2632, 109.3387
638.7453, 110.0879
639.2274, 110.5616
639.7095, 110.2169
640.1917, 109.3601
640.6738, 108.5138
641.1559, 107.7139
641.6380, 106.8369
642.1201, 105.8525
642.6022, 104.6880
643.0844, 103.1248
643.5665, 100.7221
644.0486, 98.86775
644.5307, 97.56815
645.0128, 96.80733
645.4949, 96.75584
645.9771, 97.20079
646.4592, 97.91511
646.9413, 98.81863
647.4234, 99.41918
647.9055, 98.70000
648.3876, 96.70139
648.8698, 95.51907
649.3519, 95.52750
649.8340, 95.88950
650.3161, 96.25789
650.7982, 96.58965
651.2803, 96.81533
651.7625, 96.99320
652.2446, 96.90087
652.7267, 96.25524
653.2088, 95.41775
653.6909, 94.63806
654.1730, 94.02918
654.6552, 93.94788
655.1373, 94.68141
655.6194, 95.74694
656.1015, 95.81217
656.5836, 94.34970
657.0657, 93.25131
657.5479, 92.70496
658.0300, 92.46695
658.5121, 92.65175
658.9942, 93.04099
659.4763, 93.21179
659.9584, 92.98485
660.4406, 92.64149
660.9227, 92.35472
661.4048, 92.15511
661.8869, 92.18214
662.3690, 92.46108
662.8511, 92.66368
663.3333, 92.49304
663.8154, 92.10291
664.2975, 92.14052
664.7796, 93.38594
665.2617, 93.95291
665.7438, 92.95053
666.2260, 91.99544
666.7081, 92.47196
667.1902, 93.93000
667.6723, 94.96804
668.1544, 94.82537
668.6365, 94.11156
669.1187, 93.72451
669.6008, 93.65396
670.0829, 93.68610
670.5650, 93.84349
671.0471, 93.96326
671.5292, 93.91113
672.0114, 93.72203
672.4935, 93.53397
672.9756, 93.30750
673.4577, 93.15390
673.9398, 93.35042
674.4219, 93.46748
674.9041, 92.92174
675.3862, 91.84868
675.8683, 90.89299
676.3504, 90.43855
676.8325, 90.40442
677.3146, 90.66270
677.7968, 91.29773
678.2789, 91.82891
678.7610, 92.32024
679.2431, 92.54896
679.7252, 92.00337
680.2073, 91.18415
680.6895, 91.24214
681.1716, 92.87475
681.6537, 94.25568
682.1358, 94.11604
682.6179, 93.19080
683.1000, 92.30956
683.5822, 91.66663
684.0643, 91.63326
684.5464, 92.55266
685.0285, 93.93033
685.5106, 94.29207
685.9927, 93.05946
686.4749, 92.16961
686.9570, 91.82133
687.4391, 91.70751
687.9212, 91.82381
688.4033, 92.05520
688.8854, 92.22713
689.3676, 92.29350
689.8497, 92.25000
690.3318, 91.92277
690.8139, 91.52581
691.2960, 91.61780
691.7781, 92.23655
692.2603, 92.79812
692.7424, 92.93543
693.2245, 92.80954
693.7066, 92.85508
694.1887, 93.27371
694.6708, 93.45089
695.1530, 93.23089
695.6351, 92.94766
696.1172, 92.61033
696.5993, 92.36323
697.0814, 92.47688
697.5635, 93.05944
698.0457, 93.73611
698.5278, 94.14541
699.0099, 94.34482
699.4920, 94.54250
699.9741, 94.75834
700.4562, 94.84622
700.9384, 94.70413
701.4205, 94.41734
701.9026, 94.13069
702.3847, 93.71899
702.8668, 93.67799
703.3489, 94.45969
703.8311, 95.15165
704.3132, 95.22258
704.7953, 94.93051
705.2774, 94.69778
705.7595, 94.66285
706.2416, 94.71503
706.7238, 94.67544
707.2059, 94.61464
707.6880, 94.93187
708.1701, 95.69719
708.6522, 96.33525
709.1343, 96.60928
709.6164, 96.63188
710.0985, 96.56728
710.5806, 96.42338
711.0627, 96.14492
711.5449, 95.57613
712.0270, 95.03389
712.5091, 94.62132
712.9912, 94.35021
713.4733, 94.14114
713.9554, 94.01971
714.4376, 94.29504
714.9197, 95.53779
715.4018, 97.33077
715.8839, 97.92313
716.3660, 97.15076
716.8481, 96.34705
717.3303, 95.80872
717.8124, 95.55401
718.2945, 95.73502
718.7766, 96.31123
719.2587, 96.70216
719.7408, 96.72801
720.2230, 96.71457
720.7051, 96.94214
721.1872, 97.11344
721.6693, 96.70727
722.1514, 95.78997
722.6335, 95.07009
723.1157, 95.14057
723.5978, 95.68258
724.0799, 95.77271
724.5620, 95.33906
725.0441, 95.23257
725.5262, 95.76524
726.0084, 96.39262
726.4905, 96.74389
726.9726, 96.82443
727.4547, 96.62696
727.9368, 95.71479
728.4189, 95.20826
728.9011, 95.94002
729.3832, 96.85949
729.8653, 96.77718
730.3474, 95.91283
730.8295, 95.33284
731.3116, 95.63353
731.7938, 96.45631
732.2759, 97.38487
732.7580, 98.42813
733.2401, 98.64851
733.7222, 97.65533
734.2043, 96.66194
734.6865, 96.35390
735.1686, 96.52209
735.6507, 96.69395
736.1328, 96.87333
736.6149, 97.03896
737.0970, 97.19435
737.5792, 97.32748
738.0613, 97.46761
738.5434, 97.57061
739.0255, 97.52353
739.5076, 97.29662
739.9897, 97.04823
740.4719, 96.96523
740.9540, 97.02937
741.4361, 97.14343
741.9182, 97.33997
742.4003, 97.40632
742.8824, 97.20460
743.3646, 96.90298
743.8467, 96.67885
744.3288, 96.52544
744.8109, 96.57151
745.2930, 96.91333
745.7751, 97.35667
746.2573, 97.69860
746.7394, 98.16941
747.2215, 99.19933
747.7036, 100.7223
748.1857, 102.1214
748.6678, 102.8841
749.1500, 103.2893
749.6321, 103.9580
750.1142, 104.8918
750.5963, 105.8170
751.0784, 106.7013
751.5605, 107.4830
752.0427, 107.9538
752.5248, 108.2690
753.0069, 109.2845
753.4890, 111.0345
753.9711, 113.3539
754.4532, 116.7930
754.9354, 120.3031
755.4175, 123.1524
755.8996, 125.4490
756.3817, 127.5091
756.8638, 129.4410
757.3459, 131.6503
757.8281, 134.6340
758.3102, 138.2994
758.7923, 142.2182
759.2744, 146.3620
759.7565, 150.9699
760.2386, 156.2103
760.7208, 161.9044
761.2029, 167.7747
761.6850, 173.8649
762.1671, 180.0212
762.6492, 185.9003
763.1313, 192.2224
763.6135, 199.9792
764.0956, 207.8271
764.5777, 214.4570
765.0598, 219.6316
765.5419, 223.7834
766.0240, 227.2839
766.5062, 229.8380
766.9883, 231.0100
767.4704, 230.8632
767.9525, 229.6864
768.4346, 227.5557
768.9167, 224.1779
769.3989, 219.2374
769.8810, 212.8580
770.3631, 205.9865
770.8452, 197.8876
771.3273, 190.5876
771.8094, 184.6867
772.2916, 179.1225
772.7737, 173.2230
773.2558, 167.3149
773.7379, 162.2045
774.2200, 158.2751
774.7021, 154.4970
775.1843, 150.0681
775.6664, 145.4910
776.1485, 141.3555
776.6306, 137.7177
777.1127, 134.5831
777.5948, 131.9455
778.0770, 129.6614
778.5591, 127.4934
779.0412, 125.4186
779.5233, 123.9162
780.0054, 123.3321
780.4875, 122.5941
780.9697, 121.3416
781.4518, 119.7899
781.9339, 118.0764
782.4160, 116.2171
782.8981, 114.4774
783.3802, 112.9638
783.8624, 111.5358
784.3445, 110.0368
784.8266, 108.6202
785.3087, 107.4263
785.7908, 106.5147
786.2729, 106.0467
786.7551, 106.2018
787.2372, 106.5708
787.7193, 106.2084
788.2014, 105.1278
788.6835, 104.4354
789.1656, 104.3402
789.6478, 104.3147
790.1299, 104.0046
790.6120, 103.5742
791.0941, 103.4504
791.5762, 103.7789
792.0583, 103.9593
792.5404, 104.1278
793.0225, 103.9582
793.5046, 102.8558
793.9868, 101.5384
794.4689, 101.0991
794.9510, 101.6791
795.4331, 102.2316
795.9152, 101.7792
796.3973, 102.0923
796.8795, 100.9468
797.3616, 101.5564
797.8437, 101.5367
798.3258, 100.5481
798.8079, 99.70585
799.2900, 100.0710
799.7722, 101.3763
800.2543, 102.1179
800.7364, 102.0900
801.2185, 101.9240
801.7006, 101.4236
802.1827, 101.0367
802.6649, 101.0277
803.1470, 101.2670
803.6291, 101.5386
804.1112, 101.8218
804.5933, 102.0156
805.0754, 101.8997
805.5576, 101.8039
806.0397, 102.1152
806.5218, 102.7150
807.0039, 103.3751
807.4860, 103.9850
807.9681, 104.3002
808.4503, 103.9446
808.9324, 103.0859
809.4145, 102.6283
809.8966, 102.6038
810.3787, 102.8180
810.8608, 103.3949
811.3430, 103.8787
811.8251, 103.7757
812.3072, 103.1825
812.7893, 102.8110
813.2714, 102.9288
813.7535, 102.8663
814.2357, 102.3855
814.7178, 101.8283
815.1999, 101.2549
815.6820, 100.8334
816.1641, 100.9118
816.6462, 101.6187
817.1284, 102.4311
817.6105, 102.8410
818.0926, 103.3896
818.5747, 103.4464
819.0568, 104.0218
819.5389, 104.3576
820.0211, 104.3026
820.5032, 104.1161
820.9853, 104.0981
821.4674, 104.2323
821.9495, 104.2590
822.4316, 104.0726
822.9138, 104.0173
823.3959, 104.4974
823.8780, 104.7747
824.3601, 104.2180
824.8422, 103.0997
825.3243, 102.1357
825.8065, 101.4684
826.2886, 100.9111
826.7707, 100.3758
827.2528, 99.93083
827.7349, 99.56760
828.2170, 99.36012
828.6992, 99.55624
829.1813, 100.2098
829.6634, 100.8365
830.1455, 100.8541
830.6276, 100.4415
831.1097, 100.1729
831.5919, 100.0485
832.0740, 100.0703
832.5561, 100.2993
833.0382, 100.4078
833.5203, 100.0142
834.0024, 99.21694
834.4846, 98.75069
834.9667, 98.64415
835.4488, 98.84016
835.9309, 99.67410
836.4130, 100.4380
836.8951, 100.7343
837.3773, 100.7193
837.8594, 100.7481
838.3415, 100.9344
838.8236, 100.8457
839.3057, 99.89263
839.7878, 98.87170
840.2700, 98.65378
840.7521, 98.95579
841.2342, 99.15414
841.7163, 99.06166
842.1984, 98.73774
842.6805, 98.16847
843.1627, 97.50468
843.6448, 97.32502
844.1269, 97.65559
844.6090, 97.50764
845.0911, 96.57034
845.5732, 95.66044
846.0554, 95.41981
846.5375, 94.72086
847.0196, 94.19816
847.5017, 94.12160
847.9838, 93.49595
848.4659, 93.67445
848.9481, 94.03946
849.4302, 94.64156
849.9123, 95.13669
850.3944, 94.94118
850.8765, 94.08083
851.3586, 93.55347
851.8408, 94.40958
852.3229, 95.25301
852.8050, 94.65350
853.2871, 93.32391
853.7692, 92.42442
854.2513, 92.11840
854.7335, 92.00233
855.2156, 91.81165
855.6977, 92.30907
856.1798, 92.45214
856.6619, 93.79819
857.1440, 95.11632
857.6262, 96.49355
858.1083, 97.15430
858.5904, 96.59647
859.0725, 95.40124
859.5546, 94.21457
860.0367, 92.97326
860.5189, 92.54128
861.0010, 93.72327
861.4831, 94.59069
861.9652, 94.71865
862.4473, 94.53822
862.9294, 94.24070
863.4116, 93.92406
863.8937, 93.79446
864.3758, 93.99790
864.8579, 94.10421
865.3400, 93.53439
865.8221, 92.95448
866.3043, 93.44410
866.7864, 94.55223
867.2685, 94.88755
867.7506, 94.03004
868.2327, 92.90208
868.7148, 92.45527
869.1970, 92.50282
869.6791, 92.36465
870.1612, 92.04084
870.6433, 92.16670
871.1254, 93.02998
871.6075, 93.61829
872.0897, 93.09658
872.5718, 91.76826
873.0539, 90.57567
873.5360, 89.31628
874.0181, 88.65990
874.5002, 89.18253
874.9823, 89.65627
875.4644, 89.56236
875.9465, 89.28911
876.4286, 89.45945
876.9108, 90.06205
877.3929, 90.08284
877.8750, 88.29662
878.3571, 86.86526
878.8392, 87.55799
879.3214, 88.90656
879.8035, 88.96687
880.2856, 87.92601
880.7677, 87.33727
881.2498, 88.01977
881.7319, 88.91630
882.2141, 88.68803
882.6962, 87.61799
883.1783, 86.34023
883.6604, 84.95280
884.1425, 84.19164
884.6246, 84.34965
885.1068, 84.96104
885.5889, 85.59419
886.0710, 86.19569
886.5531, 86.25761
887.0352, 85.47083
887.5173, 85.07504
887.9995, 85.55647
888.4816, 85.98786
888.9637, 85.63381
889.4458, 84.88338
889.9279, 84.54849
890.4100, 84.76883
890.8922, 84.89018
891.3743, 84.76143
891.8564, 84.58323
892.3385, 84.35363
892.8206, 84.18232
893.3027, 84.32079
893.7849, 84.67396
894.2670, 84.71310
894.7491, 84.04565
895.2312, 83.25510
895.7133, 82.73439
896.1954, 82.51945
896.6776, 82.84310
897.1597, 83.56435
897.6418, 84.11537
898.1239, 84.25208
898.6060, 84.22192
899.0881, 84.25552
899.5703, 84.39745
900.0524, 85.11129
900.5345, 86.46530
901.0166, 86.88686
901.4987, 85.81449
901.9808, 84.50053
902.4630, 83.93607
902.9451, 83.91890
903.4272, 83.73782
903.9093, 83.28820
904.3914, 82.91279
904.8735, 82.52400
905.3557, 82.32348
905.8378, 82.47133
906.3199, 82.77932
906.8020, 83.02747
907.2841, 83.21426
907.7662, 83.53080
908.2484, 84.46695
908.7305, 84.97240
909.2126, 84.24769
909.6947, 83.20399
910.1768, 82.47213
910.6589, 82.19292
911.1411, 82.59595
911.6232, 83.79024
912.1053, 84.80827
912.5874, 84.47791
913.0695, 83.66750
913.5516, 83.87418
914.0338, 84.76083
914.5159, 85.21291
914.9980, 84.97343
915.4801, 84.40779
915.9622, 83.75133
916.4443, 83.11816
916.9265, 82.79723
917.4086, 82.78753
917.8907, 82.89167
918.3728, 83.18181
918.8549, 82.96968
919.3370, 81.65819
919.8192, 80.33033
920.3013, 80.62679
920.7834, 82.60979
921.2655, 83.73587
921.7476, 83.56142
922.2297, 83.29663
922.7119, 82.98516
923.1940, 82.74660
923.6761, 82.46098
924.1582, 82.34695
924.6403, 82.97347
925.1224, 84.63206
925.6046, 85.92870
926.0867, 86.26664
926.5688, 86.44251
927.0509, 86.56685
927.5330, 86.95737
928.0151, 88.22379
928.4973, 90.16221
928.9794, 91.65231
929.4615, 91.92707
929.9436, 92.20033
930.4257, 93.66897
930.9078, 95.72686
931.3900, 97.39041
931.8721, 98.81693
932.3542, 100.8612
932.8363, 103.7483
933.3184, 106.5465
933.8005, 108.1114
934.2827, 111.0455
934.7648, 111.7244
935.2469, 115.6742
935.7290, 118.7122
936.2111, 120.4281
936.6932, 122.0288
937.1754, 124.1952
937.6575, 126.7314
938.1396, 129.2662
938.6217, 131.7803
939.1038, 134.7029
939.5859, 138.4825
940.0681, 141.4720
940.5502, 143.0476
941.0323, 144.0374
941.5144, 145.1799
941.9965, 146.3235
942.4786, 146.7923
942.9608, 146.2443
943.4429, 145.7663
943.9250, 145.7159
944.4071, 145.3723
944.8892, 144.1933
945.3713, 142.7305
945.8535, 141.8125
946.3356, 141.3516
946.8177, 140.2020
947.2998, 137.4917
947.7819, 134.7846
948.2640, 133.0847
948.7462, 131.5368
949.2283, 129.1976
949.7104, 126.4083
950.1925, 124.0641
950.6746, 122.3967
951.1567, 120.7148
951.6389, 118.3769
952.1210, 115.8109
952.6031, 113.4490
953.0852, 111.3009
953.5673, 109.4231
954.0494, 107.7875
954.5316, 106.2868
955.0137, 104.8662
955.4958, 103.3392
955.9779, 101.2195
956.4600, 98.73157
956.9421, 97.06651
957.4242, 96.19450
957.9063, 95.50241
958.3884, 94.85403
958.8705, 94.05586
959.3527, 92.91672
959.8348, 91.59416
960.3169, 90.56788
960.7990, 89.85463
961.2811, 89.34997
961.7632, 89.12337
962.2454, 88.91086
962.7275, 88.62234
963.2096, 88.30585
963.6917, 88.04317
964.1738, 87.81664
964.6559, 87.40836
965.1381, 86.48470
965.6202, 85.92639
966.1023, 85.97855
966.5844, 86.14076
967.0665, 86.29819
967.5486, 86.38493
968.0308, 86.25761
968.5129, 85.91489
968.9950, 85.73803
969.4771, 85.72200
969.9592, 85.99604
970.4413, 87.07497
970.9235, 88.03721
971.4056, 87.94046
971.8877, 87.20179
972.3698, 86.75915
972.8519, 86.86288
973.3340, 87.01997
973.8162, 86.74271
974.2983, 86.62215
974.7804, 87.32858
975.2625, 88.39034
975.7446, 89.16513
976.2267, 89.61358
976.7089, 89.97375
977.1910, 90.35045
977.6731, 90.74828
978.1552, 91.19561
978.6373, 91.65395
979.1194, 91.97810
979.6016, 92.26408
980.0837, 92.84185
980.5658, 93.75486
981.0479, 94.72285
981.5300, 95.55314
982.0121, 96.33882
982.4943, 97.37960
982.9764, 98.53979
983.4585, 98.93415
983.9406, 98.56152
984.4227, 98.24910
984.9048, 98.25176
985.3870, 98.39631
985.8691, 98.48338
986.3512, 98.66537
986.8333, 99.58778
987.3154, 101.4047
987.7975, 102.6075
988.2797, 102.9479
988.7618, 103.4036
989.2439, 104.4560
989.7260, 105.5858
990.2081, 106.1983
990.6902, 106.3325
991.1724, 106.3525
991.6545, 106.1388
992.1366, 106.1048
992.6187, 106.4786
993.1008, 106.7190
993.5829, 106.2759
994.0651, 105.7714
994.5472, 106.3505
995.0293, 108.0471
995.5114, 108.6556
995.9935, 107.5079
996.4756, 106.2021
996.9578, 104.5821
997.4399, 103.2340
997.9220, 102.7185
998.4041, 102.5799
998.8862, 102.2177
999.3683, 101.5677
999.8505, 100.3776
1000.333, 97.85416
1000.815, 95.74825
1001.297, 95.01094
1001.779, 94.69163
1002.261, 94.12404
1002.743, 93.32260
1003.225, 92.49719
1003.707, 91.70253
1004.190, 90.72393
1004.672, 89.22330
1005.154, 87.76931
1005.636, 86.69429
1006.118, 85.89912
1006.600, 85.30901
1007.082, 84.86115
1007.564, 84.49763
1008.046, 84.19817
1008.529, 83.76442
1009.011, 82.78353
1009.493, 81.82055
1009.975, 81.77075
1010.457, 82.07394
1010.939, 81.63847
1011.421, 80.48382
1011.903, 79.33747
1012.385, 78.55172
1012.868, 78.06059
1013.350, 77.93848
1013.832, 77.98289
1014.314, 77.90357
1014.796, 77.65360
1015.278, 76.96182
1015.760, 75.88526
1016.242, 75.12435
1016.725, 75.11453
1017.207, 75.29822
1017.689, 74.75349
1018.171, 74.55376
1018.653, 74.14667
1019.135, 73.41408
1019.617, 73.01598
1020.099, 71.95150
1020.581, 71.07964
1021.064, 70.99674
1021.546, 71.39892
1022.028, 71.78166
1022.510, 72.14043
1022.992, 72.46311
1023.474, 72.75229
1023.956, 72.86541
1024.438, 72.76624
1024.921, 72.45586
1025.403, 71.88489
1025.885, 71.24023
1026.367, 71.04781
1026.849, 71.36323
1027.331, 71.08923
1027.813, 70.00385
1028.295, 69.66562
1028.777, 70.65988
1029.260, 71.95254
1029.742, 72.75386
1030.224, 73.16830
1030.706, 73.44246
1031.188, 73.53311
1031.670, 73.77488
1032.152, 74.36938
1032.634, 74.48938
1033.116, 73.69888
1033.599, 72.73283
1034.081, 72.07077
1034.563, 71.78056
1035.045, 72.13302
1035.527, 73.40421
1036.009, 74.36880
1036.491, 74.99748
1036.973, 75.36125
1037.456, 75.29904
1037.938, 75.20351
1038.420, 75.47141
1038.902, 75.95459
1039.384, 76.15208
1039.866, 76.00866
1040.348, 75.72344
1040.830, 74.95637
1041.313, 74.53951
1041.795, 75.15788
1042.277, 75.77951
1042.759, 75.36636
1043.241, 74.29639
1043.723, 73.82442
1044.205, 74.39499
1044.687, 74.35742
1045.169, 72.82244
1045.651, 71.75171
1046.134, 72.04858
1046.616, 72.71034
1047.098, 72.98164
1047.580, 72.94067
1048.062, 72.92641
1048.544, 73.04226
1049.026, 72.92094
1049.508, 72.37217
1049.991, 71.76373
1050.473, 71.09446
1050.955, 70.52258
1051.437, 70.12930
1051.919, 69.94112
1052.401, 70.09029
1052.883, 70.77213
1053.365, 70.99075
1053.848, 69.95425
1054.330, 69.16548
1054.812, 69.48278
1055.294, 70.04053
1055.776, 70.13718
1056.258, 69.84517
1056.740, 69.37495
1057.222, 68.66115
1057.704, 68.46273
1058.187, 69.37796
1058.669, 70.35802
1059.151, 71.11536
1059.633, 71.60794
1060.115, 71.67964
1060.597, 71.50796
1061.079, 71.54509
1061.561, 71.92850
1062.043, 71.93389
1062.526, 70.87631
1063.008, 69.94832
1063.490, 69.55824
1063.972, 69.63864
1064.454, 70.54105
1064.936, 71.72340
1065.418, 72.04893
1065.900, 71.27636
1066.383, 70.58544
1066.865, 70.39129
1067.347, 70.43441
1067.829, 70.72535
1068.311, 71.08274
1068.793, 71.37069
1069.275, 71.59958
1069.757, 71.81269
1070.240, 72.01948
1070.722, 72.22582
1071.204, 72.35427
1071.686, 72.58729
1072.168, 73.24094
1072.650, 73.81626
1073.132, 73.88821
1073.614, 73.59150
1074.096, 73.08583
1074.578, 72.46066
1075.061, 72.11736
1075.543, 72.26961
1076.025, 72.65831
1076.507, 73.39260
1076.989, 74.08239
1077.471, 74.48100
1077.953, 74.59615
1078.435, 74.31309
1078.918, 73.73776
1079.400, 73.52378
1079.882, 74.15501
1080.364, 74.67837
1080.846, 74.51115
1081.328, 74.20679
1081.810, 74.17818
1082.292, 74.26006
1082.774, 74.13406
1083.257, 73.84383
1083.739, 73.79869
1084.221, 74.26794
1084.703, 74.59377
1085.185, 74.38717
1085.667, 74.03493
1086.149, 73.58361
1086.631, 73.27745
1087.114, 73.53553
1087.596, 74.18488
1088.078, 74.56600
1088.560, 74.45621
1089.042, 74.23457
1089.524, 74.30964
1090.006, 74.01572
1090.488, 72.40211
1090.970, 70.69338
1091.453, 70.25438
1091.935, 70.76407
1092.417, 71.14034
1092.899, 71.11217
1093.381, 71.18790
1093.863, 71.77974
1094.345, 72.22878
1094.827, 72.32302
1095.309, 72.05925
1095.792, 71.08548
1096.274, 69.89146
1096.756, 69.35994
1097.238, 69.64565
1097.720, 70.25845
1098.202, 71.63084
1098.684, 72.49479
1099.166, 72.06029
1099.649, 71.35374
1100.131, 70.85712
1100.613, 70.67860
1101.095, 71.03086
1101.577, 71.86536
1102.059, 72.50199
1102.541, 72.84446
1103.023, 72.86455
1103.505, 72.11561
1103.988, 71.54699
1104.470, 71.58004
1104.952, 72.13207
1105.434, 73.35546
1105.916, 75.03747
1106.398, 76.19386
1106.880, 76.48988
1107.362, 76.70013
1107.844, 76.74879
1108.327, 76.98294
1108.809, 77.64659
1109.291, 78.45545
1109.773, 79.27903
1110.255, 80.02456
1110.737, 80.40311
1111.219, 80.24043
1111.701, 80.31716
1112.184, 81.46401
1112.666, 81.76979
1113.148, 80.00266
1113.630, 78.09853
1114.112, 77.25343
1114.594, 77.16640
1115.076, 77.39229
1115.558, 78.00289
1116.041, 78.19760
1116.523, 77.82704
1117.005, 77.28584
1117.487, 76.46756
1117.969, 75.69433
1118.451, 75.22096
1118.933, 74.76819
1119.415, 73.84206
1119.897, 73.55674
1120.380, 73.26762
1120.862, 72.63058
1121.344, 72.79792
1121.826, 72.25413
1122.308, 71.53136
1122.790, 70.61092
1123.272, 69.94084
1123.754, 70.02600
1124.236, 70.64732
1124.719, 71.06234
1125.201, 71.23165
1125.683, 71.45925
1126.165, 71.87302
1126.647, 71.78439
1127.129, 70.86583
1127.611, 69.96496
1128.093, 69.64800
1128.576, 69.74630
1129.058, 69.95550
1129.540, 70.27738
1130.022, 70.89311
1130.504, 71.86500
1130.986, 72.29903
1131.468, 72.01987
1131.950, 71.59669
1132.432, 71.27585
1132.915, 71.12844
1133.397, 71.30044
1133.879, 71.03144
1134.361, 71.47318
1134.843, 70.87972
1135.325, 70.57381
1135.807, 70.62049
1136.289, 71.32317
1136.771, 72.75722
1137.254, 73.84746
1137.736, 73.68737
1138.218, 72.84727
1138.700, 72.13480
1139.182, 71.65184
1139.664, 71.92313
1140.146, 72.75736
1140.628, 73.28686
1141.111, 73.38840
1141.593, 73.49490
1142.075, 73.83704
1142.557, 74.25172
1143.039, 74.63933
1143.521, 74.91152
1144.003, 74.92556
1144.485, 74.70537
1144.968, 74.02946
1145.450, 73.18468
1145.932, 73.06392
1146.414, 73.90946
1146.896, 75.18290
1147.378, 76.96180
1147.860, 78.06699
1148.342, 76.78117
1148.824, 74.67954
1149.307, 73.27538
1149.789, 72.60908
1150.271, 72.86890
1150.753, 73.72536
1151.235, 73.82040
1151.717, 72.36618
1152.199, 71.23917
1152.681, 71.90754
1153.163, 72.79139
1153.646, 72.79077
1154.128, 72.51485
1154.610, 72.67161
1155.092, 73.10728
1155.574, 73.35711
1156.056, 73.33396
1156.538, 73.08843
1157.020, 72.22446
1157.503, 71.73123
1157.985, 72.17056
1158.467, 72.75188
1158.949, 73.21167
1159.431, 73.40128
1159.913, 72.93562
1160.395, 71.94328
1160.877, 71.56355
1161.359, 72.55032
1161.842, 72.73425
1162.324, 71.14793
1162.806, 70.21269
1163.288, 70.85046
1163.770, 72.00551
1164.252, 73.11991
1164.734, 74.03623
1165.216, 74.37999
1165.698, 74.12183
1166.181, 73.61263
1166.663, 72.69267
1167.145, 72.13097
1167.627, 72.06039
1168.109, 72.34721
1168.591, 73.10949
1169.073, 73.52845
1169.555, 72.47475
1170.037, 72.61892
1170.520, 72.19772
1171.002, 71.36168
1171.484, 71.52918
1171.966, 70.62411
1172.448, 70.47940
1172.930, 71.56518
1173.412, 72.42927
1173.894, 72.06676
1174.377, 71.27193
1174.859, 71.26880
1175.341, 71.74307
1175.823, 71.81541
1176.305, 71.62094
1176.787, 71.52085
1177.269, 71.57287
1177.751, 71.78154
1178.234, 72.13840
1178.716, 72.54537
1179.198, 72.90359
1179.680, 73.32989
1180.162, 74.14566
1180.644, 74.94668
1181.126, 75.03199
1181.608, 74.81290
1182.090, 75.11816
1182.573, 75.92364
1183.055, 76.64461
1183.537, 77.11087
1184.019, 77.12089
1184.501, 75.73354
1184.983, 74.91001
1185.465, 76.53959
1185.947, 78.45107
1186.429, 78.75057
1186.912, 77.96512
1187.394, 77.17771
1187.876, 76.52044
1188.358, 75.89382
1188.840, 75.20124
1189.322, 74.66697
1189.804, 74.73473
1190.286, 74.40285
1190.769, 72.90771
1191.251, 71.34175
1191.733, 70.67026
1192.215, 70.61155
1192.697, 70.41624
1193.179, 70.03369
1193.661, 70.05913
1194.143, 70.81749
1194.625, 70.59387
1195.108, 68.79060
1195.590, 67.47026
1196.072, 67.67407
1196.554, 68.61557
1197.036, 69.50616
1197.518, 70.21261
1198.000, 70.21799
1198.482, 69.60213
1198.964, 69.02701
1199.447, 68.53608
1199.929, 68.24323
1200.411, 68.14964
1200.893, 68.00627
1201.375, 67.66814
1201.857, 67.27048
1202.339, 66.78696
1202.821, 66.50676
1203.304, 67.00686
1203.786, 67.98754
1204.268, 69.18346
1204.750, 70.31523
1205.232, 70.73968
1205.714, 70.41665
1206.196, 70.11732
1206.678, 70.25378
1207.161, 70.42913
1207.643, 70.31937
1208.125, 70.25404
1208.607, 70.56161
1209.089, 70.95153
1209.571, 71.18874
1210.053, 71.22727
1210.535, 70.88612
1211.017, 70.09220
1211.500, 69.93621
1211.982, 71.15395
1212.464, 72.12440
1212.946, 72.40231
1213.428, 72.70954
1213.910, 73.40249
1214.392, 74.11930
1214.874, 74.45478
1215.356, 74.58360
1215.839, 75.12763
1216.321, 76.21432
1216.803, 76.30446
1217.285, 75.13523
1217.767, 74.85939
1218.249, 75.94601
1218.731, 76.85593
1219.213, 76.83990
1219.696, 76.50002
1220.178, 76.46130
1220.660, 76.65665
1221.142, 77.06937
1221.624, 77.55499
1222.106, 77.44128
1222.588, 76.96105
1223.070, 77.03175
1223.552, 77.75526
1224.035, 78.70018
1224.517, 79.66737
1224.999, 80.36117
1225.481, 80.30125
1225.963, 80.11790
1226.445, 80.38352
1226.927, 80.82142
1227.409, 81.31169
1227.891, 81.66315
1228.374, 81.58049
1228.856, 81.08547
1229.338, 80.45281
1229.820, 79.59594
1230.302, 79.13150
1230.784, 79.84791
1231.266, 80.08099
1231.748, 78.64382
1232.231, 77.30811
1232.713, 77.13362
1233.195, 77.74086
1233.677, 78.78557
1234.159, 80.15575
1234.641, 80.80054
1235.123, 80.56055
1235.605, 80.35005
1236.088, 80.20419
1236.570, 80.01835
1237.052, 79.74779
1237.534, 79.64497
1238.016, 79.90337
1238.498, 80.15458
1238.980, 79.78500
1239.462, 79.10979
1239.944, 78.93038
1240.427, 79.17174
1240.909, 79.83463
1241.391, 80.67721
1241.873, 80.96727
1242.355, 80.59695
1242.837, 79.99331
1243.319, 79.29905
1243.801, 79.00700
1244.283, 79.73465
1244.766, 80.71529
1245.248, 81.76128
1245.730, 82.41122
1246.212, 81.99599
1246.694, 80.97924
1247.176, 79.93694
1247.658, 79.04676
1248.140, 79.06764
1248.622, 80.82876
1249.105, 81.97348
1249.587, 82.07089
1250.069, 82.00858
1250.551, 81.84775
1251.033, 81.82865
1251.515, 82.18438
1251.997, 82.62325
1252.479, 82.71136
1252.962, 82.49110
1253.444, 82.01577
1253.926, 81.30701
1254.408, 81.92715
1254.890, 83.81786
1255.372, 84.68409
1255.854, 84.05754
1256.336, 83.48751
1256.818, 83.86594
1257.301, 84.50262
1257.783, 84.62550
1258.265, 84.59219
1258.747, 84.88099
1259.229, 85.32187
1259.711, 85.94106
1260.193, 86.40140
1260.675, 85.83846
1261.157, 84.48007
1261.640, 83.88946
1262.122, 84.75411
1262.604, 85.33412
1263.086, 84.60418
1263.568, 84.18477
1264.050, 84.90838
1264.532, 85.73389
1265.014, 86.19621
1265.497, 86.29214
1265.979, 85.92415
1266.461, 85.21020
1266.943, 84.60957
1267.425, 84.08750
1267.907, 84.12733
1268.389, 83.45583
1268.871, 84.53300
1269.354, 82.83395
1269.836, 81.67260
1270.318, 81.92451
1270.800, 82.53092
1271.282, 82.50684
1271.764, 82.08904
1272.246, 81.61345
1272.728, 81.03677
1273.210, 79.94984
1273.693, 78.88129
1274.175, 79.08340
1274.657, 80.20947
1275.139, 80.81737
1275.621, 80.52218
1276.103, 80.05257
1276.585, 79.56096
1277.067, 79.19527
1277.549, 79.31567
1278.032, 79.17775
1278.514, 77.92435
1278.996, 76.75613
1279.478, 76.99886
1279.960, 76.25996
1280.442, 75.93266
1280.924, 76.19693
1281.406, 75.66032
1281.889, 76.03394
1282.371, 76.62295
1282.853, 77.41963
1283.335, 77.44388
1283.817, 76.43216
1284.299, 75.74104
1284.781, 76.27000
1285.263, 77.01221
1285.745, 76.93275
1286.228, 76.02747
##END=



