##NAMES=Tinticite
##RRUFFID=R070682
##IDEAL CHEMISTRY=Fe^3+^_3_(PO_4_)_2_(OH)_3_&#183;3H_2_O
##LOCALITY=Tintic Standard mine, East Tintic District, East Tintic Mountainsts, Utah County, Utah, USA
##OWNER=RRUFF
##SOURCE=Michael Scott
##DESCRIPTION=Clay-like white fine-grained massive, associated with jarosite, from type find
##STATUS=The identification of this mineral has been confirmed by X-ray diffraction and chemical analysis
##URL=rruff.info/R070682
##MEASURED CHEMISTRY=(Fe^3+^_5.06_Al_0.04_)_Σ=5.09_((P_0.825_S_0.175_)_Σ=1_O_4_)_4_(OH)_4_·6.96H_2_O; OH estimated by charge balance; H_2_O by difference
192.7677, 2581.618
193.2499, 2586.784
193.7320, 2588.975
194.2141, 2588.481
194.6962, 2585.897
195.1783, 2573.561
195.6604, 2568.400
196.1426, 2574.065
196.6247, 2585.998
197.1068, 2600.941
197.5889, 2617.884
198.0710, 2633.698
198.5531, 2636.978
199.0353, 2609.804
199.5174, 2591.706
199.9995, 2593.884
200.4816, 2609.641
200.9637, 2628.740
201.4458, 2647.361
201.9280, 2663.457
202.4101, 2666.853
202.8922, 2646.902
203.3743, 2628.294
203.8564, 2622.330
204.3385, 2625.694
204.8207, 2627.613
205.3028, 2621.010
205.7849, 2607.875
206.2670, 2599.810
206.7491, 2602.906
207.2312, 2605.398
207.7134, 2597.586
208.1955, 2580.905
208.6776, 2567.683
209.1597, 2567.651
209.6418, 2578.265
210.1239, 2585.220
210.6061, 2588.374
211.0882, 2587.472
211.5703, 2581.685
212.0524, 2570.892
212.5345, 2557.314
213.0166, 2541.044
213.4988, 2523.020
213.9809, 2506.299
214.4630, 2496.621
214.9451, 2486.116
215.4272, 2461.340
215.9093, 2418.172
216.3915, 2377.644
216.8736, 2360.096
217.3557, 2356.381
217.8378, 2350.897
218.3199, 2335.859
218.8020, 2316.288
219.2842, 2303.233
219.7663, 2300.864
220.2484, 2295.358
220.7305, 2271.771
221.2126, 2238.398
221.6947, 2212.491
222.1769, 2205.891
222.6590, 2213.269
223.1411, 2219.399
223.6232, 2227.377
224.1053, 2228.056
224.5874, 2208.847
225.0696, 2178.599
225.5517, 2158.192
226.0338, 2167.842
226.5159, 2201.070
226.9980, 2218.709
227.4801, 2207.095
227.9623, 2196.927
228.4444, 2204.417
228.9265, 2225.564
229.4086, 2249.404
229.8907, 2269.276
230.3728, 2285.304
230.8550, 2298.630
231.3371, 2304.668
231.8192, 2312.827
232.3013, 2328.422
232.7834, 2349.788
233.2655, 2371.422
233.7477, 2386.474
234.2298, 2394.399
234.7119, 2413.348
235.1940, 2460.804
235.6761, 2503.789
236.1583, 2527.794
236.6404, 2535.348
237.1225, 2537.864
237.6046, 2546.002
238.0867, 2560.987
238.5688, 2570.018
239.0510, 2571.515
239.5331, 2567.885
240.0152, 2555.994
240.4973, 2538.364
240.9794, 2522.362
241.4615, 2515.368
241.9437, 2518.885
242.4258, 2522.525
242.9079, 2538.685
243.3900, 2544.332
243.8721, 2521.602
244.3542, 2475.742
244.8364, 2428.844
245.3185, 2404.051
245.8006, 2406.411
246.2827, 2406.628
246.7648, 2401.267
247.2469, 2396.817
247.7291, 2399.031
248.2112, 2406.177
248.6933, 2410.308
249.1754, 2401.158
249.6575, 2372.439
250.1396, 2357.912
250.6218, 2372.323
251.1039, 2386.545
251.5860, 2387.895
252.0681, 2375.346
252.5502, 2353.866
253.0323, 2326.680
253.5145, 2288.987
253.9966, 2266.914
254.4787, 2267.160
254.9608, 2274.237
255.4429, 2285.084
255.9250, 2296.743
256.4072, 2303.521
256.8893, 2298.870
257.3714, 2279.759
257.8535, 2261.132
258.3356, 2246.263
258.8177, 2229.085
259.2999, 2204.602
259.7820, 2173.746
260.2641, 2142.585
260.7462, 2117.865
261.2283, 2102.250
261.7104, 2081.062
262.1926, 2046.878
262.6747, 2014.506
263.1568, 1994.894
263.6389, 1986.363
264.1210, 1977.824
264.6031, 1957.449
265.0853, 1921.195
265.5674, 1893.651
266.0495, 1879.824
266.5316, 1868.567
267.0137, 1854.899
267.4958, 1838.447
267.9780, 1820.636
268.4601, 1802.218
268.9422, 1782.218
269.4243, 1768.660
269.9064, 1767.580
270.3885, 1766.214
270.8707, 1758.107
271.3528, 1743.542
271.8349, 1726.067
272.3170, 1708.080
272.7991, 1688.738
273.2813, 1676.545
273.7634, 1673.003
274.2455, 1673.300
274.7276, 1678.047
275.2097, 1685.316
275.6918, 1690.698
276.1740, 1690.913
276.6561, 1686.071
277.1382, 1673.627
277.6203, 1643.669
278.1024, 1617.303
278.5845, 1605.097
279.0667, 1604.623
279.5488, 1606.927
280.0309, 1605.275
280.5130, 1599.574
280.9951, 1595.412
281.4772, 1587.968
281.9594, 1586.363
282.4415, 1598.969
282.9236, 1620.802
283.4057, 1639.992
283.8878, 1648.395
284.3699, 1646.360
284.8521, 1640.618
285.3342, 1626.136
285.8163, 1613.795
286.2984, 1606.707
286.7805, 1604.274
287.2626, 1605.838
287.7448, 1611.733
288.2269, 1620.708
288.7090, 1622.014
289.1911, 1604.599
289.6732, 1592.372
290.1553, 1592.705
290.6375, 1602.007
291.1196, 1614.791
291.6017, 1628.505
292.0838, 1642.066
292.5659, 1649.758
293.0480, 1644.778
293.5302, 1641.878
294.0123, 1646.736
294.4944, 1654.322
294.9765, 1656.339
295.4586, 1648.478
295.9408, 1634.795
296.4229, 1628.448
296.9050, 1637.077
297.3871, 1644.530
297.8692, 1649.457
298.3513, 1652.682
298.8335, 1654.989
299.3156, 1656.699
299.7977, 1658.115
300.2798, 1659.961
300.7619, 1662.289
301.2440, 1665.051
301.7262, 1668.019
302.2083, 1671.503
302.6904, 1675.506
303.1725, 1680.074
303.6546, 1685.813
304.1367, 1694.009
304.6189, 1708.484
305.1010, 1719.097
305.5831, 1724.970
306.0652, 1727.966
306.5473, 1727.066
307.0294, 1723.047
307.5116, 1721.215
307.9937, 1729.875
308.4758, 1755.748
308.9579, 1776.304
309.4400, 1792.108
309.9221, 1803.155
310.4043, 1804.995
310.8864, 1799.663
311.3685, 1797.567
311.8506, 1812.298
312.3327, 1850.844
312.8148, 1878.225
313.2970, 1881.168
313.7791, 1885.946
314.2612, 1908.780
314.7433, 1946.509
315.2254, 1983.744
315.7076, 2005.353
316.1897, 2009.537
316.6718, 2018.532
317.1539, 2033.997
317.6360, 2052.851
318.1181, 2078.232
318.6003, 2106.523
319.0824, 2130.112
319.5645, 2142.553
320.0466, 2144.798
320.5287, 2150.529
321.0108, 2155.857
321.4930, 2169.885
321.9751, 2203.130
322.4572, 2245.032
322.9393, 2278.792
323.4214, 2293.673
323.9035, 2294.451
324.3857, 2300.128
324.8678, 2312.873
325.3499, 2327.736
325.8320, 2342.843
326.3141, 2359.348
326.7962, 2380.070
327.2784, 2406.762
327.7605, 2434.543
328.2426, 2452.249
328.7247, 2454.225
329.2068, 2458.013
329.6889, 2465.109
330.1711, 2476.228
330.6532, 2494.064
331.1353, 2519.437
331.6174, 2545.722
332.0995, 2563.399
332.5816, 2570.981
333.0638, 2576.171
333.5459, 2577.981
334.0280, 2579.267
334.5101, 2583.283
334.9922, 2590.024
335.4743, 2593.923
335.9565, 2586.281
336.4386, 2566.507
336.9207, 2554.667
337.4028, 2558.840
337.8849, 2566.324
338.3670, 2570.612
338.8492, 2571.409
339.3313, 2569.546
339.8134, 2563.938
340.2955, 2555.582
340.7776, 2550.511
341.2597, 2552.036
341.7419, 2551.917
342.2240, 2544.887
342.7061, 2532.352
343.1882, 2517.810
343.6703, 2502.695
344.1524, 2486.625
344.6346, 2469.585
345.1167, 2452.751
345.5988, 2431.263
346.0809, 2395.814
346.5630, 2354.146
347.0451, 2319.525
347.5273, 2300.010
348.0094, 2284.496
348.4915, 2259.947
348.9736, 2226.142
349.4557, 2192.518
349.9378, 2164.626
350.4200, 2139.463
350.9021, 2110.760
351.3842, 2076.816
351.8663, 2041.979
352.3484, 2009.121
352.8305, 1977.833
353.3127, 1946.431
353.7948, 1913.062
354.2769, 1881.037
354.7590, 1856.779
355.2411, 1842.239
355.7232, 1827.321
356.2054, 1809.826
356.6875, 1789.310
357.1696, 1762.892
357.6517, 1728.431
358.1338, 1694.594
358.6159, 1673.642
359.0981, 1667.732
359.5802, 1662.012
360.0623, 1658.032
360.5444, 1651.628
361.0265, 1637.167
361.5086, 1614.458
361.9908, 1590.282
362.4729, 1570.607
362.9550, 1555.780
363.4371, 1542.854
363.9192, 1531.407
364.4013, 1522.048
364.8835, 1515.897
365.3656, 1512.322
365.8477, 1510.276
366.3298, 1509.946
366.8119, 1510.270
367.2940, 1501.013
367.7762, 1469.739
368.2583, 1443.870
368.7404, 1429.301
369.2225, 1423.841
369.7046, 1425.629
370.1867, 1433.959
370.6689, 1445.360
371.1510, 1450.592
371.6331, 1442.282
372.1152, 1438.570
372.5973, 1446.381
373.0794, 1455.124
373.5616, 1454.925
374.0437, 1443.879
374.5258, 1428.384
375.0079, 1416.049
375.4900, 1406.047
375.9721, 1402.201
376.4543, 1418.318
376.9364, 1428.628
377.4185, 1412.051
377.9006, 1375.187
378.3828, 1345.219
378.8649, 1350.827
379.3470, 1389.598
379.8291, 1406.528
380.3112, 1385.404
380.7933, 1362.190
381.2755, 1350.359
381.7576, 1346.129
382.2397, 1342.596
382.7218, 1336.537
383.2039, 1328.884
383.6860, 1320.769
384.1682, 1310.848
384.6503, 1304.593
385.1324, 1312.078
385.6145, 1320.867
386.0966, 1317.056
386.5787, 1295.146
387.0609, 1268.984
387.5430, 1250.424
388.0251, 1239.374
388.5072, 1233.614
388.9893, 1233.714
389.4714, 1238.042
389.9536, 1245.724
390.4357, 1257.198
390.9178, 1265.476
391.3999, 1267.077
391.8820, 1263.273
392.3641, 1255.637
392.8463, 1243.778
393.3284, 1230.980
393.8105, 1219.634
394.2926, 1209.864
394.7747, 1203.008
395.2568, 1202.143
395.7390, 1202.217
396.2211, 1198.761
396.7032, 1191.993
397.1853, 1185.234
397.6674, 1181.307
398.1495, 1179.113
398.6317, 1171.289
399.1138, 1150.163
399.5959, 1133.087
400.0780, 1127.632
400.5601, 1129.393
401.0422, 1130.578
401.5244, 1127.922
402.0065, 1124.236
402.4886, 1125.477
402.9707, 1136.428
403.4528, 1145.331
403.9349, 1152.726
404.4171, 1157.830
404.8992, 1158.680
405.3813, 1155.763
405.8634, 1152.765
406.3455, 1154.071
406.8276, 1160.617
407.3098, 1165.588
407.7919, 1161.040
408.2740, 1162.713
408.7561, 1181.506
409.2382, 1210.857
409.7203, 1236.612
410.2025, 1249.623
410.6846, 1252.581
411.1667, 1254.396
411.6488, 1250.840
412.1309, 1254.560
412.6130, 1273.853
413.0952, 1299.004
413.5773, 1320.645
414.0594, 1336.022
414.5415, 1347.180
415.0236, 1354.920
415.5057, 1358.991
415.9879, 1365.361
416.4700, 1370.944
416.9521, 1384.317
417.4342, 1416.191
417.9163, 1465.514
418.3984, 1511.134
418.8806, 1537.418
419.3627, 1552.483
419.8448, 1574.362
420.3269, 1605.998
420.8090, 1638.246
421.2911, 1664.590
421.7733, 1685.430
422.2554, 1703.157
422.7375, 1709.543
423.2196, 1719.875
423.7017, 1750.786
424.1838, 1797.105
424.6660, 1836.102
425.1481, 1855.007
425.6302, 1861.238
426.1123, 1877.095
426.5944, 1911.398
427.0765, 1940.241
427.5587, 1953.333
428.0408, 1961.754
428.5229, 1979.821
429.0050, 2010.344
429.4871, 2043.718
429.9692, 2067.191
430.4514, 2077.408
430.9335, 2089.656
431.4156, 2110.347
431.8977, 2126.785
432.3798, 2129.747
432.8619, 2122.990
433.3441, 2117.536
433.8262, 2121.899
434.3083, 2133.118
434.7904, 2134.718
435.2725, 2118.406
435.7546, 2105.048
436.2368, 2104.036
436.7189, 2105.532
437.2010, 2097.757
437.6831, 2076.715
438.1652, 2052.862
438.6473, 2043.512
439.1295, 2050.434
439.6116, 2043.426
440.0937, 2005.639
440.5758, 1964.316
441.0579, 1939.776
441.5400, 1930.788
442.0222, 1924.689
442.5043, 1918.649
442.9864, 1910.261
443.4685, 1893.475
443.9506, 1867.136
444.4327, 1839.189
444.9149, 1816.845
445.3970, 1796.597
445.8791, 1767.884
446.3612, 1717.788
446.8433, 1672.663
447.3254, 1652.618
447.8076, 1649.019
448.2897, 1640.148
448.7718, 1617.383
449.2539, 1587.646
449.7360, 1563.434
450.2181, 1548.478
450.7003, 1531.170
451.1824, 1509.722
451.6645, 1486.813
452.1466, 1462.779
452.6287, 1438.803
453.1108, 1418.684
453.5930, 1406.877
454.0751, 1403.418
454.5572, 1391.357
455.0393, 1356.616
455.5214, 1328.198
456.0035, 1315.198
456.4857, 1311.058
456.9678, 1306.498
457.4499, 1297.527
457.9320, 1287.358
458.4141, 1281.855
458.8962, 1282.132
459.3784, 1282.644
459.8605, 1284.745
460.3426, 1284.931
460.8247, 1279.638
461.3069, 1269.407
461.7890, 1259.724
462.2711, 1256.497
462.7532, 1256.409
463.2353, 1248.523
463.7174, 1229.645
464.1996, 1213.259
464.6817, 1212.413
465.1638, 1220.105
465.6459, 1218.604
466.1280, 1198.354
466.6101, 1177.472
467.0923, 1167.991
467.5744, 1167.102
468.0565, 1167.291
468.5386, 1165.925
469.0207, 1164.495
469.5028, 1166.267
469.9850, 1175.401
470.4671, 1176.497
470.9492, 1160.989
471.4313, 1143.183
471.9134, 1132.768
472.3955, 1130.456
472.8777, 1133.434
473.3598, 1140.293
473.8419, 1150.405
474.3240, 1156.358
474.8061, 1155.922
475.2882, 1153.611
475.7704, 1147.289
476.2525, 1140.835
476.7346, 1138.597
477.2167, 1142.031
477.6988, 1148.528
478.1809, 1156.508
478.6631, 1166.771
479.1452, 1169.680
479.6273, 1158.848
480.1094, 1145.837
480.5915, 1134.670
481.0736, 1126.918
481.5558, 1127.686
482.0379, 1149.362
482.5200, 1176.616
483.0021, 1182.572
483.4842, 1166.567
483.9663, 1151.394
484.4485, 1147.593
484.9306, 1153.044
485.4127, 1162.608
485.8948, 1182.185
486.3769, 1193.795
486.8590, 1184.893
487.3412, 1166.843
487.8233, 1154.748
488.3054, 1152.012
488.7875, 1154.795
489.2696, 1159.967
489.7517, 1168.668
490.2339, 1171.227
490.7160, 1163.048
491.1981, 1154.633
491.6802, 1152.261
492.1623, 1152.014
492.6444, 1145.026
493.1266, 1126.323
493.6087, 1104.086
494.0908, 1097.892
494.5729, 1115.036
495.0550, 1127.363
495.5371, 1125.568
496.0193, 1121.819
496.5014, 1124.894
496.9835, 1134.046
497.4656, 1140.380
497.9477, 1135.997
498.4298, 1124.387
498.9120, 1113.214
499.3941, 1101.267
499.8762, 1096.546
500.3583, 1109.264
500.8404, 1131.109
501.3225, 1142.639
501.8047, 1138.193
502.2868, 1131.394
502.7689, 1125.031
503.2510, 1121.745
503.7331, 1130.509
504.2152, 1154.201
504.6974, 1176.045
505.1795, 1174.020
505.6616, 1140.237
506.1437, 1120.672
506.6258, 1125.257
507.1079, 1132.442
507.5901, 1133.059
508.0722, 1128.761
508.5543, 1124.604
509.0364, 1123.352
509.5185, 1123.166
510.0006, 1118.394
510.4828, 1104.619
510.9649, 1097.883
511.4470, 1109.215
511.9291, 1121.403
512.4113, 1122.550
512.8934, 1113.167
513.3755, 1103.469
513.8576, 1101.428
514.3397, 1104.139
514.8218, 1103.495
515.3040, 1098.702
515.7861, 1094.250
516.2682, 1093.383
516.7503, 1094.234
517.2324, 1092.449
517.7145, 1086.942
518.1967, 1080.658
518.6788, 1071.231
519.1609, 1062.956
519.6430, 1066.271
520.1251, 1083.049
520.6072, 1098.257
521.0894, 1094.975
521.5715, 1070.416
522.0536, 1049.472
522.5357, 1029.157
523.0178, 1014.955
523.4999, 1011.968
523.9821, 1015.486
524.4642, 1018.627
524.9463, 1018.410
525.4284, 1016.267
525.9105, 1014.747
526.3926, 1014.190
526.8748, 1012.569
527.3569, 1009.546
527.8390, 1005.399
528.3211, 999.3766
528.8032, 992.1838
529.2853, 986.2319
529.7675, 982.3766
530.2496, 980.6118
530.7317, 980.3151
531.2138, 981.5756
531.6959, 987.7457
532.1780, 1003.007
532.6602, 1021.347
533.1423, 1028.901
533.6244, 1021.860
534.1065, 1017.658
534.5886, 1025.139
535.0707, 1033.287
535.5529, 1029.556
536.0350, 1014.769
536.5171, 1000.708
536.9992, 996.8095
537.4813, 1001.601
537.9634, 1002.070
538.4456, 992.2845
538.9277, 986.4454
539.4098, 991.9750
539.8919, 999.0187
540.3740, 996.2744
540.8561, 982.1504
541.3383, 968.0029
541.8204, 965.9634
542.3025, 974.2905
542.7846, 981.8629
543.2667, 990.5686
543.7488, 992.6172
544.2310, 978.2402
544.7131, 954.2117
545.1952, 933.4326
545.6773, 916.5591
546.1594, 904.8732
546.6415, 900.4099
547.1237, 901.3940
547.6058, 906.1613
548.0879, 914.4570
548.5700, 920.2514
549.0521, 915.4797
549.5342, 897.4093
550.0164, 885.8066
550.4985, 883.9817
550.9806, 883.9210
551.4627, 884.7504
551.9448, 884.7895
552.4269, 881.2996
552.9091, 873.0506
553.3912, 862.9734
553.8733, 854.7371
554.3554, 847.8163
554.8375, 846.9600
555.3196, 857.2593
555.8018, 868.6783
556.2839, 873.7670
556.7660, 874.4122
557.2481, 877.0592
557.7302, 885.0320
558.2123, 895.2150
558.6945, 906.5731
559.1766, 918.0905
559.6587, 923.5108
560.1408, 919.2900
560.6229, 911.6046
561.1050, 910.8322
561.5872, 920.9501
562.0693, 927.0328
562.5514, 922.6680
563.0335, 919.8198
563.5156, 931.5798
563.9977, 950.8939
564.4799, 958.4039
564.9620, 941.7323
565.4441, 912.2328
565.9262, 898.9431
566.4083, 908.4464
566.8904, 914.4307
567.3726, 913.0905
567.8547, 906.4978
568.3368, 893.2346
568.8189, 874.7689
569.3010, 857.9897
569.7831, 850.4478
570.2653, 844.5844
570.7474, 827.7546
571.2295, 800.6143
571.7116, 775.0530
572.1937, 755.5174
572.6758, 741.3636
573.1580, 731.8055
573.6401, 727.8648
574.1222, 725.2121
574.6043, 727.2792
575.0864, 727.4575
575.5685, 719.8073
576.0507, 705.5840
576.5328, 689.1230
577.0149, 672.3010
577.4970, 657.7990
577.9791, 656.2089
578.4612, 675.6588
578.9434, 687.9885
579.4255, 683.4213
579.9076, 673.4902
580.3897, 663.5365
580.8718, 654.4619
581.3539, 647.7031
581.8361, 645.4545
582.3182, 645.3627
582.8003, 643.1965
583.2824, 639.1039
583.7645, 637.2587
584.2466, 640.1773
584.7288, 645.7137
585.2109, 649.5951
585.6930, 653.0613
586.1751, 652.0210
586.6572, 639.2983
587.1393, 627.4195
587.6215, 627.6752
588.1036, 637.4525
588.5857, 646.0287
589.0678, 646.4097
589.5499, 641.4496
590.0320, 639.9146
590.5142, 643.3925
590.9963, 645.6642
591.4784, 645.0955
591.9605, 643.2776
592.4426, 640.1124
592.9247, 636.1443
593.4069, 634.4900
593.8890, 638.4374
594.3711, 644.3715
594.8532, 647.8246
595.3353, 648.9794
595.8174, 649.6038
596.2996, 650.5464
596.7817, 651.0974
597.2638, 649.5445
597.7459, 643.0311
598.2280, 641.2546
598.7101, 650.3343
599.1923, 658.5479
599.6744, 657.0583
600.1565, 649.0571
600.6386, 642.9028
601.1207, 643.1176
601.6028, 647.8727
602.0850, 655.0754
602.5671, 665.9430
603.0492, 671.0408
603.5313, 663.6089
604.0134, 655.9602
604.4955, 658.8892
604.9777, 670.2186
605.4598, 679.9570
605.9419, 687.1924
606.4240, 689.8909
606.9061, 681.4390
607.3882, 666.8897
607.8704, 662.3804
608.3525, 674.1445
608.8346, 690.0583
609.3167, 692.0618
609.7988, 675.2442
610.2809, 664.9720
610.7631, 664.5992
611.2452, 666.5569
611.7273, 670.1507
612.2094, 673.7817
612.6915, 675.2578
613.1736, 673.7196
613.6558, 670.6059
614.1379, 666.9313
614.6200, 662.9191
615.1021, 660.6771
615.5842, 660.7286
616.0663, 661.9721
616.5485, 664.8819
617.0306, 668.4311
617.5127, 668.4733
617.9948, 660.9775
618.4769, 654.5526
618.9590, 655.6727
619.4412, 658.2310
619.9233, 651.6646
620.4054, 635.2711
620.8875, 620.6845
621.3696, 620.5565
621.8517, 633.5653
622.3339, 636.6523
622.8160, 621.5284
623.2981, 610.3422
623.7802, 615.5076
624.2623, 622.8622
624.7444, 615.3925
625.2266, 590.9321
625.7087, 572.8783
626.1908, 584.3598
626.6729, 608.1096
627.1550, 613.7066
627.6371, 600.3683
628.1193, 583.4774
628.6014, 569.6020
629.0835, 560.1241
629.5656, 559.0432
630.0477, 575.4483
630.5298, 585.3371
631.0120, 586.0566
631.4941, 582.6143
631.9762, 576.8039
632.4583, 569.6057
632.9404, 561.8804
633.4225, 553.5464
633.9047, 546.6329
634.3868, 547.0172
634.8689, 555.3464
635.3510, 557.9197
635.8331, 548.6616
636.3152, 537.7474
636.7974, 538.5054
637.2795, 547.6677
637.7616, 546.5212
638.2437, 519.4742
638.7258, 494.6143
639.2079, 488.2351
639.6901, 494.2185
640.1722, 503.7763
640.6543, 513.8248
641.1364, 521.0101
641.6185, 520.6234
642.1006, 512.2754
642.5828, 506.8953
643.0649, 508.3399
643.5470, 506.8412
644.0291, 493.8519
644.5112, 479.4143
644.9933, 476.7412
645.4755, 488.9475
645.9576, 500.0895
646.4397, 499.7692
646.9218, 491.9009
647.4039, 480.1225
647.8860, 465.5645
648.3682, 456.7275
648.8503, 459.3676
649.3324, 469.6515
649.8145, 477.0050
650.2966, 484.4127
650.7787, 483.4150
651.2609, 464.4514
651.7430, 446.1658
652.2251, 440.0109
652.7072, 443.8156
653.1893, 450.1310
653.6714, 456.0634
654.1536, 460.1474
654.6357, 458.9220
655.1178, 452.9112
655.5999, 448.8539
656.0820, 448.4721
656.5641, 449.2657
657.0463, 448.7768
657.5284, 447.1531
658.0105, 447.2482
658.4926, 452.9030
658.9747, 455.7430
659.4568, 451.9828
659.9390, 444.3658
660.4211, 435.4677
660.9032, 426.1638
661.3853, 416.8946
661.8674, 406.7914
662.3495, 397.0881
662.8317, 396.0535
663.3138, 406.2406
663.7959, 417.2104
664.2780, 428.2354
664.7601, 436.0936
665.2422, 436.3088
665.7244, 428.3756
666.2065, 420.6461
666.6887, 415.2126
667.1708, 411.3293
667.6529, 408.4962
668.1350, 406.6866
668.6171, 405.8260
669.0992, 405.8751
669.5814, 407.3588
670.0635, 412.0068
670.5456, 421.3328
671.0277, 425.8849
671.5098, 422.2753
671.9919, 418.1090
672.4741, 418.8094
672.9562, 420.1633
673.4383, 414.0377
673.9204, 395.8729
674.4025, 382.4084
674.8846, 390.6094
675.3668, 407.5967
675.8489, 410.9277
676.3310, 399.7376
676.8131, 389.2818
677.2952, 389.5711
677.7773, 397.2124
678.2595, 401.1625
678.7416, 399.1735
679.2237, 397.6516
679.7058, 395.6827
680.1879, 395.2809
680.6700, 398.8519
681.1522, 404.8782
681.6343, 409.7516
682.1164, 412.5760
682.5985, 412.3653
683.0806, 406.3076
683.5627, 396.2384
684.0449, 387.3572
684.5270, 380.4971
685.0091, 378.0791
685.4912, 383.5599
685.9733, 395.8804
686.4554, 401.9155
686.9376, 396.1769
687.4197, 391.1453
687.9018, 388.3081
688.3839, 386.5070
688.8660, 384.3723
689.3481, 382.1407
689.8303, 381.7011
690.3124, 386.1386
690.7945, 391.2785
691.2766, 387.5472
691.7587, 376.1051
692.2408, 371.5362
692.7230, 379.6011
693.2051, 390.6065
693.6872, 393.3331
694.1693, 386.8072
694.6514, 383.5312
695.1335, 386.1381
695.6157, 388.5308
696.0978, 390.2584
696.5799, 390.1542
697.0620, 385.2816
697.5441, 376.0913
698.0262, 368.8221
698.5084, 369.6906
698.9905, 376.2921
699.4726, 383.2167
699.9547, 390.6753
700.4368, 392.9856
700.9189, 385.7832
701.4011, 376.4079
701.8832, 376.5601
702.3653, 389.4940
702.8474, 396.0021
703.3295, 390.4434
703.8116, 384.3917
704.2938, 384.6473
704.7759, 386.7978
705.2580, 382.3020
705.7401, 369.5376
706.2222, 358.4095
706.7043, 362.2817
707.1865, 376.9286
707.6686, 383.2272
708.1507, 379.9298
708.6328, 375.7123
709.1149, 373.4140
709.5970, 373.3021
710.0792, 377.3480
710.5613, 388.7711
711.0434, 391.5561
711.5255, 374.4737
712.0076, 358.8376
712.4897, 357.3390
712.9719, 364.7979
713.4540, 371.9810
713.9361, 375.6551
714.4182, 377.7168
714.9003, 382.0182
715.3824, 387.1049
715.8646, 382.7861
716.3467, 366.6545
716.8288, 354.0891
717.3109, 353.8346
717.7930, 360.9632
718.2751, 365.7722
718.7573, 367.8132
719.2394, 369.1569
719.7215, 368.9409
720.2036, 369.0570
720.6857, 370.9250
721.1678, 373.8196
721.6500, 376.3116
722.1321, 377.8539
722.6142, 379.2266
723.0963, 382.9362
723.5784, 387.6879
724.0605, 384.8450
724.5427, 372.4428
725.0248, 362.9969
725.5069, 364.4070
725.9890, 371.7073
726.4711, 373.8209
726.9532, 368.5414
727.4354, 363.9675
727.9175, 360.6053
728.3996, 357.9157
728.8817, 356.1996
729.3638, 354.7720
729.8459, 351.3221
730.3281, 344.8969
730.8102, 341.3727
731.2923, 349.9749
731.7744, 367.0598
732.2565, 379.4844
732.7386, 386.4144
733.2208, 387.9131
733.7029, 382.3460
734.1850, 373.4442
734.6671, 369.6971
735.1492, 376.2127
735.6313, 375.9981
736.1135, 358.5501
736.5956, 345.3825
737.0777, 350.4424
737.5598, 365.5318
738.0419, 377.3367
738.5240, 381.4736
739.0062, 380.5335
739.4883, 373.7320
739.9704, 364.2509
740.4525, 361.3408
740.9346, 365.3263
741.4167, 368.5161
741.8989, 367.1247
742.3810, 362.5543
742.8631, 356.8535
743.3452, 346.7148
743.8273, 345.2030
744.3094, 360.7011
744.7916, 374.8975
745.2737, 380.7518
745.7558, 381.3545
746.2379, 381.8126
746.7200, 383.4814
747.2021, 382.3433
747.6843, 369.9541
748.1664, 355.6099
748.6485, 357.9663
749.1306, 374.5559
749.6127, 385.0151
750.0948, 379.8192
750.5770, 368.0020
751.0591, 364.4008
751.5412, 370.8846
752.0233, 375.0909
752.5054, 375.6521
752.9875, 375.6236
753.4697, 373.1033
753.9518, 372.0661
754.4339, 380.1724
754.9160, 398.7698
755.3981, 409.6422
755.8802, 397.6509
756.3624, 378.8513
756.8445, 367.4955
757.3266, 362.8124
757.8087, 361.3473
758.2908, 361.7634
758.7729, 362.3446
759.2551, 359.8128
759.7372, 354.3619
760.2193, 359.2423
760.7014, 382.5616
761.1835, 396.4271
761.6656, 382.8405
762.1478, 362.2515
762.6299, 359.1158
763.1120, 373.6714
763.5941, 383.1641
764.0762, 380.0733
764.5583, 373.1714
765.0405, 363.6746
765.5226, 355.1487
766.0047, 354.2384
766.4868, 361.3044
766.9689, 368.1942
767.4510, 366.5445
767.9332, 359.7175
768.4153, 360.4090
768.8974, 369.5486
769.3795, 374.8594
769.8616, 372.1266
770.3438, 366.5610
770.8259, 363.6652
771.3080, 363.3660
771.7901, 360.1492
772.2722, 346.7933
772.7543, 339.9855
773.2365, 352.0856
773.7186, 366.1194
774.2007, 363.6843
774.6828, 347.3807
775.1649, 335.4034
775.6470, 340.1411
776.1292, 351.1160
776.6113, 353.4445
777.0934, 349.7775
777.5755, 351.9720
778.0576, 362.5083
778.5397, 369.9299
779.0219, 364.1266
779.5040, 349.1934
779.9861, 344.5053
780.4682, 360.0549
780.9503, 366.7424
781.4324, 354.5174
781.9146, 341.4329
782.3967, 336.6513
782.8788, 337.9397
783.3609, 339.7663
783.8430, 341.1588
784.3251, 341.3964
784.8073, 338.1913
785.2894, 334.6454
785.7715, 334.9757
786.2536, 338.9712
786.7357, 345.0258
787.2178, 352.5895
787.7000, 358.4582
788.1821, 355.6788
788.6642, 343.4413
789.1463, 334.1956
789.6284, 328.0383
790.1105, 325.3104
790.5927, 326.4958
791.0748, 331.0751
791.5569, 339.7919
792.0390, 355.2020
792.5211, 362.3120
793.0032, 350.6836
793.4854, 338.8463
793.9675, 336.8215
794.4496, 341.0477
794.9317, 347.7038
795.4138, 354.8604
795.8959, 357.1463
796.3781, 345.1187
796.8602, 326.5657
797.3423, 319.4830
797.8244, 323.1131
798.3065, 329.3541
798.7886, 336.0591
799.2708, 342.8912
799.7529, 350.1424
800.2350, 357.7105
800.7171, 359.5933
801.1992, 348.8519
801.6813, 343.1310
802.1635, 351.2256
802.6456, 359.7165
803.1277, 357.5786
803.6098, 346.5621
804.0919, 336.4586
804.5740, 329.0259
805.0562, 325.4785
805.5383, 329.6354
806.0204, 336.6017
806.5025, 339.0945
806.9846, 336.8975
807.4667, 334.1061
807.9489, 333.0583
808.4310, 334.2713
808.9131, 340.9033
809.3952, 353.3387
809.8773, 356.9686
810.3594, 347.3193
810.8416, 338.2712
811.3237, 338.6827
811.8058, 344.8423
812.2879, 347.9693
812.7700, 348.2184
813.2521, 345.2524
813.7343, 332.1233
814.2164, 323.1650
814.6985, 330.4876
815.1806, 344.2548
815.6627, 347.6588
816.1448, 336.9783
816.6270, 328.4414
817.1091, 339.7926
817.5912, 357.2387
818.0733, 358.0901
818.5554, 346.1937
819.0375, 338.6380
819.5197, 340.8252
820.0018, 345.8069
820.4839, 346.2908
820.9660, 342.5351
821.4481, 336.0631
821.9302, 323.1207
822.4124, 318.7345
822.8945, 334.8201
823.3766, 351.1800
823.8587, 346.0966
824.3408, 325.3293
824.8229, 314.7155
825.3051, 324.2762
825.7872, 334.6640
826.2693, 342.7823
826.7514, 347.5762
827.2335, 344.9201
827.7156, 338.0682
828.1978, 336.9121
828.6799, 347.1667
829.1620, 357.9657
829.6441, 353.3159
830.1262, 339.4037
830.6084, 335.0331
831.0905, 341.2099
831.5726, 347.3819
832.0547, 348.2894
832.5369, 347.0463
833.0190, 349.4088
833.5011, 356.4283
833.9832, 360.4944
834.4653, 361.7279
834.9474, 359.7979
835.4296, 352.2255
835.9117, 342.9153
836.3938, 334.3272
836.8759, 326.6922
837.3580, 323.7297
837.8401, 329.1359
838.3223, 336.1988
838.8044, 341.9341
839.2865, 347.2702
839.7686, 354.7542
840.2507, 363.4957
840.7328, 368.1511
841.2150, 364.1033
841.6971, 356.9179
842.1792, 355.7723
842.6613, 359.2346
843.1434, 360.7677
843.6255, 359.4279
844.1077, 356.5753
844.5898, 352.5702
845.0719, 348.6499
845.5540, 348.2631
846.0361, 353.1897
846.5182, 356.2359
847.0004, 356.6510
847.4825, 356.1819
847.9646, 353.3745
848.4467, 351.2078
848.9288, 354.6777
849.4109, 364.9005
849.8931, 372.3716
850.3752, 375.2365
850.8573, 373.9515
851.3394, 366.2839
851.8215, 355.8368
852.3036, 346.3307
852.7858, 339.1298
853.2679, 336.0829
853.7500, 340.0622
854.2321, 346.8965
854.7142, 349.1012
855.1964, 348.0637
855.6785, 351.3025
856.1606, 360.0938
856.6427, 364.8980
857.1248, 357.6135
857.6069, 343.5916
858.0891, 339.4552
858.5712, 348.6603
859.0533, 355.7900
859.5354, 360.0497
860.0175, 362.3978
860.4996, 363.3822
860.9818, 362.6694
861.4639, 359.1641
861.9460, 352.0167
862.4281, 346.3871
862.9102, 341.7571
863.3923, 340.4435
863.8745, 346.3259
864.3566, 354.7817
864.8387, 359.8539
865.3208, 360.7155
865.8029, 360.9234
866.2850, 364.3831
866.7672, 366.6302
867.2493, 357.8846
867.7314, 343.8273
868.2135, 341.0099
868.6956, 351.3768
869.1777, 363.0475
869.6599, 367.9083
870.1420, 367.3791
870.6241, 364.1940
871.1062, 357.9341
871.5883, 352.5017
872.0704, 347.2909
872.5526, 345.6783
873.0347, 352.3974
873.5168, 361.3732
873.9989, 360.1247
874.4810, 343.6709
874.9631, 335.3977
875.4453, 340.2163
875.9274, 347.2426
876.4095, 355.3011
876.8916, 362.3519
877.3737, 366.6572
877.8558, 368.0458
878.3380, 367.2242
878.8201, 363.6133
879.3022, 358.9893
879.7843, 352.6631
880.2664, 347.1925
880.7485, 346.4990
881.2307, 350.6514
881.7128, 358.3441
882.1949, 369.3438
882.6770, 379.5517
883.1591, 380.2222
883.6412, 373.6904
884.1234, 376.0270
884.6055, 388.7783
885.0876, 394.3643
885.5697, 383.6791
886.0518, 366.5431
886.5339, 356.5925
887.0161, 353.9362
887.4982, 357.5749
887.9803, 373.3054
888.4624, 384.7599
888.9445, 384.6880
889.4266, 381.9930
889.9088, 385.4190
890.3909, 392.9370
890.8730, 394.4636
891.3551, 384.9665
891.8372, 374.9418
892.3193, 362.8689
892.8015, 355.2330
893.2836, 358.9098
893.7657, 370.7740
894.2478, 385.5012
894.7299, 401.6937
895.2120, 411.6391
895.6942, 403.7433
896.1763, 389.2153
896.6584, 382.5783
897.1405, 383.6406
897.6226, 390.7057
898.1047, 402.8133
898.5869, 416.4790
899.0690, 428.7511
899.5511, 439.2331
900.0332, 446.4612
900.5153, 450.3596
900.9974, 451.8450
901.4796, 450.1622
901.9617, 450.1348
902.4438, 456.2990
902.9259, 465.4342
903.4080, 467.9415
903.8901, 459.6644
904.3723, 455.1887
904.8544, 458.4858
905.3365, 460.6524
905.8186, 454.4670
906.3007, 447.9587
906.7828, 452.4290
907.2650, 468.6041
907.7471, 481.2180
908.2292, 485.1235
908.7113, 486.6673
909.1934, 488.8175
909.6755, 489.9085
910.1577, 486.2325
910.6398, 479.5457
911.1219, 476.8267
911.6040, 482.2874
912.0861, 489.4901
912.5682, 492.6398
913.0504, 493.2031
913.5325, 491.9837
914.0146, 490.3032
914.4967, 493.8291
914.9788, 504.6639
915.4609, 514.9450
915.9431, 514.4545
916.4252, 505.2393
916.9073, 496.9260
917.3894, 489.3978
917.8715, 485.7737
918.3536, 486.9876
918.8358, 491.7556
919.3179, 500.1107
919.8000, 510.4422
920.2821, 515.4238
920.7642, 512.6170
921.2463, 510.5277
921.7285, 509.3026
922.2106, 509.1408
922.6927, 509.8884
923.1748, 511.8913
923.6569, 515.9667
924.1390, 522.4367
924.6212, 528.8313
925.1033, 536.3536
925.5854, 541.9053
926.0675, 543.7005
926.5496, 543.3781
927.0317, 541.8539
927.5139, 539.7557
927.9960, 538.4529
928.4781, 538.6165
928.9602, 539.5380
929.4423, 542.0437
929.9244, 544.1102
930.4066, 541.6238
930.8887, 536.5455
931.3708, 535.4783
931.8529, 540.7983
932.3350, 547.1268
932.8171, 546.1946
933.2993, 542.8532
933.7814, 552.0045
934.2635, 570.9805
934.7456, 584.7936
935.2277, 589.8737
935.7098, 589.0336
936.1920, 583.5048
936.6741, 576.1409
937.1562, 576.3844
937.6383, 585.4694
938.1204, 591.8146
938.6025, 594.4996
939.0847, 594.4117
939.5668, 590.2085
940.0489, 585.8315
940.5310, 588.2325
941.0131, 598.7049
941.4952, 606.2719
941.9774, 611.8848
942.4595, 613.1838
942.9416, 607.9494
943.4237, 599.9681
943.9058, 589.5198
944.3879, 578.5247
944.8701, 573.5147
945.3522, 579.3605
945.8343, 583.0511
946.3164, 578.2366
946.7985, 573.2858
947.2806, 575.4240
947.7628, 580.2409
948.2449, 580.1909
948.7270, 573.8649
949.2091, 566.1576
949.6912, 558.1263
950.1733, 551.6487
950.6555, 549.0339
951.1376, 548.7524
951.6197, 549.3109
952.1018, 549.8894
952.5839, 549.1216
953.0660, 546.3527
953.5482, 541.2645
954.0303, 531.2553
954.5124, 519.1715
954.9945, 512.5858
955.4766, 511.3687
955.9587, 513.3600
956.4409, 517.7832
956.9230, 520.5836
957.4051, 516.6997
957.8872, 508.5826
958.3693, 506.8774
958.8514, 512.0042
959.3336, 514.5004
959.8157, 512.1819
960.2978, 511.5776
960.7799, 517.8653
961.2620, 526.3217
961.7441, 526.2153
962.2263, 514.7861
962.7084, 509.8849
963.1905, 514.2823
963.6726, 519.7855
964.1547, 524.8974
964.6368, 529.3839
965.1190, 534.1527
965.6011, 538.5635
966.0832, 537.5550
966.5653, 519.5487
967.0474, 513.5165
967.5295, 535.1433
968.0117, 554.8767
968.4938, 552.3232
968.9759, 540.1237
969.4580, 539.2797
969.9401, 553.2211
970.4222, 565.2999
970.9044, 568.0004
971.3865, 570.1890
971.8686, 575.2041
972.3507, 582.8303
972.8328, 595.2851
973.3149, 609.9683
973.7971, 617.8523
974.2792, 612.5494
974.7613, 611.9188
975.2434, 635.7288
975.7255, 666.5764
976.2076, 684.4501
976.6898, 692.6796
977.1719, 699.6431
977.6540, 708.3803
978.1361, 721.3771
978.6182, 742.2014
979.1003, 765.6986
979.5825, 782.4045
980.0646, 795.3349
980.5467, 816.5544
981.0288, 844.8242
981.5109, 861.8652
981.9930, 858.2869
982.4752, 848.9932
982.9573, 854.8857
983.4394, 873.3261
983.9215, 892.4504
984.4036, 912.0396
984.8857, 920.4041
985.3679, 913.4594
985.8500, 908.8246
986.3321, 921.9146
986.8142, 944.4010
987.2963, 949.7673
987.7784, 933.7505
988.2606, 931.6055
988.7427, 948.1768
989.2248, 966.3033
989.7069, 979.9103
990.1890, 990.8088
990.6711, 1000.750
991.1533, 1009.852
991.6354, 1018.999
992.1175, 1026.179
992.5996, 1037.917
993.0817, 1060.474
993.5638, 1080.369
994.0460, 1086.871
994.5281, 1086.734
995.0102, 1093.464
995.4924, 1108.938
995.9745, 1122.127
996.4566, 1131.819
996.9387, 1140.216
997.4208, 1145.763
997.9030, 1151.960
998.3851, 1160.324
998.8672, 1171.795
999.3493, 1189.620
999.8314, 1219.130
1000.314, 1242.981
1000.796, 1256.100
1001.278, 1262.816
1001.760, 1266.193
1002.242, 1264.482
1002.724, 1251.517
1003.206, 1228.973
1003.688, 1212.902
1004.170, 1214.691
1004.653, 1217.706
1005.135, 1211.345
1005.617, 1202.498
1006.099, 1197.276
1006.581, 1195.593
1007.063, 1195.725
1007.545, 1197.129
1008.027, 1199.814
1008.510, 1203.275
1008.992, 1208.507
1009.474, 1212.991
1009.956, 1221.636
1010.438, 1246.979
1010.920, 1285.583
1011.402, 1317.644
1011.884, 1332.871
1012.366, 1346.310
1012.849, 1376.409
1013.331, 1414.934
1013.813, 1449.089
1014.295, 1478.333
1014.777, 1499.644
1015.259, 1514.170
1015.741, 1534.749
1016.223, 1572.181
1016.706, 1616.053
1017.188, 1648.639
1017.670, 1672.712
1018.152, 1694.507
1018.634, 1716.041
1019.116, 1751.108
1019.598, 1804.382
1020.080, 1857.887
1020.562, 1891.774
1021.045, 1911.541
1021.527, 1933.832
1022.009, 1958.387
1022.491, 1982.279
1022.973, 2005.389
1023.455, 2019.326
1023.937, 2018.650
1024.419, 2013.966
1024.901, 2022.672
1025.384, 2042.672
1025.866, 2046.760
1026.348, 2033.172
1026.830, 2022.234
1027.312, 2020.445
1027.794, 2008.535
1028.276, 1971.451
1028.758, 1920.065
1029.240, 1878.971
1029.723, 1850.346
1030.205, 1812.297
1030.687, 1761.864
1031.169, 1712.418
1031.651, 1666.708
1032.133, 1625.619
1032.615, 1591.123
1033.097, 1561.789
1033.580, 1532.549
1034.062, 1502.201
1034.544, 1475.975
1035.026, 1456.500
1035.508, 1435.921
1035.990, 1410.312
1036.472, 1383.984
1036.954, 1361.757
1037.437, 1343.239
1037.919, 1323.249
1038.401, 1301.362
1038.883, 1278.812
1039.365, 1254.300
1039.847, 1230.763
1040.329, 1208.339
1040.811, 1188.251
1041.293, 1172.297
1041.776, 1160.590
1042.258, 1150.359
1042.740, 1142.712
1043.222, 1134.930
1043.704, 1123.960
1044.186, 1115.771
1044.668, 1113.830
1045.150, 1116.740
1045.632, 1123.466
1046.115, 1135.084
1046.597, 1141.719
1047.079, 1139.814
1047.561, 1136.619
1048.043, 1132.153
1048.525, 1128.454
1049.007, 1127.323
1049.489, 1127.969
1049.972, 1128.513
1050.454, 1128.676
1050.936, 1129.146
1051.418, 1131.313
1051.900, 1132.187
1052.382, 1129.958
1052.864, 1126.664
1053.346, 1123.422
1053.828, 1120.681
1054.311, 1119.579
1054.793, 1121.299
1055.275, 1121.480
1055.757, 1123.075
1056.239, 1118.130
1056.721, 1097.149
1057.203, 1071.926
1057.685, 1055.249
1058.167, 1046.137
1058.650, 1035.414
1059.132, 1019.095
1059.614, 1005.212
1060.096, 999.1221
1060.578, 992.9467
1061.060, 981.9496
1061.542, 968.3529
1062.024, 954.9264
1062.507, 941.9941
1062.989, 929.2219
1063.471, 918.4083
1063.953, 904.2544
1064.435, 879.2744
1064.917, 856.0543
1065.399, 843.4023
1065.881, 837.8853
1066.364, 835.8591
1066.846, 835.7791
1067.328, 832.0323
1067.810, 818.4658
1068.292, 807.2158
1068.774, 805.5991
1069.256, 806.2252
1069.738, 805.4676
1070.220, 801.9388
1070.703, 793.0062
1071.185, 778.7484
1071.667, 765.9465
1072.149, 755.6807
1072.631, 749.6255
1073.113, 751.4897
1073.595, 755.2182
1074.077, 755.8384
1074.559, 754.3864
1075.042, 753.7993
1075.524, 754.6033
1076.006, 753.9900
1076.488, 747.2750
1076.970, 743.2311
1077.452, 747.2704
1077.934, 755.0584
1078.417, 766.0012
1078.899, 776.4275
1079.381, 777.6353
1079.863, 767.7319
1080.345, 764.3953
1080.827, 779.9728
1081.309, 798.4533
1081.791, 812.3508
1082.273, 824.5634
1082.755, 839.7953
1083.238, 855.1647
1083.720, 862.0969
1084.202, 858.1827
1084.684, 859.4427
1085.166, 877.6702
1085.648, 896.9807
1086.130, 907.9482
1086.612, 916.9916
1087.095, 928.4036
1087.577, 943.5085
1088.059, 965.6066
1088.541, 996.3660
1089.023, 1021.458
1089.505, 1029.058
1089.987, 1036.902
1090.469, 1054.267
1090.952, 1075.867
1091.434, 1096.793
1091.916, 1117.578
1092.398, 1142.049
1092.880, 1172.217
1093.362, 1195.995
1093.844, 1205.268
1094.326, 1211.867
1094.808, 1216.934
1095.291, 1225.686
1095.773, 1251.909
1096.255, 1283.739
1096.737, 1288.369
1097.219, 1253.990
1097.701, 1231.203
1098.183, 1247.868
1098.665, 1264.092
1099.147, 1259.299
1099.630, 1249.878
1100.112, 1249.859
1100.594, 1257.422
1101.076, 1267.438
1101.558, 1281.110
1102.040, 1283.578
1102.522, 1261.552
1103.004, 1240.222
1103.487, 1227.774
1103.969, 1220.368
1104.451, 1215.583
1104.933, 1212.861
1105.415, 1212.818
1105.897, 1217.289
1106.379, 1214.583
1106.861, 1199.405
1107.344, 1181.108
1107.826, 1158.045
1108.308, 1137.124
1108.790, 1124.074
1109.272, 1117.026
1109.754, 1113.661
1110.236, 1117.186
1110.718, 1106.915
1111.200, 1072.364
1111.682, 1035.875
1112.165, 998.0270
1112.647, 964.3322
1113.129, 942.3673
1113.611, 925.8672
1114.093, 899.6855
1114.575, 860.2127
1115.057, 828.1044
1115.539, 807.6790
1116.022, 787.8682
1116.504, 768.8437
1116.986, 747.5706
1117.468, 718.8745
1117.950, 688.5582
1118.432, 668.7776
1118.914, 661.2990
1119.396, 649.6100
1119.879, 632.1625
1120.361, 613.7141
1120.843, 593.3972
1121.325, 574.9138
1121.807, 559.7101
1122.289, 548.3915
1122.771, 543.4987
1123.253, 545.5038
1123.735, 538.1450
1124.218, 517.4561
1124.700, 500.0663
1125.182, 487.8322
1125.664, 481.1519
1126.146, 481.9388
1126.628, 485.0432
1127.110, 483.0128
1127.592, 476.0362
1128.074, 466.1057
1128.557, 452.3248
1129.039, 442.0286
1129.521, 436.6232
1130.003, 431.6364
1130.485, 424.8037
1130.967, 418.0480
1131.449, 413.7319
1131.931, 411.7140
1132.414, 413.4723
1132.896, 418.8918
1133.378, 411.2510
1133.860, 388.6905
1134.342, 373.3818
1134.824, 374.7707
1135.306, 381.5766
1135.788, 382.1185
1136.271, 378.3904
1136.753, 375.9374
1137.235, 374.2604
1137.717, 369.9701
1138.199, 363.2622
1138.681, 357.6508
1139.163, 354.2938
1139.645, 352.2407
1140.127, 350.8253
1140.609, 349.7164
1141.092, 348.6614
1141.574, 347.3327
1142.056, 343.3120
1142.538, 338.2676
1143.020, 339.2203
1143.502, 347.0304
1143.984, 354.5417
1144.466, 357.4882
1144.949, 355.9324
1145.431, 346.7613
1145.913, 335.4154
1146.395, 330.0316
1146.877, 328.9041
1147.359, 328.0950
1147.841, 326.7567
1148.323, 325.4321
1148.806, 324.3374
1149.288, 323.6246
1149.770, 322.7056
1150.252, 322.9259
1150.734, 327.9733
1151.216, 333.3553
1151.698, 330.8186
1152.180, 322.7907
1152.662, 320.7669
1153.145, 329.6898
1153.627, 335.5043
1154.109, 330.6590
1154.591, 322.1713
1155.073, 311.0949
1155.555, 300.5257
1156.037, 291.9390
1156.519, 286.4646
1157.001, 285.8723
1157.484, 290.4505
1157.966, 299.7927
1158.448, 324.9577
1158.930, 339.1300
1159.412, 327.1783
1159.894, 310.6237
1160.376, 300.6833
1160.858, 296.3335
1161.341, 297.2694
1161.823, 304.0098
1162.305, 302.7848
1162.787, 287.1736
1163.269, 275.2117
1163.751, 266.4138
1164.233, 265.1025
1164.715, 277.7545
1165.198, 292.6744
1165.680, 294.5934
1166.162, 286.2180
1166.644, 287.1122
1167.126, 300.7786
1167.608, 306.9672
1168.090, 303.3864
1168.572, 297.8011
1169.054, 291.9786
1169.536, 289.2232
1170.019, 293.3248
1170.501, 300.9799
1170.983, 304.0684
1171.465, 302.6615
1171.947, 295.5687
1172.429, 283.3984
1172.911, 277.7458
1173.393, 281.1783
1173.876, 286.0807
1174.358, 287.6873
1174.840, 287.2016
1175.322, 285.1497
1175.804, 282.9283
1176.286, 284.6284
1176.768, 289.0815
1177.250, 293.3359
1177.733, 296.7129
1178.215, 298.8576
1178.697, 299.6371
1179.179, 299.8139
1179.661, 301.0083
1180.143, 300.9793
1180.625, 295.5172
1181.107, 288.5518
1181.589, 285.8365
1182.072, 286.0133
1182.554, 284.3965
1183.036, 280.1688
1183.518, 277.4671
1184.000, 279.2759
1184.482, 281.5137
1184.964, 282.5477
1185.446, 282.8304
1185.928, 282.0049
1186.411, 281.0616
1186.893, 282.0258
1187.375, 284.3585
1187.857, 284.0136
1188.339, 278.2708
1188.821, 274.4099
1189.303, 274.8021
1189.785, 275.3246
1190.268, 275.6379
1190.750, 274.5452
1191.232, 270.0207
1191.714, 263.8048
1192.196, 260.2204
1192.678, 259.3440
1193.160, 260.9532
1193.642, 266.6127
1194.125, 269.4549
1194.607, 267.2382
1195.089, 265.6586
1195.571, 268.0896
1196.053, 272.1425
1196.535, 274.2377
1197.017, 274.9378
1197.499, 278.2343
1197.981, 283.8192
1198.464, 285.4031
1198.946, 282.5463
1199.428, 277.3298
1199.910, 270.6274
1200.392, 267.8144
1200.874, 275.3150
1201.356, 283.8632
1201.838, 272.9285
1202.320, 254.2444
1202.803, 256.6743
1203.285, 272.0416
1203.767, 274.3899
1204.249, 261.7224
1204.731, 251.9847
1205.213, 254.1220
1205.695, 259.7810
1206.177, 266.0295
1206.660, 269.3495
1207.142, 266.1685
1207.624, 258.9403
1208.106, 245.2878
1208.588, 231.5393
1209.070, 233.7166
1209.552, 255.8259
1210.034, 270.6183
1210.516, 264.3422
1210.999, 258.9907
1211.481, 261.0604
1211.963, 264.4015
1212.445, 265.7377
1212.927, 266.3505
1213.409, 269.2000
1213.891, 273.2668
1214.373, 270.0550
1214.855, 251.7779
1215.338, 250.2677
1215.820, 274.0783
1216.302, 288.7148
1216.784, 282.4827
1217.266, 270.7424
1217.748, 264.2175
1218.230, 261.6992
1218.712, 261.3257
1219.195, 262.7953
1219.677, 263.5715
1220.159, 263.6523
1220.641, 262.8252
1221.123, 261.1706
1221.605, 259.4142
1222.087, 257.9107
1222.569, 257.7149
1223.052, 260.2545
1223.534, 263.9930
1224.016, 267.5261
1224.498, 270.2008
1224.980, 271.1447
1225.462, 270.2999
1225.944, 266.9352
1226.426, 261.6091
1226.908, 257.4056
1227.391, 255.8840
1227.873, 254.9864
1228.355, 252.3622
1228.837, 251.5912
1229.319, 257.5269
1229.801, 263.9261
1230.283, 263.4654
1230.765, 258.9182
1231.247, 258.7372
1231.730, 264.7945
1232.212, 266.9298
1232.694, 260.7992
1233.176, 258.7299
1233.658, 265.6699
1234.140, 269.1314
1234.622, 260.9136
1235.104, 252.0517
1235.587, 256.1008
1236.069, 268.8429
1236.551, 273.2926
1237.033, 269.4171
1237.515, 265.3050
1237.997, 261.3390
1238.479, 261.9664
1238.961, 267.8506
1239.443, 269.9831
1239.926, 262.4553
1240.408, 253.9444
1240.890, 257.8043
1241.372, 266.3523
1241.854, 265.9703
1242.336, 260.6692
1242.818, 255.5348
1243.300, 252.7179
1243.783, 257.0152
1244.265, 268.5697
1244.747, 276.8872
1245.229, 275.3146
1245.711, 272.0248
1246.193, 269.8897
1246.675, 268.6089
1247.157, 268.5771
1247.640, 268.8421
1248.122, 268.4569
1248.604, 267.4627
1249.086, 266.1727
1249.568, 264.4139
1250.050, 263.2556
1250.532, 263.5770
1251.014, 262.0020
1251.496, 256.1351
1251.979, 253.7590
1252.461, 259.9234
1252.943, 268.1995
1253.425, 270.6855
1253.907, 268.6717
1254.389, 266.7797
1254.871, 264.8564
1255.353, 261.2169
1255.835, 256.1910
1256.318, 250.8061
1256.800, 246.2665
1257.282, 250.0998
1257.764, 267.7277
1258.246, 284.2163
1258.728, 283.4667
1259.210, 274.2660
1259.692, 261.0961
1260.175, 249.1803
1260.657, 246.1151
1261.139, 249.2540
1261.621, 252.3017
1262.103, 253.9358
1262.585, 254.7022
1263.067, 252.5485
1263.549, 253.2364
1264.031, 259.7103
1264.514, 266.9481
1264.996, 277.1102
1265.478, 282.4780
1265.960, 274.6248
1266.442, 259.0027
1266.924, 247.6188
1267.406, 240.3326
1267.888, 244.2173
1268.370, 260.8538
1268.853, 266.6540
1269.335, 258.2749
1269.817, 254.5555
1270.299, 263.2898
1270.781, 271.7017
1271.263, 267.5823
1271.745, 257.4265
1272.227, 246.9045
1272.710, 240.8720
1273.192, 254.5091
1273.674, 276.4329
##END=



