##NAMES=Tinzenite
##RRUFFID=R050251
##IDEAL CHEMISTRY=Ca_2_Mn^2+^_4_Al_4_[B_2_Si_8_O_30_](OH)_2_
##LOCALITY=Tinzen, Sursass Valley, Switzerland
##OWNER=RRUFF
##SOURCE=Marcus Origlieri
##DESCRIPTION=Aggregate of yellowish orange prismatic crystals associated with quartz
##STATUS=The identification of this mineral has been confirmed by X-ray diffraction and chemical analysis
##URL=rruff.info/R050251
##MEASURED CHEMISTRY=(Ca_2.96_Mn_2.84_Fe^2+^_0.14_Mg_0.06_)_Î£=6_Al_4.00_[B_2.00_Si_8.00_O_30_](OH)_2_; H_2_O assumed ideal from stoichiometry; B_2_O_3_ estimated by difference
92.52344, 213.3710
93.00555, 210.9201
93.48767, 210.5672
93.96979, 214.1295
94.45190, 216.0036
94.93402, 214.5157
95.41614, 211.7383
95.89825, 209.0395
96.38037, 206.9139
96.86249, 205.2908
97.34460, 204.3477
97.82672, 204.6178
98.30884, 205.1459
98.79095, 205.3418
99.27307, 205.1030
99.75519, 205.0255
100.2373, 206.4144
100.7194, 209.9186
101.2015, 213.4839
101.6837, 218.2801
102.1658, 222.5378
102.6479, 224.4632
103.1300, 223.4814
103.6121, 220.6765
104.0942, 217.6956
104.5764, 214.5183
105.0585, 211.2176
105.5406, 207.8782
106.0227, 204.4216
106.5048, 200.6530
106.9869, 196.6090
107.4691, 191.9590
107.9512, 186.3886
108.4333, 179.7176
108.9154, 172.5457
109.3975, 165.2881
109.8796, 157.7890
110.3618, 150.8343
110.8439, 144.6658
111.3260, 139.0912
111.8081, 134.0315
112.2902, 129.4653
112.7723, 125.4084
113.2544, 121.9377
113.7366, 118.9981
114.2187, 116.8648
114.7008, 115.9145
115.1829, 115.6875
115.6650, 115.5237
116.1471, 114.9343
116.6293, 113.9140
117.1114, 113.6162
117.5935, 114.3483
118.0756, 115.3737
118.5577, 116.5422
119.0398, 117.7930
119.5220, 119.0581
120.0041, 120.2489
120.4862, 121.3472
120.9683, 122.6079
121.4504, 124.1001
121.9325, 125.7088
122.4147, 127.4774
122.8968, 129.4635
123.3789, 131.1891
123.8610, 131.6356
124.3431, 131.0473
124.8252, 130.9881
125.3074, 132.2307
125.7895, 134.4234
126.2716, 136.6208
126.7537, 138.7494
127.2358, 140.6888
127.7179, 142.3779
128.2001, 143.8168
128.6822, 145.1304
129.1643, 146.2930
129.6464, 147.2582
130.1285, 148.5622
130.6107, 150.5129
131.0928, 152.6978
131.5749, 154.8926
132.0570, 157.0599
132.5391, 159.3606
133.0212, 161.9986
133.5034, 164.9577
133.9855, 168.4005
134.4676, 172.7083
134.9497, 177.2154
135.4318, 181.3778
135.9139, 184.9730
136.3960, 188.1706
136.8782, 191.3949
137.3603, 195.7702
137.8424, 198.8524
138.3245, 200.5373
138.8066, 200.7837
139.2887, 199.4596
139.7709, 196.4632
140.2530, 191.8672
140.7351, 186.0660
141.2172, 177.9895
141.6993, 170.0658
142.1814, 163.2034
142.6636, 157.3704
143.1457, 152.3732
143.6278, 148.3366
144.1099, 145.1243
144.5920, 142.0293
145.0741, 139.3082
145.5563, 136.5008
146.0384, 132.9902
146.5205, 128.6372
147.0026, 124.4022
147.4847, 120.9312
147.9668, 117.9324
148.4490, 115.0698
148.9311, 112.1385
149.4132, 109.3025
149.8953, 107.0237
150.3774, 105.5071
150.8595, 104.2537
151.3417, 103.0302
151.8238, 101.8829
152.3059, 100.8925
152.7880, 100.1259
153.2701, 99.57143
153.7522, 99.11482
154.2344, 98.88358
154.7165, 98.64321
155.1986, 98.29472
155.6807, 97.88158
156.1628, 97.48257
156.6449, 97.12212
157.1271, 96.71817
157.6092, 96.96581
158.0913, 98.63123
158.5734, 100.1664
159.0555, 100.6750
159.5376, 100.2134
160.0198, 99.56216
160.5019, 99.60524
160.9840, 100.6799
161.4661, 101.1231
161.9482, 100.4119
162.4303, 99.42915
162.9125, 98.88860
163.3946, 98.92270
163.8767, 99.21070
164.3588, 99.33437
164.8409, 99.25571
165.3230, 99.41971
165.8052, 100.2725
166.2873, 101.3240
166.7694, 101.7678
167.2515, 101.3370
167.7336, 100.5135
168.2157, 99.77967
168.6979, 99.12876
169.1800, 98.56387
169.6621, 98.24844
170.1442, 98.07073
170.6263, 97.51153
171.1084, 96.22912
171.5906, 94.81130
172.0727, 93.82967
172.5548, 93.24890
173.0369, 92.55097
173.5190, 91.13255
174.0011, 88.92902
174.4833, 87.15964
174.9654, 86.42707
175.4475, 85.88292
175.9296, 85.03893
176.4117, 83.88173
176.8938, 82.80238
177.3760, 82.37925
177.8581, 82.96299
178.3402, 83.13449
178.8223, 82.51196
179.3044, 81.72031
179.7865, 81.02140
180.2687, 80.51511
180.7508, 80.26763
181.2329, 80.43198
181.7150, 81.44460
182.1971, 82.13419
182.6792, 82.29253
183.1614, 82.28894
183.6435, 82.35087
184.1256, 82.56602
184.6077, 82.97269
185.0898, 83.65737
185.5719, 85.04501
186.0541, 86.10659
186.5362, 86.37937
187.0183, 86.46891
187.5004, 87.16505
187.9825, 88.78664
188.4646, 90.86330
188.9468, 92.33717
189.4289, 92.88052
189.9110, 93.60524
190.3931, 94.92811
190.8752, 96.57580
191.3573, 98.05640
191.8395, 99.17271
192.3216, 100.0604
192.8037, 100.9703
193.2858, 101.8952
193.7679, 102.8484
194.2500, 103.9721
194.7322, 105.1670
195.2143, 106.0230
195.6964, 106.2092
196.1785, 106.1608
196.6606, 106.4382
197.1427, 107.0438
197.6249, 107.9563
198.1070, 109.3913
198.5891, 111.3194
199.0712, 112.8434
199.5533, 113.3489
200.0354, 113.5783
200.5176, 114.1763
200.9997, 115.2362
201.4818, 116.3868
201.9639, 117.1973
202.4460, 117.6019
202.9281, 118.0967
203.4103, 118.7387
203.8924, 119.5452
204.3745, 120.6999
204.8566, 122.2235
205.3387, 123.6555
205.8208, 124.3605
206.3030, 124.1967
206.7851, 123.6700
207.2672, 122.6878
207.7493, 121.5107
208.2314, 120.3186
208.7135, 119.1549
209.1957, 117.9316
209.6778, 116.4695
210.1599, 114.5459
210.6420, 112.8192
211.1241, 111.3516
211.6062, 110.0375
212.0884, 108.9033
212.5705, 107.9252
213.0526, 106.8948
213.5347, 105.4061
214.0168, 102.9014
214.4989, 100.7588
214.9811, 99.18995
215.4632, 97.83414
215.9453, 96.31452
216.4274, 94.52140
216.9095, 92.72146
217.3916, 91.40276
217.8737, 90.93245
218.3559, 90.39977
218.8380, 89.81836
219.3201, 89.15246
219.8022, 88.29903
220.2843, 87.22145
220.7664, 86.10487
221.2486, 85.28555
221.7307, 84.81868
222.2128, 84.46562
222.6949, 84.38376
223.1770, 84.34037
223.6591, 83.93834
224.1413, 83.01592
224.6234, 81.96570
225.1055, 81.48418
225.5876, 81.60735
226.0697, 81.75293
226.5518, 81.84187
227.0340, 81.84445
227.5161, 81.67416
227.9982, 81.26652
228.4803, 80.79396
228.9624, 80.35965
229.4445, 79.93899
229.9267, 79.94061
230.4088, 80.85353
230.8909, 82.30039
231.3730, 83.33882
231.8551, 83.67587
232.3372, 83.79650
232.8194, 84.15560
233.3015, 84.72311
233.7836, 85.36195
234.2657, 86.00092
234.7478, 86.65702
235.2299, 87.40638
235.7121, 88.33694
236.1942, 89.24400
236.6763, 89.91587
237.1584, 90.42187
237.6405, 91.02183
238.1227, 91.96798
238.6048, 93.17879
239.0869, 94.19401
239.5690, 94.93400
240.0511, 95.54758
240.5332, 96.00887
241.0154, 96.41228
241.4975, 96.97843
241.9796, 97.93501
242.4617, 99.21921
242.9438, 100.3494
243.4259, 101.4793
243.9081, 102.2116
244.3902, 102.1804
244.8723, 101.6774
245.3544, 101.2427
245.8365, 101.1980
246.3186, 101.5243
246.8008, 102.1012
247.2829, 103.3380
247.7650, 104.3285
248.2471, 104.7760
248.7292, 104.8171
249.2113, 104.6139
249.6935, 104.1744
250.1756, 103.6212
250.6577, 103.8378
251.1398, 105.8448
251.6219, 107.4639
252.1040, 108.0489
252.5862, 108.0076
253.0683, 107.8988
253.5504, 108.0315
254.0325, 108.3937
254.5146, 108.9350
254.9967, 109.9816
255.4789, 110.8335
255.9610, 111.1092
256.4431, 111.2127
256.9252, 111.7446
257.4073, 113.0382
257.8894, 114.8072
258.3716, 115.9946
258.8537, 115.5478
259.3358, 115.7045
259.8179, 117.1643
260.3000, 119.1301
260.7821, 120.5517
261.2643, 120.9589
261.7464, 120.8352
262.2285, 121.4603
262.7106, 124.0984
263.1927, 126.0196
263.6748, 126.6608
264.1570, 126.7378
264.6391, 127.0204
265.1212, 127.7846
265.6033, 128.7922
266.0854, 129.5506
266.5675, 129.7759
267.0497, 130.1884
267.5318, 130.8594
268.0139, 131.6960
268.4960, 132.6561
268.9781, 133.7198
269.4602, 134.8055
269.9424, 135.8449
270.4245, 137.0954
270.9066, 137.5418
271.3887, 136.5884
271.8708, 135.1287
272.3529, 134.0548
272.8351, 133.5268
273.3172, 133.0360
273.7993, 131.9588
274.2814, 130.1182
274.7635, 128.3348
275.2456, 126.7446
275.7278, 125.1455
276.2099, 123.2869
276.6920, 121.1617
277.1741, 119.0829
277.6562, 117.3121
278.1383, 115.8918
278.6205, 114.8123
279.1026, 114.2210
279.5847, 113.8516
280.0668, 113.5625
280.5489, 113.3296
281.0310, 113.0739
281.5132, 112.6888
281.9953, 112.2203
282.4774, 112.0049
282.9595, 111.9755
283.4416, 112.2487
283.9237, 113.0204
284.4059, 114.2222
284.8880, 115.4959
285.3701, 116.7024
285.8522, 117.7775
286.3343, 118.5989
286.8164, 119.2701
287.2986, 119.5822
287.7807, 119.2677
288.2628, 118.4449
288.7449, 117.5778
289.2270, 116.8112
289.7091, 116.1782
290.1913, 115.7183
290.6734, 115.4641
291.1555, 115.2787
291.6376, 115.1213
292.1197, 114.9859
292.6018, 114.7547
293.0840, 114.1994
293.5661, 113.8798
294.0482, 114.8220
294.5303, 117.1191
295.0124, 119.2218
295.4945, 120.4487
295.9767, 121.0403
296.4588, 121.4391
296.9409, 121.6589
297.4230, 121.9006
297.9051, 122.4902
298.3872, 123.3663
298.8694, 124.1031
299.3515, 124.3632
299.8336, 124.4644
300.3157, 124.9962
300.7978, 126.1198
301.2799, 127.2329
301.7621, 127.6603
302.2442, 127.6432
302.7263, 127.8781
303.2084, 128.4921
303.6905, 129.4540
304.1726, 130.9489
304.6548, 133.0499
305.1369, 134.8606
305.6190, 135.7690
306.1011, 135.9888
306.5832, 135.9480
307.0653, 135.5699
307.5475, 135.1002
308.0296, 134.7100
308.5117, 134.4019
308.9938, 134.2208
309.4759, 134.1389
309.9580, 134.2553
310.4402, 134.7074
310.9223, 135.5888
311.4044, 136.5454
311.8865, 137.3174
312.3686, 137.9395
312.8507, 138.5805
313.3329, 139.1551
313.8150, 139.9556
314.2971, 141.3553
314.7792, 143.3606
315.2613, 145.5048
315.7434, 147.5643
316.2256, 149.5889
316.7077, 151.7742
317.1898, 154.2890
317.6719, 156.7179
318.1540, 158.7580
318.6361, 160.4353
319.1183, 161.6760
319.6004, 162.4498
320.0825, 162.7768
320.5646, 162.6298
321.0467, 161.9529
321.5288, 161.0612
322.0110, 160.4327
322.4931, 159.7408
322.9752, 158.1833
323.4573, 155.0582
323.9394, 151.4108
324.4215, 148.2314
324.9037, 145.5378
325.3858, 143.2801
325.8679, 141.7620
326.3500, 140.5413
326.8321, 138.7602
327.3142, 136.0088
327.7964, 133.4361
328.2785, 132.2491
328.7606, 132.1728
329.2427, 131.3741
329.7248, 128.8577
330.2069, 125.8226
330.6891, 123.9582
331.1712, 123.3600
331.6533, 122.9075
332.1354, 121.9242
332.6175, 120.6851
333.0996, 119.9563
333.5818, 120.0394
334.0639, 120.2521
334.5460, 119.7564
335.0281, 118.7027
335.5102, 117.8040
335.9923, 117.3226
336.4745, 117.0870
336.9566, 116.9353
337.4387, 116.8793
337.9208, 116.6861
338.4029, 116.1594
338.8850, 115.3469
339.3671, 114.4252
339.8492, 113.3823
340.3314, 112.2576
340.8135, 111.0700
341.2956, 109.8145
341.7777, 108.5264
342.2598, 107.1966
342.7419, 105.8622
343.2241, 104.5973
343.7062, 103.4000
344.1883, 102.2566
344.6704, 101.1008
345.1525, 99.99032
345.6346, 99.09560
346.1168, 98.49942
346.5989, 98.06295
347.0810, 97.56440
347.5631, 96.98463
348.0452, 96.56096
348.5273, 96.58767
349.0095, 96.70784
349.4916, 96.47493
349.9737, 95.82092
350.4558, 94.86054
350.9379, 93.69834
351.4200, 92.30762
351.9022, 90.62106
352.3843, 88.20336
352.8664, 85.83118
353.3485, 84.33137
353.8306, 83.54366
354.3127, 82.36964
354.7949, 79.96705
355.2770, 76.76250
355.7591, 74.50154
356.2412, 73.60450
356.7233, 72.97755
357.2054, 72.39994
357.6876, 71.80091
358.1697, 70.98919
358.6518, 69.86102
359.1339, 68.64069
359.6160, 67.77240
360.0981, 67.37452
360.5803, 66.95422
361.0624, 66.38107
361.5445, 65.80132
362.0266, 65.32693
362.5087, 64.98549
362.9908, 64.83315
363.4730, 64.96731
363.9551, 65.44198
364.4372, 65.75620
364.9193, 65.88509
365.4014, 65.89211
365.8835, 65.72122
366.3657, 65.44341
366.8478, 65.24188
367.3299, 65.23759
367.8120, 65.40270
368.2941, 65.58494
368.7762, 65.67284
369.2584, 65.90963
369.7405, 66.39687
370.2226, 67.03614
370.7047, 67.73750
371.1868, 68.46897
371.6689, 69.16883
372.1511, 69.74198
372.6332, 70.20412
373.1153, 70.47563
373.5974, 70.32500
374.0795, 70.17784
374.5616, 70.30627
375.0438, 70.73824
375.5259, 71.37868
376.0080, 72.16164
376.4901, 73.10780
376.9722, 73.92271
377.4543, 74.36612
377.9365, 74.93485
378.4186, 75.86960
378.9007, 77.01997
379.3828, 78.11353
379.8649, 78.99851
380.3470, 79.73616
380.8292, 80.51743
381.3113, 81.32808
381.7934, 82.22053
382.2755, 83.21331
382.7576, 84.27200
383.2397, 85.35860
383.7219, 86.47224
384.2040, 87.62977
384.6861, 88.99255
385.1682, 90.80208
385.6503, 91.80693
386.1324, 91.15510
386.6146, 90.41184
387.0967, 90.24948
387.5788, 90.53130
388.0609, 90.75245
388.5430, 90.54707
389.0251, 90.00170
389.5073, 89.51885
389.9894, 89.11841
390.4715, 88.75060
390.9536, 88.44754
391.4357, 88.14413
391.9178, 87.71753
392.4000, 87.10359
392.8821, 86.52818
393.3642, 86.32944
393.8463, 86.54744
394.3284, 86.81771
394.8105, 87.11268
395.2927, 87.40119
395.7748, 87.67033
396.2569, 87.91567
396.7390, 88.12522
397.2211, 88.31504
397.7032, 88.46482
398.1854, 88.48157
398.6675, 88.31141
399.1496, 88.12387
399.6317, 88.13824
400.1138, 88.19973
400.5959, 87.99595
401.0781, 87.25915
401.5602, 86.43924
402.0423, 86.01716
402.5244, 85.98080
403.0065, 86.07694
403.4886, 86.19129
403.9708, 86.41863
404.4529, 86.92240
404.9350, 87.75635
405.4171, 88.55656
405.8992, 89.09171
406.3813, 89.49700
406.8635, 89.96848
407.3456, 90.51908
407.8277, 91.30220
408.3098, 92.52818
408.7919, 94.19308
409.2740, 95.92332
409.7562, 98.04099
410.2383, 99.92641
410.7204, 101.0075
411.2025, 101.4397
411.6846, 102.0034
412.1667, 103.2410
412.6489, 104.7229
413.1310, 105.0033
413.6131, 103.5836
414.0952, 101.9733
414.5773, 100.1459
415.0594, 98.38432
415.5416, 97.14128
416.0237, 96.48246
416.5058, 95.90821
416.9879, 94.77291
417.4700, 92.85390
417.9521, 91.53327
418.4343, 91.06870
418.9164, 90.84264
419.3985, 90.71954
419.8806, 90.60563
420.3627, 90.32407
420.8448, 89.74231
421.3270, 89.01228
421.8091, 88.74192
422.2912, 89.52245
422.7733, 89.90469
423.2554, 89.28564
423.7375, 88.54097
424.2197, 88.48831
424.7018, 89.25821
425.1839, 90.32593
425.6660, 91.15918
426.1481, 91.77971
426.6302, 91.99273
427.1124, 91.21043
427.5945, 90.60010
428.0766, 90.74087
428.5587, 91.33971
429.0408, 91.80839
429.5229, 91.81795
430.0051, 91.53265
430.4872, 91.34425
430.9693, 91.32243
431.4514, 91.16653
431.9335, 90.62276
432.4156, 89.99980
432.8978, 89.50343
433.3799, 89.16541
433.8620, 88.93688
434.3441, 88.89587
434.8262, 88.96275
435.3083, 88.74281
435.7905, 88.09631
436.2726, 87.37859
436.7547, 86.84770
437.2368, 86.44558
437.7189, 86.04955
438.2010, 85.46244
438.6832, 85.01982
439.1653, 85.19910
439.6474, 85.90482
440.1295, 86.43485
440.6116, 86.47660
441.0938, 86.20982
441.5759, 85.97461
442.0580, 85.80263
442.5401, 85.53289
443.0222, 85.14897
443.5043, 84.63148
443.9865, 84.01147
444.4686, 83.28059
444.9507, 82.24918
445.4328, 80.71445
445.9149, 78.67483
446.3970, 76.64726
446.8792, 74.25375
447.3613, 72.28863
447.8434, 71.27734
448.3255, 70.81987
448.8076, 70.24979
449.2897, 69.29883
449.7719, 68.19874
450.2540, 67.37025
450.7361, 66.90086
451.2182, 66.53154
451.7003, 66.38647
452.1824, 66.21957
452.6646, 65.83720
453.1467, 65.29371
453.6288, 64.80722
454.1109, 64.56091
454.5930, 64.48904
455.0751, 64.20486
455.5573, 63.57365
456.0394, 62.94239
456.5215, 62.27535
457.0036, 61.70280
457.4857, 61.36443
457.9678, 61.29081
458.4500, 61.34996
458.9321, 61.37452
459.4142, 61.36689
459.8963, 61.60342
460.3784, 62.43071
460.8605, 63.02248
461.3427, 62.59999
461.8248, 61.60906
462.3069, 61.07591
462.7890, 61.55615
463.2711, 62.48691
463.7532, 63.15223
464.2354, 63.56784
464.7175, 64.12301
465.1996, 65.04649
465.6817, 66.08821
466.1638, 66.91360
466.6459, 67.53445
467.1281, 67.93999
467.6102, 68.06663
468.0923, 68.00405
468.5744, 67.76046
469.0565, 67.35850
469.5386, 67.13547
470.0208, 67.41830
470.5029, 68.11167
470.9850, 68.40250
471.4671, 67.77950
471.9492, 67.43002
472.4313, 67.98400
472.9135, 68.89439
473.3956, 69.38226
473.8777, 69.22868
474.3598, 68.80451
474.8419, 68.59989
475.3240, 68.65781
475.8062, 68.76660
476.2883, 68.83472
476.7704, 69.03788
477.2525, 69.51585
477.7346, 70.17349
478.2167, 70.83838
478.6989, 71.42680
479.1810, 71.94592
479.6631, 72.45530
480.1452, 73.04749
480.6273, 73.36155
481.1094, 73.14301
481.5916, 72.78685
482.0737, 72.56297
482.5558, 72.44687
483.0379, 72.18567
483.5200, 71.48121
484.0021, 70.50294
484.4843, 69.86700
484.9664, 69.72232
485.4485, 69.37634
485.9306, 68.49170
486.4127, 67.18574
486.8948, 65.46980
487.3770, 63.11412
487.8591, 61.12685
488.3412, 60.47871
488.8233, 60.61797
489.3054, 60.21446
489.7875, 58.96051
490.2697, 57.65807
490.7518, 57.10715
491.2339, 57.31306
491.7160, 57.26978
492.1981, 56.65866
492.6802, 56.12624
493.1624, 56.05208
493.6445, 56.27334
494.1266, 56.49169
494.6087, 56.59467
495.0908, 56.58315
495.5729, 56.43804
496.0551, 56.04149
496.5372, 55.83954
497.0193, 55.91189
497.5014, 56.07295
497.9835, 56.21220
498.4656, 56.36385
498.9478, 56.65308
499.4299, 57.17406
499.9120, 57.80899
500.3941, 58.19506
500.8762, 58.19264
501.3583, 58.30079
501.8405, 58.78798
502.3226, 59.27133
502.8047, 59.52531
503.2868, 59.53528
503.7689, 59.37782
504.2510, 59.04305
504.7331, 58.58733
505.2152, 58.17176
505.6974, 57.80334
506.1795, 57.43610
506.6616, 57.02874
507.1437, 56.62127
507.6258, 56.30862
508.1079, 56.15475
508.5901, 55.87870
509.0722, 55.28325
509.5543, 54.48882
510.0364, 53.66734
510.5185, 52.84863
511.0006, 52.05959
511.4828, 51.32223
511.9649, 50.63832
512.4470, 50.02550
512.9291, 49.44546
513.4113, 48.96691
513.8934, 48.60543
514.3755, 48.36338
514.8576, 48.33515
515.3397, 48.51698
515.8218, 48.63652
516.3040, 48.31170
516.7861, 47.44199
517.2682, 46.71593
517.7503, 46.09107
518.2324, 45.66581
518.7145, 45.49300
519.1967, 45.53250
519.6788, 45.76552
520.1609, 46.19787
520.6430, 46.66843
521.1251, 46.92920
521.6072, 46.96720
522.0894, 46.99366
522.5715, 47.07463
523.0536, 47.09900
523.5357, 46.90099
524.0178, 46.57832
524.4999, 46.43870
524.9821, 46.70243
525.4642, 47.09211
525.9463, 47.22544
526.4284, 47.17907
526.9105, 47.46979
527.3926, 48.38078
527.8748, 49.49144
528.3569, 50.15879
528.8390, 50.31977
529.3211, 50.44281
529.8032, 50.60210
530.2853, 50.71078
530.7675, 50.55095
531.2496, 50.27491
531.7317, 50.34241
532.2138, 51.02362
532.6959, 52.08189
533.1780, 52.91305
533.6602, 53.53962
534.1423, 53.87554
534.6244, 53.62084
535.1065, 53.37881
535.5886, 53.54036
536.0707, 54.04577
536.5529, 54.61208
537.0350, 55.06009
537.5171, 55.43357
537.9992, 55.84235
538.4813, 56.29810
538.9634, 56.73457
539.4456, 57.06785
539.9277, 57.42704
540.4098, 58.08584
540.8919, 59.00517
541.3740, 59.48263
541.8561, 58.59211
542.3383, 57.35847
542.8204, 57.51246
543.3025, 59.01976
543.7846, 60.17699
544.2667, 59.98893
544.7488, 59.03765
545.2310, 58.78667
545.7131, 59.55603
546.1952, 60.12069
546.6773, 60.23070
547.1594, 60.11795
547.6415, 59.89000
548.1237, 59.60821
548.6058, 59.39414
549.0879, 59.34437
549.5700, 59.40369
550.0521, 59.34671
550.5342, 59.16101
551.0164, 58.87008
551.4985, 58.46299
551.9806, 57.98170
552.4627, 57.34369
552.9448, 56.62288
553.4269, 56.09950
553.9091, 56.04443
554.3912, 56.30143
554.8733, 56.45155
555.3554, 56.49178
555.8375, 56.44058
556.3196, 56.25562
556.8018, 56.01602
557.2839, 55.82586
557.7660, 55.68938
558.2481, 55.55239
558.7302, 55.35121
559.2123, 55.16381
559.6945, 55.13791
560.1766, 55.24640
560.6587, 55.22963
561.1408, 54.88824
561.6229, 54.40842
562.1050, 54.32197
562.5872, 54.85085
563.0693, 55.45932
563.5514, 56.44441
564.0335, 57.26329
564.5156, 57.42909
564.9977, 57.05312
565.4799, 56.54202
565.9620, 56.11269
566.4441, 55.87691
566.9262, 56.31155
567.4083, 57.80813
567.8904, 58.82307
568.3726, 58.60555
568.8547, 58.14192
569.3368, 57.99961
569.8189, 58.18150
570.3010, 58.47196
570.7831, 58.88683
571.2653, 59.27547
571.7474, 59.37044
572.2295, 59.19615
572.7116, 59.04734
573.1937, 59.00974
573.6758, 59.10431
574.1580, 59.46114
574.6401, 60.19982
575.1222, 60.52827
575.6043, 59.97039
576.0864, 59.34162
576.5685, 59.16470
577.0507, 59.35585
577.5328, 59.64574
578.0149, 59.90755
578.4970, 60.14119
578.9791, 60.37776
579.4612, 60.72630
579.9434, 60.76885
580.4255, 59.86741
580.9076, 59.28129
581.3897, 59.70610
581.8718, 60.79572
582.3539, 61.87856
582.8361, 62.73791
583.3182, 63.29623
583.8003, 63.32477
584.2824, 62.88452
584.7645, 62.56789
585.2466, 62.45674
585.7288, 62.57033
586.2108, 63.15499
586.6929, 64.05693
587.1750, 64.39140
587.6572, 63.76463
588.1393, 62.89361
588.6214, 62.04673
589.1035, 61.20567
589.5856, 60.29742
590.0677, 59.31442
590.5499, 58.42265
591.0320, 57.81569
591.5141, 57.50426
591.9962, 57.14351
592.4783, 56.80566
592.9604, 56.32220
593.4426, 55.54033
593.9247, 54.66651
594.4068, 53.91769
594.8889, 53.33823
595.3710, 52.80003
595.8531, 52.12647
596.3353, 51.39452
596.8174, 50.90600
597.2995, 50.68284
597.7816, 50.67316
598.2637, 51.12017
598.7458, 51.60123
599.2280, 51.22467
599.7101, 49.63995
600.1922, 48.62774
600.6743, 49.18732
601.1564, 50.29578
601.6385, 51.07644
602.1207, 51.43579
602.6028, 51.42438
603.0849, 51.03153
603.5670, 50.44672
604.0491, 50.21708
604.5313, 50.69387
605.0134, 50.84773
605.4955, 50.25652
605.9776, 49.75727
606.4597, 49.97659
606.9418, 50.64436
607.4240, 51.05086
607.9061, 50.80428
608.3882, 50.25115
608.8703, 49.84575
609.3524, 49.58961
609.8345, 49.55263
610.3167, 49.84315
610.7988, 50.16579
611.2809, 50.21017
611.7630, 50.04483
612.2451, 49.98607
612.7272, 50.16294
613.2094, 50.34640
613.6915, 50.33450
614.1736, 50.29396
614.6557, 50.56804
615.1378, 51.19579
615.6199, 51.78432
616.1021, 51.92655
616.5842, 51.64190
617.0663, 51.39343
617.5484, 51.21667
618.0305, 51.02201
618.5126, 50.79026
618.9948, 50.53801
619.4769, 50.24556
619.9590, 49.92922
620.4411, 49.69757
620.9232, 49.76794
621.4053, 49.92706
621.8875, 49.64182
622.3696, 48.90346
622.8517, 48.20436
623.3338, 47.72928
623.8159, 47.40296
624.2980, 47.12725
624.7802, 46.90137
625.2623, 46.70942
625.7444, 46.61440
626.2265, 46.49150
626.7086, 46.21576
627.1907, 45.86344
627.6729, 45.58155
628.1550, 45.42821
628.6371, 45.36980
629.1192, 45.35431
629.6013, 45.37584
630.0834, 45.50253
630.5656, 45.91782
631.0477, 46.17480
631.5298, 45.96693
632.0119, 45.58472
632.4940, 45.38384
632.9761, 45.44295
633.4583, 45.64288
633.9404, 45.97922
634.4225, 46.37470
634.9046, 46.63544
635.3867, 46.75735
635.8688, 47.01194
636.3510, 47.59840
636.8331, 48.36451
637.3152, 48.91628
637.7973, 49.11871
638.2794, 49.35215
638.7615, 49.58168
639.2437, 49.88012
639.7258, 50.38100
640.2079, 50.97809
640.6900, 51.42400
641.1721, 51.59395
641.6542, 51.64698
642.1364, 51.88982
642.6185, 52.33463
643.1006, 52.50714
643.5827, 52.22409
644.0648, 51.90980
644.5469, 51.80633
645.0291, 51.87940
645.5112, 52.14495
645.9933, 52.86347
646.4754, 53.20789
646.9575, 52.57335
647.4396, 51.46222
647.9218, 50.30219
648.4039, 49.24965
648.8860, 48.73777
649.3681, 49.14707
649.8502, 50.10530
650.3323, 50.29854
650.8145, 49.28466
651.2966, 48.39956
651.7787, 47.82811
652.2608, 47.30701
652.7429, 46.56403
653.2250, 45.76823
653.7072, 45.39750
654.1893, 45.79810
654.6714, 46.31771
655.1535, 46.11900
655.6356, 45.39246
656.1177, 44.87664
656.5999, 44.70141
657.0820, 44.80675
657.5641, 45.26093
658.0462, 45.96882
658.5283, 46.25972
659.0104, 45.85031
659.4926, 45.47248
659.9747, 45.22806
660.4568, 45.06197
660.9389, 44.84120
661.4210, 44.63908
661.9031, 44.74939
662.3853, 45.41626
662.8674, 46.35487
663.3495, 46.86603
663.8316, 46.87535
664.3137, 47.17634
664.7958, 48.06822
665.2780, 49.03955
665.7601, 49.71902
666.2422, 50.15865
666.7243, 50.45826
667.2064, 50.41078
667.6885, 50.54449
668.1707, 51.19095
668.6528, 52.13651
669.1349, 53.15713
669.6170, 54.18500
670.0991, 55.12586
670.5812, 55.88257
671.0634, 56.52664
671.5455, 57.40497
672.0276, 58.78685
672.5097, 59.77109
672.9918, 59.72316
673.4739, 59.70881
673.9561, 60.32937
674.4382, 61.46048
674.9203, 62.72773
675.4024, 64.16816
675.8845, 65.35960
676.3666, 65.58818
676.8488, 65.29365
677.3309, 65.74876
677.8130, 67.18834
678.2951, 68.56329
678.7772, 69.00371
679.2593, 68.68450
679.7415, 68.61893
680.2236, 69.41535
680.7057, 69.58389
681.1878, 68.45538
681.6699, 67.22331
682.1520, 66.85737
682.6342, 67.08873
683.1163, 66.96013
683.5984, 65.91802
684.0805, 64.52581
684.5626, 63.55875
685.0447, 62.95247
685.5269, 62.25274
686.0090, 61.37352
686.4911, 60.44298
686.9732, 59.53404
687.4553, 58.65779
687.9374, 57.87062
688.4196, 57.30120
688.9017, 56.60887
689.3838, 55.68603
689.8659, 54.67004
690.3480, 53.50142
690.8301, 52.33743
691.3123, 51.53553
691.7944, 51.30598
692.2765, 51.46933
692.7586, 51.80242
693.2407, 52.30985
693.7228, 52.65507
694.2050, 52.74423
694.6871, 52.80921
695.1692, 53.03897
695.6513, 53.08777
696.1334, 53.48440
696.6155, 53.31756
697.0977, 53.31208
697.5798, 53.48325
698.0619, 53.97204
698.5440, 55.18913
699.0261, 56.85700
699.5082, 58.05835
699.9904, 58.30371
700.4725, 58.25466
700.9546, 59.15250
701.4367, 61.12177
701.9188, 62.96659
702.4009, 64.63181
702.8831, 66.19008
703.3652, 67.42262
703.8473, 68.68202
704.3294, 70.56805
704.8115, 73.28647
705.2936, 75.83074
705.7758, 77.36534
706.2579, 78.83231
706.7400, 81.37232
707.2221, 84.69852
707.7042, 87.71141
708.1863, 89.91829
708.6685, 91.95468
709.1506, 94.81242
709.6327, 98.58997
710.1148, 102.3718
710.5969, 106.2820
711.0790, 109.9748
711.5612, 113.0444
712.0433, 116.0263
712.5254, 119.5556
713.0075, 123.6996
713.4896, 127.6531
713.9717, 130.7592
714.4539, 133.7300
714.9360, 137.4545
715.4181, 141.6612
715.9002, 145.5396
716.3823, 148.8290
716.8644, 151.5687
717.3466, 153.7681
717.8287, 155.4195
718.3108, 156.9607
718.7929, 158.6328
719.2750, 159.7671
719.7571, 159.8931
720.2393, 159.7075
720.7214, 160.0673
721.2035, 160.7742
721.6856, 160.4729
722.1677, 158.1883
722.6498, 155.0348
723.1320, 151.7088
723.6141, 148.3595
724.0962, 145.6417
724.5783, 143.6216
725.0604, 141.1363
725.5425, 137.0963
726.0247, 131.7410
726.5068, 126.4069
726.9889, 121.1230
727.4710, 115.7960
727.9531, 110.1015
728.4352, 104.6655
728.9174, 100.0379
729.3995, 95.95442
729.8816, 91.77269
730.3637, 87.11839
730.8458, 82.70613
731.3279, 79.05798
731.8101, 76.03207
732.2922, 73.52514
732.7743, 71.46123
733.2564, 69.39329
733.7385, 67.01546
734.2206, 64.55519
734.7028, 62.61602
735.1849, 61.46951
735.6670, 60.12854
736.1491, 58.21641
736.6312, 56.52849
737.1133, 55.43972
737.5955, 54.70012
738.0776, 53.93218
738.5597, 53.04281
739.0418, 52.29514
739.5239, 51.99413
740.0060, 51.82594
740.4882, 51.28927
740.9703, 50.47675
741.4524, 49.91942
741.9345, 49.83747
742.4166, 49.83574
742.8987, 49.35016
743.3809, 48.34385
743.8630, 47.44981
744.3451, 46.49417
744.8272, 45.94173
745.3093, 46.34138
745.7914, 46.84806
746.2736, 46.56800
746.7557, 45.59409
747.2378, 44.96741
747.7199, 45.38117
748.2020, 46.05962
748.6841, 46.49630
749.1663, 46.68891
749.6484, 46.54171
750.1305, 46.07555
750.6126, 45.62229
751.0947, 45.47301
751.5768, 45.52542
752.0590, 45.31416
752.5411, 44.60343
753.0232, 44.30286
753.5053, 44.78358
753.9874, 45.40487
754.4695, 45.93490
754.9517, 46.31170
755.4338, 46.35358
755.9159, 45.87581
756.3980, 45.51254
756.8801, 45.73318
757.3622, 46.12801
757.8444, 46.17074
758.3265, 45.94215
758.8086, 45.84838
759.2907, 46.07822
759.7728, 46.51166
760.2549, 47.03508
760.7371, 47.67358
761.2192, 47.89680
761.7013, 47.47344
762.1834, 47.17825
762.6655, 47.52967
763.1476, 47.99815
763.6298, 47.84835
764.1119, 47.07234
764.5940, 46.61981
765.0761, 46.97052
765.5582, 47.42065
766.0403, 47.53811
766.5225, 47.52455
767.0046, 47.81246
767.4867, 48.38299
767.9688, 48.61982
768.4509, 47.92392
768.9330, 46.75969
769.4152, 46.48612
769.8973, 47.17564
770.3794, 47.62644
770.8615, 47.59982
771.3436, 47.36863
771.8257, 47.10913
772.3079, 46.80727
772.7900, 46.41084
773.2721, 45.84107
773.7542, 45.33658
774.2363, 44.95537
774.7184, 44.62914
775.2006, 44.29367
775.6827, 43.98270
776.1648, 43.77814
776.6469, 43.70881
777.1290, 43.69886
777.6111, 43.68803
778.0933, 43.67072
778.5754, 43.58009
779.0575, 43.41552
779.5396, 43.45884
780.0217, 43.88313
780.5038, 44.37090
780.9860, 44.48904
781.4681, 44.20124
781.9502, 44.06001
782.4323, 44.32948
782.9144, 44.39456
783.3965, 43.95826
783.8787, 43.42834
784.3608, 43.08566
784.8429, 42.95946
785.3250, 43.03819
785.8071, 43.45367
786.2892, 43.78039
786.7714, 43.46664
787.2535, 42.79278
787.7356, 42.36035
788.2177, 42.23451
788.6998, 42.15858
789.1819, 41.96854
789.6641, 42.04052
790.1462, 41.82594
790.6283, 42.22522
791.1104, 42.52475
791.5925, 42.75346
792.0746, 42.83438
792.5568, 42.57447
793.0389, 42.25049
793.5210, 42.24609
794.0031, 42.59440
794.4852, 42.76896
794.9673, 42.28538
795.4495, 41.87331
795.9316, 42.18421
796.4137, 42.86469
796.8958, 43.39879
797.3779, 43.64574
797.8600, 43.59282
798.3422, 43.16175
798.8243, 42.56641
799.3064, 42.39986
799.7885, 42.68415
800.2706, 43.07316
800.7527, 43.61662
801.2349, 43.97050
801.7170, 43.76408
802.1991, 43.23193
802.6812, 43.11725
803.1633, 43.58686
803.6454, 44.01293
804.1276, 44.44691
804.6097, 44.71041
805.0918, 44.46087
805.5739, 44.07886
806.0560, 44.17056
806.5381, 44.85741
807.0203, 45.66734
807.5024, 46.45591
807.9845, 46.99535
808.4666, 46.65703
808.9487, 45.64928
809.4308, 44.99862
809.9130, 44.97924
810.3951, 45.22597
810.8772, 45.44627
811.3593, 45.61605
811.8414, 45.56353
812.3235, 45.00002
812.8057, 44.84929
813.2878, 45.62733
813.7699, 46.37817
814.2520, 46.67907
814.7341, 46.61966
815.2162, 46.29998
815.6984, 45.64325
816.1805, 45.19879
816.6626, 45.33292
817.1447, 45.66438
817.6268, 45.95187
818.1089, 46.14575
818.5911, 46.13403
819.0732, 45.91330
819.5553, 45.74781
820.0374, 45.95793
820.5195, 46.39201
821.0016, 46.46882
821.4838, 46.16621
821.9659, 45.86932
822.4480, 45.62611
822.9301, 45.52252
823.4122, 45.71398
823.8943, 46.09933
824.3765, 46.18316
824.8586, 45.61908
825.3407, 45.32571
825.8228, 45.47647
826.3049, 45.75653
826.7870, 46.12657
827.2692, 46.46650
827.7513, 46.56123
828.2334, 46.36184
828.7155, 46.19855
829.1976, 46.41735
829.6797, 46.70690
830.1619, 46.60073
830.6440, 46.22710
831.1261, 45.99007
831.6082, 45.99205
832.0903, 46.08181
832.5724, 46.12641
833.0546, 46.14524
833.5367, 46.25732
834.0188, 46.53505
834.5009, 46.51601
834.9830, 45.87446
835.4651, 45.39527
835.9473, 45.67872
836.4294, 46.44134
836.9115, 47.05476
837.3936, 47.52644
837.8757, 47.80170
838.3578, 47.74380
838.8400, 47.62772
839.3221, 47.48781
839.8042, 47.43599
840.2863, 47.73254
840.7684, 48.33863
841.2505, 48.73299
841.7327, 48.45934
842.2148, 47.89819
842.6969, 47.57219
843.1790, 47.43057
843.6611, 47.26460
844.1432, 47.04695
844.6254, 47.02724
845.1075, 47.42186
845.5896, 47.98009
846.0717, 48.05952
846.5538, 47.52368
847.0359, 47.01783
847.5181, 46.23124
848.0002, 46.02208
848.4823, 47.40644
848.9644, 49.11918
849.4465, 49.60629
849.9286, 48.84194
850.4108, 48.22574
850.8929, 48.05886
851.3750, 48.03678
851.8571, 48.13404
852.3392, 48.24330
852.8214, 48.26197
853.3035, 48.18705
853.7856, 48.02135
854.2677, 47.73044
854.7498, 47.55818
855.2319, 47.92582
855.7141, 48.61291
856.1962, 49.05243
856.6783, 49.21222
857.1604, 49.20168
857.6425, 49.05207
858.1246, 48.86796
858.6068, 48.79577
859.0889, 48.83213
859.5710, 48.78133
860.0531, 48.48180
860.5352, 48.48393
861.0173, 49.10005
861.4995, 49.83300
861.9816, 50.36723
862.4637, 50.72346
862.9458, 50.96645
863.4279, 51.13903
863.9100, 51.11177
864.3922, 50.56942
864.8743, 50.08966
865.3564, 50.09965
865.8385, 50.44627
866.3206, 50.86730
866.8027, 51.28197
867.2849, 51.69962
867.7670, 52.21421
868.2491, 52.66246
868.7312, 52.71376
869.2133, 52.47210
869.6954, 52.27926
870.1776, 52.20335
870.6597, 52.17455
871.1418, 52.15068
871.6239, 52.11375
872.1060, 51.99379
872.5881, 51.75086
873.0703, 51.64672
873.5524, 51.68751
874.0345, 51.87472
874.5166, 52.32054
874.9987, 52.82607
875.4808, 53.11079
875.9630, 53.17757
876.4451, 53.24648
876.9272, 53.32289
877.4093, 53.41492
877.8914, 53.71009
878.3735, 53.86804
878.8557, 53.38756
879.3378, 52.54943
879.8199, 52.17154
880.3020, 52.62138
880.7841, 53.12645
881.2662, 52.92372
881.7484, 52.51089
882.2305, 52.69748
882.7126, 53.30082
883.1947, 53.60551
883.6768, 53.41007
884.1589, 53.11726
884.6411, 53.09038
885.1232, 53.31041
885.6053, 53.81008
886.0874, 54.62044
886.5695, 55.03923
887.0516, 54.82021
887.5338, 54.72554
888.0159, 55.32753
888.4980, 56.26807
888.9801, 56.71571
889.4622, 56.45636
889.9443, 56.44416
890.4265, 56.80431
890.9086, 57.24917
891.3907, 57.90225
891.8728, 58.46635
892.3549, 58.60869
892.8370, 58.38975
893.3192, 58.17329
893.8013, 57.92772
894.2834, 57.95618
894.7655, 58.76452
895.2476, 59.64733
895.7297, 59.81637
896.2119, 59.45951
896.6940, 59.19451
897.1761, 59.23083
897.6582, 59.22545
898.1403, 58.68889
898.6224, 57.95727
899.1046, 57.92262
899.5867, 58.41114
900.0688, 58.40934
900.5509, 57.69717
901.0330, 56.85493
901.5151, 56.28053
901.9973, 55.95844
902.4794, 55.91551
902.9615, 56.25913
903.4436, 56.28723
903.9257, 55.82584
904.4078, 55.42354
904.8900, 55.36687
905.3721, 55.40916
905.8542, 55.25937
906.3363, 54.91594
906.8184, 54.48761
907.3005, 53.84472
907.7827, 53.30442
908.2648, 53.04139
908.7469, 52.78642
909.2290, 52.39646
909.7111, 51.86296
910.1932, 51.12539
910.6754, 50.14381
911.1575, 49.35467
911.6396, 49.04012
912.1217, 48.99526
912.6038, 49.21336
913.0859, 49.49068
913.5681, 49.48164
914.0502, 49.14413
914.5323, 48.61963
915.0144, 47.94145
915.4965, 47.38098
915.9786, 47.71282
916.4607, 48.56765
916.9428, 47.98697
917.4249, 45.92769
917.9070, 44.71430
918.3892, 45.38256
918.8713, 46.74588
919.3534, 47.35450
919.8355, 47.27003
920.3176, 47.16606
920.7997, 47.03988
921.2819, 46.88429
921.7640, 46.60099
922.2461, 46.45602
922.7282, 46.69190
923.2103, 47.16100
923.6924, 47.55743
924.1746, 47.96294
924.6567, 48.00133
925.1388, 47.21984
925.6209, 46.61608
926.1030, 46.56617
926.5851, 46.80359
927.0673, 47.24958
927.5494, 47.75310
928.0315, 47.85882
928.5136, 47.22593
928.9957, 46.65317
929.4778, 46.70031
929.9600, 46.92119
930.4421, 46.83986
930.9242, 46.59431
931.4063, 46.52439
931.8884, 46.72155
932.3705, 47.06872
932.8527, 47.52022
933.3348, 48.00261
933.8169, 48.41432
934.2990, 48.75664
934.7811, 49.03115
935.2632, 49.23675
935.7454, 49.31123
936.2275, 49.20403
936.7096, 49.16887
937.1917, 49.67769
937.6738, 50.67117
938.1559, 51.22151
938.6381, 51.24382
939.1202, 51.34924
939.6023, 51.66483
940.0844, 52.15878
940.5665, 52.86716
941.0486, 53.69847
941.5308, 54.32899
942.0129, 54.64898
942.4950, 55.06368
942.9771, 55.77852
943.4592, 56.31453
943.9413, 56.19947
944.4235, 56.07953
944.9056, 56.77992
945.3877, 58.15174
945.8698, 58.99416
946.3519, 58.67128
946.8340, 58.48180
947.3162, 58.92651
947.7983, 59.44893
948.2804, 59.64815
948.7625, 59.65933
949.2446, 59.69222
949.7267, 59.81211
950.2089, 60.14169
950.6910, 61.05127
951.1731, 61.88634
951.6552, 61.80167
952.1373, 61.44912
952.6194, 61.82866
953.1016, 62.89308
953.5837, 64.11004
954.0658, 65.23282
954.5479, 66.04427
955.0300, 65.98635
955.5121, 65.55043
955.9943, 66.06364
956.4764, 67.33517
956.9585, 68.49229
957.4406, 69.32835
957.9227, 69.67198
958.4048, 69.33775
958.8870, 68.74507
959.3691, 68.87563
959.8512, 69.75052
960.3333, 70.37627
960.8154, 70.73750
961.2975, 70.77670
961.7797, 70.36417
962.2618, 69.93555
962.7439, 69.95815
963.2260, 70.34285
963.7081, 70.58480
964.1902, 70.62557
964.6724, 70.66173
965.1545, 70.65727
965.6366, 70.71022
966.1187, 70.88673
966.6008, 71.12583
967.0829, 71.41930
967.5651, 71.75845
968.0472, 71.82952
968.5293, 70.90904
969.0114, 70.72546
969.4935, 72.31268
969.9756, 73.98843
970.4578, 74.59510
970.9399, 74.59789
971.4220, 74.81528
971.9041, 75.39317
972.3862, 76.19160
972.8683, 77.67661
973.3505, 78.74702
973.8326, 78.31742
974.3147, 77.48396
974.7968, 77.33488
975.2789, 77.90404
975.7610, 78.95555
976.2432, 80.41299
976.7253, 81.77988
977.2074, 82.43588
977.6895, 82.95126
978.1716, 84.36614
978.6537, 86.06758
979.1359, 86.59692
979.6180, 85.93785
980.1001, 85.40810
980.5822, 85.77622
981.0643, 86.44083
981.5464, 86.50459
982.0286, 86.82468
982.5107, 87.06915
982.9928, 87.00516
983.4749, 87.30594
983.9570, 87.13975
984.4391, 87.04395
984.9213, 87.49892
985.4034, 87.10503
985.8855, 86.85374
986.3676, 86.69817
986.8497, 85.95415
987.3318, 85.70903
987.8140, 85.36975
988.2961, 84.73033
988.7782, 83.91132
989.2603, 82.94155
989.7424, 81.94937
990.2245, 81.62382
990.7067, 82.31229
991.1888, 82.38990
991.6709, 81.50680
992.1530, 80.59423
992.6351, 79.94163
993.1172, 79.54593
993.5994, 79.44842
994.0815, 79.63506
994.5636, 79.81269
995.0457, 80.25383
995.5278, 80.23900
996.0099, 79.57293
996.4921, 78.63322
996.9742, 77.48680
997.4563, 76.21618
997.9384, 74.99137
998.4205, 73.80820
998.9026, 72.26533
999.3848, 69.72709
999.8669, 67.65126
1000.349, 66.76137
1000.831, 66.05257
1001.313, 64.86045
1001.795, 63.38640
1002.277, 61.97762
1002.760, 60.70545
1003.242, 59.59857
1003.724, 58.93445
1004.206, 58.12294
1004.688, 56.61374
1005.170, 55.02521
1005.652, 53.95181
1006.134, 53.28691
1006.617, 52.66716
1007.099, 51.98882
1007.581, 51.38915
1008.063, 50.99459
1008.545, 50.67101
1009.027, 50.35413
1009.509, 50.00164
1009.991, 49.50706
1010.473, 48.91940
1010.956, 48.49567
1011.438, 48.32486
1011.920, 47.93227
1012.402, 46.58081
1012.884, 44.98175
1013.366, 44.18118
1013.848, 43.92199
1014.330, 43.72774
1014.813, 43.47398
1015.295, 43.01765
1015.777, 42.28411
1016.259, 41.55491
1016.741, 41.23646
1017.223, 41.14890
1017.705, 40.82879
1018.187, 40.33367
1018.669, 39.84364
1019.152, 39.41705
1019.634, 39.32123
1020.116, 39.73556
1020.598, 40.16245
1021.080, 39.70265
1021.562, 38.58756
1022.044, 38.05727
1022.526, 38.07580
1023.008, 38.12500
1023.491, 38.09904
1023.973, 38.10600
1024.455, 38.23439
1024.937, 38.33465
1025.419, 38.07316
1025.901, 37.47686
1026.383, 37.23455
1026.865, 37.38860
1027.348, 37.43566
1027.830, 37.26139
1028.312, 36.97575
1028.794, 36.63382
1029.276, 36.27276
1029.758, 35.95736
1030.240, 35.67754
1030.722, 35.61022
1031.204, 35.85344
1031.687, 35.89667
1032.169, 35.53649
1032.651, 35.17847
1033.133, 35.09601
1033.615, 35.23499
1034.097, 35.51548
1034.579, 36.01179
1035.061, 36.15141
1035.544, 35.82362
1036.026, 35.35908
1036.508, 34.55904
1036.990, 34.09705
1037.472, 34.69364
1037.954, 35.83598
1038.436, 36.29098
1038.918, 35.91226
1039.401, 35.51852
1039.883, 34.98098
1040.365, 34.65045
1040.847, 34.63771
1041.329, 34.80891
1041.811, 35.21683
1042.293, 35.70337
1042.775, 35.84682
1043.257, 35.50319
1043.740, 35.41034
1044.222, 35.69324
1044.704, 36.05294
1045.186, 36.70074
1045.668, 37.14948
1046.150, 36.81240
1046.632, 36.11520
1047.114, 36.05265
1047.596, 36.86665
1048.079, 37.21670
1048.561, 36.31562
1049.043, 35.85909
1049.525, 36.71869
1050.007, 37.71360
1050.489, 38.00687
1050.971, 37.84000
1051.453, 37.66620
1051.936, 37.48657
1052.418, 37.71822
1052.900, 39.05542
1053.382, 39.96187
1053.864, 39.84605
1054.346, 39.29650
1054.828, 38.33422
1055.310, 37.41001
1055.792, 37.49395
1056.275, 38.78362
1056.757, 39.47389
1057.239, 38.63927
1057.721, 37.78119
1058.203, 37.22483
1058.685, 36.99749
1059.167, 37.38597
1059.649, 38.00077
1060.131, 38.14108
1060.614, 37.71046
1061.096, 37.34784
1061.578, 37.27894
1062.060, 37.28049
1062.542, 37.37792
1063.024, 37.41008
1063.506, 37.30119
1063.988, 37.02222
1064.471, 36.41236
1064.953, 35.50412
1065.435, 34.93346
1065.917, 35.13237
1066.399, 35.40111
1066.881, 35.48751
1067.363, 35.50876
1067.845, 35.53358
1068.328, 35.56245
1068.810, 35.59214
1069.292, 35.61779
1069.774, 35.60889
1070.256, 35.48635
1070.738, 35.45300
1071.220, 35.54287
1071.702, 35.81291
1072.184, 36.56941
1072.667, 37.38007
1073.149, 37.56508
1073.631, 37.15001
1074.113, 36.76080
1074.595, 36.54059
1075.077, 36.57363
1075.559, 37.18121
1076.041, 37.75795
1076.523, 37.72447
1077.006, 37.50505
1077.488, 37.71387
1077.970, 38.30421
1078.452, 38.74624
1078.934, 38.81200
1079.416, 38.91761
1079.898, 39.36964
1080.380, 39.79906
1080.862, 40.07110
1081.345, 40.11248
1081.827, 39.65724
1082.309, 38.91829
1082.791, 38.61255
1083.273, 39.04639
1083.755, 39.27326
1084.237, 38.63123
1084.719, 37.93547
1085.202, 37.63705
1085.684, 37.55238
1086.166, 37.53836
1086.648, 37.54806
1087.130, 37.58113
1087.612, 37.64920
1088.094, 37.48685
1088.576, 36.76954
1089.058, 36.06398
1089.541, 35.72921
1090.023, 35.45995
1090.505, 34.92529
1090.987, 34.26257
1091.469, 33.73144
1091.951, 33.38784
1092.433, 33.26408
1092.915, 33.65426
1093.397, 33.88601
1093.880, 33.52575
1094.362, 33.06337
1094.844, 32.95618
1095.326, 32.95274
1095.808, 32.51738
1096.290, 31.67316
1096.772, 31.17158
1097.254, 31.37672
1097.737, 31.71920
1098.219, 32.28081
1098.701, 32.61366
1099.183, 32.09359
1099.665, 31.43048
1100.147, 31.69820
1100.629, 32.70512
1101.111, 33.12017
1101.594, 32.38201
1102.076, 31.77048
1102.558, 31.68783
1103.040, 31.73419
1103.522, 31.75918
1104.004, 31.79719
1104.486, 31.98705
1104.968, 32.21344
1105.450, 32.12619
1105.932, 31.60822
1106.415, 31.09220
1106.897, 30.46872
1107.379, 30.11892
1107.861, 30.36838
1108.343, 30.73397
1108.825, 30.99153
1109.307, 31.06486
1109.789, 30.79227
1110.272, 30.13210
1110.754, 29.53876
1111.236, 28.78849
1111.718, 28.51263
1112.200, 29.15095
1112.682, 29.91077
1113.164, 30.49372
1113.646, 30.88732
1114.129, 31.11761
1114.611, 31.17965
1115.093, 30.93486
1115.575, 30.13561
1116.057, 29.42161
1116.539, 28.72818
1117.021, 28.22030
1117.503, 27.96127
1117.985, 27.91025
1118.468, 28.11491
1118.950, 28.49336
1119.432, 28.70441
1119.914, 28.72239
1120.396, 28.63455
1120.878, 28.29901
1121.360, 28.15655
1121.842, 28.49760
1122.324, 28.75144
1122.807, 28.38868
1123.289, 27.76027
1123.771, 27.65065
1124.253, 28.12160
1124.735, 28.38841
1125.217, 28.43100
1125.699, 28.31805
1126.181, 27.99886
1126.664, 27.69793
1127.146, 27.53981
1127.628, 27.44921
1128.110, 27.33018
1128.592, 27.18268
1129.074, 26.97168
1129.556, 26.65962
1130.038, 26.63337
1130.521, 26.99459
1131.003, 27.11806
1131.485, 26.69211
1131.967, 26.45320
1132.449, 27.18582
1132.931, 28.40927
1133.413, 28.77281
1133.895, 28.30774
1134.377, 27.98016
1134.859, 27.80668
1135.342, 27.70727
1135.824, 27.66375
1136.306, 27.43331
1136.788, 26.82502
1137.270, 26.27307
1137.752, 26.63955
1138.234, 26.28302
1138.716, 26.28442
1139.199, 26.55898
1139.681, 26.37640
1140.163, 26.97254
1140.645, 27.29289
1141.127, 26.90415
1141.609, 26.33893
1142.091, 26.06031
1142.573, 26.02160
1143.056, 26.17864
1143.538, 26.49634
1144.020, 27.05552
1144.502, 27.68618
1144.984, 27.84064
1145.466, 27.44531
1145.948, 26.90988
1146.430, 26.43998
1146.912, 26.15483
1147.395, 26.30682
1147.877, 26.60423
1148.359, 26.68683
1148.841, 26.64059
1149.323, 26.61099
1149.805, 26.62462
1150.287, 26.67513
1150.769, 26.75998
1151.251, 26.85586
1151.734, 26.95766
1152.216, 27.05213
1152.698, 27.25501
1153.180, 27.33442
1153.662, 26.86319
1154.144, 26.18376
1154.626, 25.95173
1155.108, 26.21595
1155.591, 26.45188
1156.073, 26.43206
1156.555, 26.46094
1157.037, 26.78477
1157.519, 27.02512
1158.001, 26.99530
1158.483, 26.76371
1158.965, 26.25260
1159.448, 25.62637
1159.930, 25.37206
1160.412, 25.63858
1160.894, 25.84484
1161.376, 25.90140
1161.858, 25.92838
1162.340, 25.90854
1162.822, 25.91223
1163.304, 26.02176
1163.786, 26.14515
1164.269, 26.12557
1164.751, 25.97648
1165.233, 25.94624
1165.715, 26.06017
1166.197, 26.25221
1166.679, 26.63833
1167.161, 26.76855
1167.643, 26.37786
1168.126, 25.95339
1168.608, 25.92240
1169.090, 26.15268
1169.572, 26.35457
1170.054, 26.53518
1170.536, 26.33740
1171.018, 25.70572
1171.500, 25.62408
1171.983, 26.30347
1172.465, 26.81395
1172.947, 26.65973
1173.429, 26.30523
1173.911, 26.29212
1174.393, 26.53623
1174.875, 26.97248
1175.357, 27.46035
1175.839, 27.21149
1176.322, 26.36302
1176.804, 25.87295
1177.286, 25.98890
1177.768, 26.42694
1178.250, 27.05510
1178.732, 27.51567
1179.214, 27.18215
1179.696, 26.56708
1180.178, 26.42561
1180.661, 26.58842
1181.143, 26.89368
1181.625, 27.15040
1182.107, 26.82306
1182.589, 25.80216
1183.071, 25.02134
1183.553, 25.17304
1184.035, 25.55536
1184.518, 25.81140
1185.000, 25.98974
1185.482, 26.06064
1185.964, 26.12615
1186.446, 26.38833
1186.928, 26.78376
1187.410, 26.98040
1187.892, 26.87612
1188.375, 26.67561
1188.857, 26.11047
1189.339, 25.88960
1189.821, 26.61625
1190.303, 27.38112
1190.785, 27.48627
1191.267, 27.25092
1191.749, 27.25928
1192.231, 27.50171
1192.714, 27.56216
1193.196, 27.43408
1193.678, 27.08405
1194.160, 26.23115
1194.642, 25.91541
1195.124, 26.69862
1195.606, 27.55390
1196.088, 27.60942
1196.570, 27.18094
1197.053, 26.96576
1197.535, 26.95317
1198.017, 26.86740
1198.499, 26.70832
1198.981, 26.55676
1199.463, 26.42561
1199.945, 26.36910
1200.427, 26.41022
1200.910, 26.46922
1201.392, 26.43895
1201.874, 26.45982
1202.356, 26.99132
1202.838, 26.80148
1203.320, 27.55575
1203.802, 26.89618
1204.284, 26.66693
1204.766, 26.94354
1205.249, 27.16366
1205.731, 27.07435
1206.213, 26.91073
1206.695, 26.69223
1207.177, 26.66545
1207.659, 27.39376
1208.141, 28.10123
1208.623, 27.79551
1209.105, 26.96775
1209.588, 26.50834
1210.070, 26.50433
1210.552, 26.50467
1211.034, 26.33826
1211.516, 26.30807
1211.998, 26.74384
1212.480, 26.98597
1212.962, 26.56318
1213.445, 26.08804
1213.927, 25.96344
1214.409, 26.13096
1214.891, 26.61182
1215.373, 27.39681
1215.855, 27.56963
1216.337, 26.85843
1216.819, 26.40852
1217.302, 26.32887
1217.784, 26.39826
1218.266, 26.59312
1218.748, 26.69700
1219.230, 26.50671
1219.712, 26.22104
1220.194, 26.23861
1220.676, 26.51108
1221.158, 26.82327
1221.641, 27.13479
1222.123, 27.14172
1222.605, 26.85126
1223.087, 26.48375
1223.569, 26.14776
1224.051, 26.10412
1224.533, 26.63699
1225.015, 27.25096
1225.497, 27.43701
1225.980, 27.29305
1226.462, 26.58715
1226.944, 25.86202
1227.426, 26.26022
1227.908, 27.37766
1228.390, 27.67625
1228.872, 26.75038
1229.354, 25.90146
1229.837, 25.45947
1230.319, 25.51380
1230.801, 26.66194
1231.283, 27.65751
1231.765, 27.62690
1232.247, 27.19744
1232.729, 26.98444
1233.211, 26.98195
1233.693, 27.09952
1234.176, 27.40256
1234.658, 27.42499
1235.140, 27.00887
1235.622, 26.76557
1236.104, 26.83679
1236.586, 26.88293
1237.068, 26.73685
1237.550, 26.58014
1238.032, 26.61144
1238.515, 26.74768
1238.997, 26.71909
1239.479, 26.58824
1239.961, 26.89305
1240.443, 26.81633
1240.925, 26.76419
1241.407, 27.01649
1241.889, 26.71364
1242.372, 26.96670
1242.854, 27.26182
1243.336, 27.09082
1243.818, 26.94452
1244.300, 27.57189
1244.782, 28.29067
1245.264, 28.21240
1245.746, 27.77523
1246.229, 27.66529
1246.711, 27.88007
1247.193, 28.12786
1247.675, 28.35285
1248.157, 28.42852
1248.639, 28.23704
1249.121, 28.01582
1249.603, 27.80887
1250.085, 27.59872
1250.568, 27.35986
1251.050, 27.13059
1251.532, 26.91327
1252.014, 26.75164
1252.496, 26.78804
1252.978, 27.03971
1253.460, 27.29737
1253.942, 27.59531
1254.424, 27.47659
1254.907, 26.83809
1255.389, 26.73792
1255.871, 27.62346
1256.353, 28.35152
1256.835, 27.82055
1257.317, 26.82438
1257.799, 26.65967
1258.281, 27.01460
1258.764, 27.45987
1259.246, 27.82053
1259.728, 27.67699
1260.210, 27.15569
1260.692, 26.76204
1261.174, 26.63785
1261.656, 26.56369
1262.138, 26.45081
1262.620, 26.32247
1263.103, 25.94628
1263.585, 25.85447
1264.067, 26.84540
1264.549, 27.82041
1265.031, 27.41299
1265.513, 26.32086
1265.995, 26.32140
1266.477, 27.44696
1266.959, 28.08929
1267.442, 28.17121
1267.924, 27.98071
1268.406, 27.45875
1268.888, 26.94604
1269.370, 26.51694
1269.852, 26.32185
1270.334, 26.49079
1270.816, 26.83110
1271.299, 27.09161
1271.781, 27.25589
1272.263, 27.16276
1272.745, 26.97411
1273.227, 27.24893
1273.709, 27.82461
1274.191, 28.11255
1274.673, 28.00884
1275.156, 27.75073
1275.638, 27.42085
1276.120, 27.19594
1276.602, 27.22988
1277.084, 27.34409
1277.566, 27.51391
1278.048, 27.64295
1278.530, 27.58186
1279.012, 27.48608
1279.495, 27.65788
1279.977, 27.48839
1280.459, 27.99056
1280.941, 27.44669
1281.423, 27.25465
1281.905, 27.52727
1282.387, 27.84689
1282.869, 28.23429
1283.351, 28.14000
1283.834, 27.25254
1284.316, 26.36132
1284.798, 26.22431
1285.280, 26.53068
1285.762, 26.76427
1286.244, 26.92624
##END=



