##NAMES=Tinzenite
##RRUFFID=R110064
##IDEAL CHEMISTRY=Ca_2_Mn^2+^_4_Al_4_[B_2_Si_8_O_30_](OH)_2_
##LOCALITY=Gambatesa mine, Val Graveglia, Genova, Italy
##OWNER=RRUFF
##SOURCE=Renato & Adriana Pagano
##DESCRIPTION=Parallel aggregates of orange platy crystals
##STATUS=The identification of this mineral has been confirmed by single-crystal X-ray diffraction.
##URL=rruff.info/R110064
177.7553, 521.0991
178.2374, 521.4557
178.7195, 522.2607
179.2017, 525.1839
179.6838, 529.0288
180.1659, 532.0588
180.6480, 534.3126
181.1301, 535.8513
181.6122, 536.6597
182.0944, 536.8327
182.5765, 536.6211
183.0586, 536.1411
183.5407, 535.3767
184.0228, 533.7789
184.5049, 531.0901
184.9871, 529.0863
185.4692, 530.4694
185.9513, 534.7109
186.4334, 538.9752
186.9155, 542.1663
187.3976, 544.3737
187.8798, 545.7222
188.3619, 546.0419
188.8440, 546.1560
189.3261, 547.0132
189.8082, 548.6075
190.2903, 550.9286
190.7725, 554.4733
191.2546, 558.9714
191.7367, 562.4891
192.2188, 564.8398
192.7009, 566.5341
193.1830, 568.2362
193.6652, 569.9371
194.1473, 571.7280
194.6294, 573.5662
195.1115, 575.4678
195.5936, 577.9069
196.0757, 581.2341
196.5579, 584.5519
197.0400, 585.8572
197.5221, 584.9882
198.0042, 583.9108
198.4863, 583.5128
198.9684, 583.7942
199.4506, 585.0536
199.9327, 587.6794
200.4148, 590.8106
200.8969, 592.2158
201.3790, 591.5448
201.8611, 591.1316
202.3433, 592.6651
202.8254, 596.3749
203.3075, 599.2888
203.7896, 601.1015
204.2717, 602.0504
204.7538, 602.5516
205.2360, 602.4635
205.7181, 602.4119
206.2002, 602.8812
206.6823, 604.0042
207.1644, 604.6744
207.6465, 604.6692
208.1287, 604.2161
208.6108, 603.8431
209.0929, 603.3323
209.5750, 603.4749
210.0571, 605.2307
210.5392, 609.3095
211.0214, 611.5865
211.5035, 611.1720
211.9856, 608.9109
212.4677, 607.7457
212.9498, 608.0204
213.4319, 608.6495
213.9141, 608.8362
214.3962, 608.2031
214.8783, 608.6293
215.3604, 610.7382
215.8425, 613.9675
216.3246, 615.8630
216.8067, 615.9354
217.2889, 615.6480
217.7710, 615.8990
218.2531, 616.8732
218.7352, 617.8141
219.2173, 618.6589
219.6994, 619.4161
220.1816, 619.9997
220.6637, 620.0356
221.1458, 620.5164
221.6279, 622.2775
222.1100, 626.1793
222.5921, 629.1013
223.0743, 630.7078
223.5564, 631.1547
224.0385, 631.0942
224.5206, 630.1573
225.0027, 629.3230
225.4848, 629.0928
225.9670, 629.2531
226.4491, 630.6749
226.9312, 634.0877
227.4133, 638.8842
227.8954, 642.2996
228.3775, 644.0900
228.8597, 644.7850
229.3418, 644.4022
229.8239, 641.9149
230.3060, 640.7396
230.7881, 641.3813
231.2702, 643.5473
231.7524, 645.9720
232.2345, 648.9960
232.7166, 651.7228
233.1987, 653.5497
233.6808, 654.1155
234.1629, 654.5219
234.6451, 654.7341
235.1272, 654.8197
235.6093, 655.0413
236.0914, 655.1236
236.5735, 655.7148
237.0556, 657.2958
237.5378, 660.5387
238.0199, 663.3447
238.5020, 665.6407
238.9841, 667.4530
239.4662, 668.7276
239.9483, 669.2527
240.4305, 669.5754
240.9126, 669.9420
241.3947, 670.2008
241.8768, 670.8889
242.3589, 672.1682
242.8410, 673.8864
243.3232, 675.5583
243.8053, 677.2675
244.2874, 678.7949
244.7695, 680.0380
245.2516, 681.0828
245.7337, 681.5443
246.2159, 680.8134
246.6980, 679.5460
247.1801, 679.9629
247.6622, 682.8370
248.1443, 686.2020
248.6264, 689.2235
249.1086, 692.1711
249.5907, 694.1531
250.0728, 694.9822
250.5549, 694.8962
251.0370, 694.3348
251.5191, 692.5280
252.0013, 691.4933
252.4834, 692.4746
252.9655, 697.0074
253.4476, 699.4039
253.9297, 698.6189
254.4118, 696.1761
254.8940, 695.3806
255.3761, 696.3731
255.8582, 698.7743
256.3403, 702.7928
256.8224, 709.3266
257.3046, 714.3875
257.7867, 717.5587
258.2688, 719.4584
258.7509, 721.1711
259.2330, 722.5411
259.7151, 723.9853
260.1973, 725.8602
260.6794, 728.4777
261.1615, 729.8552
261.6436, 729.4447
262.1257, 728.2658
262.6078, 728.0398
263.0900, 729.0291
263.5721, 730.3965
264.0542, 731.9172
264.5363, 733.6552
265.0184, 735.3283
265.5005, 736.8964
265.9827, 738.5108
266.4648, 740.4827
266.9469, 742.9697
267.4290, 745.3263
267.9111, 747.3149
268.3932, 748.8875
268.8754, 750.6861
269.3575, 752.8255
269.8396, 754.9792
270.3217, 756.5715
270.8038, 757.3445
271.2859, 758.4874
271.7681, 760.4730
272.2502, 763.2401
272.7323, 765.3621
273.2144, 766.5023
273.6965, 767.5963
274.1786, 770.0036
274.6608, 774.2035
275.1429, 777.1629
275.6250, 777.6984
276.1071, 776.2385
276.5892, 776.3159
277.0714, 778.4503
277.5535, 780.6379
278.0356, 780.6858
278.5177, 778.3344
278.9998, 776.4529
279.4819, 775.5215
279.9641, 775.5113
280.4462, 776.7372
280.9283, 779.5484
281.4104, 782.0969
281.8925, 782.6762
282.3746, 781.2635
282.8568, 779.8448
283.3389, 778.5191
283.8210, 777.5968
284.3031, 778.0666
284.7852, 780.0422
285.2673, 782.6492
285.7495, 785.7670
286.2316, 789.2993
286.7137, 791.6251
287.1958, 792.2316
287.6779, 792.0202
288.1600, 792.9077
288.6422, 794.9084
289.1243, 796.9603
289.6064, 797.8215
290.0885, 797.9198
290.5706, 799.8687
291.0527, 804.3867
291.5349, 809.5731
292.0170, 812.3757
292.4991, 812.9006
292.9812, 812.7460
293.4633, 811.7981
293.9454, 810.7501
294.4276, 812.3904
294.9097, 817.3043
295.3918, 822.8856
295.8739, 825.4323
296.3560, 825.5461
296.8381, 826.1824
297.3203, 829.9092
297.8024, 834.8959
298.2845, 836.8154
298.7666, 835.3177
299.2487, 833.5730
299.7308, 835.2465
300.2130, 839.3373
300.6951, 842.9287
301.1772, 844.3439
301.6593, 844.8365
302.1414, 846.2288
302.6235, 848.4908
303.1057, 850.9912
303.5878, 853.2987
304.0699, 855.4534
304.5520, 857.4758
305.0341, 859.2957
305.5162, 861.0596
305.9984, 863.1346
306.4805, 865.4147
306.9626, 867.3000
307.4447, 868.4869
307.9268, 868.9856
308.4089, 868.6071
308.8911, 866.5056
309.3732, 864.7569
309.8553, 865.7508
310.3374, 868.6856
310.8195, 870.8685
311.3016, 869.3859
311.7838, 867.1564
312.2659, 867.0715
312.7480, 870.6389
313.2301, 874.1007
313.7122, 874.6050
314.1943, 873.3876
314.6765, 873.0395
315.1586, 875.2461
315.6407, 878.3162
316.1228, 881.4617
316.6049, 884.7585
317.0870, 887.3059
317.5692, 888.1909
318.0513, 888.1881
318.5334, 888.3704
319.0155, 888.7608
319.4976, 889.6902
319.9797, 891.4809
320.4619, 894.2217
320.9440, 896.9220
321.4261, 899.7133
321.9082, 902.1117
322.3903, 903.6411
322.8724, 903.4483
323.3546, 903.1155
323.8367, 902.9114
324.3188, 902.8516
324.8009, 903.1116
325.2830, 903.8474
325.7651, 904.8422
326.2473, 905.9608
326.7294, 907.1754
327.2115, 908.5688
327.6936, 910.2039
328.1757, 912.0607
328.6578, 914.0507
329.1400, 916.4301
329.6221, 918.7654
330.1042, 920.9022
330.5863, 922.8402
331.0684, 924.5496
331.5505, 925.2231
332.0327, 925.7883
332.5148, 928.5424
332.9969, 936.0238
333.4790, 942.2059
333.9611, 944.5626
334.4432, 941.5187
334.9254, 940.9785
335.4075, 944.1232
335.8896, 948.7252
336.3717, 951.5607
336.8538, 951.6425
337.3359, 952.2868
337.8180, 954.7072
338.3001, 958.8519
338.7823, 961.6246
339.2644, 962.5716
339.7465, 963.0357
340.2286, 964.4254
340.7107, 966.9579
341.1928, 969.1789
341.6750, 970.7435
342.1571, 971.8194
342.6392, 972.8961
343.1213, 973.9887
343.6034, 975.1053
344.0855, 976.2306
344.5677, 977.3645
345.0498, 978.7015
345.5319, 980.3104
346.0140, 982.0450
346.4961, 983.5525
346.9782, 984.8400
347.4604, 986.2931
347.9425, 988.4436
348.4246, 990.9836
348.9067, 992.4332
349.3888, 992.4911
349.8709, 992.5765
350.3531, 994.6891
350.8352, 998.3738
351.3173, 1001.931
351.7994, 1004.899
352.2815, 1007.208
352.7636, 1008.510
353.2458, 1008.796
353.7279, 1008.969
354.2100, 1009.535
354.6921, 1010.532
355.1742, 1012.106
355.6563, 1015.056
356.1385, 1017.800
356.6206, 1018.527
357.1027, 1017.569
357.5848, 1016.595
358.0669, 1016.090
358.5490, 1016.293
359.0312, 1017.652
359.5133, 1020.908
359.9954, 1023.884
360.4775, 1025.075
360.9596, 1025.095
361.4417, 1025.220
361.9239, 1025.519
362.4060, 1026.430
362.8881, 1028.526
363.3702, 1032.201
363.8523, 1035.253
364.3344, 1036.562
364.8166, 1037.016
365.2987, 1037.635
365.7808, 1038.258
366.2629, 1039.453
366.7450, 1041.729
367.2271, 1045.070
367.7093, 1047.809
368.1914, 1049.530
368.6735, 1050.716
369.1556, 1051.664
369.6377, 1050.205
370.1198, 1051.261
370.6020, 1056.918
371.0841, 1065.480
371.5662, 1070.706
372.0483, 1070.277
372.5304, 1069.247
373.0125, 1069.727
373.4947, 1072.411
373.9768, 1074.555
374.4589, 1075.876
374.9410, 1076.905
375.4231, 1078.472
375.9052, 1080.709
376.3874, 1083.221
376.8695, 1086.070
377.3516, 1089.283
377.8337, 1091.587
378.3158, 1092.718
378.7979, 1093.831
379.2801, 1096.401
379.7622, 1100.570
380.2443, 1103.696
380.7264, 1104.955
381.2085, 1105.151
381.6906, 1106.553
382.1728, 1109.166
382.6549, 1111.836
383.1370, 1113.163
383.6191, 1113.731
384.1012, 1116.100
384.5833, 1120.866
385.0655, 1126.305
385.5476, 1129.992
386.0297, 1132.353
386.5118, 1134.775
386.9939, 1138.659
387.4760, 1142.742
387.9582, 1144.924
388.4403, 1145.180
388.9224, 1145.179
389.4045, 1146.295
389.8866, 1148.020
390.3687, 1149.627
390.8509, 1150.581
391.3330, 1151.681
391.8151, 1154.023
392.2972, 1157.186
392.7793, 1159.468
393.2614, 1158.651
393.7436, 1157.503
394.2257, 1158.222
394.7078, 1162.116
395.1899, 1165.575
395.6720, 1166.401
396.1541, 1166.123
396.6363, 1167.204
397.1184, 1171.194
397.6005, 1175.733
398.0826, 1180.503
398.5647, 1185.681
399.0468, 1189.252
399.5290, 1189.725
400.0111, 1189.236
400.4932, 1189.490
400.9753, 1190.740
401.4574, 1192.431
401.9395, 1194.622
402.4217, 1197.243
402.9038, 1199.928
403.3859, 1202.746
403.8680, 1205.539
404.3501, 1208.232
404.8322, 1210.761
405.3144, 1213.373
405.7965, 1216.139
406.2786, 1218.867
406.7607, 1221.034
407.2428, 1222.420
407.7249, 1224.464
408.2071, 1227.851
408.6892, 1232.335
409.1713, 1236.209
409.6534, 1239.395
410.1355, 1242.475
410.6176, 1246.172
411.0998, 1250.326
411.5819, 1253.470
412.0640, 1254.288
412.5461, 1255.723
413.0282, 1265.843
413.5103, 1282.632
413.9925, 1294.516
414.4746, 1290.112
414.9567, 1278.114
415.4388, 1272.547
415.9209, 1274.986
416.4030, 1279.009
416.8852, 1279.561
417.3673, 1278.048
417.8494, 1276.777
418.3315, 1277.147
418.8136, 1277.647
419.2957, 1276.607
419.7779, 1274.465
420.2600, 1273.984
420.7421, 1278.295
421.2242, 1283.650
421.7063, 1287.142
422.1884, 1287.270
422.6706, 1287.545
423.1527, 1288.432
423.6348, 1290.094
424.1169, 1292.813
424.5990, 1298.730
425.0811, 1303.711
425.5633, 1305.975
426.0454, 1304.935
426.5275, 1305.229
427.0096, 1307.522
427.4917, 1310.584
427.9738, 1313.510
428.4560, 1316.572
428.9381, 1318.784
429.4202, 1319.561
429.9023, 1319.471
430.3844, 1320.746
430.8665, 1323.927
431.3487, 1326.912
431.8308, 1328.430
432.3129, 1328.381
432.7950, 1328.806
433.2771, 1329.621
433.7592, 1331.239
434.2414, 1334.954
434.7235, 1340.523
435.2056, 1344.782
435.6877, 1346.082
436.1698, 1345.919
436.6519, 1348.094
437.1341, 1352.438
437.6162, 1355.794
438.0983, 1353.590
438.5804, 1349.380
439.0625, 1350.127
439.5446, 1358.315
440.0268, 1367.004
440.5089, 1369.103
440.9910, 1367.164
441.4731, 1366.388
441.9552, 1370.499
442.4373, 1375.420
442.9195, 1378.269
443.4016, 1379.007
443.8837, 1380.344
444.3658, 1384.423
444.8479, 1388.958
445.3300, 1392.084
445.8122, 1392.059
446.2943, 1392.415
446.7764, 1393.566
447.2585, 1395.506
447.7406, 1398.238
448.2227, 1403.329
448.7049, 1407.639
449.1870, 1409.923
449.6691, 1409.597
450.1512, 1410.848
450.6333, 1414.813
451.1154, 1419.136
451.5976, 1421.401
452.0797, 1420.880
452.5618, 1420.723
453.0439, 1421.325
453.5260, 1422.679
454.0081, 1424.998
454.4903, 1428.444
454.9724, 1431.909
455.4545, 1434.591
455.9366, 1436.648
456.4187, 1439.605
456.9008, 1443.625
457.3830, 1447.705
457.8651, 1450.157
458.3472, 1451.549
458.8293, 1453.783
459.3114, 1458.597
459.7935, 1463.380
460.2757, 1463.302
460.7578, 1459.548
461.2399, 1458.162
461.7220, 1465.720
462.2041, 1475.855
462.6862, 1482.512
463.1684, 1484.477
463.6505, 1484.543
464.1326, 1482.060
464.6147, 1479.139
465.0968, 1478.492
465.5789, 1483.661
466.0611, 1488.500
466.5432, 1490.922
467.0253, 1491.124
467.5074, 1491.778
467.9895, 1492.996
468.4716, 1494.923
468.9538, 1497.700
469.4359, 1501.801
469.9180, 1505.529
470.4001, 1508.162
470.8822, 1510.931
471.3643, 1516.291
471.8465, 1525.896
472.3286, 1533.084
472.8107, 1535.336
473.2928, 1533.645
473.7749, 1534.160
474.2570, 1537.202
474.7392, 1540.704
475.2213, 1542.754
475.7034, 1543.707
476.1855, 1546.185
476.6676, 1550.701
477.1497, 1556.019
477.6319, 1560.642
478.1140, 1564.694
478.5961, 1568.493
479.0782, 1572.254
479.5603, 1575.797
480.0424, 1578.575
480.5246, 1580.740
481.0067, 1583.418
481.4888, 1587.694
481.9709, 1592.567
482.4530, 1597.229
482.9352, 1601.671
483.4173, 1605.480
483.8994, 1608.131
484.3815, 1610.115
484.8636, 1612.155
485.3457, 1614.719
485.8279, 1617.027
486.3100, 1618.900
486.7921, 1620.338
487.2742, 1621.449
487.7563, 1622.560
488.2384, 1623.082
488.7206, 1622.385
489.2027, 1619.228
489.6848, 1618.408
490.1669, 1620.621
490.6490, 1624.534
491.1311, 1628.263
491.6133, 1631.793
492.0954, 1635.015
492.5775, 1637.825
493.0596, 1640.298
493.5417, 1642.746
494.0238, 1645.143
494.5060, 1647.467
494.9881, 1649.245
495.4702, 1650.912
495.9523, 1653.842
496.4344, 1658.389
496.9165, 1663.210
497.3987, 1667.028
497.8808, 1670.166
498.3629, 1673.167
498.8450, 1675.737
499.3271, 1678.707
499.8092, 1683.705
500.2914, 1690.117
500.7735, 1694.130
501.2556, 1691.592
501.7377, 1688.339
502.2198, 1687.952
502.7019, 1692.004
503.1841, 1695.956
503.6662, 1699.485
504.1483, 1702.564
504.6304, 1705.083
505.1125, 1706.596
505.5946, 1708.210
506.0768, 1710.009
506.5589, 1712.025
507.0410, 1714.517
507.5231, 1717.549
508.0052, 1720.810
508.4873, 1724.112
508.9695, 1727.400
509.4516, 1731.340
509.9337, 1736.099
510.4158, 1740.753
510.8979, 1744.254
511.3800, 1746.738
511.8622, 1748.580
512.3443, 1749.490
512.8264, 1750.385
513.3085, 1752.617
513.7906, 1755.945
514.2728, 1759.490
514.7549, 1762.905
515.2370, 1766.253
515.7191, 1769.896
516.2012, 1773.943
516.6833, 1776.964
517.1655, 1777.102
517.6476, 1776.624
518.1297, 1777.472
518.6118, 1780.911
519.0939, 1784.645
519.5760, 1788.646
520.0582, 1792.682
520.5403, 1796.275
521.0224, 1798.648
521.5045, 1801.606
521.9866, 1805.828
522.4688, 1811.318
522.9509, 1816.266
523.4330, 1820.667
523.9151, 1824.556
524.3972, 1827.943
524.8793, 1830.796
525.3615, 1832.878
525.8436, 1833.755
526.3257, 1834.985
526.8078, 1839.797
527.2899, 1847.348
527.7720, 1853.567
528.2542, 1856.203
528.7363, 1857.068
529.2184, 1858.101
529.7005, 1859.376
530.1826, 1861.334
530.6647, 1864.754
531.1469, 1868.682
531.6290, 1872.385
532.1111, 1875.739
532.5932, 1878.990
533.0753, 1882.734
533.5574, 1886.257
534.0396, 1888.754
534.5217, 1889.049
535.0038, 1889.598
535.4859, 1890.024
535.9680, 1890.922
536.4501, 1894.522
536.9323, 1903.012
537.4144, 1910.468
537.8965, 1914.252
538.3786, 1914.231
538.8607, 1915.510
539.3428, 1918.215
539.8250, 1921.724
540.3071, 1925.519
540.7892, 1929.546
541.2713, 1934.077
541.7534, 1939.334
542.2355, 1944.471
542.7177, 1948.239
543.1998, 1950.905
543.6819, 1953.211
544.1640, 1955.242
544.6461, 1957.232
545.1282, 1959.115
545.6104, 1961.030
546.0925, 1963.810
546.5746, 1968.733
547.0567, 1974.076
547.5388, 1978.650
548.0209, 1981.950
548.5031, 1985.591
548.9852, 1990.378
549.4673, 1995.464
549.9494, 1999.961
550.4315, 2003.625
550.9136, 2007.021
551.3958, 2010.177
551.8779, 2013.091
552.3600, 2015.596
552.8421, 2017.468
553.3242, 2019.727
553.8063, 2023.015
554.2885, 2027.149
554.7706, 2030.546
555.2527, 2033.139
555.7348, 2035.753
556.2169, 2039.363
556.6990, 2043.545
557.1812, 2047.143
557.6633, 2049.817
558.1454, 2052.591
558.6275, 2056.931
559.1096, 2061.999
559.5917, 2066.407
560.0739, 2068.858
560.5560, 2071.163
561.0381, 2074.488
561.5202, 2078.496
562.0023, 2081.823
562.4844, 2082.542
562.9666, 2083.844
563.4487, 2087.615
563.9308, 2094.689
564.4129, 2099.883
564.8950, 2102.190
565.3771, 2103.675
565.8593, 2105.995
566.3414, 2109.255
566.8235, 2113.036
567.3056, 2117.661
567.7877, 2122.289
568.2698, 2124.813
568.7520, 2125.445
569.2341, 2127.317
569.7162, 2132.485
570.1983, 2139.113
570.6804, 2143.692
571.1625, 2146.522
571.6447, 2149.663
572.1268, 2156.075
572.6089, 2162.569
573.0910, 2165.163
573.5731, 2162.833
574.0552, 2161.642
574.5374, 2164.693
575.0195, 2170.016
575.5016, 2175.757
575.9837, 2183.500
576.4658, 2189.138
576.9479, 2191.021
577.4301, 2190.828
577.9122, 2191.657
578.3943, 2192.886
578.8764, 2196.437
579.3585, 2203.889
579.8406, 2214.292
580.3228, 2220.849
580.8049, 2223.173
581.2870, 2224.098
581.7691, 2224.411
582.2512, 2224.778
582.7333, 2228.668
583.2155, 2236.694
583.6976, 2244.611
584.1797, 2248.200
584.6617, 2249.208
585.1439, 2250.419
585.6260, 2252.276
586.1081, 2255.176
586.5902, 2260.480
587.0723, 2266.917
587.5544, 2271.924
588.0366, 2272.825
588.5187, 2274.228
589.0008, 2277.949
589.4829, 2283.851
589.9650, 2288.905
590.4471, 2292.437
590.9293, 2295.883
591.4114, 2299.969
591.8935, 2304.871
592.3756, 2308.921
592.8577, 2311.846
593.3398, 2314.638
593.8220, 2318.888
594.3041, 2324.279
594.7862, 2328.016
595.2683, 2329.195
595.7504, 2329.728
596.2325, 2332.429
596.7147, 2336.565
597.1968, 2340.132
597.6789, 2341.574
598.1610, 2342.782
598.6431, 2345.236
599.1252, 2348.706
599.6074, 2352.060
600.0895, 2354.432
600.5716, 2357.007
601.0537, 2360.569
601.5358, 2365.500
602.0179, 2369.590
602.5001, 2372.173
602.9822, 2374.555
603.4643, 2377.826
603.9464, 2382.424
604.4285, 2386.045
604.9106, 2388.001
605.3928, 2390.013
605.8749, 2395.332
606.3570, 2403.701
606.8391, 2411.429
607.3212, 2417.121
607.8033, 2421.901
608.2855, 2427.910
608.7676, 2434.609
609.2497, 2440.289
609.7318, 2443.119
610.2139, 2445.088
610.6960, 2447.740
611.1782, 2451.110
611.6603, 2454.114
612.1424, 2454.938
612.6245, 2456.358
613.1066, 2460.433
613.5887, 2469.571
614.0709, 2476.180
614.5530, 2478.990
615.0351, 2480.553
615.5172, 2483.693
615.9993, 2488.913
616.4814, 2493.520
616.9636, 2496.783
617.4457, 2499.760
617.9278, 2505.519
618.4099, 2513.604
618.8920, 2519.403
619.3741, 2519.107
619.8563, 2516.829
620.3384, 2518.685
620.8205, 2524.080
621.3026, 2530.132
621.7847, 2536.840
622.2668, 2542.376
622.7490, 2544.279
623.2311, 2541.914
623.7132, 2541.595
624.1953, 2547.278
624.6774, 2554.103
625.1595, 2558.664
625.6417, 2559.564
626.1238, 2560.958
626.6059, 2562.857
627.0880, 2565.321
627.5701, 2568.450
628.0522, 2572.286
628.5344, 2576.585
629.0165, 2581.317
629.4986, 2586.453
629.9807, 2592.219
630.4628, 2598.463
630.9449, 2604.275
631.4271, 2608.859
631.9092, 2613.008
632.3913, 2617.603
632.8734, 2622.551
633.3555, 2627.272
633.8376, 2631.271
634.3198, 2635.098
634.8019, 2638.980
635.2840, 2642.824
635.7661, 2647.359
636.2482, 2653.256
636.7303, 2659.412
637.2125, 2665.133
637.6946, 2670.440
638.1767, 2675.333
638.6588, 2679.679
639.1409, 2683.904
639.6230, 2688.948
640.1052, 2694.721
640.5873, 2698.955
641.0694, 2700.424
641.5515, 2701.198
642.0336, 2704.566
642.5157, 2709.802
642.9979, 2714.861
643.4800, 2718.111
643.9621, 2721.272
644.4442, 2725.730
644.9263, 2731.255
645.4084, 2736.328
645.8906, 2741.030
646.3727, 2744.634
646.8548, 2745.605
647.3369, 2742.920
647.8190, 2745.988
648.3011, 2758.167
648.7833, 2771.040
649.2654, 2777.553
649.7475, 2777.100
650.2296, 2778.678
650.7117, 2782.873
651.1938, 2788.797
651.6760, 2796.191
652.1581, 2804.470
652.6402, 2811.435
653.1223, 2815.928
653.6044, 2820.147
654.0865, 2826.708
654.5687, 2834.427
655.0508, 2841.061
655.5329, 2844.615
656.0150, 2848.215
656.4971, 2852.636
656.9792, 2857.985
657.4614, 2864.762
657.9435, 2874.622
658.4256, 2883.512
658.9077, 2889.650
659.3898, 2893.196
659.8719, 2898.822
660.3541, 2907.143
660.8362, 2914.599
661.3183, 2918.271
661.8004, 2918.952
662.2825, 2919.799
662.7646, 2920.980
663.2468, 2922.533
663.7289, 2924.305
664.2110, 2926.564
664.6931, 2929.579
665.1752, 2933.245
665.6573, 2938.227
666.1395, 2945.836
666.6216, 2954.609
667.1037, 2962.734
667.5858, 2970.551
668.0679, 2976.851
668.5500, 2980.592
669.0322, 2983.147
669.5143, 2987.699
669.9964, 2994.820
670.4785, 3001.028
670.9606, 3004.604
671.4427, 3006.997
671.9249, 3012.785
672.4070, 3021.534
672.8891, 3029.686
673.3712, 3033.828
673.8533, 3036.951
674.3354, 3042.646
674.8176, 3050.808
675.2997, 3059.094
675.7818, 3066.961
676.2639, 3074.028
676.7460, 3079.913
677.2281, 3084.113
677.7103, 3088.498
678.1924, 3092.875
678.6745, 3097.718
679.1566, 3103.500
679.6387, 3110.427
680.1208, 3117.456
680.6030, 3124.695
681.0851, 3131.755
681.5672, 3138.441
682.0493, 3144.667
682.5314, 3150.415
683.0135, 3155.576
683.4957, 3160.278
683.9778, 3164.327
684.4599, 3168.014
684.9420, 3171.740
685.4241, 3175.543
685.9063, 3179.640
686.3884, 3184.223
686.8705, 3189.226
687.3526, 3194.411
687.8347, 3199.586
688.3168, 3205.400
688.7990, 3212.274
689.2811, 3220.044
689.7632, 3226.483
690.2453, 3231.248
690.7274, 3237.030
691.2095, 3246.651
691.6917, 3258.315
692.1738, 3266.842
692.6559, 3272.109
693.1380, 3275.722
693.6201, 3276.729
694.1022, 3277.805
694.5844, 3281.811
695.0665, 3289.398
695.5486, 3297.558
696.0307, 3307.362
696.5128, 3315.878
696.9949, 3320.592
697.4771, 3318.366
697.9592, 3319.180
698.4413, 3324.460
698.9234, 3331.027
699.4055, 3334.627
699.8876, 3335.231
700.3698, 3337.395
700.8519, 3342.225
701.3340, 3348.135
701.8161, 3352.816
702.2982, 3356.826
702.7803, 3361.489
703.2625, 3367.392
703.7446, 3374.075
704.2267, 3381.090
704.7088, 3388.615
705.1909, 3397.026
705.6730, 3407.681
706.1552, 3417.607
706.6373, 3426.066
707.1194, 3433.162
707.6015, 3439.091
708.0836, 3442.808
708.5657, 3448.248
709.0479, 3457.576
709.5300, 3469.822
710.0121, 3481.617
710.4942, 3492.916
710.9763, 3502.366
711.4584, 3508.221
711.9406, 3512.279
712.4227, 3516.864
712.9048, 3522.115
713.3869, 3526.794
713.8690, 3529.823
714.3511, 3532.505
714.8333, 3535.723
715.3154, 3539.667
715.7975, 3544.070
716.2796, 3548.985
716.7617, 3554.486
717.2438, 3560.906
717.7260, 3568.350
718.2081, 3576.009
718.6902, 3584.199
719.1723, 3591.012
719.6544, 3591.949
720.1365, 3589.764
720.6187, 3591.757
721.1008, 3600.545
721.5829, 3610.659
722.0650, 3618.264
722.5471, 3624.584
723.0292, 3631.445
723.5114, 3640.280
723.9935, 3648.195
724.4756, 3653.565
724.9577, 3658.126
725.4398, 3665.573
725.9219, 3677.762
726.4041, 3686.443
726.8862, 3688.435
727.3683, 3687.331
727.8504, 3692.809
728.3325, 3703.756
728.8146, 3712.622
729.2968, 3714.253
729.7789, 3713.480
730.2610, 3715.097
730.7431, 3718.833
731.2252, 3723.783
731.7073, 3730.908
732.1895, 3737.871
732.6716, 3744.015
733.1537, 3749.224
733.6358, 3752.691
734.1179, 3752.969
734.6000, 3754.168
735.0822, 3758.540
735.5643, 3765.653
736.0464, 3770.167
736.5285, 3771.925
737.0106, 3774.716
737.4927, 3782.288
737.9749, 3792.317
738.4570, 3800.987
738.9391, 3808.048
739.4212, 3814.598
739.9033, 3821.763
740.3854, 3828.266
740.8676, 3832.773
741.3497, 3834.264
741.8318, 3837.290
742.3139, 3842.952
742.7960, 3849.215
743.2781, 3854.583
743.7603, 3858.758
744.2424, 3864.575
744.7245, 3872.590
745.2066, 3880.445
745.6887, 3884.893
746.1708, 3887.435
746.6530, 3892.003
747.1351, 3899.503
747.6172, 3907.847
748.0993, 3915.551
748.5814, 3923.286
749.0635, 3931.728
749.5457, 3941.853
750.0278, 3951.511
750.5099, 3959.638
750.9920, 3967.426
751.4741, 3976.605
751.9562, 3987.906
752.4384, 3996.448
752.9205, 4000.716
753.4026, 4003.382
753.8847, 4007.937
754.3668, 4014.380
754.8489, 4023.294
755.3311, 4036.322
755.8132, 4049.005
756.2953, 4056.716
756.7774, 4061.387
757.2595, 4066.243
757.7416, 4072.683
758.2238, 4079.117
758.7059, 4085.327
759.1880, 4091.464
759.6701, 4097.995
760.1522, 4105.506
760.6343, 4111.795
761.1165, 4115.794
761.5986, 4118.949
762.0807, 4125.060
762.5628, 4133.739
763.0449, 4142.635
763.5270, 4151.753
764.0092, 4159.587
764.4913, 4163.614
764.9734, 4165.053
765.4555, 4167.814
765.9376, 4172.948
766.4197, 4179.901
766.9019, 4189.526
767.3840, 4200.958
767.8661, 4210.206
768.3482, 4216.351
768.8303, 4222.914
769.3124, 4231.896
769.7946, 4242.047
770.2767, 4248.877
770.7588, 4252.671
771.2409, 4256.150
771.7230, 4261.180
772.2051, 4266.563
772.6873, 4270.089
773.1694, 4272.355
773.6515, 4277.542
774.1336, 4290.409
774.6157, 4303.452
775.0978, 4313.926
775.5800, 4321.868
776.0621, 4326.907
776.5442, 4327.687
777.0263, 4329.500
777.5084, 4335.650
777.9905, 4345.253
778.4727, 4354.161
778.9548, 4362.398
779.4369, 4370.839
779.9190, 4381.091
780.4011, 4391.114
780.8832, 4398.456
781.3654, 4402.925
781.8475, 4408.214
782.3296, 4416.753
782.8117, 4425.223
783.2938, 4431.922
783.7759, 4436.662
784.2581, 4441.997
784.7402, 4447.968
785.2223, 4454.514
785.7044, 4462.467
786.1865, 4471.126
786.6686, 4476.987
787.1508, 4480.083
787.6329, 4484.367
788.1150, 4494.624
788.5971, 4506.483
789.0792, 4514.958
789.5613, 4519.090
790.0435, 4524.912
790.5256, 4535.656
791.0077, 4546.811
791.4898, 4555.999
791.9719, 4562.721
792.4540, 4569.829
792.9362, 4577.150
793.4183, 4584.720
793.9004, 4592.837
794.3825, 4601.104
794.8646, 4607.916
795.3467, 4613.207
795.8289, 4618.741
796.3110, 4627.318
796.7931, 4635.746
797.2752, 4640.601
797.7573, 4640.284
798.2394, 4642.376
798.7216, 4648.288
799.2037, 4656.293
799.6858, 4666.198
800.1679, 4678.823
800.6500, 4686.515
801.1321, 4688.531
801.6143, 4691.090
802.0964, 4701.662
802.5785, 4716.250
803.0606, 4726.904
803.5427, 4732.460
804.0248, 4737.866
804.5070, 4745.052
804.9891, 4753.944
805.4712, 4765.215
805.9533, 4781.127
806.4354, 4791.663
806.9175, 4793.144
807.3997, 4794.462
807.8818, 4803.053
808.3639, 4818.630
808.8460, 4832.168
809.3281, 4843.408
809.8102, 4852.032
810.2924, 4855.173
810.7745, 4856.731
811.2566, 4862.725
811.7387, 4874.422
812.2208, 4885.376
812.7029, 4891.588
813.1851, 4897.208
813.6672, 4905.300
814.1493, 4916.628
814.6314, 4927.539
815.1135, 4938.147
815.5956, 4947.820
816.0778, 4955.634
816.5599, 4961.890
817.0420, 4967.150
817.5241, 4971.375
818.0062, 4977.351
818.4883, 4988.513
818.9705, 5001.710
819.4526, 5014.164
819.9347, 5025.521
820.4168, 5035.377
820.8989, 5042.912
821.3810, 5049.518
821.8632, 5055.915
822.3453, 5062.155
822.8274, 5067.963
823.3095, 5073.236
823.7916, 5078.653
824.2737, 5085.500
824.7559, 5092.684
825.2380, 5096.812
825.7201, 5097.874
826.2022, 5101.093
826.6843, 5111.684
827.1664, 5123.909
827.6486, 5133.689
828.1307, 5140.237
828.6128, 5148.014
829.0949, 5157.522
829.5770, 5167.425
830.0591, 5177.655
830.5413, 5187.906
831.0234, 5194.942
831.5055, 5198.769
831.9876, 5202.648
832.4697, 5208.457
832.9518, 5215.851
833.4340, 5224.758
833.9161, 5235.104
834.3982, 5246.320
834.8803, 5260.345
835.3624, 5273.058
835.8445, 5282.464
836.3267, 5288.685
836.8088, 5295.021
837.2909, 5301.376
837.7730, 5308.298
838.2551, 5316.063
838.7372, 5324.670
839.2194, 5334.169
839.7015, 5344.526
840.1836, 5355.466
840.6657, 5368.612
841.1478, 5380.681
841.6299, 5388.946
842.1121, 5393.739
842.5942, 5398.732
843.0763, 5404.097
843.5584, 5409.637
844.0405, 5414.601
844.5226, 5419.844
845.0048, 5430.228
845.4869, 5445.288
845.9690, 5458.446
846.4511, 5465.109
846.9332, 5469.152
847.4153, 5473.947
847.8975, 5479.533
848.3796, 5485.963
848.8617, 5494.118
849.3438, 5502.294
849.8259, 5509.264
850.3080, 5516.143
850.7902, 5526.095
851.2723, 5539.565
851.7544, 5553.417
852.2365, 5567.487
852.7186, 5580.353
853.2007, 5587.925
853.6829, 5592.125
854.1650, 5598.253
854.6471, 5609.102
855.1292, 5621.396
855.6113, 5634.148
856.0934, 5647.034
856.5756, 5659.909
857.0577, 5674.103
857.5398, 5685.313
858.0219, 5692.530
858.5040, 5697.654
858.9861, 5702.805
859.4683, 5708.267
859.9504, 5716.023
860.4325, 5727.143
860.9146, 5738.312
861.3967, 5745.346
861.8788, 5750.979
862.3610, 5758.760
862.8431, 5770.815
863.3252, 5782.767
863.8073, 5795.637
864.2894, 5806.878
864.7715, 5812.736
865.2537, 5812.856
865.7358, 5816.814
866.2179, 5825.800
866.7000, 5836.351
867.1821, 5846.499
867.6642, 5855.500
868.1464, 5860.422
868.6285, 5859.688
869.1106, 5864.319
869.5927, 5884.644
870.0748, 5906.875
870.5569, 5921.477
871.0391, 5926.972
871.5212, 5933.334
872.0033, 5940.043
872.4854, 5948.810
872.9675, 5962.435
873.4496, 5978.448
873.9318, 5990.040
874.4139, 5997.274
874.8960, 6004.769
875.3781, 6016.052
875.8602, 6027.716
876.3423, 6037.552
876.8245, 6045.432
877.3066, 6053.870
877.7887, 6063.573
878.2708, 6072.861
878.7529, 6081.172
879.2350, 6088.859
879.7172, 6096.796
880.1993, 6105.039
880.6814, 6113.675
881.1635, 6123.710
881.6456, 6133.375
882.1277, 6139.694
882.6099, 6144.394
883.0920, 6152.703
883.5741, 6167.952
884.0562, 6183.319
884.5383, 6197.772
885.0204, 6211.560
885.5026, 6225.940
885.9847, 6240.600
886.4668, 6252.239
886.9489, 6258.546
887.4310, 6264.450
887.9131, 6275.520
888.3953, 6289.688
888.8774, 6304.100
889.3595, 6320.962
889.8416, 6333.488
890.3237, 6338.393
890.8058, 6340.938
891.2880, 6346.384
891.7701, 6354.877
892.2522, 6365.781
892.7343, 6379.773
893.2164, 6391.969
893.6985, 6393.549
894.1807, 6391.591
894.6628, 6397.599
895.1449, 6414.544
895.6270, 6429.950
896.1091, 6438.978
896.5912, 6445.404
897.0734, 6451.164
897.5555, 6456.032
898.0376, 6463.372
898.5197, 6473.509
899.0018, 6484.403
899.4839, 6494.454
899.9661, 6504.373
900.4482, 6515.907
900.9303, 6528.835
901.4124, 6540.786
901.8945, 6547.762
902.3766, 6556.354
902.8588, 6572.010
903.3409, 6592.356
903.8230, 6606.683
904.3051, 6613.070
904.7872, 6621.191
905.2693, 6635.432
905.7515, 6651.769
906.2336, 6660.788
906.7157, 6665.013
907.1978, 6671.941
907.6799, 6686.852
908.1620, 6702.293
908.6442, 6717.234
909.1263, 6729.880
909.6084, 6736.887
910.0905, 6734.220
910.5726, 6737.515
911.0547, 6749.381
911.5369, 6765.042
912.0190, 6779.987
912.5011, 6793.594
912.9832, 6803.147
913.4653, 6807.494
913.9474, 6812.555
914.4296, 6821.796
914.9117, 6833.510
915.3938, 6846.733
915.8759, 6862.007
916.3580, 6875.216
916.8401, 6885.694
917.3223, 6895.462
917.8044, 6906.643
918.2865, 6918.197
918.7686, 6926.542
919.2507, 6931.837
919.7328, 6935.615
920.2150, 6937.673
920.6971, 6939.720
921.1792, 6941.470
921.6613, 6943.872
922.1434, 6952.303
922.6255, 6970.212
923.1077, 6986.327
923.5898, 6996.823
924.0719, 7004.185
924.5540, 7013.960
925.0361, 7025.860
925.5182, 7038.769
926.0004, 7053.357
926.4825, 7066.914
926.9646, 7076.817
927.4467, 7084.929
927.9288, 7093.791
928.4109, 7101.881
928.8931, 7115.208
929.3752, 7136.860
929.8573, 7157.780
930.3394, 7165.775
930.8215, 7164.427
931.3036, 7167.182
931.7858, 7175.972
932.2679, 7184.975
932.7500, 7188.106
933.2321, 7191.655
933.7142, 7202.413
934.1964, 7222.619
934.6785, 7234.261
935.1606, 7233.239
935.6427, 7233.807
936.1248, 7244.290
936.6069, 7261.863
937.0891, 7277.309
937.5712, 7290.837
938.0533, 7302.606
938.5354, 7309.983
939.0175, 7318.200
939.4996, 7330.735
939.9818, 7346.227
940.4639, 7360.181
940.9460, 7370.219
941.4281, 7384.140
941.9102, 7404.589
942.3923, 7426.559
942.8745, 7441.726
943.3566, 7451.811
943.8387, 7460.967
944.3208, 7469.475
944.8029, 7479.681
945.2850, 7494.913
945.7672, 7511.440
946.2493, 7525.974
946.7314, 7538.439
947.2135, 7549.007
947.6956, 7557.129
948.1777, 7565.452
948.6599, 7575.058
949.1420, 7586.461
949.6241, 7602.334
950.1062, 7621.933
950.5883, 7639.377
951.0704, 7650.459
951.5526, 7659.539
952.0347, 7666.952
952.5168, 7673.930
952.9989, 7685.625
953.4810, 7703.363
953.9631, 7719.417
954.4453, 7731.371
954.9274, 7740.900
955.4095, 7751.056
955.8916, 7760.885
956.3737, 7768.067
956.8558, 7768.642
957.3380, 7772.805
957.8201, 7787.395
958.3022, 7805.165
958.7843, 7818.917
959.2664, 7827.361
959.7485, 7840.981
960.2307, 7860.947
960.7128, 7879.430
961.1949, 7885.116
961.6770, 7887.197
962.1591, 7900.287
962.6412, 7924.703
963.1234, 7946.791
963.6055, 7959.039
964.0876, 7971.279
964.5697, 7988.100
965.0518, 8007.480
965.5339, 8020.934
966.0161, 8028.419
966.4982, 8033.849
966.9803, 8035.813
967.4624, 8041.002
967.9445, 8062.183
968.4266, 8090.405
968.9088, 8110.480
969.3909, 8111.945
969.8730, 8114.019
970.3551, 8117.085
970.8372, 8122.619
971.3193, 8134.167
971.8015, 8150.727
972.2836, 8162.087
972.7657, 8167.370
973.2478, 8172.321
973.7299, 8181.371
974.2120, 8192.248
974.6942, 8202.729
975.1763, 8212.717
975.6584, 8225.673
976.1405, 8243.387
976.6226, 8260.482
977.1047, 8274.462
977.5869, 8290.619
978.0690, 8302.076
978.5511, 8319.090
979.0332, 8334.309
979.5153, 8346.674
979.9974, 8356.384
980.4796, 8359.122
980.9617, 8361.246
981.4438, 8372.418
981.9259, 8398.064
982.4080, 8416.493
982.8901, 8425.853
983.3723, 8431.873
983.8544, 8438.550
984.3365, 8446.712
984.8186, 8458.657
985.3007, 8474.562
985.7828, 8490.229
986.2650, 8502.448
986.7471, 8515.865
987.2292, 8533.960
987.7113, 8554.976
988.1934, 8568.176
988.6755, 8573.018
989.1577, 8581.346
989.6398, 8599.043
990.1219, 8619.578
990.6040, 8635.291
991.0861, 8648.134
991.5682, 8661.462
992.0504, 8676.043
992.5325, 8691.696
993.0146, 8711.204
993.4967, 8728.127
993.9788, 8734.131
994.4609, 8731.119
994.9431, 8736.166
995.4252, 8750.229
995.9073, 8766.187
996.3894, 8781.707
996.8715, 8794.936
997.3536, 8803.000
997.8358, 8806.487
998.3179, 8813.980
998.8000, 8826.504
999.2821, 8841.213
999.7642, 8858.356
1000.246, 8875.993
1000.728, 8890.081
1001.211, 8901.202
1001.693, 8909.755
1002.175, 8913.768
1002.657, 8920.268
1003.139, 8933.892
1003.621, 8950.375
1004.103, 8965.693
1004.585, 8979.574
1005.068, 8993.283
1005.550, 9006.700
1006.032, 9021.360
1006.514, 9039.433
1006.996, 9058.718
1007.478, 9077.450
1007.960, 9095.221
1008.442, 9110.832
1008.924, 9122.233
1009.407, 9133.739
1009.889, 9146.529
1010.371, 9159.658
1010.853, 9170.806
1011.335, 9180.571
1011.817, 9192.580
1012.299, 9209.225
1012.781, 9222.631
1013.263, 9223.048
1013.746, 9220.298
1014.228, 9224.287
1014.710, 9237.121
1015.192, 9250.125
1015.674, 9263.146
1016.156, 9277.235
1016.638, 9293.338
1017.120, 9310.871
1017.603, 9328.121
1018.085, 9345.562
1018.567, 9364.601
1019.049, 9388.665
1019.531, 9410.438
1020.013, 9426.568
1020.495, 9439.689
1020.977, 9453.728
1021.459, 9468.584
1021.942, 9481.567
1022.424, 9492.253
1022.906, 9501.513
1023.388, 9508.460
1023.870, 9515.866
1024.352, 9527.307
1024.834, 9543.660
1025.316, 9558.521
1025.799, 9570.694
1026.281, 9583.569
1026.763, 9598.584
1027.245, 9615.446
1027.727, 9636.609
1028.209, 9659.793
1028.691, 9676.746
1029.173, 9679.811
1029.656, 9683.106
1030.138, 9691.721
1030.620, 9704.606
1031.102, 9721.089
1031.584, 9742.114
1032.066, 9760.895
1032.548, 9777.189
1033.030, 9791.685
1033.512, 9801.286
1033.995, 9811.554
1034.477, 9831.972
1034.959, 9860.395
1035.441, 9882.049
1035.923, 9885.899
1036.405, 9894.857
1036.887, 9916.346
1037.369, 9942.032
1037.851, 9955.495
1038.334, 9959.103
1038.816, 9962.074
1039.298, 9966.031
1039.780, 9971.973
1040.262, 9981.087
1040.744, 9992.314
1041.226, 10005.46
1041.708, 10020.89
1042.191, 10032.78
1042.673, 10040.48
1043.155, 10051.94
1043.637, 10074.99
1044.119, 10101.44
1044.601, 10119.59
1045.083, 10132.49
1045.565, 10146.46
1046.047, 10167.23
1046.530, 10183.03
1047.012, 10189.84
1047.494, 10195.78
1047.976, 10211.29
1048.458, 10234.25
1048.940, 10253.17
1049.422, 10267.29
1049.904, 10280.96
1050.386, 10296.70
1050.869, 10313.14
1051.351, 10328.17
1051.833, 10343.00
1052.315, 10364.50
1052.797, 10394.17
1053.279, 10418.27
1053.761, 10432.00
1054.243, 10442.72
1054.726, 10459.62
1055.208, 10479.63
1055.690, 10498.47
1056.172, 10515.16
1056.654, 10531.09
1057.136, 10546.00
1057.618, 10561.30
1058.100, 10579.64
1058.583, 10598.76
1059.065, 10606.94
1059.547, 10606.84
1060.029, 10610.67
1060.511, 10628.14
1060.993, 10646.79
1061.475, 10661.88
1061.957, 10674.93
1062.439, 10687.31
1062.922, 10698.56
1063.404, 10714.41
1063.886, 10735.72
1064.368, 10757.20
1064.850, 10774.94
1065.332, 10790.14
1065.814, 10802.88
1066.296, 10813.41
1066.778, 10826.23
1067.261, 10843.66
1067.743, 10858.21
1068.225, 10866.32
1068.707, 10873.11
1069.189, 10888.87
1069.671, 10910.44
1070.153, 10930.52
1070.635, 10946.76
1071.118, 10962.81
1071.600, 10983.15
1072.082, 11000.20
1072.564, 11008.08
1073.046, 11007.97
1073.528, 11014.08
1074.010, 11026.22
1074.492, 11040.52
1074.974, 11056.84
1075.457, 11072.48
1075.939, 11083.07
1076.421, 11092.40
1076.903, 11107.55
1077.385, 11131.31
1077.867, 11151.99
1078.349, 11168.39
1078.831, 11183.71
1079.313, 11200.09
1079.796, 11217.48
1080.278, 11237.03
1080.760, 11258.10
1081.242, 11276.06
1081.724, 11286.58
1082.206, 11297.34
1082.688, 11309.41
1083.170, 11322.74
1083.652, 11337.58
1084.135, 11353.71
1084.617, 11369.97
1085.099, 11386.46
1085.581, 11401.46
1086.063, 11412.71
1086.545, 11423.31
1087.027, 11434.50
1087.509, 11446.66
1087.992, 11466.14
1088.474, 11493.07
1088.956, 11515.71
1089.438, 11527.50
1089.920, 11536.23
1090.402, 11547.47
1090.884, 11561.56
1091.366, 11579.53
1091.849, 11604.03
1092.331, 11625.09
1092.813, 11641.54
1093.295, 11658.52
1093.777, 11681.09
1094.259, 11706.02
1094.741, 11728.66
1095.223, 11748.64
1095.705, 11765.23
1096.188, 11772.38
1096.670, 11783.25
1097.152, 11799.56
1097.634, 11820.32
1098.116, 11846.71
1098.598, 11877.06
1099.080, 11902.69
1099.562, 11922.96
1100.044, 11942.32
1100.527, 11968.59
1101.009, 11989.58
1101.491, 11995.75
1101.973, 11992.49
1102.455, 11995.30
1102.937, 12004.38
1103.419, 12015.62
1103.901, 12028.24
1104.384, 12042.07
1104.866, 12055.39
1105.348, 12070.66
1105.830, 12092.90
1106.312, 12124.19
1106.794, 12142.06
1107.276, 12141.97
1107.758, 12146.70
1108.240, 12169.18
1108.723, 12199.24
1109.205, 12223.13
1109.687, 12242.39
1110.169, 12259.88
1110.651, 12272.23
1111.133, 12291.54
1111.615, 12322.52
1112.097, 12353.31
1112.579, 12373.82
1113.062, 12386.79
1113.544, 12401.10
1114.026, 12416.82
1114.508, 12433.32
1114.990, 12450.80
1115.472, 12468.64
1115.954, 12487.96
1116.436, 12506.31
1116.919, 12518.85
1117.401, 12526.49
1117.883, 12539.67
1118.365, 12559.44
1118.847, 12579.87
1119.329, 12595.83
1119.811, 12612.00
1120.293, 12633.28
1120.776, 12648.84
1121.258, 12665.46
1121.740, 12684.79
1122.222, 12698.21
1122.704, 12718.11
1123.186, 12738.09
1123.668, 12751.47
1124.150, 12761.69
1124.632, 12772.33
1125.115, 12783.77
1125.597, 12793.14
1126.079, 12797.75
1126.561, 12809.99
1127.043, 12837.96
1127.525, 12871.14
1128.007, 12894.15
1128.489, 12909.69
1128.971, 12921.59
1129.454, 12929.33
1129.936, 12938.27
1130.418, 12949.21
1130.900, 12961.52
1131.382, 12975.23
1131.864, 12990.05
1132.346, 13003.73
1132.828, 13017.68
1133.311, 13036.68
1133.793, 13066.53
1134.275, 13096.44
1134.757, 13125.38
1135.239, 13151.69
1135.721, 13173.10
1136.203, 13189.69
1136.685, 13203.21
1137.167, 13214.42
1137.650, 13231.38
1138.132, 13268.63
1138.614, 13302.05
1139.096, 13316.91
1139.578, 13322.02
1140.060, 13329.65
1140.542, 13340.05
1141.024, 13354.15
1141.506, 13372.50
1141.989, 13390.74
1142.471, 13406.06
1142.953, 13419.96
1143.435, 13432.39
1143.917, 13444.57
1144.399, 13461.75
1144.881, 13484.46
1145.363, 13508.81
1145.846, 13534.15
1146.328, 13557.54
1146.810, 13570.03
1147.292, 13581.65
1147.774, 13605.58
1148.256, 13644.34
1148.738, 13673.71
1149.220, 13691.58
1149.703, 13705.53
1150.185, 13717.47
1150.667, 13728.08
1151.149, 13734.53
1151.631, 13742.04
1152.113, 13760.56
1152.595, 13797.43
1153.077, 13826.52
1153.559, 13845.03
1154.042, 13858.82
1154.524, 13868.53
1155.006, 13877.81
1155.488, 13898.74
1155.970, 13925.56
1156.452, 13942.86
1156.934, 13935.03
1157.416, 13938.43
1157.898, 13963.17
1158.381, 13990.08
1158.863, 14000.90
1159.345, 14002.20
1159.827, 14023.13
1160.309, 14059.03
1160.791, 14090.80
1161.273, 14105.21
1161.755, 14119.81
1162.238, 14138.45
1162.720, 14159.35
1163.202, 14180.26
1163.684, 14201.52
1164.166, 14229.38
1164.648, 14262.76
1165.130, 14288.86
1165.612, 14292.90
1166.094, 14296.61
1166.577, 14309.08
1167.059, 14326.99
1167.541, 14346.30
1168.023, 14367.02
1168.505, 14385.58
1168.987, 14401.83
1169.469, 14416.63
1169.951, 14424.54
1170.433, 14437.36
1170.916, 14468.43
1171.398, 14508.47
1171.880, 14534.08
1172.362, 14545.52
1172.844, 14554.74
1173.326, 14562.72
1173.808, 14576.54
1174.290, 14606.76
1174.773, 14640.81
1175.255, 14667.85
1175.737, 14689.53
1176.219, 14716.91
1176.701, 14750.94
1177.183, 14774.61
1177.665, 14781.79
1178.147, 14784.05
1178.630, 14788.96
1179.112, 14797.09
1179.594, 14808.88
1180.076, 14824.33
1180.558, 14847.17
1181.040, 14878.47
1181.522, 14909.90
1182.004, 14939.20
1182.486, 14965.44
1182.969, 14984.07
1183.451, 15000.78
1183.933, 15023.59
1184.415, 15054.48
1184.897, 15080.91
1185.379, 15102.61
1185.861, 15121.34
1186.343, 15134.18
1186.825, 15149.24
1187.308, 15181.87
1187.790, 15221.11
1188.272, 15249.12
1188.754, 15261.92
1189.236, 15266.12
1189.718, 15259.02
1190.200, 15257.66
1190.682, 15275.16
1191.165, 15303.11
1191.647, 15336.58
1192.129, 15370.97
1192.611, 15396.93
1193.093, 15409.86
1193.575, 15420.17
1194.057, 15427.20
1194.539, 15435.31
1195.021, 15444.97
1195.504, 15459.81
1195.986, 15488.68
1196.468, 15526.80
1196.950, 15559.92
1197.432, 15585.42
1197.914, 15606.02
1198.396, 15621.18
1198.878, 15633.46
1199.360, 15640.16
1199.843, 15648.67
1200.325, 15674.61
1200.807, 15713.04
1201.289, 15741.02
1201.771, 15747.88
1202.253, 15760.81
1202.735, 15784.43
1203.217, 15810.47
1203.700, 15826.19
1204.182, 15840.40
1204.664, 15869.07
1205.146, 15910.03
1205.628, 15943.72
1206.110, 15960.49
1206.592, 15985.11
1207.074, 16023.71
1207.557, 16064.09
1208.039, 16088.13
1208.521, 16105.52
1209.003, 16132.98
1209.485, 16170.77
1209.967, 16198.57
1210.449, 16208.27
1210.931, 16223.55
1211.413, 16252.03
1211.896, 16281.70
1212.378, 16292.66
1212.860, 16297.21
1213.342, 16317.30
1213.824, 16355.59
1214.306, 16375.09
1214.788, 16363.53
1215.270, 16359.52
1215.752, 16374.98
1216.235, 16398.28
1216.717, 16416.50
1217.199, 16430.23
1217.681, 16438.28
1218.163, 16440.04
1218.645, 16449.41
1219.127, 16468.57
1219.609, 16491.58
1220.092, 16518.26
1220.574, 16544.51
1221.056, 16562.49
1221.538, 16576.97
1222.020, 16594.74
1222.502, 16616.86
1222.984, 16639.63
1223.466, 16661.64
1223.948, 16687.29
1224.431, 16719.82
1224.913, 16752.85
1225.395, 16776.88
1225.877, 16795.46
1226.359, 16812.81
1226.841, 16828.40
1227.323, 16852.21
1227.805, 16888.04
1228.287, 16916.07
1228.770, 16925.30
1229.252, 16927.77
1229.734, 16935.73
1230.216, 16949.23
1230.698, 16970.14
1231.180, 17001.60
1231.662, 17024.71
1232.144, 17038.67
1232.627, 17049.94
1233.109, 17060.18
1233.591, 17071.79
1234.073, 17089.88
1234.555, 17110.46
1235.037, 17128.33
1235.519, 17143.07
1236.001, 17154.85
1236.484, 17162.39
1236.966, 17180.85
1237.448, 17226.73
1237.930, 17272.83
1238.412, 17283.20
1238.894, 17281.43
1239.376, 17300.88
1239.858, 17345.52
1240.340, 17386.86
1240.823, 17423.83
1241.305, 17459.80
1241.787, 17498.44
1242.269, 17532.34
1242.751, 17548.58
1243.233, 17559.38
1243.715, 17581.28
1244.197, 17616.33
1244.679, 17641.05
1245.162, 17655.87
1245.644, 17669.97
1246.126, 17688.02
1246.608, 17708.32
1247.090, 17733.18
1247.572, 17758.41
1248.054, 17779.02
1248.536, 17795.51
1249.019, 17811.70
1249.501, 17828.03
1249.983, 17846.87
1250.465, 17868.80
1250.947, 17894.44
1251.429, 17929.19
1251.911, 17963.47
1252.393, 17986.70
1252.875, 17999.31
1253.358, 18015.83
1253.840, 18036.08
1254.322, 18061.43
1254.804, 18101.50
1255.286, 18134.09
1255.768, 18143.51
1256.250, 18150.81
1256.732, 18173.47
1257.214, 18209.65
1257.697, 18253.03
1258.179, 18300.78
1258.661, 18338.46
1259.143, 18353.84
1259.625, 18367.32
1260.107, 18379.61
1260.589, 18397.13
1261.071, 18428.37
1261.554, 18468.57
1262.036, 18506.67
1262.518, 18540.11
1263.000, 18562.25
1263.482, 18553.03
1263.964, 18559.71
1264.446, 18590.75
1264.928, 18626.17
1265.411, 18649.74
1265.893, 18665.49
1266.375, 18676.94
1266.857, 18687.79
1267.339, 18707.87
1267.821, 18746.37
1268.303, 18785.06
1268.785, 18826.15
1269.267, 18859.97
1269.750, 18872.00
1270.232, 18877.51
1270.714, 18895.34
1271.196, 18922.64
1271.678, 18952.75
1272.160, 18986.99
1272.642, 19015.17
1273.124, 19035.73
1273.606, 19058.19
1274.089, 19090.65
1274.571, 19126.19
1275.053, 19162.20
1275.535, 19194.74
1276.017, 19218.63
1276.499, 19233.12
1276.981, 19239.63
1277.463, 19238.50
1277.946, 19245.49
1278.428, 19280.39
1278.910, 19316.59
1279.392, 19336.83
1279.874, 19349.89
1280.356, 19366.53
1280.838, 19386.56
1281.320, 19402.24
1281.802, 19414.32
1282.285, 19429.58
1282.767, 19453.53
1283.249, 19479.12
1283.731, 19502.27
1284.213, 19527.35
1284.695, 19561.40
1285.177, 19600.72
1285.659, 19623.37
1286.141, 19634.45
1286.624, 19655.08
1287.106, 19709.60
1287.588, 19750.28
1288.070, 19766.35
1288.552, 19777.54
1289.034, 19798.05
1289.516, 19826.02
1289.998, 19862.24
1290.481, 19901.96
1290.963, 19933.09
1291.445, 19949.54
1291.927, 19958.51
1292.409, 19956.24
1292.891, 19961.69
1293.373, 19993.21
1293.855, 20036.44
1294.338, 20078.58
1294.820, 20117.34
1295.302, 20147.79
1295.784, 20171.36
1296.266, 20178.47
1296.748, 20167.62
1297.230, 20166.77
1297.712, 20198.40
1298.194, 20240.04
1298.677, 20281.40
1299.159, 20316.45
1299.641, 20335.30
1300.123, 20337.09
1300.605, 20350.54
1301.087, 20373.68
1301.569, 20389.79
1302.051, 20381.94
1302.533, 20373.24
1303.016, 20370.58
##END=



