##NAMES=Tiptopite
##RRUFFID=R070609
##IDEAL CHEMISTRY=K_2_(Li,Na,Ca)_6_(Be_6_P_6_)O_24_(OH)_2_&#183;1.3H_2_O
##LOCALITY=Tip Top mine, Custer County, South Dakota, USA
##OWNER=RRUFF
##SOURCE=Dakota Matrix Minerals
##DESCRIPTION=Radiating colorless prismatic crystals
##STATUS=The identification of this mineral has been confirmed by single-crystal X-ray diffraction.
##URL=rruff.info/R070609
132.8914, 3444.173
133.3735, 3512.934
133.8556, 3563.196
134.3377, 3615.633
134.8198, 3682.199
135.3020, 3765.159
135.7841, 3838.104
136.2662, 3900.031
136.7483, 3952.170
137.2304, 3991.858
137.7125, 4012.770
138.1947, 4038.654
138.6768, 4086.028
139.1589, 4162.955
139.6410, 4237.112
140.1231, 4308.180
140.6052, 4374.639
141.0874, 4424.750
141.5695, 4448.284
142.0516, 4466.952
142.5337, 4499.745
143.0158, 4557.070
143.4979, 4608.019
143.9801, 4617.729
144.4622, 4603.894
144.9443, 4596.260
145.4264, 4590.832
145.9085, 4593.159
146.3906, 4611.765
146.8728, 4678.154
147.3549, 4726.731
147.8370, 4736.361
148.3191, 4677.928
148.8012, 4642.370
149.2833, 4638.103
149.7655, 4655.420
150.2476, 4674.332
150.7297, 4707.211
151.2118, 4731.687
151.6939, 4738.447
152.1760, 4704.384
152.6582, 4680.170
153.1403, 4673.435
153.6224, 4681.586
154.1045, 4690.917
154.5866, 4705.137
155.0687, 4716.189
155.5508, 4718.897
156.0330, 4705.805
156.5151, 4690.385
156.9972, 4673.007
157.4793, 4653.599
157.9614, 4642.194
158.4435, 4643.151
158.9257, 4652.857
159.4078, 4667.355
159.8899, 4694.057
160.3720, 4718.238
160.8541, 4732.629
161.3362, 4735.578
161.8184, 4734.341
162.3005, 4727.399
162.7826, 4718.746
163.2647, 4715.368
163.7468, 4726.686
164.2289, 4740.628
164.7111, 4749.263
165.1932, 4752.761
165.6753, 4748.093
166.1574, 4723.048
166.6395, 4685.693
167.1216, 4661.547
167.6038, 4672.233
168.0859, 4700.161
168.5680, 4727.268
169.0501, 4753.177
169.5322, 4772.389
170.0143, 4777.349
170.4965, 4769.489
170.9786, 4759.573
171.4607, 4754.370
171.9428, 4752.076
172.4249, 4749.769
172.9070, 4742.613
173.3892, 4736.888
173.8713, 4744.037
174.3534, 4764.289
174.8355, 4780.916
175.3176, 4772.116
175.7997, 4747.099
176.2819, 4729.742
176.7640, 4737.179
177.2461, 4757.232
177.7282, 4769.781
178.2103, 4773.716
178.6924, 4772.737
179.1745, 4768.042
179.6567, 4760.866
180.1388, 4757.037
180.6209, 4761.983
181.1030, 4772.623
181.5851, 4783.122
182.0672, 4794.951
182.5494, 4801.667
183.0315, 4785.900
183.5136, 4749.598
183.9957, 4720.345
184.4778, 4721.321
184.9599, 4746.476
185.4421, 4769.497
185.9242, 4787.008
186.4063, 4799.060
186.8884, 4805.369
187.3705, 4805.815
187.8526, 4802.336
188.3348, 4791.187
188.8169, 4774.184
189.2990, 4769.921
189.7811, 4787.146
190.2632, 4818.880
190.7453, 4842.582
191.2275, 4857.509
191.7096, 4867.805
192.1917, 4879.433
192.6738, 4892.634
193.1559, 4897.440
193.6380, 4886.868
194.1202, 4863.802
194.6023, 4848.930
195.0844, 4842.554
195.5665, 4843.764
196.0486, 4855.890
196.5307, 4880.818
197.0129, 4898.217
197.4950, 4893.561
197.9771, 4866.014
198.4592, 4858.459
198.9413, 4874.756
199.4234, 4905.005
199.9055, 4936.263
200.3877, 4971.211
200.8698, 4994.615
201.3519, 4992.368
201.8340, 4960.114
202.3161, 4944.744
202.7982, 4952.534
203.2804, 4974.502
203.7625, 4987.860
204.2446, 4989.811
204.7267, 4991.716
205.2088, 5002.153
205.6909, 5023.967
206.1731, 5037.776
206.6552, 5038.271
207.1373, 5030.375
207.6194, 5035.461
208.1015, 5059.333
208.5836, 5083.152
209.0658, 5092.364
209.5479, 5082.837
210.0300, 5073.608
210.5121, 5064.929
210.9942, 5058.131
211.4763, 5065.834
211.9585, 5097.423
212.4406, 5128.267
212.9227, 5131.223
213.4048, 5089.803
213.8869, 5068.521
214.3690, 5088.098
214.8512, 5147.468
215.3333, 5177.972
215.8154, 5168.058
216.2975, 5143.216
216.7796, 5130.565
217.2617, 5134.386
217.7439, 5140.508
218.2260, 5145.051
218.7081, 5147.339
219.1902, 5155.251
219.6723, 5171.404
220.1544, 5190.814
220.6366, 5206.805
221.1187, 5217.084
221.6008, 5228.308
222.0829, 5242.882
222.5650, 5262.084
223.0471, 5279.936
223.5293, 5300.032
224.0114, 5316.649
224.4935, 5318.500
224.9756, 5296.375
225.4577, 5275.213
225.9398, 5263.536
226.4220, 5261.371
226.9041, 5269.410
227.3862, 5294.473
227.8683, 5327.067
228.3504, 5343.959
228.8325, 5334.275
229.3147, 5325.644
229.7968, 5330.337
230.2789, 5354.215
230.7610, 5378.754
231.2431, 5410.213
231.7252, 5441.415
232.2074, 5447.972
232.6895, 5410.188
233.1716, 5374.736
233.6537, 5366.399
234.1358, 5399.319
234.6179, 5428.788
235.1001, 5453.351
235.5822, 5473.269
236.0643, 5489.506
236.5464, 5498.880
237.0285, 5508.729
237.5106, 5524.565
237.9928, 5552.731
238.4749, 5572.754
238.9570, 5579.164
239.4391, 5574.747
239.9212, 5577.660
240.4033, 5589.502
240.8855, 5606.758
241.3676, 5627.845
241.8497, 5655.313
242.3318, 5681.329
242.8139, 5707.438
243.2960, 5732.712
243.7782, 5744.899
244.2603, 5735.892
244.7424, 5723.078
245.2245, 5720.180
245.7066, 5731.450
246.1887, 5744.404
246.6708, 5757.251
247.1530, 5770.095
247.6351, 5785.785
248.1172, 5805.755
248.5993, 5826.935
249.0814, 5848.597
249.5635, 5877.924
250.0457, 5891.488
250.5278, 5878.591
251.0099, 5838.721
251.4920, 5818.708
251.9741, 5826.928
252.4562, 5845.787
252.9384, 5858.178
253.4205, 5861.299
253.9026, 5864.096
254.3847, 5869.644
254.8668, 5878.425
255.3489, 5879.417
255.8311, 5868.468
256.3132, 5854.455
256.7953, 5846.306
257.2774, 5842.349
257.7595, 5848.548
258.2416, 5870.578
258.7238, 5910.497
259.2059, 5934.815
259.6880, 5938.313
260.1701, 5932.576
260.6522, 5931.297
261.1343, 5935.235
261.6165, 5941.726
262.0986, 5950.237
262.5807, 5960.844
263.0628, 5974.277
263.5449, 5994.943
264.0270, 6013.225
264.5092, 6011.864
264.9913, 5980.049
265.4734, 5961.594
265.9555, 5975.639
266.4376, 6024.903
266.9197, 6059.417
267.4019, 6076.298
267.8840, 6081.823
268.3661, 6082.216
268.8482, 6074.789
269.3303, 6071.830
269.8124, 6079.182
270.2946, 6097.452
270.7767, 6111.991
271.2588, 6121.980
271.7409, 6129.483
272.2230, 6137.006
272.7051, 6144.081
273.1873, 6153.043
273.6694, 6166.853
274.1515, 6185.984
274.6336, 6195.021
275.1157, 6190.800
275.5978, 6182.745
276.0800, 6187.557
276.5621, 6207.717
277.0442, 6223.654
277.5263, 6222.490
278.0084, 6204.528
278.4905, 6207.228
278.9726, 6236.985
279.4547, 6272.994
279.9369, 6281.201
280.4190, 6259.906
280.9011, 6238.327
281.3832, 6225.684
281.8653, 6222.236
282.3474, 6235.766
282.8296, 6270.878
283.3117, 6309.959
283.7938, 6324.354
284.2759, 6314.268
284.7580, 6305.541
285.2401, 6312.177
285.7223, 6331.360
286.2044, 6344.626
286.6865, 6350.751
287.1686, 6354.083
287.6507, 6358.852
288.1328, 6365.240
288.6150, 6375.360
289.0971, 6392.128
289.5792, 6413.731
290.0613, 6436.199
290.5434, 6461.269
291.0255, 6478.727
291.5077, 6464.614
291.9898, 6425.438
292.4719, 6401.385
292.9540, 6424.327
293.4361, 6475.476
293.9182, 6504.425
294.4004, 6507.317
294.8825, 6502.292
295.3646, 6507.461
295.8467, 6521.613
296.3288, 6540.576
296.8109, 6571.093
297.2931, 6603.047
297.7752, 6613.482
298.2573, 6599.259
298.7394, 6582.703
299.2215, 6588.962
299.7036, 6611.200
300.1858, 6631.194
300.6679, 6635.083
301.1500, 6634.518
301.6321, 6647.745
302.1142, 6676.860
302.5963, 6704.651
303.0785, 6710.295
303.5606, 6704.004
304.0427, 6705.819
304.5248, 6735.126
305.0069, 6770.700
305.4890, 6790.282
305.9712, 6792.420
306.4533, 6791.307
306.9354, 6794.130
307.4175, 6800.878
307.8996, 6811.527
308.3817, 6827.155
308.8639, 6845.906
309.3460, 6867.879
309.8281, 6893.223
310.3102, 6916.396
310.7923, 6933.942
311.2744, 6947.591
311.7566, 6959.511
312.2387, 6963.517
312.7208, 6971.733
313.2029, 6991.329
313.6850, 7022.625
314.1671, 7058.510
314.6493, 7106.355
315.1314, 7152.941
315.6135, 7184.087
316.0956, 7177.581
316.5777, 7171.364
317.0598, 7180.473
317.5420, 7205.164
318.0241, 7231.298
318.5062, 7257.008
318.9883, 7281.076
319.4704, 7302.405
319.9525, 7320.806
320.4347, 7336.550
320.9168, 7346.926
321.3989, 7352.506
321.8810, 7364.234
322.3631, 7392.967
322.8452, 7423.304
323.3273, 7444.659
323.8094, 7437.704
324.2916, 7441.958
324.7737, 7468.196
325.2558, 7514.477
325.7379, 7552.504
326.2200, 7579.148
326.7021, 7598.628
327.1843, 7612.771
327.6664, 7606.815
328.1485, 7615.875
328.6306, 7649.893
329.1127, 7703.318
329.5948, 7746.723
330.0770, 7785.720
330.5591, 7808.732
331.0412, 7805.256
331.5233, 7753.511
332.0054, 7723.016
332.4875, 7726.650
332.9697, 7753.292
333.4518, 7764.212
333.9339, 7754.490
334.4160, 7737.839
334.8981, 7720.142
335.3802, 7699.670
335.8624, 7683.842
336.3445, 7672.783
336.8266, 7666.349
337.3087, 7665.137
337.7908, 7670.378
338.2729, 7675.746
338.7551, 7680.683
339.2372, 7685.746
339.7193, 7675.235
340.2014, 7642.958
340.6835, 7604.374
341.1656, 7589.409
341.6478, 7599.151
342.1299, 7613.400
342.6120, 7627.131
343.0941, 7638.947
343.5762, 7633.843
344.0583, 7607.114
344.5405, 7579.462
345.0226, 7584.134
345.5047, 7616.923
345.9868, 7645.282
346.4689, 7651.357
346.9510, 7642.794
347.4332, 7640.148
347.9153, 7644.333
348.3974, 7647.789
348.8795, 7639.525
349.3616, 7623.781
349.8438, 7612.028
350.3259, 7607.925
350.8080, 7610.983
351.2901, 7619.643
351.7722, 7633.817
352.2543, 7656.687
352.7365, 7699.917
353.2186, 7751.679
353.7007, 7793.590
354.1828, 7820.834
354.6649, 7834.254
355.1470, 7827.710
355.6292, 7803.696
356.1113, 7784.490
356.5934, 7782.635
357.0755, 7792.131
357.5576, 7807.638
358.0397, 7835.914
358.5219, 7860.479
359.0040, 7873.734
359.4861, 7876.778
359.9682, 7873.703
360.4503, 7844.428
360.9324, 7823.227
361.4146, 7834.723
361.8967, 7914.530
362.3788, 7981.160
362.8609, 8007.765
363.3430, 8006.037
363.8251, 8007.685
364.3073, 8019.452
364.7894, 8034.708
365.2715, 8051.822
365.7536, 8077.127
366.2357, 8092.398
366.7178, 8089.896
367.2000, 8078.040
367.6820, 8070.919
368.1642, 8060.942
368.6463, 8064.567
369.1284, 8090.170
369.6105, 8145.396
370.0926, 8193.343
370.5747, 8243.630
371.0569, 8279.207
371.5390, 8269.814
372.0211, 8181.905
372.5032, 8126.328
372.9853, 8143.634
373.4674, 8234.926
373.9496, 8297.079
374.4317, 8324.373
374.9138, 8334.973
375.3959, 8344.331
375.8780, 8351.513
376.3601, 8366.989
376.8423, 8398.118
377.3244, 8438.487
377.8065, 8457.757
378.2886, 8453.568
378.7707, 8445.447
379.2528, 8448.858
379.7350, 8462.658
380.2171, 8480.914
380.6992, 8504.453
381.1813, 8528.916
381.6634, 8547.408
382.1455, 8559.979
382.6277, 8568.423
383.1098, 8571.043
383.5919, 8570.770
384.0740, 8573.665
384.5561, 8581.521
385.0382, 8590.353
385.5204, 8592.682
386.0025, 8592.008
386.4846, 8598.088
386.9667, 8623.994
387.4488, 8654.803
387.9309, 8676.701
388.4131, 8688.241
388.8952, 8692.892
389.3773, 8684.617
389.8594, 8672.396
390.3415, 8669.524
390.8236, 8685.614
391.3058, 8708.682
391.7879, 8739.274
392.2700, 8777.979
392.7521, 8800.380
393.2342, 8780.384
393.7163, 8749.008
394.1985, 8734.282
394.6806, 8755.276
395.1627, 8779.474
395.6448, 8802.126
396.1269, 8823.024
396.6090, 8841.336
397.0912, 8856.084
397.5733, 8868.690
398.0554, 8879.771
398.5375, 8888.248
399.0196, 8896.766
399.5017, 8907.472
399.9839, 8918.063
400.4660, 8920.414
400.9481, 8908.146
401.4302, 8898.258
401.9123, 8898.903
402.3944, 8912.940
402.8766, 8928.779
403.3587, 8950.393
403.8408, 8969.283
404.3229, 8966.054
404.8050, 8935.970
405.2871, 8914.753
405.7693, 8918.828
406.2514, 8945.393
406.7335, 8969.928
407.2156, 8991.907
407.6977, 9013.387
408.1798, 9039.008
408.6620, 9067.023
409.1441, 9086.131
409.6262, 9086.300
410.1083, 9079.808
410.5904, 9093.293
411.0725, 9125.402
411.5547, 9156.509
412.0368, 9170.729
412.5189, 9174.243
413.0010, 9176.909
413.4831, 9179.624
413.9652, 9184.651
414.4473, 9192.619
414.9294, 9204.332
415.4116, 9222.507
415.8937, 9258.703
416.3758, 9295.771
416.8579, 9321.290
417.3400, 9332.240
417.8221, 9335.460
418.3043, 9321.373
418.7864, 9303.862
419.2685, 9303.691
419.7506, 9347.276
420.2327, 9389.987
420.7148, 9409.890
421.1970, 9401.146
421.6791, 9412.254
422.1612, 9472.528
422.6433, 9542.271
423.1254, 9587.630
423.6075, 9589.121
424.0897, 9592.465
424.5718, 9602.908
425.0539, 9619.532
425.5360, 9636.866
426.0181, 9656.764
426.5002, 9674.532
426.9824, 9684.562
427.4645, 9681.136
427.9466, 9695.905
428.4287, 9740.536
428.9108, 9794.031
429.3929, 9804.171
429.8751, 9763.109
430.3572, 9733.471
430.8393, 9753.701
431.3214, 9816.182
431.8035, 9861.382
432.2856, 9887.302
432.7678, 9906.049
433.2499, 9934.412
433.7320, 9968.912
434.2141, 9994.763
434.6962, 10002.95
435.1783, 10001.54
435.6605, 9999.094
436.1426, 9996.085
436.6247, 9998.493
437.1068, 10017.01
437.5889, 10041.36
438.0710, 10057.73
438.5532, 10058.36
439.0353, 10056.91
439.5174, 10063.02
439.9995, 10074.00
440.4816, 10082.45
440.9637, 10082.77
441.4459, 10081.47
441.9280, 10082.64
442.4101, 10088.34
442.8922, 10091.69
443.3743, 10095.57
443.8564, 10095.13
444.3386, 10083.93
444.8207, 10032.15
445.3028, 10000.85
445.7849, 10012.98
446.2670, 10071.19
446.7491, 10100.01
447.2313, 10079.94
447.7134, 10051.61
448.1955, 10048.01
448.6776, 10082.14
449.1597, 10102.88
449.6418, 10100.53
450.1240, 10082.92
450.6061, 10074.22
451.0882, 10075.63
451.5703, 10079.50
452.0524, 10079.12
452.5345, 10075.53
453.0167, 10084.82
453.4988, 10110.48
453.9809, 10138.74
454.4630, 10144.71
454.9451, 10134.24
455.4272, 10135.40
455.9094, 10172.53
456.3915, 10222.34
456.8736, 10252.94
457.3557, 10264.10
457.8378, 10257.25
458.3199, 10202.53
458.8020, 10141.19
459.2841, 10127.45
459.7663, 10208.25
460.2484, 10294.10
460.7305, 10333.40
461.2126, 10336.25
461.6947, 10331.87
462.1768, 10328.58
462.6590, 10323.11
463.1411, 10310.46
463.6232, 10282.08
464.1053, 10270.83
464.5874, 10296.72
465.0695, 10337.34
465.5517, 10362.97
466.0338, 10360.77
466.5159, 10359.17
466.9980, 10362.66
467.4801, 10371.12
467.9622, 10382.07
468.4444, 10394.84
468.9265, 10410.93
469.4086, 10434.66
469.8907, 10469.77
470.3728, 10491.16
470.8549, 10493.13
471.3371, 10484.36
471.8192, 10480.49
472.3013, 10481.40
472.7834, 10492.29
473.2655, 10530.19
473.7477, 10581.31
474.2298, 10590.39
474.7119, 10551.35
475.1940, 10511.30
475.6761, 10522.77
476.1582, 10568.36
476.6404, 10610.82
477.1225, 10637.96
477.6046, 10655.67
478.0867, 10665.68
478.5688, 10669.38
479.0509, 10673.66
479.5331, 10685.99
480.0152, 10697.97
480.4973, 10702.33
480.9794, 10692.16
481.4615, 10686.20
481.9436, 10689.90
482.4258, 10701.12
482.9079, 10716.02
483.3900, 10736.31
483.8721, 10757.93
484.3542, 10780.84
484.8363, 10805.23
485.3185, 10825.98
485.8006, 10840.43
486.2827, 10854.03
486.7648, 10874.10
487.2469, 10906.83
487.7290, 10921.68
488.2112, 10905.35
488.6933, 10875.29
489.1754, 10885.84
489.6575, 10941.69
490.1396, 10995.47
490.6217, 11019.19
491.1039, 11018.42
491.5860, 11015.74
492.0681, 11011.69
492.5502, 11008.43
493.0323, 11009.38
493.5144, 11013.09
493.9966, 11015.77
494.4787, 11015.82
494.9608, 11014.59
495.4429, 11006.52
495.9250, 10995.04
496.4071, 10999.92
496.8893, 11043.38
497.3714, 11100.86
497.8535, 11153.39
498.3356, 11199.23
498.8177, 11238.06
499.2998, 11269.07
499.7820, 11293.22
500.2641, 11312.36
500.7462, 11324.41
501.2283, 11333.72
501.7104, 11340.02
502.1925, 11342.95
502.6746, 11348.36
503.1567, 11353.83
503.6389, 11364.79
504.1210, 11391.84
504.6031, 11446.26
505.0852, 11464.22
505.5673, 11424.53
506.0494, 11361.50
506.5316, 11355.85
507.0137, 11408.59
507.4958, 11460.55
507.9779, 11476.57
508.4600, 11468.08
508.9421, 11471.04
509.4243, 11486.83
509.9064, 11503.17
510.3885, 11504.74
510.8706, 11499.77
511.3527, 11502.39
511.8348, 11515.20
512.3170, 11539.15
512.7991, 11584.45
513.2812, 11643.80
513.7633, 11691.67
514.2454, 11710.86
514.7275, 11721.23
515.2097, 11733.92
515.6918, 11752.42
516.1739, 11765.80
516.6560, 11764.93
517.1381, 11761.19
517.6202, 11767.12
518.1024, 11782.71
518.5845, 11808.00
519.0666, 11847.01
519.5487, 11896.62
520.0308, 11936.84
520.5129, 11964.83
520.9951, 11990.43
521.4772, 12027.55
521.9593, 12076.34
522.4414, 12085.02
522.9235, 12042.26
523.4056, 11986.35
523.8878, 11967.71
524.3699, 11981.85
524.8520, 12006.51
525.3341, 12037.43
525.8162, 12071.19
526.2983, 12108.90
526.7805, 12148.80
527.2626, 12175.66
527.7447, 12176.10
528.2268, 12161.22
528.7089, 12137.92
529.1910, 12098.49
529.6732, 12072.78
530.1553, 12075.51
530.6374, 12097.88
531.1195, 12126.09
531.6016, 12177.19
532.0837, 12212.79
532.5659, 12215.83
533.0480, 12186.88
533.5301, 12170.05
534.0122, 12165.81
534.4943, 12172.52
534.9764, 12194.86
535.4586, 12242.35
535.9407, 12260.79
536.4228, 12238.06
536.9049, 12199.06
537.3870, 12186.17
537.8691, 12199.16
538.3513, 12222.81
538.8334, 12258.83
539.3155, 12298.48
539.7976, 12320.26
540.2797, 12324.70
540.7618, 12326.67
541.2440, 12336.62
541.7261, 12351.33
542.2082, 12367.79
542.6903, 12388.37
543.1724, 12403.26
543.6545, 12391.89
544.1367, 12372.82
544.6188, 12379.62
545.1009, 12464.58
545.5830, 12536.73
546.0651, 12551.64
546.5472, 12502.94
547.0294, 12491.33
547.5115, 12538.29
547.9936, 12604.43
548.4757, 12669.32
548.9578, 12740.99
549.4399, 12787.06
549.9221, 12798.45
550.4042, 12792.56
550.8863, 12803.54
551.3684, 12832.82
551.8505, 12856.85
552.3326, 12856.96
552.8148, 12847.34
553.2969, 12882.16
553.7790, 12959.88
554.2611, 13028.00
554.7432, 13033.41
555.2253, 13006.29
555.7075, 12988.73
556.1896, 12984.77
556.6717, 13003.13
557.1538, 13072.32
557.6359, 13163.97
558.1180, 13230.22
558.6002, 13224.47
559.0823, 13220.24
559.5644, 13247.90
560.0465, 13308.27
560.5286, 13360.19
561.0107, 13406.59
561.4929, 13437.92
561.9750, 13445.68
562.4571, 13415.32
562.9392, 13401.11
563.4213, 13410.60
563.9034, 13427.86
564.3856, 13425.22
564.8677, 13401.03
565.3498, 13381.87
565.8319, 13376.86
566.3140, 13381.86
566.7961, 13385.18
567.2783, 13387.29
567.7604, 13395.78
568.2425, 13432.01
568.7246, 13471.57
569.2067, 13475.69
569.6888, 13431.11
570.1709, 13388.57
570.6530, 13392.03
571.1351, 13413.66
571.6172, 13416.93
572.0994, 13366.82
572.5815, 13322.57
573.0636, 13302.04
573.5457, 13302.85
574.0278, 13306.95
574.5099, 13322.73
574.9921, 13331.15
575.4742, 13319.66
575.9563, 13279.84
576.4384, 13263.15
576.9205, 13272.81
577.4026, 13299.65
577.8848, 13342.86
578.3669, 13401.63
578.8490, 13435.18
579.3311, 13423.50
579.8132, 13396.44
580.2953, 13410.02
580.7775, 13457.01
581.2596, 13502.75
581.7417, 13522.73
582.2238, 13534.36
582.7059, 13558.63
583.1880, 13597.58
583.6702, 13627.36
584.1523, 13625.54
584.6344, 13614.35
585.1165, 13613.32
585.5986, 13642.43
586.0807, 13661.51
586.5629, 13654.05
587.0450, 13635.77
587.5271, 13637.34
588.0092, 13661.89
588.4913, 13702.18
588.9734, 13766.99
589.4556, 13851.70
589.9377, 13890.88
590.4198, 13878.79
590.9019, 13849.57
591.3840, 13816.12
591.8661, 13785.68
592.3483, 13795.01
592.8304, 13855.27
593.3125, 13928.60
593.7946, 13976.51
594.2767, 14006.36
594.7589, 14033.28
595.2410, 14075.89
595.7231, 14106.11
596.2052, 14090.93
596.6873, 14041.44
597.1694, 14018.21
597.6516, 14063.93
598.1337, 14119.40
598.6158, 14156.69
599.0979, 14170.29
599.5800, 14178.68
600.0621, 14177.04
600.5443, 14175.07
601.0264, 14185.14
601.5085, 14211.58
601.9906, 14228.58
602.4727, 14229.04
602.9548, 14221.61
603.4370, 14226.08
603.9191, 14241.77
604.4012, 14258.07
604.8833, 14264.88
605.3654, 14270.84
605.8475, 14292.93
606.3297, 14330.59
606.8118, 14366.85
607.2939, 14397.55
607.7760, 14417.25
608.2581, 14417.48
608.7402, 14379.75
609.2224, 14357.78
609.7045, 14373.67
610.1866, 14412.46
610.6687, 14451.13
611.1508, 14502.97
611.6329, 14533.22
612.1151, 14528.08
612.5972, 14494.99
613.0793, 14475.70
613.5614, 14469.80
614.0435, 14478.70
614.5256, 14512.51
615.0078, 14565.42
615.4899, 14595.25
615.9720, 14597.90
616.4541, 14598.01
616.9362, 14629.76
617.4183, 14674.45
617.9005, 14694.78
618.3826, 14663.76
618.8647, 14634.34
619.3468, 14650.96
619.8289, 14695.39
620.3110, 14728.42
620.7932, 14732.19
621.2753, 14728.62
621.7574, 14722.03
622.2395, 14712.72
622.7216, 14711.13
623.2037, 14719.19
623.6859, 14732.91
624.1680, 14751.22
624.6501, 14775.15
625.1322, 14797.29
625.6143, 14817.51
626.0964, 14835.82
626.5786, 14851.94
627.0607, 14865.98
627.5428, 14879.01
628.0249, 14891.84
628.5070, 14903.18
628.9891, 14905.16
629.4713, 14903.11
629.9534, 14914.08
630.4355, 14966.67
630.9176, 15019.17
631.3997, 15041.58
631.8818, 15030.56
632.3640, 15022.17
632.8461, 15015.65
633.3282, 15019.58
633.8103, 15039.91
634.2924, 15084.87
634.7745, 15129.72
635.2567, 15180.06
635.7388, 15222.26
636.2209, 15224.06
636.7030, 15183.02
637.1851, 15175.54
637.6672, 15240.10
638.1494, 15333.78
638.6315, 15361.38
639.1136, 15335.41
639.5957, 15316.43
640.0778, 15352.82
640.5599, 15404.83
641.0421, 15434.50
641.5242, 15438.65
642.0063, 15439.57
642.4884, 15445.93
642.9705, 15452.78
643.4526, 15456.12
643.9348, 15445.03
644.4169, 15446.37
644.8990, 15465.03
645.3811, 15492.62
645.8632, 15513.38
646.3453, 15522.21
646.8275, 15548.90
647.3096, 15609.01
647.7917, 15685.54
648.2738, 15732.18
648.7559, 15749.98
649.2380, 15751.42
649.7202, 15724.62
650.2023, 15695.03
650.6844, 15700.04
651.1665, 15741.67
651.6486, 15793.38
652.1307, 15861.30
652.6129, 15920.92
653.0950, 15949.55
653.5771, 15920.01
654.0592, 15899.78
654.5413, 15900.27
655.0234, 15913.45
655.5056, 15932.71
655.9877, 15967.28
656.4698, 15981.32
656.9519, 15955.96
657.4340, 15911.82
657.9161, 15924.88
658.3983, 15996.19
658.8804, 16058.45
659.3624, 16056.86
659.8445, 16027.54
660.3267, 16044.06
660.8088, 16106.52
661.2909, 16168.89
661.7730, 16203.23
662.2551, 16220.71
662.7372, 16230.27
663.2194, 16229.45
663.7015, 16230.49
664.1836, 16233.83
664.6657, 16241.43
665.1478, 16255.66
665.6299, 16280.12
666.1121, 16303.04
666.5942, 16319.37
667.0763, 16335.09
667.5584, 16375.41
668.0405, 16443.04
668.5226, 16490.25
669.0048, 16484.65
669.4869, 16446.78
669.9690, 16417.81
670.4511, 16398.57
670.9332, 16400.58
671.4153, 16456.58
671.8975, 16523.35
672.3796, 16555.91
672.8617, 16538.11
673.3438, 16531.94
673.8259, 16572.79
674.3080, 16626.43
674.7902, 16657.72
675.2723, 16639.32
675.7544, 16648.35
676.2365, 16703.73
676.7186, 16777.33
677.2007, 16808.20
677.6829, 16792.29
678.1650, 16780.92
678.6471, 16792.93
679.1292, 16818.84
679.6113, 16841.71
680.0934, 16861.14
680.5756, 16873.31
681.0577, 16863.61
681.5398, 16854.04
682.0219, 16868.88
682.5040, 16911.75
682.9861, 16947.73
683.4683, 16951.90
683.9504, 16953.76
684.4325, 16978.17
684.9146, 17056.45
685.3967, 17091.00
685.8788, 17058.57
686.3610, 17009.13
686.8431, 17015.73
687.3252, 17082.96
687.8073, 17134.35
688.2894, 17150.38
688.7715, 17145.78
689.2537, 17141.24
689.7358, 17137.31
690.2179, 17136.57
690.7000, 17125.77
691.1821, 17129.81
691.6642, 17187.64
692.1464, 17289.95
692.6285, 17359.09
693.1106, 17343.40
693.5927, 17309.25
694.0748, 17286.15
694.5569, 17273.65
695.0391, 17281.36
695.5212, 17321.66
696.0033, 17363.14
696.4854, 17368.70
696.9675, 17338.14
697.4496, 17344.49
697.9318, 17402.96
698.4139, 17474.35
698.8960, 17499.65
699.3781, 17498.68
699.8602, 17520.05
700.3423, 17605.44
700.8245, 17688.46
701.3066, 17724.96
701.7887, 17726.22
702.2708, 17721.87
702.7529, 17712.51
703.2350, 17705.77
703.7172, 17700.43
704.1993, 17697.58
704.6814, 17716.66
705.1635, 17768.39
705.6456, 17814.49
706.1277, 17823.00
706.6099, 17800.62
707.0920, 17817.46
707.5741, 17877.54
708.0562, 17936.88
708.5383, 17941.77
709.0204, 17923.06
709.5026, 17926.79
709.9847, 17966.53
710.4668, 18014.80
710.9489, 18069.96
711.4310, 18120.74
711.9131, 18154.02
712.3953, 18155.41
712.8774, 18152.18
713.3595, 18139.03
713.8416, 18125.62
714.3237, 18141.68
714.8058, 18195.73
715.2880, 18232.97
715.7701, 18226.92
716.2522, 18196.44
716.7343, 18191.78
717.2164, 18210.21
717.6985, 18231.73
718.1807, 18237.26
718.6628, 18244.09
719.1449, 18271.95
719.6270, 18322.88
720.1091, 18370.88
720.5912, 18413.34
721.0734, 18445.36
721.5555, 18460.93
722.0376, 18450.66
722.5197, 18451.12
723.0018, 18462.30
723.4839, 18484.18
723.9661, 18527.70
724.4482, 18591.13
724.9303, 18617.84
725.4124, 18587.35
725.8945, 18548.55
726.3766, 18577.95
726.8588, 18648.41
727.3409, 18700.38
727.8230, 18672.15
728.3051, 18654.75
728.7872, 18722.19
729.2693, 18840.06
729.7515, 18905.05
730.2336, 18836.72
730.7157, 18783.04
731.1978, 18781.90
731.6799, 18828.35
732.1620, 18881.79
732.6442, 18946.80
733.1263, 18998.01
733.6084, 19016.33
734.0905, 19008.98
734.5726, 18995.54
735.0547, 18976.62
735.5369, 18961.91
736.0190, 18955.54
736.5011, 18958.87
736.9832, 18977.45
737.4653, 19020.98
737.9474, 19049.87
738.4296, 19027.75
738.9117, 19000.17
739.3938, 19014.94
739.8759, 19103.24
740.3580, 19154.88
740.8401, 19148.47
741.3223, 19122.15
741.8044, 19146.98
742.2865, 19217.29
742.7686, 19268.75
743.2507, 19268.82
743.7328, 19257.66
744.2150, 19295.58
744.6971, 19363.51
745.1792, 19409.61
745.6613, 19386.03
746.1434, 19360.43
746.6255, 19364.08
747.1077, 19395.59
747.5898, 19429.45
748.0719, 19471.14
748.5540, 19504.75
749.0361, 19521.86
749.5182, 19523.36
750.0003, 19524.14
750.4824, 19522.53
750.9645, 19536.04
751.4467, 19601.11
751.9288, 19684.10
752.4109, 19717.26
752.8930, 19691.02
753.3751, 19654.96
753.8572, 19622.05
754.3394, 19604.60
754.8215, 19617.69
755.3036, 19694.01
755.7857, 19741.34
756.2678, 19739.94
756.7499, 19720.86
757.2321, 19714.99
757.7142, 19721.00
758.1963, 19755.56
758.6784, 19830.55
759.1605, 19913.91
759.6426, 19950.53
760.1248, 19951.30
760.6069, 19949.94
761.0890, 19956.12
761.5711, 19968.58
762.0532, 19980.77
762.5353, 19998.06
763.0175, 20034.65
763.4996, 20123.51
763.9817, 20198.66
764.4638, 20241.14
764.9459, 20255.18
765.4280, 20263.88
765.9102, 20265.32
766.3923, 20267.67
766.8744, 20275.31
767.3565, 20286.83
767.8386, 20294.44
768.3207, 20299.19
768.8029, 20313.79
769.2850, 20363.21
769.7671, 20417.04
770.2492, 20441.94
770.7313, 20431.00
771.2134, 20430.38
771.6956, 20469.35
772.1777, 20509.69
772.6598, 20525.11
773.1419, 20502.24
773.6240, 20500.66
774.1061, 20525.12
774.5883, 20558.81
775.0704, 20582.46
775.5525, 20599.62
776.0346, 20626.24
776.5167, 20666.13
776.9988, 20710.98
777.4810, 20762.30
777.9631, 20810.35
778.4452, 20843.23
778.9273, 20841.48
779.4094, 20843.42
779.8915, 20851.54
780.3737, 20869.51
780.8558, 20909.55
781.3379, 20987.04
781.8200, 21037.89
782.3021, 21043.57
782.7842, 21021.74
783.2664, 21002.81
783.7485, 20988.78
784.2306, 20989.32
784.7127, 21025.45
785.1948, 21064.99
785.6769, 21078.02
786.1591, 21070.17
786.6412, 21062.83
787.1233, 21057.83
787.6054, 21059.67
788.0875, 21068.81
788.5696, 21085.11
789.0518, 21114.02
789.5339, 21159.75
790.0160, 21201.33
790.4981, 21221.67
790.9802, 21227.64
791.4623, 21250.73
791.9445, 21290.21
792.4266, 21324.48
792.9087, 21335.33
793.3908, 21335.45
793.8729, 21331.08
794.3550, 21320.75
794.8372, 21328.06
795.3193, 21377.57
795.8014, 21432.08
796.2835, 21471.43
796.7656, 21496.06
797.2477, 21500.16
797.7299, 21477.44
798.2120, 21455.24
798.6941, 21465.96
799.1762, 21499.73
799.6583, 21528.59
800.1404, 21548.10
800.6226, 21560.53
801.1047, 21552.13
801.5868, 21544.43
802.0689, 21562.46
802.5510, 21643.77
803.0331, 21703.24
803.5153, 21724.73
803.9974, 21727.88
804.4795, 21733.12
804.9616, 21737.94
805.4437, 21765.38
805.9258, 21825.82
806.4080, 21896.04
806.8901, 21946.17
807.3722, 21977.39
807.8543, 21992.08
808.3364, 21982.42
808.8185, 21967.91
809.3007, 21952.78
809.7828, 21941.71
810.2649, 21945.21
810.7470, 21979.79
811.2291, 22007.61
811.7112, 22016.91
812.1934, 22017.79
812.6755, 22041.97
813.1576, 22089.60
813.6397, 22139.97
814.1218, 22186.50
814.6039, 22228.59
815.0861, 22272.41
815.5682, 22312.35
816.0503, 22329.01
816.5324, 22287.07
817.0145, 22244.34
817.4966, 22220.00
817.9788, 22217.35
818.4609, 22253.66
818.9430, 22350.66
819.4251, 22443.04
819.9072, 22501.79
820.3893, 22533.23
820.8715, 22574.85
821.3536, 22626.24
821.8357, 22661.52
822.3178, 22663.76
822.7999, 22641.81
823.2820, 22579.07
823.7642, 22479.98
824.2463, 22447.47
824.7284, 22589.46
825.2105, 22741.54
825.6926, 22821.50
826.1747, 22821.90
826.6569, 22818.82
827.1390, 22808.11
827.6211, 22805.47
828.1032, 22821.76
828.5853, 22854.63
829.0674, 22907.69
829.5496, 22980.73
830.0317, 23036.96
830.5138, 23021.20
830.9959, 22994.15
831.4780, 23014.81
831.9601, 23112.20
832.4423, 23175.49
832.9244, 23178.76
833.4065, 23167.73
833.8886, 23180.36
834.3707, 23221.19
834.8528, 23218.95
835.3350, 23162.74
835.8171, 23116.09
836.2992, 23158.66
836.7813, 23249.13
837.2634, 23324.46
837.7455, 23374.89
838.2277, 23401.71
838.7097, 23370.79
839.1918, 23336.44
839.6740, 23353.70
840.1561, 23470.92
840.6382, 23526.69
841.1203, 23497.16
841.6024, 23448.18
842.0845, 23461.47
842.5667, 23525.61
843.0488, 23571.65
843.5309, 23585.86
844.0130, 23591.70
844.4951, 23613.83
844.9772, 23638.88
845.4594, 23648.57
845.9415, 23608.06
846.4236, 23603.63
846.9057, 23675.36
847.3878, 23765.04
847.8699, 23799.88
848.3521, 23769.36
848.8342, 23767.79
849.3163, 23814.69
849.7984, 23875.26
850.2805, 23904.25
850.7626, 23911.29
851.2448, 23914.53
851.7269, 23912.77
852.2090, 23920.67
852.6911, 23950.11
853.1732, 23991.87
853.6553, 24031.95
854.1375, 24067.13
854.6196, 24104.54
855.1017, 24143.18
855.5838, 24185.61
856.0659, 24246.96
856.5480, 24319.84
857.0302, 24359.32
857.5123, 24340.12
857.9944, 24311.33
858.4765, 24318.86
858.9586, 24346.89
859.4407, 24370.18
859.9229, 24360.21
860.4050, 24373.39
860.8871, 24431.12
861.3692, 24505.81
861.8513, 24549.42
862.3334, 24558.47
862.8156, 24572.93
863.2977, 24604.16
863.7798, 24638.35
864.2619, 24651.88
864.7440, 24653.57
865.2261, 24663.18
865.7083, 24693.44
866.1904, 24725.94
866.6725, 24765.98
867.1546, 24800.64
867.6367, 24803.48
868.1188, 24752.35
868.6010, 24728.92
869.0831, 24752.20
869.5652, 24800.89
870.0473, 24845.89
870.5294, 24885.05
871.0115, 24908.10
871.4937, 24902.31
871.9758, 24894.86
872.4579, 24905.71
872.9400, 24929.20
873.4221, 24955.17
873.9042, 24982.06
874.3864, 25010.89
874.8685, 25043.06
875.3506, 25075.51
875.8327, 25097.19
876.3148, 25108.52
876.7969, 25136.17
877.2791, 25194.34
877.7612, 25256.44
878.2433, 25281.40
878.7254, 25289.29
879.2075, 25316.94
879.6896, 25404.93
880.1718, 25480.18
880.6539, 25525.51
881.1360, 25548.15
881.6181, 25550.09
882.1002, 25523.10
882.5823, 25526.95
883.0645, 25583.41
883.5466, 25654.23
884.0287, 25674.63
884.5108, 25663.21
884.9929, 25662.55
885.4750, 25697.36
885.9572, 25731.65
886.4393, 25746.50
886.9214, 25751.58
887.4035, 25761.67
887.8856, 25773.76
888.3677, 25802.45
888.8499, 25855.75
889.3320, 25916.15
889.8141, 25955.81
890.2962, 25977.75
890.7783, 25988.30
891.2604, 25976.27
891.7426, 25981.98
892.2247, 26058.75
892.7068, 26161.99
893.1889, 26230.43
893.6710, 26229.90
894.1531, 26224.88
894.6353, 26209.19
895.1174, 26199.56
895.5995, 26223.13
896.0816, 26276.77
896.5637, 26337.94
897.0458, 26406.60
897.5280, 26464.84
898.0101, 26479.73
898.4922, 26479.03
898.9743, 26500.31
899.4564, 26574.73
899.9385, 26635.83
900.4207, 26681.06
900.9028, 26707.18
901.3849, 26701.65
901.8670, 26661.59
902.3491, 26643.29
902.8312, 26654.23
903.3134, 26679.22
903.7955, 26694.30
904.2776, 26715.09
904.7597, 26774.96
905.2418, 26911.42
905.7239, 26997.22
906.2061, 26933.59
906.6882, 26846.81
907.1703, 26843.63
907.6524, 26948.69
908.1345, 27005.08
908.6166, 26999.87
909.0988, 26988.35
909.5809, 27035.46
910.0630, 27112.88
910.5451, 27169.06
911.0272, 27196.66
911.5093, 27206.61
911.9915, 27173.58
912.4736, 27147.37
912.9557, 27168.55
913.4378, 27250.83
913.9199, 27308.73
914.4020, 27337.12
914.8842, 27357.84
915.3663, 27396.14
915.8484, 27438.89
916.3305, 27444.03
916.8126, 27410.10
917.2947, 27395.08
917.7769, 27449.74
918.2590, 27521.87
918.7411, 27583.84
919.2232, 27635.15
919.7053, 27655.89
920.1874, 27634.52
920.6696, 27615.78
921.1517, 27624.62
921.6338, 27658.04
922.1159, 27716.49
922.5980, 27795.32
923.0801, 27852.57
923.5623, 27841.75
924.0444, 27818.94
924.5265, 27816.87
925.0086, 27837.13
925.4907, 27861.34
925.9728, 27887.05
926.4550, 27921.45
926.9371, 27973.88
927.4192, 28033.28
927.9013, 28058.46
928.3834, 28054.89
928.8655, 28055.09
929.3476, 28074.38
929.8297, 28105.59
930.3118, 28157.63
930.7939, 28220.42
931.2761, 28254.56
931.7582, 28248.93
932.2403, 28230.89
932.7224, 28190.40
933.2045, 28158.17
933.6866, 28239.20
934.1688, 28407.30
934.6509, 28523.86
935.1330, 28488.45
935.6151, 28447.25
936.0972, 28535.04
936.5793, 28685.02
937.0615, 28762.58
937.5436, 28682.08
938.0257, 28657.72
938.5078, 28731.15
938.9899, 28839.86
939.4720, 28873.23
939.9542, 28848.98
940.4363, 28864.44
940.9184, 28954.70
941.4005, 29046.07
941.8826, 29070.04
942.3647, 29066.39
942.8469, 29082.18
943.3290, 29151.30
943.8111, 29191.15
944.2932, 29182.52
944.7753, 29175.99
945.2574, 29243.25
945.7396, 29364.07
946.2217, 29419.43
946.7038, 29392.81
947.1859, 29358.60
947.6680, 29364.89
948.1501, 29396.04
948.6323, 29444.95
949.1144, 29521.28
949.5965, 29562.26
950.0786, 29541.83
950.5607, 29532.94
951.0428, 29595.52
951.5250, 29713.55
952.0071, 29800.56
952.4892, 29855.44
952.9713, 29886.16
953.4534, 29885.63
953.9355, 29872.76
954.4177, 29846.62
954.8998, 29810.85
955.3819, 29830.85
955.8640, 29939.02
956.3461, 30035.79
956.8282, 30083.89
957.3104, 30094.53
957.7925, 30087.85
958.2746, 30070.89
958.7567, 30077.04
959.2388, 30145.56
959.7209, 30221.76
960.2031, 30284.49
960.6852, 30330.02
961.1673, 30345.79
961.6494, 30308.43
962.1315, 30299.11
962.6136, 30339.93
963.0958, 30404.05
963.5779, 30426.55
964.0600, 30428.62
964.5421, 30486.81
965.0242, 30663.16
965.5063, 30818.19
965.9885, 30846.45
966.4706, 30819.53
966.9527, 30833.03
967.4348, 30911.23
967.9169, 30970.01
968.3990, 31000.90
968.8812, 31024.99
969.3633, 31067.93
969.8454, 31121.83
970.3275, 31166.45
970.8096, 31196.57
971.2917, 31235.55
971.7739, 31319.18
972.2560, 31396.81
972.7381, 31427.67
973.2202, 31404.20
973.7023, 31404.46
974.1844, 31431.36
974.6666, 31469.57
975.1487, 31515.67
975.6308, 31563.28
976.1129, 31598.83
976.5950, 31623.90
977.0771, 31652.67
977.5593, 31685.06
978.0414, 31730.39
978.5235, 31798.80
979.0056, 31882.44
979.4877, 31946.73
979.9698, 31990.37
980.4520, 32028.83
980.9341, 32065.52
981.4162, 32103.20
981.8983, 32153.31
982.3804, 32206.60
982.8625, 32243.05
983.3447, 32227.44
983.8268, 32231.88
984.3089, 32278.24
984.7910, 32341.59
985.2731, 32379.33
985.7552, 32391.77
986.2374, 32438.03
986.7195, 32534.99
987.2016, 32632.60
987.6837, 32674.15
988.1658, 32689.62
988.6479, 32713.35
989.1301, 32756.85
989.6122, 32792.43
990.0943, 32808.51
990.5764, 32831.39
991.0585, 32883.79
991.5406, 32961.75
992.0228, 33034.57
992.5049, 33102.59
992.9870, 33179.27
993.4691, 33295.34
993.9512, 33406.30
994.4333, 33479.83
994.9155, 33513.84
995.3976, 33526.42
995.8797, 33493.77
996.3618, 33501.88
996.8439, 33594.37
997.3260, 33737.14
997.8082, 33848.57
998.2903, 33937.69
998.7724, 34040.67
999.2545, 34184.46
999.7366, 34332.27
1000.219, 34464.33
1000.701, 34590.64
1001.183, 34741.41
1001.665, 34932.23
1002.147, 35065.30
1002.629, 35112.21
1003.111, 35144.09
1003.594, 35271.54
1004.076, 35439.85
1004.558, 35548.82
1005.040, 35559.89
1005.522, 35584.19
1006.004, 35674.80
1006.486, 35773.58
1006.968, 35840.66
1007.451, 35873.37
1007.933, 35936.57
1008.415, 36030.68
1008.897, 36121.03
1009.379, 36180.93
1009.861, 36225.62
1010.343, 36272.76
1010.825, 36320.39
1011.307, 36346.64
1011.790, 36359.14
1012.272, 36329.22
1012.754, 36231.97
1013.236, 36100.94
1013.718, 36025.13
1014.200, 35997.67
1014.682, 35982.23
1015.164, 35969.77
1015.646, 35957.39
1016.129, 35957.11
1016.611, 35949.68
1017.093, 35901.20
1017.575, 35785.04
1018.057, 35707.65
1018.539, 35684.36
1019.021, 35673.38
1019.503, 35614.50
1019.985, 35537.61
1020.468, 35502.26
1020.950, 35518.72
1021.432, 35549.80
1021.914, 35604.13
1022.396, 35646.15
1022.878, 35656.18
1023.360, 35635.45
1023.842, 35601.62
1024.325, 35553.75
1024.807, 35531.71
1025.289, 35580.08
1025.771, 35650.27
1026.253, 35701.01
1026.735, 35731.01
1027.217, 35738.54
1027.699, 35691.99
1028.182, 35672.49
1028.664, 35705.52
1029.146, 35754.90
1029.628, 35735.53
1030.110, 35669.08
1030.592, 35654.69
1031.074, 35728.39
1031.556, 35814.54
1032.038, 35899.64
1032.521, 35951.86
1033.003, 35930.81
1033.485, 35807.83
1033.967, 35729.25
1034.449, 35694.52
1034.931, 35709.14
1035.413, 35814.87
1035.895, 35955.44
1036.377, 36036.36
1036.860, 36058.91
1037.342, 36076.46
1037.824, 36095.84
1038.306, 36129.57
1038.788, 36190.86
1039.270, 36263.90
1039.752, 36290.73
1040.234, 36274.32
1040.717, 36258.56
1041.199, 36253.64
1041.681, 36262.91
1042.163, 36302.36
1042.645, 36352.29
1043.127, 36383.93
1043.609, 36377.21
1044.091, 36386.71
1044.573, 36417.68
1045.056, 36456.66
1045.538, 36502.24
1046.020, 36543.30
1046.502, 36541.95
1046.984, 36496.31
1047.466, 36466.99
1047.948, 36497.72
1048.430, 36539.95
1048.912, 36566.96
1049.395, 36583.04
1049.877, 36615.97
1050.359, 36665.34
1050.841, 36737.27
1051.323, 36866.32
1051.805, 36977.45
1052.287, 36970.81
1052.769, 36890.82
1053.252, 36822.88
1053.734, 36755.33
1054.216, 36755.36
1054.698, 36849.42
1055.180, 36970.26
1055.662, 37050.72
1056.144, 37091.09
1056.626, 37072.73
1057.109, 36988.93
1057.591, 36937.35
1058.073, 37005.94
1058.555, 37095.67
1059.037, 37146.01
1059.519, 37158.86
1060.001, 37169.63
1060.483, 37178.27
1060.965, 37181.85
1061.448, 37168.79
1061.930, 37158.91
1062.412, 37186.96
1062.894, 37235.21
1063.376, 37261.53
1063.858, 37208.20
1064.340, 37210.36
1064.822, 37302.07
1065.304, 37417.36
1065.786, 37466.08
1066.269, 37464.80
1066.751, 37469.38
1067.233, 37489.81
1067.715, 37503.87
1068.197, 37481.68
1068.679, 37463.54
1069.161, 37469.43
1069.643, 37499.16
1070.126, 37585.94
1070.608, 37735.15
1071.090, 37862.02
1071.572, 37911.61
1072.054, 37921.37
1072.536, 37922.00
1073.018, 37916.18
1073.500, 37911.24
1073.983, 37908.02
1074.465, 37904.85
1074.947, 37894.89
1075.429, 37897.66
1075.911, 37964.74
1076.393, 38065.35
1076.875, 38098.77
1077.357, 38042.92
1077.839, 37992.72
1078.322, 37993.32
1078.804, 38022.46
1079.286, 38072.31
1079.768, 38140.52
1080.250, 38184.07
1080.732, 38202.96
1081.214, 38205.20
1081.696, 38171.12
1082.178, 38144.46
1082.661, 38172.14
1083.143, 38237.41
1083.625, 38303.83
1084.107, 38381.95
1084.589, 38423.87
1085.071, 38414.57
1085.553, 38392.87
1086.035, 38400.89
1086.518, 38435.39
1087.000, 38502.65
1087.482, 38608.39
1087.964, 38678.99
1088.446, 38632.94
1088.928, 38595.67
1089.410, 38636.55
1089.892, 38738.46
1090.375, 38788.05
1090.857, 38790.64
1091.339, 38813.33
1091.821, 38910.18
1092.303, 39013.26
1092.785, 39075.52
1093.267, 39108.96
1093.749, 39133.94
1094.231, 39145.42
1094.714, 39173.52
1095.196, 39226.08
1095.678, 39272.86
1096.160, 39266.01
1096.642, 39240.18
1097.124, 39252.27
1097.606, 39308.50
1098.088, 39356.29
1098.570, 39377.27
1099.053, 39393.77
1099.535, 39407.08
1100.017, 39424.70
1100.499, 39478.89
1100.981, 39561.32
1101.463, 39638.23
1101.945, 39718.10
1102.427, 39757.79
1102.910, 39678.84
1103.392, 39583.63
1103.874, 39598.42
1104.356, 39744.45
1104.838, 39842.63
1105.320, 39885.95
1105.802, 39903.68
1106.284, 39896.43
1106.766, 39892.88
1107.249, 39924.78
1107.731, 39990.32
1108.213, 40051.40
1108.695, 40111.27
1109.177, 40145.04
1109.659, 40133.09
1110.141, 40113.07
1110.623, 40163.09
1111.105, 40253.89
1111.588, 40325.68
1112.070, 40364.57
1112.552, 40379.02
1113.034, 40357.57
1113.516, 40332.69
1113.998, 40320.11
1114.480, 40322.64
1114.962, 40376.34
1115.445, 40474.62
1115.927, 40552.72
1116.409, 40554.91
1116.891, 40540.49
1117.373, 40527.24
1117.855, 40523.06
1118.337, 40549.88
1118.819, 40610.73
1119.302, 40660.97
1119.784, 40686.20
1120.266, 40717.51
1120.748, 40797.22
1121.230, 40894.81
1121.712, 40979.06
1122.194, 41044.79
1122.676, 41096.75
1123.158, 41136.27
1123.641, 41159.65
1124.123, 41161.27
1124.605, 41149.32
1125.087, 41123.99
1125.569, 41098.89
1126.051, 41111.23
1126.533, 41215.21
1127.015, 41306.04
1127.497, 41375.12
1127.980, 41418.98
1128.462, 41416.28
1128.944, 41381.38
1129.426, 41384.87
1129.908, 41433.77
1130.390, 41502.70
1130.872, 41615.41
1131.354, 41704.14
1131.837, 41710.04
1132.319, 41660.57
1132.801, 41687.89
1133.283, 41791.99
1133.765, 41898.10
1134.247, 41994.44
1134.729, 42053.43
1135.211, 41993.92
1135.693, 41907.81
1136.176, 41929.38
1136.658, 42122.52
1137.140, 42203.00
1137.622, 42145.42
1138.104, 42093.82
1138.586, 42185.90
1139.068, 42329.26
1139.550, 42395.23
1140.032, 42396.72
1140.515, 42400.32
1140.997, 42426.79
1141.479, 42447.46
1141.961, 42456.22
1142.443, 42462.75
1142.925, 42482.10
1143.407, 42511.18
1143.889, 42544.88
1144.372, 42585.26
1144.854, 42614.41
1145.336, 42597.45
1145.818, 42600.44
1146.300, 42667.25
1146.782, 42776.18
1147.264, 42810.02
1147.746, 42782.44
1148.229, 42775.87
1148.711, 42848.32
1149.193, 42921.68
1149.675, 42925.47
1150.157, 42927.63
1150.639, 43029.23
1151.121, 43247.20
1151.603, 43333.43
1152.085, 43271.52
1152.568, 43200.69
1153.050, 43207.96
1153.532, 43269.20
1154.014, 43394.29
1154.496, 43564.39
1154.978, 43674.14
1155.460, 43712.66
1155.942, 43741.48
1156.424, 43777.52
1156.906, 43800.20
1157.389, 43756.78
1157.871, 43698.75
1158.353, 43696.18
1158.835, 43775.42
1159.317, 43864.77
1159.799, 43981.27
1160.281, 44053.04
1160.763, 44019.35
1161.246, 43930.89
1161.728, 43877.31
1162.210, 43859.05
1162.692, 43878.00
1163.174, 43971.28
1163.656, 44051.05
1164.138, 44106.25
1164.620, 44147.00
1165.103, 44179.79
1165.585, 44207.79
1166.067, 44242.78
1166.549, 44284.95
1167.031, 44327.48
1167.513, 44370.69
1167.995, 44409.05
1168.477, 44440.57
1168.959, 44466.52
1169.442, 44480.63
1169.924, 44488.43
1170.406, 44528.93
1170.888, 44618.27
1171.370, 44713.80
1171.852, 44806.53
1172.334, 44877.01
1172.816, 44902.23
1173.298, 44884.45
1173.781, 44914.12
1174.263, 44990.36
1174.745, 45056.75
1175.227, 45084.39
1175.709, 45092.78
1176.191, 45069.73
1176.673, 45048.63
1177.155, 45089.41
1177.638, 45212.21
1178.120, 45306.39
1178.602, 45366.76
1179.084, 45406.23
1179.566, 45421.25
1180.048, 45432.25
1180.530, 45468.60
1181.012, 45522.90
1181.495, 45532.05
1181.977, 45469.74
1182.459, 45454.11
1182.941, 45516.95
1183.423, 45618.52
1183.905, 45741.52
1184.387, 45855.72
1184.869, 45912.13
1185.351, 45886.73
1185.833, 45892.51
1186.316, 45952.54
1186.798, 45992.39
1187.280, 45956.92
1187.762, 45897.58
1188.244, 45918.52
1188.726, 45993.95
1189.208, 46065.37
1189.690, 46120.85
1190.173, 46159.16
1190.655, 46172.55
1191.137, 46186.01
1191.619, 46223.82
1192.101, 46279.13
1192.583, 46331.62
1193.065, 46382.81
1193.547, 46445.24
1194.030, 46563.88
1194.512, 46633.61
1194.994, 46609.43
1195.476, 46557.84
1195.958, 46586.11
1196.440, 46678.14
1196.922, 46798.57
1197.404, 46945.33
1197.886, 47060.05
1198.369, 47097.17
1198.851, 47112.65
1199.333, 47114.98
1199.815, 47120.22
1200.297, 47213.16
1200.779, 47365.90
1201.261, 47450.88
1201.743, 47396.23
1202.225, 47334.70
1202.708, 47315.68
1203.190, 47324.09
1203.672, 47351.37
1204.154, 47397.46
1204.636, 47472.46
1205.118, 47570.93
1205.600, 47648.22
1206.082, 47657.13
1206.565, 47663.70
1207.047, 47707.66
1207.529, 47762.88
1208.011, 47789.53
1208.493, 47789.37
1208.975, 47812.61
1209.457, 47863.36
1209.939, 47942.50
1210.422, 48110.00
1210.904, 48248.97
1211.386, 48260.58
1211.868, 48191.75
1212.350, 48172.98
1212.832, 48202.34
1213.314, 48210.49
1213.796, 48169.14
1214.278, 48157.77
1214.760, 48262.51
1215.243, 48407.52
1215.725, 48537.50
1216.207, 48649.79
1216.689, 48728.91
1217.171, 48774.33
1217.653, 48798.02
1218.135, 48788.36
1218.617, 48785.96
1219.100, 48831.62
1219.582, 48898.57
1220.064, 48955.40
1220.546, 49003.79
1221.028, 49023.49
1221.510, 49013.38
1221.992, 49010.00
1222.474, 49056.47
1222.957, 49102.68
1223.439, 49087.31
1223.921, 49048.77
1224.403, 49085.29
1224.885, 49216.90
1225.367, 49294.24
1225.849, 49297.00
1226.331, 49293.67
1226.813, 49351.04
1227.296, 49423.29
1227.778, 49473.13
1228.260, 49500.17
1228.742, 49515.32
1229.224, 49512.58
1229.706, 49547.04
1230.188, 49639.53
1230.670, 49741.11
1231.152, 49795.46
1231.635, 49837.46
1232.117, 49907.25
1232.599, 50008.35
1233.081, 50084.17
1233.563, 50131.06
1234.045, 50198.01
1234.527, 50330.18
1235.009, 50451.43
1235.492, 50459.05
1235.974, 50418.96
1236.456, 50425.44
1236.938, 50494.05
1237.420, 50557.34
1237.902, 50616.86
1238.384, 50662.02
1238.866, 50685.46
1239.349, 50693.13
1239.831, 50678.13
1240.313, 50655.03
1240.795, 50652.26
1241.277, 50667.93
1241.759, 50721.09
1242.241, 50815.71
1242.723, 50920.52
1243.205, 51016.98
1243.688, 51102.43
1244.170, 51165.93
1244.652, 51214.24
1245.134, 51285.55
1245.616, 51386.29
1246.098, 51451.95
1246.580, 51464.37
1247.062, 51471.64
1247.544, 51520.64
1248.026, 51586.12
1248.509, 51646.22
1248.991, 51699.62
1249.473, 51751.46
1249.955, 51802.22
1250.437, 51851.96
1250.919, 51906.94
1251.401, 51945.25
1251.883, 51930.59
1252.366, 51900.24
1252.848, 51895.66
1253.330, 51919.40
1253.812, 51949.12
1254.294, 51985.53
1254.776, 52014.96
1255.258, 52006.19
1255.740, 52020.20
1256.223, 52137.14
1256.705, 52286.11
1257.187, 52376.70
1257.669, 52405.64
1258.151, 52363.68
1258.633, 52251.13
1259.115, 52177.06
1259.597, 52239.99
1260.079, 52338.76
1260.562, 52417.66
1261.044, 52485.05
1261.526, 52565.55
1262.008, 52659.79
1262.490, 52699.99
1262.972, 52678.92
1263.454, 52663.25
1263.936, 52685.78
1264.418, 52745.20
1264.901, 52886.88
1265.383, 53048.16
1265.865, 53060.40
1266.347, 52940.47
1266.829, 52868.00
1267.311, 52875.71
1267.793, 52934.81
1268.275, 53062.56
1268.758, 53201.19
1269.240, 53325.00
1269.722, 53427.62
1270.204, 53468.03
1270.686, 53457.45
1271.168, 53460.48
1271.650, 53499.44
1272.132, 53543.88
1272.615, 53581.02
1273.097, 53616.48
1273.579, 53655.11
1274.061, 53694.84
1274.543, 53717.00
1275.025, 53729.96
1275.507, 53769.07
1275.989, 53884.94
1276.471, 53962.99
1276.953, 53950.06
1277.436, 53923.22
1277.918, 53932.80
1278.400, 53975.47
1278.882, 54049.07
1279.364, 54146.06
1279.846, 54232.30
1280.328, 54294.76
1280.810, 54341.77
1281.293, 54369.98
1281.775, 54393.17
1282.257, 54422.03
1282.739, 54458.14
##END=



