##NAMES=Titanite
##RRUFFID=R050124
##IDEAL CHEMISTRY=CaTi^4+^SiO_5_
##LOCALITY=Capelinha, Minas Gerais, Brazil
##OWNER=RRUFF
##SOURCE=Carlos and Paulo Vasconcelos
##DESCRIPTION=Yellow tabular crystal
##STATUS=The identification of this mineral has been confirmed by X-ray diffraction and chemical analysis
##URL=rruff.info/R050124
##MEASURED CHEMISTRY=Ca_1.00_(Ti_0.93_Al_0.05_Fe^3+^_0.02_)Si_1.00_O_4_(O)_1.00_
94.30859, 1122.177
94.79071, 1067.410
95.27283, 1058.091
95.75494, 1098.371
96.23706, 1170.804
96.71918, 1254.464
97.20129, 1347.887
97.68341, 1451.509
98.16553, 1566.356
98.64764, 1691.225
99.12976, 1823.459
99.61188, 1961.520
100.0940, 2107.594
100.5761, 2275.304
101.0582, 2467.348
101.5403, 2666.960
102.0225, 2863.672
102.5046, 3054.262
102.9867, 3248.904
103.4688, 3450.850
103.9509, 3657.917
104.4330, 3867.751
104.9152, 4081.156
105.3973, 4290.984
105.8794, 4485.967
106.3615, 4667.764
106.8436, 4834.562
107.3257, 4985.072
107.8079, 5114.349
108.2900, 5243.949
108.7721, 5355.773
109.2542, 5473.001
109.7363, 5632.060
110.2184, 5833.073
110.7006, 6075.269
111.1827, 6357.845
111.6648, 6684.980
112.1469, 7042.308
112.6290, 7445.259
113.1111, 7872.953
113.5933, 8298.469
114.0754, 8716.405
114.5575, 9129.029
115.0396, 9535.756
115.5217, 9942.305
116.0038, 10341.90
116.4860, 10725.25
116.9681, 11098.34
117.4502, 11482.54
117.9323, 11886.65
118.4144, 12303.90
118.8965, 12729.89
119.3786, 13185.41
119.8608, 13629.04
120.3429, 14043.67
120.8250, 14430.18
121.3071, 14778.92
121.7892, 15094.43
122.2713, 15370.30
122.7535, 15598.84
123.2356, 15749.33
123.7177, 15868.48
124.1998, 15986.42
124.6819, 16104.98
125.1640, 16234.06
125.6462, 16382.53
126.1283, 16548.76
126.6104, 16729.38
127.0925, 16909.98
127.5746, 17108.73
128.0567, 17350.36
128.5389, 17637.97
129.0210, 17964.58
129.5031, 18332.41
129.9852, 18735.70
130.4673, 19141.56
130.9494, 19536.16
131.4316, 19912.86
131.9137, 20189.76
132.3958, 20349.72
132.8779, 20501.82
133.3600, 20657.58
133.8421, 20816.19
134.3243, 20966.22
134.8064, 21092.80
135.2885, 21198.20
135.7706, 21321.19
136.2527, 21469.36
136.7348, 21634.69
137.2170, 21790.94
137.6991, 21936.44
138.1812, 22085.65
138.6633, 22246.39
139.1454, 22418.09
139.6275, 22604.61
140.1097, 22799.95
140.5918, 23007.89
141.0739, 23247.60
141.5560, 23510.73
142.0381, 23814.55
142.5202, 24185.37
143.0023, 24639.31
143.4845, 25107.47
143.9666, 25595.99
144.4487, 26111.58
144.9308, 26525.87
145.4129, 26880.43
145.8951, 27103.21
146.3772, 27117.31
146.8593, 26851.19
147.3414, 26494.36
147.8235, 26055.48
148.3056, 25488.94
148.7878, 25047.87
149.2699, 24751.38
149.7520, 24565.72
150.2341, 24447.31
150.7162, 24395.36
151.1983, 24406.14
151.6805, 24475.68
152.1626, 24592.82
152.6447, 24792.34
153.1268, 25091.27
153.6089, 25471.12
154.0910, 25897.93
154.5732, 26349.27
155.0553, 26865.95
155.5374, 27459.12
156.0195, 28134.46
156.5016, 28871.43
156.9837, 29683.07
157.4659, 30550.89
157.9480, 31439.91
158.4301, 32357.37
158.9122, 33275.24
159.3943, 34176.04
159.8764, 35084.22
160.3586, 35932.21
160.8407, 36724.38
161.3228, 37447.34
161.8049, 38062.56
162.2870, 38569.74
162.7691, 38958.82
163.2513, 39224.23
163.7334, 39370.32
164.2155, 39386.56
164.6976, 39252.64
165.1797, 38980.14
165.6618, 38612.33
166.1440, 38137.13
166.6261, 37594.59
167.1082, 37018.01
167.5903, 36387.76
168.0724, 35756.48
168.5545, 35141.33
169.0367, 34545.85
169.5188, 33992.15
170.0009, 33494.17
170.4830, 33048.20
170.9651, 32635.00
171.4472, 32236.76
171.9293, 31880.23
172.4115, 31585.02
172.8936, 31350.64
173.3757, 31171.70
173.8578, 31051.77
174.3399, 30985.23
174.8220, 30962.76
175.3042, 30996.02
175.7863, 31062.75
176.2684, 31146.78
176.7505, 31247.60
177.2326, 31349.70
177.7147, 31426.29
178.1969, 31493.19
178.6790, 31583.33
179.1611, 31735.91
179.6432, 31909.57
180.1253, 32032.15
180.6074, 32099.34
181.0896, 32166.66
181.5717, 32300.58
182.0538, 32481.49
182.5359, 32652.81
183.0180, 32793.23
183.5001, 32904.90
183.9823, 32988.02
184.4644, 33041.66
184.9465, 33070.18
185.4286, 33079.99
185.9107, 33069.68
186.3928, 33030.50
186.8750, 32946.44
187.3571, 32830.21
187.8392, 32716.34
188.3213, 32605.63
188.8034, 32500.47
189.2855, 32400.69
189.7677, 32307.87
190.2498, 32234.96
190.7319, 32176.29
191.2140, 32138.97
191.6961, 32167.44
192.1782, 32269.10
192.6604, 32414.99
193.1425, 32567.11
193.6246, 32724.94
194.1067, 32888.77
194.5888, 33058.54
195.0709, 33232.88
195.5531, 33413.17
196.0352, 33603.98
196.5173, 33795.21
196.9994, 33966.24
197.4815, 34114.83
197.9636, 34268.93
198.4458, 34443.82
198.9279, 34639.43
199.4100, 34841.80
199.8921, 35051.31
200.3742, 35267.32
200.8563, 35484.88
201.3385, 35703.36
201.8206, 35937.13
202.3027, 36197.13
202.7848, 36486.37
203.2669, 36775.65
203.7490, 37063.94
204.2311, 37355.35
204.7133, 37664.52
205.1954, 37999.39
205.6775, 38321.57
206.1596, 38616.01
206.6417, 38884.99
207.1238, 39117.15
207.6060, 39307.57
208.0881, 39468.29
208.5702, 39629.77
209.0523, 39801.05
209.5344, 39945.28
210.0165, 40040.74
210.4987, 40079.85
210.9808, 40105.56
211.4629, 40120.23
211.9450, 40120.57
212.4271, 40093.07
212.9092, 40024.05
213.3914, 39960.18
213.8735, 39926.18
214.3556, 39930.54
214.8377, 39932.58
215.3198, 39928.05
215.8019, 39923.15
216.2841, 39931.55
216.7662, 39952.31
217.2483, 39989.38
217.7304, 40045.10
218.2125, 40119.61
218.6946, 40212.30
219.1768, 40328.91
219.6589, 40460.97
220.1410, 40590.82
220.6231, 40709.11
221.1052, 40843.36
221.5873, 41012.26
222.0695, 41231.04
222.5516, 41435.49
223.0337, 41621.62
223.5158, 41792.88
223.9979, 41966.39
224.4800, 42136.17
224.9622, 42315.19
225.4443, 42507.57
225.9264, 42718.98
226.4085, 42934.16
226.8906, 43161.49
227.3727, 43389.45
227.8549, 43600.53
228.3370, 43782.62
228.8191, 43964.77
229.3012, 44161.27
229.7833, 44375.20
230.2654, 44592.43
230.7476, 44815.04
231.2297, 45039.54
231.7118, 45261.02
232.1939, 45494.39
232.6760, 45700.50
233.1581, 45862.27
233.6402, 45962.77
234.1224, 46063.34
234.6045, 46181.46
235.0866, 46292.74
235.5687, 46342.87
236.0508, 46308.79
236.5329, 46250.04
237.0151, 46183.89
237.4972, 46100.56
237.9793, 46035.86
238.4614, 45981.32
238.9435, 45948.42
239.4256, 45956.43
239.9078, 45993.74
240.3899, 46090.46
240.8720, 46259.16
241.3541, 46507.52
241.8362, 46801.79
242.3183, 47140.63
242.8005, 47530.37
243.2826, 47985.27
243.7647, 48501.29
244.2468, 49082.54
244.7289, 49740.27
245.2110, 50494.66
245.6932, 51243.62
246.1753, 51979.79
246.6574, 52715.18
247.1395, 53472.81
247.6216, 54255.90
248.1037, 55041.25
248.5859, 55837.48
249.0680, 56653.80
249.5501, 57386.03
250.0322, 58022.43
250.5143, 58582.64
250.9964, 59095.97
251.4786, 59581.14
251.9607, 59984.73
252.4428, 60289.74
252.9249, 60486.77
253.4070, 60650.95
253.8891, 60809.63
254.3713, 60910.67
254.8534, 60887.64
255.3355, 60713.13
255.8176, 60472.97
256.2997, 60193.95
256.7818, 59882.77
257.2639, 59453.26
257.7461, 58890.06
258.2282, 58223.08
258.7103, 57489.06
259.1924, 56679.40
259.6745, 55805.14
260.1566, 54887.46
260.6388, 53914.20
261.1209, 52870.23
261.6030, 51732.96
262.0851, 50541.49
262.5672, 49339.50
263.0493, 48105.64
263.5315, 46885.71
264.0136, 45679.79
264.4957, 44496.38
264.9778, 43358.81
265.4599, 42283.75
265.9420, 41243.25
266.4242, 40228.96
266.9063, 39225.51
267.3884, 38264.88
267.8705, 37343.79
268.3526, 36471.43
268.8347, 35677.16
269.3169, 34980.57
269.7990, 34332.44
270.2811, 33685.55
270.7632, 33028.71
271.2453, 32439.67
271.7274, 31930.60
272.2096, 31489.46
272.6917, 31053.34
273.1738, 30612.07
273.6559, 30192.23
274.1380, 29810.34
274.6201, 29465.06
275.1023, 29145.26
275.5844, 28848.82
276.0665, 28580.27
276.5486, 28337.22
277.0307, 28120.28
277.5128, 27933.92
277.9950, 27786.65
278.4771, 27681.19
278.9592, 27579.49
279.4413, 27475.07
279.9234, 27380.07
280.4055, 27316.46
280.8877, 27284.46
281.3698, 27278.41
281.8519, 27300.72
282.3340, 27351.17
282.8161, 27405.01
283.2982, 27459.43
283.7804, 27523.28
284.2625, 27612.09
284.7446, 27726.65
285.2267, 27845.62
285.7088, 27956.32
286.1909, 28062.14
286.6731, 28189.94
287.1552, 28341.86
287.6373, 28507.10
288.1194, 28682.98
288.6015, 28868.08
289.0836, 29025.71
289.5658, 29150.18
290.0479, 29237.59
290.5300, 29272.22
291.0121, 29253.16
291.4942, 29189.63
291.9763, 29085.89
292.4585, 28944.25
292.9406, 28768.37
293.4227, 28548.22
293.9048, 28304.72
294.3869, 28076.29
294.8690, 27861.97
295.3512, 27678.82
295.8333, 27521.32
296.3154, 27401.90
296.7975, 27356.23
297.2796, 27391.71
297.7617, 27504.79
298.2439, 27699.35
298.7260, 27971.16
299.2081, 28300.01
299.6902, 28689.65
300.1723, 29121.98
300.6544, 29579.71
301.1366, 30058.43
301.6187, 30553.42
302.1008, 31072.74
302.5829, 31604.09
303.0650, 32121.07
303.5471, 32620.84
304.0293, 33087.57
304.5114, 33493.89
304.9935, 33838.11
305.4756, 34135.40
305.9577, 34399.60
306.4398, 34630.22
306.9220, 34828.95
307.4041, 34987.37
307.8862, 35119.66
308.3683, 35245.34
308.8504, 35364.18
309.3326, 35468.73
309.8147, 35528.81
310.2968, 35574.02
310.7789, 35649.58
311.2610, 35776.11
311.7431, 35937.77
312.2252, 36123.29
312.7073, 36333.23
313.1895, 36573.29
313.6716, 36856.96
314.1537, 37169.46
314.6358, 37493.98
315.1179, 37866.15
315.6000, 38206.32
316.0822, 38482.93
316.5643, 38695.98
317.0464, 38844.87
317.5285, 38946.63
318.0106, 38973.61
318.4927, 38903.95
318.9749, 38715.78
319.4570, 38459.05
319.9391, 38131.07
320.4212, 37747.55
320.9033, 37338.30
321.3854, 36890.76
321.8676, 36436.17
322.3497, 35983.57
322.8318, 35523.54
323.3139, 35096.49
323.7960, 34683.92
324.2781, 34317.21
324.7603, 34034.46
325.2424, 33876.54
325.7245, 33771.64
326.2066, 33700.53
326.6887, 33661.09
327.1708, 33664.97
327.6530, 33726.13
328.1351, 33825.74
328.6172, 33946.96
329.0993, 34096.32
329.5814, 34260.25
330.0635, 34441.89
330.5457, 34640.80
331.0278, 34840.89
331.5099, 35055.04
331.9920, 35261.29
332.4741, 35444.07
332.9562, 35625.46
333.4384, 35750.55
333.9205, 35813.40
334.4026, 35816.65
334.8847, 35772.01
335.3668, 35678.12
335.8489, 35536.25
336.3311, 35347.95
336.8132, 35113.16
337.2953, 34825.74
337.7774, 34479.40
338.2595, 34086.84
338.7416, 33678.68
339.2238, 33252.38
339.7059, 32809.52
340.1880, 32352.51
340.6701, 31881.41
341.1522, 31397.83
341.6343, 30891.12
342.1165, 30387.12
342.5986, 29905.47
343.0807, 29444.09
343.5628, 29012.52
344.0449, 28608.92
344.5270, 28236.30
345.0092, 27879.09
345.4913, 27531.24
345.9734, 27220.04
346.4555, 26974.27
346.9376, 26789.87
347.4197, 26613.85
347.9019, 26438.10
348.3840, 26266.32
348.8661, 26093.79
349.3482, 25922.25
349.8303, 25768.57
350.3124, 25664.11
350.7946, 25584.04
351.2767, 25464.67
351.7588, 25297.74
352.2409, 25092.08
352.7230, 24856.60
353.2051, 24590.21
353.6873, 24283.55
354.1694, 23922.75
354.6515, 23526.50
355.1336, 23110.47
355.6157, 22669.56
356.0978, 22238.46
356.5800, 21838.03
357.0621, 21460.69
357.5442, 21094.95
358.0263, 20731.39
358.5084, 20384.62
358.9905, 20066.99
359.4727, 19775.88
359.9548, 19488.98
360.4369, 19178.32
360.9190, 18878.08
361.4011, 18621.94
361.8832, 18437.97
362.3654, 18257.76
362.8475, 18048.15
363.3296, 17820.64
363.8117, 17598.51
364.2938, 17388.59
364.7759, 17189.48
365.2581, 17006.25
365.7402, 16846.10
366.2223, 16671.75
366.7044, 16462.14
367.1865, 16239.35
367.6686, 16024.56
368.1508, 15832.42
368.6329, 15639.53
369.1150, 15441.19
369.5971, 15237.25
370.0792, 15032.45
370.5613, 14830.41
371.0435, 14626.87
371.5256, 14419.89
372.0077, 14208.94
372.4898, 13994.19
372.9719, 13770.97
373.4540, 13542.35
373.9361, 13317.50
374.4182, 13102.02
374.9004, 12885.13
375.3825, 12660.42
375.8646, 12425.75
376.3467, 12199.10
376.8288, 11981.98
377.3109, 11768.34
377.7931, 11544.33
378.2752, 11305.96
378.7573, 11071.06
379.2394, 10839.89
379.7215, 10615.52
380.2036, 10405.44
380.6858, 10214.65
381.1679, 10031.80
381.6500, 9843.804
382.1321, 9651.641
382.6142, 9490.480
383.0963, 9370.139
383.5785, 9276.531
384.0606, 9180.704
384.5427, 9084.946
385.0248, 8995.238
385.5069, 8913.877
385.9890, 8842.214
386.4712, 8788.781
386.9533, 8756.638
387.4354, 8728.862
387.9175, 8690.813
388.3996, 8644.160
388.8817, 8592.146
389.3639, 8538.526
389.8460, 8479.420
390.3281, 8410.826
390.8102, 8332.874
391.2923, 8245.611
391.7744, 8144.975
392.2566, 8036.047
392.7387, 7922.136
393.2208, 7801.461
393.7029, 7680.712
394.1850, 7560.729
394.6671, 7442.515
395.1493, 7327.315
395.6314, 7212.450
396.1135, 7103.370
396.5956, 7001.813
397.0777, 6906.615
397.5598, 6820.521
398.0420, 6744.390
398.5241, 6677.468
399.0062, 6618.875
399.4883, 6564.498
399.9704, 6522.333
400.4525, 6496.572
400.9347, 6486.593
401.4168, 6481.761
401.8989, 6482.006
402.3810, 6487.340
402.8631, 6497.341
403.3452, 6509.021
403.8274, 6531.444
404.3095, 6566.102
404.7916, 6610.938
405.2737, 6660.927
405.7558, 6715.578
406.2379, 6776.979
406.7201, 6845.450
407.2022, 6920.820
407.6843, 7009.666
408.1664, 7113.121
408.6485, 7225.425
409.1306, 7338.340
409.6128, 7452.338
410.0949, 7571.083
410.5770, 7695.510
411.0591, 7825.806
411.5412, 7956.440
412.0233, 8088.737
412.5055, 8234.881
412.9876, 8405.592
413.4697, 8596.760
413.9518, 8796.455
414.4339, 9000.737
414.9160, 9215.829
415.3982, 9452.447
415.8803, 9702.938
416.3624, 9959.771
416.8445, 10214.27
417.3266, 10475.23
417.8087, 10756.87
418.2909, 11056.42
418.7730, 11366.48
419.2551, 11687.81
419.7372, 12012.32
420.2193, 12328.33
420.7014, 12633.42
421.1836, 12928.66
421.6657, 13216.46
422.1478, 13491.76
422.6299, 13747.35
423.1120, 13997.49
423.5941, 14211.99
424.0763, 14370.30
424.5584, 14468.11
425.0405, 14536.18
425.5226, 14578.95
426.0047, 14593.14
426.4868, 14574.80
426.9690, 14510.57
427.4511, 14431.69
427.9332, 14339.67
428.4153, 14236.13
428.8974, 14127.50
429.3795, 14007.01
429.8617, 13893.31
430.3438, 13799.34
430.8259, 13731.40
431.3080, 13651.93
431.7901, 13552.79
432.2722, 13453.72
432.7544, 13384.16
433.2365, 13346.84
433.7186, 13315.62
434.2007, 13278.35
434.6828, 13241.37
435.1649, 13232.82
435.6470, 13253.71
436.1292, 13283.29
436.6113, 13299.45
437.0934, 13309.83
437.5755, 13340.03
438.0576, 13397.25
438.5397, 13467.09
439.0219, 13532.58
439.5040, 13596.52
439.9861, 13666.03
440.4682, 13748.89
440.9503, 13837.22
441.4324, 13923.86
441.9146, 14008.60
442.3967, 14093.43
442.8788, 14166.35
443.3609, 14246.76
443.8430, 14353.01
444.3251, 14505.86
444.8073, 14666.27
445.2894, 14816.66
445.7715, 14964.01
446.2536, 15126.45
446.7357, 15308.61
447.2178, 15502.28
447.7000, 15717.63
448.1821, 15939.26
448.6642, 16182.66
449.1463, 16440.49
449.6284, 16723.22
450.1105, 17044.74
450.5927, 17418.96
451.0748, 17807.88
451.5569, 18210.58
452.0390, 18624.54
452.5211, 19055.82
453.0032, 19499.32
453.4854, 19964.92
453.9675, 20450.81
454.4496, 20958.92
454.9317, 21495.99
455.4138, 22059.91
455.8959, 22652.31
456.3781, 23273.70
456.8602, 23926.18
457.3423, 24606.19
457.8244, 25299.64
458.3065, 26025.82
458.7886, 26810.61
459.2708, 27660.52
459.7529, 28532.19
460.2350, 29413.57
460.7171, 30308.34
461.1992, 31242.50
461.6813, 32217.13
462.1635, 33207.76
462.6456, 34219.43
463.1277, 35238.13
463.6098, 36249.07
464.0919, 37281.09
464.5740, 38267.48
465.0562, 39206.71
465.5383, 40086.29
466.0204, 40858.48
466.5025, 41549.86
466.9846, 42110.83
467.4667, 42516.65
467.9489, 42797.23
468.4310, 42864.05
468.9131, 42714.48
469.3952, 42346.47
469.8773, 41751.65
470.3594, 40881.13
470.8416, 39848.79
471.3237, 38652.24
471.8058, 37310.73
472.2879, 35880.52
472.7700, 34342.14
473.2521, 32773.70
473.7343, 31226.74
474.2164, 29699.56
474.6985, 28218.20
475.1806, 26771.01
475.6627, 25393.89
476.1448, 24111.51
476.6270, 22923.01
477.1091, 21823.15
477.5912, 20811.10
478.0733, 19885.23
478.5554, 19047.96
479.0375, 18294.39
479.5197, 17615.21
480.0018, 17005.35
480.4839, 16456.21
480.9660, 15958.96
481.4481, 15514.00
481.9302, 15112.94
482.4124, 14755.68
482.8945, 14437.47
483.3766, 14149.93
483.8587, 13884.96
484.3408, 13651.99
484.8229, 13461.35
485.3051, 13309.27
485.7872, 13171.34
486.2693, 13038.31
486.7514, 12919.61
487.2335, 12822.21
487.7156, 12748.93
488.1978, 12687.22
488.6799, 12639.79
489.1620, 12601.28
489.6441, 12564.97
490.1262, 12528.58
490.6083, 12499.91
491.0905, 12483.15
491.5726, 12475.45
492.0547, 12462.50
492.5368, 12443.49
493.0189, 12425.53
493.5010, 12412.85
493.9832, 12405.48
494.4653, 12403.14
494.9474, 12406.83
495.4295, 12411.41
495.9116, 12410.51
496.3937, 12405.75
496.8758, 12401.37
497.3579, 12397.91
497.8401, 12396.12
498.3222, 12396.41
498.8043, 12398.73
499.2864, 12403.31
499.7685, 12418.54
500.2506, 12430.00
500.7328, 12421.87
501.2149, 12388.00
501.6970, 12364.24
502.1791, 12371.80
502.6612, 12391.69
503.1433, 12405.99
503.6255, 12398.44
504.1076, 12401.07
504.5897, 12421.18
505.0718, 12454.57
505.5539, 12488.51
506.0360, 12517.58
506.5182, 12556.85
507.0003, 12612.67
507.4824, 12685.88
507.9645, 12760.55
508.4466, 12833.77
508.9287, 12914.58
509.4109, 13014.62
509.8930, 13133.68
510.3751, 13250.41
510.8572, 13362.88
511.3393, 13471.82
511.8214, 13577.10
512.3036, 13680.64
512.7857, 13793.35
513.2678, 13922.41
513.7499, 14062.56
514.2321, 14210.30
514.7142, 14363.59
515.1963, 14515.39
515.6784, 14660.14
516.1605, 14801.32
516.6426, 14941.64
517.1248, 15080.26
517.6069, 15222.21
518.0890, 15375.10
518.5711, 15532.01
519.0532, 15680.81
519.5353, 15801.24
520.0175, 15934.42
520.4996, 16093.16
520.9817, 16273.97
521.4638, 16460.94
521.9459, 16659.40
522.4280, 16857.81
522.9102, 17046.15
523.3923, 17220.88
523.8744, 17410.90
524.3565, 17620.42
524.8386, 17838.60
525.3207, 18051.01
525.8029, 18255.90
526.2849, 18471.65
526.7670, 18698.33
527.2491, 18940.42
527.7313, 19203.67
528.2134, 19487.24
528.6955, 19781.71
529.1776, 20081.63
529.6597, 20386.18
530.1418, 20692.67
530.6240, 20996.03
531.1061, 21310.75
531.5882, 21640.56
532.0703, 21984.05
532.5524, 22340.71
533.0345, 22710.12
533.5167, 23087.12
533.9988, 23470.18
534.4809, 23857.10
534.9630, 24242.56
535.4451, 24632.43
535.9272, 25017.56
536.4094, 25403.17
536.8915, 25786.66
537.3736, 26152.01
537.8557, 26499.84
538.3378, 26835.29
538.8199, 27162.11
539.3021, 27480.71
539.7842, 27788.22
540.2663, 28089.53
540.7484, 28374.38
541.2305, 28630.85
541.7126, 28861.75
542.1948, 29072.65
542.6769, 29263.05
543.1590, 29433.65
543.6411, 29576.86
544.1232, 29696.08
544.6053, 29803.32
545.0875, 29911.94
545.5696, 30009.21
546.0517, 30083.32
546.5338, 30134.40
547.0159, 30166.19
547.4980, 30185.71
547.9802, 30184.07
548.4623, 30153.70
548.9444, 30085.19
549.4265, 30002.29
549.9086, 29913.26
550.3907, 29809.56
550.8729, 29678.20
551.3550, 29517.10
551.8371, 29330.84
552.3192, 29119.14
552.8013, 28882.96
553.2834, 28631.61
553.7656, 28367.43
554.2477, 28074.38
554.7298, 27732.64
555.2119, 27345.15
555.6940, 26958.86
556.1761, 26572.37
556.6583, 26187.92
557.1404, 25802.42
557.6225, 25419.74
558.1046, 25058.13
558.5867, 24726.28
559.0688, 24399.78
559.5510, 24049.08
560.0331, 23689.95
560.5152, 23346.11
560.9973, 23027.59
561.4794, 22726.30
561.9615, 22451.11
562.4437, 22198.91
562.9258, 21932.11
563.4079, 21627.96
563.8900, 21319.33
564.3721, 21025.02
564.8542, 20748.98
565.3364, 20465.94
565.8185, 20176.52
566.3006, 19887.04
566.7827, 19602.92
567.2648, 19324.95
567.7469, 19061.41
568.2291, 18809.51
568.7112, 18578.91
569.1933, 18382.74
569.6754, 18221.58
570.1575, 18089.59
570.6396, 17978.96
571.1218, 17898.58
571.6039, 17866.08
572.0860, 17880.08
572.5681, 17927.44
573.0502, 17999.29
573.5323, 18099.87
574.0145, 18235.49
574.4966, 18406.69
574.9787, 18607.15
575.4608, 18829.61
575.9429, 19080.83
576.4250, 19364.89
576.9072, 19695.93
577.3893, 20043.93
577.8714, 20398.07
578.3535, 20765.86
578.8356, 21151.84
579.3177, 21552.40
579.7999, 21978.55
580.2820, 22440.46
580.7641, 22933.81
581.2462, 23440.20
581.7283, 23959.17
582.2104, 24498.02
582.6926, 25063.66
583.1747, 25653.55
583.6568, 26256.68
584.1389, 26877.17
584.6210, 27520.36
585.1031, 28185.19
585.5853, 28873.32
586.0674, 29582.63
586.5495, 30307.82
587.0316, 31058.86
587.5137, 31856.16
587.9958, 32686.09
588.4780, 33528.27
588.9601, 34363.92
589.4422, 35225.29
589.9243, 36140.66
590.4064, 37102.46
590.8885, 38047.48
591.3707, 38950.93
591.8528, 39877.13
592.3349, 40861.23
592.8170, 41912.41
593.2991, 42962.22
593.7813, 44012.72
594.2634, 45078.81
594.7455, 46159.71
595.2276, 47260.38
595.7097, 48384.30
596.1918, 49532.81
596.6740, 50707.18
597.1561, 51900.29
597.6382, 53115.87
598.1203, 54331.39
598.6024, 55574.18
599.0845, 56794.60
599.5667, 57953.41
600.0488, 59066.86
600.5309, 60175.70
601.0130, 61299.90
601.4951, 62416.66
601.9772, 63508.13
602.4594, 64582.54
602.9415, 65617.63
603.4236, 66627.45
603.9057, 67581.98
604.3878, 68478.56
604.8699, 69302.95
605.3521, 70067.55
605.8342, 70777.07
606.3163, 71422.11
606.7984, 72006.61
607.2805, 72524.55
607.7626, 72968.88
608.2448, 73340.51
608.7269, 73632.77
609.2090, 73836.84
609.6911, 73961.20
610.1732, 74035.98
610.6553, 74109.00
611.1375, 74106.28
611.6196, 73960.53
612.1017, 73680.58
612.5838, 73366.39
613.0659, 73078.16
613.5480, 72734.32
614.0302, 72290.61
614.5123, 71738.30
614.9944, 71138.02
615.4765, 70481.50
615.9586, 69795.58
616.4407, 69095.75
616.9229, 68394.21
617.4050, 67654.82
617.8871, 66862.80
618.3692, 66040.76
618.8513, 65218.77
619.3334, 64396.80
619.8156, 63546.61
620.2977, 62659.24
620.7798, 61764.15
621.2619, 60907.40
621.7440, 60079.70
622.2261, 59235.69
622.7083, 58348.18
623.1904, 57453.34
623.6725, 56561.04
624.1546, 55680.36
624.6367, 54825.22
625.1188, 54019.20
625.6010, 53222.91
626.0831, 52415.10
626.5652, 51588.24
627.0473, 50789.25
627.5294, 50028.23
628.0115, 49283.52
628.4937, 48545.14
628.9758, 47806.79
629.4579, 47070.80
629.9400, 46332.34
630.4221, 45595.62
630.9042, 44860.20
631.3864, 44127.77
631.8685, 43419.07
632.3506, 42741.59
632.8327, 42081.65
633.3148, 41434.21
633.7969, 40793.05
634.2791, 40152.72
634.7612, 39486.71
635.2433, 38836.82
635.7254, 38221.98
636.2075, 37647.09
636.6896, 37081.63
637.1718, 36515.94
637.6539, 35965.17
638.1360, 35437.36
638.6181, 34940.77
639.1002, 34440.86
639.5823, 33930.84
640.0645, 33431.87
640.5466, 32969.95
641.0287, 32537.63
641.5108, 32101.01
641.9929, 31654.98
642.4750, 31217.49
642.9572, 30816.53
643.4393, 30444.33
643.9214, 30080.73
644.4035, 29718.34
644.8856, 29367.50
645.3677, 29041.75
645.8499, 28732.63
646.3320, 28429.03
646.8141, 28119.96
647.2962, 27821.22
647.7783, 27541.31
648.2604, 27278.07
648.7426, 26999.39
649.2247, 26698.39
649.7068, 26403.47
650.1888, 26126.37
650.6710, 25868.47
651.1531, 25615.42
651.6352, 25370.99
652.1173, 25127.85
652.5994, 24877.77
653.0815, 24623.73
653.5637, 24367.42
654.0458, 24104.90
654.5279, 23852.80
655.0100, 23627.87
655.4921, 23417.32
655.9742, 23206.66
656.4564, 22988.36
656.9385, 22775.15
657.4206, 22570.08
657.9027, 22370.92
658.3848, 22178.44
658.8669, 21997.28
659.3491, 21812.79
659.8312, 21622.23
660.3133, 21425.70
660.7954, 21213.39
661.2775, 20984.19
661.7596, 20770.45
662.2418, 20594.18
662.7239, 20439.41
663.2060, 20274.58
663.6881, 20100.28
664.1702, 19924.12
664.6523, 19754.21
665.1345, 19582.88
665.6166, 19399.97
666.0987, 19204.02
666.5808, 19015.59
667.0629, 18843.08
667.5450, 18682.13
668.0272, 18532.79
668.5093, 18403.09
668.9914, 18261.79
669.4735, 18100.65
669.9556, 17937.78
670.4377, 17791.06
670.9199, 17662.73
671.4020, 17531.40
671.8841, 17392.76
672.3662, 17253.18
672.8483, 17130.60
673.3304, 17016.84
673.8126, 16886.65
674.2947, 16714.71
674.7768, 16544.84
675.2589, 16414.05
675.7410, 16310.19
676.2231, 16204.93
676.7053, 16086.32
677.1874, 15967.85
677.6695, 15858.18
678.1516, 15754.94
678.6337, 15637.56
679.1158, 15495.36
679.5980, 15356.07
680.0801, 15231.35
680.5622, 15120.67
681.0443, 14997.51
681.5264, 14861.31
682.0085, 14728.29
682.4907, 14615.50
682.9728, 14515.89
683.4549, 14410.29
683.9370, 14298.29
684.4191, 14188.84
684.9012, 14096.35
685.3834, 14007.04
685.8655, 13906.69
686.3476, 13788.96
686.8297, 13673.70
687.3118, 13568.60
687.7939, 13467.83
688.2761, 13366.03
688.7582, 13260.30
689.2403, 13159.89
689.7224, 13065.08
690.2045, 12977.26
690.6866, 12898.74
691.1688, 12829.53
691.6509, 12755.87
692.1330, 12674.00
692.6151, 12586.04
693.0972, 12494.31
693.5793, 12399.75
694.0615, 12307.40
694.5436, 12214.66
695.0257, 12126.97
695.5078, 12052.96
695.9899, 11988.21
696.4720, 11914.54
696.9542, 11816.72
697.4363, 11720.47
697.9184, 11635.58
698.4005, 11561.21
698.8826, 11487.98
699.3647, 11414.80
699.8469, 11345.77
700.3290, 11287.97
700.8111, 11238.18
701.2932, 11170.33
701.7753, 11084.62
702.2574, 10997.55
702.7396, 10924.41
703.2217, 10857.40
703.7038, 10787.70
704.1859, 10714.67
704.6680, 10634.70
705.1501, 10533.67
705.6323, 10432.65
706.1144, 10348.25
706.5965, 10293.78
707.0786, 10239.24
707.5607, 10188.86
708.0428, 10134.45
708.5250, 10063.31
709.0071, 9970.963
709.4892, 9890.891
709.9713, 9828.030
710.4534, 9773.948
710.9355, 9717.807
711.4177, 9659.802
711.8998, 9601.771
712.3819, 9542.852
712.8640, 9484.898
713.3461, 9435.068
713.8282, 9387.456
714.3104, 9331.624
714.7925, 9251.737
715.2746, 9177.763
715.7567, 9121.162
716.2388, 9077.160
716.7209, 9031.085
717.2031, 8985.608
717.6852, 8933.502
718.1673, 8869.064
718.6494, 8797.840
719.1315, 8739.443
719.6136, 8694.008
720.0958, 8651.441
720.5779, 8609.990
721.0600, 8566.591
721.5421, 8516.312
722.0242, 8459.616
722.5063, 8403.814
722.9885, 8347.379
723.4706, 8297.067
723.9527, 8262.384
724.4348, 8246.451
724.9169, 8215.123
725.3990, 8160.417
725.8812, 8098.551
726.3633, 8036.792
726.8454, 7974.823
727.3275, 7922.726
727.8096, 7882.984
728.2917, 7842.579
728.7739, 7784.803
729.2560, 7717.975
729.7381, 7664.862
730.2202, 7629.383
730.7023, 7594.853
731.1844, 7547.690
731.6666, 7495.176
732.1487, 7444.817
732.6308, 7401.430
733.1129, 7353.984
733.5950, 7294.138
734.0771, 7232.586
734.5593, 7179.022
735.0414, 7135.242
735.5235, 7092.151
736.0056, 7046.549
736.4877, 7005.947
736.9698, 6991.112
737.4520, 6993.839
737.9341, 6970.173
738.4162, 6902.125
738.8983, 6821.593
739.3804, 6756.104
739.8625, 6702.212
740.3447, 6652.833
740.8268, 6609.672
741.3089, 6566.229
741.7910, 6518.285
742.2731, 6469.162
742.7552, 6426.430
743.2374, 6394.098
743.7195, 6360.286
744.2016, 6322.792
744.6837, 6282.563
745.1658, 6242.562
745.6479, 6202.534
746.1301, 6160.868
746.6122, 6113.218
747.0943, 6066.453
747.5764, 6032.052
748.0585, 6007.202
748.5406, 5982.871
749.0228, 5957.033
749.5049, 5928.659
749.9870, 5897.942
750.4691, 5864.534
750.9512, 5826.208
751.4333, 5775.782
751.9155, 5732.964
752.3976, 5706.778
752.8797, 5694.044
753.3618, 5672.060
753.8439, 5640.604
754.3260, 5609.540
754.8082, 5587.282
755.2903, 5568.602
755.7724, 5543.769
756.2545, 5513.396
756.7366, 5484.489
757.2188, 5461.474
757.7009, 5440.479
758.1830, 5419.710
758.6651, 5399.297
759.1472, 5376.000
759.6293, 5349.258
760.1115, 5320.302
760.5936, 5287.586
761.0757, 5251.051
761.5578, 5227.599
762.0399, 5218.541
762.5220, 5212.729
763.0042, 5203.253
763.4863, 5190.244
763.9684, 5172.485
764.4505, 5149.782
764.9326, 5127.907
765.4147, 5110.878
765.8969, 5095.896
766.3790, 5080.948
766.8611, 5066.340
767.3432, 5050.405
767.8253, 5031.043
768.3074, 5012.854
768.7896, 4999.948
769.2717, 4993.229
769.7538, 4983.500
770.2359, 4970.282
770.7180, 4955.996
771.2001, 4943.929
771.6823, 4932.397
772.1644, 4917.084
772.6465, 4896.619
773.1285, 4878.071
773.6107, 4870.411
774.0928, 4864.040
774.5749, 4848.794
775.0570, 4812.563
775.5391, 4792.876
776.0212, 4803.035
776.5034, 4817.100
776.9855, 4810.929
777.4676, 4782.892
777.9497, 4753.857
778.4318, 4725.006
778.9139, 4698.296
779.3961, 4675.836
779.8782, 4657.287
780.3603, 4642.939
780.8424, 4634.187
781.3245, 4624.100
781.8066, 4605.906
782.2888, 4585.595
782.7709, 4569.120
783.2530, 4564.256
783.7351, 4551.487
784.2172, 4525.456
784.6993, 4497.222
785.1815, 4480.340
785.6636, 4475.104
786.1457, 4468.199
786.6278, 4457.613
787.1099, 4446.485
787.5920, 4439.106
788.0742, 4433.594
788.5563, 4425.903
789.0384, 4413.616
789.5205, 4402.851
790.0026, 4399.340
790.4847, 4397.765
790.9669, 4391.792
791.4490, 4374.847
791.9311, 4364.202
792.4132, 4361.753
792.8953, 4363.714
793.3774, 4365.249
793.8596, 4366.407
794.3417, 4370.516
794.8238, 4379.334
795.3059, 4386.118
795.7880, 4378.723
796.2701, 4365.579
796.7523, 4360.563
797.2344, 4371.759
797.7165, 4382.902
798.1986, 4387.042
798.6807, 4388.718
799.1628, 4393.794
799.6450, 4405.128
800.1271, 4412.757
800.6092, 4413.775
801.0913, 4415.104
801.5734, 4427.987
802.0555, 4450.433
802.5377, 4470.278
803.0198, 4484.492
803.5019, 4498.983
803.9840, 4519.190
804.4661, 4543.588
804.9482, 4570.274
805.4304, 4603.262
805.9125, 4631.037
806.3946, 4643.740
806.8767, 4654.126
807.3588, 4675.320
807.8409, 4709.772
808.3231, 4745.455
808.8052, 4781.456
809.2873, 4818.017
809.7694, 4858.699
810.2515, 4900.609
810.7336, 4933.704
811.2158, 4952.956
811.6979, 4973.620
812.1800, 5011.272
812.6621, 5054.318
813.1442, 5090.330
813.6263, 5113.554
814.1085, 5134.493
814.5906, 5150.998
815.0727, 5168.332
815.5548, 5194.706
816.0369, 5231.210
816.5190, 5257.763
817.0012, 5271.819
817.4833, 5279.705
817.9654, 5288.388
818.4475, 5296.061
818.9296, 5299.047
819.4117, 5295.938
819.8939, 5290.854
820.3760, 5284.456
820.8581, 5277.794
821.3402, 5272.260
821.8223, 5271.366
822.3044, 5262.832
822.7866, 5244.201
823.2687, 5222.273
823.7508, 5203.444
824.2329, 5187.521
824.7150, 5173.398
825.1971, 5161.232
825.6793, 5149.121
826.1614, 5136.145
826.6435, 5122.095
827.1256, 5106.609
827.6077, 5089.464
828.0898, 5071.839
828.5720, 5048.823
829.0541, 5029.786
829.5362, 5022.695
830.0183, 5031.301
830.5004, 5029.813
830.9825, 5016.065
831.4647, 5002.796
831.9468, 5003.495
832.4289, 5012.885
832.9110, 5018.275
833.3931, 5018.573
833.8752, 5024.211
834.3574, 5043.289
834.8395, 5068.869
835.3216, 5096.530
835.8037, 5126.085
836.2858, 5156.705
836.7679, 5186.486
837.2501, 5221.343
837.7322, 5265.488
838.2143, 5318.198
838.6964, 5374.188
839.1785, 5433.511
839.6606, 5495.696
840.1428, 5558.548
840.6249, 5625.755
841.1070, 5701.449
841.5891, 5785.604
842.0712, 5878.091
842.5533, 5987.768
843.0355, 6096.503
843.5176, 6194.083
843.9997, 6282.289
844.4818, 6390.042
844.9639, 6520.777
845.4460, 6649.492
845.9282, 6758.438
846.4103, 6858.797
846.8924, 6973.396
847.3745, 7100.459
847.8566, 7230.337
848.3387, 7358.478
848.8209, 7487.646
849.3030, 7620.221
849.7851, 7755.490
850.2672, 7890.555
850.7493, 8027.373
851.2314, 8157.074
851.7136, 8276.819
852.1957, 8388.402
852.6778, 8498.304
853.1599, 8604.961
853.6420, 8694.356
854.1241, 8756.727
854.6063, 8802.701
855.0884, 8840.939
855.5705, 8869.460
856.0526, 8883.765
856.5347, 8892.166
857.0168, 8872.509
857.4990, 8819.979
857.9811, 8739.551
858.4632, 8638.139
858.9453, 8513.596
859.4274, 8392.994
859.9095, 8287.262
860.3917, 8176.703
860.8738, 8025.810
861.3559, 7853.302
861.8380, 7694.007
862.3201, 7565.677
862.8022, 7437.108
863.2844, 7293.995
863.7665, 7147.316
864.2486, 7011.371
864.7307, 6887.123
865.2128, 6766.287
865.6949, 6644.360
866.1771, 6533.559
866.6592, 6445.258
867.1413, 6376.884
867.6234, 6320.771
868.1055, 6277.207
868.5876, 6236.765
869.0698, 6190.336
869.5519, 6145.766
870.0340, 6108.986
870.5161, 6083.308
870.9982, 6058.181
871.4803, 6034.454
871.9625, 6009.767
872.4446, 5981.323
872.9267, 5949.905
873.4088, 5925.542
873.8909, 5907.995
874.3730, 5887.686
874.8552, 5856.513
875.3373, 5820.259
875.8194, 5783.782
876.3015, 5747.390
876.7836, 5708.125
877.2657, 5659.325
877.7479, 5615.231
878.2300, 5582.362
878.7121, 5558.076
879.1942, 5528.057
879.6763, 5492.235
880.1584, 5455.083
880.6406, 5419.036
881.1227, 5383.151
881.6048, 5348.469
882.0869, 5313.143
882.5690, 5272.181
883.0511, 5217.670
883.5333, 5164.118
884.0154, 5119.171
884.4975, 5076.595
884.9796, 5025.500
885.4617, 4965.393
885.9438, 4895.293
886.4260, 4811.656
886.9081, 4725.080
887.3902, 4654.685
887.8723, 4592.574
888.3544, 4521.778
888.8365, 4431.516
889.3187, 4344.125
889.8008, 4268.795
890.2829, 4201.103
890.7650, 4136.531
891.2471, 4076.805
891.7292, 4013.333
892.2114, 3944.223
892.6935, 3877.100
893.1756, 3819.853
893.6577, 3771.384
894.1398, 3731.083
894.6219, 3699.376
895.1041, 3668.455
895.5862, 3627.635
896.0683, 3590.262
896.5504, 3565.127
897.0325, 3553.992
897.5146, 3550.514
897.9967, 3558.219
898.4788, 3565.642
898.9609, 3565.335
899.4431, 3560.214
899.9252, 3560.916
900.4073, 3567.438
900.8894, 3580.063
901.3715, 3602.010
901.8536, 3627.282
902.3358, 3648.917
902.8179, 3669.790
903.3000, 3701.550
903.7821, 3750.816
904.2642, 3799.715
904.7463, 3844.685
905.2285, 3886.566
905.7106, 3925.878
906.1927, 3963.460
906.6748, 4006.195
907.1569, 4057.826
907.6390, 4111.168
908.1212, 4163.466
908.6033, 4212.408
909.0854, 4254.089
909.5675, 4282.818
910.0496, 4312.552
910.5317, 4349.335
911.0139, 4379.765
911.4960, 4389.185
911.9781, 4378.801
912.4602, 4364.388
912.9423, 4347.433
913.4244, 4319.683
913.9066, 4270.025
914.3887, 4208.193
914.8708, 4145.726
915.3529, 4084.238
915.8350, 4009.335
916.3171, 3913.282
916.7993, 3811.330
917.2814, 3708.566
917.7635, 3605.172
918.2456, 3500.437
918.7277, 3395.495
919.2098, 3296.049
919.6920, 3208.308
920.1741, 3125.425
920.6562, 3039.312
921.1383, 2952.622
921.6204, 2872.173
922.1025, 2802.571
922.5847, 2737.601
923.0668, 2676.604
923.5489, 2618.904
924.0310, 2562.806
924.5131, 2508.242
924.9952, 2458.513
925.4774, 2414.147
925.9595, 2373.516
926.4416, 2334.833
926.9237, 2298.404
927.4058, 2263.792
927.8879, 2229.911
928.3701, 2200.904
928.8522, 2179.455
929.3343, 2160.111
929.8164, 2139.347
930.2985, 2117.270
930.7806, 2095.507
931.2628, 2073.966
931.7449, 2054.508
932.2270, 2038.760
932.7091, 2025.319
933.1912, 2013.463
933.6733, 2002.971
934.1555, 1990.973
934.6376, 1974.354
935.1197, 1959.406
935.6018, 1948.046
936.0839, 1939.254
936.5660, 1929.919
937.0482, 1919.978
937.5303, 1908.359
938.0124, 1892.297
938.4945, 1878.513
938.9766, 1877.460
939.4587, 1881.541
939.9409, 1879.239
940.4230, 1857.037
940.9051, 1844.208
941.3872, 1845.010
941.8693, 1851.126
942.3514, 1855.973
942.8336, 1859.078
943.3157, 1853.417
943.7978, 1838.002
944.2799, 1825.399
944.7620, 1829.140
945.2441, 1838.055
945.7263, 1842.269
946.2084, 1840.661
946.6905, 1840.703
947.1726, 1843.531
947.6547, 1847.109
948.1368, 1851.406
948.6190, 1855.477
949.1011, 1854.912
949.5832, 1850.574
950.0653, 1847.498
950.5474, 1846.458
951.0295, 1849.377
951.5117, 1860.580
951.9938, 1876.080
952.4759, 1887.987
952.9580, 1893.797
953.4401, 1900.083
953.9222, 1907.640
954.4044, 1915.253
954.8865, 1920.505
955.3686, 1924.498
955.8507, 1932.023
956.3328, 1944.090
956.8149, 1954.161
957.2971, 1955.557
957.7792, 1955.087
958.2613, 1958.367
958.7434, 1966.094
959.2255, 1970.731
959.7076, 1971.087
960.1898, 1972.153
960.6719, 1977.718
961.1540, 1984.935
961.6361, 1985.561
962.1182, 1981.579
962.6003, 1980.054
963.0825, 1986.067
963.5646, 1993.337
964.0467, 2000.344
964.5288, 2006.591
965.0109, 2011.606
965.4930, 2015.604
965.9752, 2016.968
966.4573, 2014.902
966.9394, 2012.617
967.4215, 2013.969
967.9036, 2017.839
968.3857, 2022.307
968.8679, 2027.052
969.3500, 2033.099
969.8321, 2043.630
970.3142, 2052.870
970.7963, 2057.228
971.2784, 2057.048
971.7606, 2059.055
972.2427, 2063.185
972.7248, 2070.931
973.2069, 2086.799
973.6890, 2103.438
974.1711, 2109.460
974.6533, 2109.068
975.1354, 2112.475
975.6175, 2125.727
976.0996, 2139.036
976.5817, 2151.405
977.0638, 2162.749
977.5460, 2172.030
978.0281, 2179.705
978.5102, 2190.252
978.9923, 2204.341
979.4744, 2219.419
979.9565, 2234.358
980.4387, 2248.351
980.9208, 2259.924
981.4029, 2268.326
981.8850, 2279.773
982.3671, 2294.835
982.8492, 2311.950
983.3314, 2332.440
983.8135, 2353.363
984.2956, 2362.740
984.7777, 2363.669
985.2598, 2368.717
985.7419, 2389.122
986.2241, 2409.349
986.7062, 2419.655
987.1883, 2425.844
987.6704, 2438.225
988.1525, 2460.012
988.6346, 2476.045
989.1168, 2483.880
989.5989, 2490.632
990.0810, 2505.934
990.5631, 2524.681
991.0452, 2538.248
991.5273, 2545.659
992.0095, 2551.247
992.4916, 2558.319
992.9737, 2561.922
993.4558, 2558.734
993.9379, 2550.307
994.4200, 2546.201
994.9022, 2546.347
995.3843, 2544.846
995.8664, 2538.814
996.3485, 2530.863
996.8306, 2523.266
997.3127, 2516.010
997.7949, 2508.945
998.2770, 2498.929
998.7591, 2494.856
999.2412, 2500.430
999.7233, 2506.333
1000.205, 2501.508
1000.688, 2488.502
1001.170, 2480.982
1001.652, 2479.438
1002.134, 2481.408
1002.616, 2488.040
1003.098, 2495.097
1003.580, 2499.334
1004.062, 2501.266
1004.544, 2504.776
1005.027, 2510.273
1005.509, 2515.825
1005.991, 2520.739
1006.473, 2525.965
1006.955, 2534.290
1007.437, 2543.857
1007.919, 2551.291
1008.401, 2555.556
1008.884, 2557.657
1009.366, 2554.087
1009.848, 2551.844
1010.330, 2556.940
1010.812, 2569.732
1011.294, 2575.922
1011.776, 2575.555
1012.258, 2571.645
1012.740, 2563.745
1013.223, 2555.285
1013.705, 2552.048
1014.187, 2551.208
1014.669, 2542.853
1015.151, 2518.930
1015.633, 2499.838
1016.115, 2490.449
1016.597, 2483.563
1017.080, 2469.001
1017.562, 2447.977
1018.044, 2423.332
1018.526, 2394.791
1019.008, 2369.453
1019.490, 2355.645
1019.972, 2343.244
1020.454, 2325.261
1020.936, 2301.950
1021.419, 2280.023
1021.901, 2259.982
1022.383, 2236.783
1022.865, 2205.882
1023.347, 2173.332
1023.829, 2149.490
1024.311, 2129.378
1024.793, 2103.407
1025.276, 2064.094
1025.758, 2025.094
1026.240, 1987.326
1026.722, 1950.505
1027.204, 1914.602
1027.686, 1879.577
1028.168, 1846.561
1028.650, 1815.763
1029.132, 1784.904
1029.615, 1751.712
1030.097, 1718.508
1030.579, 1686.168
1031.061, 1655.363
1031.543, 1628.500
1032.025, 1606.660
1032.507, 1583.787
1032.989, 1557.826
1033.471, 1532.227
1033.954, 1512.185
1034.436, 1496.228
1034.918, 1481.260
1035.400, 1466.617
1035.882, 1453.123
1036.364, 1441.783
1036.846, 1430.598
1037.328, 1418.118
1037.811, 1404.588
1038.293, 1393.107
1038.775, 1383.455
1039.257, 1374.847
1039.739, 1366.952
1040.221, 1359.727
1040.703, 1354.253
1041.185, 1349.024
1041.667, 1340.559
1042.150, 1326.199
1042.632, 1316.952
1043.114, 1314.460
1043.596, 1314.195
1044.078, 1311.315
1044.560, 1307.570
1045.042, 1306.559
1045.524, 1308.333
1046.006, 1308.597
1046.489, 1303.916
1046.971, 1299.841
1047.453, 1298.942
1047.935, 1299.295
1048.417, 1294.257
1048.899, 1284.741
1049.381, 1278.561
1049.863, 1278.413
1050.346, 1279.900
1050.828, 1279.071
1051.310, 1278.568
1051.792, 1281.847
1052.274, 1290.025
1052.756, 1294.829
1053.238, 1295.662
1053.720, 1295.929
1054.203, 1297.750
1054.685, 1300.218
1055.167, 1302.016
1055.649, 1303.187
1056.131, 1303.854
1056.613, 1301.605
1057.095, 1302.599
1057.577, 1309.389
1058.059, 1317.255
1058.542, 1320.020
1059.024, 1318.683
1059.506, 1319.812
1059.988, 1323.870
1060.470, 1329.035
1060.952, 1336.294
1061.434, 1342.236
1061.916, 1343.356
1062.398, 1341.119
1062.881, 1341.238
1063.363, 1343.875
1063.845, 1348.109
1064.327, 1354.105
1064.809, 1360.331
1065.291, 1364.107
1065.773, 1367.338
1066.255, 1373.789
1066.738, 1386.277
1067.220, 1390.968
1067.702, 1381.661
1068.184, 1374.298
1068.666, 1378.971
1069.148, 1390.872
1069.630, 1394.213
1070.112, 1390.645
1070.594, 1386.328
1071.077, 1383.895
1071.559, 1381.385
1072.041, 1376.614
1072.523, 1372.393
1073.005, 1372.625
1073.487, 1378.083
1073.969, 1377.418
1074.451, 1370.104
1074.933, 1362.123
1075.416, 1358.040
1075.898, 1355.247
1076.380, 1351.664
1076.862, 1347.411
1077.344, 1343.535
1077.826, 1340.201
1078.308, 1337.362
1078.790, 1335.918
1079.273, 1332.532
1079.755, 1319.102
1080.237, 1301.959
1080.719, 1292.906
1081.201, 1294.127
1081.683, 1295.879
1082.165, 1296.052
1082.647, 1294.808
1083.129, 1291.872
1083.612, 1287.709
1084.094, 1282.931
1084.576, 1278.041
1085.058, 1276.080
1085.540, 1279.717
1086.022, 1282.306
1086.504, 1279.904
1086.986, 1274.460
1087.469, 1267.489
1087.951, 1258.740
1088.433, 1251.159
1088.915, 1244.634
1089.397, 1241.000
1089.879, 1244.956
1090.361, 1249.431
1090.843, 1246.363
1091.325, 1238.272
1091.807, 1230.514
1092.290, 1223.692
1092.772, 1217.731
1093.254, 1212.517
1093.736, 1208.467
1094.218, 1207.768
1094.700, 1207.843
1095.182, 1202.144
1095.664, 1191.191
1096.147, 1181.925
1096.629, 1177.836
1097.111, 1175.131
1097.593, 1173.060
1098.075, 1171.355
1098.557, 1169.445
1099.039, 1167.413
1099.521, 1166.121
1100.004, 1165.902
1100.486, 1164.557
1100.968, 1159.128
1101.450, 1153.362
1101.932, 1150.044
1102.414, 1148.777
1102.896, 1147.011
1103.378, 1144.748
1103.860, 1142.277
1104.343, 1139.643
1104.825, 1137.074
1105.307, 1134.568
1105.789, 1132.393
1106.271, 1130.957
1106.753, 1130.684
1107.235, 1129.862
1107.717, 1128.389
1108.199, 1126.714
1108.682, 1124.516
1109.164, 1122.725
1109.646, 1123.969
1110.128, 1126.859
1110.610, 1128.071
1111.092, 1125.225
1111.574, 1122.218
1112.056, 1119.044
1112.539, 1116.506
1113.021, 1116.170
1113.503, 1117.091
1113.985, 1114.760
1114.467, 1109.627
1114.949, 1106.208
1115.431, 1109.178
1115.913, 1111.597
1116.396, 1110.504
1116.878, 1107.685
1117.360, 1106.025
1117.842, 1105.435
1118.324, 1103.432
1118.806, 1099.557
1119.288, 1097.291
1119.770, 1101.936
1120.252, 1106.826
1120.734, 1105.825
1121.217, 1100.464
1121.699, 1099.576
1122.181, 1103.870
1122.663, 1105.985
1123.145, 1103.648
1123.627, 1099.707
1124.109, 1094.893
1124.591, 1091.674
1125.074, 1094.174
1125.556, 1104.409
1126.038, 1108.806
1126.520, 1105.863
1127.002, 1101.200
1127.484, 1096.042
1127.966, 1092.085
1128.448, 1093.494
1128.931, 1097.952
1129.413, 1101.226
1129.895, 1102.111
1130.377, 1101.645
1130.859, 1099.203
1131.341, 1097.007
1131.823, 1096.933
1132.305, 1098.082
1132.787, 1097.140
1133.270, 1094.723
1133.752, 1093.055
1134.234, 1092.661
1134.716, 1093.854
1135.198, 1099.138
1135.680, 1103.367
1136.162, 1099.794
1136.644, 1089.850
1137.126, 1086.611
1137.609, 1089.883
1138.091, 1092.713
1138.573, 1089.142
1139.055, 1086.150
1139.537, 1088.992
1140.019, 1093.811
1140.501, 1094.275
1140.983, 1090.253
1141.466, 1087.223
1141.948, 1085.696
1142.430, 1085.888
1142.912, 1089.687
1143.394, 1093.749
1143.876, 1096.170
1144.358, 1096.603
1144.840, 1093.706
1145.323, 1086.695
1145.805, 1082.132
1146.287, 1081.465
1146.769, 1082.669
1147.251, 1083.941
1147.733, 1085.783
1148.215, 1089.944
1148.697, 1096.472
1149.179, 1097.081
1149.661, 1089.653
1150.144, 1083.851
1150.626, 1082.863
1151.108, 1084.454
1151.590, 1086.707
1152.072, 1088.857
1152.554, 1089.777
1153.036, 1089.060
1153.518, 1087.803
1154.001, 1085.560
1154.483, 1084.191
1154.965, 1085.063
1155.447, 1086.740
1155.929, 1085.632
1156.411, 1083.153
1156.893, 1082.446
1157.375, 1085.856
1157.858, 1087.423
1158.340, 1085.420
1158.822, 1083.450
1159.304, 1084.085
1159.786, 1086.431
1160.268, 1088.275
1160.750, 1089.417
1161.232, 1089.189
1161.714, 1085.382
1162.197, 1083.040
1162.679, 1083.982
1163.161, 1085.646
1163.643, 1086.146
1164.125, 1085.510
1164.607, 1083.267
1165.089, 1079.777
1165.571, 1077.043
1166.053, 1076.860
1166.536, 1076.646
1167.018, 1074.497
1167.500, 1072.749
1167.982, 1075.492
1168.464, 1081.862
1168.946, 1082.071
1169.428, 1075.985
1169.910, 1069.799
1170.393, 1066.757
1170.875, 1065.374
1171.357, 1066.532
1171.839, 1068.070
1172.321, 1065.371
1172.803, 1058.726
1173.285, 1057.135
1173.767, 1061.715
1174.250, 1066.734
1174.732, 1068.379
1175.214, 1068.800
1175.696, 1069.305
1176.178, 1069.690
1176.660, 1069.200
1177.142, 1067.826
1177.624, 1066.065
1178.106, 1063.953
1178.589, 1062.162
1179.071, 1061.406
1179.553, 1061.120
1180.035, 1061.184
1180.517, 1061.370
1180.999, 1060.614
1181.481, 1058.863
1181.963, 1056.448
1182.445, 1052.948
1182.928, 1050.857
1183.410, 1054.797
1183.892, 1059.636
1184.374, 1060.144
1184.856, 1056.300
1185.338, 1052.649
1185.820, 1049.197
1186.302, 1045.782
1186.785, 1042.064
1187.267, 1039.210
1187.749, 1039.434
1188.231, 1040.563
1188.713, 1039.231
1189.195, 1041.863
1189.677, 1036.368
1190.159, 1045.157
1190.641, 1051.559
1191.124, 1051.130
1191.606, 1047.675
1192.088, 1044.545
1192.570, 1041.666
1193.052, 1038.746
1193.534, 1035.471
1194.016, 1032.994
1194.498, 1030.614
1194.980, 1034.057
1195.463, 1052.444
1195.945, 1069.799
1196.427, 1059.127
1196.909, 1072.066
1197.391, 1074.058
1197.873, 1065.184
1198.355, 1070.234
1198.837, 1045.210
1199.320, 1019.936
1199.802, 1013.924
1200.284, 1016.274
1200.766, 1014.880
1201.248, 1011.800
1201.730, 1010.917
1202.212, 1014.379
1202.694, 1015.302
1203.177, 1012.940
1203.659, 1011.803
1204.141, 1017.940
1204.623, 1024.817
1205.105, 1024.013
1205.587, 1017.823
1206.069, 1010.987
1206.551, 1001.785
1207.033, 998.8076
1207.516, 1003.271
1207.998, 1008.350
1208.480, 1008.815
1208.962, 1006.679
1209.444, 1003.705
1209.926, 1000.166
1210.408, 996.7827
1210.890, 994.1745
1211.372, 989.6241
1211.854, 982.3090
1212.337, 976.3895
1212.819, 976.2205
1213.301, 978.7264
1213.783, 980.3666
1214.265, 981.5985
1214.747, 984.8773
1215.229, 992.5925
1215.711, 994.8431
1216.194, 990.1625
1216.676, 984.0309
1217.158, 982.0197
1217.640, 980.9481
1218.122, 976.0308
1218.604, 968.9106
1219.086, 966.4235
1219.568, 970.4383
1220.051, 973.3358
1220.533, 974.4288
1221.015, 973.3884
1221.497, 966.2692
1221.979, 959.7692
1222.461, 963.1664
1222.943, 973.6085
1223.425, 977.1921
1223.907, 972.0900
1224.390, 965.4396
1224.872, 957.4679
1225.354, 952.5485
1225.836, 959.4113
1226.318, 967.4662
1226.800, 964.8659
1227.282, 953.8386
1227.764, 949.1132
1228.246, 952.2137
1228.729, 952.5223
1229.211, 948.0138
1229.693, 943.9222
1230.175, 946.9471
1230.657, 951.0106
1231.139, 950.3835
1231.621, 945.9079
1232.103, 942.6037
1232.586, 940.4432
1233.068, 940.5541
1233.550, 943.4471
1234.032, 945.7507
1234.514, 944.3131
1234.996, 941.2095
1235.478, 937.3994
1235.960, 933.3560
1236.443, 930.2987
1236.925, 928.1774
1237.407, 928.8514
1237.889, 933.0990
1238.371, 935.4374
1238.853, 927.9266
1239.335, 920.1193
1239.817, 920.4746
1240.299, 925.6461
1240.781, 925.7124
1241.264, 921.0668
1241.746, 919.1024
1242.228, 921.4230
1242.710, 923.8329
1243.192, 924.6407
1243.674, 923.1378
1244.156, 916.9992
1244.638, 909.3278
1245.121, 909.8538
1245.603, 917.1540
1246.085, 920.9705
1246.567, 919.0773
1247.049, 916.7855
1247.531, 917.8441
1248.013, 918.3528
1248.495, 916.1461
1248.978, 912.5250
1249.460, 910.5782
1249.942, 910.0500
1250.424, 910.2004
1250.906, 910.9393
1251.388, 911.4384
1251.870, 912.1009
1252.352, 911.1379
1252.834, 906.8912
1253.317, 901.9573
1253.799, 903.0197
1254.281, 907.7966
1254.763, 910.3076
1255.245, 909.4860
1255.727, 907.9159
1256.209, 905.9982
1256.691, 904.0120
1257.173, 901.9580
1257.656, 899.9904
1258.138, 897.8851
1258.620, 896.2867
1259.102, 897.2044
1259.584, 901.1356
1260.066, 902.1336
1260.548, 897.9341
1261.030, 894.6046
1261.513, 894.2767
1261.995, 894.4058
1262.477, 889.8828
1262.959, 884.2841
1263.441, 883.2272
1263.923, 887.4329
1264.405, 889.8055
1264.887, 889.2775
1265.370, 889.8538
1265.852, 893.0807
1266.334, 895.8478
1266.816, 894.0036
1267.298, 890.0065
1267.780, 886.0887
1268.262, 882.4849
1268.744, 878.8032
1269.226, 874.6313
1269.708, 875.0638
1270.191, 882.3001
1270.673, 889.1719
1271.155, 888.4067
1271.637, 885.0411
1272.119, 882.9038
1272.601, 881.9254
1273.083, 881.3635
1273.565, 881.1926
1274.048, 880.0661
1274.530, 877.5721
1275.012, 875.3555
1275.494, 874.4695
1275.976, 874.3314
1276.458, 874.5616
1276.940, 875.1957
1277.422, 876.6791
1277.905, 878.7490
1278.387, 880.2407
1278.869, 880.9422
1279.351, 880.8794
1279.833, 880.1240
1280.315, 878.1642
1280.797, 873.6569
1281.279, 869.4818
1281.761, 873.3867
1282.244, 881.3820
1282.726, 882.4769
1283.208, 875.2579
1283.690, 869.6141
1284.172, 869.2133
1284.654, 868.9777
1285.136, 867.6105
1285.618, 866.4894
1286.100, 868.0752
1286.583, 870.9011
1287.065, 872.9940
1287.547, 874.1166
1288.029, 874.0842
1288.511, 872.4594
1288.993, 871.4630
1289.475, 871.7119
1289.957, 871.6597
1290.440, 868.6824
1290.922, 865.3148
1291.404, 864.2386
1291.886, 865.1982
1292.368, 865.8361
1292.850, 866.0780
1293.332, 866.7411
1293.814, 867.9608
1294.297, 869.3105
1294.779, 870.5638
1295.261, 871.7316
1295.743, 873.5371
1296.225, 874.9105
1296.707, 873.1157
1297.189, 868.5936
1297.671, 865.9245
1298.153, 865.4912
1298.635, 865.6779
1299.118, 864.8450
1299.600, 865.6804
1300.082, 870.4578
1300.564, 875.0906
1301.046, 872.8633
1301.528, 866.4487
1302.010, 863.3651
1302.492, 863.6663
1302.975, 864.0416
1303.457, 862.8395
1303.939, 862.7417
1304.421, 864.8973
1304.903, 866.5549
1305.385, 865.8984
##END=



