##NAMES=Titanite
##RRUFFID=R040033
##IDEAL CHEMISTRY=CaTi^4+^SiO_5_
##LOCALITY=Brazil
##OWNER=RRUFF
##SOURCE=University of Arizona Mineral Museum
##DESCRIPTION=Green flattened wedge-shaped single crystals
##STATUS=The identification of this mineral has been confirmed by X-ray diffraction and chemical analysis
##URL=rruff.info/R040033
##MEASURED CHEMISTRY=(Ca_0.97_Fe^3+^_0.03_)_Σ=1_(Ti_0.97_Al_0.03_)_Σ=1_Si_1.00_O_5_; Fe^3+^ assigned for charge balance
106.0809, 3567.484
106.5630, 3588.739
107.0451, 3612.874
107.5272, 3635.589
108.0093, 3654.411
108.4915, 3671.230
108.9736, 3686.509
109.4557, 3699.716
109.9378, 3712.371
110.4199, 3729.345
110.9020, 3755.518
111.3842, 3779.206
111.8663, 3798.902
112.3484, 3814.176
112.8305, 3824.684
113.3126, 3830.260
113.7947, 3830.909
114.2769, 3825.048
114.7590, 3805.623
115.2411, 3786.808
115.7232, 3776.424
116.2053, 3772.479
116.6874, 3765.725
117.1695, 3745.529
117.6517, 3706.431
118.1338, 3678.242
118.6159, 3664.622
119.0980, 3658.935
119.5801, 3656.256
120.0622, 3655.587
120.5444, 3657.080
121.0265, 3661.370
121.5086, 3668.161
121.9907, 3676.938
122.4728, 3688.515
122.9549, 3702.013
123.4371, 3714.929
123.9192, 3725.436
124.4013, 3736.852
124.8834, 3752.568
125.3655, 3772.749
125.8476, 3794.176
126.3298, 3814.640
126.8119, 3833.987
127.2940, 3852.721
127.7761, 3872.169
128.2582, 3890.165
128.7404, 3905.952
129.2225, 3919.353
129.7046, 3929.207
130.1867, 3933.024
130.6688, 3927.234
131.1509, 3921.735
131.6331, 3916.912
132.1152, 3913.404
132.5973, 3912.004
133.0794, 3913.133
133.5615, 3916.249
134.0436, 3919.082
134.5258, 3916.861
135.0079, 3919.637
135.4900, 3927.963
135.9721, 3942.296
136.4542, 3963.249
136.9363, 3991.355
137.4184, 4026.719
137.9006, 4067.571
138.3827, 4114.184
138.8648, 4164.850
139.3469, 4217.364
139.8290, 4272.245
140.3111, 4334.138
140.7933, 4407.796
141.2754, 4493.233
141.7575, 4581.362
142.2396, 4677.214
142.7217, 4772.690
143.2038, 4863.225
143.6860, 4951.851
144.1681, 5021.246
144.6502, 5052.876
145.1323, 5055.000
145.6144, 5037.574
146.0965, 4992.729
146.5787, 4929.999
147.0608, 4878.375
147.5429, 4839.302
148.0250, 4813.524
148.5071, 4798.621
148.9892, 4794.588
149.4714, 4801.442
149.9535, 4818.676
150.4356, 4846.071
150.9177, 4886.740
151.3998, 4945.654
151.8819, 5015.172
152.3641, 5093.580
152.8462, 5180.874
153.3283, 5277.798
153.8104, 5386.394
154.2925, 5507.935
154.7746, 5637.668
155.2568, 5776.588
155.7389, 5921.314
156.2210, 6070.909
156.7031, 6224.279
157.1852, 6379.638
157.6673, 6534.283
158.1495, 6689.769
158.6316, 6839.732
159.1137, 6991.476
159.5958, 7135.250
160.0779, 7263.130
160.5600, 7373.177
161.0422, 7463.942
161.5243, 7531.015
162.0064, 7579.717
162.4885, 7600.043
162.9706, 7584.957
163.4527, 7540.001
163.9349, 7475.716
164.4170, 7395.686
164.8991, 7296.883
165.3812, 7173.837
165.8633, 7021.513
166.3454, 6862.988
166.8276, 6707.754
167.3097, 6556.341
167.7918, 6406.702
168.2739, 6254.145
168.7560, 6107.897
169.2381, 5977.835
169.7203, 5866.565
170.2024, 5767.888
170.6845, 5674.703
171.1666, 5586.582
171.6487, 5508.877
172.1308, 5447.552
172.6130, 5395.923
173.0951, 5349.669
173.5772, 5307.232
174.0593, 5271.030
174.5414, 5246.375
175.0235, 5238.854
175.5057, 5231.964
175.9878, 5220.118
176.4699, 5207.899
176.9520, 5199.200
177.4341, 5195.805
177.9162, 5197.205
178.3984, 5202.081
178.8805, 5214.806
179.3626, 5225.551
179.8447, 5232.299
180.3268, 5236.728
180.8089, 5240.719
181.2911, 5245.225
181.7732, 5250.435
182.2553, 5257.557
182.7374, 5267.486
183.2195, 5278.428
183.7016, 5294.825
184.1838, 5311.842
184.6659, 5320.070
185.1480, 5312.704
185.6301, 5291.757
186.1122, 5278.158
186.5943, 5275.939
187.0765, 5275.081
187.5586, 5270.682
188.0407, 5264.075
188.5228, 5259.865
189.0049, 5260.739
189.4870, 5267.113
189.9692, 5277.683
190.4513, 5290.834
190.9334, 5309.014
191.4155, 5335.334
191.8976, 5369.320
192.3797, 5405.405
192.8619, 5438.209
193.3440, 5470.829
193.8261, 5511.129
194.3082, 5564.394
194.7903, 5622.667
195.2724, 5678.579
195.7546, 5732.255
196.2367, 5782.305
196.7188, 5824.193
197.2009, 5862.454
197.6830, 5903.017
198.1651, 5948.295
198.6473, 5996.355
199.1294, 6044.084
199.6115, 6090.849
200.0936, 6138.790
200.5757, 6188.882
201.0578, 6240.678
201.5400, 6294.446
202.0221, 6350.994
202.5042, 6408.733
202.9863, 6463.767
203.4684, 6514.352
203.9505, 6564.159
204.4327, 6613.548
204.9148, 6663.269
205.3969, 6715.344
205.8790, 6772.319
206.3611, 6831.716
206.8432, 6881.651
207.3254, 6910.720
207.8075, 6943.544
208.2896, 6988.842
208.7717, 7040.620
209.2538, 7090.880
209.7359, 7134.642
210.2181, 7172.092
210.7002, 7203.042
211.1823, 7219.750
211.6644, 7237.685
212.1465, 7261.831
212.6286, 7289.165
213.1108, 7313.786
213.5929, 7331.435
214.0750, 7342.859
214.5571, 7358.427
215.0392, 7379.912
215.5213, 7403.279
216.0035, 7427.599
216.4856, 7452.944
216.9677, 7479.389
217.4498, 7507.175
217.9319, 7536.116
218.4140, 7566.328
218.8961, 7598.077
219.3783, 7630.212
219.8604, 7659.872
220.3425, 7689.077
220.8246, 7724.967
221.3067, 7774.613
221.7888, 7834.601
222.2710, 7881.898
222.7531, 7908.069
223.2352, 7931.197
223.7173, 7958.689
224.1994, 7990.493
224.6815, 8026.524
225.1637, 8069.524
225.6458, 8115.696
226.1279, 8151.840
226.6100, 8170.444
227.0921, 8186.655
227.5742, 8211.881
228.0564, 8245.049
228.5385, 8275.842
229.0206, 8296.361
229.5027, 8311.620
229.9848, 8332.549
230.4669, 8363.171
230.9491, 8395.185
231.4312, 8422.935
231.9133, 8446.502
232.3954, 8464.803
232.8775, 8478.183
233.3596, 8484.714
233.8418, 8481.832
234.3239, 8467.828
234.8060, 8447.075
235.2881, 8422.388
235.7702, 8393.238
236.2523, 8365.076
236.7345, 8337.078
237.2166, 8312.975
237.6987, 8296.478
238.1808, 8288.420
238.6629, 8287.861
239.1451, 8291.848
239.6272, 8298.525
240.1093, 8319.576
240.5914, 8363.218
241.0735, 8420.444
241.5556, 8487.279
242.0378, 8563.136
242.5199, 8645.707
243.0020, 8734.229
243.4841, 8829.558
243.9662, 8925.806
244.4483, 9018.967
244.9305, 9114.779
245.4126, 9220.671
245.8947, 9337.244
246.3768, 9454.896
246.8589, 9560.798
247.3410, 9652.887
247.8232, 9738.705
248.3053, 9822.111
248.7874, 9898.418
249.2695, 9968.135
249.7516, 10029.80
250.2337, 10076.65
250.7159, 10097.45
251.1980, 10083.47
251.6801, 10066.11
252.1622, 10052.61
252.6443, 10031.65
253.1264, 9995.878
253.6086, 9944.806
254.0907, 9883.227
254.5728, 9817.890
255.0549, 9751.457
255.5370, 9670.889
256.0191, 9576.107
256.5013, 9470.010
256.9834, 9351.666
257.4655, 9222.804
257.9476, 9089.271
258.4297, 8958.814
258.9118, 8835.809
259.3940, 8694.838
259.8761, 8527.656
260.3582, 8354.056
260.8403, 8181.830
261.3224, 8012.867
261.8045, 7845.145
262.2867, 7675.538
262.7688, 7503.121
263.2509, 7338.791
263.7330, 7187.021
264.2151, 7038.514
264.6972, 6887.189
265.1794, 6734.904
265.6615, 6585.267
266.1436, 6441.755
266.6257, 6303.829
267.1078, 6177.110
267.5899, 6066.369
268.0721, 5958.241
268.5542, 5844.028
269.0363, 5727.081
269.5184, 5616.868
270.0005, 5521.104
270.4826, 5438.692
270.9648, 5357.973
271.4469, 5275.502
271.9290, 5197.772
272.4111, 5129.202
272.8932, 5067.521
273.3753, 5006.074
273.8575, 4940.568
274.3396, 4873.146
274.8217, 4815.397
275.3038, 4766.624
275.7859, 4725.545
276.2680, 4694.919
276.7502, 4671.714
277.2323, 4649.055
277.7144, 4623.379
278.1965, 4597.046
278.6786, 4577.681
279.1607, 4566.549
279.6429, 4558.021
280.1250, 4549.566
280.6071, 4542.788
281.0892, 4540.371
281.5713, 4543.143
282.0534, 4551.129
282.5356, 4565.656
283.0177, 4587.370
283.4998, 4610.927
283.9819, 4633.821
284.4640, 4658.020
284.9461, 4687.644
285.4283, 4724.487
285.9104, 4763.385
286.3925, 4796.099
286.8746, 4821.771
287.3567, 4851.167
287.8388, 4892.943
288.3210, 4937.272
288.8031, 4971.201
289.2852, 4992.472
289.7673, 5005.910
290.2494, 5016.829
290.7315, 5025.120
291.2137, 5024.040
291.6958, 5006.558
292.1779, 4982.390
292.6600, 4959.403
293.1421, 4938.209
293.6242, 4923.683
294.1064, 4920.903
294.5885, 4929.152
295.0706, 4942.274
295.5527, 4955.146
296.0348, 4975.859
296.5169, 5012.467
296.9991, 5064.713
297.4812, 5125.649
297.9633, 5191.079
298.4454, 5262.770
298.9275, 5342.972
299.4096, 5435.556
299.8918, 5532.375
300.3739, 5628.066
300.8560, 5723.138
301.3381, 5819.988
301.8202, 5922.026
302.3023, 6024.896
302.7845, 6123.008
303.2666, 6216.444
303.7487, 6303.698
304.2308, 6382.701
304.7129, 6454.171
305.1950, 6521.564
305.6772, 6586.910
306.1593, 6646.922
306.6414, 6697.434
307.1235, 6738.835
307.6056, 6774.562
308.0877, 6805.348
308.5699, 6831.728
309.0520, 6853.500
309.5341, 6868.389
310.0162, 6884.328
310.4983, 6913.478
310.9804, 6953.692
311.4626, 6989.231
311.9447, 7011.419
312.4268, 7027.104
312.9089, 7048.404
313.3910, 7078.156
313.8731, 7105.527
314.3553, 7122.622
314.8374, 7130.124
315.3195, 7128.621
315.8016, 7119.564
316.2837, 7100.602
316.7658, 7069.375
317.2480, 7025.823
317.7301, 6970.667
318.2122, 6902.307
318.6943, 6821.659
319.1764, 6733.539
319.6585, 6636.495
320.1407, 6534.357
320.6228, 6427.085
321.1049, 6315.971
321.5870, 6208.177
322.0691, 6106.494
322.5512, 6011.359
323.0334, 5920.299
323.5155, 5831.661
323.9976, 5753.326
324.4797, 5693.597
324.9618, 5648.257
325.4439, 5604.142
325.9261, 5555.579
326.4082, 5510.857
326.8903, 5481.907
327.3724, 5468.270
327.8545, 5457.116
328.3366, 5441.854
328.8188, 5426.835
329.3009, 5420.026
329.7830, 5423.453
330.2651, 5431.153
330.7472, 5440.944
331.2293, 5451.476
331.7115, 5453.669
332.1936, 5440.936
332.6757, 5421.951
333.1578, 5407.221
333.6399, 5397.182
334.1220, 5382.411
334.6042, 5356.991
335.0863, 5320.936
335.5684, 5279.108
336.0505, 5229.370
336.5326, 5176.213
337.0147, 5123.320
337.4969, 5069.729
337.9790, 5010.496
338.4611, 4941.973
338.9432, 4867.819
339.4253, 4795.418
339.9074, 4725.761
340.3896, 4655.938
340.8717, 4582.948
341.3538, 4509.226
341.8359, 4439.467
342.3180, 4374.753
342.8001, 4314.059
343.2822, 4255.857
343.7643, 4200.019
344.2465, 4146.640
344.7286, 4094.923
345.2107, 4046.092
345.6928, 4002.323
346.1749, 3963.692
346.6570, 3926.998
347.1392, 3888.837
347.6213, 3849.397
348.1034, 3815.903
348.5855, 3793.011
349.0676, 3771.997
349.5497, 3748.878
350.0319, 3722.908
350.5140, 3692.792
350.9961, 3657.913
351.4782, 3617.830
351.9603, 3571.213
352.4424, 3516.427
352.9246, 3458.365
353.4067, 3396.400
353.8888, 3332.205
354.3709, 3269.175
354.8530, 3208.619
355.3351, 3149.361
355.8173, 3088.934
356.2994, 3024.338
356.7815, 2964.911
357.2636, 2913.316
357.7457, 2866.210
358.2278, 2820.281
358.7100, 2775.071
359.1921, 2732.172
359.6742, 2694.262
360.1563, 2662.432
360.6384, 2628.874
361.1205, 2592.581
361.6027, 2555.682
362.0848, 2518.107
362.5669, 2480.798
363.0490, 2445.994
363.5311, 2415.939
364.0132, 2389.593
364.4954, 2358.777
364.9775, 2318.665
365.4596, 2280.167
365.9417, 2246.578
366.4238, 2215.623
366.9059, 2184.321
367.3881, 2151.306
367.8702, 2117.208
368.3523, 2083.120
368.8344, 2048.435
369.3165, 2014.930
369.7986, 1982.846
370.2808, 1951.532
370.7629, 1921.097
371.2450, 1891.186
371.7271, 1860.302
372.2092, 1826.593
372.6913, 1788.798
373.1735, 1755.035
373.6556, 1727.916
374.1377, 1702.037
374.6198, 1676.505
375.1019, 1650.699
375.5840, 1624.107
376.0662, 1596.195
376.5483, 1567.493
377.0304, 1541.187
377.5125, 1519.355
377.9946, 1497.098
378.4767, 1471.954
378.9589, 1447.019
379.4410, 1425.968
379.9231, 1409.890
380.4052, 1395.914
380.8873, 1379.048
381.3694, 1357.606
381.8516, 1338.998
382.3337, 1322.879
382.8158, 1310.439
383.2979, 1304.270
383.7800, 1303.171
384.2621, 1302.349
384.7443, 1297.373
385.2264, 1288.714
385.7085, 1282.190
386.1906, 1279.491
386.6727, 1276.555
387.1548, 1272.794
387.6370, 1267.583
388.1191, 1259.612
388.6012, 1247.547
389.0833, 1233.976
389.5654, 1224.641
390.0475, 1221.248
390.5297, 1214.252
391.0118, 1196.256
391.4939, 1175.894
391.9760, 1160.299
392.4581, 1150.495
392.9402, 1141.968
393.4224, 1131.006
393.9045, 1118.055
394.3866, 1105.669
394.8687, 1093.614
395.3508, 1083.251
395.8329, 1075.866
396.3151, 1070.938
396.7972, 1067.031
397.2793, 1062.739
397.7614, 1059.569
398.2435, 1059.492
398.7256, 1062.535
399.2078, 1068.650
399.6899, 1079.086
400.1720, 1092.236
400.6541, 1104.109
401.1362, 1112.891
401.6183, 1123.457
402.1005, 1139.058
402.5826, 1158.655
403.0647, 1179.847
403.5468, 1202.206
404.0289, 1224.869
404.5110, 1245.832
404.9932, 1264.444
405.4753, 1287.162
405.9574, 1318.223
406.4395, 1351.887
406.9216, 1382.240
407.4037, 1409.088
407.8859, 1435.880
408.3680, 1465.011
408.8501, 1496.523
409.3322, 1528.872
409.8143, 1561.538
410.2964, 1595.728
410.7786, 1632.914
411.2607, 1671.802
411.7428, 1709.793
412.2249, 1745.495
412.7070, 1781.766
413.1891, 1824.336
413.6713, 1877.534
414.1534, 1929.530
414.6355, 1978.005
415.1176, 2027.031
415.5997, 2079.464
416.0818, 2135.358
416.5640, 2193.140
417.0461, 2251.899
417.5282, 2311.595
418.0103, 2367.315
418.4924, 2411.224
418.9745, 2459.521
419.4567, 2520.755
419.9388, 2587.096
420.4209, 2649.385
420.9030, 2703.055
421.3851, 2748.370
421.8672, 2785.216
422.3494, 2813.487
422.8315, 2833.369
423.3136, 2844.775
423.7957, 2848.704
424.2778, 2845.714
424.7599, 2835.725
425.2421, 2818.066
425.7242, 2791.605
426.2063, 2756.607
426.6884, 2715.723
427.1705, 2664.653
427.6526, 2614.979
428.1348, 2572.299
428.6169, 2533.642
429.0990, 2494.511
429.5811, 2452.908
430.0632, 2411.494
430.5453, 2373.089
431.0275, 2337.683
431.5096, 2305.755
431.9917, 2277.114
432.4738, 2252.817
432.9559, 2233.649
433.4380, 2219.563
433.9202, 2206.926
434.4023, 2194.624
434.8844, 2182.500
435.3665, 2169.736
435.8486, 2155.937
436.3307, 2144.039
436.8129, 2135.452
437.2950, 2130.884
437.7771, 2131.439
438.2592, 2141.096
438.7413, 2151.604
439.2234, 2158.215
439.7056, 2162.269
440.1877, 2166.895
440.6698, 2173.201
441.1519, 2180.682
441.6340, 2188.681
442.1161, 2197.231
442.5983, 2206.260
443.0804, 2212.898
443.5625, 2222.150
444.0446, 2239.298
444.5267, 2263.354
445.0089, 2288.573
445.4910, 2310.437
445.9731, 2329.589
446.4552, 2352.617
446.9373, 2381.285
447.4194, 2412.198
447.9016, 2444.643
448.3837, 2479.265
448.8658, 2517.065
449.3479, 2558.124
449.8300, 2601.107
450.3121, 2643.549
450.7943, 2684.532
451.2764, 2728.431
451.7585, 2774.361
452.2406, 2824.265
452.7227, 2879.612
453.2048, 2939.511
453.6870, 3002.140
454.1691, 3066.896
454.6512, 3132.941
455.1333, 3198.813
455.6154, 3263.100
456.0975, 3331.240
456.5797, 3407.879
457.0618, 3487.609
457.5439, 3566.953
458.0260, 3644.933
458.5081, 3725.582
458.9902, 3811.971
459.4724, 3903.054
459.9545, 3996.111
460.4366, 4091.368
460.9187, 4187.717
461.4008, 4286.703
461.8829, 4386.334
462.3651, 4480.798
462.8472, 4568.384
463.3293, 4651.898
463.8114, 4735.792
464.2935, 4817.997
464.7756, 4892.931
465.2578, 4960.651
465.7399, 5014.750
466.2220, 5042.217
466.7041, 5041.709
467.1862, 5023.615
467.6683, 4991.162
468.1505, 4939.762
468.6326, 4866.571
469.1147, 4770.886
469.5968, 4651.707
470.0789, 4506.079
470.5610, 4336.907
471.0432, 4166.375
471.5253, 3993.124
472.0074, 3818.754
472.4895, 3638.477
472.9716, 3459.633
473.4537, 3289.343
473.9359, 3129.966
474.4180, 2980.328
474.9001, 2839.301
475.3822, 2707.082
475.8643, 2588.138
476.3464, 2488.457
476.8286, 2397.466
477.3107, 2311.488
477.7928, 2231.943
478.2749, 2161.533
478.7570, 2101.643
479.2391, 2050.571
479.7213, 2006.750
480.2034, 1970.406
480.6855, 1938.073
481.1676, 1909.611
481.6497, 1884.274
482.1318, 1859.931
482.6140, 1837.037
483.0961, 1819.895
483.5782, 1813.301
484.0603, 1812.468
484.5424, 1809.735
485.0245, 1804.774
485.5067, 1800.836
485.9888, 1799.836
486.4709, 1801.040
486.9530, 1802.034
487.4351, 1801.467
487.9172, 1803.586
488.3994, 1811.638
488.8815, 1822.475
489.3636, 1831.633
489.8457, 1838.349
490.3278, 1845.023
490.8099, 1854.258
491.2921, 1866.192
491.7742, 1875.998
492.2563, 1881.888
492.7384, 1888.014
493.2205, 1895.574
493.7026, 1904.129
494.1848, 1913.616
494.6669, 1923.856
495.1490, 1933.176
495.6311, 1938.332
496.1132, 1937.165
496.5953, 1938.781
497.0775, 1946.055
497.5596, 1953.460
498.0417, 1958.595
498.5238, 1962.160
499.0059, 1966.116
499.4880, 1971.803
499.9702, 1977.924
500.4523, 1981.528
500.9344, 1982.140
501.4165, 1983.171
501.8986, 1984.248
502.3807, 1987.393
502.8629, 1995.805
503.3450, 2009.149
503.8271, 2020.263
504.3092, 2021.548
504.7913, 2020.314
505.2734, 2029.031
505.7556, 2048.304
506.2377, 2068.723
506.7198, 2085.141
507.2019, 2098.820
507.6840, 2113.631
508.1661, 2129.843
508.6482, 2146.498
509.1303, 2162.878
509.6125, 2179.834
510.0946, 2197.803
510.5767, 2217.055
511.0588, 2238.838
511.5409, 2265.014
512.0231, 2295.524
512.5052, 2320.877
512.9873, 2333.666
513.4694, 2350.125
513.9515, 2375.473
514.4337, 2405.017
514.9158, 2432.912
515.3979, 2457.666
515.8800, 2482.641
516.3621, 2513.203
516.8442, 2550.079
517.3264, 2583.902
517.8085, 2612.867
518.2906, 2641.350
518.7727, 2671.285
519.2548, 2702.144
519.7369, 2732.667
520.2191, 2761.987
520.7012, 2792.406
521.1833, 2826.963
521.6654, 2865.254
522.1475, 2904.340
522.6296, 2943.902
523.1118, 2983.264
523.5939, 3019.754
524.0760, 3054.006
524.5581, 3093.503
525.0402, 3143.632
525.5223, 3195.730
526.0045, 3244.135
526.4866, 3289.292
526.9687, 3332.645
527.4508, 3374.061
527.9329, 3417.159
528.4150, 3469.022
528.8972, 3534.053
529.3793, 3597.650
529.8614, 3659.992
530.3435, 3720.482
530.8256, 3777.524
531.3077, 3832.612
531.7899, 3889.300
532.2720, 3949.686
532.7541, 4012.943
533.2362, 4077.525
533.7183, 4145.377
534.2004, 4209.762
534.6826, 4267.888
535.1647, 4323.587
535.6468, 4378.852
536.1289, 4433.723
536.6110, 4486.222
537.0931, 4534.866
537.5753, 4580.468
538.0574, 4624.790
538.5395, 4668.110
539.0216, 4706.202
539.5037, 4736.622
539.9858, 4761.331
540.4680, 4784.042
540.9501, 4805.374
541.4322, 4823.158
541.9143, 4836.492
542.3964, 4846.257
542.8785, 4853.013
543.3607, 4856.963
543.8428, 4858.737
544.3249, 4858.877
544.8070, 4856.861
545.2891, 4850.784
545.7712, 4841.858
546.2534, 4826.510
546.7355, 4801.468
547.2176, 4772.616
547.6997, 4744.450
548.1818, 4717.040
548.6639, 4687.384
549.1461, 4653.897
549.6282, 4616.163
550.1103, 4573.030
550.5924, 4523.763
551.0745, 4470.612
551.5566, 4411.571
552.0388, 4349.806
552.5209, 4287.739
553.0030, 4225.517
553.4851, 4161.117
553.9672, 4092.800
554.4493, 4021.212
554.9315, 3945.363
555.4136, 3865.198
555.8957, 3787.800
556.3778, 3718.134
556.8599, 3653.456
557.3420, 3587.150
557.8242, 3517.002
558.3063, 3450.590
558.7884, 3390.552
559.2705, 3334.310
559.7526, 3279.152
560.2347, 3225.699
560.7169, 3177.301
561.1990, 3137.248
561.6811, 3103.321
562.1632, 3065.338
562.6453, 3017.728
563.1274, 2975.981
563.6096, 2943.347
564.0917, 2915.281
564.5738, 2889.292
565.0559, 2864.718
565.5380, 2840.971
566.0201, 2815.705
566.5023, 2791.860
566.9844, 2777.531
567.4665, 2773.357
567.9486, 2774.292
568.4307, 2778.014
568.9128, 2786.725
569.3950, 2802.715
569.8771, 2826.255
570.3592, 2854.266
570.8413, 2886.761
571.3234, 2922.747
571.8055, 2960.143
572.2877, 2999.608
572.7698, 3044.471
573.2519, 3096.482
573.7340, 3154.582
574.2161, 3215.363
574.6982, 3278.167
575.1804, 3345.649
575.6625, 3419.120
576.1446, 3495.490
576.6267, 3571.720
577.1088, 3649.037
577.5909, 3731.621
578.0731, 3821.784
578.5552, 3917.870
579.0373, 4016.616
579.5194, 4117.958
580.0015, 4221.296
580.4836, 4325.972
580.9658, 4432.908
581.4479, 4541.554
581.9300, 4652.742
582.4121, 4770.005
582.8942, 4895.562
583.3763, 5027.233
583.8585, 5163.815
584.3406, 5304.293
584.8227, 5445.270
585.3048, 5584.941
585.7869, 5727.860
586.2690, 5879.861
586.7512, 6042.542
587.2333, 6207.490
587.7154, 6376.759
588.1975, 6546.492
588.6796, 6716.510
589.1617, 6886.244
589.6438, 7053.724
590.1259, 7217.621
590.6080, 7385.608
591.0901, 7569.519
591.5723, 7771.612
592.0544, 7967.034
592.5365, 8147.589
593.0186, 8331.339
593.5007, 8528.150
593.9828, 8731.539
594.4650, 8933.991
594.9471, 9132.295
595.4292, 9330.241
595.9113, 9529.313
596.3934, 9728.789
596.8755, 9925.375
597.3577, 10118.32
597.8398, 10307.48
598.3219, 10493.27
598.8040, 10674.98
599.2861, 10849.37
599.7682, 11014.01
600.2504, 11175.90
600.7325, 11340.79
601.2146, 11501.27
601.6967, 11652.32
602.1788, 11792.54
602.6609, 11921.50
603.1431, 12037.92
603.6252, 12142.82
604.1073, 12237.69
604.5894, 12323.36
605.0715, 12397.05
605.5536, 12458.32
606.0358, 12506.57
606.5179, 12539.38
607.0000, 12557.27
607.4821, 12565.86
607.9642, 12571.80
608.4464, 12567.09
608.9285, 12541.45
609.4106, 12495.81
609.8927, 12435.41
610.3748, 12360.85
610.8569, 12277.36
611.3391, 12192.71
611.8212, 12109.34
612.3033, 12014.15
612.7854, 11906.99
613.2675, 11789.17
613.7496, 11655.55
614.2318, 11512.67
614.7139, 11373.56
615.1960, 11241.97
615.6781, 11105.63
616.1602, 10943.63
616.6423, 10754.08
617.1245, 10575.76
617.6066, 10412.34
618.0887, 10254.00
618.5708, 10093.10
619.0529, 9933.597
619.5350, 9781.948
620.0172, 9640.737
620.4993, 9498.127
620.9814, 9346.149
621.4635, 9188.208
621.9456, 9026.374
622.4277, 8861.885
622.9099, 8703.069
623.3920, 8556.310
623.8741, 8418.041
624.3562, 8277.805
624.8383, 8129.175
625.3204, 7988.329
625.8026, 7860.202
626.2847, 7735.468
626.7668, 7608.620
627.2489, 7479.641
627.7310, 7350.828
628.2131, 7221.915
628.6953, 7096.445
629.1774, 6980.822
629.6595, 6876.183
630.1416, 6766.726
630.6237, 6646.848
631.1058, 6526.878
631.5880, 6414.765
632.0701, 6309.077
632.5522, 6207.396
633.0343, 6111.696
633.5164, 6017.305
633.9985, 5920.286
634.4807, 5823.299
634.9628, 5730.738
635.4449, 5643.207
635.9270, 5556.993
636.4091, 5469.071
636.8912, 5379.469
637.3734, 5293.894
637.8555, 5215.228
638.3376, 5135.995
638.8197, 5050.703
639.3018, 4967.496
639.7839, 4893.189
640.2661, 4827.721
640.7482, 4765.128
641.2303, 4703.163
641.7124, 4641.476
642.1945, 4578.978
642.6766, 4516.004
643.1588, 4454.989
643.6409, 4396.597
644.1230, 4341.030
644.6051, 4289.026
645.0872, 4241.234
645.5693, 4193.449
646.0515, 4147.716
646.5336, 4099.748
647.0157, 4043.596
647.4978, 3986.073
647.9799, 3937.500
648.4620, 3899.624
648.9442, 3864.279
649.4263, 3822.321
649.9084, 3774.556
650.3905, 3731.156
650.8726, 3692.780
651.3547, 3656.665
651.8369, 3623.902
652.3190, 3591.311
652.8011, 3555.149
653.2832, 3515.095
653.7653, 3476.501
654.2474, 3440.612
654.7296, 3407.406
655.2117, 3379.030
655.6938, 3353.361
656.1759, 3323.784
656.6580, 3287.572
657.1401, 3249.124
657.6223, 3214.879
658.1044, 3185.575
658.5865, 3156.034
659.0686, 3126.449
659.5507, 3096.332
660.0328, 3063.952
660.5150, 3032.054
660.9971, 3004.388
661.4792, 2981.730
661.9613, 2959.829
662.4434, 2936.297
662.9255, 2911.044
663.4077, 2883.415
663.8898, 2853.458
664.3719, 2824.345
664.8540, 2797.840
665.3361, 2772.339
665.8182, 2744.567
666.3004, 2712.989
666.7825, 2684.810
667.2646, 2661.416
667.7467, 2640.006
668.2288, 2620.161
668.7109, 2601.031
669.1931, 2581.535
669.6752, 2561.241
670.1573, 2540.668
670.6394, 2520.662
671.1215, 2501.104
671.6036, 2480.703
672.0858, 2459.321
672.5679, 2437.818
673.0500, 2415.937
673.5321, 2394.680
674.0142, 2375.760
674.4963, 2359.514
674.9785, 2342.743
675.4606, 2324.986
675.9427, 2306.000
676.4248, 2284.431
676.9069, 2261.606
677.3890, 2240.928
677.8712, 2223.649
678.3533, 2207.924
678.8354, 2190.963
679.3175, 2172.539
679.7996, 2155.040
680.2817, 2138.178
680.7639, 2122.624
681.2460, 2111.122
681.7281, 2099.564
682.2102, 2082.121
682.6923, 2057.794
683.1744, 2035.179
683.6566, 2020.694
684.1387, 2009.226
684.6208, 1993.697
685.1029, 1974.977
685.5850, 1957.906
686.0671, 1944.702
686.5493, 1933.524
687.0314, 1921.520
687.5135, 1908.456
687.9956, 1896.082
688.4777, 1885.457
688.9598, 1874.317
689.4420, 1862.511
689.9241, 1849.646
690.4062, 1834.495
690.8883, 1817.140
691.3704, 1801.082
691.8525, 1790.371
692.3347, 1782.150
692.8168, 1770.495
693.2989, 1755.543
693.7810, 1740.574
694.2631, 1726.421
694.7452, 1713.897
695.2274, 1704.881
695.7095, 1700.654
696.1916, 1691.778
696.6737, 1675.728
697.1558, 1658.563
697.6379, 1639.903
698.1201, 1622.381
698.6022, 1609.855
699.0843, 1602.305
699.5664, 1594.934
700.0485, 1583.619
700.5306, 1569.633
701.0128, 1556.113
701.4949, 1543.040
701.9770, 1531.007
702.4591, 1520.503
702.9412, 1510.654
703.4233, 1500.716
703.9055, 1490.657
704.3876, 1480.027
704.8697, 1467.236
705.3518, 1455.691
705.8339, 1448.830
706.3160, 1442.626
706.7982, 1431.287
707.2803, 1414.995
707.7624, 1399.974
708.2445, 1391.720
708.7266, 1387.717
709.2087, 1381.082
709.6909, 1371.615
710.1730, 1361.707
710.6551, 1351.686
711.1372, 1341.657
711.6193, 1331.390
712.1014, 1321.079
712.5836, 1311.943
713.0657, 1304.285
713.5478, 1297.472
714.0299, 1293.146
714.5120, 1288.388
714.9941, 1278.115
715.4763, 1263.576
715.9584, 1252.823
716.4405, 1252.097
716.9226, 1255.539
717.4047, 1247.595
717.8868, 1226.464
718.3690, 1211.503
718.8511, 1208.062
719.3332, 1206.684
719.8153, 1200.867
720.2974, 1192.034
720.7795, 1183.539
721.2617, 1175.626
721.7438, 1168.109
722.2259, 1161.651
722.7080, 1155.076
723.1901, 1146.836
723.6722, 1137.392
724.1544, 1128.143
724.6365, 1119.788
725.1186, 1112.630
725.6007, 1107.720
726.0828, 1105.363
726.5649, 1101.415
727.0471, 1095.765
727.5292, 1088.337
728.0113, 1077.285
728.4934, 1065.161
728.9755, 1056.041
729.4576, 1050.644
729.9398, 1045.546
730.4219, 1040.675
730.9040, 1034.872
731.3861, 1026.026
731.8682, 1015.733
732.3503, 1007.479
732.8325, 1002.474
733.3146, 999.0839
733.7967, 996.1017
734.2788, 993.2902
734.7609, 986.0384
735.2430, 972.1750
735.7252, 960.6063
736.2073, 955.9828
736.6894, 953.8216
737.1715, 949.0151
737.6536, 941.6614
738.1357, 934.0037
738.6179, 925.7262
739.1000, 918.0900
739.5821, 912.4657
740.0642, 907.5753
740.5463, 900.7979
741.0284, 892.1603
741.5106, 885.0685
741.9927, 882.9645
742.4748, 883.6799
742.9569, 879.5449
743.4390, 869.6131
743.9211, 860.5283
744.4033, 853.2808
744.8854, 847.5919
745.3675, 844.4183
745.8496, 842.7103
746.3317, 838.9452
746.8138, 831.5381
747.2960, 824.2322
747.7781, 817.8180
748.2602, 812.2919
748.7423, 808.4027
749.2244, 805.4750
749.7065, 801.5646
750.1887, 795.5873
750.6708, 788.8656
751.1529, 783.2004
751.6350, 778.6157
752.1171, 775.3233
752.5992, 773.8638
753.0814, 771.8627
753.5635, 767.7050
754.0456, 762.4656
754.5277, 758.4296
755.0098, 756.0352
755.4919, 752.6697
755.9741, 746.7064
756.4562, 741.0265
756.9383, 737.6163
757.4204, 735.3362
757.9025, 732.3365
758.3846, 728.1789
758.8668, 723.9077
759.3489, 720.7126
759.8310, 718.0688
760.3131, 713.9313
760.7952, 708.2572
761.2773, 704.4498
761.7595, 704.1774
762.2416, 704.4611
762.7237, 702.2761
763.2058, 697.6620
763.6879, 692.8380
764.1700, 686.3741
764.6522, 681.6537
765.1343, 680.6192
765.6164, 680.4714
766.0985, 679.1217
766.5806, 676.5974
767.0627, 673.8487
767.5449, 671.3804
768.0270, 668.7841
768.5091, 665.4175
768.9912, 661.5281
769.4733, 657.7362
769.9554, 654.1205
770.4376, 651.6705
770.9197, 651.3603
771.4018, 651.8059
771.8839, 649.7110
772.3660, 643.5016
772.8481, 639.2535
773.3303, 638.6065
773.8124, 637.8864
774.2945, 635.6187
774.7766, 632.7155
775.2587, 630.5736
775.7408, 629.3336
776.2230, 627.4641
776.7051, 623.2261
777.1872, 618.4487
777.6693, 615.4654
778.1514, 613.8265
778.6335, 612.1705
779.1157, 610.1121
779.5978, 607.7027
780.0799, 604.9540
780.5620, 601.9254
781.0441, 598.7867
781.5262, 595.0417
782.0084, 592.4303
782.4905, 592.7957
782.9726, 592.7224
783.4547, 589.4734
783.9368, 584.2614
784.4189, 580.1854
784.9011, 578.2099
785.3832, 576.5452
785.8653, 574.4526
786.3474, 572.1783
786.8295, 569.7991
787.3116, 567.4733
787.7938, 565.6523
788.2759, 564.5309
788.7580, 563.5785
789.2401, 562.0701
789.7222, 560.0211
790.2043, 557.6520
790.6865, 554.6526
791.1686, 552.7286
791.6507, 553.3268
792.1328, 554.3798
792.6149, 552.7985
793.0970, 548.5665
793.5792, 545.8908
794.0613, 546.4006
794.5434, 546.7693
795.0255, 546.3768
795.5076, 545.0557
795.9897, 542.0623
796.4719, 537.9149
796.9540, 534.3831
797.4361, 532.4354
797.9182, 531.6335
798.4003, 531.8547
798.8824, 532.7643
799.3646, 533.1257
799.8467, 532.7921
800.3288, 531.5630
800.8109, 529.0825
801.2930, 526.1152
801.7751, 524.3465
802.2573, 524.2014
802.7394, 523.8381
803.2215, 522.3104
803.7036, 521.6801
804.1857, 523.5206
804.6678, 525.9324
805.1500, 526.4105
805.6321, 524.9104
806.1142, 524.3198
806.5963, 527.1074
807.0784, 530.2988
807.5605, 531.0628
808.0427, 530.5204
808.5248, 530.8183
809.0069, 532.3105
809.4890, 534.1190
809.9711, 535.6320
810.4532, 536.8791
810.9354, 537.6094
811.4175, 537.5485
811.8996, 539.5079
812.3817, 545.1123
812.8638, 549.8026
813.3459, 550.4682
813.8281, 548.7223
814.3102, 547.9047
814.7923, 548.0515
815.2744, 548.8761
815.7565, 550.5336
816.2386, 552.6385
816.7208, 555.6027
817.2029, 558.5697
817.6850, 560.2198
818.1671, 560.4786
818.6492, 560.7376
819.1313, 562.1432
819.6135, 564.0146
820.0956, 565.0862
820.5777, 565.5898
821.0598, 566.5810
821.5419, 568.2754
822.0240, 570.4427
822.5062, 572.9991
822.9883, 575.7821
823.4704, 578.3275
823.9525, 580.7830
824.4346, 582.5690
824.9167, 582.5983
825.3989, 583.2639
825.8810, 586.1111
826.3631, 589.8306
826.8452, 592.4622
827.3273, 593.7047
827.8094, 595.6421
828.2916, 599.2106
828.7737, 603.5914
829.2558, 608.7411
829.7379, 614.0771
830.2200, 618.1810
830.7021, 621.2017
831.1843, 625.3647
831.6664, 632.5283
832.1485, 641.5366
832.6306, 650.1102
833.1127, 658.2450
833.5948, 665.5690
834.0770, 671.7040
834.5591, 678.7377
835.0412, 688.0605
835.5233, 698.9712
836.0054, 709.4166
836.4875, 718.1637
836.9697, 730.1660
837.4518, 748.1399
837.9339, 765.8021
838.4160, 780.6254
838.8981, 794.2670
839.3802, 808.0322
839.8624, 822.3458
840.3445, 838.2325
840.8266, 857.0457
841.3087, 876.5812
841.7908, 894.4170
842.2729, 911.9681
842.7551, 932.2186
843.2372, 955.0299
843.7193, 977.1135
844.2014, 996.3407
844.6835, 1014.746
845.1656, 1036.585
845.6478, 1062.008
846.1299, 1086.806
846.6120, 1110.981
847.0941, 1134.162
847.5762, 1155.922
848.0583, 1177.140
848.5405, 1199.011
849.0226, 1221.588
849.5047, 1243.854
849.9868, 1265.052
850.4689, 1286.804
850.9510, 1311.343
851.4332, 1334.953
851.9153, 1354.911
852.3974, 1371.159
852.8795, 1384.693
853.3616, 1395.787
853.8438, 1404.418
854.3259, 1410.427
854.8080, 1414.004
855.2901, 1416.221
855.7722, 1416.348
856.2543, 1411.413
856.7365, 1400.252
857.2186, 1385.457
857.7007, 1369.971
858.1828, 1353.636
858.6649, 1335.906
859.1470, 1317.042
859.6292, 1294.170
860.1113, 1264.940
860.5934, 1235.074
861.0755, 1209.804
861.5576, 1188.259
862.0397, 1165.644
862.5219, 1140.764
863.0040, 1116.923
863.4861, 1093.630
863.9682, 1072.061
864.4503, 1053.294
864.9324, 1036.455
865.4146, 1019.970
865.8967, 1003.654
866.3788, 988.7695
866.8609, 976.5923
867.3430, 965.7847
867.8251, 955.5760
868.3073, 945.6212
868.7894, 935.3643
869.2715, 924.6797
869.7536, 913.8326
870.2357, 902.9006
870.7178, 892.0953
871.2000, 881.6801
871.6821, 871.6800
872.1642, 862.9684
872.6463, 856.3475
873.1284, 846.5949
873.6105, 830.6052
874.0927, 811.1633
874.5748, 792.2784
875.0569, 773.7113
875.5390, 756.8994
876.0211, 744.0684
876.5032, 730.0214
876.9854, 712.6847
877.4675, 694.9037
877.9496, 678.9194
878.4317, 664.3904
878.9138, 650.1152
879.3959, 635.9149
879.8781, 621.5854
880.3602, 606.7947
880.8423, 592.1950
881.3244, 578.1795
881.8065, 564.8878
882.2886, 552.4357
882.7708, 540.8519
883.2529, 529.7628
883.7350, 518.9437
884.2171, 508.2648
884.6992, 497.1760
885.1813, 485.7816
885.6635, 475.4693
886.1456, 466.4929
886.6277, 458.2313
887.1098, 450.3408
887.5919, 442.8001
888.0740, 435.6910
888.5562, 429.1238
889.0383, 422.6615
889.5204, 416.2986
890.0025, 410.0961
890.4846, 404.1035
890.9667, 398.2618
891.4489, 392.3167
891.9310, 386.3273
892.4131, 381.1979
892.8952, 377.4275
893.3773, 374.0726
893.8594, 371.4042
894.3416, 368.5717
894.8237, 364.1614
895.3058, 359.1212
895.7879, 355.7882
896.2700, 354.9924
896.7521, 354.8958
897.2343, 354.5410
897.7164, 353.6540
898.1985, 351.2083
898.6806, 347.9437
899.1627, 346.1114
899.6448, 346.1712
900.1270, 346.6334
900.6091, 346.2547
901.0912, 345.4943
901.5733, 345.6253
902.0554, 346.6628
902.5375, 347.6714
903.0197, 348.6296
903.5018, 349.2072
903.9839, 349.0877
904.4660, 348.7529
904.9481, 348.9966
905.4302, 349.8954
905.9124, 350.6178
906.3945, 350.8219
906.8766, 351.3460
907.3587, 352.5808
907.8408, 353.9252
908.3229, 355.4464
908.8051, 356.6941
909.2872, 356.3990
909.7693, 353.6956
910.2514, 351.4852
910.7335, 351.8294
911.2156, 352.0706
911.6978, 350.2715
912.1799, 347.0481
912.6620, 343.5254
913.1441, 339.9110
913.6262, 335.7758
914.1083, 330.8118
914.5905, 325.1661
915.0726, 318.6964
915.5547, 311.7673
916.0368, 305.0648
916.5189, 298.7918
917.0010, 293.5218
917.4832, 289.6216
917.9652, 285.7348
918.4473, 279.6716
918.9294, 271.7107
919.4116, 264.7150
919.8937, 258.7101
920.3758, 253.8896
920.8579, 250.5882
921.3400, 247.7782
921.8221, 244.7269
922.3043, 241.4120
922.7864, 237.6444
923.2685, 232.6739
923.7506, 228.9092
924.2327, 226.8846
924.7148, 225.4564
925.1970, 225.0495
925.6791, 224.5399
926.1612, 222.3584
926.6433, 218.6257
927.1254, 215.6212
927.6075, 214.4934
928.0897, 213.3699
928.5718, 211.3252
929.0539, 209.2011
929.5360, 207.6984
930.0181, 206.7275
930.5002, 206.0553
930.9824, 205.5969
931.4645, 204.8578
931.9466, 202.8766
932.4287, 200.8671
932.9108, 200.5662
933.3929, 201.3931
933.8751, 202.2460
934.3572, 202.7805
934.8393, 202.4455
935.3214, 200.7916
935.8035, 198.7730
936.2856, 198.1973
936.7678, 198.8253
937.2499, 198.8559
937.7320, 198.2028
938.2141, 197.8691
938.6962, 198.2844
939.1783, 198.7168
939.6605, 198.4210
940.1426, 197.4548
940.6247, 196.0129
941.1068, 193.5619
941.5889, 192.3327
942.0710, 193.1179
942.5532, 194.0828
943.0353, 194.1894
943.5174, 194.0118
943.9995, 194.7556
944.4816, 196.6131
944.9637, 197.0860
945.4459, 194.6505
945.9280, 192.7782
946.4101, 192.0532
946.8922, 192.3231
947.3743, 194.3583
947.8564, 197.0879
948.3386, 198.0328
948.8207, 196.2853
949.3028, 194.9327
949.7849, 195.6439
950.2670, 196.9771
950.7491, 198.2600
951.2313, 199.2841
951.7134, 199.7073
952.1955, 199.6251
952.6776, 199.5285
953.1597, 199.5940
953.6418, 200.1168
954.1240, 201.8821
954.6061, 204.0942
955.0882, 205.3783
955.5703, 205.7502
956.0524, 205.4212
956.5345, 204.5447
957.0167, 204.0055
957.4988, 204.7122
957.9809, 206.1625
958.4630, 207.0967
958.9451, 207.5500
959.4272, 208.0328
959.9094, 208.6103
960.3915, 209.0906
960.8736, 209.4538
961.3557, 209.3258
961.8378, 207.9434
962.3199, 205.4001
962.8021, 204.5335
963.2842, 205.7594
963.7663, 207.4375
964.2484, 209.8855
964.7305, 211.6285
965.2126, 211.3160
965.6948, 209.8808
966.1769, 209.3965
966.6590, 210.0655
967.1411, 210.8979
967.6232, 212.3433
968.1053, 213.3376
968.5875, 213.2219
969.0696, 212.9350
969.5517, 213.3046
970.0338, 214.1046
970.5159, 214.4865
970.9980, 213.9521
971.4802, 214.1292
971.9623, 215.9764
972.4444, 218.1188
972.9265, 220.1836
973.4086, 221.8322
973.8907, 222.4704
974.3729, 222.2736
974.8550, 222.2445
975.3371, 222.8709
975.8192, 223.6446
976.3013, 224.2569
976.7834, 224.7763
977.2656, 225.3708
977.7477, 225.9159
978.2298, 225.8250
978.7119, 225.1561
979.1940, 225.3402
979.6761, 227.8624
980.1583, 230.9558
980.6404, 231.6957
981.1225, 231.1152
981.6046, 231.9308
982.0867, 234.0583
982.5688, 235.5332
983.0510, 235.5786
983.5331, 235.3040
984.0152, 235.8328
984.4973, 237.0938
984.9794, 239.1110
985.4615, 241.7958
985.9437, 243.8996
986.4258, 245.2198
986.9079, 246.6044
987.3900, 248.5489
987.8721, 250.6315
988.3542, 252.1935
988.8364, 253.2527
989.3185, 254.3481
989.8006, 255.5874
990.2827, 256.2430
990.7648, 255.8601
991.2469, 255.8194
991.7291, 257.4915
992.2112, 259.5987
992.6933, 259.0514
993.1754, 254.9546
993.6575, 253.3018
994.1396, 255.5190
994.6218, 257.6770
995.1039, 259.3923
995.5860, 260.2742
996.0681, 259.3425
996.5502, 257.4282
997.0323, 256.9449
997.5145, 258.6979
997.9966, 259.4911
998.4787, 257.7499
998.9608, 256.7709
999.4429, 258.6717
999.9250, 260.9095
1000.407, 260.7329
1000.889, 258.8877
1001.371, 258.3558
1001.854, 260.0459
1002.336, 262.0373
1002.818, 264.2347
1003.300, 266.0259
1003.782, 267.0078
1004.264, 267.4265
1004.746, 267.0584
1005.228, 266.3462
1005.710, 266.9188
1006.193, 269.7369
1006.675, 272.8949
1007.157, 276.0001
1007.639, 278.2379
1008.121, 278.1028
1008.603, 276.9142
1009.085, 277.0119
1009.567, 278.5895
1010.049, 280.0341
1010.532, 280.4407
1011.014, 280.4181
1011.496, 280.6308
1011.978, 280.7150
1012.460, 280.1255
1012.942, 278.9657
1013.424, 277.4331
1013.906, 275.6737
1014.389, 274.0909
1014.871, 273.0148
1015.353, 272.1976
1015.835, 271.7168
1016.317, 271.0773
1016.799, 268.6443
1017.281, 264.8221
1017.763, 262.0532
1018.245, 261.0175
1018.728, 259.6250
1019.210, 255.8767
1019.692, 250.8914
1020.174, 246.9806
1020.656, 243.9746
1021.138, 241.2216
1021.620, 238.6060
1022.102, 235.2166
1022.585, 230.6877
1023.067, 226.8398
1023.549, 225.9753
1024.031, 226.5934
1024.513, 223.1816
1024.995, 215.8662
1025.477, 210.3608
1025.959, 207.2618
1026.442, 204.4769
1026.924, 201.2977
1027.406, 197.1083
1027.888, 190.8420
1028.370, 183.2147
1028.852, 178.5427
1029.334, 177.3682
1029.816, 174.9362
1030.298, 170.4809
1030.781, 166.2583
1031.263, 163.3035
1031.745, 161.0339
1032.227, 158.8441
1032.709, 156.6971
1033.191, 154.0677
1033.673, 150.6804
1034.155, 147.7661
1034.637, 145.3247
1035.120, 143.6955
1035.602, 143.7334
1036.084, 143.6135
1036.566, 140.5305
1037.048, 134.8018
1037.530, 131.5775
1038.012, 132.0176
1038.494, 132.3860
1038.977, 132.5902
1039.459, 132.4603
1039.941, 131.7519
1040.423, 130.8275
1040.905, 130.2488
1041.387, 129.9821
1041.869, 129.1346
1042.351, 126.9112
1042.833, 125.4405
1043.316, 125.6540
1043.798, 125.6283
1044.280, 124.0336
1044.762, 122.1103
1045.244, 121.4921
1045.726, 122.0959
1046.208, 122.3095
1046.690, 122.0331
1047.172, 121.4218
1047.655, 119.7226
1048.137, 118.5775
1048.619, 119.5808
1049.101, 120.9783
1049.583, 120.2338
1050.065, 117.5772
1050.547, 116.3241
1051.029, 118.2285
1051.512, 119.3625
1051.994, 118.7919
1052.476, 117.7604
1052.958, 116.3082
1053.440, 115.1143
1053.922, 115.2278
1054.404, 116.4577
1054.886, 117.1805
1055.369, 116.7788
1055.851, 116.4276
1056.333, 116.7134
1056.815, 116.7513
1057.297, 115.4305
1057.779, 114.0366
1058.261, 114.4638
1058.743, 116.3958
1059.225, 117.4768
1059.708, 116.7879
1060.190, 116.0207
1060.672, 115.8575
1061.154, 115.5526
1061.636, 114.2381
1062.118, 112.8689
1062.600, 112.7075
1063.082, 113.5808
1063.564, 114.2578
1064.047, 114.2695
1064.529, 114.5149
1065.011, 115.7621
1065.493, 116.8316
1065.975, 117.1488
1066.457, 116.8446
1066.939, 115.4818
1067.421, 113.6685
1067.904, 113.4241
1068.386, 115.7370
1068.868, 117.7549
1069.350, 118.3769
1069.832, 118.2955
1070.314, 117.3552
1070.796, 116.3474
1071.278, 116.2290
1071.760, 116.7625
1072.243, 117.0118
1072.725, 116.6760
1073.207, 116.3827
1073.689, 116.4357
1074.171, 116.5702
1074.653, 116.9240
1075.135, 117.0504
1075.617, 116.1143
1076.099, 114.6547
1076.582, 114.1220
1077.064, 114.9309
1077.546, 115.7461
1078.028, 115.7977
1078.510, 115.9196
1078.992, 116.8141
1079.474, 117.7813
1079.956, 118.3384
1080.439, 118.3725
1080.921, 117.4486
1081.403, 115.5310
1081.885, 114.5958
1082.367, 116.3021
1082.849, 118.1623
1083.331, 118.9796
1083.813, 119.3584
1084.295, 119.8851
1084.778, 120.3361
1085.260, 120.1781
1085.742, 119.3650
1086.224, 118.5070
1086.706, 117.4030
1087.188, 117.0024
1087.670, 118.6950
1088.152, 120.2924
1088.635, 119.8554
1089.117, 118.3601
1089.599, 117.2494
1090.081, 116.7223
1090.563, 116.3543
1091.045, 115.7062
1091.527, 115.8527
1092.009, 118.7498
1092.491, 120.9441
1092.974, 118.8543
1093.456, 115.6167
1093.938, 115.5895
1094.420, 118.3333
1094.902, 120.0328
1095.384, 119.3609
1095.866, 118.5246
1096.348, 118.2032
1096.830, 118.0872
1097.313, 118.3189
1097.795, 118.4277
1098.277, 117.5388
1098.759, 116.1732
1099.241, 116.0407
1099.723, 117.8015
1100.205, 118.8641
1100.687, 117.8695
1101.170, 116.7616
1101.652, 116.3673
1102.134, 116.1502
1102.616, 115.5418
1103.098, 114.8032
1103.580, 114.5412
1104.062, 114.8622
1104.544, 115.1949
1105.026, 115.5901
1105.509, 115.7219
1105.991, 115.0824
1106.473, 114.5919
1106.955, 115.1482
1107.437, 116.0523
1107.919, 116.2128
1108.401, 115.5839
1108.883, 114.9634
1109.365, 114.3326
1109.848, 113.9221
1110.330, 114.0185
1110.812, 114.0360
1111.294, 113.5014
1111.776, 112.9011
1112.258, 112.9224
1112.740, 113.4139
1113.222, 113.3999
1113.705, 112.3821
1114.187, 111.8336
1114.669, 111.9142
1115.151, 112.3619
1115.633, 113.8174
1116.115, 114.9574
1116.597, 114.3166
1117.079, 112.6278
1117.562, 111.9170
1118.044, 112.4956
1118.526, 112.7137
1119.008, 112.4273
1119.490, 112.0086
1119.972, 111.2476
1120.454, 110.7770
1120.936, 111.2698
1121.418, 112.0277
1121.901, 111.7359
1122.383, 110.3585
1122.865, 109.8668
1123.347, 110.6326
1123.829, 111.3376
1124.311, 111.9386
1124.793, 112.2714
1125.275, 112.1830
1125.757, 111.9378
1126.240, 111.8537
1126.722, 111.8772
1127.204, 111.7652
1127.686, 111.5973
1128.168, 110.7276
1128.650, 108.7513
1129.132, 107.7715
1129.614, 108.6368
1130.097, 109.9404
1130.579, 110.6236
1131.061, 110.7627
1131.543, 110.5192
1132.025, 109.8908
1132.507, 108.8171
1132.989, 107.2052
1133.471, 106.7561
1133.953, 107.9234
1134.436, 108.6329
1134.918, 107.6284
1135.400, 106.0573
1135.882, 105.4918
1136.364, 105.7932
1136.846, 106.6639
1137.328, 107.9485
1137.810, 108.1559
1138.292, 107.1956
1138.775, 106.0234
1139.257, 105.0154
1139.739, 104.4153
1140.221, 104.4505
1140.703, 105.0011
1141.185, 106.3773
1141.667, 107.9337
1142.149, 107.2169
1142.632, 104.8075
1143.114, 103.3873
1143.596, 103.5131
1144.078, 104.2404
1144.560, 105.0900
1145.042, 105.4945
1145.524, 104.2988
1146.006, 102.6067
1146.489, 102.1636
1146.971, 102.5396
1147.453, 103.0323
1147.935, 103.4264
1148.417, 103.4342
1148.899, 102.9851
1149.381, 102.6320
1149.863, 102.8484
1150.345, 103.2342
1150.828, 103.4950
1151.310, 103.6698
1151.792, 103.9441
1152.274, 104.0994
1152.756, 103.5845
1153.238, 102.4623
1153.720, 101.5704
1154.202, 101.2863
1154.684, 101.1848
1155.167, 101.1003
1155.649, 101.0640
1156.131, 101.1838
1156.613, 101.2917
1157.095, 101.3444
1157.577, 101.2048
1158.059, 100.3512
1158.541, 98.49751
1159.024, 97.63354
1159.506, 99.17590
1159.988, 100.4264
1160.470, 100.4720
1160.952, 100.1728
1161.434, 100.1423
1161.916, 100.0465
1162.398, 99.01524
1162.880, 97.15706
1163.363, 96.71526
1163.845, 99.15692
1164.327, 100.3000
1164.809, 99.50310
1165.291, 98.42292
1165.773, 97.10213
1166.255, 96.41721
1166.737, 97.52853
1167.219, 99.43105
1167.702, 99.36618
1168.184, 96.99564
1168.666, 96.51735
1169.148, 98.47966
1169.630, 99.69688
1170.112, 99.56798
1170.594, 98.97936
1171.076, 98.28540
1171.559, 97.78838
1172.041, 97.96786
1172.523, 98.52588
1173.005, 98.26392
1173.487, 97.25088
1173.969, 96.26028
1174.451, 95.36350
1174.933, 94.69792
1175.416, 94.31706
1175.898, 94.55107
1176.380, 95.67995
1176.862, 97.11031
1177.344, 98.30151
1177.826, 98.97987
1178.308, 97.91647
1178.790, 95.97764
1179.272, 95.58074
1179.755, 96.62852
1180.237, 97.43196
1180.719, 97.36600
1181.201, 96.90993
1181.683, 96.30786
1182.165, 95.67044
1182.647, 94.83217
1183.129, 94.24863
1183.611, 94.80814
1184.094, 95.80105
1184.576, 96.08778
1185.058, 95.55487
1185.540, 94.49317
1186.022, 92.75723
1186.504, 91.79178
1186.986, 93.28493
1187.468, 94.34985
1187.951, 93.01714
1188.433, 91.22227
1188.915, 90.41888
1189.397, 90.37395
1189.879, 90.51934
1190.361, 90.80373
1190.843, 91.23823
1191.325, 92.42943
1191.807, 92.76933
1192.290, 91.55370
1192.772, 90.41759
1193.254, 89.69251
1193.736, 89.52519
1194.218, 90.24836
1194.700, 91.48602
1195.182, 92.30260
1195.664, 92.70113
1196.146, 92.54662
1196.629, 91.68217
1197.111, 91.26677
1197.593, 91.64461
1198.075, 91.20383
1198.557, 89.01598
1199.039, 86.76366
1199.521, 86.33990
1200.003, 87.15944
1200.486, 87.79744
1200.968, 88.24298
1201.450, 88.32852
1201.932, 88.12407
1202.414, 88.05858
1202.896, 88.18787
1203.378, 88.18619
1203.860, 87.87502
1204.343, 87.42509
1204.825, 87.00381
1205.307, 86.55980
1205.789, 85.89474
1206.271, 85.25339
1206.753, 85.05387
1207.235, 85.17230
1207.717, 85.33313
1208.199, 85.43762
1208.682, 85.34678
1209.164, 84.87092
1209.646, 84.59050
1210.128, 85.21705
1210.610, 85.61235
1211.092, 84.54308
1211.574, 83.43217
1212.056, 84.04967
1212.538, 85.54450
1213.021, 85.86306
1213.503, 84.74067
1213.985, 83.74959
1214.467, 82.95399
1214.949, 82.35326
1215.431, 81.68544
1215.913, 81.72366
1216.395, 83.25266
1216.878, 84.75074
1217.360, 84.80873
1217.842, 83.85747
1218.324, 82.95174
1218.806, 82.09174
1219.288, 81.48425
1219.770, 81.15535
1220.252, 80.56084
1220.734, 79.61071
1221.217, 79.12299
1221.699, 79.46101
1222.181, 80.08390
1222.663, 80.50196
1223.145, 80.74673
1223.627, 80.96906
1224.109, 81.02192
1224.591, 80.36225
1225.073, 79.28056
1225.556, 78.58453
1226.038, 78.32247
1226.520, 77.94923
1227.002, 77.25864
1227.484, 77.01018
1227.966, 78.32886
1228.448, 79.51621
1228.930, 79.17410
1229.413, 78.37067
1229.895, 77.96149
1230.377, 77.76146
1230.859, 77.33071
1231.341, 76.75488
1231.823, 76.62073
1232.305, 77.22462
1232.787, 77.53442
1233.270, 77.03178
1233.752, 76.81383
1234.234, 77.45068
1234.716, 77.88869
1235.198, 77.58305
1235.680, 76.78254
1236.162, 75.63145
1236.644, 74.33283
1237.126, 73.93069
1237.609, 74.52998
1238.091, 74.94974
1238.573, 75.15522
1239.055, 75.42436
1239.537, 75.81802
1240.019, 76.00645
1240.501, 75.81041
1240.983, 75.29142
1241.465, 74.38860
1241.948, 73.43367
1242.430, 73.18612
1242.912, 73.29796
1243.394, 73.05222
1243.876, 72.54430
1244.358, 72.04229
1244.840, 71.66689
1245.322, 71.64313
1245.805, 72.09334
1246.287, 72.53831
1246.769, 72.67476
1247.251, 72.75520
1247.733, 73.02375
1248.215, 73.18645
1248.697, 73.00613
1249.179, 72.58018
1249.661, 71.95788
1250.144, 71.21138
1250.626, 70.67140
1251.108, 70.26005
1251.590, 70.40141
1252.072, 71.64221
1252.554, 72.12444
1253.036, 71.21293
1253.518, 70.32198
1254.000, 70.24596
1254.483, 70.28970
1254.965, 69.52415
1255.447, 68.38963
1255.929, 68.46858
1256.411, 69.51050
1256.893, 69.59700
1257.375, 68.87025
1257.857, 68.58623
1258.340, 68.86324
1258.822, 68.68310
1259.304, 67.63096
1259.786, 67.00708
1260.268, 68.27332
1260.750, 69.79387
1261.232, 69.84756
1261.714, 69.39378
1262.197, 69.30656
1262.679, 69.46700
1263.161, 69.82110
1263.643, 70.14832
1264.125, 69.74856
1264.607, 68.33507
1265.089, 67.55977
1265.571, 68.54030
1266.053, 68.89107
1266.536, 67.45242
1267.018, 66.55782
1267.500, 67.43587
1267.982, 68.67177
1268.464, 68.97134
1268.946, 68.70937
1269.428, 68.89549
1269.910, 69.47654
1270.392, 68.96190
1270.875, 67.40597
1271.357, 66.30669
1271.839, 65.85934
1272.321, 66.19526
1272.803, 67.28155
1273.285, 68.17730
1273.767, 68.17229
1274.249, 67.87168
1274.732, 67.99674
1275.214, 68.20055
1275.696, 68.03846
1276.178, 67.70427
1276.660, 67.47147
1277.142, 67.29299
1277.624, 66.93532
1278.106, 66.41498
1278.589, 66.18555
1279.071, 66.57696
1279.553, 66.75609
1280.035, 66.34617
1280.517, 66.02437
##END=



