##NAMES=Titanite
##RRUFFID=R050039
##IDEAL CHEMISTRY=CaTi^4+^SiO_5_
##LOCALITY=Kingman, Arizona, USA
##OWNER=RRUFF
##SOURCE=University of Arizona Mineral Museum
##DESCRIPTION=Black fragment from a single crystal
##STATUS=The identification of this mineral has been confirmed by X-ray diffraction and chemical analysis
##URL=rruff.info/R050039
##MEASURED CHEMISTRY=(Ca_0.95_Y_0.05_)(Ti_0.85_Al_0.10_Fe^3+^_0.06_)Si_1.00_O_4_(O_0.93_F_0.07_)
174.2498, 9321.266
174.7319, 9357.956
175.2140, 9407.407
175.6961, 9463.161
176.1783, 9517.208
176.6604, 9571.450
177.1425, 9616.403
177.6246, 9629.617
178.1067, 9616.255
178.5888, 9610.830
179.0710, 9648.949
179.5531, 9713.300
180.0352, 9764.225
180.5173, 9786.342
180.9994, 9796.207
181.4815, 9817.396
181.9637, 9850.034
182.4458, 9892.011
182.9279, 9945.509
183.4100, 10008.16
183.8921, 10072.04
184.3742, 10136.00
184.8564, 10199.41
185.3385, 10259.08
185.8206, 10315.45
186.3027, 10368.77
186.7848, 10418.03
187.2669, 10463.89
187.7491, 10512.82
188.2312, 10568.51
188.7133, 10628.85
189.1954, 10686.32
189.6775, 10739.66
190.1596, 10794.30
190.6418, 10858.20
191.1239, 10930.96
191.6060, 11006.69
192.0881, 11082.10
192.5702, 11157.84
193.0524, 11241.40
193.5345, 11334.77
194.0166, 11430.19
194.4987, 11508.24
194.9808, 11566.93
195.4629, 11638.39
195.9451, 11745.59
196.4272, 11888.87
196.9093, 12007.77
197.3914, 12092.14
197.8735, 12165.16
198.3556, 12273.59
198.8378, 12421.49
199.3199, 12576.09
199.8020, 12722.85
200.2841, 12860.82
200.7662, 12982.15
201.2483, 13077.36
201.7305, 13163.87
202.2126, 13285.90
202.6947, 13448.20
203.1768, 13628.27
203.6589, 13818.79
204.1410, 14021.00
204.6232, 14210.78
205.1053, 14379.83
205.5874, 14537.70
206.0695, 14717.07
206.5516, 14921.99
207.0337, 15137.83
207.5159, 15360.46
207.9980, 15589.61
208.4801, 15804.10
208.9622, 15989.75
209.4443, 16158.80
209.9264, 16377.44
210.4086, 16663.79
210.8907, 16964.58
211.3728, 17229.32
211.8549, 17441.80
212.3370, 17682.35
212.8191, 17970.79
213.3013, 18299.51
213.7834, 18626.08
214.2655, 18946.98
214.7476, 19272.84
215.2297, 19609.94
215.7118, 19965.72
216.1940, 20320.82
216.6761, 20665.75
217.1582, 21003.34
217.6403, 21370.64
218.1224, 21778.79
218.6045, 22196.00
219.0867, 22585.71
219.5688, 22919.52
220.0509, 23287.92
220.5330, 23709.68
221.0151, 24191.59
221.4972, 24659.03
221.9794, 25107.02
222.4615, 25550.55
222.9436, 26013.83
223.4257, 26511.29
223.9078, 27004.78
224.3899, 27476.96
224.8721, 27931.89
225.3542, 28394.10
225.8363, 28871.64
226.3184, 29352.56
226.8005, 29829.58
227.2827, 30290.40
227.7648, 30766.01
228.2469, 31274.00
228.7290, 31821.87
229.2111, 32325.72
229.6932, 32756.69
230.1754, 33161.05
230.6575, 33608.83
231.1396, 34126.48
231.6217, 34635.55
232.1038, 35113.52
232.5859, 35555.05
233.0681, 35995.14
233.5502, 36441.27
234.0323, 36878.82
234.5144, 37292.15
234.9965, 37672.61
235.4786, 38038.37
235.9608, 38394.99
236.4429, 38737.04
236.9250, 39074.67
237.4071, 39406.75
237.8892, 39732.73
238.3713, 40057.16
238.8535, 40407.21
239.3356, 40709.23
239.8177, 40924.42
240.2998, 41016.40
240.7819, 41168.48
241.2640, 41423.65
241.7462, 41716.35
242.2283, 41932.66
242.7104, 42037.39
243.1925, 42123.71
243.6746, 42225.84
244.1567, 42360.31
244.6389, 42455.80
245.1210, 42513.10
245.6031, 42531.23
246.0852, 42502.32
246.5673, 42401.50
247.0494, 42296.21
247.5316, 42214.59
248.0137, 42173.56
248.4958, 42099.53
248.9779, 41994.87
249.4600, 41855.98
249.9421, 41679.76
250.4243, 41466.32
250.9064, 41213.52
251.3885, 40916.70
251.8706, 40564.66
252.3527, 40201.97
252.8348, 39837.12
253.3170, 39457.60
253.7991, 39037.48
254.2812, 38565.97
254.7633, 38083.42
255.2454, 37606.69
255.7275, 37150.08
256.2097, 36659.38
256.6918, 36126.30
257.1739, 35570.50
257.6560, 35019.48
258.1381, 34468.16
258.6202, 33929.83
259.1024, 33405.21
259.5845, 32902.90
260.0666, 32399.79
260.5487, 31892.79
261.0308, 31388.35
261.5129, 30874.18
261.9951, 30349.60
262.4772, 29827.28
262.9593, 29316.53
263.4414, 28811.61
263.9235, 28323.81
264.4056, 27843.64
264.8878, 27383.86
265.3699, 26963.00
265.8520, 26592.64
266.3341, 26217.69
266.8162, 25803.69
267.2983, 25342.56
267.7805, 24920.66
268.2626, 24553.69
268.7447, 24212.42
269.2268, 23839.39
269.7089, 23419.21
270.1910, 23024.00
270.6732, 22682.23
271.1553, 22400.56
271.6374, 22126.20
272.1195, 21863.31
272.6016, 21600.97
273.0837, 21324.97
273.5659, 21028.07
274.0480, 20748.55
274.5301, 20507.81
275.0122, 20309.11
275.4943, 20078.60
275.9764, 19803.15
276.4586, 19520.63
276.9407, 19290.48
277.4228, 19120.46
277.9049, 18959.81
278.3870, 18793.27
278.8691, 18621.00
279.3513, 18442.82
279.8334, 18253.54
280.3155, 18071.75
280.7976, 17928.24
281.2798, 17825.90
281.7619, 17723.25
282.2440, 17603.47
282.7261, 17469.21
283.2082, 17339.75
283.6903, 17214.88
284.1725, 17095.52
284.6546, 16977.56
285.1367, 16862.65
285.6188, 16768.06
286.1009, 16710.02
286.5830, 16678.35
287.0652, 16627.97
287.5473, 16557.49
288.0294, 16479.51
288.5115, 16404.28
288.9936, 16332.08
289.4757, 16268.22
289.9579, 16215.55
290.4400, 16171.83
290.9221, 16132.64
291.4042, 16098.69
291.8863, 16060.35
292.3684, 15994.72
292.8506, 15912.07
293.3327, 15857.40
293.8148, 15861.02
294.2969, 15891.66
294.7790, 15883.34
295.2611, 15835.90
295.7433, 15786.02
296.2254, 15763.04
296.7075, 15762.33
297.1896, 15771.92
297.6717, 15792.70
298.1538, 15818.27
298.6360, 15839.05
299.1181, 15855.46
299.6002, 15870.38
300.0823, 15883.59
300.5644, 15897.31
301.0465, 15915.48
301.5287, 15937.64
302.0108, 15966.46
302.4929, 16010.49
302.9750, 16066.95
303.4571, 16117.44
303.9392, 16140.57
304.4214, 16153.34
304.9035, 16181.97
305.3856, 16243.54
305.8677, 16303.93
306.3498, 16320.18
306.8319, 16305.53
307.3141, 16307.28
307.7962, 16368.50
308.2783, 16452.43
308.7604, 16523.74
309.2425, 16570.31
309.7246, 16611.23
310.2068, 16658.07
310.6889, 16708.83
311.1710, 16758.86
311.6531, 16799.53
312.1352, 16842.56
312.6173, 16897.50
313.0995, 16968.48
313.5816, 17041.90
314.0637, 17112.51
314.5458, 17181.43
315.0279, 17251.28
315.5100, 17321.08
315.9922, 17393.59
316.4743, 17469.83
316.9564, 17549.54
317.4385, 17634.63
317.9206, 17726.26
318.4027, 17823.52
318.8849, 17925.11
319.3670, 18031.85
319.8491, 18141.86
320.3312, 18258.18
320.8133, 18384.51
321.2954, 18497.82
321.7776, 18582.15
322.2597, 18656.55
322.7418, 18741.30
323.2239, 18862.29
323.7060, 18970.97
324.1881, 19044.74
324.6703, 19078.04
325.1524, 19141.34
325.6345, 19258.40
326.1166, 19396.55
326.5987, 19530.95
327.0808, 19682.63
327.5630, 19805.17
328.0451, 19880.42
328.5272, 19911.23
329.0093, 19960.89
329.4914, 20040.88
329.9735, 20128.06
330.4557, 20208.64
330.9378, 20290.16
331.4199, 20350.13
331.9020, 20371.48
332.3841, 20367.62
332.8662, 20409.88
333.3484, 20530.77
333.8305, 20647.87
334.3126, 20717.67
334.7947, 20731.92
335.2768, 20718.63
335.7589, 20665.06
336.2411, 20592.49
336.7232, 20557.63
337.2053, 20573.29
337.6874, 20590.00
338.1695, 20581.82
338.6516, 20545.08
339.1338, 20516.27
339.6159, 20497.21
340.0980, 20484.69
340.5801, 20475.79
341.0622, 20471.11
341.5443, 20463.47
342.0265, 20454.69
342.5086, 20442.83
342.9907, 20404.03
343.4728, 20334.25
343.9549, 20254.64
344.4370, 20190.31
344.9192, 20140.56
345.4013, 20095.95
345.8834, 20053.94
346.3655, 20015.17
346.8476, 19987.85
347.3297, 19972.73
347.8119, 19951.76
348.2940, 19893.37
348.7761, 19813.57
349.2582, 19765.10
349.7403, 19784.27
350.2225, 19818.31
350.7046, 19784.33
351.1867, 19689.29
351.6688, 19589.07
352.1509, 19527.49
352.6331, 19485.39
353.1152, 19431.00
353.5973, 19346.65
354.0794, 19268.39
354.5615, 19243.73
355.0436, 19254.94
355.5258, 19247.99
356.0079, 19180.17
356.4900, 19088.45
356.9721, 19001.35
357.4542, 18920.29
357.9363, 18853.92
358.4185, 18813.69
358.9006, 18790.72
359.3827, 18769.71
359.8648, 18758.20
360.3469, 18736.36
360.8290, 18684.40
361.3112, 18593.70
361.7933, 18524.11
362.2754, 18519.93
362.7575, 18536.60
363.2396, 18525.63
363.7217, 18448.72
364.2039, 18370.61
364.6860, 18298.84
365.1681, 18233.63
365.6502, 18200.84
366.1323, 18237.04
366.6144, 18285.80
367.0966, 18308.22
367.5787, 18278.47
368.0608, 18252.25
368.5429, 18234.98
369.0250, 18224.50
369.5071, 18209.20
369.9893, 18177.81
370.4714, 18154.65
370.9535, 18150.43
371.4356, 18163.42
371.9177, 18202.21
372.3998, 18282.46
372.8820, 18380.94
373.3641, 18441.00
373.8462, 18446.66
374.3283, 18454.96
374.8104, 18488.27
375.2925, 18548.64
375.7747, 18612.94
376.2568, 18679.70
376.7389, 18754.36
377.2210, 18844.72
377.7031, 18951.42
378.1852, 19065.73
378.6674, 19195.77
379.1495, 19330.94
379.6316, 19418.94
380.1137, 19453.39
380.5958, 19491.92
381.0779, 19595.44
381.5601, 19753.21
382.0422, 19902.06
382.5243, 20024.73
383.0064, 20140.03
383.4885, 20286.19
383.9706, 20459.87
384.4528, 20626.02
384.9349, 20761.17
385.4170, 20874.41
385.8991, 20979.52
386.3812, 21074.30
386.8633, 21178.34
387.3455, 21318.63
387.8276, 21482.29
388.3097, 21642.46
388.7918, 21786.95
389.2739, 21919.89
389.7560, 22038.74
390.2382, 22141.40
390.7203, 22253.42
391.2024, 22399.04
391.6845, 22557.50
392.1666, 22706.75
392.6487, 22834.88
393.1309, 22955.67
393.6130, 23074.38
394.0951, 23190.96
394.5772, 23297.60
395.0593, 23388.95
395.5414, 23472.06
396.0236, 23550.43
396.5057, 23622.94
396.9878, 23693.00
397.4699, 23759.08
397.9520, 23822.38
398.4341, 23886.15
398.9163, 23954.45
399.3984, 24018.87
399.8805, 24074.16
400.3626, 24112.49
400.8447, 24167.58
401.3268, 24258.58
401.8090, 24352.11
402.2911, 24398.02
402.7732, 24377.50
403.2553, 24357.50
403.7374, 24356.99
404.2195, 24374.58
404.7017, 24382.93
405.1838, 24378.54
405.6659, 24374.49
406.1480, 24387.45
406.6301, 24417.93
407.1122, 24434.69
407.5944, 24429.88
408.0765, 24410.41
408.5586, 24390.60
409.0407, 24370.38
409.5228, 24351.72
410.0049, 24338.81
410.4871, 24328.71
410.9692, 24313.22
411.4513, 24291.57
411.9334, 24264.02
412.4155, 24229.89
412.8976, 24189.40
413.3798, 24144.73
413.8619, 24087.29
414.3440, 24030.92
414.8261, 23996.63
415.3082, 23984.37
415.7903, 23961.52
416.2725, 23903.85
416.7546, 23824.72
417.2367, 23736.52
417.7188, 23616.01
418.2009, 23519.45
418.6830, 23494.16
419.1652, 23520.33
419.6473, 23526.35
420.1294, 23482.07
420.6115, 23415.93
421.0937, 23337.97
421.5758, 23234.49
422.0579, 23155.10
422.5400, 23120.87
423.0221, 23111.28
423.5042, 23091.79
423.9864, 23039.66
424.4685, 23002.36
424.9506, 22999.88
425.4327, 23037.50
425.9148, 23039.43
426.3969, 22983.87
426.8791, 22917.47
427.3612, 22879.53
427.8433, 22873.28
428.3254, 22887.08
428.8075, 22926.27
429.2896, 22981.95
429.7718, 23021.83
430.2539, 23043.43
430.7360, 23062.94
431.2181, 23086.61
431.7002, 23114.86
432.1823, 23153.93
432.6645, 23204.24
433.1466, 23265.26
433.6287, 23340.29
434.1108, 23426.50
434.5929, 23510.42
435.0750, 23578.32
435.5572, 23643.24
436.0393, 23732.21
436.5214, 23844.19
437.0035, 23957.52
437.4856, 24065.86
437.9677, 24160.93
438.4499, 24226.51
438.9320, 24240.80
439.4141, 24254.82
439.8962, 24314.28
440.3783, 24402.47
440.8604, 24478.14
441.3426, 24508.98
441.8247, 24531.83
442.3068, 24573.16
442.7889, 24644.56
443.2710, 24692.11
443.7531, 24691.76
444.2353, 24663.91
444.7174, 24631.05
445.1995, 24597.23
445.6816, 24557.91
446.1637, 24507.59
446.6458, 24448.46
447.1280, 24401.23
447.6101, 24391.61
448.0922, 24365.26
448.5743, 24291.22
449.0564, 24154.61
449.5385, 24005.37
450.0207, 23839.29
450.5028, 23666.79
450.9849, 23507.80
451.4670, 23364.88
451.9491, 23230.78
452.4312, 23113.11
452.9134, 23005.93
453.3955, 22849.53
453.8776, 22638.28
454.3597, 22422.21
454.8418, 22256.28
455.3239, 22129.63
455.8061, 22006.37
456.2882, 21881.86
456.7703, 21748.93
457.2524, 21585.29
457.7345, 21400.30
458.2166, 21228.22
458.6988, 21107.72
459.1809, 21003.22
459.6630, 20873.14
460.1451, 20707.39
460.6272, 20550.05
461.1093, 20436.09
461.5915, 20345.15
462.0736, 20254.29
462.5557, 20150.28
463.0378, 20050.40
463.5199, 19962.03
464.0020, 19884.82
464.4842, 19811.94
464.9663, 19735.43
465.4484, 19668.63
465.9305, 19620.77
466.4126, 19620.61
466.8947, 19586.85
467.3769, 19493.96
467.8590, 19378.90
468.3411, 19302.88
468.8232, 19285.43
469.3053, 19268.65
469.7874, 19232.88
470.2696, 19180.31
470.7517, 19157.00
471.2338, 19172.03
471.7159, 19188.47
472.1980, 19167.95
472.6801, 19111.53
473.1623, 19072.84
473.6444, 19062.94
474.1265, 19066.46
474.6086, 19063.46
475.0907, 19052.89
475.5728, 19027.77
476.0550, 18955.43
476.5371, 18876.13
477.0192, 18868.85
477.5013, 18936.92
477.9834, 19006.99
478.4655, 19017.35
478.9477, 18997.33
479.4298, 18985.31
479.9119, 18998.10
480.3940, 19014.56
480.8761, 19026.95
481.3582, 19034.77
481.8404, 19036.41
482.3225, 19023.24
482.8046, 19010.42
483.2867, 19005.76
483.7688, 19013.02
484.2509, 19017.57
484.7331, 19005.61
485.2152, 18996.98
485.6973, 19011.42
486.1794, 19064.58
486.6615, 19114.47
487.1436, 19156.34
487.6258, 19190.75
488.1079, 19221.09
488.5900, 19248.50
489.0721, 19267.98
489.5542, 19265.79
490.0363, 19241.35
490.5185, 19261.90
491.0006, 19336.89
491.4827, 19430.59
491.9648, 19495.44
492.4470, 19536.53
492.9291, 19580.41
493.4112, 19635.77
493.8933, 19698.11
494.3754, 19759.73
494.8575, 19821.38
495.3397, 19883.88
495.8218, 19944.97
496.3039, 20009.72
496.7860, 20082.94
497.2681, 20167.05
497.7502, 20257.09
498.2324, 20356.89
498.7145, 20459.72
499.1966, 20558.37
499.6787, 20624.86
500.1608, 20711.86
500.6429, 20849.53
501.1251, 21033.65
501.6072, 21193.21
502.0893, 21319.75
502.5714, 21425.90
503.0535, 21508.53
503.5356, 21522.59
504.0178, 21626.23
504.4999, 21856.31
504.9820, 22141.86
505.4641, 22376.09
505.9462, 22546.97
506.4283, 22725.54
506.9105, 22932.95
507.3926, 23161.94
507.8747, 23380.01
508.3568, 23586.95
508.8389, 23802.52
509.3210, 24050.23
509.8032, 24321.30
510.2853, 24592.16
510.7674, 24857.46
511.2495, 25132.85
511.7316, 25446.04
512.2137, 25781.91
512.6959, 26104.53
513.1780, 26383.54
513.6601, 26660.75
514.1422, 26962.31
514.6243, 27286.61
515.1064, 27620.33
515.5886, 27953.29
516.0707, 28299.02
516.5528, 28663.98
517.0349, 29062.79
517.5170, 29458.58
517.9991, 29829.21
518.4813, 30199.61
518.9634, 30603.53
519.4455, 31076.86
519.9276, 31519.60
520.4097, 31896.51
520.8918, 32218.46
521.3740, 32614.20
521.8561, 33107.93
522.3382, 33595.25
522.8203, 33988.48
523.3024, 34293.01
523.7845, 34670.20
524.2667, 35144.34
524.7488, 35641.46
525.2309, 36093.34
525.7130, 36506.71
526.1951, 36895.00
526.6772, 37260.99
527.1594, 37612.54
527.6415, 37950.82
528.1236, 38276.64
528.6057, 38602.34
529.0878, 38943.66
529.5699, 39278.34
530.0521, 39591.86
530.5342, 39892.18
531.0163, 40139.88
531.4984, 40294.26
531.9805, 40404.25
532.4626, 40522.79
532.9448, 40686.56
533.4269, 40823.44
533.9090, 40931.32
534.3911, 41007.13
534.8732, 41029.48
535.3553, 40971.46
535.8375, 40911.44
536.3196, 40902.04
536.8017, 40950.10
537.2838, 40888.43
537.7659, 40695.28
538.2480, 40461.95
538.7302, 40296.79
539.2123, 40184.93
539.6944, 40028.16
540.1765, 39788.50
540.6586, 39525.26
541.1407, 39315.91
541.6229, 39149.82
542.1050, 38985.37
542.5871, 38793.81
543.0692, 38597.82
543.5513, 38420.33
544.0334, 38263.92
544.5156, 38111.29
544.9977, 37954.74
545.4798, 37798.48
545.9619, 37646.87
546.4440, 37492.01
546.9261, 37354.66
547.4083, 37238.13
547.8904, 37140.69
548.3725, 37061.85
548.8546, 37011.20
549.3367, 36962.67
549.8188, 36911.30
550.3010, 36856.99
550.7831, 36797.89
551.2652, 36732.68
551.7473, 36666.71
552.2294, 36597.01
552.7115, 36526.08
553.1937, 36484.01
553.6758, 36474.87
554.1579, 36487.66
554.6400, 36522.06
555.1221, 36568.89
555.6042, 36601.44
556.0864, 36610.04
556.5685, 36600.94
557.0506, 36566.40
557.5327, 36515.43
558.0148, 36482.24
558.4969, 36510.67
558.9791, 36541.53
559.4612, 36537.50
559.9433, 36489.82
560.4254, 36433.42
560.9075, 36349.00
561.3896, 36273.44
561.8718, 36239.47
562.3539, 36285.97
562.8360, 36307.27
563.3181, 36287.36
563.8002, 36241.46
564.2823, 36210.05
564.7645, 36201.13
565.2466, 36169.72
565.7287, 36077.55
566.2108, 35946.95
566.6929, 35903.70
567.1750, 35951.50
567.6572, 36011.33
568.1393, 36037.74
568.6214, 36024.80
569.1035, 35945.84
569.5856, 35779.92
570.0677, 35614.62
570.5499, 35519.52
571.0320, 35472.13
571.5141, 35435.98
571.9962, 35401.80
572.4783, 35372.20
572.9604, 35350.82
573.4426, 35336.14
573.9247, 35319.75
574.4068, 35298.26
574.8889, 35276.57
575.3710, 35249.93
575.8531, 35209.16
576.3353, 35215.05
576.8174, 35281.36
577.2995, 35373.88
577.7816, 35473.01
578.2637, 35582.65
578.7458, 35638.90
579.2280, 35608.99
579.7101, 35564.93
580.1922, 35656.41
580.6743, 35860.73
581.1564, 36049.61
581.6385, 36143.57
582.1207, 36199.57
582.6028, 36281.40
583.0849, 36388.27
583.5670, 36519.10
584.0491, 36701.55
584.5313, 36889.43
585.0134, 37039.66
585.4955, 37126.15
585.9776, 37238.40
586.4597, 37426.47
586.9418, 37640.06
587.4240, 37818.96
587.9061, 37927.70
588.3882, 38056.48
588.8703, 38221.23
589.3524, 38410.46
589.8345, 38589.55
590.3167, 38754.82
590.7988, 38926.61
591.2809, 39123.99
591.7630, 39335.31
592.2451, 39479.71
592.7272, 39554.80
593.2094, 39620.99
593.6915, 39730.91
594.1736, 39867.20
594.6557, 39999.14
595.1378, 40119.84
595.6199, 40233.48
596.1021, 40352.88
596.5842, 40463.89
597.0663, 40546.63
597.5485, 40571.03
598.0306, 40589.69
598.5127, 40631.05
598.9948, 40683.54
599.4769, 40696.44
599.9590, 40645.21
600.4412, 40581.04
600.9233, 40516.83
601.4054, 40451.55
601.8875, 40402.98
602.3696, 40382.30
602.8517, 40351.48
603.3339, 40276.48
603.8160, 40159.52
604.2981, 40033.22
604.7802, 39901.19
605.2623, 39764.32
605.7444, 39637.23
606.2266, 39507.45
606.7087, 39347.54
607.1908, 39124.16
607.6729, 38887.38
608.1550, 38669.73
608.6371, 38469.84
609.1193, 38275.74
609.6014, 38103.18
610.0835, 37918.93
610.5656, 37698.68
611.0477, 37431.20
611.5298, 37207.94
612.0120, 37083.73
612.4941, 36954.55
612.9762, 36745.63
613.4583, 36427.55
613.9404, 36141.17
614.4225, 35901.12
614.9047, 35680.39
615.3868, 35431.37
615.8689, 35155.44
616.3510, 34900.15
616.8331, 34685.66
617.3152, 34490.98
617.7974, 34287.16
618.2795, 34075.67
618.7616, 33851.89
619.2437, 33579.48
619.7258, 33320.42
620.2079, 33131.64
620.6901, 33016.13
621.1722, 32890.33
621.6543, 32722.07
622.1364, 32535.66
622.6185, 32348.94
623.1006, 32168.06
623.5828, 31969.67
624.0649, 31728.80
624.5470, 31493.36
625.0291, 31325.88
625.5112, 31237.69
625.9933, 31160.03
626.4755, 31089.17
626.9576, 31012.04
627.4397, 30903.53
627.9218, 30764.54
628.4039, 30602.01
628.8860, 30375.88
629.3682, 30150.30
629.8503, 30031.06
630.3324, 30005.63
630.8145, 29982.57
631.2966, 29914.01
631.7787, 29825.47
632.2609, 29731.38
632.7430, 29629.73
633.2251, 29537.86
633.7072, 29443.51
634.1893, 29371.51
634.6714, 29348.77
635.1536, 29423.20
635.6357, 29435.44
636.1178, 29350.10
636.5999, 29222.74
637.0820, 29166.13
637.5641, 29184.41
638.0463, 29173.32
638.5284, 29076.63
639.0105, 28949.19
639.4926, 28902.93
639.9747, 28928.02
640.4568, 28967.73
640.9390, 28997.26
641.4211, 29019.50
641.9032, 29033.88
642.3853, 29040.37
642.8674, 29052.33
643.3495, 29072.77
643.8317, 29102.09
644.3138, 29143.70
644.7959, 29222.15
645.2780, 29262.39
645.7601, 29236.79
646.2422, 29197.15
646.7244, 29208.74
647.2065, 29282.47
647.6886, 29351.34
648.1707, 29404.61
648.6528, 29445.04
649.1349, 29475.42
649.6171, 29496.83
650.0992, 29517.99
650.5813, 29544.07
651.0634, 29571.42
651.5455, 29588.35
652.0276, 29599.39
652.5098, 29628.27
652.9919, 29718.83
653.4740, 29807.04
653.9561, 29845.37
654.4382, 29818.15
654.9203, 29809.41
655.4025, 29830.23
655.8846, 29871.96
656.3667, 29932.92
656.8488, 30025.02
657.3309, 30102.39
657.8130, 30166.00
658.2952, 30210.91
658.7773, 30222.21
659.2594, 30202.96
659.7415, 30188.68
660.2236, 30189.45
660.7057, 30198.10
661.1879, 30201.46
661.6700, 30203.91
662.1521, 30217.85
662.6342, 30283.45
663.1163, 30332.88
663.5984, 30305.66
664.0806, 30212.51
664.5627, 30146.70
665.0448, 30156.33
665.5269, 30176.23
666.0090, 30180.52
666.4911, 30168.15
666.9733, 30147.47
667.4554, 30117.61
667.9375, 30081.14
668.4196, 30038.87
668.9017, 29990.78
669.3839, 29941.49
669.8660, 29891.18
670.3481, 29841.79
670.8302, 29796.80
671.3123, 29754.57
671.7944, 29712.82
672.2766, 29679.28
672.7587, 29632.96
673.2408, 29554.28
673.7229, 29453.57
674.2050, 29349.62
674.6871, 29238.95
675.1693, 29135.15
675.6514, 29043.81
676.1335, 28962.05
676.6156, 28878.89
677.0977, 28798.63
677.5798, 28707.54
678.0620, 28597.75
678.5441, 28470.53
679.0262, 28345.02
679.5083, 28219.78
679.9904, 28103.07
680.4725, 28017.35
680.9547, 27940.05
681.4368, 27818.12
681.9189, 27640.25
682.4010, 27478.71
682.8831, 27420.73
683.3652, 27386.28
683.8474, 27292.88
684.3295, 27068.53
684.8116, 26869.87
685.2937, 26747.28
685.7758, 26649.58
686.2579, 26509.06
686.7401, 26304.06
687.2222, 26118.33
687.7043, 25974.07
688.1864, 25852.44
688.6685, 25706.33
689.1506, 25537.32
689.6328, 25371.39
690.1149, 25216.83
690.5970, 25072.45
691.0791, 24941.80
691.5612, 24820.79
692.0433, 24693.10
692.5255, 24538.26
693.0076, 24380.02
693.4897, 24232.98
693.9718, 24099.08
694.4539, 23967.05
694.9360, 23830.70
695.4182, 23700.54
695.9003, 23582.71
696.3824, 23484.11
696.8645, 23374.62
697.3466, 23251.89
697.8287, 23124.39
698.3109, 23003.77
698.7930, 22887.33
699.2751, 22758.21
699.7572, 22612.06
700.2393, 22462.92
700.7214, 22314.24
701.2036, 22175.46
701.6857, 22062.76
702.1678, 22006.01
702.6499, 21948.15
703.1320, 21876.01
703.6141, 21786.92
704.0963, 21671.58
704.5784, 21500.01
705.0605, 21348.13
705.5426, 21237.96
706.0247, 21158.96
706.5068, 21067.62
706.9890, 20962.59
707.4711, 20852.61
707.9532, 20736.14
708.4353, 20619.75
708.9174, 20530.14
709.3995, 20464.08
709.8817, 20393.22
710.3638, 20284.69
710.8459, 20172.04
711.3280, 20091.69
711.8101, 20051.21
712.2922, 20000.75
712.7744, 19919.07
713.2565, 19827.30
713.7386, 19739.29
714.2207, 19657.74
714.7028, 19570.22
715.1849, 19468.59
715.6671, 19373.68
716.1492, 19314.17
716.6313, 19286.66
717.1134, 19242.90
717.5955, 19172.85
718.0776, 19091.87
718.5598, 19006.70
719.0419, 18926.73
719.5240, 18871.52
720.0061, 18877.21
720.4882, 18872.80
720.9703, 18819.57
721.4525, 18732.72
721.9346, 18646.39
722.4167, 18549.24
722.8988, 18473.28
723.3809, 18432.67
723.8630, 18416.85
724.3452, 18380.20
724.8273, 18319.02
725.3094, 18265.20
725.7915, 18249.45
726.2736, 18246.56
726.7557, 18174.91
727.2379, 18044.26
727.7200, 17931.54
728.2021, 17893.50
728.6842, 17889.71
729.1663, 17897.53
729.6484, 17915.71
730.1306, 17911.96
730.6127, 17852.64
731.0948, 17788.98
731.5769, 17750.47
732.0590, 17745.11
732.5411, 17729.91
733.0233, 17702.81
733.5054, 17670.47
733.9875, 17639.63
734.4696, 17609.32
734.9517, 17570.30
735.4338, 17518.98
735.9160, 17473.25
736.3981, 17461.10
736.8802, 17463.19
737.3623, 17449.64
737.8444, 17402.54
738.3266, 17358.11
738.8087, 17325.76
739.2908, 17305.46
739.7729, 17298.37
740.2551, 17313.47
740.7372, 17324.83
741.2193, 17330.81
741.7014, 17330.42
742.1835, 17318.65
742.6656, 17295.38
743.1478, 17276.32
743.6299, 17270.14
744.1120, 17266.11
744.5941, 17238.88
745.0762, 17198.30
745.5583, 17174.20
746.0405, 17193.45
746.5226, 17222.25
747.0047, 17248.95
747.4868, 17271.22
747.9689, 17277.64
748.4510, 17252.61
748.9332, 17230.02
749.4153, 17220.25
749.8974, 17222.53
750.3795, 17226.28
750.8616, 17230.93
751.3438, 17241.05
751.8259, 17271.70
752.3080, 17307.38
752.7901, 17300.42
753.2722, 17252.67
753.7543, 17218.53
754.2365, 17238.54
754.7186, 17284.19
755.2007, 17342.36
755.6828, 17419.54
756.1649, 17461.05
756.6470, 17420.32
757.1292, 17374.95
757.6113, 17374.59
758.0934, 17433.34
758.5755, 17471.23
759.0576, 17483.42
759.5397, 17491.93
760.0219, 17526.01
760.5040, 17575.76
760.9861, 17605.56
761.4682, 17605.91
761.9503, 17606.56
762.4324, 17626.52
762.9146, 17662.14
763.3967, 17710.38
763.8788, 17786.06
764.3609, 17848.81
764.8430, 17886.55
765.3251, 17910.67
765.8073, 17928.71
766.2894, 17931.46
766.7715, 17969.99
767.2536, 18064.85
767.7357, 18172.44
768.2178, 18208.36
768.7000, 18190.02
769.1821, 18191.42
769.6642, 18251.04
770.1463, 18315.44
770.6284, 18326.56
771.1105, 18310.83
771.5927, 18319.35
772.0748, 18405.30
772.5569, 18473.46
773.0390, 18488.85
773.5211, 18473.46
774.0032, 18480.28
774.4854, 18510.52
774.9675, 18559.68
775.4496, 18631.39
775.9317, 18716.82
776.4138, 18802.71
776.8959, 18885.09
777.3781, 18946.42
777.8602, 18960.52
778.3423, 18963.09
778.8244, 18981.37
779.3065, 19013.82
779.7886, 19051.97
780.2708, 19103.43
780.7529, 19149.12
781.2350, 19178.15
781.7171, 19193.99
782.1992, 19234.11
782.6813, 19306.23
783.1635, 19370.21
783.6456, 19396.74
784.1277, 19400.45
784.6098, 19436.00
785.0919, 19499.78
785.5740, 19556.95
786.0562, 19570.50
786.5383, 19579.08
787.0204, 19622.13
787.5025, 19701.85
787.9846, 19763.47
788.4667, 19782.37
788.9489, 19790.85
789.4310, 19800.76
789.9131, 19812.04
790.3952, 19824.24
790.8773, 19836.96
791.3594, 19852.08
791.8416, 19871.12
792.3237, 19893.50
792.8058, 19919.91
793.2879, 19950.43
793.7700, 19976.08
794.2521, 19973.58
794.7343, 19975.13
795.2164, 20018.88
795.6985, 20129.87
796.1806, 20185.85
796.6627, 20140.88
797.1448, 20077.19
797.6270, 20042.83
798.1091, 20038.73
798.5912, 20064.68
799.0733, 20127.30
799.5554, 20185.32
800.0375, 20190.50
800.5197, 20164.48
801.0018, 20148.43
801.4839, 20148.97
801.9660, 20151.08
802.4481, 20147.55
802.9302, 20140.46
803.4124, 20132.41
803.8945, 20128.87
804.3766, 20110.28
804.8587, 20065.98
805.3408, 20020.69
805.8229, 19996.15
806.3051, 19992.30
806.7872, 20007.15
807.2693, 20045.79
807.7514, 20070.75
808.2335, 20031.90
808.7156, 19958.40
809.1978, 19894.37
809.6799, 19851.60
810.1620, 19809.66
810.6441, 19752.59
811.1262, 19696.56
811.6083, 19657.84
812.0905, 19639.53
812.5726, 19634.22
813.0547, 19650.74
813.5368, 19663.06
814.0189, 19633.51
814.5010, 19569.60
814.9832, 19515.47
815.4653, 19479.31
815.9474, 19449.59
816.4295, 19416.07
816.9116, 19382.20
817.3937, 19352.93
817.8759, 19335.45
818.3580, 19311.35
818.8401, 19276.95
819.3222, 19234.45
819.8043, 19179.78
820.2864, 19103.87
820.7686, 19061.85
821.2507, 19065.79
821.7328, 19083.66
822.2149, 19083.29
822.6970, 19063.73
823.1791, 19017.44
823.6613, 18934.90
824.1434, 18853.12
824.6255, 18788.12
825.1076, 18741.80
825.5897, 18717.39
826.0718, 18756.66
826.5540, 18755.75
827.0361, 18697.45
827.5182, 18618.51
828.0003, 18562.06
828.4824, 18528.25
828.9645, 18489.46
829.4467, 18439.74
829.9288, 18393.56
830.4109, 18368.57
830.8930, 18357.76
831.3751, 18352.26
831.8572, 18357.65
832.3394, 18350.20
832.8215, 18299.95
833.3036, 18244.54
833.7857, 18229.78
834.2678, 18283.91
834.7499, 18291.57
835.2321, 18232.82
835.7142, 18156.61
836.1963, 18124.34
836.6784, 18126.60
837.1605, 18134.70
837.6426, 18147.53
838.1248, 18145.28
838.6069, 18086.77
839.0890, 18016.96
839.5711, 17987.99
840.0532, 18040.13
840.5353, 18080.34
841.0175, 18106.95
841.4996, 18115.52
841.9817, 18092.71
842.4638, 18036.27
842.9459, 18006.18
843.4280, 18011.21
843.9102, 18026.64
844.3923, 18031.39
844.8744, 18026.35
845.3565, 18009.30
845.8386, 17973.50
846.3207, 17949.55
846.8029, 17965.24
847.2850, 17988.31
847.7671, 17990.14
848.2492, 17962.47
848.7313, 17934.54
849.2134, 17906.13
849.6956, 17878.52
850.1777, 17847.37
850.6598, 17817.49
851.1419, 17813.17
851.6240, 17840.70
852.1061, 17857.71
852.5883, 17813.66
853.0704, 17755.41
853.5525, 17729.29
854.0346, 17759.64
854.5167, 17767.87
854.9988, 17741.07
855.4810, 17702.76
855.9631, 17666.23
856.4452, 17631.27
856.9273, 17604.73
857.4094, 17586.76
857.8915, 17578.06
858.3737, 17593.68
858.8558, 17611.86
859.3379, 17601.87
859.8200, 17558.62
860.3021, 17511.98
860.7842, 17462.63
861.2664, 17423.64
861.7485, 17406.10
862.2306, 17413.46
862.7127, 17404.97
863.1948, 17378.69
863.6769, 17344.79
864.1591, 17302.38
864.6412, 17259.42
865.1233, 17237.54
865.6054, 17235.60
866.0875, 17233.00
866.5696, 17221.06
867.0518, 17201.26
867.5339, 17172.29
868.0160, 17133.26
868.4981, 17097.08
868.9802, 17063.65
869.4623, 17033.91
869.9445, 17016.77
870.4266, 17003.42
870.9087, 16937.96
871.3908, 16826.05
871.8729, 16736.20
872.3550, 16722.37
872.8372, 16736.95
873.3193, 16749.77
873.8014, 16758.02
874.2835, 16753.45
874.7656, 16730.01
875.2477, 16697.66
875.7299, 16657.07
876.2120, 16609.80
876.6941, 16557.93
877.1762, 16501.67
877.6583, 16451.38
878.1404, 16417.91
878.6226, 16386.84
879.1047, 16337.04
879.5869, 16274.38
880.0690, 16212.69
880.5511, 16146.54
881.0332, 16094.79
881.5153, 16071.05
881.9974, 16062.59
882.4796, 16045.98
882.9617, 16022.08
883.4438, 15983.07
883.9259, 15923.25
884.4080, 15856.30
884.8901, 15800.09
885.3723, 15754.33
885.8544, 15718.73
886.3365, 15697.70
886.8186, 15679.97
887.3007, 15675.31
887.7828, 15664.83
888.2650, 15617.50
888.7471, 15503.84
889.2292, 15439.62
889.7113, 15449.02
890.1934, 15476.52
890.6755, 15442.93
891.1577, 15367.54
891.6398, 15312.23
892.1219, 15292.96
892.6040, 15273.83
893.0861, 15219.89
893.5682, 15160.64
894.0504, 15126.18
894.5325, 15136.64
895.0146, 15132.83
895.4967, 15117.16
895.9788, 15082.93
896.4609, 15008.69
896.9431, 14905.78
897.4252, 14856.36
897.9073, 14865.45
898.3894, 14873.32
898.8715, 14827.78
899.3536, 14766.08
899.8358, 14722.03
900.3179, 14701.59
900.8000, 14665.40
901.2821, 14596.28
901.7642, 14531.47
902.2463, 14489.32
902.7285, 14466.94
903.2106, 14437.23
903.6927, 14400.49
904.1748, 14361.46
904.6569, 14326.14
905.1390, 14287.13
905.6212, 14232.38
906.1033, 14166.47
906.5854, 14106.18
907.0675, 14075.35
907.5496, 14026.38
908.0317, 13936.31
908.5139, 13825.54
908.9960, 13764.06
909.4781, 13752.42
909.9602, 13720.89
910.4423, 13634.51
910.9244, 13534.78
911.4066, 13475.82
911.8887, 13439.73
912.3708, 13392.66
912.8529, 13314.80
913.3350, 13235.82
913.8171, 13159.49
914.2993, 13086.49
914.7814, 13022.30
915.2635, 12968.87
915.7456, 12896.16
916.2277, 12797.22
916.7098, 12689.65
917.1920, 12586.42
917.6741, 12491.75
918.1562, 12414.03
918.6383, 12359.63
919.1204, 12307.85
919.6025, 12255.65
920.0847, 12201.51
920.5668, 12145.93
921.0489, 12090.15
921.5310, 12019.82
922.0131, 11933.90
922.4952, 11844.63
922.9774, 11760.64
923.4595, 11680.47
923.9416, 11597.27
924.4237, 11512.44
924.9058, 11444.94
925.3879, 11428.47
925.8701, 11402.86
926.3522, 11336.06
926.8343, 11235.06
927.3164, 11163.20
927.7985, 11123.95
928.2806, 11077.90
928.7628, 10999.81
929.2449, 10912.09
929.7270, 10850.69
930.2091, 10808.40
930.6912, 10763.82
931.1733, 10708.15
931.6555, 10649.65
932.1376, 10585.50
932.6197, 10522.71
933.1018, 10476.56
933.5839, 10450.11
934.0660, 10412.15
934.5482, 10352.98
935.0303, 10292.06
935.5124, 10258.71
935.9945, 10239.21
936.4766, 10208.99
936.9587, 10157.31
937.4409, 10107.32
937.9230, 10070.57
938.4051, 10034.61
938.8872, 9988.499
939.3693, 9928.450
939.8514, 9878.119
940.3336, 9838.448
940.8157, 9805.215
941.2978, 9781.926
941.7799, 9759.113
942.2620, 9719.596
942.7441, 9663.683
943.2263, 9610.948
943.7084, 9566.151
944.1905, 9530.839
944.6726, 9506.113
945.1547, 9491.091
945.6368, 9483.287
946.1190, 9483.440
946.6011, 9477.349
947.0832, 9460.478
947.5653, 9431.914
948.0474, 9378.423
948.5295, 9312.772
949.0117, 9264.671
949.4938, 9260.634
949.9759, 9254.826
950.4580, 9238.455
950.9401, 9215.756
951.4222, 9189.139
951.9044, 9158.117
952.3865, 9146.915
952.8686, 9162.979
953.3507, 9182.196
953.8328, 9190.733
954.3149, 9181.489
954.7971, 9137.976
955.2792, 9042.519
955.7613, 8972.333
956.2434, 8945.121
956.7255, 8938.344
957.2076, 8944.819
957.6898, 8963.809
958.1719, 8966.176
958.6540, 8952.143
959.1361, 8935.939
959.6182, 8933.358
960.1003, 8928.293
960.5825, 8903.250
961.0646, 8860.867
961.5467, 8819.036
962.0288, 8773.401
962.5109, 8740.818
962.9930, 8727.485
963.4752, 8728.479
963.9573, 8738.835
964.4394, 8755.340
964.9215, 8758.791
965.4036, 8742.551
965.8857, 8711.575
966.3679, 8646.415
966.8500, 8578.839
967.3321, 8551.917
967.8142, 8606.505
968.2963, 8638.155
968.7784, 8642.469
969.2606, 8631.349
969.7427, 8610.822
970.2248, 8584.652
970.7069, 8569.250
971.1890, 8565.729
971.6711, 8557.573
972.1533, 8526.813
972.6354, 8493.845
973.1175, 8470.191
973.5996, 8456.714
974.0817, 8459.818
974.5638, 8486.757
975.0460, 8504.224
975.5281, 8495.521
976.0102, 8471.365
976.4923, 8454.060
976.9744, 8440.649
977.4565, 8422.464
977.9387, 8390.922
978.4208, 8359.572
978.9029, 8322.071
979.3850, 8293.237
979.8671, 8299.669
980.3492, 8351.360
980.8314, 8379.319
981.3135, 8374.950
981.7956, 8350.995
982.2777, 8314.552
982.7598, 8270.586
983.2419, 8219.577
983.7241, 8157.605
984.2062, 8123.862
984.6883, 8160.555
985.1704, 8197.666
985.6525, 8203.697
986.1346, 8181.581
986.6168, 8160.023
987.0989, 8139.121
987.5810, 8121.961
988.0631, 8114.525
988.5452, 8108.063
989.0273, 8095.668
989.5095, 8077.733
989.9916, 8054.958
990.4737, 8014.125
990.9558, 7992.188
991.4379, 8004.136
991.9200, 8021.765
992.4022, 7989.319
992.8843, 7921.893
993.3664, 7889.172
993.8485, 7909.942
994.3306, 7929.750
994.8127, 7907.413
995.2949, 7870.004
995.7770, 7841.854
996.2591, 7827.015
996.7412, 7800.002
997.2233, 7755.804
997.7054, 7718.580
998.1876, 7706.645
998.6697, 7710.642
999.1518, 7715.608
999.6339, 7718.921
1000.116, 7710.416
1000.598, 7669.293
1001.080, 7634.412
1001.562, 7626.254
1002.044, 7629.258
1002.527, 7612.333
1003.009, 7573.484
1003.491, 7546.847
1003.973, 7541.101
1004.455, 7540.167
1004.937, 7530.420
1005.419, 7513.136
1005.901, 7488.409
1006.384, 7453.593
1006.866, 7423.114
1007.348, 7398.613
1007.830, 7378.898
1008.312, 7366.861
1008.794, 7359.586
1009.276, 7337.303
1009.758, 7301.491
1010.240, 7263.965
1010.723, 7230.773
1011.205, 7198.883
1011.687, 7160.202
1012.169, 7122.258
1012.651, 7105.981
1013.133, 7122.257
1013.615, 7129.479
1014.097, 7122.955
1014.580, 7101.424
1015.062, 7050.962
1015.544, 6988.050
1016.026, 6946.654
1016.508, 6937.165
1016.990, 6926.006
1017.472, 6903.900
1017.954, 6871.360
1018.436, 6822.234
1018.919, 6758.870
1019.401, 6732.337
1019.883, 6742.751
1020.365, 6748.158
1020.847, 6719.096
1021.329, 6677.876
1021.811, 6649.035
1022.293, 6625.454
1022.776, 6588.103
1023.258, 6512.100
1023.740, 6459.331
1024.222, 6443.240
1024.704, 6439.796
1025.186, 6419.111
1025.668, 6383.421
1026.150, 6335.249
1026.632, 6272.799
1027.115, 6225.393
1027.597, 6234.258
1028.079, 6244.255
1028.561, 6212.313
1029.043, 6140.703
1029.525, 6083.563
1030.007, 6041.639
1030.489, 6016.144
1030.972, 6014.799
1031.454, 6022.474
1031.936, 6025.193
1032.418, 6019.588
1032.900, 5998.607
1033.382, 5943.083
1033.864, 5895.451
1034.346, 5862.200
1034.828, 5835.201
1035.311, 5804.177
1035.793, 5770.800
1036.275, 5750.784
1036.757, 5745.284
1037.239, 5737.981
1037.721, 5719.922
1038.203, 5693.636
1038.685, 5656.707
1039.167, 5611.290
1039.650, 5574.290
1040.132, 5546.522
1040.614, 5525.299
1041.096, 5511.770
1041.578, 5501.705
1042.060, 5488.870
1042.542, 5474.836
1043.024, 5463.269
1043.507, 5462.861
1043.989, 5449.176
1044.471, 5408.805
1044.953, 5364.419
1045.435, 5332.125
1045.917, 5311.496
1046.399, 5300.641
1046.881, 5298.612
1047.364, 5286.596
1047.846, 5237.534
1048.328, 5187.375
1048.810, 5163.469
1049.292, 5160.617
1049.774, 5150.194
1050.256, 5129.099
1050.738, 5110.930
1051.220, 5099.113
1051.703, 5089.333
1052.185, 5080.061
1052.667, 5067.293
1053.149, 5040.010
1053.631, 4989.558
1054.113, 4956.243
1054.595, 4963.910
1055.077, 4976.531
1055.559, 4978.531
1056.042, 4970.122
1056.524, 4948.254
1057.006, 4914.916
1057.488, 4886.375
1057.970, 4877.327
1058.452, 4869.836
1058.934, 4850.299
1059.416, 4825.121
1059.899, 4808.482
1060.381, 4807.179
1060.863, 4787.548
1061.345, 4742.259
1061.827, 4697.864
1062.309, 4683.805
1062.791, 4686.729
1063.273, 4690.536
1063.755, 4693.369
1064.238, 4687.865
1064.720, 4661.239
1065.202, 4640.791
1065.684, 4639.986
1066.166, 4646.951
1066.648, 4621.665
1067.130, 4572.315
1067.612, 4535.961
1068.094, 4529.658
1068.577, 4526.342
1069.059, 4511.994
1069.541, 4490.932
1070.023, 4465.974
1070.505, 4434.867
1070.987, 4414.042
1071.469, 4403.909
1071.951, 4397.397
1072.434, 4394.382
1072.916, 4388.680
1073.398, 4368.932
1073.880, 4339.589
1074.362, 4316.758
1074.844, 4309.285
1075.326, 4298.957
1075.808, 4283.708
1076.291, 4264.306
1076.773, 4237.458
1077.255, 4207.586
1077.737, 4189.391
1078.219, 4185.610
1078.701, 4183.319
1079.183, 4178.950
1079.665, 4171.459
1080.147, 4160.757
1080.630, 4146.782
1081.112, 4127.580
1081.594, 4103.373
1082.076, 4081.075
1082.558, 4064.021
1083.040, 4048.441
1083.522, 4031.482
1084.004, 4013.719
1084.486, 3995.821
1084.969, 3976.829
1085.451, 3959.515
1085.933, 3943.422
1086.415, 3931.277
1086.897, 3932.296
1087.379, 3935.145
1087.861, 3914.240
1088.343, 3875.620
1088.826, 3846.271
1089.308, 3842.602
1089.790, 3841.699
1090.272, 3842.794
1090.754, 3840.494
1091.236, 3823.052
1091.718, 3794.129
1092.200, 3770.101
1092.682, 3753.612
1093.165, 3741.465
1093.647, 3738.445
1094.129, 3732.839
1094.611, 3713.635
1095.093, 3684.116
1095.575, 3670.308
1096.057, 3673.033
1096.539, 3669.802
1097.022, 3647.631
1097.504, 3625.744
1097.986, 3632.383
1098.468, 3648.117
1098.950, 3644.447
1099.432, 3604.504
1099.914, 3580.205
1100.396, 3575.679
1100.879, 3574.710
1101.361, 3565.417
1101.843, 3551.868
1102.325, 3541.981
1102.807, 3534.792
1103.289, 3526.626
1103.771, 3512.553
1104.253, 3502.509
1104.735, 3500.000
1105.218, 3499.447
1105.700, 3492.857
1106.182, 3481.298
1106.664, 3470.256
1107.146, 3460.218
1107.628, 3449.247
1108.110, 3435.458
1108.592, 3420.892
1109.074, 3406.596
1109.557, 3392.536
1110.039, 3378.019
1110.521, 3362.869
1111.003, 3353.438
1111.485, 3353.525
1111.967, 3354.215
1112.449, 3343.398
1112.931, 3330.782
1113.414, 3328.786
1113.896, 3342.273
1114.378, 3346.592
1114.860, 3341.130
1115.342, 3328.967
1115.824, 3308.525
1116.306, 3285.228
1116.788, 3263.147
1117.271, 3245.579
1117.753, 3239.659
1118.235, 3265.687
1118.717, 3275.174
1119.199, 3257.861
1119.681, 3237.533
1120.163, 3245.310
1120.645, 3267.891
1121.127, 3260.589
1121.609, 3225.000
1122.092, 3195.914
1122.574, 3197.474
1123.056, 3200.668
1123.538, 3195.298
1124.020, 3185.897
1124.502, 3184.487
1124.984, 3189.002
1125.466, 3177.834
1125.949, 3144.774
1126.431, 3118.182
1126.913, 3124.453
1127.395, 3139.213
1127.877, 3148.382
1128.359, 3150.968
1128.841, 3134.981
1129.323, 3098.675
1129.806, 3075.716
1130.288, 3083.688
1130.770, 3098.319
1131.252, 3096.330
1131.734, 3085.522
1132.216, 3075.707
1132.698, 3068.058
1133.180, 3061.936
1133.662, 3058.159
1134.145, 3052.521
1134.627, 3035.109
1135.109, 3018.910
1135.591, 3033.237
1136.073, 3065.142
1136.555, 3081.465
1137.037, 3062.199
1137.519, 3040.881
1138.001, 3017.149
1138.484, 2996.856
1138.966, 2987.431
1139.448, 2986.032
1139.930, 2990.295
1140.412, 2998.276
1140.894, 2995.701
1141.376, 2959.166
1141.858, 2934.503
1142.341, 2937.938
1142.823, 2954.391
1143.305, 2955.747
1143.787, 2945.391
1144.269, 2938.842
1144.751, 2938.987
1145.233, 2939.604
1145.715, 2934.470
1146.198, 2931.807
1146.680, 2937.748
1147.162, 2949.528
1147.644, 2956.520
1148.126, 2958.161
1148.608, 2944.936
1149.090, 2906.514
1149.572, 2871.756
1150.054, 2865.504
1150.536, 2871.281
1151.019, 2874.367
1151.501, 2874.346
1151.983, 2866.709
1152.465, 2850.684
1152.947, 2845.224
1153.429, 2872.748
1153.911, 2901.659
1154.393, 2900.207
1154.876, 2879.547
1155.358, 2857.361
1155.840, 2831.266
1156.322, 2818.082
1156.804, 2820.021
1157.286, 2824.416
1157.768, 2820.043
1158.250, 2812.979
1158.733, 2813.461
1159.215, 2818.344
1159.697, 2813.943
1160.179, 2788.090
1160.661, 2777.135
1161.143, 2789.405
1161.625, 2805.635
1162.107, 2802.916
1162.589, 2789.296
1163.072, 2777.344
1163.554, 2768.067
1164.036, 2759.190
1164.518, 2748.143
1165.000, 2741.144
1165.482, 2740.391
1165.964, 2743.328
1166.446, 2747.895
1166.928, 2751.975
1167.411, 2750.223
1167.893, 2740.957
1168.375, 2730.841
1168.857, 2717.983
1169.339, 2710.021
1169.821, 2711.576
1170.303, 2719.006
1170.785, 2725.527
1171.268, 2728.938
1171.750, 2720.462
1172.232, 2690.882
1172.714, 2666.215
1173.196, 2658.147
1173.678, 2657.705
1174.160, 2661.548
1174.642, 2668.872
1175.125, 2675.325
1175.607, 2680.465
1176.089, 2681.570
1176.571, 2676.833
1177.053, 2668.495
1177.535, 2648.588
1178.017, 2632.528
1178.499, 2639.032
1178.981, 2667.711
1179.464, 2678.607
1179.946, 2672.080
1180.428, 2661.572
1180.910, 2649.719
1181.392, 2642.544
1181.874, 2647.158
1182.356, 2656.532
1182.838, 2661.712
1183.320, 2662.913
1183.803, 2649.909
1184.285, 2621.290
1184.767, 2599.142
1185.249, 2606.713
1185.731, 2619.844
1186.213, 2624.558
1186.695, 2621.080
1187.177, 2607.997
1187.660, 2583.733
1188.142, 2577.825
1188.624, 2597.634
1189.106, 2615.661
1189.588, 2601.800
1190.070, 2580.928
1190.552, 2574.853
1191.034, 2581.753
1191.516, 2580.152
1191.999, 2568.618
1192.481, 2562.648
1192.963, 2566.964
1193.445, 2574.639
1193.927, 2580.263
1194.409, 2584.723
1194.891, 2590.412
1195.373, 2597.566
1195.855, 2593.060
1196.338, 2574.906
1196.820, 2562.417
1197.302, 2564.780
1197.784, 2572.556
1198.266, 2580.199
1198.748, 2584.643
1199.230, 2580.882
1199.712, 2567.338
1200.195, 2552.895
1200.677, 2536.486
1201.159, 2527.054
1201.641, 2534.089
1202.123, 2544.721
1202.605, 2546.387
1203.087, 2540.719
1203.569, 2528.923
1204.052, 2504.614
1204.534, 2496.466
1205.016, 2506.921
1205.498, 2518.551
1205.980, 2520.925
1206.462, 2516.731
1206.944, 2503.838
1207.426, 2487.670
1207.908, 2482.096
1208.391, 2493.875
1208.873, 2497.918
1209.355, 2491.631
1209.837, 2486.211
1210.319, 2495.033
1210.801, 2506.941
1211.283, 2509.347
1211.765, 2503.704
1212.247, 2495.777
1212.730, 2484.319
1213.212, 2477.595
1213.694, 2477.424
1214.176, 2477.507
1214.658, 2470.469
1215.140, 2461.132
1215.622, 2453.532
1216.104, 2448.488
1216.587, 2449.416
1217.069, 2459.142
1217.551, 2464.582
1218.033, 2463.018
1218.515, 2459.326
1218.997, 2460.967
1219.479, 2462.099
1219.961, 2453.997
1220.443, 2437.050
1220.926, 2424.773
1221.408, 2416.037
1221.890, 2421.747
1222.372, 2449.592
1222.854, 2474.573
1223.336, 2461.217
1223.818, 2431.745
1224.300, 2407.822
1224.782, 2392.701
1225.265, 2395.680
1225.747, 2422.465
1226.229, 2438.286
1226.711, 2429.520
1227.193, 2413.755
1227.675, 2411.679
1228.157, 2415.142
1228.639, 2414.708
1229.122, 2408.957
1229.604, 2400.617
1230.086, 2387.674
1230.568, 2387.113
1231.050, 2412.963
1231.532, 2438.155
1232.014, 2425.173
1232.496, 2396.834
1232.979, 2381.276
1233.461, 2381.871
1233.943, 2384.555
1234.425, 2389.547
1234.907, 2394.293
1235.389, 2398.117
1235.871, 2400.314
1236.353, 2399.313
1236.835, 2396.826
1237.318, 2395.803
1237.800, 2397.346
1238.282, 2391.438
1238.764, 2377.637
1239.246, 2366.464
1239.728, 2366.018
1240.210, 2367.976
1240.692, 2364.354
1241.175, 2359.575
1241.657, 2360.483
1242.139, 2368.969
1242.621, 2369.728
1243.103, 2362.685
1243.585, 2357.542
1244.067, 2363.542
1244.549, 2369.851
1245.031, 2364.671
1245.514, 2358.047
1245.996, 2366.392
1246.478, 2392.390
1246.960, 2398.229
1247.442, 2384.221
1247.924, 2368.946
1248.406, 2362.131
1248.888, 2360.017
1249.370, 2366.267
1249.853, 2372.413
1250.335, 2364.086
1250.817, 2342.242
1251.299, 2338.421
1251.781, 2352.492
1252.263, 2361.734
1252.745, 2344.903
1253.227, 2328.688
1253.710, 2327.224
1254.192, 2330.971
1254.674, 2326.375
1255.156, 2315.511
1255.638, 2316.682
1256.120, 2329.437
1256.602, 2335.579
1257.084, 2315.839
1257.567, 2299.777
1258.049, 2298.542
1258.531, 2303.270
1259.013, 2299.744
1259.495, 2291.822
1259.977, 2296.352
1260.459, 2313.160
1260.941, 2325.757
1261.423, 2322.780
1261.906, 2319.457
1262.388, 2318.736
1262.870, 2320.009
1263.352, 2325.419
1263.834, 2331.246
1264.316, 2327.399
1264.798, 2313.765
1265.280, 2300.207
1265.762, 2283.069
1266.245, 2278.912
1266.727, 2294.866
1267.209, 2315.133
1267.691, 2316.966
1268.173, 2308.850
1268.655, 2304.946
1269.137, 2306.170
1269.619, 2304.101
1270.102, 2295.063
1270.584, 2290.559
1271.066, 2293.808
1271.548, 2299.554
1272.030, 2304.680
1272.512, 2306.167
1272.994, 2295.671
1273.476, 2274.762
1273.958, 2271.503
1274.441, 2292.031
1274.923, 2301.724
1275.405, 2290.909
1275.887, 2276.797
1276.369, 2275.562
1276.851, 2281.046
1277.333, 2288.621
1277.815, 2297.754
1278.297, 2310.033
1278.780, 2326.000
1279.262, 2329.849
1279.744, 2316.137
1280.226, 2300.834
1280.708, 2299.284
1281.190, 2298.515
1281.672, 2285.708
1282.154, 2266.467
1282.637, 2265.318
1283.119, 2279.638
1283.601, 2283.048
1284.083, 2268.373
1284.565, 2254.465
1285.047, 2254.822
1285.529, 2256.320
1286.011, 2250.185
1286.494, 2242.074
1286.976, 2253.578
1287.458, 2276.899
1287.940, 2284.507
1288.422, 2269.334
1288.904, 2250.528
1289.386, 2224.985
1289.868, 2212.002
1290.350, 2221.648
1290.833, 2242.528
1291.315, 2253.698
1291.797, 2258.440
1292.279, 2263.835
1292.761, 2271.851
1293.243, 2273.471
1293.725, 2266.471
1294.207, 2257.138
1294.689, 2246.497
1295.172, 2236.792
1295.654, 2232.411
1296.136, 2230.364
1296.618, 2224.111
1297.100, 2212.073
1297.582, 2219.856
##END=



