##NAMES=Titanite
##RRUFFID=R100025
##IDEAL CHEMISTRY=CaTi^4+^SiO_5_
##LOCALITY=Kharan, Balochistan, Pakistan
##OWNER=RRUFF
##SOURCE=Ikram Mineralogy
##DESCRIPTION=Bluish-gray flattened wedge-shaped crystals
##STATUS=The identification of this mineral has been confirmed by single-crystal X-ray diffraction.
##URL=rruff.info/R100025
90.97430, 35.65830
91.45642, 35.49418
91.93854, 35.89698
92.42065, 36.52338
92.90277, 36.84483
93.38489, 36.79276
93.86700, 36.61218
94.34912, 36.53020
94.83124, 36.55086
95.31335, 36.70401
95.79547, 37.01682
96.27759, 37.47832
96.75970, 38.11707
97.24182, 39.04937
97.72394, 40.01550
98.20605, 40.41005
98.68817, 40.18843
99.17029, 39.75591
99.65240, 39.37887
100.1345, 39.05524
100.6166, 38.80973
101.0988, 38.67617
101.5809, 38.63428
102.0630, 38.48185
102.5451, 38.15599
103.0272, 37.82899
103.5093, 37.65181
103.9915, 37.57434
104.4736, 37.80021
104.9557, 38.55906
105.4378, 40.08054
105.9199, 40.77924
106.4020, 40.14406
106.8842, 38.94017
107.3663, 38.51786
107.8484, 39.48965
108.3305, 40.54031
108.8126, 41.23555
109.2947, 41.49650
109.7769, 41.52996
110.2590, 40.98992
110.7411, 40.16107
111.2232, 39.94205
111.7053, 41.15479
112.1874, 42.41300
112.6696, 43.08521
113.1517, 42.39456
113.6338, 41.88769
114.1159, 41.74985
114.5980, 41.96612
115.0801, 42.42552
115.5623, 43.61105
116.0444, 44.78492
116.5265, 45.37455
117.0086, 44.44729
117.4907, 43.60360
117.9728, 43.61210
118.4550, 44.52171
118.9371, 45.26641
119.4192, 45.13381
119.9013, 44.61593
120.3834, 44.34197
120.8655, 44.32102
121.3477, 44.79468
121.8298, 46.16320
122.3119, 48.63538
122.7940, 51.01126
123.2761, 52.15572
123.7582, 52.54069
124.2404, 53.21716
124.7225, 54.61737
125.2046, 56.67425
125.6867, 59.28506
126.1688, 62.45293
126.6509, 66.15948
127.1331, 70.52455
127.6152, 75.47840
128.0973, 80.67417
128.5794, 85.59895
129.0615, 90.58134
129.5436, 96.37337
130.0258, 103.1076
130.5079, 110.7654
130.9900, 119.3196
131.4721, 128.6968
131.9542, 139.4212
132.4363, 151.4273
132.9185, 164.9019
133.4006, 181.1980
133.8827, 201.2638
134.3648, 224.2005
134.8469, 248.2426
135.3290, 273.3524
135.8112, 299.8526
136.2933, 328.0691
136.7754, 358.2138
137.2575, 388.7182
137.7396, 419.3614
138.2217, 449.6274
138.7039, 479.9227
139.1860, 510.0804
139.6681, 540.6118
140.1502, 573.0927
140.6323, 607.5599
141.1144, 642.7614
141.5966, 677.8349
142.0787, 711.8047
142.5608, 749.4941
143.0429, 791.7960
143.5250, 837.1976
144.0071, 882.8013
144.4893, 930.6238
144.9714, 974.7216
145.4535, 1011.198
145.9356, 1035.494
146.4177, 1061.928
146.8998, 1090.701
147.3820, 1121.814
147.8641, 1156.627
148.3462, 1195.108
148.8283, 1236.865
149.3104, 1282.285
149.7925, 1333.744
150.2747, 1385.485
150.7568, 1436.274
151.2389, 1486.235
151.7210, 1536.987
152.2031, 1587.313
152.6852, 1638.622
153.1674, 1692.367
153.6495, 1749.770
154.1316, 1807.928
154.6137, 1866.261
155.0958, 1924.741
155.5779, 1984.545
156.0601, 2045.156
156.5422, 2107.583
157.0243, 2171.989
157.5064, 2237.524
157.9885, 2305.908
158.4706, 2377.890
158.9528, 2453.676
159.4349, 2531.505
159.9170, 2614.929
160.3991, 2698.980
160.8812, 2777.913
161.3633, 2849.930
161.8455, 2916.601
162.3276, 2979.367
162.8097, 3038.082
163.2918, 3090.187
163.7739, 3136.121
164.2560, 3170.655
164.7382, 3171.369
165.2203, 3151.150
165.7024, 3122.981
166.1845, 3090.110
166.6666, 3052.621
167.1487, 3011.798
167.6309, 2965.597
168.1130, 2916.041
168.5951, 2868.251
169.0772, 2822.685
169.5593, 2780.278
170.0414, 2741.899
170.5236, 2707.734
171.0057, 2676.927
171.4878, 2647.463
171.9699, 2620.035
172.4520, 2597.506
172.9341, 2581.825
173.4163, 2571.337
173.8984, 2564.253
174.3805, 2560.391
174.8626, 2559.254
175.3447, 2560.933
175.8268, 2565.058
176.3090, 2570.106
176.7911, 2574.885
177.2732, 2579.852
177.7553, 2585.814
178.2374, 2593.401
178.7195, 2601.562
179.2017, 2608.948
179.6838, 2615.678
180.1659, 2622.305
180.6480, 2628.922
181.1301, 2635.772
181.6122, 2643.779
182.0944, 2654.395
182.5765, 2665.412
183.0586, 2672.730
183.5407, 2676.277
184.0228, 2679.329
184.5049, 2684.660
184.9871, 2691.877
185.4692, 2699.477
185.9513, 2707.879
186.4334, 2716.066
186.9155, 2720.662
187.3976, 2721.270
187.8798, 2722.667
188.3619, 2729.898
188.8440, 2742.462
189.3261, 2756.780
189.8082, 2772.339
190.2903, 2788.790
190.7725, 2804.636
191.2546, 2819.807
191.7367, 2835.823
192.2188, 2855.434
192.7009, 2878.589
193.1830, 2901.136
193.6652, 2920.554
194.1473, 2937.819
194.6294, 2958.105
195.1115, 2981.688
195.5936, 3007.301
196.0757, 3034.161
196.5579, 3062.366
197.0400, 3089.166
197.5221, 3112.458
198.0042, 3132.521
198.4863, 3155.252
198.9684, 3180.709
199.4506, 3208.572
199.9327, 3238.657
200.4148, 3271.395
200.8969, 3303.619
201.3790, 3334.213
201.8611, 3362.968
202.3433, 3391.753
202.8254, 3420.473
203.3075, 3449.390
203.7896, 3478.993
204.2717, 3509.823
204.7538, 3539.095
205.2360, 3566.104
205.7181, 3591.031
206.2002, 3611.269
206.6823, 3625.539
207.1644, 3636.639
207.6465, 3650.254
208.1287, 3667.376
208.6108, 3683.176
209.0929, 3695.128
209.5750, 3702.532
210.0571, 3710.419
210.5392, 3719.058
211.0214, 3728.191
211.5035, 3737.048
211.9856, 3745.146
212.4677, 3754.274
212.9498, 3765.638
213.4319, 3779.867
213.9140, 3792.999
214.3962, 3803.755
214.8783, 3814.228
215.3604, 3829.681
215.8425, 3852.414
216.3246, 3875.063
216.8067, 3893.880
217.2889, 3906.648
217.7710, 3922.507
218.2531, 3942.667
218.7352, 3965.272
219.2173, 3986.361
219.6994, 4005.329
220.1816, 4023.962
220.6637, 4043.486
221.1458, 4064.554
221.6279, 4084.814
222.1100, 4104.319
222.5921, 4123.126
223.0743, 4141.886
223.5564, 4160.427
224.0385, 4179.252
224.5206, 4198.113
225.0027, 4216.963
225.4848, 4236.883
225.9670, 4257.807
226.4491, 4279.714
226.9312, 4303.127
227.4133, 4328.667
227.8954, 4354.495
228.3775, 4379.085
228.8597, 4402.091
229.3418, 4425.508
229.8239, 4449.616
230.3060, 4473.958
230.7881, 4496.842
231.2702, 4519.021
231.7524, 4538.729
232.2345, 4554.998
232.7166, 4568.037
233.1987, 4577.591
233.6808, 4583.694
234.1629, 4586.318
234.6451, 4585.680
235.1272, 4583.376
235.6093, 4575.658
236.0914, 4560.303
236.5735, 4533.897
237.0556, 4507.602
237.5378, 4478.951
238.0199, 4451.301
238.5020, 4433.200
238.9841, 4426.440
239.4662, 4426.417
239.9483, 4431.573
240.4305, 4442.979
240.9126, 4456.920
241.3947, 4473.835
241.8768, 4493.053
242.3589, 4512.594
242.8410, 4530.098
243.3232, 4551.263
243.8053, 4579.186
244.2874, 4618.480
244.7695, 4653.350
245.2516, 4683.141
245.7337, 4708.978
246.2159, 4733.646
246.6980, 4759.047
247.1801, 4780.458
247.6622, 4796.964
248.1443, 4810.452
248.6264, 4813.423
249.1086, 4802.716
249.5907, 4783.195
250.0728, 4765.604
250.5549, 4755.123
251.0370, 4737.836
251.5191, 4707.468
252.0013, 4660.869
252.4834, 4612.372
252.9655, 4562.889
253.4476, 4511.315
253.9297, 4455.883
254.4118, 4397.201
254.8940, 4334.532
255.3761, 4267.286
255.8582, 4194.325
256.3403, 4120.210
256.8224, 4045.659
257.3046, 3969.417
257.7867, 3890.894
258.2688, 3808.930
258.7509, 3725.911
259.2330, 3643.091
259.7151, 3559.830
260.1973, 3477.499
260.6794, 3396.683
261.1615, 3317.990
261.6436, 3244.796
262.1257, 3178.078
262.6078, 3112.987
263.0900, 3048.311
263.5721, 2983.091
264.0542, 2921.940
264.5363, 2864.059
265.0184, 2810.410
265.5005, 2760.871
265.9827, 2717.004
266.4648, 2673.752
266.9469, 2629.629
267.4290, 2584.718
267.9111, 2542.398
268.3932, 2503.130
268.8754, 2466.199
269.3575, 2431.236
269.8396, 2398.321
270.3217, 2365.794
270.8038, 2332.712
271.2859, 2299.030
271.7681, 2269.532
272.2502, 2245.002
272.7323, 2223.052
273.2144, 2202.036
273.6965, 2181.839
274.1786, 2162.625
274.6608, 2143.988
275.1429, 2126.212
275.6250, 2110.986
276.1071, 2098.790
276.5892, 2087.823
277.0714, 2076.197
277.5535, 2063.466
278.0356, 2053.906
278.5177, 2049.198
278.9998, 2048.054
279.4819, 2044.665
279.9641, 2038.298
280.4462, 2032.697
280.9283, 2030.993
281.4104, 2033.297
281.8925, 2036.727
282.3746, 2040.906
282.8568, 2045.892
283.3389, 2051.879
283.8210, 2058.886
284.3031, 2066.652
284.7852, 2074.384
285.2673, 2082.145
285.7495, 2092.996
286.2316, 2107.883
286.7137, 2125.110
287.1958, 2141.422
287.6779, 2156.772
288.1600, 2171.673
288.6422, 2187.166
289.1243, 2202.936
289.6064, 2215.430
290.0885, 2223.948
290.5706, 2230.622
291.0527, 2238.985
291.5349, 2248.918
292.0170, 2258.482
292.4991, 2266.104
292.9812, 2272.445
293.4633, 2278.840
293.9454, 2284.911
294.4276, 2293.180
294.9097, 2307.091
295.3918, 2326.197
295.8739, 2348.028
296.3560, 2370.898
296.8381, 2395.630
297.3203, 2423.867
297.8024, 2455.612
298.2845, 2489.671
298.7666, 2525.642
299.2487, 2562.790
299.7308, 2599.965
300.2130, 2636.768
300.6951, 2673.275
301.1772, 2710.609
301.6593, 2748.628
302.1414, 2785.080
302.6235, 2816.710
303.1057, 2845.208
303.5878, 2873.189
304.0699, 2902.726
304.5520, 2931.700
305.0341, 2958.107
305.5162, 2981.876
305.9984, 3003.333
306.4805, 3021.438
306.9626, 3037.497
307.4447, 3053.171
307.9268, 3070.370
308.4089, 3085.591
308.8911, 3094.810
309.3732, 3099.034
309.8553, 3102.492
310.3374, 3106.693
310.8195, 3111.780
311.3016, 3117.820
311.7838, 3124.718
312.2659, 3132.789
312.7480, 3142.554
313.2301, 3153.632
313.7122, 3165.219
314.1943, 3178.459
314.6765, 3191.289
315.1586, 3202.047
315.6407, 3209.964
316.1228, 3217.722
316.6049, 3228.551
317.0870, 3239.766
317.5692, 3246.813
318.0513, 3250.712
318.5334, 3247.968
319.0155, 3236.061
319.4976, 3213.991
319.9797, 3187.618
320.4619, 3155.245
320.9440, 3120.604
321.4261, 3088.310
321.9082, 3059.615
322.3903, 3032.880
322.8724, 3007.302
323.3546, 2982.845
323.8367, 2961.298
324.3188, 2942.829
324.8009, 2927.496
325.2830, 2915.545
325.7651, 2906.460
326.2473, 2901.297
326.7294, 2901.871
327.2115, 2907.480
327.6936, 2912.379
328.1757, 2913.391
328.6578, 2915.721
329.1400, 2922.047
329.6221, 2937.555
330.1042, 2949.956
330.5863, 2959.254
331.0684, 2965.377
331.5505, 2967.929
332.0327, 2965.234
332.5148, 2960.886
332.9969, 2956.453
333.4790, 2953.265
333.9611, 2946.610
334.4432, 2936.989
334.9254, 2923.501
335.4075, 2904.421
335.8896, 2877.656
336.3717, 2849.265
336.8538, 2821.785
337.3359, 2795.408
337.8180, 2765.341
338.3001, 2731.325
338.7823, 2694.176
339.2644, 2654.446
339.7465, 2610.790
340.2286, 2569.535
340.7107, 2533.221
341.1928, 2500.621
341.6750, 2466.359
342.1571, 2429.130
342.6392, 2393.226
343.1213, 2361.358
343.6034, 2333.775
344.0855, 2309.778
344.5677, 2289.917
345.0498, 2273.138
345.5319, 2256.668
346.0140, 2240.384
346.4961, 2227.855
346.9782, 2222.452
347.4604, 2223.106
347.9425, 2224.854
348.4246, 2227.214
348.9067, 2230.790
349.3888, 2236.836
349.8709, 2245.093
350.3531, 2254.012
350.8352, 2264.923
351.3173, 2275.510
351.7994, 2281.798
352.2815, 2283.654
352.7636, 2280.714
353.2458, 2273.792
353.7279, 2261.799
354.2100, 2242.344
354.6921, 2212.609
355.1742, 2176.381
355.6563, 2135.929
356.1385, 2091.612
356.6206, 2045.728
357.1027, 1997.061
357.5848, 1948.834
358.0669, 1904.174
358.5490, 1864.391
359.0312, 1827.866
359.5133, 1794.086
359.9954, 1762.672
360.4775, 1731.998
360.9596, 1699.898
361.4417, 1669.216
361.9239, 1641.681
362.4060, 1618.027
362.8881, 1596.207
363.3702, 1577.125
363.8523, 1559.087
364.3344, 1539.498
364.8166, 1515.717
365.2987, 1491.800
365.7808, 1469.744
366.2629, 1449.579
366.7450, 1429.988
367.2271, 1411.433
367.7093, 1393.068
368.1914, 1374.149
368.6735, 1354.393
369.1556, 1334.187
369.6377, 1313.289
370.1198, 1291.792
370.6020, 1272.063
371.0841, 1254.959
371.5662, 1238.751
372.0483, 1222.705
372.5304, 1206.536
373.0125, 1190.810
373.4947, 1175.815
373.9768, 1161.318
374.4589, 1146.530
374.9410, 1131.173
375.4231, 1116.018
375.9052, 1101.154
376.3874, 1086.474
376.8695, 1072.714
377.3516, 1060.087
377.8337, 1047.798
378.3158, 1033.896
378.7979, 1017.865
379.2801, 1003.867
379.7622, 993.4368
380.2443, 985.8299
380.7264, 976.9268
381.2085, 966.4961
381.6906, 956.6885
382.1728, 949.4017
382.6549, 944.3577
383.1370, 940.3685
383.6191, 937.4037
384.1012, 935.0012
384.5833, 932.2458
385.0655, 929.2203
385.5476, 926.5663
386.0297, 924.5594
386.5118, 923.1600
386.9939, 922.5541
387.4760, 922.9223
387.9582, 922.9721
388.4403, 921.3406
388.9224, 918.4811
389.4045, 915.3685
389.8866, 912.9462
390.3687, 910.0446
390.8509, 905.1659
391.3330, 898.5258
391.8151, 892.2938
392.2972, 888.4467
392.7793, 885.3654
393.2614, 881.4017
393.7436, 875.2722
394.2257, 869.5011
394.7078, 865.4886
395.1899, 862.7195
395.6720, 859.8380
396.1541, 855.4260
396.6363, 851.6042
397.1184, 849.5938
397.6005, 850.1691
398.0826, 850.5206
398.5647, 849.6518
399.0468, 848.5374
399.5290, 848.3577
400.0111, 849.4473
400.4932, 851.2115
400.9753, 853.3344
401.4574, 855.8361
401.9395, 859.9011
402.4217, 866.1628
402.9038, 873.3338
403.3859, 880.5274
403.8680, 887.4034
404.3501, 895.1197
404.8322, 903.6838
405.3144, 913.1305
405.7965, 923.3837
406.2786, 934.6337
406.7607, 946.2147
407.2428, 957.4407
407.7249, 968.2916
408.2071, 981.1767
408.6892, 996.1700
409.1713, 1013.136
409.6534, 1032.520
410.1355, 1054.147
410.6176, 1075.924
411.0998, 1097.272
411.5819, 1118.529
412.0640, 1140.319
412.5461, 1162.484
413.0282, 1185.861
413.5103, 1210.971
413.9925, 1237.432
414.4746, 1264.936
414.9567, 1293.724
415.4388, 1322.844
415.9209, 1351.191
416.4030, 1379.232
416.8852, 1408.963
417.3673, 1441.654
417.8494, 1475.812
418.3315, 1511.020
418.8136, 1546.951
419.2957, 1582.714
419.7779, 1618.640
420.2600, 1653.521
420.7421, 1685.556
421.2242, 1714.494
421.7063, 1740.650
422.1884, 1766.226
422.6706, 1789.814
423.1527, 1807.079
423.6348, 1815.960
424.1169, 1818.945
424.5990, 1817.155
425.0811, 1810.637
425.5633, 1799.285
426.0454, 1781.103
426.5275, 1759.112
427.0096, 1737.046
427.4917, 1718.285
427.9738, 1694.293
428.4560, 1661.295
428.9381, 1619.617
429.4202, 1583.361
429.9023, 1554.015
430.3844, 1528.062
430.8665, 1503.513
431.3487, 1480.269
431.8308, 1458.843
432.3129, 1439.115
432.7950, 1421.421
433.2771, 1406.783
433.7592, 1395.317
434.2414, 1386.727
434.7235, 1381.625
435.2056, 1379.396
435.6877, 1377.354
436.1698, 1375.393
436.6519, 1374.835
437.1341, 1377.552
437.6162, 1382.739
438.0983, 1388.479
438.5804, 1394.628
439.0625, 1400.581
439.5446, 1405.060
440.0268, 1408.586
440.5089, 1413.033
440.9910, 1419.386
441.4731, 1427.220
441.9552, 1436.745
442.4373, 1448.279
442.9195, 1459.302
443.4016, 1467.539
443.8837, 1474.858
444.3658, 1483.528
444.8479, 1495.560
445.3300, 1507.701
445.8122, 1518.408
446.2943, 1527.924
446.7764, 1539.340
447.2585, 1554.008
447.7406, 1569.970
448.2227, 1586.402
448.7049, 1603.219
449.1870, 1620.269
449.6691, 1636.805
450.1512, 1653.877
450.6333, 1672.875
451.1154, 1694.559
451.5976, 1716.764
452.0797, 1738.138
452.5618, 1759.030
453.0439, 1784.162
453.5260, 1813.929
454.0081, 1845.159
454.4903, 1875.041
454.9724, 1903.370
455.4545, 1933.407
455.9366, 1965.291
456.4187, 1998.984
456.9008, 2033.964
457.3830, 2070.592
457.8651, 2107.625
458.3472, 2144.780
458.8293, 2182.421
459.3114, 2222.712
459.7935, 2265.302
460.2757, 2307.964
460.7578, 2347.469
461.2399, 2385.894
461.7220, 2426.276
462.2041, 2471.518
462.6862, 2516.074
463.1684, 2556.795
463.6505, 2594.358
464.1326, 2629.361
464.6147, 2662.178
465.0968, 2692.587
465.5789, 2720.192
466.0611, 2745.193
466.5432, 2766.103
467.0253, 2785.374
467.5074, 2798.697
467.9895, 2802.384
468.4716, 2793.408
468.9538, 2778.394
469.4359, 2758.339
469.9180, 2732.782
470.4001, 2699.555
470.8822, 2657.886
471.3643, 2610.354
471.8465, 2557.933
472.3286, 2500.684
472.8107, 2437.566
473.2928, 2368.568
473.7749, 2295.846
474.2570, 2221.575
474.7392, 2145.792
475.2213, 2073.101
475.7034, 2004.804
476.1855, 1939.761
476.6676, 1875.006
477.1497, 1810.580
477.6319, 1749.932
478.1140, 1694.044
478.5961, 1642.918
479.0782, 1596.891
479.5603, 1556.056
480.0424, 1519.050
480.5246, 1484.608
481.0067, 1453.323
481.4888, 1425.915
481.9709, 1402.504
482.4530, 1382.795
482.9352, 1367.334
483.4173, 1355.579
483.8994, 1345.815
484.3815, 1337.648
484.8636, 1331.177
485.3457, 1326.535
485.8279, 1323.853
486.3100, 1322.359
486.7921, 1322.379
487.2742, 1323.365
487.7563, 1324.819
488.2384, 1326.221
488.7206, 1329.092
489.2027, 1334.042
489.6848, 1340.512
490.1669, 1346.571
490.6490, 1352.224
491.1311, 1357.316
491.6133, 1361.289
492.0954, 1364.202
492.5775, 1368.751
493.0596, 1375.211
493.5417, 1382.088
494.0238, 1387.685
494.5060, 1392.258
494.9881, 1396.893
495.4702, 1401.882
495.9523, 1406.949
496.4344, 1411.410
496.9165, 1415.472
497.3987, 1419.898
497.8808, 1425.979
498.3629, 1432.150
498.8450, 1436.745
499.3271, 1439.618
499.8092, 1442.208
500.2914, 1444.518
500.7735, 1447.279
501.2556, 1451.268
501.7377, 1457.898
502.2198, 1464.211
502.7019, 1469.275
503.1841, 1473.554
503.6662, 1478.363
504.1483, 1484.284
504.6304, 1490.322
505.1125, 1495.830
505.5946, 1500.625
506.0768, 1507.412
506.5589, 1516.781
507.0410, 1527.247
507.5231, 1537.425
508.0052, 1547.001
508.4873, 1558.355
508.9695, 1571.891
509.4516, 1586.774
509.9337, 1601.374
510.4158, 1615.724
510.8979, 1630.396
511.3800, 1645.431
511.8622, 1661.134
512.3443, 1678.676
512.8264, 1697.838
513.3085, 1717.493
513.7906, 1736.780
514.2728, 1755.990
514.7549, 1775.471
515.2370, 1795.244
515.7191, 1815.439
516.2012, 1836.081
516.6833, 1857.153
517.1655, 1878.965
517.6476, 1901.976
518.1297, 1925.384
518.6118, 1949.037
519.0939, 1972.920
519.5760, 1996.928
520.0582, 2019.587
520.5403, 2043.487
521.0224, 2069.567
521.5045, 2098.702
521.9866, 2127.821
522.4688, 2156.817
522.9509, 2185.896
523.4330, 2215.993
523.9151, 2247.425
524.3972, 2277.938
524.8793, 2306.158
525.3615, 2333.500
525.8436, 2364.278
526.3257, 2398.597
526.8078, 2434.160
527.2899, 2471.509
527.7720, 2509.290
528.2542, 2542.788
528.7363, 2571.530
529.2184, 2601.286
529.7005, 2637.181
530.1826, 2676.595
530.6647, 2715.956
531.1469, 2753.622
531.6290, 2791.524
532.1111, 2830.569
532.5932, 2870.315
533.0753, 2909.700
533.5574, 2949.434
534.0396, 2988.111
534.5217, 3026.000
535.0038, 3062.780
535.4859, 3097.333
535.9680, 3129.339
536.4501, 3159.056
536.9323, 3186.857
537.4144, 3214.206
537.8965, 3236.022
538.3786, 3251.437
538.8607, 3262.384
539.3428, 3271.535
539.8250, 3279.097
540.3071, 3283.308
540.7892, 3283.277
541.2713, 3279.942
541.7534, 3275.698
542.2355, 3270.435
542.7177, 3262.793
543.1998, 3250.828
543.6819, 3236.211
544.1640, 3221.697
544.6461, 3207.536
545.1282, 3192.410
545.6104, 3174.426
546.0925, 3155.507
546.5746, 3137.948
547.0567, 3124.649
547.5388, 3109.603
548.0209, 3089.987
548.5031, 3067.382
548.9852, 3044.864
549.4673, 3023.946
549.9494, 3002.020
550.4315, 2978.411
550.9136, 2953.130
551.3958, 2927.126
551.8779, 2900.278
552.3600, 2872.855
552.8421, 2844.764
553.3242, 2816.002
553.8063, 2786.537
554.2885, 2756.230
554.7706, 2725.609
555.2527, 2695.663
555.7348, 2666.176
556.2169, 2635.437
556.6990, 2602.167
557.1812, 2568.908
557.6633, 2539.980
558.1454, 2514.527
558.6275, 2489.233
559.1096, 2461.179
559.5917, 2433.431
560.0739, 2408.781
560.5560, 2387.314
561.0381, 2367.892
561.5202, 2351.310
562.0023, 2336.044
562.4844, 2320.993
562.9666, 2304.948
563.4487, 2290.602
563.9308, 2277.216
564.4129, 2265.880
564.8950, 2258.604
565.3771, 2256.800
565.8593, 2255.767
566.3414, 2253.444
566.8235, 2251.192
567.3056, 2255.616
567.7877, 2267.156
568.2698, 2281.990
568.7520, 2297.906
569.2341, 2315.233
569.7162, 2336.179
570.1983, 2360.714
570.6804, 2387.594
571.1625, 2414.266
571.6447, 2442.587
572.1268, 2475.692
572.6089, 2515.746
573.0910, 2558.322
573.5731, 2600.877
574.0552, 2644.181
574.5374, 2690.531
575.0195, 2742.009
575.5016, 2794.862
575.9837, 2846.796
576.4658, 2898.038
576.9479, 2954.686
577.4301, 3019.833
577.9122, 3086.034
578.3943, 3150.164
578.8764, 3210.703
579.3585, 3276.369
579.8406, 3347.945
580.3228, 3422.936
580.8049, 3498.649
581.2870, 3574.861
581.7691, 3654.368
582.2512, 3737.536
582.7333, 3822.972
583.2155, 3909.359
583.6975, 3995.578
584.1796, 4082.616
584.6617, 4168.867
585.1439, 4256.330
585.6260, 4346.904
586.1081, 4440.307
586.5902, 4535.259
587.0723, 4635.290
587.5544, 4732.948
588.0366, 4825.094
588.5187, 4909.342
589.0008, 4994.510
589.4829, 5082.907
589.9650, 5171.924
590.4471, 5259.833
590.9293, 5347.347
591.4114, 5432.708
591.8935, 5516.233
592.3756, 5598.006
592.8577, 5678.317
593.3398, 5756.491
593.8220, 5833.736
594.3041, 5911.204
594.7862, 5987.261
595.2683, 6059.203
595.7504, 6126.299
596.2325, 6187.786
596.7147, 6241.945
597.1968, 6290.609
597.6789, 6335.959
598.1610, 6378.147
598.6431, 6419.115
599.1252, 6464.733
599.6074, 6506.360
600.0895, 6536.883
600.5716, 6550.654
601.0537, 6561.068
601.5358, 6571.163
602.0179, 6578.384
602.5001, 6579.191
602.9822, 6572.501
603.4643, 6561.456
603.9464, 6546.365
604.4285, 6527.229
604.9106, 6503.738
605.3928, 6476.103
605.8749, 6443.370
606.3570, 6404.055
606.8391, 6359.266
607.3212, 6312.455
607.8033, 6263.741
608.2855, 6211.244
608.7676, 6154.006
609.2497, 6092.398
609.7318, 6027.775
610.2139, 5959.592
610.6960, 5888.996
611.1782, 5813.807
611.6603, 5737.959
612.1424, 5664.710
612.6245, 5602.169
613.1066, 5534.550
613.5887, 5455.864
614.0709, 5371.455
614.5530, 5289.460
615.0351, 5211.850
615.5172, 5135.625
615.9993, 5059.279
616.4814, 4983.394
616.9636, 4909.672
617.4457, 4838.597
617.9278, 4767.606
618.4099, 4694.749
618.8920, 4621.696
619.3741, 4551.119
619.8563, 4482.532
620.3384, 4416.337
620.8205, 4353.642
621.3026, 4292.913
621.7847, 4232.713
622.2668, 4172.207
622.7490, 4111.381
623.2311, 4047.021
623.7132, 3982.790
624.1953, 3923.375
624.6774, 3872.171
625.1595, 3822.836
625.6417, 3775.732
626.1238, 3729.622
626.6059, 3681.846
627.0880, 3631.684
627.5701, 3581.193
628.0522, 3530.189
628.5344, 3479.494
629.0165, 3433.516
629.4986, 3392.313
629.9807, 3353.422
630.4628, 3316.148
630.9449, 3279.770
631.4271, 3241.672
631.9092, 3201.552
632.3913, 3162.391
632.8734, 3126.840
633.3555, 3093.153
633.8376, 3058.887
634.3198, 3023.251
634.8019, 2988.269
635.2840, 2954.132
635.7661, 2921.195
636.2482, 2889.362
636.7303, 2858.839
637.2125, 2829.094
637.6946, 2800.119
638.1767, 2771.829
638.6588, 2744.202
639.1409, 2717.350
639.6230, 2688.852
640.1052, 2655.842
640.5873, 2620.832
641.0694, 2592.731
641.5515, 2570.871
642.0336, 2550.011
642.5157, 2526.762
642.9979, 2502.382
643.4800, 2478.201
643.9621, 2454.080
644.4442, 2431.824
644.9263, 2412.761
645.4084, 2395.325
645.8906, 2378.584
646.3727, 2363.811
646.8548, 2346.836
647.3369, 2325.299
647.8190, 2302.861
648.3011, 2284.487
648.7833, 2271.304
649.2654, 2257.794
649.7475, 2242.988
650.2296, 2227.261
650.7117, 2210.592
651.1938, 2192.969
651.6760, 2176.168
652.1581, 2161.246
652.6402, 2147.077
653.1223, 2130.983
653.6044, 2113.915
654.0865, 2098.834
654.5687, 2090.198
655.0508, 2082.219
655.5329, 2070.607
656.0150, 2054.995
656.4971, 2040.066
656.9792, 2027.665
657.4614, 2015.567
657.9435, 2002.351
658.4256, 1987.145
658.9077, 1974.011
659.3898, 1963.716
659.8719, 1954.105
660.3541, 1942.691
660.8362, 1929.590
661.3183, 1917.467
661.8004, 1907.196
662.2825, 1897.069
662.7646, 1884.384
663.2468, 1870.141
663.7289, 1856.793
664.2110, 1845.587
664.6931, 1835.148
665.1752, 1825.095
665.6573, 1815.141
666.1395, 1804.350
666.6216, 1791.707
667.1037, 1778.986
667.5858, 1766.102
668.0679, 1753.288
668.5500, 1743.220
669.0322, 1737.745
669.5143, 1731.144
669.9964, 1720.121
670.4785, 1705.050
670.9606, 1692.598
671.4427, 1682.959
671.9249, 1673.422
672.4070, 1660.746
672.8891, 1646.601
673.3712, 1634.933
673.8533, 1626.154
674.3354, 1618.368
674.8176, 1610.774
675.2997, 1603.034
675.7818, 1594.914
676.2639, 1586.387
676.7460, 1577.270
677.2281, 1567.398
677.7103, 1557.135
678.1924, 1546.970
678.6745, 1536.984
679.1566, 1527.148
679.6387, 1517.339
680.1208, 1507.797
680.6030, 1498.748
681.0851, 1490.329
681.5672, 1482.373
682.0493, 1475.088
682.5314, 1468.071
683.0135, 1461.496
683.4957, 1454.867
683.9778, 1446.532
684.4599, 1433.250
684.9420, 1419.760
685.4241, 1409.502
685.9063, 1402.422
686.3884, 1394.688
686.8705, 1384.199
687.3526, 1374.025
687.8347, 1365.584
688.3168, 1359.208
688.7990, 1352.592
689.2811, 1345.723
689.7632, 1338.464
690.2453, 1330.643
690.7274, 1322.233
691.2095, 1313.611
691.6917, 1304.791
692.1738, 1295.994
692.6559, 1287.642
693.1380, 1279.613
693.6201, 1271.865
694.1022, 1264.635
694.5844, 1256.986
695.0665, 1247.512
695.5486, 1237.665
696.0307, 1229.275
696.5128, 1223.869
696.9949, 1218.677
697.4771, 1213.930
697.9592, 1209.015
698.4413, 1202.533
698.9234, 1193.905
699.4055, 1186.223
699.8876, 1180.914
700.3698, 1176.480
700.8519, 1168.780
701.3340, 1158.244
701.8161, 1147.879
702.2982, 1138.767
702.7803, 1130.972
703.2625, 1125.209
703.7446, 1121.060
704.2267, 1116.564
704.7088, 1110.594
705.1909, 1104.207
705.6730, 1097.982
706.1552, 1091.950
706.6373, 1085.689
707.1194, 1078.885
707.6015, 1072.254
708.0836, 1066.270
708.5657, 1060.972
709.0479, 1055.710
709.5300, 1050.495
710.0121, 1045.102
710.4942, 1039.176
710.9763, 1032.935
711.4584, 1026.692
711.9406, 1020.490
712.4227, 1014.501
712.9048, 1008.813
713.3869, 1003.368
713.8690, 998.1786
714.3511, 993.9860
714.8333, 988.8246
715.3154, 981.6754
715.7975, 973.8274
716.2796, 966.4514
716.7617, 959.5212
717.2438, 953.5744
717.7260, 949.1477
718.2081, 945.1332
718.6902, 939.5399
719.1723, 932.5140
719.6544, 925.4616
720.1365, 918.5828
720.6187, 912.2465
721.1008, 906.9284
721.5829, 902.4526
722.0650, 898.2771
722.5471, 894.5834
723.0292, 890.7324
723.5114, 886.7217
723.9935, 882.4157
724.4756, 877.1481
724.9577, 869.7324
725.4398, 863.3231
725.9219, 859.3123
726.4041, 857.1375
726.8862, 853.4211
727.3683, 848.0015
727.8504, 842.4103
728.3325, 837.5775
728.8146, 833.0983
729.2968, 828.1492
729.7789, 822.7870
730.2610, 817.5148
730.7431, 812.1451
731.2252, 807.3674
731.7073, 804.0498
732.1895, 802.4153
732.6716, 800.0704
733.1537, 796.6041
733.6358, 792.2682
734.1179, 786.8797
734.6000, 780.1124
735.0822, 774.1478
735.5643, 768.9902
736.0464, 764.4725
736.5285, 760.6547
737.0106, 757.3779
737.4927, 754.0389
737.9749, 750.5752
738.4570, 747.1316
738.9391, 744.1319
739.4212, 741.1437
739.9033, 737.7346
740.3854, 733.9324
740.8676, 729.4551
741.3497, 723.0181
741.8318, 716.5731
742.3139, 712.1016
742.7960, 710.5948
743.2781, 708.7009
743.7603, 706.2225
744.2424, 703.2490
744.7245, 699.7335
745.2066, 695.7589
745.6887, 691.8104
746.1708, 687.8922
746.6530, 684.2436
747.1351, 681.5281
747.6172, 679.1813
748.0993, 676.2345
748.5814, 671.5637
749.0635, 667.1221
749.5457, 663.7460
750.0278, 660.9957
750.5099, 658.0023
750.9920, 654.4587
751.4741, 651.2037
751.9562, 648.6066
752.4384, 646.2643
752.9205, 643.1051
753.4026, 639.1464
753.8847, 635.2914
754.3668, 632.0353
754.8489, 628.9484
755.3311, 625.0095
755.8132, 620.6539
756.2953, 617.2778
756.7774, 616.1944
757.2595, 615.5456
757.7416, 614.7299
758.2238, 613.6536
758.7059, 611.8421
759.1880, 608.6428
759.6701, 605.8108
760.1522, 604.0947
760.6343, 603.1611
761.1165, 600.7072
761.5986, 596.6326
762.0807, 593.4015
762.5628, 593.1159
763.0449, 594.2178
763.5270, 593.8350
764.0092, 592.2585
764.4913, 591.0699
764.9734, 591.9940
765.4555, 592.8563
765.9376, 592.2587
766.4197, 590.1287
766.9019, 587.9257
767.3840, 585.2629
767.8661, 583.2448
768.3482, 582.4949
768.8303, 582.9566
769.3124, 583.3672
769.7946, 583.7373
770.2767, 583.9146
770.7588, 583.6779
771.2409, 583.2159
771.7230, 582.5585
772.2051, 581.7708
772.6873, 581.8910
773.1694, 584.9340
773.6515, 588.0127
774.1336, 588.9756
774.6157, 587.1815
775.0978, 585.9020
775.5800, 585.0261
776.0621, 584.9901
776.5442, 586.4161
777.0263, 589.4222
777.5084, 591.1495
777.9905, 591.5137
778.4727, 591.5012
778.9548, 591.8483
779.4369, 592.4317
779.9190, 593.1127
780.4011, 593.8842
780.8832, 594.4983
781.3654, 594.7590
781.8475, 594.8502
782.3296, 594.8303
782.8117, 594.5238
783.2938, 594.7270
783.7759, 595.2983
784.2581, 596.6017
784.7402, 599.4172
785.2223, 603.7424
785.7044, 606.2267
786.1865, 606.5779
786.6686, 606.3862
787.1508, 606.8923
787.6329, 607.9190
788.1150, 609.2225
788.5971, 610.7777
789.0792, 612.5400
789.5613, 614.1775
790.0435, 616.2255
790.5256, 619.4447
791.0077, 625.1579
791.4898, 628.1609
791.9719, 627.1907
792.4540, 625.5739
792.9362, 626.6751
793.4183, 630.2228
793.9004, 632.6885
794.3825, 633.7190
794.8646, 634.6146
795.3467, 636.5790
795.8289, 639.2377
796.3110, 642.3557
796.7931, 646.3403
797.2752, 649.0219
797.7573, 648.5281
798.2394, 647.1594
798.7216, 646.8043
799.2037, 647.6672
799.6858, 649.0895
800.1679, 651.1484
800.6500, 653.5848
801.1321, 656.4703
801.6143, 659.6077
802.0964, 662.1360
802.5785, 663.9490
803.0606, 665.1190
803.5427, 664.8840
804.0248, 664.4297
804.5070, 665.1886
804.9891, 667.8832
805.4712, 670.3536
805.9533, 671.8607
806.4354, 673.2164
806.9175, 675.1007
807.3997, 677.7972
807.8818, 679.6941
808.3639, 680.5432
808.8460, 681.3568
809.3281, 683.6116
809.8102, 686.6087
810.2924, 688.5048
810.7745, 689.0006
811.2566, 688.9221
811.7387, 688.6124
812.2208, 688.1355
812.7029, 687.4428
813.1851, 686.1530
813.6672, 685.7307
814.1493, 686.6505
814.6314, 687.9186
815.1135, 688.8951
815.5956, 689.6006
816.0778, 689.4000
816.5599, 688.1710
817.0420, 686.8112
817.5241, 686.4809
818.0062, 686.4723
818.4883, 685.4398
818.9705, 683.0296
819.4526, 681.1259
819.9347, 680.8946
820.4168, 681.3011
820.8989, 681.7714
821.3810, 682.5384
821.8632, 682.1661
822.3453, 680.2188
822.8274, 678.0832
823.3095, 676.7332
823.7916, 676.1464
824.2737, 676.4319
824.7559, 677.5978
825.2380, 679.1517
825.7201, 680.9055
826.2022, 682.7102
826.6843, 684.3837
827.1664, 685.8915
827.6486, 687.4240
828.1307, 688.6331
828.6128, 690.2775
829.0949, 692.8209
829.5770, 696.2962
830.0591, 699.9714
830.5413, 703.9052
831.0234, 707.5710
831.5055, 710.3542
831.9876, 712.6539
832.4697, 715.2206
832.9518, 718.0667
833.4340, 721.2127
833.9161, 724.9124
834.3982, 728.6675
834.8803, 731.9833
835.3624, 734.7763
835.8445, 738.3087
836.3267, 742.3054
836.8088, 747.6072
837.2909, 755.2285
837.7730, 764.5564
838.2551, 771.4357
838.7372, 776.0547
839.2194, 781.3165
839.7015, 789.2465
840.1836, 798.6235
840.6657, 808.6601
841.1478, 819.2531
841.6299, 829.5084
842.1121, 837.6322
842.5942, 847.0984
843.0763, 859.2120
843.5584, 873.6423
844.0405, 888.6458
844.5226, 904.2250
845.0048, 920.2570
845.4869, 936.6119
845.9690, 953.4884
846.4511, 970.3947
846.9332, 987.8675
847.4153, 1007.503
847.8975, 1033.560
848.3796, 1058.397
848.8617, 1076.666
849.3438, 1090.681
849.8259, 1108.216
850.3080, 1131.270
850.7902, 1154.183
851.2723, 1175.759
851.7544, 1196.180
852.2365, 1215.534
852.7186, 1233.882
853.2007, 1251.627
853.6829, 1269.021
854.1650, 1285.397
854.6471, 1300.819
855.1292, 1314.809
855.6113, 1326.604
856.0934, 1336.829
856.5756, 1343.318
857.0577, 1345.426
857.5398, 1344.218
858.0219, 1341.070
858.5040, 1335.921
858.9861, 1329.175
859.4683, 1320.665
859.9504, 1311.238
860.4325, 1302.165
860.9146, 1292.899
861.3967, 1282.665
861.8788, 1271.185
862.3610, 1259.005
862.8431, 1245.132
863.3252, 1231.539
863.8073, 1220.187
864.2894, 1211.518
864.7715, 1203.322
865.2537, 1195.303
865.7358, 1188.656
866.2179, 1185.287
866.7000, 1184.131
867.1821, 1181.930
867.6642, 1178.278
868.1464, 1175.506
868.6285, 1175.149
869.1106, 1176.277
869.5927, 1178.740
870.0748, 1183.200
870.5569, 1185.048
871.0391, 1183.462
871.5212, 1180.741
872.0033, 1178.510
872.4854, 1176.408
872.9675, 1171.928
873.4496, 1165.063
873.9318, 1156.705
874.4139, 1147.744
874.8960, 1137.300
875.3781, 1124.480
875.8602, 1109.287
876.3423, 1092.775
876.8245, 1074.142
877.3066, 1055.640
877.7887, 1037.968
878.2708, 1020.901
878.7529, 1003.604
879.2350, 986.1607
879.7172, 968.0353
880.1993, 948.9688
880.6814, 929.7032
881.1635, 911.2437
881.6456, 893.4297
882.1277, 875.8774
882.6099, 858.2877
883.0920, 841.1424
883.5741, 824.1152
884.0562, 807.8699
884.5383, 793.1865
885.0204, 780.3477
885.5026, 767.1471
885.9847, 752.9987
886.4668, 738.9201
886.9489, 726.3242
887.4310, 714.7875
887.9131, 703.6844
888.3953, 693.0576
888.8774, 682.3359
889.3595, 670.4291
889.8416, 658.8681
890.3237, 649.0280
890.8058, 641.2719
891.2880, 634.5458
891.7701, 629.1025
892.2522, 624.0317
892.7343, 618.3831
893.2164, 612.4279
893.6985, 606.7106
894.1807, 601.3295
894.6628, 596.7014
895.1449, 592.7369
895.6270, 589.9876
896.1091, 589.2654
896.5912, 590.7864
897.0734, 591.2302
897.5555, 589.8721
898.0376, 589.1674
898.5197, 590.5310
899.0018, 593.3759
899.4839, 595.1264
899.9661, 596.1682
900.4482, 598.7336
900.9303, 605.7452
901.4124, 613.1342
901.8945, 617.8807
902.3766, 620.8073
902.8588, 624.9628
903.3409, 631.0289
903.8230, 637.4745
904.3051, 644.2407
904.7872, 651.0688
905.2693, 657.5341
905.7515, 663.6801
906.2336, 669.9068
906.7157, 676.2716
907.1978, 682.8712
907.6799, 690.0814
908.1620, 697.4089
908.6442, 704.3693
909.1263, 711.0363
909.6084, 716.9093
910.0905, 722.2789
910.5726, 726.4537
911.0547, 728.8602
911.5369, 729.5372
912.0190, 729.0756
912.5011, 727.5202
912.9832, 724.7205
913.4653, 720.2302
913.9474, 714.6586
914.4296, 708.8860
914.9117, 703.0485
915.3938, 694.9861
915.8759, 683.0875
916.3580, 670.7763
916.8401, 659.5773
917.3223, 649.0959
917.8044, 637.0157
918.2865, 623.4700
918.7686, 609.1129
919.2507, 593.4831
919.7328, 577.9329
920.2150, 563.9076
920.6971, 551.0651
921.1792, 538.2173
921.6613, 524.7859
922.1434, 511.7261
922.6255, 499.1936
923.1077, 486.9783
923.5898, 474.5356
924.0719, 462.0085
924.5540, 450.1429
925.0361, 439.0740
925.5182, 428.6546
926.0004, 418.6142
926.4825, 409.0507
926.9646, 399.9235
927.4467, 391.1228
927.9288, 383.0238
928.4109, 375.4136
928.8931, 368.6122
929.3752, 363.2628
929.8573, 359.3433
930.3394, 354.1342
930.8215, 347.6805
931.3036, 341.3784
931.7858, 336.4383
932.2679, 332.0441
932.7500, 327.2389
933.2321, 322.1582
933.7142, 317.4733
934.1964, 313.4220
934.6785, 309.7536
935.1606, 306.5170
935.6427, 303.5946
936.1248, 300.6601
936.6069, 297.7115
937.0891, 295.2660
937.5712, 293.7003
938.0533, 292.1873
938.5354, 289.5564
939.0175, 286.5607
939.4996, 284.3571
939.9818, 284.0463
940.4639, 283.2707
940.9460, 281.8101
941.4281, 280.0575
941.9102, 278.2737
942.3923, 276.5108
942.8745, 275.3955
943.3566, 274.9848
943.8387, 274.5534
944.3208, 273.3741
944.8029, 272.0244
945.2850, 270.9277
945.7672, 270.1353
946.2493, 269.6563
946.7314, 269.5639
947.2135, 269.6202
947.6956, 269.7829
948.1777, 270.0046
948.6599, 270.1178
949.1420, 270.1274
949.6241, 270.0453
950.1062, 269.6472
950.5883, 269.4338
951.0704, 269.8231
951.5526, 270.6263
952.0347, 271.4885
952.5168, 272.3622
952.9989, 273.3334
953.4810, 274.4676
953.9631, 275.5834
954.4453, 276.2630
954.9274, 276.7247
955.4095, 277.8312
955.8916, 279.7263
956.3737, 281.6840
956.8558, 283.3593
957.3380, 284.8006
957.8201, 285.9712
958.3022, 286.8499
958.7843, 287.8991
959.2664, 289.0641
959.7485, 290.6317
960.2307, 293.1966
960.7128, 295.9608
961.1949, 296.2961
961.6770, 295.0245
962.1591, 295.0262
962.6412, 299.7744
963.1234, 303.6703
963.6055, 303.5131
964.0876, 301.4245
964.5697, 301.0850
965.0518, 302.9957
965.5339, 304.2814
966.0161, 304.4951
966.4982, 304.3994
966.9803, 304.5751
967.4624, 305.1887
967.9445, 306.6602
968.4266, 309.1651
968.9088, 311.6094
969.3909, 314.1836
969.8730, 315.9644
970.3551, 316.1018
970.8372, 314.7555
971.3193, 315.1209
971.8015, 317.2335
972.2836, 319.8266
972.7657, 322.4728
973.2478, 324.9615
973.7299, 326.7651
974.2120, 328.2421
974.6942, 330.2984
975.1763, 334.6910
975.6584, 337.5169
976.1405, 337.4544
976.6226, 336.5746
977.1047, 338.1147
977.5869, 341.8306
978.0690, 344.8398
978.5511, 346.6534
979.0332, 348.3612
979.5153, 351.0546
979.9974, 353.9710
980.4796, 356.2279
980.9617, 357.5594
981.4438, 359.9274
981.9259, 363.8671
982.4080, 367.8952
982.8901, 371.4362
983.3723, 374.5573
983.8544, 377.1677
984.3365, 379.4713
984.8186, 382.3167
985.3007, 386.5327
985.7828, 390.9326
986.2650, 395.3293
986.7471, 399.4132
987.2292, 402.7483
987.7113, 405.2427
988.1934, 407.1692
988.6755, 408.4030
989.1577, 409.6344
989.6398, 411.8441
990.1219, 414.4721
990.6040, 416.7477
991.0861, 418.5879
991.5682, 419.4709
992.0504, 418.4640
992.5325, 417.1837
993.0146, 416.3387
993.4967, 415.8635
993.9788, 415.4991
994.4609, 415.2492
994.9431, 414.2262
995.4252, 411.8998
995.9073, 408.8998
996.3894, 405.5509
996.8715, 402.0887
997.3536, 398.8285
997.8358, 395.7380
998.3179, 393.1330
998.8000, 391.1472
999.2821, 389.4245
999.7642, 387.5846
1000.246, 385.6561
1000.728, 383.8218
1001.211, 382.0788
1001.693, 380.7763
1002.175, 380.2550
1002.657, 380.1199
1003.139, 380.2611
1003.621, 380.6065
1004.103, 380.7412
1004.585, 380.5881
1005.068, 380.4407
1005.550, 380.2045
1006.032, 380.3644
1006.514, 382.3139
1006.996, 385.1207
1007.478, 386.7815
1007.960, 385.9791
1008.442, 385.9352
1008.924, 388.7745
1009.407, 391.7545
1009.889, 392.8461
1010.371, 391.9385
1010.853, 392.5063
1011.335, 394.5725
1011.817, 396.5561
1012.299, 397.7285
1012.781, 398.0792
1013.263, 397.2315
1013.746, 395.5163
1014.228, 394.0634
1014.710, 393.2111
1015.192, 392.3097
1015.674, 391.2495
1016.156, 390.1416
1016.638, 389.3481
1017.120, 388.6300
1017.603, 387.1147
1018.085, 384.5492
1018.567, 381.9950
1019.049, 379.9562
1019.531, 378.2525
1020.013, 376.7995
1020.495, 375.5739
1020.977, 374.4339
1021.459, 373.4759
1021.942, 371.7318
1022.424, 368.5859
1022.906, 364.5993
1023.388, 360.1129
1023.870, 355.4057
1024.352, 351.0214
1024.834, 347.7795
1025.316, 343.9239
1025.799, 339.1729
1026.281, 334.0003
1026.763, 328.9049
1027.245, 323.8877
1027.727, 318.2488
1028.209, 311.9769
1028.691, 305.7454
1029.173, 299.7123
1029.656, 294.1217
1030.138, 289.3795
1030.620, 285.3386
1031.102, 281.1820
1031.584, 276.9889
1032.066, 272.1324
1032.548, 266.1160
1033.030, 260.0921
1033.512, 255.8585
1033.995, 252.8342
1034.477, 250.2477
1034.959, 248.1721
1035.441, 245.6139
1035.923, 241.8106
1036.405, 238.0515
1036.887, 234.9409
1037.369, 232.4731
1037.851, 230.4091
1038.334, 228.7659
1038.816, 227.3685
1039.298, 226.0986
1039.780, 225.0802
1040.262, 224.5178
1040.744, 224.2300
1041.226, 223.7886
1041.708, 222.8916
1042.191, 222.7650
1042.673, 223.6534
1043.155, 224.7112
1043.637, 224.7938
1044.119, 224.5642
1044.601, 225.1359
1045.083, 226.5945
1045.565, 228.5004
1046.047, 230.9937
1046.530, 233.5998
1047.012, 236.2544
1047.494, 238.8396
1047.976, 240.8811
1048.458, 242.4913
1048.940, 244.2671
1049.422, 246.2200
1049.904, 248.9159
1050.386, 253.3243
1050.869, 258.3901
1051.351, 263.0895
1051.833, 267.3309
1052.315, 271.3153
1052.797, 274.9100
1053.279, 278.9025
1053.761, 284.1875
1054.243, 289.9711
1054.726, 294.6143
1055.208, 298.6521
1055.690, 303.5034
1056.172, 310.8190
1056.654, 317.3667
1057.136, 322.4237
1057.618, 327.0095
1058.100, 332.2066
1058.583, 337.9825
1059.065, 344.2753
1059.547, 351.0665
1060.029, 357.7821
1060.511, 363.9309
1060.993, 369.7834
1061.475, 375.3985
1061.957, 380.8280
1062.439, 386.1712
1062.922, 391.3858
1063.404, 396.8525
1063.886, 402.7167
1064.368, 408.5899
1064.850, 414.3186
1065.332, 419.6653
1065.814, 424.2340
1066.296, 427.7220
1066.778, 431.3073
1067.261, 435.6435
1067.743, 439.1302
1068.225, 440.5437
1068.707, 440.6989
1069.189, 443.1964
1069.671, 446.9515
1070.153, 447.9507
1070.635, 442.2470
1071.118, 436.3736
1071.600, 433.5865
1072.082, 431.5741
1072.564, 428.0425
1073.046, 422.9030
1073.528, 417.4943
1074.010, 411.8784
1074.492, 406.6346
1074.974, 402.6334
1075.457, 398.9193
1075.939, 394.5352
1076.421, 389.6945
1076.903, 385.3506
1077.385, 381.9986
1077.867, 377.9339
1078.349, 372.6769
1078.831, 367.2506
1079.313, 362.9818
1079.796, 359.5132
1080.278, 356.4615
1080.760, 353.7935
1081.242, 350.4594
1081.724, 345.3663
1082.206, 340.3720
1082.688, 336.2030
1083.170, 332.6475
1083.652, 329.1415
1084.135, 325.6768
1084.617, 322.4483
1085.099, 319.7906
1085.581, 316.6699
1086.063, 312.0728
1086.545, 307.0083
1087.027, 302.3210
1087.509, 298.0988
1087.992, 293.7281
1088.474, 289.2006
1088.956, 284.6933
1089.438, 280.4892
1089.920, 276.2067
1090.402, 271.3810
1090.884, 266.1258
1091.366, 260.6490
1091.849, 254.5484
1092.331, 249.1687
1092.813, 244.8000
1093.295, 240.5217
1093.777, 235.1750
1094.259, 229.3524
1094.741, 224.1819
1095.223, 219.6621
1095.705, 215.2702
1096.188, 211.0441
1096.670, 206.6586
1097.152, 201.8581
1097.634, 197.0568
1098.116, 192.6803
1098.598, 188.8341
1099.080, 186.4546
1099.562, 185.8027
1100.044, 185.1270
1100.527, 183.5670
1101.009, 181.3002
1101.491, 178.0470
1101.973, 174.1067
1102.455, 171.3481
1102.937, 169.7727
1103.419, 168.9397
1103.901, 168.9833
1104.384, 169.0207
1104.866, 168.0392
1105.348, 166.5809
1105.830, 165.2797
1106.312, 164.2964
1106.794, 163.1638
1107.276, 161.8367
1107.758, 160.5031
1108.240, 159.2561
1108.723, 158.0673
1109.205, 156.7001
1109.687, 155.3313
1110.169, 154.3558
1110.651, 154.4615
1111.133, 154.0803
1111.615, 152.8045
1112.097, 151.5112
1112.579, 151.2016
1113.062, 151.5317
1113.544, 150.9961
1114.026, 149.7424
1114.508, 149.0185
1114.990, 150.2552
1115.472, 151.1854
1115.954, 150.8362
1116.436, 149.8367
1116.919, 149.0643
1117.401, 148.4969
1117.883, 147.9330
1118.365, 147.3540
1118.847, 146.6158
1119.329, 145.0215
1119.811, 143.7600
1120.293, 144.1661
1120.776, 145.6715
1121.258, 145.8310
1121.740, 144.4777
1122.222, 143.2638
1122.704, 142.4967
1123.186, 142.2624
1123.668, 143.3121
1124.150, 144.5166
1124.632, 144.4424
1125.115, 142.7145
1125.597, 141.7967
1126.079, 141.9590
1126.561, 142.1428
1127.043, 141.9636
1127.525, 141.5382
1128.007, 140.7563
1128.489, 139.9643
1128.971, 139.8756
1129.454, 141.1693
1129.936, 141.6623
1130.418, 140.7954
1130.900, 139.8379
1131.382, 139.5608
1131.864, 139.7446
1132.346, 139.9650
1132.828, 140.0938
1133.311, 139.7167
1133.793, 137.7097
1134.275, 136.5634
1134.757, 137.3158
1135.239, 138.5078
1135.721, 138.9479
1136.203, 138.6988
1136.685, 138.2132
1137.167, 137.5215
1137.650, 136.8253
1138.132, 135.7820
1138.614, 135.2799
1139.096, 135.5048
1139.578, 136.6756
1140.060, 139.9087
1140.542, 145.2882
1141.024, 147.2803
1141.506, 145.4033
1141.989, 142.6721
1142.471, 140.7927
1142.953, 139.3825
1143.435, 138.2807
1143.917, 137.4170
1144.399, 136.5083
1144.881, 135.5060
1145.363, 134.9370
1145.846, 134.9518
1146.328, 135.0944
1146.810, 134.7756
1147.292, 134.4601
1147.774, 134.7487
1148.256, 135.6464
1148.738, 135.9866
1149.220, 135.5849
1149.703, 135.3037
1150.185, 135.4131
1150.667, 135.6353
1151.149, 135.6981
1151.631, 135.5962
1152.113, 135.2612
1152.595, 134.6268
1153.077, 134.2240
1153.559, 134.1921
1154.042, 134.0726
1154.524, 133.5745
1155.006, 133.0400
1155.488, 133.1918
1155.970, 133.7564
1156.452, 134.2096
1156.934, 134.4219
1157.416, 134.5045
1157.898, 134.3767
1158.381, 134.3320
1158.863, 134.6216
1159.345, 135.0609
1159.827, 135.1285
1160.309, 134.8975
1160.791, 134.5547
1161.273, 134.0901
1161.755, 133.6656
1162.238, 133.3370
1162.720, 133.0306
1163.202, 132.7013
1163.684, 132.3503
1164.166, 131.7738
1164.648, 131.1159
1165.130, 131.0324
1165.612, 132.6744
1166.094, 133.8685
1166.577, 133.8527
1167.059, 133.1756
1167.541, 131.9389
1168.023, 130.3266
1168.505, 130.4875
1168.987, 132.2637
1169.469, 133.7767
1169.951, 133.9397
1170.433, 133.5784
1170.916, 132.4932
1171.398, 131.4598
1171.880, 131.6757
1172.362, 133.0622
1172.844, 134.0725
1173.326, 134.5833
1173.808, 134.6215
1174.290, 133.8833
1174.773, 133.0049
1175.255, 132.1278
1175.737, 131.4598
1176.219, 131.6554
1176.701, 132.7247
1177.183, 132.8902
1177.665, 131.8764
1178.147, 130.8564
1178.630, 130.7189
1179.112, 130.9418
1179.594, 131.4216
1180.076, 131.9353
1180.558, 131.6518
1181.040, 130.4983
1181.522, 130.0496
1182.004, 130.7044
1182.486, 131.3982
1182.969, 131.2269
1183.451, 130.6564
1183.933, 129.8374
1184.415, 128.9076
1184.897, 128.7014
1185.379, 129.2967
1185.861, 129.7171
1186.343, 129.6875
1186.825, 129.5078
1187.308, 129.4829
1187.790, 129.4427
1188.272, 129.1353
1188.754, 128.5751
1189.236, 128.4112
1189.718, 128.6989
1190.200, 128.8576
1190.682, 128.6042
1191.165, 128.4424
1191.647, 129.3975
1192.129, 130.4213
1192.611, 130.1549
1193.093, 128.3825
1193.575, 127.2688
1194.057, 126.8384
1194.539, 126.9335
1195.021, 127.7081
1195.504, 128.5188
1195.986, 128.5573
1196.468, 128.2374
1196.950, 128.1681
1197.432, 128.5405
1197.914, 128.0206
1198.396, 126.4001
1198.878, 125.3080
1199.360, 125.7246
1199.843, 126.7417
1200.325, 127.7879
1200.807, 128.5260
1201.289, 128.2628
1201.771, 126.5183
1202.253, 125.9669
1202.735, 126.8297
1203.217, 127.4442
1203.700, 126.5171
1204.182, 125.3061
1204.664, 125.5949
1205.146, 126.4595
1205.628, 126.2541
1206.110, 124.1402
1206.592, 123.4231
1207.074, 124.2894
1207.557, 125.3187
1208.039, 125.6222
1208.521, 125.5941
1209.003, 125.7623
1209.485, 125.8885
1209.967, 125.4472
1210.449, 123.9378
1210.931, 123.3368
1211.413, 123.7685
1211.896, 124.2976
1212.378, 124.2254
1212.860, 123.9564
1213.342, 124.0624
1213.824, 124.2592
1214.306, 123.8770
1214.788, 122.5715
1215.270, 121.8017
1215.752, 121.6327
1216.235, 121.7351
1216.717, 122.0271
1217.199, 122.3289
1217.681, 122.4933
1218.163, 122.5209
1218.645, 122.4043
1219.127, 122.1091
1219.609, 121.8083
1220.092, 121.4892
1220.574, 121.3421
1221.056, 121.7860
1221.538, 122.2274
1222.020, 121.8744
1222.502, 121.1522
1222.984, 121.1498
1223.466, 122.1795
1223.948, 122.4328
1224.431, 121.7523
1224.913, 120.9624
1225.395, 120.6630
1225.877, 120.5898
1226.359, 120.6063
1226.841, 120.6599
1227.323, 120.6431
1227.805, 120.5484
1228.287, 120.4108
1228.770, 120.2275
1229.252, 120.1188
1229.734, 120.1582
1230.216, 120.3298
1230.698, 120.7211
1231.180, 121.2102
1231.662, 121.5453
1232.144, 121.7285
1232.627, 121.6994
1233.109, 121.4466
1233.591, 121.1947
1234.073, 121.2011
1234.555, 121.1735
1235.037, 120.8503
1235.519, 120.3854
1236.001, 120.0464
1236.484, 119.8364
1236.966, 119.7655
1237.448, 119.8353
1237.930, 119.9457
1238.412, 120.0972
1238.894, 120.1964
1239.376, 120.1321
1239.858, 120.0117
1240.340, 120.0429
1240.823, 120.2013
1241.305, 120.1221
1241.787, 119.7873
1242.269, 119.6889
1242.751, 120.4745
1243.233, 121.1682
1243.715, 121.3811
1244.197, 121.2341
1244.679, 120.7294
1245.162, 119.9881
1245.644, 119.6961
1246.126, 119.8984
1246.608, 120.2893
1247.090, 121.1668
1247.572, 121.5634
1248.054, 120.9521
1248.536, 120.0753
1249.019, 120.1942
1249.501, 120.9794
1249.983, 121.4196
1250.465, 121.4336
1250.947, 121.2759
1251.429, 120.7808
1251.911, 120.5246
1252.393, 120.7071
1252.875, 121.0179
1253.358, 120.9695
1253.840, 120.7527
1254.322, 120.8764
1254.804, 121.3240
1255.286, 121.5651
1255.768, 121.2954
1256.250, 121.0838
1256.732, 121.0314
1257.214, 121.0256
1257.697, 120.8944
1258.179, 120.7373
1258.661, 120.6357
1259.143, 120.6347
1259.625, 121.0589
1260.107, 122.4025
1260.589, 122.8176
1261.071, 121.8677
1261.554, 120.6783
1262.036, 120.2939
1262.518, 120.4613
1263.000, 121.2333
1263.482, 122.3338
1263.964, 122.4933
1264.446, 121.3131
1264.928, 120.8913
1265.411, 121.5760
1265.893, 122.3472
1266.375, 122.1156
1266.857, 121.7257
1267.339, 122.0122
1267.821, 122.7302
1268.303, 122.9426
1268.785, 122.5698
1269.267, 122.8942
1269.750, 124.0781
1270.232, 125.0532
1270.714, 125.0110
1271.196, 124.5220
1271.678, 123.6112
1272.160, 122.6644
1272.642, 122.3413
1273.124, 122.6023
1273.606, 122.9058
1274.089, 123.1961
1274.571, 123.3467
1275.053, 122.9773
1275.535, 122.8614
1276.017, 123.5273
1276.499, 124.3075
1276.981, 123.9971
1277.463, 123.0461
1277.946, 123.5531
1278.428, 125.3643
1278.910, 126.4693
1279.392, 125.2499
1279.874, 124.2264
1280.356, 123.8611
1280.838, 123.7929
1281.320, 123.4989
1281.802, 123.2509
1282.285, 123.8266
1282.767, 125.0246
1283.249, 125.8328
1283.731, 125.7511
1284.213, 125.7543
1284.695, 125.9557
1285.177, 126.1007
1285.659, 125.7218
1286.141, 125.3293
1286.624, 125.8449
1287.106, 126.8636
1287.588, 127.1384
1288.070, 126.3500
1288.552, 125.8614
1289.034, 125.7495
1289.516, 125.8454
1289.998, 126.1753
1290.481, 126.5051
1290.963, 126.5091
1291.445, 126.4557
1291.927, 126.8558
1292.409, 127.7557
1292.891, 128.2166
1293.373, 128.2413
1293.855, 128.2031
1294.338, 128.1522
1294.820, 128.3025
1295.302, 129.1056
1295.784, 129.8529
1296.266, 129.6978
1296.748, 128.8654
1297.230, 129.0267
1297.712, 129.9850
1298.194, 130.8097
1298.677, 130.2841
1299.159, 130.8527
1299.641, 133.4673
1300.123, 135.9420
1300.605, 136.5023
1301.087, 135.7778
1301.569, 135.0390
1302.051, 134.2534
1302.533, 133.3259
1303.016, 132.1255
##END=



