##NAMES=Titanowodginite
##RRUFFID=R061033
##IDEAL CHEMISTRY=Mn^2+^Ti^4+^Ta^5+^_2_O_8_
##LOCALITY=Tanco pegmatite, Manitoba, Canada
##OWNER=RRUFF
##SOURCE=Michael Scott
##DESCRIPTION=Black crystal fragments embedded in beryl and associated with muscovite
##STATUS=The identification of this mineral has been confirmed only by single crystal X-ray diffraction.
##URL=rruff.info/R061033
119.5937, 952.3932
120.0758, 1003.003
120.5579, 1040.574
121.0400, 1078.404
121.5221, 1130.364
122.0043, 1202.760
122.4864, 1270.580
122.9685, 1312.620
123.4506, 1334.244
123.9327, 1350.656
124.4148, 1372.354
124.8969, 1393.972
125.3791, 1406.895
125.8612, 1405.255
126.3433, 1399.308
126.8254, 1401.248
127.3075, 1410.737
127.7896, 1423.433
128.2718, 1439.990
128.7539, 1457.858
129.2360, 1468.526
129.7181, 1467.696
130.2002, 1458.097
130.6823, 1446.015
131.1645, 1431.393
131.6466, 1414.455
132.1287, 1393.411
132.6108, 1368.763
133.0929, 1346.776
133.5750, 1329.086
134.0572, 1315.848
134.5393, 1311.437
135.0214, 1318.225
135.5035, 1330.405
135.9856, 1333.823
136.4677, 1326.252
136.9499, 1321.928
137.4320, 1333.855
137.9141, 1365.294
138.3962, 1387.423
138.8783, 1397.474
139.3604, 1395.642
139.8426, 1379.809
140.3247, 1342.405
140.8068, 1304.654
141.2889, 1287.598
141.7710, 1300.337
142.2531, 1309.852
142.7353, 1307.667
143.2174, 1292.226
143.6995, 1282.320
144.1816, 1278.936
144.6637, 1280.405
145.1458, 1285.386
145.6280, 1300.729
146.1101, 1309.979
146.5922, 1307.443
147.0743, 1288.629
147.5564, 1267.861
148.0385, 1240.774
148.5207, 1211.871
149.0028, 1193.249
149.4849, 1192.249
149.9670, 1195.781
150.4491, 1198.212
150.9312, 1203.537
151.4134, 1203.379
151.8955, 1192.383
152.3776, 1172.734
152.8597, 1162.328
153.3418, 1174.216
153.8239, 1189.183
154.3061, 1194.388
154.7882, 1180.870
155.2703, 1165.050
155.7524, 1149.149
156.2345, 1133.182
156.7166, 1118.927
157.1988, 1104.011
157.6809, 1091.861
158.1630, 1086.294
158.6451, 1096.385
159.1272, 1106.511
159.6093, 1109.570
160.0915, 1101.900
160.5736, 1096.877
161.0557, 1100.564
161.5378, 1109.741
162.0199, 1118.576
162.5020, 1127.958
162.9841, 1134.326
163.4663, 1135.495
163.9484, 1130.310
164.4305, 1121.254
164.9126, 1105.039
165.3947, 1084.696
165.8768, 1070.381
166.3590, 1071.245
166.8411, 1078.787
167.3232, 1085.319
167.8053, 1089.197
168.2874, 1091.003
168.7695, 1089.614
169.2517, 1085.492
169.7338, 1082.996
170.2159, 1088.901
170.6980, 1097.362
171.1801, 1100.458
171.6622, 1088.322
172.1444, 1073.378
172.6265, 1068.753
173.1086, 1075.287
173.5907, 1081.978
174.0728, 1076.540
174.5549, 1064.275
175.0371, 1057.039
175.5192, 1064.833
176.0013, 1079.310
176.4834, 1090.541
176.9655, 1098.001
177.4476, 1100.551
177.9298, 1091.965
178.4119, 1075.379
178.8940, 1064.046
179.3761, 1069.342
179.8582, 1084.623
180.3403, 1097.001
180.8225, 1104.033
181.3046, 1108.700
181.7867, 1116.005
182.2688, 1125.465
182.7509, 1133.211
183.2330, 1134.831
183.7152, 1132.127
184.1973, 1131.416
184.6794, 1136.008
185.1615, 1141.704
185.6436, 1137.841
186.1257, 1124.101
186.6079, 1110.729
187.0900, 1108.335
187.5721, 1115.202
188.0542, 1121.347
188.5363, 1123.305
189.0184, 1122.545
189.5006, 1123.274
189.9827, 1125.366
190.4648, 1129.720
190.9469, 1140.559
191.4290, 1157.190
191.9111, 1168.008
192.3932, 1166.089
192.8754, 1153.426
193.3575, 1144.376
193.8396, 1139.543
194.3217, 1136.702
194.8038, 1133.414
195.2859, 1129.750
195.7681, 1124.376
196.2502, 1113.343
196.7323, 1097.011
197.2144, 1092.558
197.6965, 1104.054
198.1786, 1122.271
198.6608, 1128.432
199.1429, 1120.631
199.6250, 1111.074
200.1071, 1106.986
200.5892, 1108.819
201.0714, 1108.388
201.5535, 1104.050
202.0356, 1097.708
202.5177, 1095.090
202.9998, 1096.933
203.4819, 1099.733
203.9641, 1101.127
204.4462, 1100.939
204.9283, 1100.180
205.4104, 1098.312
205.8925, 1095.993
206.3746, 1096.975
206.8568, 1102.378
207.3389, 1108.410
207.8210, 1112.187
208.3031, 1113.732
208.7852, 1113.061
209.2673, 1109.307
209.7495, 1102.928
210.2316, 1099.709
210.7137, 1101.504
211.1958, 1103.477
211.6779, 1099.996
212.1600, 1088.949
212.6422, 1079.389
213.1243, 1074.368
213.6064, 1074.171
214.0885, 1069.508
214.5706, 1057.306
215.0527, 1044.220
215.5349, 1039.899
216.0170, 1048.311
216.4991, 1055.213
216.9812, 1055.204
217.4633, 1046.434
217.9454, 1043.734
218.4276, 1050.613
218.9097, 1060.613
219.3918, 1062.384
219.8739, 1050.306
220.3560, 1041.571
220.8381, 1044.715
221.3203, 1066.277
221.8024, 1073.584
222.2845, 1059.369
222.7666, 1034.853
223.2487, 1023.746
223.7308, 1031.359
224.2129, 1043.515
224.6951, 1055.576
225.1772, 1070.252
225.6593, 1077.778
226.1414, 1075.301
226.6235, 1066.389
227.1056, 1061.250
227.5878, 1062.267
228.0699, 1063.343
228.5520, 1061.089
229.0341, 1052.711
229.5162, 1047.342
229.9983, 1045.480
230.4805, 1046.815
230.9626, 1050.774
231.4447, 1060.350
231.9268, 1068.540
232.4089, 1070.543
232.8910, 1061.269
233.3732, 1057.116
233.8553, 1062.041
234.3374, 1073.710
234.8195, 1077.921
235.3016, 1069.688
235.7837, 1060.147
236.2659, 1057.218
236.7480, 1066.667
237.2301, 1070.883
237.7122, 1065.260
238.1943, 1051.419
238.6764, 1045.411
239.1586, 1051.917
239.6407, 1061.094
240.1228, 1065.204
240.6049, 1060.981
241.0870, 1058.209
241.5691, 1059.111
242.0513, 1063.444
242.5334, 1064.351
243.0155, 1058.759
243.4976, 1052.885
243.9797, 1052.316
244.4618, 1059.775
244.9440, 1067.257
245.4261, 1073.827
245.9082, 1079.466
246.3903, 1083.017
246.8724, 1083.127
247.3545, 1082.451
247.8367, 1084.074
248.3188, 1090.974
248.8009, 1094.159
249.2830, 1089.540
249.7651, 1076.455
250.2472, 1072.703
250.7294, 1084.005
251.2115, 1099.154
251.6936, 1105.900
252.1757, 1100.980
252.6578, 1094.004
253.1399, 1086.393
253.6220, 1077.999
254.1042, 1070.647
254.5863, 1062.808
255.0684, 1057.576
255.5505, 1059.435
256.0326, 1072.087
256.5147, 1084.491
256.9969, 1094.822
257.4790, 1103.348
257.9611, 1106.524
258.4432, 1101.712
258.9253, 1094.110
259.4074, 1089.892
259.8896, 1088.191
260.3717, 1091.995
260.8538, 1104.662
261.3359, 1128.333
261.8180, 1141.704
262.3001, 1140.696
262.7823, 1133.743
263.2644, 1133.080
263.7465, 1141.696
264.2286, 1149.010
264.7107, 1150.622
265.1928, 1145.470
265.6750, 1145.842
266.1571, 1154.640
266.6392, 1165.615
267.1213, 1169.183
267.6034, 1162.694
268.0855, 1156.443
268.5677, 1153.623
269.0498, 1154.421
269.5319, 1156.911
270.0140, 1161.439
270.4961, 1167.291
270.9782, 1174.533
271.4604, 1184.785
271.9425, 1190.764
272.4246, 1187.988
272.9067, 1175.522
273.3888, 1168.456
273.8709, 1167.276
274.3531, 1170.691
274.8352, 1177.558
275.3173, 1188.410
275.7994, 1200.010
276.2815, 1210.815
276.7636, 1220.604
277.2458, 1234.040
277.7279, 1253.313
278.2100, 1271.962
278.6921, 1278.146
279.1742, 1269.955
279.6563, 1263.562
280.1385, 1265.590
280.6206, 1275.743
281.1027, 1288.741
281.5848, 1306.156
282.0669, 1322.652
282.5490, 1327.983
283.0312, 1321.318
283.5133, 1317.543
283.9954, 1324.395
284.4775, 1340.875
284.9596, 1354.813
285.4417, 1366.277
285.9239, 1375.362
286.4060, 1380.014
286.8881, 1380.381
287.3702, 1384.638
287.8523, 1400.336
288.3344, 1424.404
288.8166, 1437.802
289.2987, 1439.441
289.7808, 1435.413
290.2629, 1432.964
290.7450, 1431.839
291.2271, 1429.511
291.7093, 1424.570
292.1914, 1417.544
292.6735, 1410.019
293.1556, 1402.067
293.6377, 1394.103
294.1198, 1387.464
294.6020, 1381.649
295.0841, 1374.210
295.5662, 1363.270
296.0483, 1350.019
296.5304, 1336.566
297.0125, 1322.764
297.4947, 1310.952
297.9768, 1305.786
298.4589, 1305.187
298.9410, 1302.756
299.4231, 1294.275
299.9052, 1282.672
300.3873, 1271.882
300.8694, 1261.771
301.3516, 1254.825
301.8337, 1254.365
302.3158, 1258.737
302.7979, 1264.175
303.2800, 1272.039
303.7621, 1278.726
304.2443, 1277.724
304.7264, 1268.973
305.2085, 1261.815
305.6906, 1266.608
306.1727, 1277.463
306.6548, 1284.760
307.1370, 1285.580
307.6191, 1280.724
308.1012, 1267.525
308.5833, 1246.828
309.0654, 1228.984
309.5475, 1222.642
310.0297, 1222.911
310.5118, 1223.682
310.9939, 1225.141
311.4760, 1224.544
311.9581, 1218.720
312.4402, 1208.195
312.9224, 1198.428
313.4045, 1193.126
313.8866, 1189.597
314.3687, 1185.280
314.8508, 1178.927
315.3329, 1172.051
315.8151, 1165.847
316.2972, 1159.947
316.7793, 1152.604
317.2614, 1139.394
317.7435, 1126.402
318.2256, 1118.422
318.7078, 1123.131
319.1899, 1125.672
319.6720, 1117.618
320.1541, 1102.250
320.6362, 1093.570
321.1183, 1104.558
321.6005, 1117.877
322.0826, 1123.033
322.5647, 1110.032
323.0468, 1099.319
323.5289, 1095.177
324.0110, 1096.236
324.4932, 1097.815
324.9753, 1099.398
325.4574, 1101.149
325.9395, 1103.323
326.4216, 1108.573
326.9037, 1110.265
327.3859, 1105.442
327.8680, 1096.661
328.3501, 1090.616
328.8322, 1086.259
329.3143, 1085.767
329.7964, 1091.042
330.2786, 1108.770
330.7607, 1117.917
331.2428, 1114.038
331.7249, 1102.875
332.2070, 1095.223
332.6891, 1092.883
333.1713, 1091.481
333.6534, 1088.462
334.1355, 1081.259
334.6176, 1083.868
335.0997, 1103.165
335.5818, 1126.803
336.0640, 1135.181
336.5461, 1120.946
337.0282, 1108.693
337.5103, 1107.096
337.9924, 1117.010
338.4745, 1120.790
338.9567, 1116.201
339.4388, 1109.083
339.9209, 1106.814
340.4030, 1110.248
340.8851, 1113.996
341.3672, 1117.346
341.8494, 1119.972
342.3315, 1117.834
342.8136, 1109.815
343.2957, 1101.395
343.7778, 1098.646
344.2599, 1101.473
344.7421, 1104.022
345.2242, 1105.674
345.7063, 1105.636
346.1884, 1099.042
346.6705, 1085.442
347.1526, 1074.461
347.6348, 1077.436
348.1169, 1090.915
348.5990, 1100.871
349.0811, 1103.111
349.5632, 1101.520
350.0453, 1102.235
350.5275, 1104.958
351.0096, 1107.210
351.4917, 1106.485
351.9738, 1104.207
352.4559, 1103.147
352.9380, 1103.941
353.4202, 1105.760
353.9023, 1108.562
354.3844, 1111.895
354.8665, 1114.212
355.3486, 1116.178
355.8307, 1116.009
356.3129, 1109.599
356.7950, 1093.933
357.2771, 1082.350
357.7592, 1088.389
358.2413, 1104.918
358.7234, 1118.540
359.2056, 1120.569
359.6877, 1119.681
360.1698, 1121.902
360.6519, 1128.355
361.1340, 1133.070
361.6161, 1131.746
362.0982, 1127.755
362.5804, 1125.198
363.0625, 1124.862
363.5446, 1126.552
364.0267, 1132.675
364.5088, 1143.543
364.9909, 1148.178
365.4731, 1135.085
365.9552, 1119.596
366.4373, 1114.127
366.9194, 1132.300
367.4015, 1147.589
367.8836, 1155.267
368.3658, 1155.852
368.8479, 1156.217
369.3300, 1153.312
369.8121, 1152.723
370.2942, 1157.543
370.7763, 1170.083
371.2585, 1184.453
371.7406, 1200.964
372.2227, 1219.043
372.7048, 1238.635
373.1869, 1265.273
373.6690, 1284.325
374.1512, 1286.012
374.6333, 1260.448
375.1154, 1251.104
375.5975, 1264.104
376.0796, 1287.438
376.5617, 1297.195
377.0439, 1289.798
377.5260, 1284.167
378.0081, 1289.487
378.4902, 1305.532
378.9723, 1315.450
379.4544, 1318.339
379.9366, 1318.200
380.4187, 1319.096
380.9008, 1321.088
381.3829, 1325.172
381.8650, 1332.573
382.3471, 1342.055
382.8293, 1349.991
383.3114, 1356.424
383.7935, 1361.596
384.2756, 1365.342
384.7577, 1367.967
385.2398, 1370.059
385.7220, 1370.278
386.2041, 1371.877
386.6862, 1381.641
387.1683, 1397.996
387.6504, 1411.995
388.1325, 1415.489
388.6147, 1413.999
389.0968, 1414.044
389.5789, 1416.263
390.0610, 1421.605
390.5431, 1434.023
391.0252, 1450.266
391.5074, 1462.926
391.9895, 1468.026
392.4716, 1469.005
392.9537, 1466.565
393.4358, 1459.650
393.9179, 1456.292
394.4001, 1461.170
394.8822, 1470.906
395.3643, 1481.241
395.8464, 1495.070
396.3285, 1505.493
396.8106, 1507.489
397.2928, 1500.565
397.7749, 1499.250
398.2570, 1512.740
398.7391, 1528.191
399.2212, 1536.166
399.7033, 1527.666
400.1855, 1522.776
400.6676, 1525.841
401.1497, 1534.520
401.6318, 1536.124
402.1139, 1522.850
402.5960, 1512.605
403.0782, 1516.130
403.5603, 1541.366
404.0424, 1558.338
404.5245, 1565.181
405.0066, 1564.485
405.4887, 1559.474
405.9709, 1547.735
406.4530, 1540.903
406.9351, 1546.825
407.4172, 1565.074
407.8993, 1573.010
408.3814, 1569.033
408.8636, 1559.732
409.3457, 1550.785
409.8278, 1542.466
410.3099, 1538.787
410.7920, 1543.212
411.2741, 1551.938
411.7563, 1557.693
412.2384, 1560.431
412.7205, 1557.889
413.2026, 1542.550
413.6847, 1521.103
414.1668, 1508.218
414.6490, 1509.019
415.1311, 1515.278
415.6132, 1521.480
416.0953, 1526.734
416.5774, 1528.012
417.0595, 1523.324
417.5417, 1514.242
418.0238, 1499.639
418.5059, 1477.200
418.9880, 1460.435
419.4701, 1464.283
419.9522, 1476.531
420.4344, 1479.874
420.9165, 1455.397
421.3986, 1433.370
421.8807, 1427.549
422.3628, 1439.164
422.8449, 1447.385
423.3270, 1446.467
423.8091, 1441.649
424.2913, 1436.721
424.7734, 1426.476
425.2555, 1423.075
425.7376, 1432.562
426.2197, 1450.475
426.7018, 1458.249
427.1840, 1449.588
427.6661, 1438.989
428.1482, 1433.602
428.6303, 1436.976
429.1124, 1433.831
429.5945, 1421.329
430.0767, 1405.384
430.5588, 1396.688
431.0409, 1397.270
431.5230, 1395.214
432.0051, 1384.776
432.4872, 1367.460
432.9694, 1355.500
433.4515, 1349.136
433.9336, 1345.611
434.4157, 1341.631
434.8978, 1337.857
435.3799, 1338.527
435.8621, 1347.235
436.3442, 1357.507
436.8263, 1356.124
437.3084, 1345.217
437.7905, 1337.048
438.2726, 1343.625
438.7548, 1356.115
439.2369, 1363.822
439.7190, 1365.887
440.2011, 1360.351
440.6832, 1335.326
441.1653, 1302.987
441.6475, 1284.217
442.1296, 1302.649
442.6117, 1324.543
443.0938, 1330.092
443.5759, 1318.312
444.0580, 1308.147
444.5402, 1306.393
445.0223, 1308.751
445.5044, 1311.983
445.9865, 1321.571
446.4686, 1325.162
446.9507, 1317.204
447.4329, 1301.009
447.9150, 1289.821
448.3971, 1284.967
448.8792, 1283.740
449.3613, 1285.908
449.8434, 1293.636
450.3256, 1297.301
450.8077, 1295.267
451.2898, 1290.745
451.7719, 1288.167
452.2540, 1287.805
452.7361, 1288.374
453.2183, 1289.975
453.7004, 1292.238
454.1825, 1293.036
454.6646, 1292.236
455.1467, 1290.848
455.6288, 1289.176
456.1110, 1287.483
456.5931, 1287.445
457.0752, 1289.950
457.5573, 1292.956
458.0394, 1294.651
458.5215, 1294.662
459.0037, 1291.323
459.4858, 1278.093
459.9679, 1263.675
460.4500, 1259.927
460.9321, 1268.062
461.4142, 1278.499
461.8964, 1288.260
462.3785, 1295.573
462.8606, 1298.289
463.3427, 1292.463
463.8248, 1285.009
464.3069, 1275.984
464.7891, 1266.582
465.2712, 1263.808
465.7533, 1280.409
466.2354, 1295.951
466.7175, 1298.619
467.1996, 1275.581
467.6818, 1261.239
468.1639, 1261.233
468.6460, 1268.474
469.1281, 1271.815
469.6102, 1268.725
470.0923, 1266.256
470.5745, 1267.569
471.0566, 1272.500
471.5387, 1268.386
472.0208, 1250.306
472.5029, 1234.677
472.9850, 1240.673
473.4672, 1269.197
473.9493, 1281.923
474.4314, 1268.665
474.9135, 1244.416
475.3956, 1240.799
475.8777, 1255.845
476.3599, 1267.792
476.8420, 1257.990
477.3241, 1238.305
477.8062, 1233.498
478.2883, 1245.605
478.7704, 1259.697
479.2526, 1263.879
479.7347, 1261.497
480.2168, 1257.666
480.6989, 1253.027
481.1810, 1248.483
481.6631, 1243.760
482.1453, 1239.285
482.6274, 1236.877
483.1095, 1242.023
483.5916, 1245.885
484.0737, 1241.934
484.5558, 1223.179
485.0379, 1212.023
485.5201, 1214.233
486.0022, 1224.968
486.4843, 1238.089
486.9664, 1261.129
487.4485, 1275.931
487.9306, 1276.298
488.4128, 1263.749
488.8949, 1257.900
489.3770, 1262.145
489.8591, 1266.137
490.3412, 1261.321
490.8233, 1246.463
491.3055, 1236.814
491.7876, 1234.353
492.2697, 1236.033
492.7518, 1237.848
493.2339, 1239.666
493.7160, 1240.266
494.1982, 1238.454
494.6803, 1235.197
495.1624, 1233.229
495.6445, 1232.436
496.1266, 1229.930
496.6087, 1218.984
497.0909, 1206.359
497.5730, 1201.718
498.0551, 1210.168
498.5372, 1221.940
499.0193, 1235.251
499.5014, 1247.240
499.9836, 1251.596
500.4657, 1235.933
500.9478, 1220.993
501.4299, 1216.871
501.9120, 1225.942
502.3941, 1233.446
502.8763, 1238.790
503.3584, 1240.839
503.8405, 1238.075
504.3226, 1221.723
504.8047, 1215.767
505.2868, 1227.177
505.7690, 1248.772
506.2511, 1259.785
506.7332, 1257.958
507.2153, 1251.684
507.6974, 1242.747
508.1795, 1231.519
508.6617, 1226.308
509.1438, 1228.559
509.6259, 1230.571
510.1080, 1220.482
510.5901, 1201.883
511.0722, 1191.404
511.5544, 1196.148
512.0365, 1206.947
512.5186, 1211.885
513.0007, 1212.368
513.4828, 1213.632
513.9650, 1220.685
514.4471, 1228.698
514.9292, 1232.889
515.4113, 1232.335
515.8934, 1231.568
516.3755, 1233.676
516.8576, 1236.235
517.3397, 1236.779
517.8218, 1232.069
518.3040, 1228.279
518.7861, 1228.031
519.2682, 1230.062
519.7503, 1228.549
520.2324, 1219.350
520.7145, 1211.616
521.1967, 1209.258
521.6788, 1213.322
522.1609, 1217.513
522.6430, 1223.023
523.1251, 1226.687
523.6072, 1223.328
524.0894, 1212.501
524.5715, 1204.299
525.0536, 1201.013
525.5357, 1201.444
526.0178, 1203.676
526.4999, 1207.578
526.9821, 1211.646
527.4642, 1215.141
527.9463, 1218.171
528.4284, 1221.642
528.9105, 1225.850
529.3926, 1227.268
529.8748, 1219.874
530.3569, 1209.225
530.8390, 1202.357
531.3211, 1204.975
531.8032, 1207.874
532.2853, 1206.520
532.7675, 1202.556
533.2496, 1201.224
533.7317, 1206.503
534.2138, 1211.993
534.6959, 1214.787
535.1780, 1213.651
535.6602, 1215.880
536.1423, 1225.157
536.6244, 1233.956
537.1065, 1234.159
537.5886, 1222.772
538.0707, 1214.680
538.5529, 1212.388
539.0350, 1214.074
539.5171, 1214.348
539.9992, 1213.137
540.4813, 1215.797
540.9634, 1227.960
541.4456, 1245.779
541.9277, 1259.605
542.4098, 1269.232
542.8919, 1275.203
543.3740, 1275.587
543.8561, 1273.132
544.3383, 1271.709
544.8204, 1272.588
545.3025, 1274.210
545.7846, 1273.905
546.2667, 1273.774
546.7488, 1278.201
547.2310, 1296.273
547.7131, 1311.823
548.1952, 1317.246
548.6773, 1310.865
549.1594, 1309.400
549.6415, 1317.522
550.1237, 1326.729
550.6058, 1330.905
551.0879, 1326.563
551.5700, 1327.857
552.0521, 1338.124
552.5342, 1351.089
553.0164, 1354.247
553.4985, 1346.925
553.9806, 1340.588
554.4627, 1336.834
554.9448, 1337.939
555.4269, 1354.891
555.9091, 1386.635
556.3912, 1415.029
556.8733, 1424.925
557.3554, 1423.540
557.8375, 1419.975
558.3196, 1414.987
558.8018, 1410.584
559.2839, 1405.982
559.7660, 1403.341
560.2481, 1405.488
560.7302, 1420.410
561.2123, 1432.842
561.6945, 1435.942
562.1766, 1431.384
562.6587, 1430.683
563.1408, 1440.491
563.6229, 1447.668
564.1050, 1444.917
564.5872, 1427.718
565.0693, 1425.016
565.5514, 1442.070
566.0335, 1464.388
566.5156, 1475.041
566.9977, 1473.649
567.4799, 1475.982
567.9620, 1485.968
568.4441, 1499.420
568.9262, 1511.402
569.4083, 1521.057
569.8904, 1523.131
570.3726, 1505.948
570.8547, 1484.627
571.3368, 1479.133
571.8189, 1489.419
572.3010, 1498.751
572.7831, 1494.031
573.2653, 1485.710
573.7474, 1483.344
574.2295, 1494.083
574.7116, 1501.073
575.1937, 1492.799
575.6758, 1480.534
576.1580, 1483.002
576.6401, 1515.121
577.1222, 1541.088
577.6043, 1553.832
578.0864, 1554.598
578.5685, 1550.615
579.0507, 1540.362
579.5328, 1530.416
580.0149, 1524.145
580.4970, 1521.513
580.9791, 1522.308
581.4612, 1526.909
581.9434, 1532.422
582.4255, 1536.091
582.9076, 1538.079
583.3897, 1538.582
583.8718, 1536.858
584.3539, 1534.876
584.8361, 1533.221
585.3182, 1532.535
585.8003, 1534.482
586.2824, 1542.714
586.7645, 1551.139
587.2466, 1557.607
587.7288, 1562.050
588.2109, 1562.929
588.6930, 1553.110
589.1751, 1545.194
589.6572, 1547.576
590.1393, 1569.464
590.6215, 1578.737
591.1036, 1570.911
591.5857, 1555.488
592.0678, 1546.819
592.5499, 1545.280
593.0320, 1543.958
593.5142, 1539.782
593.9963, 1535.553
594.4784, 1541.580
594.9605, 1555.883
595.4426, 1563.355
595.9247, 1542.102
596.4069, 1515.458
596.8890, 1515.516
597.3711, 1546.499
597.8532, 1573.549
598.3353, 1578.769
598.8174, 1571.088
599.2996, 1557.920
599.7817, 1531.418
600.2638, 1512.991
600.7459, 1507.660
601.2280, 1511.971
601.7101, 1520.925
602.1923, 1539.744
602.6744, 1553.254
603.1565, 1556.576
603.6386, 1551.246
604.1207, 1544.887
604.6028, 1536.248
605.0850, 1533.914
605.5671, 1551.920
606.0492, 1582.040
606.5313, 1589.223
607.0134, 1570.034
607.4955, 1545.745
607.9777, 1531.718
608.4598, 1526.842
608.9419, 1530.124
609.4240, 1546.960
609.9061, 1562.455
610.3882, 1567.203
610.8704, 1564.946
611.3525, 1563.122
611.8346, 1562.082
612.3167, 1563.374
612.7988, 1569.377
613.2809, 1579.673
613.7631, 1584.455
614.2452, 1580.110
614.7273, 1576.415
615.2094, 1580.286
615.6915, 1592.953
616.1736, 1598.683
616.6558, 1595.705
617.1379, 1591.528
617.6200, 1595.524
618.1021, 1605.790
618.5842, 1615.055
619.0663, 1621.447
619.5485, 1626.435
620.0306, 1632.270
620.5127, 1637.957
620.9948, 1641.226
621.4769, 1638.112
621.9590, 1634.877
622.4412, 1635.601
622.9233, 1639.910
623.4054, 1642.202
623.8875, 1640.172
624.3696, 1636.864
624.8517, 1632.573
625.3339, 1625.219
625.8160, 1626.451
626.2981, 1640.141
626.7802, 1656.132
627.2623, 1663.300
627.7444, 1661.491
628.2266, 1660.187
628.7087, 1661.496
629.1908, 1662.775
629.6729, 1657.634
630.1550, 1648.394
630.6371, 1643.019
631.1193, 1646.453
631.6014, 1654.447
632.0835, 1667.584
632.5656, 1683.781
633.0477, 1691.774
633.5298, 1675.257
634.0120, 1658.629
634.4941, 1656.803
634.9762, 1675.751
635.4583, 1689.219
635.9404, 1693.784
636.4225, 1694.989
636.9047, 1697.512
637.3868, 1702.649
637.8689, 1702.811
638.3510, 1695.387
638.8331, 1686.431
639.3152, 1687.372
639.7973, 1696.974
640.2794, 1704.404
640.7615, 1705.510
641.2437, 1703.048
641.7258, 1699.409
642.2079, 1695.201
642.6900, 1692.478
643.1721, 1692.129
643.6542, 1693.880
644.1364, 1698.779
644.6185, 1706.949
645.1006, 1712.784
645.5827, 1713.961
646.0648, 1712.970
646.5469, 1711.039
647.0291, 1706.907
647.5112, 1704.691
647.9933, 1704.342
648.4754, 1705.829
648.9575, 1709.933
649.4396, 1716.777
649.9218, 1721.858
650.4039, 1724.029
650.8860, 1724.444
651.3681, 1725.754
651.8502, 1727.149
652.3323, 1725.671
652.8145, 1719.015
653.2966, 1709.667
653.7787, 1697.575
654.2608, 1683.721
654.7429, 1673.470
655.2250, 1673.055
655.7072, 1673.362
656.1893, 1668.715
656.6714, 1656.492
657.1535, 1649.798
657.6356, 1650.188
658.1177, 1654.168
658.5999, 1660.906
659.0820, 1671.999
659.5641, 1673.662
660.0462, 1662.856
660.5283, 1647.486
661.0104, 1639.167
661.4926, 1636.019
661.9747, 1630.399
662.4568, 1619.701
662.9389, 1605.961
663.4210, 1586.765
663.9031, 1566.093
664.3853, 1553.858
664.8674, 1563.359
665.3495, 1574.096
665.8316, 1577.103
666.3137, 1572.095
666.7958, 1564.906
667.2780, 1553.150
667.7601, 1542.432
668.2422, 1535.904
668.7243, 1534.317
669.2064, 1529.989
669.6885, 1522.033
670.1707, 1513.867
670.6528, 1510.783
671.1349, 1510.932
671.6170, 1503.873
672.0991, 1486.305
672.5812, 1468.397
673.0634, 1463.297
673.5455, 1464.562
674.0276, 1461.124
674.5097, 1441.065
674.9918, 1424.466
675.4739, 1423.106
675.9561, 1431.748
676.4382, 1435.961
676.9203, 1428.261
677.4024, 1422.854
677.8845, 1424.729
678.3666, 1432.524
678.8488, 1432.848
679.3309, 1424.199
679.8130, 1413.295
680.2951, 1402.649
680.7772, 1392.684
681.2593, 1385.265
681.7415, 1380.415
682.2236, 1377.181
682.7057, 1377.440
683.1878, 1377.661
683.6699, 1371.968
684.1520, 1356.799
684.6342, 1344.603
685.1163, 1346.386
685.5984, 1351.802
686.0805, 1349.411
686.5626, 1324.887
687.0447, 1309.406
687.5269, 1308.937
688.0090, 1316.138
688.4911, 1316.377
688.9732, 1308.329
689.4553, 1300.091
689.9374, 1293.200
690.4196, 1288.300
690.9017, 1289.574
691.3838, 1295.780
691.8659, 1298.591
692.3480, 1287.296
692.8301, 1273.991
693.3123, 1273.268
693.7944, 1284.489
694.2765, 1293.284
694.7586, 1293.177
695.2407, 1289.065
695.7228, 1282.947
696.2050, 1273.165
696.6871, 1268.842
697.1692, 1276.187
697.6513, 1281.372
698.1334, 1268.662
698.6155, 1234.928
699.0977, 1218.888
699.5798, 1227.222
700.0619, 1241.559
700.5440, 1234.967
701.0261, 1214.268
701.5082, 1199.807
701.9904, 1200.520
702.4725, 1204.544
702.9546, 1203.232
703.4367, 1198.214
703.9188, 1192.623
704.4009, 1183.012
704.8831, 1177.671
705.3652, 1181.887
705.8473, 1193.049
706.3294, 1200.861
706.8115, 1206.681
707.2936, 1205.478
707.7758, 1191.513
708.2579, 1168.055
708.7400, 1161.005
709.2221, 1171.005
709.7042, 1177.363
710.1863, 1154.694
710.6685, 1122.414
711.1506, 1117.714
711.6327, 1143.792
712.1148, 1165.561
712.5969, 1153.873
713.0790, 1133.306
713.5612, 1124.441
714.0433, 1137.007
714.5254, 1147.092
715.0075, 1151.990
715.4896, 1154.365
715.9717, 1157.353
716.4539, 1161.982
716.9360, 1161.674
717.4181, 1153.829
717.9002, 1144.334
718.3823, 1142.663
718.8644, 1147.787
719.3466, 1155.855
719.8287, 1168.797
720.3108, 1179.492
720.7929, 1179.247
721.2750, 1171.112
721.7571, 1162.239
722.2393, 1150.651
722.7214, 1143.843
723.2035, 1146.603
723.6856, 1157.593
724.1677, 1167.943
724.6498, 1179.340
725.1320, 1186.776
725.6141, 1188.016
726.0962, 1183.446
726.5783, 1175.143
727.0604, 1162.759
727.5425, 1152.457
728.0247, 1148.214
728.5068, 1149.167
728.9889, 1155.818
729.4710, 1168.230
729.9531, 1178.731
730.4352, 1180.217
730.9174, 1179.440
731.3995, 1182.693
731.8816, 1195.701
732.3637, 1200.181
732.8458, 1190.171
733.3279, 1175.759
733.8101, 1165.527
734.2922, 1159.407
734.7743, 1157.356
735.2564, 1159.318
735.7385, 1165.418
736.2206, 1180.661
736.7028, 1201.010
737.1849, 1210.681
737.6670, 1200.385
738.1491, 1187.631
738.6312, 1185.957
739.1133, 1192.721
739.5955, 1203.257
740.0776, 1227.337
740.5597, 1242.491
741.0418, 1236.315
741.5239, 1217.156
742.0060, 1206.299
742.4882, 1204.584
742.9703, 1209.521
743.4524, 1223.583
743.9345, 1242.211
744.4166, 1247.554
744.8987, 1240.451
745.3809, 1233.399
745.8630, 1233.935
746.3451, 1238.365
746.8272, 1244.308
747.3093, 1251.164
747.7914, 1254.508
748.2736, 1248.957
748.7557, 1242.347
749.2378, 1239.525
749.7199, 1241.453
750.2020, 1242.605
750.6841, 1248.337
751.1663, 1226.644
751.6484, 1242.800
752.1305, 1252.930
752.6126, 1257.355
753.0947, 1238.995
753.5768, 1250.058
754.0590, 1249.331
754.5411, 1248.119
755.0232, 1263.323
755.5053, 1248.278
755.9874, 1263.222
756.4695, 1278.124
756.9517, 1285.486
757.4338, 1288.027
757.9159, 1283.478
758.3980, 1276.215
758.8801, 1262.784
759.3622, 1250.283
759.8444, 1249.494
760.3265, 1261.205
760.8086, 1272.067
761.2907, 1280.703
761.7728, 1285.058
762.2549, 1279.370
762.7370, 1267.171
763.2191, 1256.863
763.7012, 1250.310
764.1833, 1248.035
764.6655, 1250.930
765.1476, 1258.219
765.6297, 1268.275
766.1118, 1284.729
766.5939, 1299.051
767.0760, 1309.856
767.5582, 1317.484
768.0403, 1323.127
768.5224, 1326.743
769.0045, 1327.693
769.4866, 1324.344
769.9688, 1319.146
770.4509, 1316.693
770.9330, 1316.720
771.4151, 1318.040
771.8972, 1324.779
772.3793, 1328.475
772.8615, 1319.239
773.3436, 1299.025
773.8257, 1289.785
774.3078, 1303.328
774.7899, 1317.861
775.2720, 1325.388
775.7542, 1326.382
776.2363, 1333.545
776.7184, 1348.389
777.2005, 1358.506
777.6826, 1350.729
778.1647, 1333.376
778.6469, 1324.165
779.1290, 1323.530
779.6111, 1326.857
780.0932, 1337.520
780.5753, 1346.416
781.0574, 1344.197
781.5396, 1326.340
782.0217, 1317.033
782.5038, 1318.618
782.9859, 1328.390
783.4680, 1348.923
783.9501, 1383.643
784.4323, 1397.770
784.9144, 1388.648
785.3965, 1372.150
785.8786, 1358.378
786.3607, 1349.400
786.8428, 1352.688
787.3250, 1371.778
787.8071, 1385.151
788.2892, 1371.174
788.7713, 1350.055
789.2534, 1339.708
789.7355, 1345.442
790.2177, 1359.219
790.6998, 1389.270
791.1819, 1418.025
791.6640, 1426.514
792.1461, 1413.565
792.6282, 1400.176
793.1104, 1387.978
793.5925, 1377.844
794.0746, 1367.188
794.5567, 1360.007
795.0388, 1366.316
795.5209, 1398.926
796.0031, 1421.432
796.4852, 1403.719
796.9673, 1370.529
797.4494, 1353.788
797.9315, 1364.377
798.4136, 1379.530
798.8958, 1402.806
799.3779, 1424.384
799.8600, 1423.891
800.3421, 1402.598
800.8242, 1389.867
801.3063, 1395.228
801.7885, 1405.020
802.2706, 1400.799
802.7527, 1388.912
803.2348, 1380.751
803.7169, 1383.162
804.1990, 1386.781
804.6812, 1385.589
805.1633, 1384.374
805.6454, 1393.301
806.1275, 1421.790
806.6096, 1437.353
807.0917, 1430.490
807.5739, 1413.546
808.0560, 1412.259
808.5381, 1424.832
809.0202, 1439.835
809.5023, 1458.234
809.9844, 1470.111
810.4666, 1457.147
810.9487, 1431.066
811.4308, 1416.540
811.9129, 1431.804
812.3950, 1448.279
812.8771, 1459.453
813.3593, 1466.747
813.8414, 1473.634
814.3235, 1480.948
814.8056, 1483.754
815.2877, 1478.207
815.7698, 1470.338
816.2520, 1475.999
816.7341, 1491.445
817.2162, 1502.645
817.6983, 1494.432
818.1804, 1487.592
818.6625, 1501.796
819.1447, 1528.443
819.6268, 1544.270
820.1089, 1536.859
820.5910, 1526.814
821.0731, 1514.275
821.5552, 1502.927
822.0374, 1507.076
822.5195, 1527.907
823.0016, 1542.114
823.4837, 1536.415
823.9658, 1523.651
824.4479, 1525.219
824.9301, 1537.440
825.4122, 1548.930
825.8943, 1552.744
826.3764, 1556.677
826.8585, 1565.855
827.3406, 1578.249
827.8228, 1585.593
828.3049, 1586.051
828.7870, 1585.053
829.2691, 1583.376
829.7512, 1581.806
830.2333, 1583.145
830.7155, 1587.095
831.1976, 1591.031
831.6797, 1592.485
832.1618, 1594.440
832.6439, 1602.301
833.1260, 1613.248
833.6082, 1618.929
834.0903, 1613.946
834.5724, 1606.008
835.0545, 1591.590
835.5366, 1576.472
836.0187, 1585.760
836.5009, 1625.918
836.9830, 1652.028
837.4651, 1642.620
837.9472, 1616.575
838.4293, 1609.029
838.9114, 1616.136
839.3936, 1624.365
839.8757, 1626.797
840.3578, 1628.892
840.8399, 1634.226
841.3220, 1641.607
841.8041, 1647.033
842.2863, 1650.041
842.7684, 1651.265
843.2505, 1649.770
843.7326, 1647.301
844.2147, 1649.515
844.6968, 1655.930
845.1790, 1661.708
845.6611, 1665.527
846.1432, 1666.984
846.6253, 1663.170
847.1074, 1656.719
847.5895, 1653.904
848.0717, 1665.644
848.5538, 1670.781
849.0359, 1659.543
849.5180, 1639.931
850.0001, 1630.618
850.4822, 1633.619
850.9644, 1635.572
851.4465, 1633.324
851.9286, 1627.386
852.4107, 1614.231
852.8928, 1598.094
853.3749, 1590.594
853.8571, 1603.245
854.3392, 1617.980
854.8213, 1626.057
855.3034, 1629.937
855.7855, 1634.750
856.2676, 1643.064
856.7498, 1647.689
857.2319, 1647.469
857.7140, 1643.049
858.1961, 1631.889
858.6782, 1615.861
859.1603, 1609.903
859.6425, 1622.297
860.1246, 1636.798
860.6067, 1639.094
861.0888, 1632.839
861.5709, 1623.655
862.0530, 1607.014
862.5352, 1595.842
863.0173, 1595.415
863.4994, 1597.797
863.9815, 1590.452
864.4636, 1572.358
864.9457, 1559.250
865.4279, 1554.311
865.9100, 1553.343
866.3921, 1553.596
866.8742, 1553.524
867.3563, 1550.915
867.8384, 1547.133
868.3206, 1536.378
868.8027, 1505.013
869.2848, 1472.175
869.7669, 1459.846
870.2490, 1481.448
870.7311, 1483.911
871.2133, 1461.703
871.6954, 1429.166
872.1775, 1398.993
872.6596, 1372.215
873.1417, 1354.078
873.6238, 1346.727
874.1060, 1337.070
874.5881, 1308.341
875.0702, 1277.748
875.5523, 1262.426
876.0344, 1276.004
876.5165, 1274.857
876.9987, 1253.475
877.4808, 1226.218
877.9629, 1202.380
878.4450, 1182.395
878.9271, 1171.010
879.4092, 1168.738
879.8914, 1163.802
880.3735, 1144.288
880.8556, 1118.845
881.3377, 1095.291
881.8198, 1074.453
882.3019, 1055.238
882.7841, 1033.651
883.2662, 1017.856
883.7483, 1015.484
884.2304, 1025.885
884.7125, 1016.080
885.1946, 984.7171
885.6768, 956.0693
886.1588, 952.2007
886.6409, 958.1512
887.1230, 954.6620
887.6052, 941.9651
888.0873, 926.6210
888.5694, 902.7676
889.0515, 885.8831
889.5336, 886.4706
890.0157, 900.3120
890.4979, 901.5987
890.9800, 888.7402
891.4621, 872.0067
891.9442, 852.6677
892.4263, 834.7737
892.9084, 829.0523
893.3906, 831.8076
893.8727, 830.7028
894.3548, 814.4991
894.8369, 798.9492
895.3190, 790.2828
895.8011, 787.7588
896.2833, 790.0240
896.7654, 801.8436
897.2475, 803.9929
897.7296, 790.7886
898.2117, 768.6575
898.6938, 744.4907
899.1760, 721.0158
899.6581, 708.1283
900.1402, 711.8894
900.6223, 721.4272
901.1044, 736.7267
901.5865, 751.2095
902.0687, 754.4213
902.5508, 737.9620
903.0329, 726.8446
903.5150, 724.3429
903.9971, 723.7827
904.4792, 714.4667
904.9614, 699.2191
905.4435, 692.3315
905.9256, 697.0826
906.4077, 702.2512
906.8898, 696.9662
907.3719, 689.1133
907.8541, 687.1014
908.3362, 695.9232
908.8183, 698.5990
909.3004, 692.9526
909.7825, 683.9582
910.2646, 673.6305
910.7468, 662.4941
911.2289, 654.4274
911.7110, 649.5596
912.1931, 650.1702
912.6752, 667.4061
913.1573, 683.8812
913.6395, 680.5148
914.1216, 656.7225
914.6037, 640.6241
915.0858, 642.3730
915.5679, 643.4640
916.0500, 635.5718
916.5322, 621.9221
917.0143, 619.6925
917.4964, 628.1666
917.9785, 636.2110
918.4606, 638.4835
918.9427, 637.1665
919.4249, 631.8030
919.9070, 624.4937
920.3891, 620.8292
920.8712, 626.2015
921.3533, 630.4855
921.8354, 631.9593
922.3176, 631.3362
922.7997, 629.2495
923.2818, 625.7861
923.7639, 624.4710
924.2460, 626.3519
924.7281, 630.1018
925.2103, 638.3370
925.6924, 646.0828
926.1745, 645.7545
926.6566, 628.7756
927.1387, 615.7830
927.6208, 610.6978
928.1030, 608.8751
928.5851, 605.3845
929.0672, 600.1320
929.5493, 601.0498
930.0314, 609.1342
930.5135, 617.5038
930.9957, 618.5077
931.4778, 616.9421
931.9599, 619.5007
932.4420, 627.5687
932.9241, 629.9955
933.4063, 618.9312
933.8884, 607.5588
934.3705, 601.8508
934.8526, 601.1075
935.3347, 596.3445
935.8168, 587.6394
936.2990, 579.7286
936.7811, 573.2417
937.2632, 570.7042
937.7453, 578.8035
938.2274, 593.9270
938.7095, 603.4115
939.1917, 596.1975
939.6738, 592.3840
940.1559, 598.4113
940.6380, 608.8453
941.1201, 609.5178
941.6022, 600.8230
942.0844, 596.5810
942.5665, 602.8759
943.0486, 609.0566
943.5307, 601.7263
944.0128, 587.6796
944.4949, 576.5168
944.9771, 570.4288
945.4592, 568.0748
945.9413, 571.0073
946.4234, 575.3374
946.9055, 577.6813
947.3876, 578.0910
947.8698, 577.1737
948.3519, 574.8863
948.8340, 573.0019
949.3161, 572.9966
949.7982, 574.1973
950.2803, 575.7865
950.7625, 577.6321
951.2446, 581.3623
951.7267, 590.6530
952.2088, 596.4156
952.6909, 593.6418
953.1730, 584.3093
953.6552, 578.5942
954.1373, 576.1737
954.6194, 573.5505
955.1015, 565.1945
955.5836, 559.2904
956.0657, 565.1102
956.5479, 578.1639
957.0300, 587.3476
957.5121, 592.6844
957.9942, 590.0746
958.4763, 575.1552
958.9584, 557.6251
959.4406, 554.3824
959.9227, 562.8387
960.4048, 571.2759
960.8869, 577.2187
961.3690, 582.5400
961.8511, 592.1624
962.3333, 599.7423
962.8154, 597.5757
963.2975, 579.1105
963.7796, 571.3043
964.2617, 578.1923
964.7438, 585.8409
965.2260, 584.5096
965.7081, 575.6096
966.1902, 558.9764
966.6723, 536.5247
967.1544, 522.8930
967.6365, 535.9310
968.1187, 551.8792
968.6008, 555.3188
969.0829, 549.1906
969.5650, 550.7618
970.0471, 563.1749
970.5292, 571.5799
971.0114, 570.7656
971.4935, 565.4005
971.9756, 564.0896
972.4577, 564.8541
972.9398, 562.5662
973.4219, 551.8963
973.9041, 544.2897
974.3862, 545.5269
974.8683, 550.9930
975.3504, 555.9213
975.8325, 560.0921
976.3146, 566.3677
976.7968, 575.7741
977.2789, 581.5829
977.7610, 574.4268
978.2431, 561.3281
978.7252, 552.2505
979.2073, 548.0151
979.6895, 543.7531
980.1716, 531.2491
980.6537, 526.5585
981.1358, 539.9420
981.6179, 565.9739
982.1000, 573.5016
982.5822, 563.0476
983.0643, 551.9764
983.5464, 547.0499
984.0285, 546.3490
984.5106, 550.7490
984.9927, 557.4540
985.4749, 561.2429
985.9570, 556.6675
986.4391, 555.3788
986.9212, 559.7855
987.4033, 565.2152
987.8854, 564.5040
988.3676, 559.3351
988.8497, 560.7314
989.3318, 570.6069
989.8139, 576.3835
990.2960, 561.7630
990.7781, 544.3265
991.2603, 539.7755
991.7424, 550.2091
992.2245, 556.8292
992.7066, 559.2665
993.1887, 558.8926
993.6708, 555.5615
994.1530, 550.3729
994.6351, 541.9276
995.1172, 533.3593
995.5993, 535.1080
996.0814, 571.6718
996.5635, 596.7902
997.0457, 581.9893
997.5278, 550.1470
998.0099, 536.0867
998.4920, 542.7543
998.9741, 546.3444
999.4562, 542.9741
999.9384, 541.5729
1000.420, 557.9888
1000.903, 579.4927
1001.385, 587.8842
1001.867, 579.0510
1002.349, 569.7252
1002.831, 561.4966
1003.313, 556.7073
1003.795, 558.5629
1004.277, 565.1076
1004.760, 561.6428
1005.242, 549.0508
1005.724, 538.0851
1006.206, 533.4512
1006.688, 533.2900
1007.170, 538.9213
1007.652, 547.5662
1008.134, 553.0029
1008.616, 554.0429
1009.099, 553.0105
1009.581, 548.6450
1010.063, 545.4462
1010.545, 551.4064
1011.027, 562.7551
1011.509, 568.9028
1011.991, 568.0349
1012.473, 566.7823
1012.955, 572.2335
1013.438, 575.0086
1013.920, 567.5328
1014.402, 550.6479
1014.884, 540.3050
1015.366, 536.6141
1015.848, 537.9738
1016.330, 548.0774
1016.812, 558.1646
1017.294, 551.4158
1017.777, 536.0127
1018.259, 529.5925
1018.741, 551.2833
1019.223, 562.2535
1019.705, 552.3961
1020.187, 537.8724
1020.669, 542.0794
1021.151, 561.2521
1021.634, 566.6291
1022.116, 554.6838
1022.598, 541.9933
1023.080, 540.6797
1023.562, 543.7495
1024.044, 545.3004
1024.526, 545.0884
1025.008, 551.7333
1025.490, 568.5959
1025.973, 580.3386
1026.455, 580.7690
1026.937, 572.8218
1027.419, 554.8835
1027.901, 533.4144
1028.383, 525.1575
1028.865, 549.4997
1029.347, 566.9467
1029.830, 562.3823
1030.312, 551.0966
1030.794, 547.0853
1031.276, 550.5751
1031.758, 549.3138
1032.240, 542.4011
1032.722, 540.1359
1033.204, 560.8926
1033.687, 582.2919
1034.169, 580.4905
1034.651, 556.6132
1035.133, 543.0053
1035.615, 545.0646
1036.097, 549.5630
1036.579, 553.1562
1037.061, 556.7374
1037.543, 563.8058
1038.026, 572.2552
1038.508, 575.8627
1038.990, 570.9293
1039.472, 565.8882
1039.954, 565.7414
1040.436, 565.7168
1040.918, 560.7543
1041.400, 549.6323
1041.882, 548.2278
1042.365, 556.9734
1042.847, 565.7337
1043.329, 567.4558
1043.811, 565.6541
1044.293, 562.2606
1044.775, 558.1688
1045.257, 556.8573
1045.739, 563.1262
1046.222, 563.5797
1046.704, 553.4510
1047.186, 540.9729
1047.668, 540.7023
1048.150, 548.5836
1048.632, 552.9520
1049.114, 551.3892
1049.596, 547.9200
1050.078, 541.8275
1050.561, 537.1714
1051.043, 537.5050
1051.525, 542.4659
1052.007, 540.8596
1052.489, 532.2160
1052.971, 528.9675
1053.453, 541.2543
1053.935, 557.9543
1054.417, 569.3351
1054.900, 575.5128
1055.382, 576.5314
1055.864, 567.3772
1056.346, 560.9368
1056.828, 557.9461
1057.310, 557.3606
1057.792, 559.1666
1058.274, 562.3128
1058.757, 564.1103
1059.239, 564.3535
1059.721, 563.0607
1060.203, 555.6675
1060.685, 551.8419
1061.167, 559.6957
1061.649, 574.0494
1062.131, 573.9065
1062.614, 559.2965
1063.096, 549.6550
1063.578, 552.2614
1064.060, 557.2689
1064.542, 553.9092
1065.024, 547.3344
1065.506, 544.0555
1065.988, 546.8917
1066.470, 547.1224
1066.953, 542.8466
1067.435, 541.0134
1067.917, 549.4257
1068.399, 562.7523
1068.881, 567.2324
1069.363, 564.3049
1069.845, 559.3549
1070.327, 551.7623
1070.809, 546.2606
1071.292, 544.6885
1071.774, 545.2802
1072.256, 545.4321
1072.738, 545.2401
1073.220, 547.7676
1073.702, 553.6783
1074.184, 557.5394
1074.666, 553.3864
1075.148, 546.5583
1075.631, 540.4072
1076.113, 535.3424
1076.595, 534.1800
1077.077, 538.2869
1077.559, 539.9241
1078.041, 534.5405
1078.523, 528.6209
1079.005, 535.1632
1079.488, 547.6525
1079.970, 553.9833
1080.452, 547.5425
1080.934, 542.5483
1081.416, 542.5291
1081.898, 541.7868
1082.380, 533.7785
1082.862, 520.8252
1083.344, 520.1048
1083.827, 529.4889
1084.309, 535.0327
1084.791, 518.5092
1085.273, 507.4029
1085.755, 525.3646
1086.237, 553.5162
1086.719, 556.5773
1087.201, 531.4075
1087.683, 515.6466
1088.166, 514.9015
1088.648, 519.1742
1089.130, 519.9612
1089.612, 520.2245
1090.094, 523.7967
1090.576, 530.9910
1091.058, 534.9707
1091.540, 535.0089
1092.023, 532.4625
1092.505, 525.7509
1092.987, 519.7444
1093.469, 528.1567
1093.951, 543.5357
1094.433, 548.8456
1094.915, 532.1934
1095.397, 523.4907
1095.880, 536.0602
1096.362, 551.4167
1096.844, 558.6928
1097.326, 558.3824
1097.808, 552.7256
1098.290, 542.7458
1098.772, 536.6234
1099.254, 546.5089
1099.736, 553.1994
1100.219, 539.6008
1100.701, 519.0093
1101.183, 516.4222
1101.665, 535.9229
1102.147, 542.9694
1102.629, 533.4225
1103.111, 520.7675
1103.593, 514.1922
1104.075, 512.9011
1104.558, 519.4045
1105.040, 532.4672
1105.522, 536.2524
1106.004, 525.0869
1106.486, 517.2092
1106.968, 517.6514
1107.450, 522.4389
1107.932, 527.7442
1108.415, 531.8736
1108.897, 530.5700
1109.379, 520.8185
1109.861, 514.8049
1110.343, 516.4084
1110.825, 521.4556
1111.307, 529.9737
1111.789, 539.9955
1112.271, 543.5239
1112.754, 540.7266
1113.236, 532.4129
1113.718, 510.5848
1114.200, 494.8414
1114.682, 497.7802
1115.164, 509.2825
1115.646, 519.7097
1116.128, 529.3580
1116.610, 534.1489
1117.093, 533.9857
1117.575, 529.9335
1118.057, 517.5714
1118.539, 506.3378
1119.021, 505.5114
1119.503, 512.3552
1119.985, 516.4049
1120.467, 517.1016
1120.950, 515.3564
1121.432, 510.6156
1121.914, 506.2891
1122.396, 507.5002
1122.878, 510.8784
1123.360, 512.2350
1123.842, 511.0780
1124.324, 507.8948
1124.807, 499.0293
1125.289, 496.2860
1125.771, 505.0469
1126.253, 519.8586
1126.735, 532.3546
1127.217, 541.6197
1127.699, 544.8229
1128.181, 539.0939
1128.663, 533.6862
1129.146, 530.3339
1129.628, 529.3846
1130.110, 532.4448
1130.592, 538.2301
1131.074, 539.4240
1131.556, 536.2593
1132.038, 530.0219
1132.520, 519.1839
1133.002, 508.1434
1133.485, 492.6859
1133.967, 482.3513
1134.449, 492.0327
1134.931, 524.4173
1135.413, 533.2961
1135.895, 516.9511
1136.377, 501.7637
1136.859, 511.0403
1137.342, 524.6747
1137.824, 527.6672
1138.306, 522.2108
1138.788, 517.3635
1139.270, 513.3840
1139.752, 509.5794
1140.234, 506.1739
1140.716, 501.3290
1141.198, 488.6298
1141.681, 476.4086
1142.163, 476.2804
1142.645, 488.7665
1143.127, 496.6079
1143.609, 496.8987
1144.091, 498.1481
1144.573, 503.5375
1145.055, 509.3406
1145.537, 507.8650
1146.020, 503.1344
1146.502, 503.1667
1146.984, 511.5054
1147.466, 514.3068
1147.948, 505.2761
1148.430, 498.6531
1148.912, 502.6482
1149.394, 512.5724
1149.877, 514.5905
1150.359, 511.3033
1150.841, 510.5298
1151.323, 519.4457
1151.805, 522.3970
1152.287, 506.8181
1152.769, 493.7587
1153.251, 504.6362
1153.734, 534.5020
1154.216, 536.8567
1154.698, 515.7650
1155.180, 495.5215
1155.662, 486.6897
1156.144, 484.2861
1156.626, 491.3420
1157.108, 500.5970
1157.590, 503.7336
1158.073, 500.8764
1158.555, 496.1655
1159.037, 489.9441
1159.519, 488.1064
1160.001, 503.4277
1160.483, 516.0541
1160.965, 505.8758
1161.447, 485.0664
1161.929, 487.0066
1162.412, 513.9364
1162.894, 526.2228
1163.376, 516.3492
1163.858, 502.6981
1164.340, 498.9066
1164.822, 501.2067
1165.304, 510.4099
1165.786, 524.4623
1166.269, 523.7908
1166.751, 505.1923
1167.233, 492.3255
1167.715, 492.3799
1168.197, 497.9809
1168.679, 502.9253
1169.161, 507.0640
1169.643, 511.3848
1170.125, 516.9203
1170.608, 511.3539
1171.090, 489.7892
1171.572, 477.5757
1172.054, 490.0742
1172.536, 511.4811
1173.018, 522.2921
1173.500, 524.6435
1173.982, 520.9530
1174.464, 506.9089
1174.947, 499.1785
1175.429, 499.2736
1175.911, 502.1484
1176.393, 505.9845
1176.875, 509.5689
1177.357, 512.0164
1177.839, 512.1592
1178.321, 507.2160
1178.804, 489.5373
1179.286, 476.9579
1179.768, 470.5116
1180.250, 469.0555
1180.732, 474.7455
1181.214, 483.5415
1181.696, 485.2295
1182.178, 481.3373
1182.661, 479.5413
1183.143, 483.6675
1183.625, 489.4396
1184.107, 498.4241
1184.589, 504.9299
1185.071, 497.9264
1185.553, 483.9544
1186.035, 481.9758
1186.517, 492.2624
1187.000, 502.2006
1187.482, 508.9433
1187.964, 511.3272
1188.446, 508.2774
1188.928, 502.0652
1189.410, 493.9565
1189.892, 485.9743
1190.374, 487.4153
1190.856, 499.6485
1191.339, 505.4249
1191.821, 486.2328
1192.303, 472.7776
1192.785, 478.8156
1193.267, 494.3446
1193.749, 493.1509
1194.231, 480.4068
1194.713, 475.1337
1195.195, 482.3109
1195.678, 491.0871
1196.160, 500.7567
1196.642, 505.5880
1197.124, 501.9016
1197.606, 491.9971
1198.088, 480.7844
1198.570, 470.1503
1199.052, 468.9701
1199.535, 482.2851
1200.017, 498.1627
1200.499, 520.2386
1200.981, 533.3085
1201.463, 524.8022
1201.945, 499.6914
1202.427, 486.0806
1202.909, 482.6421
1203.391, 483.8779
1203.874, 492.2590
1204.356, 496.1227
1204.838, 483.2420
1205.320, 469.8551
1205.802, 469.9528
1206.284, 481.5764
1206.766, 477.7723
1207.248, 462.2639
1207.730, 459.2831
1208.213, 501.5371
1208.695, 532.2752
1209.177, 516.2719
1209.659, 487.3343
1210.141, 473.0027
1210.623, 472.7956
1211.105, 478.6984
1211.587, 489.7723
1212.070, 499.4814
1212.552, 506.6911
1213.034, 508.2466
1213.516, 497.5391
1213.998, 484.2583
1214.480, 478.7274
1214.962, 480.4495
1215.444, 484.8593
1215.927, 491.3819
1216.409, 496.9066
1216.891, 497.8922
1217.373, 499.3923
1217.855, 505.1109
1218.337, 511.5078
1218.819, 513.3663
1219.301, 511.0800
1219.783, 506.7657
1220.266, 500.8111
1220.748, 498.5297
1221.230, 511.1215
1221.712, 518.5450
1222.194, 509.5315
1222.676, 492.3668
1223.158, 478.5519
1223.640, 468.9913
1224.122, 472.0209
1224.605, 488.7768
1225.087, 504.6495
1225.569, 510.8682
1226.051, 514.4241
1226.533, 519.9235
1227.015, 524.0222
1227.497, 517.1106
1227.979, 501.8087
1228.462, 491.2014
1228.944, 487.6777
1229.426, 485.0404
1229.908, 477.6593
1230.390, 473.3193
1230.872, 475.4463
1231.354, 482.3250
1231.836, 492.2035
1232.318, 503.3313
1232.801, 507.6666
1233.283, 502.7242
1233.765, 498.2219
1234.247, 501.2487
1234.729, 502.5671
1235.211, 497.9598
1235.693, 489.5227
1236.175, 480.6296
1236.657, 472.7848
1237.140, 471.0322
1237.622, 477.6131
1238.104, 485.3270
1238.586, 492.3533
1239.068, 499.4930
1239.550, 508.4495
1240.032, 516.4601
1240.514, 511.3138
1240.997, 499.3835
1241.479, 499.8283
1241.961, 523.7369
1242.443, 535.9116
1242.925, 519.2617
1243.407, 505.2689
1243.889, 511.5014
1244.371, 527.4810
1244.854, 525.4968
1245.336, 512.7192
1245.818, 504.9455
1246.300, 508.8364
1246.782, 510.8197
1247.264, 508.4268
1247.746, 505.8978
1248.228, 505.6528
1248.710, 506.5270
1249.193, 506.5271
1249.675, 505.6749
1250.157, 503.7458
1250.639, 499.3339
1251.121, 497.7694
1251.603, 499.9113
1252.085, 503.1359
1252.567, 507.8304
1253.049, 510.6950
1253.532, 502.3068
1254.014, 489.2737
1254.496, 484.1060
1254.978, 492.6791
1255.460, 502.2327
1255.942, 513.8945
1256.424, 520.5108
1256.906, 515.2432
1257.389, 504.8735
1257.871, 495.4226
1258.353, 487.7881
1258.835, 483.7405
1259.317, 483.2882
1259.799, 487.6872
1260.281, 497.8485
1260.763, 504.2689
1261.245, 497.7369
1261.728, 488.0104
1262.210, 480.9987
1262.692, 478.4251
1263.174, 484.4933
1263.656, 502.7498
1264.138, 506.5039
1264.620, 495.5652
1265.102, 486.1120
1265.584, 493.2976
1266.067, 500.2684
1266.549, 489.8734
1267.031, 475.7589
1267.513, 477.1222
1267.995, 495.1989
1268.477, 503.0233
1268.959, 500.9388
1269.441, 497.5529
1269.924, 497.3927
1270.406, 497.8496
1270.888, 498.0130
1271.370, 497.8833
1271.852, 496.3539
1272.334, 494.0257
1272.816, 500.5624
1273.298, 513.7157
1273.781, 518.6682
1274.263, 495.0674
1274.745, 479.8129
1275.227, 486.8473
1275.709, 499.3530
1276.191, 501.1706
1276.673, 495.3711
1277.155, 490.5583
1277.637, 487.8631
1278.120, 490.8165
1278.602, 514.3319
1279.084, 520.9438
1279.566, 499.2856
1280.048, 476.5480
1280.530, 481.8672
1281.012, 501.7559
1281.494, 511.2492
##END=



