##NAMES=Titanite
##RRUFFID=R050124
##IDEAL CHEMISTRY=CaTi^4+^SiO_5_
##LOCALITY=Capelinha, Minas Gerais, Brazil
##OWNER=RRUFF
##SOURCE=Carlos and Paulo Vasconcelos
##DESCRIPTION=Yellow tabular crystal
##STATUS=The identification of this mineral has been confirmed by X-ray diffraction and chemical analysis
##URL=rruff.info/R050124
##MEASURED CHEMISTRY=Ca_1.00_(Ti_0.93_Al_0.05_Fe^3+^_0.02_)Si_1.00_O_4_(O)_1.00_
94.09991, 0.0000000E+00
94.58203, 14840.08
95.06415, 14789.64
95.54626, 15003.99
96.02838, 15304.84
96.51050, 15544.59
96.99261, 15763.53
97.47473, 15945.64
97.95685, 16091.28
98.43896, 16206.13
98.92108, 16305.85
99.40320, 16395.09
99.88531, 16479.05
100.3674, 16578.61
100.8495, 16711.72
101.3317, 16813.76
101.8138, 16903.72
102.2959, 16992.78
102.7780, 17091.82
103.2601, 17209.35
103.7422, 17346.66
104.2244, 17486.66
104.7065, 17634.93
105.1886, 17779.95
105.6707, 17915.09
106.1528, 18037.87
106.6349, 18150.68
107.1171, 18258.35
107.5992, 18359.66
108.0813, 18456.04
108.5634, 18541.67
109.0455, 18620.19
109.5276, 18697.10
110.0098, 18773.94
110.4919, 18851.86
110.9740, 18933.42
111.4561, 19020.86
111.9382, 19106.55
112.4203, 19189.50
112.9025, 19269.00
113.3846, 19337.71
113.8667, 19388.91
114.3488, 19427.09
114.8309, 19457.35
115.3130, 19477.22
115.7952, 19493.37
116.2773, 19515.04
116.7594, 19541.70
117.2415, 19575.20
117.7236, 19608.57
118.2057, 19649.27
118.6879, 19709.21
119.1700, 19799.89
119.6521, 19915.62
120.1342, 20011.55
120.6163, 20053.05
121.0984, 20108.04
121.5806, 20196.73
122.0627, 20312.24
122.5448, 20437.18
123.0269, 20556.01
123.5090, 20665.48
123.9911, 20787.49
124.4732, 20926.18
124.9554, 21070.06
125.4375, 21213.43
125.9196, 21355.14
126.4017, 21499.03
126.8838, 21652.27
127.3659, 21821.29
127.8481, 21974.89
128.3302, 22114.20
128.8123, 22237.22
129.2944, 22342.14
129.7765, 22428.12
130.2586, 22497.41
130.7408, 22550.81
131.2229, 22590.50
131.7050, 22618.45
132.1871, 22628.96
132.6692, 22626.67
133.1513, 22627.62
133.6335, 22632.20
134.1156, 22647.65
134.5977, 22676.60
135.0798, 22718.99
135.5619, 22777.79
136.0440, 22851.66
136.5262, 22938.28
137.0083, 23056.56
137.4904, 23225.08
137.9725, 23420.16
138.4546, 23628.43
138.9367, 23844.82
139.4189, 24075.38
139.9010, 24333.05
140.3831, 24628.69
140.8652, 24932.61
141.3473, 25239.44
141.8294, 25549.47
142.3116, 25865.54
142.7937, 26191.61
143.2758, 26517.78
143.7579, 26810.68
144.2400, 27087.75
144.7221, 27306.24
145.2043, 27447.49
145.6864, 27526.57
146.1685, 27560.80
146.6506, 27556.35
147.1327, 27517.45
147.6148, 27507.03
148.0970, 27513.30
148.5791, 27550.74
149.0612, 27618.60
149.5433, 27720.26
150.0254, 27870.12
150.5075, 28079.42
150.9896, 28356.09
151.4718, 28673.65
151.9539, 29015.90
152.4360, 29409.25
152.9181, 29884.65
153.4002, 30444.33
153.8823, 31066.56
154.3645, 31744.71
154.8466, 32473.35
155.3287, 33240.34
155.8108, 34041.68
156.2929, 34881.17
156.7750, 35779.01
157.2572, 36769.12
157.7393, 37766.01
158.2214, 38732.65
158.7035, 39665.98
159.1856, 40558.30
159.6677, 41424.81
160.1499, 42259.26
160.6320, 42981.98
161.1141, 43597.09
161.5962, 44069.60
162.0783, 44391.37
162.5604, 44564.18
163.0426, 44591.39
163.5247, 44467.78
164.0068, 44181.34
164.4889, 43802.44
164.9710, 43311.55
165.4531, 42755.20
165.9353, 42130.96
166.4174, 41452.91
166.8995, 40746.55
167.3816, 40043.84
167.8637, 39325.85
168.3458, 38665.07
168.8280, 38051.41
169.3101, 37492.76
169.7922, 36998.14
170.2743, 36568.91
170.7564, 36201.91
171.2385, 35891.07
171.7207, 35649.64
172.2028, 35449.56
172.6849, 35286.93
173.1670, 35165.79
173.6491, 35095.98
174.1312, 35082.32
174.6133, 35107.55
175.0955, 35149.07
175.5776, 35205.91
176.0597, 35272.15
176.5418, 35349.85
177.0239, 35435.89
177.5060, 35524.18
177.9882, 35612.67
178.4703, 35704.05
178.9524, 35802.88
179.4345, 35909.61
179.9166, 36018.80
180.3987, 36125.97
180.8809, 36232.27
181.3630, 36342.90
181.8451, 36461.82
182.3272, 36583.86
182.8093, 36712.63
183.2914, 36849.30
183.7736, 36966.61
184.2557, 37033.98
184.7378, 37046.52
185.2199, 37047.14
185.7020, 37034.85
186.1841, 37018.95
186.6663, 37007.05
187.1484, 37000.29
187.6305, 36989.41
188.1126, 36955.47
188.5947, 36880.20
189.0768, 36832.13
189.5590, 36805.82
190.0411, 36812.90
190.5232, 36865.91
191.0053, 36968.09
191.4874, 37107.80
191.9695, 37265.38
192.4517, 37444.63
192.9338, 37637.52
193.4159, 37852.13
193.8980, 38075.31
194.3801, 38294.48
194.8622, 38506.23
195.3443, 38716.45
195.8265, 38939.23
196.3086, 39198.52
196.7907, 39444.20
197.2728, 39659.52
197.7549, 39866.25
198.2370, 40088.96
198.7192, 40337.46
199.2013, 40606.10
199.6834, 40877.56
200.1655, 41148.83
200.6476, 41427.30
201.1297, 41710.02
201.6119, 42000.88
202.0940, 42304.31
202.5761, 42621.65
203.0582, 42950.49
203.5403, 43284.81
204.0224, 43625.63
204.5046, 43968.52
204.9867, 44316.85
205.4688, 44665.35
205.9509, 45006.46
206.4330, 45342.81
206.9151, 45657.84
207.3973, 45925.15
207.8794, 46139.35
208.3615, 46326.65
208.8436, 46503.98
209.3257, 46668.47
209.8078, 46804.00
210.2900, 46897.43
210.7721, 46960.61
211.2542, 47016.52
211.7363, 47068.26
212.2184, 47102.75
212.7005, 47098.09
213.1827, 47054.00
213.6648, 47023.01
214.1469, 47026.54
214.6290, 47047.27
215.1111, 47065.03
215.5932, 47075.43
216.0754, 47103.69
216.5575, 47184.61
217.0396, 47325.99
217.5217, 47464.71
218.0038, 47577.24
218.4859, 47687.51
218.9680, 47805.25
219.4502, 47933.07
219.9323, 48076.73
220.4144, 48249.76
220.8965, 48464.27
221.3786, 48668.87
221.8607, 48847.98
222.3429, 49021.95
222.8250, 49200.70
223.3071, 49388.02
223.7892, 49583.70
224.2713, 49790.61
224.7534, 50019.55
225.2356, 50234.66
225.7177, 50428.04
226.1998, 50614.99
226.6819, 50803.38
227.1640, 50995.03
227.6461, 51190.34
228.1283, 51389.74
228.6104, 51605.18
229.0925, 51801.40
229.5746, 51978.80
230.0567, 52140.15
230.5388, 52283.48
231.0210, 52409.91
231.5031, 52529.69
231.9852, 52662.80
232.4673, 52838.45
232.9494, 52961.33
233.4315, 53006.18
233.9137, 53019.38
234.3958, 53024.14
234.8779, 53029.76
235.3600, 53050.37
235.8421, 53106.30
236.3242, 53211.07
236.8064, 53327.30
237.2885, 53451.74
237.7706, 53589.68
238.2527, 53737.48
238.7348, 53896.48
239.2169, 54085.06
239.6991, 54324.20
240.1812, 54624.41
240.6633, 54967.44
241.1454, 55353.57
241.6275, 55782.71
242.1096, 56258.01
242.5918, 56776.80
243.0739, 57342.19
243.5560, 57954.46
244.0381, 58616.84
244.5202, 59315.88
245.0023, 60080.99
245.4845, 60870.42
245.9666, 61643.51
246.4487, 62395.16
246.9308, 63124.76
247.4129, 63832.34
247.8950, 64519.71
248.3772, 65167.43
248.8593, 65785.67
249.3414, 66357.09
249.8235, 66860.73
250.3056, 67295.69
250.7877, 67663.34
251.2699, 67962.05
251.7520, 68189.78
252.2341, 68327.83
252.7162, 68354.56
253.1983, 68296.63
253.6804, 68194.64
254.1626, 68056.17
254.6447, 67833.49
255.1268, 67479.16
255.6089, 67015.99
256.0910, 66461.67
256.5731, 65808.65
257.0552, 65073.39
257.5374, 64281.59
258.0195, 63439.17
258.5016, 62513.26
258.9837, 61431.26
259.4658, 60262.01
259.9479, 59076.72
260.4301, 57901.99
260.9122, 56707.21
261.3943, 55441.80
261.8764, 54085.05
262.3585, 52726.90
262.8406, 51394.95
263.3228, 50089.52
263.8049, 48814.88
264.2870, 47570.00
264.7691, 46360.08
265.2512, 45196.42
265.7333, 44072.13
266.2155, 43006.07
266.6976, 42025.98
267.1797, 41091.67
267.6618, 40170.41
268.1439, 39255.52
268.6260, 38379.22
269.1082, 37585.85
269.5903, 36881.57
270.0724, 36217.37
270.5545, 35585.30
271.0366, 34993.55
271.5187, 34460.37
272.0009, 33985.84
272.4830, 33538.83
272.9651, 33074.77
273.4472, 32582.90
273.9293, 32138.87
274.4114, 31773.62
274.8936, 31442.96
275.3757, 31126.83
275.8578, 30825.89
276.3399, 30547.92
276.8220, 30300.98
277.3041, 30086.93
277.7863, 29897.79
278.2684, 29739.83
278.7505, 29604.39
279.2326, 29495.93
279.7147, 29410.32
280.1968, 29335.88
280.6790, 29262.00
281.1611, 29187.93
281.6432, 29131.76
282.1253, 29102.25
282.6074, 29084.31
283.0895, 29070.75
283.5717, 29065.26
284.0538, 29077.58
284.5359, 29117.57
285.0180, 29182.27
285.5001, 29237.81
285.9822, 29280.74
286.4644, 29316.47
286.9465, 29347.93
287.4286, 29372.65
287.9107, 29390.04
288.3928, 29401.93
288.8749, 29401.61
289.3571, 29359.64
289.8392, 29265.05
290.3213, 29135.77
290.8034, 28973.11
291.2855, 28780.36
291.7676, 28552.76
292.2498, 28288.21
292.7319, 28004.74
293.2140, 27746.75
293.6961, 27503.31
294.1782, 27307.77
294.6603, 27145.78
295.1425, 27036.30
295.6246, 26992.79
296.1067, 27020.37
296.5888, 27119.70
297.0709, 27296.96
297.5530, 27579.77
298.0351, 27895.70
298.5172, 28229.82
298.9994, 28598.30
299.4815, 29026.74
299.9636, 29513.38
300.4457, 30025.21
300.9278, 30528.50
301.4099, 31030.82
301.8921, 31498.10
302.3742, 31954.62
302.8563, 32367.84
303.3384, 32713.65
303.8205, 32998.82
304.3026, 33248.68
304.7848, 33488.39
305.2669, 33723.86
305.7490, 33903.34
306.2311, 33991.62
306.7132, 34063.57
307.1953, 34136.98
307.6775, 34213.96
308.1596, 34289.76
308.6417, 34359.42
309.1238, 34425.55
309.6059, 34516.62
310.0880, 34662.44
310.5702, 34801.77
311.0523, 34904.09
311.5344, 34997.55
312.0165, 35129.07
312.4986, 35324.29
312.9807, 35558.63
313.4629, 35759.20
313.9450, 35908.89
314.4271, 36039.84
314.9092, 36154.36
315.3913, 36251.25
315.8734, 36336.91
316.3556, 36411.55
316.8377, 36455.92
317.3198, 36434.54
317.8019, 36324.41
318.2840, 36181.86
318.7661, 36000.70
319.2483, 35796.15
319.7304, 35570.54
320.2125, 35328.60
320.6946, 35083.72
321.1767, 34851.18
321.6588, 34629.77
322.1410, 34421.61
322.6231, 34206.27
323.1052, 34018.76
323.5873, 33874.82
324.0694, 33773.32
324.5515, 33707.30
325.0337, 33670.30
325.5158, 33662.49
325.9979, 33690.54
326.4800, 33768.83
326.9621, 33868.51
327.4442, 33982.22
327.9264, 34113.01
328.4085, 34270.18
328.8906, 34460.50
329.3727, 34674.15
329.8548, 34870.41
330.3369, 35051.51
330.8191, 35207.86
331.3012, 35340.75
331.7833, 35448.41
332.2654, 35532.54
332.7475, 35592.77
333.2296, 35622.63
333.7118, 35611.70
334.1939, 35567.40
334.6760, 35459.98
335.1581, 35282.77
335.6402, 35058.97
336.1223, 34807.43
336.6045, 34527.89
337.0866, 34204.41
337.5687, 33807.88
338.0508, 33324.90
338.5329, 32842.75
339.0150, 32377.18
339.4972, 31899.89
339.9793, 31395.48
340.4614, 30870.32
340.9435, 30334.17
341.4256, 29794.21
341.9077, 29252.17
342.3898, 28730.56
342.8719, 28236.63
343.3541, 27750.73
343.8362, 27258.96
344.3183, 26775.24
344.8004, 26317.43
345.2825, 25894.15
345.7646, 25502.31
346.2468, 25135.03
346.7289, 24796.82
347.2110, 24477.51
347.6931, 24176.91
348.1752, 23889.82
348.6573, 23609.83
349.1395, 23335.60
349.6216, 23075.80
350.1037, 22843.89
350.5858, 22649.84
351.0679, 22448.96
351.5500, 22230.61
352.0322, 22013.72
352.5143, 21803.73
352.9964, 21602.73
353.4785, 21410.19
353.9606, 21224.84
354.4427, 21047.37
354.9249, 20885.39
355.4070, 20761.13
355.8891, 20624.12
356.3712, 20445.16
356.8533, 20244.96
357.3354, 20055.21
357.8176, 19891.41
358.2997, 19748.34
358.7818, 19618.78
359.2639, 19511.98
359.7460, 19393.11
360.2281, 19243.91
360.7103, 19083.78
361.1924, 18928.64
361.6745, 18782.65
362.1566, 18636.61
362.6387, 18480.25
363.1208, 18312.21
363.6030, 18141.89
364.0851, 17967.20
364.5672, 17792.65
365.0493, 17625.77
365.5314, 17464.58
366.0135, 17295.66
366.4957, 17106.43
366.9778, 16901.68
367.4599, 16701.92
367.9420, 16512.97
368.4241, 16320.07
368.9063, 16114.73
369.3884, 15900.42
369.8705, 15679.75
370.3526, 15449.12
370.8347, 15218.67
371.3168, 15007.41
371.7990, 14819.40
372.2811, 14617.43
372.7632, 14376.49
373.2453, 14117.37
373.7274, 13867.08
374.2095, 13629.46
374.6917, 13392.00
375.1738, 13145.35
375.6559, 12890.96
376.1380, 12635.21
376.6201, 12380.86
377.1022, 12121.21
377.5844, 11843.58
378.0665, 11551.24
378.5486, 11260.02
379.0307, 10975.99
379.5128, 10697.47
379.9949, 10418.86
380.4771, 10137.14
380.9592, 9869.504
381.4413, 9628.545
381.9234, 9412.541
382.4055, 9212.970
382.8876, 9028.853
383.3698, 8859.410
383.8519, 8704.893
384.3340, 8565.075
384.8161, 8435.634
385.2982, 8314.666
385.7803, 8204.629
386.2624, 8116.927
386.7445, 8056.931
387.2267, 7996.007
387.7088, 7924.521
388.1909, 7848.212
388.6730, 7776.772
389.1551, 7711.964
389.6372, 7645.530
390.1194, 7567.794
390.6015, 7476.651
391.0836, 7386.929
391.5657, 7299.749
392.0478, 7213.341
392.5299, 7126.502
393.0121, 7039.429
393.4942, 6952.568
393.9763, 6865.106
394.4584, 6778.513
394.9405, 6699.990
395.4226, 6629.117
395.9048, 6566.590
396.3869, 6510.265
396.8690, 6463.163
397.3511, 6428.830
397.8332, 6408.431
398.3153, 6399.144
398.7975, 6396.415
399.2796, 6397.420
399.7617, 6414.353
400.2438, 6452.858
400.7259, 6499.723
401.2080, 6546.734
401.6902, 6594.970
402.1723, 6650.334
402.6544, 6717.877
403.1365, 6796.952
403.6186, 6879.343
404.1007, 6960.172
404.5829, 7051.106
405.0650, 7155.729
405.5471, 7270.418
406.0292, 7391.620
406.5113, 7518.155
406.9934, 7648.402
407.4756, 7780.933
407.9577, 7913.957
408.4398, 8054.418
408.9219, 8204.596
409.4040, 8361.661
409.8861, 8524.349
410.3683, 8693.049
410.8504, 8868.331
411.3325, 9049.794
411.8146, 9238.510
412.2967, 9436.467
412.7788, 9643.525
413.2610, 9862.308
413.7431, 10098.45
414.2252, 10345.09
414.7073, 10591.18
415.1894, 10830.34
415.6715, 11077.46
416.1537, 11357.03
416.6358, 11670.57
417.1179, 11984.41
417.6000, 12287.25
418.0821, 12590.68
418.5642, 12911.14
419.0464, 13248.69
419.5285, 13581.36
420.0106, 13898.27
420.4927, 14202.48
420.9748, 14502.22
421.4569, 14803.17
421.9391, 15082.90
422.4212, 15333.21
422.9033, 15548.65
423.3854, 15712.41
423.8675, 15810.18
424.3496, 15866.53
424.8318, 15891.98
425.3139, 15888.96
425.7960, 15864.57
426.2781, 15820.33
426.7602, 15758.87
427.2423, 15683.66
427.7245, 15595.96
428.2066, 15494.91
428.6887, 15369.26
429.1708, 15236.75
429.6529, 15108.97
430.1350, 14990.22
430.6172, 14890.33
431.0992, 14819.14
431.5814, 14777.37
432.0635, 14740.31
432.5456, 14700.81
433.0277, 14672.83
433.5098, 14664.75
433.9919, 14670.00
434.4741, 14675.31
434.9562, 14675.12
435.4383, 14679.78
435.9204, 14710.31
436.4025, 14778.14
436.8846, 14853.03
437.3668, 14937.24
437.8489, 15025.39
438.3310, 15110.43
438.8131, 15195.43
439.2952, 15290.30
439.7773, 15402.93
440.2595, 15532.86
440.7416, 15675.86
441.2237, 15831.81
441.7058, 16002.49
442.1879, 16190.11
442.6700, 16389.05
443.1522, 16592.19
443.6343, 16797.22
444.1164, 17012.63
444.5985, 17251.30
445.0806, 17512.04
445.5627, 17794.64
446.0449, 18095.84
446.5270, 18423.18
447.0091, 18782.21
447.4912, 19170.41
447.9733, 19581.61
448.4554, 20022.38
448.9376, 20482.17
449.4197, 20940.95
449.9018, 21398.97
450.3839, 21868.86
450.8660, 22352.82
451.3481, 22856.94
451.8303, 23386.44
452.3124, 23946.89
452.7945, 24523.61
453.2766, 25112.80
453.7587, 25711.61
454.2408, 26317.72
454.7230, 26929.40
455.2051, 27555.77
455.6872, 28203.64
456.1693, 28877.21
456.6514, 29579.50
457.1335, 30319.60
457.6157, 31083.92
458.0978, 31854.02
458.5799, 32641.29
459.0620, 33470.67
459.5441, 34353.77
460.0262, 35278.06
460.5084, 36193.68
460.9905, 37085.04
461.4726, 37992.42
461.9547, 38935.13
462.4368, 39879.34
462.9189, 40808.98
463.4011, 41714.41
463.8832, 42583.17
464.3653, 43412.23
464.8474, 44197.09
465.3295, 44866.06
465.8116, 45447.68
466.2938, 45857.07
466.7759, 46102.26
467.2580, 46164.32
467.7401, 46027.33
468.2222, 45685.68
468.7043, 45131.53
469.1865, 44347.64
469.6686, 43331.95
470.1507, 42136.54
470.6328, 40707.29
471.1149, 39150.01
471.5970, 37493.00
472.0792, 35762.73
472.5613, 34015.09
473.0434, 32236.21
473.5255, 30476.93
474.0076, 28798.21
474.4897, 27199.87
474.9719, 25690.99
475.4540, 24276.85
475.9361, 22960.90
476.4182, 21738.10
476.9003, 20604.59
477.3824, 19565.34
477.8645, 18632.27
478.3466, 17782.58
478.8288, 16999.75
479.3109, 16278.16
479.7930, 15622.91
480.2751, 15036.11
480.7572, 14520.26
481.2393, 14054.24
481.7215, 13651.68
482.2036, 13279.51
482.6857, 12920.67
483.1678, 12588.89
483.6499, 12303.48
484.1320, 12069.88
484.6142, 11870.30
485.0963, 11681.78
485.5784, 11501.47
486.0605, 11347.18
486.5426, 11225.27
487.0247, 11119.08
487.5069, 11025.59
487.9890, 10942.99
488.4711, 10868.58
488.9532, 10801.24
489.4353, 10743.43
489.9174, 10703.55
490.3996, 10687.33
490.8817, 10669.70
491.3638, 10642.12
491.8459, 10616.06
492.3280, 10597.14
492.8102, 10585.57
493.2923, 10579.49
493.7744, 10579.40
494.2565, 10583.46
494.7386, 10588.28
495.2207, 10594.17
495.7029, 10598.28
496.1850, 10595.16
496.6671, 10592.28
497.1492, 10602.18
497.6313, 10628.40
498.1134, 10653.90
498.5956, 10667.68
499.0777, 10676.72
499.5598, 10692.47
500.0419, 10716.61
500.5240, 10743.93
501.0061, 10770.65
501.4883, 10796.68
501.9704, 10821.57
502.4525, 10838.88
502.9346, 10862.42
503.4167, 10896.76
503.8988, 10939.53
504.3810, 10987.61
504.8631, 11040.12
505.3452, 11097.18
505.8273, 11158.43
506.3094, 11222.35
506.7915, 11297.99
507.2737, 11395.76
507.7558, 11494.43
508.2379, 11586.55
508.7200, 11675.18
509.2021, 11765.61
509.6842, 11860.60
510.1664, 11958.72
510.6485, 12055.70
511.1306, 12149.00
511.6127, 12256.71
512.0948, 12392.81
512.5769, 12532.78
513.0590, 12654.99
513.5411, 12765.33
514.0233, 12885.09
514.5054, 13027.43
514.9875, 13181.19
515.4696, 13327.83
515.9517, 13467.78
516.4338, 13616.07
516.9160, 13780.44
517.3981, 13952.43
517.8802, 14118.24
518.3623, 14274.23
518.8444, 14441.29
519.3265, 14629.72
519.8087, 14826.85
520.2908, 15020.73
520.7729, 15211.95
521.2550, 15410.10
521.7371, 15621.07
522.2192, 15844.16
522.7014, 16076.82
523.1835, 16333.63
523.6656, 16580.69
524.1477, 16796.65
524.6298, 17016.61
525.1119, 17273.04
525.5941, 17566.39
526.0762, 17868.97
526.5583, 18160.53
527.0404, 18442.21
527.5225, 18721.21
528.0046, 18979.68
528.4868, 19273.73
528.9689, 19648.24
529.4510, 20047.01
529.9331, 20414.22
530.4152, 20739.92
530.8973, 21063.96
531.3795, 21415.83
531.8616, 21788.47
532.3437, 22162.02
532.8258, 22535.08
533.3079, 22907.67
533.7900, 23283.29
534.2722, 23659.69
534.7543, 24028.58
535.2364, 24389.12
535.7185, 24745.10
536.2006, 25100.08
536.6827, 25451.25
537.1649, 25794.32
537.6470, 26129.42
538.1291, 26451.50
538.6112, 26758.95
539.0933, 27051.94
539.5754, 27317.56
540.0576, 27543.36
540.5397, 27757.36
541.0218, 27965.40
541.5039, 28165.93
541.9860, 28361.18
542.4681, 28549.68
542.9503, 28717.13
543.4324, 28844.52
543.9145, 28931.50
544.3966, 29002.63
544.8787, 29056.27
545.3608, 29095.45
545.8430, 29125.16
546.3251, 29141.94
546.8072, 29140.82
547.2893, 29120.63
547.7714, 29081.57
548.2535, 29033.32
548.7357, 28967.55
549.2178, 28847.80
549.6999, 28661.98
550.1820, 28451.65
550.6641, 28256.06
551.1462, 28067.44
551.6284, 27831.00
552.1105, 27523.13
552.5926, 27192.90
553.0747, 26863.03
553.5568, 26521.88
554.0389, 26146.00
554.5211, 25729.84
555.0032, 25301.88
555.4853, 24895.08
555.9674, 24512.44
556.4495, 24116.15
556.9316, 23686.32
557.4138, 23261.06
557.8959, 22841.82
558.3780, 22436.38
558.8601, 22058.54
559.3422, 21711.40
559.8243, 21374.74
560.3065, 21027.56
560.7886, 20669.60
561.2707, 20318.49
561.7528, 19978.57
562.2349, 19636.12
562.7170, 19274.74
563.1992, 18907.72
563.6813, 18562.13
564.1634, 18253.68
564.6455, 17941.25
565.1276, 17588.96
565.6097, 17218.64
566.0919, 16870.74
566.5740, 16552.90
567.0561, 16256.76
567.5382, 15969.89
568.0203, 15694.43
568.5024, 15471.11
568.9846, 15310.76
569.4667, 15180.19
569.9488, 15064.14
570.4309, 14977.31
570.9130, 14938.10
571.3951, 14948.33
571.8773, 14993.30
572.3594, 15054.89
572.8415, 15135.46
573.3236, 15276.43
573.8057, 15497.72
574.2878, 15744.76
574.7700, 15998.76
575.2521, 16269.43
575.7342, 16562.21
576.2163, 16878.23
576.6984, 17222.75
577.1805, 17606.15
577.6627, 18018.32
578.1448, 18438.58
578.6269, 18864.02
579.1090, 19312.45
579.5911, 19796.95
580.0732, 20309.06
580.5554, 20836.22
581.0375, 21374.43
581.5196, 21930.07
582.0017, 22488.38
582.4838, 23074.25
582.9659, 23713.77
583.4481, 24401.42
583.9302, 25094.12
584.4123, 25764.27
584.8944, 26422.98
585.3765, 27124.42
585.8586, 27877.96
586.3408, 28649.82
586.8229, 29436.57
587.3050, 30235.14
587.7871, 31051.08
588.2692, 31880.65
588.7513, 32715.02
589.2334, 33541.59
589.7155, 34377.68
590.1976, 35254.50
590.6797, 36174.78
591.1619, 37106.39
591.6440, 38034.25
592.1261, 38970.23
592.6082, 39928.60
593.0903, 40909.16
593.5724, 41901.74
594.0546, 42917.68
594.5367, 43933.04
595.0188, 44936.78
595.5009, 45933.79
595.9830, 46925.74
596.4651, 47918.44
596.9473, 48915.97
597.4294, 49930.40
597.9115, 50965.35
598.3936, 51983.85
598.8757, 52967.36
599.3578, 53944.64
599.8400, 54941.96
600.3221, 55929.08
600.8042, 56869.52
601.2863, 57748.30
601.7684, 58588.75
602.2505, 59411.18
602.7327, 60213.39
603.2148, 60979.82
603.6969, 61716.99
604.1790, 62402.99
604.6611, 63026.51
605.1432, 63586.43
605.6254, 64107.85
606.1075, 64615.11
606.5896, 65040.75
607.0717, 65353.71
607.5538, 65579.08
608.0359, 65735.13
608.5181, 65827.55
609.0002, 65863.42
609.4823, 65847.89
609.9644, 65778.76
610.4465, 65645.98
610.9286, 65438.63
611.4108, 65185.96
611.8929, 64898.52
612.3750, 64565.29
612.8571, 64177.52
613.3392, 63738.21
613.8214, 63249.21
614.3035, 62706.14
614.7856, 62122.79
615.2677, 61528.08
615.7498, 60918.79
616.2319, 60260.71
616.7141, 59531.82
617.1962, 58777.64
617.6783, 58058.36
618.1604, 57375.71
618.6425, 56660.15
619.1246, 55894.05
619.6068, 55110.36
620.0889, 54304.27
620.5710, 53493.69
621.0531, 52701.82
621.5352, 51936.42
622.0173, 51186.19
622.4995, 50446.02
622.9816, 49715.91
623.4637, 48972.77
623.9458, 48190.75
624.4279, 47433.18
624.9100, 46730.30
625.3922, 46051.47
625.8743, 45364.07
626.3564, 44659.71
626.8385, 43958.93
627.3206, 43261.22
627.8027, 42577.35
628.2849, 41928.99
628.7670, 41316.93
629.2491, 40686.54
629.7312, 40011.11
630.2133, 39317.95
630.6954, 38665.49
631.1776, 38068.87
631.6597, 37478.06
632.1418, 36894.07
632.6239, 36317.01
633.1060, 35746.83
633.5881, 35187.10
634.0703, 34642.16
634.5524, 34114.69
635.0345, 33596.84
635.5166, 33070.84
635.9987, 32535.98
636.4808, 32017.60
636.9630, 31511.79
637.4451, 31026.99
637.9272, 30571.84
638.4093, 30135.79
638.8914, 29708.70
639.3735, 29285.35
639.8557, 28871.75
640.3378, 28464.57
640.8199, 28069.29
641.3020, 27694.78
641.7841, 27339.56
642.2662, 26995.03
642.7484, 26657.93
643.2305, 26325.91
643.7126, 25991.56
644.1947, 25648.17
644.6768, 25316.27
645.1589, 24991.54
645.6411, 24681.99
646.1232, 24395.86
646.6053, 24128.00
647.0874, 23865.27
647.5695, 23601.86
648.0516, 23345.61
648.5338, 23112.03
649.0159, 22894.99
649.4980, 22657.98
649.9801, 22388.28
650.4622, 22121.02
650.9443, 21882.15
651.4265, 21666.53
651.9086, 21443.23
652.3907, 21199.19
652.8728, 20968.26
653.3549, 20765.12
653.8370, 20571.97
654.3192, 20372.40
654.8013, 20165.70
655.2834, 19961.36
655.7655, 19765.39
656.2476, 19575.72
656.7297, 19388.35
657.2119, 19205.21
657.6940, 19015.94
658.1761, 18807.23
658.6582, 18607.07
659.1403, 18442.89
659.6224, 18300.92
660.1046, 18144.09
660.5867, 17953.37
661.0688, 17764.69
661.5509, 17611.65
662.0330, 17474.48
662.5151, 17317.00
662.9973, 17134.00
663.4794, 16952.76
663.9615, 16795.43
664.4436, 16656.92
664.9257, 16506.83
665.4078, 16330.17
665.8900, 16168.29
666.3721, 16034.20
666.8542, 15905.57
667.3363, 15766.23
667.8184, 15619.83
668.3005, 15479.42
668.7827, 15352.14
669.2648, 15231.72
669.7469, 15115.36
670.2290, 15000.35
670.7111, 14874.90
671.1932, 14735.88
671.6754, 14588.78
672.1575, 14431.16
672.6396, 14267.70
673.1217, 14132.14
673.6038, 14046.35
674.0859, 13955.80
674.5681, 13849.72
675.0502, 13736.87
675.5323, 13624.19
676.0144, 13511.98
676.4965, 13398.16
676.9786, 13280.48
677.4608, 13163.21
677.9428, 13056.03
678.4249, 12960.11
678.9070, 12859.89
679.3892, 12751.22
679.8713, 12641.09
680.3534, 12533.13
680.8355, 12427.84
681.3176, 12325.50
681.7997, 12227.64
682.2819, 12130.41
682.7640, 12029.99
683.2461, 11929.71
683.7282, 11832.84
684.2103, 11739.86
684.6924, 11652.69
685.1746, 11573.50
685.6567, 11497.71
686.1388, 11414.02
686.6209, 11319.82
687.1030, 11227.23
687.5851, 11136.58
688.0673, 11048.26
688.5494, 10961.75
689.0315, 10877.98
689.5136, 10799.71
689.9957, 10730.24
690.4778, 10659.51
690.9600, 10579.63
691.4421, 10495.54
691.9242, 10414.01
692.4063, 10335.75
692.8884, 10258.71
693.3705, 10181.58
693.8527, 10104.56
694.3348, 10028.59
694.8169, 9951.994
695.2990, 9879.782
695.7811, 9817.702
696.2632, 9753.275
696.7454, 9676.748
697.2275, 9595.323
697.7096, 9523.810
698.1917, 9467.815
698.6738, 9411.861
699.1559, 9342.224
699.6381, 9263.705
700.1202, 9185.002
700.6023, 9107.237
701.0844, 9034.686
701.5665, 8970.596
702.0486, 8911.010
702.5308, 8846.971
703.0129, 8773.542
703.4950, 8707.467
703.9771, 8655.606
704.4592, 8602.432
704.9413, 8539.928
705.4235, 8472.717
705.9056, 8408.935
706.3877, 8350.567
706.8698, 8294.039
707.3519, 8235.838
707.8340, 8176.901
708.3162, 8119.016
708.7983, 8062.155
709.2804, 8005.064
709.7625, 7946.220
710.2446, 7888.933
710.7267, 7838.894
711.2089, 7798.878
711.6910, 7755.038
712.1731, 7705.389
712.6552, 7654.534
713.1373, 7604.561
713.6194, 7553.933
714.1016, 7499.454
714.5837, 7440.935
715.0658, 7382.028
715.5479, 7325.399
716.0300, 7270.971
716.5121, 7219.517
716.9943, 7170.831
717.4764, 7127.846
717.9585, 7093.551
718.4406, 7060.126
718.9227, 7017.628
719.4048, 6965.300
719.8870, 6918.751
720.3691, 6883.623
720.8512, 6847.094
721.3333, 6805.919
721.8154, 6761.581
722.2975, 6713.706
722.7797, 6663.902
723.2618, 6617.177
723.7439, 6578.216
724.2260, 6542.823
724.7081, 6501.331
725.1902, 6454.121
725.6724, 6411.756
726.1545, 6378.365
726.6366, 6343.399
727.1187, 6295.558
727.6008, 6238.146
728.0829, 6189.599
728.5651, 6157.371
729.0472, 6122.272
729.5293, 6078.914
730.0114, 6033.513
730.4935, 5992.096
730.9756, 5952.730
731.4578, 5907.706
731.9399, 5852.346
732.4220, 5797.058
732.9041, 5760.497
733.3862, 5739.883
733.8683, 5708.652
734.3505, 5662.478
734.8326, 5615.753
735.3147, 5576.926
735.7968, 5542.745
736.2789, 5505.257
736.7610, 5464.118
737.2432, 5421.360
737.7253, 5371.757
738.2074, 5325.931
738.6895, 5293.268
739.1716, 5267.063
739.6537, 5235.646
740.1359, 5195.930
740.6180, 5155.471
741.1001, 5124.887
741.5822, 5099.814
742.0643, 5061.625
742.5464, 5008.821
743.0286, 4964.261
743.5107, 4939.026
743.9928, 4918.837
744.4749, 4884.343
744.9570, 4833.745
745.4391, 4793.680
745.9213, 4773.361
746.4034, 4751.271
746.8855, 4718.120
747.3676, 4682.344
747.8497, 4654.201
748.3318, 4632.774
748.8140, 4608.653
749.2961, 4574.142
749.7782, 4536.534
750.2603, 4508.766
750.7424, 4489.670
751.2245, 4468.287
751.7067, 4442.292
752.1888, 4417.040
752.6709, 4398.099
753.1530, 4382.585
753.6351, 4358.462
754.1172, 4317.230
754.5994, 4281.293
755.0815, 4254.569
755.5636, 4230.079
756.0457, 4203.120
756.5278, 4175.486
757.0099, 4151.622
757.4921, 4133.062
757.9742, 4115.660
758.4563, 4095.027
758.9384, 4072.678
759.4205, 4051.971
759.9026, 4033.082
760.3848, 4014.975
760.8669, 3997.672
761.3490, 3979.636
761.8311, 3958.464
762.3132, 3933.439
762.7953, 3910.618
763.2775, 3892.448
763.7596, 3873.514
764.2417, 3850.792
764.7238, 3828.271
765.2059, 3810.713
765.6880, 3797.557
766.1702, 3783.006
766.6523, 3762.189
767.1344, 3741.052
767.6165, 3728.225
768.0986, 3719.942
768.5807, 3705.140
769.0628, 3682.075
769.5449, 3659.645
770.0270, 3645.143
770.5092, 3635.566
770.9913, 3619.478
771.4734, 3592.762
771.9555, 3569.508
772.4376, 3548.729
772.9197, 3533.811
773.4019, 3533.109
773.8840, 3536.786
774.3661, 3527.783
774.8482, 3501.241
775.3303, 3472.622
775.8124, 3448.965
776.2946, 3427.608
776.7767, 3406.497
777.2588, 3385.364
777.7409, 3363.996
778.2230, 3342.330
778.7051, 3320.492
779.1873, 3297.728
779.6694, 3274.661
780.1515, 3258.231
780.6336, 3251.337
781.1157, 3241.993
781.5978, 3227.003
782.0800, 3208.278
782.5621, 3184.338
783.0442, 3157.277
783.5263, 3137.465
784.0084, 3134.865
784.4905, 3129.018
784.9727, 3110.047
785.4548, 3086.329
785.9369, 3065.438
786.4190, 3047.836
786.9011, 3031.269
787.3832, 3014.698
787.8654, 2997.170
788.3475, 2975.435
788.8296, 2950.507
789.3117, 2933.110
789.7938, 2925.124
790.2759, 2916.036
790.7581, 2899.864
791.2402, 2880.865
791.7223, 2866.213
792.2044, 2856.638
792.6865, 2848.884
793.1686, 2848.656
793.6508, 2843.316
794.1329, 2824.112
794.6150, 2800.902
795.0971, 2783.806
795.5792, 2773.769
796.0613, 2766.030
796.5435, 2758.790
797.0256, 2751.248
797.5077, 2741.746
797.9898, 2731.132
798.4719, 2721.995
798.9540, 2714.737
799.4362, 2708.098
799.9183, 2701.318
800.4004, 2694.224
800.8825, 2686.583
801.3646, 2679.317
801.8467, 2668.595
802.3289, 2649.464
802.8110, 2633.142
803.2931, 2624.866
803.7752, 2621.432
804.2573, 2620.333
804.7394, 2621.629
805.2216, 2618.260
805.7037, 2601.458
806.1858, 2584.952
806.6679, 2580.507
807.1500, 2583.420
807.6321, 2586.193
808.1143, 2586.545
808.5964, 2583.596
809.0785, 2575.595
809.5606, 2565.492
810.0427, 2562.886
810.5248, 2568.337
811.0070, 2568.316
811.4891, 2559.001
811.9712, 2548.484
812.4533, 2541.439
812.9354, 2537.654
813.4175, 2537.142
813.8997, 2543.668
814.3818, 2544.547
814.8639, 2535.726
815.3460, 2524.729
815.8281, 2514.344
816.3102, 2504.469
816.7924, 2493.900
817.2745, 2482.660
817.7566, 2473.779
818.2387, 2471.848
818.7208, 2471.848
819.2029, 2466.451
819.6851, 2456.789
820.1672, 2446.729
820.6493, 2437.174
821.1314, 2426.758
821.6135, 2414.229
822.0956, 2400.095
822.5778, 2386.366
823.0599, 2373.431
823.5420, 2359.686
824.0241, 2342.579
824.5062, 2327.993
824.9883, 2321.372
825.4705, 2318.237
825.9526, 2311.523
826.4347, 2300.144
826.9168, 2288.433
827.3989, 2278.229
827.8810, 2267.496
828.3632, 2253.030
828.8453, 2237.981
829.3274, 2227.203
829.8095, 2221.527
830.2916, 2218.621
830.7737, 2217.643
831.2559, 2216.794
831.7380, 2211.417
832.2201, 2202.245
832.7022, 2195.546
833.1843, 2192.405
833.6664, 2191.371
834.1486, 2191.893
834.6307, 2193.267
835.1128, 2193.555
835.5949, 2192.132
836.0770, 2191.275
836.5591, 2188.779
837.0413, 2189.495
837.5234, 2198.487
838.0055, 2209.353
838.4876, 2213.750
838.9697, 2211.341
839.4518, 2211.213
839.9340, 2220.529
840.4161, 2229.718
840.8982, 2229.122
841.3803, 2225.497
841.8624, 2229.459
842.3445, 2241.612
842.8267, 2256.037
843.3088, 2269.213
843.7909, 2281.475
844.2730, 2293.662
844.7551, 2305.682
845.2372, 2315.303
845.7194, 2321.797
846.2015, 2330.160
846.6836, 2343.833
847.1657, 2358.686
847.6478, 2368.240
848.1299, 2371.626
848.6121, 2376.386
849.0942, 2381.281
849.5763, 2389.158
850.0584, 2402.737
850.5405, 2417.661
851.0226, 2430.151
851.5048, 2440.901
851.9869, 2453.881
852.4690, 2472.745
852.9511, 2487.967
853.4332, 2492.122
853.9153, 2489.754
854.3975, 2485.162
854.8796, 2479.331
855.3617, 2473.640
855.8438, 2468.559
856.3259, 2462.539
856.8080, 2453.616
857.2901, 2442.171
857.7722, 2430.994
858.2543, 2420.649
858.7365, 2403.189
859.2186, 2374.363
859.7007, 2344.093
860.1828, 2321.008
860.6649, 2303.708
861.1470, 2285.437
861.6292, 2265.071
862.1113, 2245.501
862.5934, 2227.412
863.0755, 2209.350
863.5576, 2190.249
864.0397, 2171.021
864.5219, 2153.190
865.0040, 2137.091
865.4861, 2120.769
865.9682, 2101.208
866.4503, 2083.180
866.9324, 2071.515
867.4146, 2063.707
867.8967, 2055.669
868.3788, 2046.655
868.8609, 2037.794
869.3430, 2029.989
869.8251, 2021.731
870.3073, 2008.856
870.7894, 1992.151
871.2715, 1980.996
871.7536, 1976.766
872.2357, 1970.931
872.7178, 1959.332
873.2000, 1944.762
873.6821, 1930.828
874.1642, 1917.387
874.6463, 1906.765
875.1284, 1903.756
875.6105, 1896.258
876.0927, 1877.122
876.5748, 1858.014
877.0569, 1847.993
877.5390, 1844.368
878.0211, 1839.268
878.5032, 1830.685
878.9854, 1821.608
879.4675, 1814.467
879.9496, 1806.282
880.4317, 1792.287
880.9138, 1776.002
881.3959, 1764.215
881.8781, 1758.491
882.3602, 1755.720
882.8423, 1755.649
883.3244, 1754.073
883.8065, 1738.399
884.2886, 1713.003
884.7708, 1701.252
885.2529, 1706.942
885.7350, 1712.942
886.2171, 1708.433
886.6992, 1696.869
887.1813, 1684.628
887.6635, 1670.778
888.1456, 1662.793
888.6277, 1664.104
889.1098, 1664.379
889.5919, 1659.503
890.0740, 1652.796
890.5562, 1646.042
891.0383, 1639.861
891.5204, 1639.254
892.0025, 1648.764
892.4846, 1658.065
892.9667, 1663.471
893.4489, 1669.480
893.9310, 1679.099
894.4131, 1691.859
894.8952, 1706.752
895.3773, 1723.516
895.8594, 1740.840
896.3416, 1758.532
896.8237, 1775.714
897.3058, 1789.726
897.7879, 1802.902
898.2700, 1820.218
898.7521, 1842.708
899.2343, 1868.911
899.7164, 1898.144
900.1985, 1929.348
900.6806, 1959.739
901.1627, 1989.572
901.6448, 2023.611
902.1270, 2063.277
902.6091, 2097.522
903.0912, 2119.736
903.5733, 2138.556
904.0554, 2165.292
904.5375, 2199.889
905.0197, 2234.277
905.5018, 2269.739
905.9839, 2302.672
906.4660, 2329.426
906.9481, 2356.785
907.4302, 2390.692
907.9124, 2427.589
908.3945, 2460.507
908.8766, 2488.682
909.3587, 2512.845
909.8408, 2536.861
910.3229, 2553.293
910.8051, 2556.104
911.2872, 2549.639
911.7693, 2538.679
912.2514, 2524.361
912.7335, 2507.182
913.2156, 2488.511
913.6978, 2463.922
914.1799, 2427.990
914.6620, 2382.865
915.1441, 2331.675
915.6262, 2275.696
916.1083, 2218.687
916.5905, 2162.164
917.0726, 2105.842
917.5547, 2049.587
918.0368, 1993.157
918.5189, 1933.789
919.0010, 1871.047
919.4832, 1815.732
919.9653, 1771.132
920.4474, 1728.850
920.9295, 1683.100
921.4116, 1636.399
921.8937, 1594.370
922.3759, 1557.592
922.8580, 1523.049
923.3401, 1489.791
923.8222, 1460.187
924.3043, 1435.940
924.7864, 1414.486
925.2686, 1394.336
925.7507, 1375.275
926.2328, 1356.819
926.7149, 1339.132
927.1970, 1321.590
927.6791, 1302.820
928.1613, 1285.390
928.6434, 1270.468
929.1255, 1258.372
929.6076, 1250.074
930.0897, 1245.316
930.5718, 1240.400
931.0540, 1232.773
931.5361, 1224.144
932.0182, 1216.647
932.5003, 1209.304
932.9824, 1199.279
933.4645, 1187.252
933.9467, 1177.496
934.4288, 1172.103
934.9109, 1168.685
935.3930, 1164.635
935.8751, 1159.871
936.3572, 1153.489
936.8394, 1145.546
937.3215, 1139.296
937.8036, 1135.695
938.2857, 1131.816
938.7678, 1124.710
939.2499, 1116.755
939.7321, 1115.563
940.2142, 1123.519
940.6963, 1128.840
941.1784, 1131.691
941.6605, 1131.291
942.1426, 1124.952
942.6248, 1117.681
943.1069, 1115.650
943.5890, 1118.354
944.0711, 1118.609
944.5532, 1113.914
945.0353, 1110.481
945.5175, 1107.909
945.9996, 1107.766
946.4817, 1112.891
946.9637, 1120.016
947.4459, 1123.844
947.9280, 1123.724
948.4101, 1125.041
948.8922, 1131.213
949.3743, 1137.837
949.8564, 1142.702
950.3386, 1146.497
950.8207, 1148.962
951.3028, 1151.183
951.7849, 1156.006
952.2670, 1164.537
952.7491, 1173.406
953.2313, 1180.434
953.7134, 1185.333
954.1955, 1186.566
954.6776, 1185.416
955.1597, 1184.825
955.6418, 1185.561
956.1240, 1188.318
956.6061, 1193.844
957.0882, 1199.640
957.5703, 1200.587
958.0524, 1197.577
958.5345, 1196.858
959.0167, 1198.625
959.4988, 1201.567
959.9809, 1205.615
960.4630, 1208.154
960.9451, 1206.223
961.4272, 1201.332
961.9094, 1199.769
962.3915, 1202.137
962.8736, 1205.644
963.3557, 1211.420
963.8378, 1215.244
964.3199, 1213.960
964.8021, 1211.341
965.2842, 1212.255
965.7663, 1216.661
966.2484, 1220.814
966.7305, 1227.199
967.2126, 1229.592
967.6948, 1223.274
968.1769, 1217.540
968.6590, 1218.970
969.1411, 1223.134
969.6232, 1221.856
970.1053, 1214.040
970.5875, 1210.838
971.0696, 1218.827
971.5517, 1226.944
972.0338, 1231.451
972.5159, 1233.638
972.9980, 1233.025
973.4802, 1231.518
973.9623, 1233.675
974.4444, 1241.052
974.9265, 1246.814
975.4086, 1244.795
975.8907, 1241.286
976.3729, 1242.256
976.8550, 1245.401
977.3371, 1246.869
977.8192, 1246.561
978.3013, 1246.463
978.7834, 1247.500
979.2656, 1250.032
979.7477, 1255.493
980.2298, 1262.192
980.7119, 1266.773
981.1940, 1269.572
981.6761, 1272.279
982.1583, 1275.205
982.6404, 1276.983
983.1225, 1278.578
983.6046, 1275.661
984.0867, 1280.755
984.5688, 1280.858
985.0510, 1281.923
985.5331, 1287.014
986.0152, 1285.288
986.4973, 1291.263
986.9794, 1297.847
987.4615, 1297.986
987.9437, 1304.236
988.4258, 1308.958
988.9079, 1310.438
989.3900, 1317.357
989.8721, 1316.740
990.3542, 1315.218
990.8364, 1314.497
991.3185, 1315.637
991.8006, 1320.414
992.2827, 1328.257
992.7648, 1334.241
993.2469, 1338.437
993.7291, 1340.457
994.2112, 1338.399
994.6933, 1336.832
995.1754, 1337.914
995.6575, 1340.430
996.1396, 1343.199
996.6218, 1346.191
997.1039, 1348.254
997.5860, 1345.814
998.0681, 1347.698
998.5502, 1359.481
999.0323, 1371.031
999.5145, 1375.888
999.9966, 1377.588
1000.479, 1380.914
1000.961, 1386.455
1001.443, 1393.755
1001.925, 1404.276
1002.407, 1414.437
1002.889, 1423.013
1003.371, 1430.642
1003.854, 1436.397
1004.336, 1442.168
1004.818, 1451.982
1005.300, 1466.459
1005.782, 1479.995
1006.264, 1489.828
1006.746, 1497.620
1007.228, 1504.514
1007.710, 1509.891
1008.193, 1512.431
1008.675, 1512.934
1009.157, 1513.142
1009.639, 1513.690
1010.121, 1514.977
1010.603, 1518.847
1011.085, 1522.166
1011.567, 1520.521
1012.049, 1516.263
1012.532, 1513.535
1013.014, 1512.293
1013.496, 1510.631
1013.978, 1507.687
1014.460, 1502.815
1014.942, 1495.150
1015.424, 1485.296
1015.906, 1473.377
1016.389, 1460.377
1016.871, 1449.876
1017.353, 1441.686
1017.835, 1430.939
1018.317, 1415.208
1018.799, 1398.482
1019.281, 1386.279
1019.763, 1376.734
1020.245, 1363.567
1020.728, 1347.241
1021.210, 1331.668
1021.692, 1317.324
1022.174, 1298.645
1022.656, 1272.163
1023.138, 1244.527
1023.620, 1226.984
1024.102, 1217.441
1024.584, 1200.789
1025.067, 1176.894
1025.549, 1156.015
1026.031, 1140.474
1026.513, 1123.090
1026.995, 1099.122
1027.477, 1072.433
1027.959, 1049.588
1028.441, 1030.466
1028.924, 1012.005
1029.406, 994.0836
1029.888, 977.8182
1030.370, 963.6606
1030.852, 950.2772
1031.334, 936.7977
1031.816, 923.3384
1032.298, 909.5359
1032.781, 895.2495
1033.263, 885.5011
1033.745, 882.3976
1034.227, 877.5140
1034.709, 868.9204
1035.191, 859.2653
1035.673, 849.5804
1036.155, 840.4971
1036.637, 833.6283
1037.120, 829.4506
1037.602, 822.3021
1038.084, 808.0950
1038.566, 799.3741
1039.048, 801.7177
1039.530, 804.7475
1040.012, 801.7398
1040.494, 795.8129
1040.976, 792.6521
1041.459, 792.6833
1041.941, 791.8945
1042.423, 789.4453
1042.905, 787.4459
1043.387, 784.9949
1043.869, 784.2619
1044.351, 789.1637
1044.833, 795.2999
1045.316, 794.3839
1045.798, 785.4569
1046.280, 780.2465
1046.762, 781.4357
1047.244, 783.2611
1047.726, 786.5770
1048.208, 788.4640
1048.690, 785.6998
1049.172, 781.2220
1049.655, 779.9456
1050.137, 782.2203
1050.619, 783.0055
1051.101, 779.4257
1051.583, 777.4572
1052.065, 779.6832
1052.547, 782.4039
1053.029, 782.9702
1053.511, 782.8827
1053.994, 785.1338
1054.476, 789.7396
1054.958, 791.9435
1055.440, 788.4022
1055.922, 785.6786
1056.404, 784.7354
1056.886, 785.7827
1057.368, 790.5944
1057.851, 796.5339
1058.333, 799.2161
1058.815, 798.8242
1059.297, 801.1193
1059.779, 809.9587
1060.261, 817.7692
1060.743, 822.1804
1061.225, 824.7894
1061.708, 826.2061
1062.190, 826.6564
1062.672, 824.6808
1063.154, 821.4180
1063.636, 823.6385
1064.118, 838.1276
1064.600, 847.7971
1065.082, 840.7100
1065.564, 832.9296
1066.047, 835.5165
1066.529, 842.8449
1067.011, 847.6835
1067.493, 849.7572
1067.975, 852.6828
1068.457, 858.3062
1068.939, 862.5289
1069.421, 862.3271
1069.903, 861.7078
1070.386, 861.8322
1070.868, 863.9260
1071.350, 870.9396
1071.832, 881.0488
1072.314, 887.6447
1072.796, 887.7734
1073.278, 889.2717
1073.760, 898.3741
1074.243, 906.6520
1074.725, 907.9801
1075.207, 906.5349
1075.689, 905.4905
1076.171, 906.0409
1076.653, 910.3968
1077.135, 919.6107
1077.617, 927.3322
1078.099, 930.3240
1078.582, 931.4627
1079.064, 930.5449
1079.546, 930.0875
1080.028, 932.8984
1080.510, 938.0231
1080.992, 943.2261
1081.474, 947.9736
1081.956, 952.0847
1082.438, 955.1569
1082.921, 957.9661
1083.403, 958.7062
1083.885, 961.3539
1084.367, 972.1818
1084.849, 986.2645
1085.331, 993.7599
1085.813, 993.5753
1086.295, 995.5736
1086.777, 1006.259
1087.260, 1016.001
1087.742, 1018.280
1088.224, 1020.083
1088.706, 1027.565
1089.188, 1037.634
1089.670, 1045.651
1090.152, 1051.006
1090.634, 1055.196
1091.117, 1058.044
1091.599, 1061.308
1092.081, 1067.159
1092.563, 1072.074
1093.045, 1071.535
1093.527, 1070.398
1094.009, 1075.813
1094.491, 1086.358
1094.974, 1094.001
1095.456, 1095.820
1095.938, 1098.024
1096.420, 1103.432
1096.902, 1109.116
1097.384, 1114.365
1097.866, 1118.515
1098.348, 1120.149
1098.830, 1120.346
1099.313, 1122.109
1099.795, 1126.344
1100.277, 1129.222
1100.759, 1126.839
1101.241, 1126.584
1101.723, 1133.615
1102.205, 1141.590
1102.687, 1145.500
1103.169, 1146.892
1103.652, 1149.100
1104.134, 1152.532
1104.616, 1155.258
1105.098, 1155.851
1105.580, 1157.155
1106.062, 1161.719
1106.544, 1165.107
1107.026, 1164.082
1107.509, 1160.839
1107.991, 1157.567
1108.473, 1154.715
1108.955, 1153.895
1109.437, 1155.805
1109.919, 1158.856
1110.401, 1164.729
1110.883, 1169.387
1111.365, 1170.621
1111.848, 1170.467
1112.330, 1170.772
1112.812, 1171.370
1113.294, 1171.356
1113.776, 1170.327
1114.258, 1169.762
1114.740, 1170.860
1115.222, 1170.825
1115.704, 1168.114
1116.187, 1164.999
1116.669, 1162.681
1117.151, 1161.112
1117.633, 1160.455
1118.115, 1160.910
1118.597, 1160.327
1119.079, 1157.266
1119.561, 1156.012
1120.044, 1159.122
1120.526, 1160.804
1121.008, 1157.236
1121.490, 1151.825
1121.972, 1148.927
1122.454, 1148.336
1122.936, 1147.906
1123.418, 1148.888
1123.901, 1145.965
1124.383, 1136.303
1124.865, 1129.278
1125.347, 1128.561
1125.829, 1130.962
1126.311, 1134.865
1126.793, 1138.380
1127.275, 1135.043
1127.757, 1123.499
1128.240, 1115.431
1128.722, 1111.561
1129.204, 1107.534
1129.686, 1102.358
1130.168, 1096.850
1130.650, 1091.386
1131.132, 1086.544
1131.614, 1083.997
1132.096, 1083.073
1132.579, 1076.173
1133.061, 1062.972
1133.543, 1056.230
1134.025, 1057.955
1134.507, 1056.912
1134.989, 1047.975
1135.471, 1038.078
1135.953, 1034.815
1136.436, 1035.216
1136.918, 1030.654
1137.400, 1021.991
1137.882, 1015.243
1138.364, 1010.375
1138.846, 1003.195
1139.328, 992.9037
1139.810, 985.1390
1140.292, 984.0377
1140.775, 985.0327
1141.257, 981.2389
1141.739, 974.2835
1142.221, 968.0203
1142.703, 962.2623
1143.185, 955.7665
1143.667, 948.7707
1144.149, 943.5539
1144.631, 940.9373
1145.114, 937.6307
1145.596, 929.2432
1146.078, 920.4974
1146.560, 919.2083
1147.042, 920.9442
1147.524, 919.5905
1148.006, 914.6945
1148.488, 905.1940
1148.971, 892.2585
1149.453, 882.8781
1149.935, 881.8187
1150.417, 881.7908
1150.899, 876.7651
1151.381, 870.3644
1151.863, 866.6281
1152.345, 863.2057
1152.828, 855.1647
1153.310, 844.4438
1153.792, 838.4357
1154.274, 839.5107
1154.756, 839.6071
1155.238, 833.1226
1155.720, 827.2885
1156.202, 827.1478
1156.684, 827.4635
1157.167, 824.1185
1157.649, 818.4114
1158.131, 812.6475
1158.613, 807.0582
1159.095, 800.7856
1159.577, 790.8541
1160.059, 785.6042
1160.541, 791.0428
1161.023, 795.4710
1161.506, 793.9991
1161.988, 789.8835
1162.470, 785.0040
1162.952, 780.0182
1163.434, 776.8884
1163.916, 772.1694
1164.398, 767.6493
1164.880, 765.1740
1165.363, 759.2068
1165.845, 757.8414
1166.327, 755.8004
1166.809, 749.4955
1167.291, 742.5433
1167.773, 739.7058
1168.255, 740.4008
1168.737, 741.4052
1169.219, 742.9216
1169.702, 743.3611
1170.184, 742.5777
1170.666, 741.5560
1171.148, 740.8047
1171.630, 737.8379
1172.112, 730.3610
1172.594, 721.6471
1173.076, 717.9203
1173.558, 718.3255
1174.041, 718.2289
1174.523, 717.7629
1175.005, 718.2554
1175.487, 719.6405
1175.969, 719.8347
1176.451, 718.0154
1176.933, 715.3787
1177.415, 713.0963
1177.897, 710.3959
1178.380, 704.6618
1178.862, 698.3978
1179.344, 697.6833
1179.826, 700.2001
1180.308, 698.9053
1180.790, 693.7213
1181.272, 691.1862
1181.754, 694.5506
1182.237, 697.1636
1182.719, 692.0266
1183.201, 686.1154
1183.683, 686.3114
1184.165, 688.1365
1184.647, 686.0358
1185.129, 681.8105
1185.611, 679.9251
1186.094, 680.9044
1186.576, 681.6868
1187.058, 681.5247
1187.540, 680.4673
1188.022, 677.4214
1188.504, 674.8430
1188.986, 674.2631
1189.468, 674.4025
1189.950, 674.7415
1190.432, 674.6713
1190.915, 672.3664
1191.397, 667.0455
1191.879, 663.8942
1192.361, 663.2870
1192.843, 664.4791
1193.325, 670.7764
1193.807, 672.1288
1194.289, 661.4537
1194.772, 648.3769
1195.254, 643.1126
1195.736, 644.1622
1196.218, 646.7191
1196.700, 651.2267
1197.182, 652.3724
1197.664, 649.8398
1198.146, 647.1776
1198.629, 645.0806
1199.111, 643.8333
1199.593, 643.6561
1200.075, 643.6990
1200.557, 642.9374
1201.039, 641.5402
1201.521, 639.8522
1202.003, 637.9138
1202.485, 635.4620
1202.968, 632.9005
1203.450, 632.0928
1203.932, 633.0993
1204.414, 633.2055
1204.896, 630.7551
1205.378, 627.9381
1205.860, 627.0293
1206.342, 626.5876
1206.824, 625.0311
1207.307, 623.0255
1207.789, 621.6524
1208.271, 620.5392
1208.753, 618.4180
1209.235, 615.2355
1209.717, 612.9908
1210.199, 613.4257
1210.681, 612.8067
1211.164, 608.3070
1211.646, 604.3493
1212.128, 603.6748
1212.610, 604.0797
1213.092, 603.1512
1213.574, 601.7491
1214.056, 602.6669
1214.538, 606.3222
1215.021, 607.9658
1215.503, 606.8741
1215.985, 605.4844
1216.467, 604.3466
1216.949, 601.8707
1217.431, 596.7711
1217.913, 591.9185
1218.395, 590.1383
1218.877, 587.5964
1219.359, 589.0183
1219.842, 586.6339
1220.324, 586.5378
1220.806, 588.4858
1221.288, 588.1624
1221.770, 585.1310
1222.252, 582.3378
1222.734, 581.0247
1223.216, 580.2487
1223.699, 579.1506
1224.181, 578.1379
1224.663, 578.2731
1225.145, 578.5577
1225.627, 576.6183
1226.109, 576.9375
1226.591, 573.6105
1227.073, 575.4321
1227.556, 575.9266
1228.038, 573.9534
1228.520, 572.6678
1229.002, 574.6674
1229.484, 576.5571
1229.966, 576.4113
1230.448, 575.8480
1230.930, 576.1898
1231.412, 576.6144
1231.895, 576.0135
1232.377, 574.5250
1232.859, 572.7407
1233.341, 570.0353
1233.823, 569.8236
1234.305, 574.2451
1234.787, 576.7093
1235.269, 575.6561
1235.751, 573.9587
1236.234, 572.8859
1236.716, 571.8706
1237.198, 570.1531
1237.680, 568.2102
1238.162, 567.4584
1238.644, 567.8764
1239.126, 569.8039
1239.608, 572.8787
1240.091, 572.7809
1240.573, 569.0992
1241.055, 565.2737
1241.537, 562.9130
1242.019, 561.5551
1242.501, 560.9955
1242.983, 560.7260
1243.465, 559.7418
1243.948, 558.9164
1244.430, 560.3351
1244.912, 562.3167
1245.394, 560.8956
1245.876, 557.2686
1246.358, 557.0968
1246.840, 562.1665
1247.322, 566.2621
1247.804, 565.8481
1248.286, 565.7646
1248.769, 569.6487
1249.251, 571.8610
1249.733, 566.3687
1250.215, 560.1776
1250.697, 562.4454
1251.179, 569.3704
1251.661, 569.4797
1252.143, 561.6268
1252.626, 557.6354
1253.108, 557.9579
1253.590, 560.9176
1254.072, 567.0962
1254.554, 570.2744
1255.036, 567.7206
1255.518, 563.9762
1256.000, 562.9606
1256.483, 563.7797
1256.965, 564.6707
1257.447, 566.0873
1257.929, 570.2906
1258.411, 575.8043
1258.893, 579.0978
1259.375, 579.6901
1259.857, 576.9177
1260.339, 571.2601
1260.822, 567.1085
1261.304, 567.0382
1261.786, 568.7809
1262.268, 572.3953
1262.750, 575.5487
1263.232, 576.6952
1263.714, 576.6470
1264.196, 575.5833
1264.678, 574.2316
1265.161, 573.5480
1265.643, 573.6473
1266.125, 575.6929
1266.607, 575.9861
1267.089, 576.1166
1267.571, 579.5950
1268.053, 577.3040
1268.535, 580.9683
1269.017, 584.8995
1269.500, 585.4266
1269.982, 584.7278
1270.464, 585.8725
1270.946, 588.2455
1271.428, 590.1219
1271.910, 591.4914
1272.392, 592.2148
1272.874, 592.4345
1273.357, 592.3717
1273.839, 592.3249
1274.321, 593.3157
1274.803, 595.7856
1275.285, 598.8025
1275.767, 602.1454
1276.249, 605.1266
1276.731, 607.2882
1277.214, 608.8956
1277.696, 609.5927
1278.178, 610.3124
1278.660, 612.6744
1279.142, 616.0101
1279.624, 617.5295
1280.106, 616.3312
1280.588, 617.8802
1281.070, 623.8312
1281.552, 628.7416
1282.035, 631.9492
1282.517, 634.6539
1282.999, 637.6025
1283.481, 638.9108
1283.963, 636.6456
1284.445, 633.5065
1284.927, 633.8640
1285.409, 637.5212
1285.892, 646.1042
1286.374, 656.6389
1286.856, 660.9842
##END=



