##NAMES=Titantaramellite
##RRUFFID=R080041
##IDEAL CHEMISTRY=Ba_4_(Ti^4+^,Fe^3+^,Mg)_4_(O,OH)_2_[B_2_Si_8_O_27_]Cl_x_
##LOCALITY=La Madrelena mine, Tres Pozos, Municipio de Tecate, Baja California Norte, Mexico
##OWNER=RRUFF
##SOURCE=Michael Scott
##DESCRIPTION=Black grains associated with pink gillespite and quartz
##STATUS=The identification of this mineral has been confirmed only by single crystal X-ray diffraction.
##URL=rruff.info/R080041
93.40265, 0.0000000E+00
93.88477, 1.062541
94.36688, 1.047561
94.84900, 1.050295
95.33112, 1.069647
95.81323, 1.100431
96.29535, 1.139269
96.77747, 1.187246
97.25958, 1.250291
97.74170, 1.331393
98.22382, 1.423680
98.70593, 1.508953
99.18805, 1.586083
99.67017, 1.676340
100.1523, 1.800611
100.6344, 1.959935
101.1165, 2.105446
101.5986, 2.215149
102.0807, 2.308624
102.5629, 2.476614
103.0450, 2.744988
103.5271, 3.035188
104.0092, 3.270046
104.4913, 3.426151
104.9734, 3.602060
105.4556, 3.845929
105.9377, 4.164520
106.4198, 4.354563
106.9019, 4.344087
107.3840, 4.255605
107.8661, 4.236924
108.3483, 4.312833
108.8304, 4.428329
109.3125, 4.578258
109.7946, 4.786136
110.2767, 4.968771
110.7588, 5.072257
111.2410, 5.157670
111.7231, 5.332499
112.2052, 5.705732
112.6873, 6.083528
113.1694, 6.399937
113.6515, 6.627294
114.1337, 6.835882
114.6158, 7.026756
115.0979, 7.203362
115.5800, 7.380055
116.0621, 7.581084
116.5442, 7.769707
117.0264, 7.921339
117.5085, 8.030649
117.9906, 8.106703
118.4727, 8.129787
118.9548, 8.109717
119.4369, 8.111886
119.9191, 8.164303
120.4012, 8.253800
120.8833, 8.366004
121.3654, 8.525000
121.8475, 8.684730
122.3296, 8.812762
122.8118, 8.908300
123.2939, 8.999191
123.7760, 9.150934
124.2581, 9.306263
124.7402, 9.372849
125.2223, 9.182496
125.7045, 8.935650
126.1866, 8.872219
126.6687, 9.025299
127.1508, 9.249423
127.6329, 9.404486
128.1150, 9.509923
128.5972, 9.635604
129.0793, 9.863691
129.5614, 10.13361
130.0435, 10.30743
130.5256, 10.35030
131.0077, 10.34272
131.4899, 10.40016
131.9720, 10.51904
132.4541, 10.64691
132.9362, 10.72247
133.4183, 10.73407
133.9004, 10.71531
134.3826, 10.65304
134.8647, 10.57056
135.3468, 10.52067
135.8289, 10.50266
136.3110, 10.51277
136.7931, 10.55680
137.2753, 10.63545
137.7574, 10.71397
138.2395, 10.80117
138.7216, 10.88429
139.2037, 10.87408
139.6858, 10.73761
140.1680, 10.59035
140.6501, 10.55947
141.1322, 10.67908
141.6143, 10.77719
142.0964, 10.80773
142.5785, 10.76810
143.0607, 10.75231
143.5428, 10.77409
144.0249, 10.80377
144.5070, 10.79464
144.9891, 10.70532
145.4712, 10.65912
145.9534, 10.70199
146.4355, 10.86325
146.9176, 10.99493
147.3997, 11.11108
147.8818, 11.19369
148.3639, 11.20602
148.8461, 11.06087
149.3282, 10.94718
149.8103, 10.93693
150.2924, 11.11230
150.7745, 11.22645
151.2566, 11.24878
151.7388, 11.20839
152.2209, 11.18109
152.7030, 11.13523
153.1851, 11.12633
153.6672, 11.17827
154.1493, 11.36160
154.6315, 11.51031
155.1136, 11.53192
155.5957, 11.30943
156.0778, 11.48292
156.5599, 11.56196
157.0420, 11.55163
157.5242, 11.18426
158.0063, 11.27794
158.4884, 11.18685
158.9705, 11.08818
159.4526, 11.18187
159.9347, 11.22513
160.4169, 11.28156
160.8990, 11.34898
161.3811, 11.42579
161.8632, 11.55523
162.3453, 11.65289
162.8274, 11.69841
163.3096, 11.69104
163.7917, 11.62389
164.2738, 11.40238
164.7559, 11.15474
165.2380, 11.00739
165.7201, 11.08589
166.2023, 11.20753
166.6844, 11.28160
167.1665, 11.30530
167.6486, 11.32281
168.1307, 11.33849
168.6128, 11.36657
169.0949, 11.42566
169.5771, 11.58290
170.0592, 11.73522
170.5413, 11.80287
171.0234, 11.77941
171.5055, 11.71675
171.9876, 11.63020
172.4698, 11.53051
172.9519, 11.43682
173.4340, 11.32587
173.9161, 11.24103
174.3982, 11.24873
174.8803, 11.36830
175.3625, 11.48434
175.8446, 11.48116
176.3267, 11.39344
176.8088, 11.30502
177.2909, 11.26997
177.7730, 11.25705
178.2552, 11.21402
178.7373, 11.12582
179.2194, 11.04399
179.7015, 11.03078
180.1836, 11.07331
180.6657, 11.12218
181.1479, 11.16362
181.6300, 11.19017
182.1121, 11.17422
182.5942, 11.09615
183.0763, 11.01918
183.5584, 11.05254
184.0406, 11.17881
184.5227, 11.27990
185.0048, 11.23678
185.4869, 11.10636
185.9690, 11.06827
186.4511, 11.17894
186.9333, 11.33742
187.4154, 11.36953
187.8975, 11.28111
188.3796, 11.16766
188.8617, 11.06843
189.3438, 10.99144
189.8260, 10.98433
190.3081, 11.07987
190.7902, 11.21712
191.2723, 11.26042
191.7544, 11.20765
192.2365, 11.13712
192.7187, 11.09315
193.2008, 11.07709
193.6829, 11.10650
194.1650, 11.20596
194.6471, 11.33727
195.1292, 11.39138
195.6114, 11.36487
196.0935, 11.30114
196.5756, 11.21079
197.0577, 11.09482
197.5398, 11.03926
198.0219, 11.07908
198.5041, 11.18308
198.9862, 11.22502
199.4683, 11.19266
199.9504, 11.15779
200.4325, 11.18874
200.9146, 11.28917
201.3968, 11.38780
201.8789, 11.48139
202.3610, 11.56099
202.8431, 11.57085
203.3252, 11.49574
203.8073, 11.40115
204.2895, 11.34338
204.7716, 11.32578
205.2537, 11.32475
205.7358, 11.34737
206.2179, 11.38553
206.7000, 11.36493
207.1822, 11.25786
207.6643, 11.16104
208.1464, 11.19319
208.6285, 11.39729
209.1106, 11.52268
209.5927, 11.49086
210.0749, 11.31947
210.5570, 11.21572
211.0391, 11.18595
211.5212, 11.21292
212.0033, 11.30161
212.4854, 11.48501
212.9676, 11.60826
213.4497, 11.62059
213.9318, 11.52768
214.4139, 11.47441
214.8960, 11.47397
215.3781, 11.49138
215.8603, 11.49621
216.3424, 11.49245
216.8245, 11.46087
217.3066, 11.37768
217.7887, 11.24397
218.2708, 11.19503
218.7529, 11.26354
219.2351, 11.37279
219.7172, 11.44104
220.1993, 11.45336
220.6814, 11.46485
221.1635, 11.48049
221.6456, 11.50013
222.1278, 11.56190
222.6099, 11.70315
223.0920, 11.84286
223.5741, 11.88755
224.0562, 11.79398
224.5383, 11.70686
225.0205, 11.66053
225.5026, 11.65679
225.9847, 11.62294
226.4668, 11.52566
226.9489, 11.43477
227.4310, 11.43311
227.9132, 11.57237
228.3953, 11.68994
228.8774, 11.73958
229.3595, 11.71820
229.8416, 11.75541
230.3237, 11.89325
230.8059, 12.04666
231.2880, 12.13061
231.7701, 12.12188
232.2522, 12.08887
232.7343, 12.03258
233.2164, 11.95051
233.6986, 11.90481
234.1807, 11.89369
234.6628, 11.92036
235.1449, 11.99759
235.6270, 12.16718
236.1091, 12.30291
236.5913, 12.38079
237.0734, 12.39946
237.5555, 12.38792
238.0376, 12.31154
238.5197, 12.24020
239.0018, 12.24545
239.4840, 12.36952
239.9661, 12.48970
240.4482, 12.57774
240.9303, 12.63421
241.4124, 12.73663
241.8945, 12.92740
242.3767, 13.11905
242.8588, 13.22381
243.3409, 13.17886
243.8230, 13.17010
244.3051, 13.24869
244.7872, 13.41035
245.2694, 13.49328
245.7515, 13.45126
246.2336, 13.38221
246.7157, 13.36760
247.1978, 13.43293
247.6799, 13.50406
248.1621, 13.58229
248.6442, 13.66448
249.1263, 13.68689
249.6084, 13.59537
250.0905, 13.51159
250.5726, 13.54309
251.0548, 13.77394
251.5369, 13.93330
252.0190, 13.93093
252.5011, 13.62823
252.9832, 13.91805
253.4653, 14.11343
253.9475, 14.21945
254.4296, 13.96842
254.9117, 14.17843
255.3938, 14.20368
255.8759, 14.22135
256.3580, 14.49625
256.8401, 14.49661
257.3223, 14.43764
257.8044, 14.35697
258.2865, 14.35475
258.7686, 14.48129
259.2507, 14.55082
259.7328, 14.52657
260.2150, 14.43367
260.6971, 14.37114
261.1792, 14.33762
261.6613, 14.33842
262.1434, 14.38041
262.6255, 14.47186
263.1077, 14.58348
263.5898, 14.73165
264.0719, 14.89301
264.5540, 14.98630
265.0361, 14.98834
265.5182, 14.97365
266.0004, 14.96323
266.4825, 14.92922
266.9646, 15.02091
267.4467, 15.30396
267.9288, 15.68286
268.4109, 15.88488
268.8931, 15.85726
269.3752, 15.80008
269.8573, 15.82040
270.3394, 15.94643
270.8215, 16.00562
271.3036, 15.97269
271.7858, 15.89206
272.2679, 15.85625
272.7500, 15.87168
273.2321, 15.90716
273.7142, 15.95768
274.1964, 16.02804
274.6785, 16.06595
275.1606, 16.05555
275.6427, 16.03503
276.1248, 16.07792
276.6069, 16.19894
277.0891, 16.31035
277.5712, 16.38280
278.0533, 16.41637
278.5354, 16.40484
279.0175, 16.33476
279.4996, 16.24852
279.9818, 16.21545
280.4639, 16.24314
280.9460, 16.25373
281.4281, 16.21302
281.9102, 16.12693
282.3923, 16.05506
282.8745, 15.99626
283.3566, 15.95515
283.8387, 15.95615
284.3208, 16.00117
284.8029, 16.00123
285.2850, 15.91132
285.7672, 15.75620
286.2493, 15.65541
286.7314, 15.61772
287.2135, 15.58306
287.6956, 15.47194
288.1777, 15.29166
288.6599, 15.16305
289.1420, 15.13791
289.6241, 15.17088
290.1062, 15.13205
290.5883, 15.01814
291.0704, 14.87665
291.5526, 14.73524
292.0347, 14.59522
292.5168, 14.46604
292.9989, 14.34169
293.4810, 14.23656
293.9631, 14.18538
294.4453, 14.18608
294.9274, 14.19809
295.4095, 14.20236
295.8916, 14.19544
296.3737, 14.16164
296.8558, 14.09003
297.3380, 14.00865
297.8201, 13.94129
298.3022, 13.89214
298.7843, 13.88861
299.2664, 13.99781
299.7485, 14.15966
300.2307, 14.23144
300.7128, 14.18419
301.1949, 14.10419
301.6770, 14.09040
302.1591, 14.12694
302.6412, 14.15991
303.1234, 14.15048
303.6055, 14.12495
304.0876, 14.12267
304.5697, 14.14814
305.0518, 14.18216
305.5339, 14.20767
306.0161, 14.22859
306.4982, 14.25252
306.9803, 14.28874
307.4624, 14.32613
307.9445, 14.34913
308.4266, 14.35706
308.9088, 14.36807
309.3909, 14.41198
309.8730, 14.46356
310.3551, 14.48691
310.8372, 14.42244
311.3193, 14.35940
311.8015, 14.36854
312.2836, 14.44442
312.7657, 14.53629
313.2478, 14.65185
313.7299, 14.75323
314.2120, 14.80065
314.6942, 14.73117
315.1763, 14.66595
315.6584, 14.68304
316.1405, 14.76284
316.6226, 14.82938
317.1047, 14.84522
317.5869, 14.83847
318.0690, 14.82670
318.5511, 14.80680
319.0332, 14.79424
319.5153, 14.79177
319.9974, 14.80071
320.4796, 14.82404
320.9617, 14.89247
321.4438, 14.95218
321.9259, 14.96559
322.4080, 14.89868
322.8901, 14.87564
323.3723, 14.96500
323.8544, 15.10524
324.3365, 15.20901
324.8186, 15.21986
325.3007, 15.22895
325.7828, 15.26735
326.2650, 15.34383
326.7471, 15.40787
327.2292, 15.46132
327.7113, 15.49763
328.1934, 15.51057
328.6755, 15.44694
329.1577, 15.41717
329.6398, 15.45318
330.1219, 15.55456
330.6040, 15.62712
331.0861, 15.63944
331.5682, 15.64694
332.0504, 15.68675
332.5325, 15.78130
333.0146, 15.87099
333.4967, 15.94750
333.9788, 16.01550
334.4609, 16.09745
334.9431, 16.21015
335.4252, 16.31425
335.9073, 16.39085
336.3894, 16.44246
336.8715, 16.46021
337.3536, 16.43491
337.8358, 16.38241
338.3179, 16.32562
338.8000, 16.24860
339.2821, 16.21422
339.7642, 16.26780
340.2463, 16.42302
340.7284, 16.50451
341.2105, 16.48256
341.6927, 16.43950
342.1748, 16.50089
342.6569, 16.68250
343.1390, 16.83695
343.6211, 16.91679
344.1032, 16.92978
344.5854, 16.89472
345.0675, 16.79572
345.5496, 16.73510
346.0317, 16.86229
346.5138, 17.15582
346.9959, 17.34889
347.4781, 17.35631
347.9602, 17.25788
348.4423, 17.23688
348.9244, 17.29076
349.4065, 17.34088
349.8886, 17.31222
350.3708, 17.23527
350.8529, 17.20310
351.3350, 17.23672
351.8171, 17.29493
352.2992, 17.32860
352.7813, 17.34166
353.2635, 17.34933
353.7456, 17.37329
354.2277, 17.39183
354.7098, 17.36406
355.1919, 17.28355
355.6740, 17.20082
356.1562, 17.15546
356.6383, 17.13928
357.1204, 17.13702
357.6025, 17.15759
358.0846, 17.17843
358.5667, 17.17951
359.0489, 17.16188
359.5310, 17.14142
360.0131, 17.12076
360.4952, 17.10477
360.9773, 17.10316
361.4594, 17.17631
361.9416, 17.19136
362.4237, 17.05065
362.9058, 16.79571
363.3879, 16.55746
363.8700, 16.34573
364.3521, 16.19134
364.8343, 16.13163
365.3164, 16.23351
365.7985, 16.27983
366.2806, 16.17470
366.7627, 15.99165
367.2448, 15.84987
367.7270, 15.80676
368.2091, 15.76982
368.6912, 15.71437
369.1733, 15.63854
369.6554, 15.55197
370.1375, 15.45584
370.6197, 15.34875
371.1018, 15.22652
371.5839, 15.05721
372.0660, 14.91716
372.5481, 14.83052
373.0302, 14.78812
373.5124, 14.71625
373.9945, 14.59135
374.4766, 14.46773
374.9587, 14.37804
375.4408, 14.33582
375.9229, 14.28882
376.4051, 14.23628
376.8872, 14.17635
377.3693, 14.09588
377.8514, 13.98151
378.3335, 13.89518
378.8156, 13.88131
379.2978, 13.94166
379.7799, 13.95305
380.2620, 13.91687
380.7441, 13.82867
381.2262, 13.64268
381.7083, 13.36486
382.1905, 13.16111
382.6726, 13.09123
383.1547, 13.12571
383.6368, 13.21345
384.1189, 13.35600
384.6010, 13.47269
385.0832, 13.47977
385.5653, 13.40854
386.0474, 13.34551
386.5295, 13.30695
387.0116, 13.28127
387.4937, 13.24494
387.9759, 13.20613
388.4580, 13.19399
388.9401, 13.28085
389.4222, 13.37710
389.9043, 13.36695
390.3864, 13.23462
390.8686, 13.06783
391.3507, 12.90486
391.8328, 12.75415
392.3149, 12.63023
392.7970, 12.52646
393.2791, 12.46293
393.7613, 12.47858
394.2434, 12.56100
394.7255, 12.61547
395.2076, 12.61164
395.6897, 12.55876
396.1718, 12.45611
396.6540, 12.23753
397.1361, 12.07225
397.6182, 12.03363
398.1003, 12.07656
398.5824, 12.09870
399.0645, 12.08994
399.5467, 12.05202
400.0288, 11.97041
400.5109, 11.81260
400.9930, 11.72196
401.4751, 11.74956
401.9572, 11.81417
402.4394, 11.83123
402.9215, 11.75938
403.4036, 11.71033
403.8857, 11.72101
404.3678, 11.77897
404.8499, 11.76001
405.3321, 11.62485
405.8142, 11.48579
406.2963, 11.41159
406.7784, 11.40595
407.2605, 11.45236
407.7426, 11.57481
408.2248, 11.71672
408.7069, 11.77144
409.1890, 11.73537
409.6711, 11.64371
410.1532, 11.45408
410.6353, 11.20590
411.1175, 11.16178
411.5996, 11.34604
412.0817, 11.55223
412.5638, 11.52222
413.0459, 11.32424
413.5280, 11.21397
414.0102, 11.12223
414.4923, 11.32324
414.9744, 11.43103
415.4565, 11.45066
415.9386, 11.11448
416.4207, 11.24055
416.9029, 11.18307
417.3850, 11.11924
417.8671, 11.31385
418.3492, 11.03568
418.8313, 11.22865
419.3134, 11.23525
419.7956, 11.32892
420.2777, 11.23791
420.7598, 11.20553
421.2419, 11.36033
421.7240, 11.41338
422.2061, 11.30584
422.6883, 11.41227
423.1704, 11.13978
423.6525, 11.20209
424.1346, 11.40954
424.6167, 11.31742
425.0988, 11.43334
425.5810, 11.47171
426.0631, 11.15334
426.5452, 11.45871
427.0273, 11.49608
427.5094, 11.25823
427.9915, 11.54592
428.4737, 11.34862
428.9558, 11.32609
429.4379, 11.43537
429.9200, 11.40972
430.4021, 11.59995
430.8842, 11.58460
431.3664, 11.55199
431.8485, 11.60123
432.3306, 11.42320
432.8127, 11.67027
433.2948, 11.62901
433.7769, 11.73290
434.2591, 11.87064
434.7412, 11.75978
435.2233, 11.91460
435.7054, 11.66053
436.1875, 11.75083
436.6696, 11.80540
437.1518, 12.08053
437.6339, 11.83332
438.1160, 11.91896
438.5981, 12.14701
439.0802, 12.17871
439.5623, 12.29423
440.0444, 12.16642
440.5266, 12.26958
441.0087, 12.31061
441.4908, 12.57168
441.9729, 12.66122
442.4550, 12.54365
442.9371, 12.42818
443.4193, 12.70988
443.9014, 12.61751
444.3835, 12.72881
444.8656, 12.63223
445.3477, 12.71741
445.8298, 12.80094
446.3120, 12.97826
446.7941, 12.87614
447.2762, 13.13927
447.7583, 13.19322
448.2404, 13.31036
448.7225, 13.42182
449.2047, 13.25219
449.6868, 13.31520
450.1689, 13.71060
450.6510, 13.60216
451.1331, 13.70366
451.6152, 13.87695
452.0974, 14.05671
452.5795, 14.26109
453.0616, 14.44624
453.5437, 14.55903
454.0258, 14.58601
454.5079, 14.61959
454.9901, 14.65890
455.4722, 14.72995
455.9543, 14.95523
456.4364, 15.34100
456.9185, 15.68081
457.4006, 15.78489
457.8828, 15.73662
458.3649, 15.83508
458.8470, 16.11595
459.3291, 16.43006
459.8112, 16.60757
460.2933, 16.69332
460.7755, 16.78763
461.2576, 16.92404
461.7397, 17.08940
462.2218, 17.28621
462.7039, 17.50848
463.1860, 17.71793
463.6682, 17.87443
464.1503, 18.02596
464.6324, 18.21834
465.1145, 18.48602
465.5966, 18.71516
466.0787, 18.89437
466.5609, 19.00571
467.0430, 19.02275
467.5251, 18.78057
468.0072, 18.61160
468.4893, 18.64939
468.9714, 18.87683
469.4536, 18.98029
469.9357, 18.89928
470.4178, 18.75887
470.8999, 18.62102
471.3820, 18.48504
471.8641, 18.35451
472.3463, 18.23322
472.8284, 18.11380
473.3105, 17.98465
473.7926, 17.84869
474.2747, 17.68827
474.7568, 17.49327
475.2390, 17.27036
475.7211, 17.03639
476.2032, 16.78806
476.6853, 16.56517
477.1674, 16.39942
477.6495, 16.28141
478.1317, 16.19277
478.6138, 16.14018
479.0959, 16.08002
479.5780, 15.96644
480.0601, 15.80744
480.5422, 15.62453
481.0244, 15.36117
481.5065, 15.12515
481.9886, 15.01614
482.4707, 15.02399
482.9528, 15.05972
483.4349, 15.15507
483.9171, 15.21451
484.3992, 15.15438
484.8813, 14.89378
485.3634, 14.66007
485.8455, 14.50626
486.3276, 14.41075
486.8098, 14.34276
487.2919, 14.33477
487.7740, 14.31519
488.2561, 14.27012
488.7382, 14.20047
489.2203, 14.12434
489.7025, 14.02727
490.1846, 13.94728
490.6667, 13.91279
491.1488, 13.93389
491.6309, 13.95220
492.1130, 13.97065
492.5952, 13.97696
493.0773, 13.93302
493.5594, 13.83951
494.0415, 13.79538
494.5236, 13.85759
495.0057, 13.97674
495.4879, 14.03277
495.9700, 14.02933
496.4521, 14.02216
496.9342, 14.07763
497.4163, 14.14660
497.8984, 14.14621
498.3806, 14.05616
498.8627, 13.94396
499.3448, 13.82235
499.8269, 13.71944
500.3090, 13.67617
500.7911, 13.75155
501.2733, 13.84672
501.7554, 13.95295
502.2375, 14.05559
502.7196, 14.08206
503.2017, 13.94256
503.6838, 13.78117
504.1660, 13.66131
504.6481, 13.57211
505.1302, 13.56236
505.6123, 13.71768
506.0944, 13.88956
506.5765, 13.89230
507.0587, 13.63085
507.5408, 13.45524
508.0229, 13.46033
508.5050, 13.57825
508.9871, 13.54729
509.4692, 13.34305
509.9514, 13.15906
510.4335, 13.12212
510.9156, 13.20425
511.3977, 13.25105
511.8798, 13.25805
512.3619, 13.24483
512.8441, 13.22389
513.3262, 13.19808
513.8083, 13.17892
514.2904, 13.18827
514.7725, 13.17276
515.2546, 13.02250
515.7368, 12.80300
516.2189, 12.67981
516.7010, 12.84023
517.1831, 13.03157
517.6652, 13.10581
518.1473, 13.04969
518.6295, 12.96605
519.1116, 12.83597
519.5937, 12.71754
520.0758, 12.65337
520.5579, 12.70470
521.0400, 12.73391
521.5222, 12.73345
522.0043, 12.71429
522.4864, 12.70220
522.9685, 12.72133
523.4506, 12.68688
523.9327, 12.54404
524.4149, 12.31973
524.8970, 12.23617
525.3791, 12.31585
525.8612, 12.42157
526.3433, 12.45147
526.8254, 12.41831
527.3076, 12.38455
527.7897, 12.35007
528.2718, 12.34350
528.7539, 12.44579
529.2360, 12.60189
529.7181, 12.67795
530.2003, 12.54862
530.6824, 12.39692
531.1645, 12.39187
531.6466, 12.50291
532.1287, 12.61688
532.6108, 12.70078
533.0930, 12.75668
533.5751, 12.78374
534.0572, 12.77871
534.5393, 12.76136
535.0214, 12.70647
535.5035, 12.65721
535.9857, 12.65649
536.4678, 12.79618
536.9499, 12.83286
537.4320, 12.68698
537.9141, 12.45483
538.3962, 12.38358
538.8784, 12.52120
539.3605, 12.66782
539.8426, 12.76182
540.3247, 12.80565
540.8068, 12.79492
541.2889, 12.72564
541.7711, 12.64543
542.2532, 12.55574
542.7353, 12.48566
543.2174, 12.55397
543.6995, 12.80647
544.1816, 13.05503
544.6638, 13.09022
545.1459, 12.98960
545.6280, 12.89383
546.1101, 12.85769
546.5922, 12.84470
547.0743, 12.85423
547.5565, 12.87434
548.0386, 12.86016
548.5207, 12.73543
549.0028, 12.62456
549.4849, 12.58951
549.9670, 12.65149
550.4492, 12.72101
550.9313, 12.79997
551.4134, 12.88147
551.8955, 12.96645
552.3776, 13.06916
552.8597, 13.13258
553.3419, 13.14385
553.8240, 13.12212
554.3061, 13.09950
554.7882, 13.07520
555.2703, 13.06614
555.7524, 13.09554
556.2346, 13.13782
556.7167, 13.13262
557.1988, 13.07992
557.6809, 12.97864
558.1630, 12.75020
558.6451, 12.50185
559.1273, 12.40392
559.6094, 12.49358
560.0915, 12.61603
560.5736, 12.72372
561.0557, 12.78939
561.5378, 12.78159
562.0200, 12.59604
562.5021, 12.44163
562.9842, 12.40101
563.4663, 12.43350
563.9484, 12.41543
564.4305, 12.28941
564.9127, 12.17752
565.3948, 12.12826
565.8769, 12.14346
566.3590, 12.08599
566.8411, 11.92748
567.3232, 11.75912
567.8054, 11.63766
568.2875, 11.56279
568.7696, 11.53156
569.2517, 11.55529
569.7338, 11.57906
570.2159, 11.51818
570.6981, 11.39665
571.1802, 11.29064
571.6623, 11.23276
572.1444, 11.19133
572.6265, 11.13681
573.1086, 11.07081
573.5908, 10.99814
574.0729, 10.86572
574.5550, 10.77128
575.0371, 10.82089
575.5192, 11.02815
576.0013, 11.12318
576.4835, 10.92017
576.9656, 10.67042
577.4477, 10.53439
577.9298, 10.57405
578.4119, 10.61700
578.8940, 10.67570
579.3762, 10.72548
579.8583, 10.72011
580.3404, 10.64301
580.8225, 10.60036
581.3046, 10.62745
581.7867, 10.69323
582.2689, 10.71821
582.7510, 10.70391
583.2331, 10.67640
583.7152, 10.65119
584.1973, 10.62161
584.6794, 10.55880
585.1616, 10.46547
585.6437, 10.41103
586.1258, 10.45692
586.6079, 10.55764
587.0900, 10.68037
587.5721, 10.84368
588.0542, 10.96398
588.5363, 11.00835
589.0184, 10.99636
589.5005, 10.95198
589.9827, 10.78194
590.4648, 10.70199
590.9469, 10.76420
591.4290, 10.92964
591.9111, 11.08272
592.3932, 11.23632
592.8754, 11.33709
593.3575, 11.33070
593.8396, 11.24186
594.3217, 11.29119
594.8038, 11.48764
595.2859, 11.68279
595.7681, 11.73704
596.2502, 11.70359
596.7323, 11.69355
597.2144, 11.71694
597.6965, 11.78741
598.1786, 11.95101
598.6608, 12.15648
599.1429, 12.33533
599.6250, 12.46867
600.1071, 12.56861
600.5892, 12.62527
601.0714, 12.65142
601.5535, 12.67589
602.0356, 12.67082
602.5177, 12.70084
602.9998, 12.79983
603.4819, 12.96127
603.9641, 13.06191
604.4462, 13.08014
604.9283, 13.08921
605.4104, 13.12783
605.8925, 13.19658
606.3746, 13.29473
606.8568, 13.43045
607.3389, 13.55272
607.8210, 13.59718
608.3031, 13.58844
608.7852, 13.58690
609.2673, 13.60034
609.7495, 13.63885
610.2316, 13.72804
610.7137, 13.84588
611.1958, 13.95500
611.6779, 14.05033
612.1600, 14.12323
612.6422, 14.17140
613.1243, 14.19459
613.6064, 14.19387
614.0885, 14.14400
614.5706, 14.09721
615.0527, 14.07166
615.5349, 14.06898
616.0170, 14.05950
616.4991, 14.04088
616.9812, 14.02034
617.4633, 14.00310
617.9454, 13.98882
618.4276, 13.98343
618.9097, 13.99386
619.3918, 13.98184
619.8739, 13.88242
620.3560, 13.72600
620.8381, 13.58455
621.3203, 13.47752
621.8024, 13.39565
622.2845, 13.35693
622.7666, 13.33491
623.2487, 13.27333
623.7308, 13.06332
624.2130, 12.89826
624.6951, 12.89468
625.1772, 13.03494
625.6593, 13.06545
626.1414, 12.90405
626.6235, 12.73562
627.1057, 12.64705
627.5878, 12.65229
628.0699, 12.56880
628.5520, 12.36887
629.0341, 12.16884
629.5162, 12.10542
629.9984, 12.14679
630.4805, 12.10549
630.9626, 11.94462
631.4447, 11.76485
631.9268, 11.67886
632.4089, 11.65254
632.8911, 11.62066
633.3732, 11.52947
633.8553, 11.46939
634.3374, 11.52291
634.8195, 11.64415
635.3016, 11.73216
635.7838, 11.76157
636.2659, 11.75343
636.7480, 11.69395
637.2301, 11.59227
637.7122, 11.52548
638.1943, 11.48478
638.6765, 11.49614
639.1586, 11.59264
639.6407, 11.77246
640.1228, 11.89769
640.6049, 11.96318
641.0870, 12.00443
641.5692, 12.05166
642.0513, 12.09869
642.5334, 12.12718
643.0155, 12.13064
643.4976, 12.13445
643.9797, 12.16354
644.4619, 12.20470
644.9440, 12.24061
645.4261, 12.25654
645.9082, 12.27706
646.3903, 12.30602
646.8724, 12.34479
647.3546, 12.39727
647.8367, 12.48737
648.3188, 12.55639
648.8009, 12.59108
649.2830, 12.59524
649.7651, 12.57559
650.2473, 12.51900
650.7294, 12.50718
651.2115, 12.63780
651.6936, 12.85026
652.1757, 12.85991
652.6578, 12.67036
653.1400, 12.50265
653.6221, 12.55569
654.1042, 12.71425
654.5863, 12.84871
655.0684, 12.94467
655.5505, 12.99208
656.0327, 12.93170
656.5148, 12.84753
656.9969, 12.81827
657.4790, 12.89599
657.9611, 12.97302
658.4432, 13.04396
658.9254, 13.11201
659.4075, 13.17066
659.8896, 13.19827
660.3717, 13.31172
660.8538, 13.58122
661.3359, 13.89750
661.8181, 13.96186
662.3002, 13.80146
662.7823, 13.68520
663.2644, 13.78198
663.7465, 13.96858
664.2286, 14.09075
664.7108, 14.15298
665.1929, 14.18373
665.6750, 14.14449
666.1571, 14.12104
666.6392, 14.18129
667.1213, 14.33867
667.6035, 14.47399
668.0856, 14.55380
668.5677, 14.61819
669.0498, 14.69451
669.5319, 14.80410
670.0140, 14.84267
670.4962, 14.79234
670.9783, 14.60095
671.4604, 14.77818
671.9425, 14.89245
672.4246, 14.94714
672.9067, 14.76379
673.3889, 14.88783
673.8710, 14.88867
674.3531, 14.88446
674.8352, 15.05175
675.3173, 14.90303
675.7994, 15.06759
676.2816, 15.10710
676.7637, 15.20384
677.2458, 15.17665
677.7279, 15.18773
678.2100, 15.32279
678.6921, 15.38920
679.1743, 15.34775
679.6564, 15.44813
680.1385, 15.29508
680.6206, 15.36442
681.1027, 15.52971
681.5848, 15.49447
682.0670, 15.59713
682.5491, 15.64726
683.0312, 15.45875
683.5133, 15.68527
683.9954, 15.73230
684.4775, 15.59504
684.9597, 15.80734
685.4418, 15.69549
685.9239, 15.69934
686.4060, 15.79026
686.8881, 15.79041
687.3702, 15.93366
687.8524, 15.93906
688.3345, 15.93214
688.8166, 15.97897
689.2987, 15.87347
689.7808, 16.05057
690.2629, 16.05887
690.7451, 16.12411
691.2272, 16.20359
691.7093, 16.28850
692.1914, 16.37720
692.6735, 16.46856
693.1556, 16.56575
693.6378, 16.65855
694.1199, 16.74441
694.6020, 16.81752
695.0841, 16.86215
695.5662, 16.81743
696.0483, 16.79655
696.5305, 16.85314
697.0126, 16.97826
697.4947, 17.11534
697.9768, 17.30216
698.4589, 17.43790
698.9410, 17.46245
699.4232, 17.39089
699.9053, 17.43461
700.3874, 17.61143
700.8695, 17.77466
701.3516, 17.80143
701.8337, 17.74375
702.3159, 17.74152
702.7980, 17.79946
703.2801, 17.87465
703.7622, 17.94096
704.2443, 18.00644
704.7264, 18.07101
705.2086, 18.12494
705.6907, 18.22282
706.1728, 18.45673
706.6549, 18.69100
707.1370, 18.80777
707.6191, 18.70973
708.1013, 18.72106
708.5834, 18.88371
709.0655, 19.10099
709.5476, 19.24956
710.0297, 19.33274
710.5118, 19.39202
710.9940, 19.42690
711.4761, 19.46387
711.9582, 19.53176
712.4403, 19.62842
712.9224, 19.75024
713.4045, 19.91135
713.8867, 20.07754
714.3688, 20.23306
714.8509, 20.37966
715.3330, 20.52815
715.8151, 20.72177
716.2972, 20.86589
716.7794, 20.92857
717.2615, 20.93143
717.7436, 20.94991
718.2257, 20.97985
718.7078, 21.05101
719.1899, 21.20786
719.6721, 21.40043
720.1542, 21.46551
720.6363, 21.41991
721.1184, 21.39685
721.6005, 21.52614
722.0826, 21.68662
722.5648, 21.75078
723.0469, 21.71948
723.5290, 21.70265
724.0111, 21.74292
724.4932, 21.80435
724.9753, 21.87285
725.4575, 21.95062
725.9396, 22.00940
726.4217, 22.02802
726.9038, 22.06939
727.3859, 22.18880
727.8680, 22.38142
728.3502, 22.58572
728.8323, 22.80514
729.3144, 22.99343
729.7965, 23.09328
730.2786, 23.13766
730.7607, 23.17188
731.2429, 23.19790
731.7250, 23.24184
732.2071, 23.34006
732.6892, 23.45065
733.1713, 23.53264
733.6534, 23.52199
734.1356, 23.56839
734.6177, 23.69021
735.0998, 23.85062
735.5819, 24.01571
736.0640, 24.19042
736.5461, 24.30729
737.0283, 24.34365
737.5104, 24.34680
737.9925, 24.37101
738.4746, 24.41895
738.9567, 24.50105
739.4388, 24.64842
739.9210, 24.79097
740.4031, 24.87595
740.8852, 24.92346
741.3673, 24.97183
741.8494, 25.03329
742.3315, 25.09229
742.8137, 25.14216
743.2958, 25.18838
743.7779, 25.24833
744.2600, 25.32458
744.7421, 25.40062
745.2242, 25.45802
745.7064, 25.52359
746.1885, 25.68757
746.6706, 25.93049
747.1527, 26.14703
747.6348, 26.23162
748.1169, 26.30341
748.5991, 26.49822
749.0812, 26.78478
749.5633, 27.00694
750.0454, 27.05780
750.5275, 27.08875
751.0096, 27.14140
751.4918, 27.21715
751.9739, 27.35231
752.4560, 27.57013
752.9381, 27.78354
753.4202, 27.94781
753.9023, 28.06981
754.3845, 28.19247
754.8666, 28.31523
755.3487, 28.45333
755.8308, 28.64732
756.3129, 28.84307
756.7950, 28.97650
757.2772, 29.04403
757.7593, 29.08969
758.2414, 29.05576
758.7235, 29.06782
759.2056, 29.23488
759.6877, 29.60159
760.1699, 29.82060
760.6520, 29.85682
761.1341, 29.81626
761.6162, 29.76327
762.0983, 29.69889
762.5804, 29.62188
763.0626, 29.52947
763.5447, 29.46174
764.0268, 29.46558
764.5089, 29.50970
764.9910, 29.56430
765.4731, 29.63249
765.9553, 29.66322
766.4374, 29.58501
766.9195, 29.49460
767.4016, 29.48549
767.8837, 29.64795
768.3658, 29.63554
768.8480, 29.36801
769.3301, 29.06503
769.8122, 28.98327
770.2943, 29.09514
770.7764, 29.10441
771.2585, 28.97083
771.7407, 28.78099
772.2228, 28.61642
772.7049, 28.45429
773.1870, 28.25286
773.6691, 27.97349
774.1512, 27.73400
774.6334, 27.66327
775.1155, 27.61175
775.5976, 27.40726
776.0797, 26.91652
776.5618, 26.55313
777.0439, 26.35172
777.5261, 26.24788
778.0082, 26.19992
778.4903, 26.19241
778.9724, 26.07394
779.4545, 25.79896
779.9366, 25.46865
780.4188, 25.17010
780.9009, 24.89901
781.3830, 24.65461
781.8651, 24.43267
782.3472, 24.23983
782.8293, 24.11123
783.3115, 23.99919
783.7936, 23.83934
784.2757, 23.61860
784.7578, 23.38315
785.2399, 23.13891
785.7220, 22.88398
786.2041, 22.59784
786.6862, 22.28983
787.1683, 22.04313
787.6505, 21.90020
788.1326, 21.76411
788.6147, 21.51092
789.0968, 21.19796
789.5789, 20.92217
790.0610, 20.75665
790.5432, 20.57697
791.0253, 20.31894
791.5074, 20.04011
791.9895, 19.83843
792.4716, 19.73402
792.9537, 19.64188
793.4359, 19.56610
793.9180, 19.46603
794.4001, 19.24396
794.8822, 18.92493
795.3643, 18.62356
795.8464, 18.37250
796.3286, 18.14678
796.8107, 17.92289
797.2928, 17.70729
797.7749, 17.50980
798.2570, 17.34085
798.7391, 17.17789
799.2213, 17.01111
799.7034, 16.85021
800.1855, 16.72447
800.6676, 16.65051
801.1497, 16.51177
801.6318, 16.26442
802.1140, 15.98099
802.5961, 15.80817
803.0782, 15.70333
803.5603, 15.53235
804.0424, 15.16997
804.5245, 14.84689
805.0067, 14.77560
805.4888, 14.82895
805.9709, 14.79170
806.4530, 14.49106
806.9351, 14.27387
807.4172, 14.22039
807.8994, 14.23333
808.3815, 14.11318
808.8636, 13.85324
809.3457, 13.65549
809.8278, 13.57922
810.3099, 13.55883
810.7921, 13.53387
811.2742, 13.49157
811.7563, 13.40231
812.2384, 13.19193
812.7205, 13.01981
813.2026, 12.99184
813.6848, 13.03311
814.1669, 13.01863
814.6490, 12.93750
815.1311, 12.80580
815.6132, 12.59288
816.0953, 12.37353
816.5775, 12.29754
817.0596, 12.34372
817.5417, 12.34751
818.0238, 12.24922
818.5059, 12.13796
818.9880, 12.12678
819.4702, 12.15833
819.9523, 12.14537
820.4344, 12.00464
820.9165, 11.89124
821.3986, 11.78359
821.8807, 11.86332
822.3629, 11.91179
822.8450, 11.93071
823.3271, 11.83084
823.8092, 11.88489
824.2913, 11.87758
824.7734, 11.86798
825.2556, 11.94435
825.7377, 11.86296
826.2198, 11.93843
826.7019, 11.95162
827.1840, 11.99365
827.6661, 11.97394
828.1483, 11.97361
828.6304, 12.03550
829.1125, 12.06329
829.5946, 12.03738
830.0767, 12.08262
830.5588, 12.00138
831.0410, 12.03157
831.5231, 12.10996
832.0052, 12.08833
832.4873, 12.13586
832.9694, 12.15737
833.4515, 12.05980
833.9337, 12.16996
834.4158, 12.19062
834.8979, 12.11936
835.3800, 12.22311
835.8621, 12.16502
836.3442, 12.16502
836.8264, 12.20878
837.3085, 12.20739
837.7906, 12.27778
838.2727, 12.27947
838.7548, 12.27524
839.2369, 12.29811
839.7191, 12.24506
840.2012, 12.33353
840.6833, 12.32572
841.1654, 12.36612
841.6475, 12.41762
842.1296, 12.38609
842.6118, 12.44295
843.0939, 12.36333
843.5760, 12.39833
844.0581, 12.42124
844.5402, 12.51750
845.0223, 12.43947
845.5045, 12.47223
845.9866, 12.55227
846.4687, 12.56670
846.9508, 12.60889
847.4329, 12.56979
847.9150, 12.60751
848.3972, 12.62435
848.8793, 12.71436
849.3614, 12.74702
849.8435, 12.71047
850.3256, 12.67445
850.8077, 12.77063
851.2899, 12.74197
851.7720, 12.78101
852.2541, 12.75059
852.7362, 12.78058
853.2183, 12.80985
853.7004, 12.91996
854.1826, 12.95612
854.6647, 12.87277
855.1468, 12.94263
855.6289, 12.95041
856.1110, 12.95518
856.5931, 13.04521
857.0753, 12.97676
857.5574, 13.06446
858.0395, 13.08916
858.5216, 13.14198
859.0037, 13.13235
859.4858, 13.14138
859.9680, 13.21191
860.4501, 13.24763
860.9322, 13.22894
861.4143, 13.28067
861.8964, 13.20521
862.3785, 13.24046
862.8607, 13.32320
863.3428, 13.30520
863.8249, 13.35565
864.3070, 13.37936
864.7891, 13.28326
865.2712, 13.39419
865.7534, 13.41490
866.2355, 13.34298
866.7176, 13.44534
867.1997, 13.38516
867.6818, 13.38233
868.1639, 13.42256
868.6461, 13.41692
869.1282, 13.48235
869.6103, 13.47836
870.0924, 13.46773
870.5745, 13.48350
871.0566, 13.42261
871.5388, 13.50254
872.0209, 13.48547
872.5030, 13.51589
872.9851, 13.55670
873.4672, 13.51376
873.9493, 13.55848
874.4315, 13.46602
874.9136, 13.48746
875.3957, 13.49610
875.8778, 13.57737
876.3599, 13.48364
876.8420, 13.49996
877.3242, 13.56287
877.8063, 13.55943
878.2884, 13.58305
878.7705, 13.52467
879.2526, 13.54238
879.7347, 13.53850
880.2169, 13.60707
880.6990, 13.61758
881.1811, 13.55816
881.6632, 13.49855
882.1453, 13.57043
882.6274, 13.51674
883.1096, 13.53005
883.5917, 13.47318
884.0738, 13.47600
884.5559, 13.47739
885.0380, 13.50914
885.5201, 13.44686
886.0023, 13.50544
886.4844, 13.49340
886.9665, 13.50154
887.4486, 13.50689
887.9307, 13.41765
888.4128, 13.40508
888.8950, 13.50241
889.3771, 13.43090
889.8592, 13.39289
890.3413, 13.37855
890.8234, 13.47772
891.3055, 13.47046
891.7877, 13.33604
892.2698, 13.42874
892.7519, 13.38094
893.2340, 13.37426
893.7161, 13.35191
894.1982, 13.33358
894.6804, 13.25759
895.1625, 13.25646
895.6446, 13.31608
896.1267, 13.27081
896.6088, 13.29600
897.0909, 13.19140
897.5731, 13.16306
898.0552, 13.15462
898.5373, 13.15313
899.0194, 13.09178
899.5015, 13.14868
899.9836, 13.12604
900.4658, 13.03440
900.9479, 13.01660
901.4300, 12.98598
901.9121, 13.08333
902.3942, 13.00358
902.8763, 12.96551
903.3585, 12.86981
903.8406, 12.70795
904.3227, 12.67029
904.8048, 12.80656
905.2869, 12.90661
905.7690, 12.83626
906.2512, 12.66353
906.7333, 12.57260
907.2154, 12.54835
907.6975, 12.52576
908.1796, 12.46726
908.6617, 12.40351
909.1439, 12.33081
909.6260, 12.26739
910.1081, 12.27544
910.5902, 12.42409
911.0723, 12.45963
911.5544, 12.29468
912.0366, 12.05164
912.5187, 11.96279
913.0008, 11.98886
913.4829, 11.98992
913.9650, 11.91312
914.4471, 11.84092
914.9293, 11.83687
915.4114, 11.86316
915.8935, 11.87870
916.3756, 11.89202
916.8577, 11.85686
917.3398, 11.74327
917.8220, 11.64483
918.3041, 11.67498
918.7862, 11.79805
919.2683, 11.86368
919.7504, 11.86260
920.2325, 11.84522
920.7147, 11.82318
921.1968, 11.81751
921.6789, 11.85530
922.1610, 11.94015
922.6431, 11.99508
923.1252, 12.02148
923.6074, 12.01133
924.0895, 11.95559
924.5716, 11.86273
925.0537, 11.73321
925.5358, 11.58475
926.0179, 11.51201
926.5001, 11.64290
926.9822, 11.78668
927.4643, 11.79508
927.9464, 11.72990
928.4285, 11.73686
928.9106, 11.89620
929.3928, 11.98558
929.8749, 11.96361
930.3570, 11.88706
930.8391, 11.81648
931.3212, 11.76108
931.8033, 11.77762
932.2855, 11.89232
932.7676, 11.98876
933.2497, 11.93916
933.7318, 11.85889
934.2139, 11.87504
934.6960, 12.07344
935.1782, 12.08850
935.6603, 11.82412
936.1424, 11.57906
936.6245, 11.57494
937.1066, 11.75579
937.5887, 11.88792
938.0709, 11.97212
938.5530, 12.01077
939.0351, 11.95439
939.5172, 11.90124
939.9993, 11.93531
940.4814, 12.03432
940.9636, 12.07578
941.4457, 12.03021
941.9278, 11.99176
942.4099, 11.98050
942.8920, 11.99246
943.3741, 12.02441
943.8563, 12.07328
944.3384, 12.13025
944.8205, 12.19247
945.3026, 12.26185
945.7847, 12.38468
946.2668, 12.49041
946.7490, 12.48261
947.2311, 12.25937
947.7132, 12.21168
948.1953, 12.39413
948.6774, 12.59094
949.1595, 12.57806
949.6417, 12.43521
950.1238, 12.36208
950.6059, 12.36775
951.0880, 12.39954
951.5701, 12.44006
952.0522, 12.48710
952.5344, 12.52830
953.0165, 12.57093
953.4986, 12.68010
953.9807, 12.88351
954.4628, 13.02946
954.9449, 13.04786
955.4271, 13.00064
955.9092, 12.97523
956.3913, 12.97376
956.8734, 13.00372
957.3555, 13.10523
957.8376, 13.18262
958.3198, 13.16652
958.8019, 13.13067
959.2840, 13.15879
959.7661, 13.26302
960.2482, 13.37429
960.7303, 13.49741
961.2125, 13.57895
961.6946, 13.53001
962.1767, 13.42650
962.6588, 13.37163
963.1409, 13.37586
963.6230, 13.41503
964.1052, 13.53956
964.5873, 13.63231
965.0694, 13.62687
965.5515, 13.54994
966.0336, 13.58089
966.5157, 13.71924
966.9979, 13.80608
967.4800, 13.71461
967.9621, 13.62036
968.4442, 13.78895
968.9263, 14.08754
969.4084, 14.27135
969.8906, 14.11398
970.3727, 14.06942
970.8548, 14.25024
971.3369, 14.45687
971.8190, 14.43344
972.3011, 14.20808
972.7833, 14.04502
973.2654, 13.96712
973.7475, 13.98106
974.2296, 14.16571
974.7117, 14.38865
975.1938, 14.51689
975.6760, 14.53531
976.1581, 14.68135
976.6402, 15.09644
977.1223, 15.34561
977.6044, 15.18647
978.0865, 14.80555
978.5687, 14.74425
979.0508, 14.92825
979.5329, 15.07641
980.0150, 15.01690
980.4971, 14.96570
980.9792, 15.09432
981.4614, 15.27578
981.9435, 15.32151
982.4255, 15.15782
982.9077, 15.09020
983.3898, 15.15091
983.8719, 15.24350
984.3540, 15.25273
984.8361, 15.22985
985.3182, 15.29734
985.8004, 15.46006
986.2825, 15.55745
986.7646, 15.40486
987.2467, 15.29057
987.7288, 15.37344
988.2109, 15.60191
988.6931, 15.70435
989.1752, 15.67778
989.6573, 15.62051
990.1394, 15.57267
990.6215, 15.50492
991.1036, 15.35264
991.5858, 15.16428
992.0679, 15.01888
992.5500, 14.97179
993.0321, 14.91789
993.5142, 14.84037
993.9963, 14.76705
994.4785, 14.73317
994.9606, 14.73172
995.4427, 14.69119
995.9248, 14.61110
996.4069, 14.55962
996.8890, 14.63553
997.3712, 14.71516
997.8533, 14.70524
998.3354, 14.60891
998.8175, 14.50750
999.2996, 14.39005
999.7817, 14.29986
1000.264, 14.24927
1000.746, 14.23299
1001.228, 14.27521
1001.710, 14.34210
1002.192, 14.34366
1002.674, 14.22476
1003.157, 14.11837
1003.639, 14.10427
1004.121, 14.11102
1004.603, 14.07561
1005.085, 13.98639
1005.567, 13.96375
1006.049, 14.01265
1006.531, 14.06690
1007.013, 14.08740
1007.496, 14.08303
1007.978, 14.06592
1008.460, 14.03426
1008.942, 13.97893
1009.424, 13.85965
1009.906, 13.76864
1010.388, 13.72734
1010.870, 13.71207
1011.353, 13.66785
1011.835, 13.60728
1012.317, 13.61768
1012.799, 13.72786
1013.281, 13.82651
1013.763, 13.83173
1014.245, 13.78689
1014.727, 13.71196
1015.209, 13.60126
1015.692, 13.55757
1016.174, 13.59086
1016.656, 13.65743
1017.138, 13.77447
1017.620, 13.87962
1018.102, 13.80309
1018.584, 13.60813
1019.066, 13.46485
1019.549, 13.47480
1020.031, 13.50302
1020.513, 13.52479
1020.995, 13.54317
1021.477, 13.56776
1021.959, 13.59879
1022.441, 13.58895
1022.923, 13.53255
1023.405, 13.47112
1023.888, 13.40472
1024.370, 13.37559
1024.852, 13.44804
1025.334, 13.61818
1025.816, 13.73599
1026.298, 13.77607
1026.780, 13.80085
1027.262, 13.83060
1027.745, 13.85357
1028.227, 13.82360
1028.709, 13.76682
1029.191, 13.76061
1029.673, 13.85246
1030.155, 13.93594
1030.637, 13.94928
1031.119, 13.94587
1031.601, 13.97351
1032.084, 14.03858
1032.566, 14.07831
1033.048, 14.09367
1033.530, 14.06065
1034.012, 13.88554
1034.494, 13.71362
1034.976, 13.73805
1035.458, 13.90024
1035.941, 14.00220
1036.423, 13.95451
1036.905, 13.92575
1037.387, 13.94726
1037.869, 13.97567
1038.351, 13.93846
1038.833, 13.85587
1039.315, 13.79105
1039.797, 13.75159
1040.280, 13.74390
1040.762, 13.81243
1041.244, 13.87593
1041.726, 13.88099
1042.208, 13.83436
1042.690, 13.78499
1043.172, 13.73129
1043.654, 13.69720
1044.136, 13.70012
1044.619, 13.71214
1045.101, 13.67844
1045.583, 13.63755
1046.065, 13.65429
1046.547, 13.81414
1047.029, 13.89495
1047.511, 13.86277
1047.993, 13.79816
1048.476, 13.75429
1048.958, 13.73187
1049.440, 13.74981
1049.922, 13.79933
1050.404, 13.82271
1050.886, 13.76778
1051.368, 13.70014
1051.850, 13.63681
1052.333, 13.41495
1052.815, 13.63146
1053.297, 13.75353
1053.779, 13.78623
1054.261, 13.46190
1054.743, 13.59860
1055.225, 13.55054
1055.707, 13.49490
1056.189, 13.69649
1056.672, 13.42409
1057.154, 13.62160
1057.636, 13.63153
1058.118, 13.72731
1058.600, 13.63719
1059.082, 13.60449
1059.564, 13.75775
1060.046, 13.80804
1060.528, 13.69652
1061.011, 13.79776
1061.493, 13.51886
1061.975, 13.57354
1062.457, 13.77214
1062.939, 13.64101
1063.421, 13.64337
1063.903, 13.59166
1064.385, 13.48516
1064.868, 13.38257
1065.350, 13.27253
1065.832, 13.22723
1066.314, 13.39240
1066.796, 13.67211
1067.278, 13.76873
1067.760, 13.56459
1068.242, 13.44583
1068.724, 13.47312
1069.207, 13.55667
1069.689, 13.59335
1070.171, 13.60584
1070.653, 13.64081
1071.135, 13.70311
1071.617, 13.75769
1072.099, 13.82213
1072.581, 13.83665
1073.063, 13.76897
1073.546, 13.64391
1074.028, 13.50249
1074.510, 13.36270
1074.992, 13.34474
1075.474, 13.53116
1075.956, 13.70993
1076.438, 13.73355
1076.920, 13.67442
1077.403, 13.58977
1077.885, 13.47531
1078.367, 13.39354
1078.849, 13.34229
1079.331, 13.34002
1079.813, 13.45108
1080.295, 13.57265
1080.777, 13.57314
1081.259, 13.48003
1081.742, 13.35810
1082.224, 13.16250
1082.706, 13.02555
1083.188, 12.94406
1083.670, 12.93963
1084.152, 13.11917
1084.634, 13.38288
1085.116, 13.37255
1085.599, 13.10139
1086.081, 12.91482
1086.563, 13.11203
1087.045, 13.27632
1087.527, 13.22316
1088.009, 13.04660
1088.491, 12.93940
1088.973, 12.89948
1089.455, 12.89950
1089.938, 12.94359
1090.420, 12.96351
1090.902, 12.87230
1091.384, 12.75457
1091.866, 12.67660
1092.348, 12.64319
1092.830, 12.66008
1093.312, 12.74501
1093.794, 12.77874
1094.277, 12.68974
1094.759, 12.57153
1095.241, 12.56386
1095.723, 12.61849
1096.205, 12.65901
1096.687, 12.66971
1097.169, 12.65453
1097.651, 12.60867
1098.134, 12.55020
1098.616, 12.48256
1099.098, 12.41350
1099.580, 12.36782
1100.062, 12.34512
1100.544, 12.34053
1101.026, 12.38626
1101.508, 12.40638
1101.990, 12.35786
1102.473, 12.28874
1102.955, 12.24935
1103.437, 12.23958
1103.919, 12.26451
1104.401, 12.32394
1104.883, 12.34950
1105.365, 12.23741
1105.847, 12.12628
1106.329, 11.94870
1106.812, 12.13819
1107.294, 12.23329
1107.776, 12.23902
1108.258, 11.88771
1108.740, 11.99744
1109.222, 11.92241
1109.704, 11.83980
1110.186, 12.01442
1110.669, 11.71499
1111.151, 11.88553
1111.633, 11.86848
1112.115, 11.93730
1112.597, 11.82020
1113.079, 11.76053
1113.561, 11.88682
1114.043, 11.91014
1114.526, 11.77159
1115.008, 11.84585
1115.490, 11.53998
1115.972, 11.56768
1116.454, 11.73931
1116.936, 11.61016
1117.418, 11.68783
1117.900, 11.63332
1118.382, 11.59749
1118.865, 11.45806
1119.347, 11.41733
1119.829, 11.69551
1120.311, 11.92858
1120.793, 11.93245
1121.275, 11.83519
1121.757, 11.74909
1122.239, 11.67316
1122.721, 11.63881
1123.204, 11.64595
1123.686, 11.65432
1124.168, 11.62459
1124.650, 11.59688
1125.132, 11.60134
1125.614, 11.63074
1126.096, 11.66944
1126.578, 11.73157
1127.061, 11.71974
1127.543, 11.61164
1128.025, 11.50680
1128.507, 11.53434
1128.989, 11.59610
1129.471, 11.56243
1129.953, 11.44045
1130.435, 11.39960
1130.917, 11.50499
1131.400, 11.53955
1131.882, 11.43257
1132.364, 11.29354
1132.846, 11.29451
1133.328, 11.37211
1133.810, 11.42202
1134.292, 11.42639
1134.774, 11.42370
1135.256, 11.45016
1135.739, 11.42121
1136.221, 11.27882
1136.703, 11.08825
1137.185, 10.99433
1137.667, 10.98631
1138.149, 11.04737
1138.631, 11.21308
1139.113, 11.31920
1139.596, 11.25416
1140.078, 11.15613
1140.560, 11.09368
1141.042, 11.06282
1141.524, 11.03642
1142.006, 11.01400
1142.488, 10.99100
1142.970, 10.96000
1143.453, 10.93699
1143.935, 10.94142
1144.417, 10.95034
1144.899, 10.94115
1145.381, 10.91246
1145.863, 10.87468
1146.345, 10.82918
1146.827, 10.81562
1147.309, 10.90754
1147.792, 10.99291
1148.274, 10.97646
1148.756, 10.90168
1149.238, 10.85062
1149.720, 10.82549
1150.202, 10.82026
1150.684, 10.83538
1151.166, 10.86025
1151.648, 10.91068
1152.131, 10.94562
1152.613, 10.91067
1153.095, 10.82396
1153.577, 10.76236
1154.059, 10.73251
1154.541, 10.71709
1155.023, 10.71319
1155.505, 10.72572
1155.988, 10.78706
1156.470, 10.85128
1156.952, 10.85369
1157.434, 10.79325
1157.916, 10.72918
1158.398, 10.63651
1158.880, 10.62734
1159.362, 10.75553
1159.844, 10.90808
1160.327, 10.91236
1160.809, 10.82785
1161.291, 10.74244
1161.773, 10.66731
1162.255, 10.62594
1162.737, 10.65675
1163.219, 10.65094
1163.701, 10.54366
1164.183, 10.41864
1164.666, 10.49626
1165.148, 10.68448
1165.630, 10.76806
1166.112, 10.67382
1166.594, 10.56904
1167.076, 10.45717
1167.558, 10.40356
1168.040, 10.45816
1168.523, 10.58026
1169.005, 10.65378
1169.487, 10.68348
1169.969, 10.67883
1170.451, 10.61036
1170.933, 10.41393
1171.415, 10.63047
1171.897, 10.75257
1172.380, 10.78530
1172.862, 10.46099
1173.344, 10.59772
1173.826, 10.54968
1174.308, 10.49407
1174.790, 10.69569
1175.272, 10.42331
1175.754, 10.62085
1176.236, 10.63081
1176.719, 10.72662
1177.201, 10.63652
1177.683, 10.60384
1178.165, 10.75713
1178.647, 10.80745
1179.129, 10.69595
1179.611, 10.79722
1180.093, 10.51834
1180.575, 10.57305
1181.058, 10.77168
1181.540, 10.66953
1182.022, 10.77419
1182.504, 10.80009
1182.986, 10.46803
1183.468, 10.75850
1183.950, 10.77974
1184.432, 10.52455
1184.915, 10.79369
1185.397, 10.57661
1185.879, 10.68407
1186.361, 10.74993
1186.843, 10.80055
1187.325, 10.82073
1187.807, 10.75661
1188.289, 10.69973
1188.771, 10.73582
1189.254, 10.82068
1189.736, 10.85144
1190.218, 10.82544
1190.700, 10.78718
1191.182, 10.73982
1191.664, 10.70993
1192.146, 10.72825
1192.628, 10.76524
1193.110, 10.81428
1193.593, 10.86259
1194.075, 10.86322
1194.557, 10.81101
1195.039, 10.78161
1195.521, 10.79059
1196.003, 10.81048
1196.485, 10.81704
1196.967, 10.82353
1197.450, 10.84240
1197.932, 10.87202
1198.414, 10.90542
1198.896, 10.94490
1199.378, 10.95266
1199.860, 10.91077
1200.342, 10.87658
1200.824, 10.93405
1201.307, 11.00121
1201.789, 10.98402
1202.271, 10.89172
1202.753, 10.87640
1203.235, 10.94535
1203.717, 10.99672
1204.199, 11.00192
1204.681, 10.97638
1205.163, 10.91153
1205.646, 10.83952
1206.128, 10.79016
1206.610, 10.76456
1207.092, 10.77402
1207.574, 10.82130
1208.056, 10.86739
1208.538, 10.90907
1209.020, 10.91527
1209.502, 10.78079
1209.985, 10.64158
1210.467, 10.69149
1210.949, 10.93490
1211.431, 11.01257
1211.913, 10.91330
1212.395, 10.84903
1212.877, 10.93809
1213.359, 11.02177
1213.842, 10.87634
1214.324, 10.68718
1214.806, 10.69507
1215.288, 10.91814
1215.770, 11.05405
1216.252, 11.10114
1216.734, 11.10076
1217.216, 11.05321
1217.698, 10.99765
1218.181, 10.95749
1218.663, 10.93482
1219.145, 10.94520
1219.627, 10.99756
1220.109, 10.93213
1220.591, 10.74445
1221.073, 10.65010
1221.555, 10.83121
1222.037, 11.03808
1222.520, 11.08323
1223.002, 11.03370
1223.484, 10.95606
1223.966, 10.83969
1224.448, 10.86378
1224.930, 11.02761
1225.412, 11.17342
1225.894, 11.21914
1226.377, 11.21466
1226.859, 11.18839
1227.341, 11.13314
1227.823, 11.02855
1228.305, 10.86271
1228.787, 10.80651
1229.269, 10.85494
1229.751, 10.91881
1230.234, 10.95958
1230.716, 10.98459
1231.198, 10.99231
1231.680, 10.98940
1232.162, 10.97235
1232.644, 10.93727
1233.126, 11.01834
1233.608, 11.19960
1234.090, 11.28506
1234.573, 11.04150
1235.055, 10.61404
1235.537, 10.83297
1236.019, 10.95745
1236.501, 10.99256
1236.983, 10.67064
1237.465, 10.80975
1237.947, 10.76410
1238.429, 10.71088
1238.912, 10.91489
1239.394, 10.64489
1239.876, 10.84482
1240.358, 10.85716
1240.840, 10.95535
1241.322, 10.86764
1241.804, 10.83735
1242.286, 10.99302
1242.769, 11.04573
1243.251, 10.92597
1243.733, 10.98018
1244.215, 10.97665
1244.697, 10.96247
1245.179, 11.00478
1245.661, 11.07698
1246.143, 11.03396
1246.625, 10.89728
1247.108, 10.79843
1247.590, 10.79617
1248.072, 10.84874
1248.554, 10.99236
1249.036, 11.10779
1249.518, 11.02367
1250.000, 10.82814
1250.482, 10.80482
1250.964, 10.91730
1251.447, 10.98944
1251.929, 10.89192
1252.411, 10.84778
1252.893, 10.89559
1253.375, 10.96573
1253.857, 10.97360
1254.339, 10.96367
1254.821, 11.05060
1255.304, 11.20085
1255.786, 11.28815
1256.268, 11.24685
1256.750, 11.19370
1257.232, 11.13496
1257.714, 11.06672
1258.196, 10.95729
1258.678, 10.85634
1259.161, 10.84651
1259.643, 10.90523
1260.125, 10.95878
1260.607, 10.99957
1261.089, 11.03120
1261.571, 11.05468
1262.053, 11.06212
1262.535, 11.03765
1263.017, 11.00158
1263.500, 10.97212
1263.982, 10.94817
1264.464, 10.92093
1264.946, 10.88057
1265.428, 10.90042
1265.910, 10.98952
1266.392, 11.03913
1266.874, 10.88965
1267.356, 10.74513
1267.839, 10.77948
1268.321, 10.91898
1268.803, 11.03280
1269.285, 11.12313
1269.767, 11.11398
1270.249, 11.00713
1270.731, 10.93489
1271.213, 11.04762
1271.696, 11.14312
1272.178, 11.05897
1272.660, 10.93778
1273.142, 10.95636
1273.624, 11.09419
1274.106, 11.14158
1274.588, 11.10108
1275.070, 11.05060
1275.552, 11.03735
1276.035, 11.00915
1276.517, 10.93025
1276.999, 10.85870
1277.481, 10.85957
1277.963, 10.91433
1278.445, 10.97461
1278.927, 11.03053
1279.409, 11.04960
1279.891, 10.98277
1280.374, 10.93140
1280.856, 10.90932
1281.338, 10.89974
1281.820, 10.87828
1282.302, 10.86392
1282.784, 10.92327
1283.266, 11.01993
1283.748, 11.04633
1284.230, 10.89797
1284.713, 10.85877
1285.195, 10.96379
1285.677, 11.05544
1286.159, 10.96389
1286.641, 10.83294
1287.123, 10.83406
1287.605, 10.92192
##END=



