##NAMES=Titanite
##RRUFFID=R040033
##IDEAL CHEMISTRY=CaTi^4+^SiO_5_
##LOCALITY=Brazil
##OWNER=RRUFF
##SOURCE=University of Arizona Mineral Museum
##DESCRIPTION=Green flattened wedge-shaped single crystals
##STATUS=The identification of this mineral has been confirmed by X-ray diffraction and chemical analysis
##URL=rruff.info/R040033
##MEASURED CHEMISTRY=(Ca_0.97_Fe^3+^_0.03_)_Σ=1_(Ti_0.97_Al_0.03_)_Σ=1_Si_1.00_O_5_; Fe^3+^ assigned for charge balance
136.3146, 3611.718
136.7967, 3630.513
137.2789, 3659.188
137.7610, 3697.380
138.2431, 3746.130
138.7252, 3807.613
139.2073, 3882.303
139.6894, 3967.750
140.1716, 4061.806
140.6537, 4163.838
141.1358, 4286.296
141.6179, 4434.578
142.1000, 4600.189
142.5821, 4772.819
143.0643, 4974.995
143.5464, 5140.854
144.0285, 5249.616
144.5106, 5307.163
144.9927, 5288.984
145.4748, 5173.751
145.9570, 4987.547
146.4391, 4806.687
146.9212, 4615.464
147.4033, 4445.928
147.8854, 4310.691
148.3675, 4215.855
148.8497, 4146.727
149.3318, 4108.194
149.8139, 4096.800
150.2960, 4097.147
150.7781, 4109.125
151.2602, 4132.711
151.7424, 4167.781
152.2245, 4215.486
152.7066, 4272.829
153.1887, 4338.844
153.6708, 4413.171
154.1529, 4498.724
154.6351, 4601.753
155.1172, 4713.146
155.5993, 4826.545
156.0814, 4941.046
156.5635, 5059.137
157.0456, 5185.195
157.5278, 5318.116
158.0099, 5444.076
158.4920, 5560.425
158.9741, 5669.793
159.4562, 5775.024
159.9383, 5886.225
160.4205, 5985.112
160.9026, 6068.666
161.3847, 6137.278
161.8668, 6182.418
162.3489, 6198.199
162.8310, 6190.096
163.3132, 6164.433
163.7953, 6119.482
164.2774, 6060.607
164.7595, 5989.482
165.2416, 5905.451
165.7237, 5812.547
166.2059, 5705.192
166.6880, 5590.561
167.1701, 5479.614
167.6522, 5376.723
168.1343, 5279.264
168.6164, 5184.204
169.0985, 5089.620
169.5807, 5003.049
170.0628, 4932.010
170.5449, 4872.328
171.0270, 4816.540
171.5091, 4756.429
171.9912, 4700.697
172.4734, 4658.304
172.9555, 4631.559
173.4376, 4614.144
173.9197, 4602.658
174.4018, 4596.384
174.8839, 4593.570
175.3661, 4595.888
175.8482, 4600.190
176.3303, 4601.405
176.8124, 4596.899
177.2945, 4593.640
177.7766, 4601.521
178.2588, 4618.157
178.7409, 4633.409
179.2230, 4638.968
179.7051, 4639.106
180.1872, 4641.313
180.6693, 4646.436
181.1515, 4654.870
181.6336, 4670.563
182.1157, 4692.125
182.5978, 4709.570
183.0799, 4713.532
183.5620, 4707.962
184.0442, 4703.835
184.5263, 4704.229
185.0084, 4705.677
185.4905, 4701.042
185.9726, 4690.588
186.4547, 4680.585
186.9369, 4677.642
187.4190, 4679.804
187.9011, 4678.627
188.3832, 4671.157
188.8653, 4660.556
189.3474, 4651.718
189.8296, 4644.433
190.3117, 4643.290
190.7938, 4653.563
191.2759, 4674.312
191.7580, 4697.920
192.2401, 4722.738
192.7223, 4749.542
193.2044, 4781.245
193.6865, 4818.414
194.1686, 4858.300
194.6507, 4898.247
195.1328, 4938.232
195.6150, 4979.445
196.0971, 5022.339
196.5792, 5066.227
197.0613, 5107.585
197.5434, 5145.372
198.0255, 5184.772
198.5077, 5231.372
198.9898, 5285.717
199.4719, 5337.566
199.9540, 5384.354
200.4361, 5426.487
200.9182, 5467.161
201.4004, 5505.927
201.8825, 5544.015
202.3646, 5582.650
202.8467, 5621.523
203.3288, 5661.247
203.8109, 5702.958
204.2931, 5746.038
204.7752, 5784.860
205.2573, 5819.070
205.7394, 5849.979
206.2215, 5878.681
206.7036, 5904.696
207.1858, 5929.673
207.6679, 5954.085
208.1500, 5977.862
208.6321, 5999.680
209.1142, 6018.891
209.5963, 6037.345
210.0785, 6057.743
210.5606, 6081.190
211.0427, 6101.894
211.5248, 6118.272
212.0069, 6130.430
212.4890, 6140.921
212.9712, 6147.477
213.4533, 6156.002
213.9354, 6173.133
214.4175, 6200.603
214.8996, 6232.231
215.3817, 6268.875
215.8639, 6310.241
216.3460, 6344.126
216.8281, 6365.882
217.3102, 6386.366
217.7923, 6417.819
218.2744, 6463.802
218.7565, 6512.372
219.2387, 6560.660
219.7208, 6609.117
220.2029, 6655.792
220.6850, 6700.632
221.1671, 6743.228
221.6492, 6781.707
222.1314, 6813.949
222.6135, 6847.709
223.0956, 6883.543
223.5777, 6921.846
224.0598, 6964.603
224.5419, 7014.546
225.0241, 7066.352
225.5062, 7115.134
225.9883, 7159.142
226.4704, 7203.102
226.9525, 7247.260
227.4346, 7292.236
227.9168, 7335.561
228.3989, 7374.680
228.8810, 7414.841
229.3631, 7460.843
229.8452, 7514.655
230.3273, 7571.772
230.8095, 7633.638
231.2916, 7700.745
231.7737, 7759.897
232.2558, 7812.675
232.7379, 7855.970
233.2200, 7887.520
233.7022, 7913.366
234.1843, 7915.267
234.6664, 7884.479
235.1485, 7820.904
235.6306, 7757.105
236.1127, 7690.251
236.5949, 7625.198
237.0770, 7564.889
237.5591, 7504.044
238.0412, 7458.257
238.5233, 7431.509
239.0054, 7423.794
239.4876, 7426.550
239.9697, 7437.513
240.4518, 7461.327
240.9339, 7503.151
241.4160, 7568.900
241.8981, 7640.588
242.3803, 7713.309
242.8624, 7787.785
243.3445, 7876.991
243.8266, 7989.098
244.3087, 8107.410
244.7908, 8218.119
245.2730, 8317.442
245.7551, 8416.818
246.2372, 8519.894
246.7193, 8625.681
247.2014, 8722.055
247.6835, 8807.731
248.1657, 8884.269
248.6478, 8952.366
249.1299, 9015.384
249.6120, 9063.682
250.0941, 9096.196
250.5762, 9113.084
251.0584, 9114.881
251.5405, 9099.909
252.0226, 9072.295
252.5047, 9034.625
252.9868, 8985.065
253.4689, 8930.182
253.9511, 8872.759
254.4332, 8810.888
254.9153, 8734.553
255.3974, 8641.156
255.8795, 8537.990
256.3616, 8431.201
256.8438, 8322.287
257.3259, 8204.186
257.8080, 8073.922
258.2901, 7934.715
258.7722, 7794.571
259.2543, 7654.052
259.7365, 7510.477
260.2186, 7357.676
260.7007, 7192.509
261.1828, 7031.487
261.6649, 6874.896
262.1470, 6723.444
262.6292, 6573.951
263.1113, 6426.038
263.5934, 6282.567
264.0755, 6146.154
264.5576, 6017.177
265.0397, 5889.050
265.5219, 5758.219
266.0040, 5629.664
266.4861, 5511.863
266.9682, 5408.026
267.4503, 5309.270
267.9324, 5214.290
268.4146, 5121.974
268.8967, 5032.267
269.3788, 4944.852
269.8609, 4860.475
270.3430, 4782.611
270.8251, 4712.408
271.3073, 4645.223
271.7894, 4578.756
272.2715, 4511.851
272.7536, 4457.224
273.2357, 4417.471
273.7178, 4386.875
274.2000, 4356.642
274.6821, 4326.454
275.1642, 4298.495
275.6463, 4273.254
276.1284, 4250.706
276.6105, 4231.370
277.0927, 4214.950
277.5748, 4202.361
278.0569, 4195.431
278.5390, 4194.630
279.0211, 4195.711
279.5032, 4196.228
279.9854, 4197.028
280.4675, 4206.334
280.9496, 4225.208
281.4317, 4249.164
281.9138, 4273.316
282.3959, 4297.567
282.8781, 4325.187
283.3602, 4356.605
283.8423, 4392.282
284.3244, 4433.867
284.8065, 4481.968
285.2886, 4533.244
285.7708, 4584.708
286.2529, 4636.429
286.7350, 4690.911
287.2171, 4750.915
287.6992, 4812.604
288.1813, 4864.442
288.6635, 4906.489
289.1456, 4941.996
289.6277, 4973.240
290.1098, 5000.170
290.5919, 5021.795
291.0740, 5038.214
291.5562, 5049.207
292.0383, 5054.133
292.5204, 5053.060
293.0025, 5046.528
293.4846, 5029.397
293.9667, 5006.232
294.4489, 4992.643
294.9310, 4990.712
295.4131, 4998.690
295.8952, 5012.023
296.3773, 5031.948
296.8594, 5065.903
297.3416, 5122.723
297.8237, 5196.659
298.3058, 5272.922
298.7879, 5350.178
299.2700, 5434.117
299.7521, 5532.165
300.2343, 5642.166
300.7164, 5752.435
301.1985, 5859.790
301.6806, 5964.563
302.1627, 6064.597
302.6448, 6160.390
303.1270, 6255.317
303.6091, 6358.188
304.0912, 6462.502
304.5733, 6559.676
305.0554, 6641.767
305.5375, 6716.275
306.0197, 6792.666
306.5018, 6870.044
306.9839, 6938.440
307.4660, 6980.771
307.9481, 7010.990
308.4302, 7048.675
308.9124, 7102.897
309.3945, 7164.543
309.8766, 7225.846
310.3587, 7288.176
310.8408, 7355.720
311.3229, 7429.798
311.8051, 7511.548
312.2872, 7601.026
312.7693, 7702.784
313.2514, 7805.573
313.7335, 7909.806
314.2156, 8011.470
314.6978, 8100.267
315.1799, 8177.237
315.6620, 8236.321
316.1441, 8273.271
316.6262, 8290.917
317.1083, 8278.227
317.5905, 8225.740
318.0726, 8140.544
318.5547, 8033.822
319.0368, 7903.813
319.5189, 7757.793
320.0010, 7596.997
320.4832, 7417.563
320.9653, 7240.521
321.4474, 7065.260
321.9295, 6897.758
322.4116, 6745.005
322.8937, 6608.261
323.3759, 6486.842
323.8580, 6381.473
324.3401, 6293.377
324.8222, 6215.918
325.3043, 6147.737
325.7864, 6090.136
326.2686, 6044.118
326.7507, 6013.089
327.2328, 5989.931
327.7149, 5974.616
328.1970, 5966.997
328.6791, 5964.315
329.1613, 5973.120
329.6434, 5981.556
330.1255, 5983.503
330.6076, 5972.179
331.0897, 5964.255
331.5718, 5963.669
332.0540, 5966.530
332.5361, 5962.158
333.0182, 5951.734
333.5003, 5932.464
333.9824, 5902.700
334.4645, 5859.706
334.9467, 5814.125
335.4288, 5766.875
335.9109, 5716.695
336.3930, 5662.285
336.8751, 5601.983
337.3572, 5540.376
337.8394, 5478.691
338.3215, 5417.650
338.8036, 5350.989
339.2857, 5275.240
339.7678, 5199.682
340.2499, 5132.469
340.7320, 5075.118
341.2141, 5024.081
341.6963, 4979.869
342.1784, 4941.595
342.6605, 4904.454
343.1426, 4867.331
343.6247, 4837.906
344.1068, 4824.388
344.5890, 4826.354
345.0711, 4832.317
345.5532, 4840.930
346.0353, 4852.148
346.5174, 4864.388
346.9995, 4877.813
347.4817, 4897.003
347.9638, 4930.812
348.4459, 4973.616
348.9280, 5006.691
349.4101, 5029.534
349.8922, 5038.823
350.3744, 5030.490
350.8565, 5004.962
351.3386, 4963.053
351.8207, 4906.588
352.3028, 4833.897
352.7849, 4740.008
353.2671, 4624.032
353.7492, 4493.304
354.2313, 4344.715
354.7134, 4187.380
355.1955, 4034.804
355.6776, 3891.851
356.1598, 3757.171
356.6419, 3625.922
357.1240, 3499.292
357.6061, 3383.660
358.0882, 3286.072
358.5703, 3199.616
359.0525, 3119.262
359.5346, 3044.851
360.0167, 2973.887
360.4988, 2904.837
360.9809, 2838.512
361.4630, 2777.439
361.9452, 2724.471
362.4273, 2675.607
362.9094, 2629.055
363.3915, 2584.868
363.8736, 2541.392
364.3557, 2498.139
364.8379, 2455.620
365.3200, 2414.667
365.8021, 2376.625
366.2842, 2338.878
366.7663, 2301.059
367.2484, 2263.001
367.7306, 2225.349
368.2127, 2188.947
368.6948, 2152.631
369.1769, 2115.284
369.6590, 2072.866
370.1411, 2034.362
370.6233, 2001.243
371.1054, 1972.373
371.5875, 1943.341
372.0696, 1913.914
372.5517, 1884.984
373.0338, 1856.661
373.5160, 1828.638
373.9981, 1801.989
374.4802, 1777.208
374.9623, 1753.079
375.4444, 1727.497
375.9265, 1698.746
376.4087, 1672.655
376.8908, 1651.515
377.3729, 1635.065
377.8550, 1618.177
378.3371, 1600.590
378.8192, 1583.643
379.3014, 1569.243
379.7835, 1557.379
380.2656, 1545.312
380.7477, 1531.745
381.2298, 1518.380
381.7119, 1509.845
382.1941, 1506.272
382.6762, 1504.148
383.1583, 1500.829
383.6404, 1496.953
384.1225, 1495.596
384.6046, 1497.534
385.0868, 1500.232
385.5689, 1500.949
386.0510, 1499.804
386.5331, 1497.295
387.0152, 1492.620
387.4973, 1487.150
387.9795, 1483.574
388.4616, 1481.921
388.9437, 1478.863
389.4258, 1471.587
389.9079, 1461.355
390.3900, 1450.012
390.8722, 1437.883
391.3543, 1425.150
391.8364, 1411.885
392.3185, 1398.256
392.8006, 1384.419
393.2827, 1369.077
393.7649, 1354.422
394.2470, 1342.235
394.7291, 1333.228
395.2112, 1325.392
395.6933, 1316.502
396.1754, 1308.630
396.6576, 1304.892
397.1397, 1309.259
397.6218, 1314.787
398.1039, 1318.779
398.5860, 1320.786
399.0681, 1325.289
399.5503, 1333.489
400.0324, 1343.946
400.5145, 1355.431
400.9966, 1366.657
401.4787, 1380.831
401.9608, 1398.785
402.4430, 1419.918
402.9251, 1441.826
403.4072, 1463.956
403.8893, 1487.820
404.3714, 1513.760
404.8535, 1541.841
405.3357, 1572.419
405.8178, 1605.434
406.2999, 1640.523
406.7820, 1677.339
407.2641, 1716.135
407.7462, 1755.075
408.2284, 1793.539
408.7105, 1831.375
409.1926, 1871.355
409.6747, 1913.538
410.1568, 1957.463
410.6389, 2002.990
411.1211, 2049.761
411.6032, 2097.643
412.0853, 2146.289
412.5674, 2197.136
413.0495, 2255.073
413.5316, 2319.446
414.0138, 2385.055
414.4959, 2449.317
414.9780, 2513.859
415.4601, 2579.803
415.9422, 2647.745
416.4243, 2718.173
416.9065, 2793.659
417.3886, 2871.812
417.8707, 2947.531
418.3528, 3019.528
418.8349, 3088.906
419.3170, 3159.747
419.7992, 3230.778
420.2813, 3292.514
420.7634, 3343.266
421.2455, 3383.209
421.7276, 3412.576
422.2097, 3431.881
422.6919, 3440.221
423.1740, 3439.279
423.6561, 3426.974
424.1382, 3399.981
424.6203, 3351.144
425.1024, 3294.874
425.5846, 3232.926
426.0667, 3165.415
426.5488, 3095.796
427.0309, 3022.933
427.5130, 2948.165
427.9951, 2871.440
428.4773, 2788.892
428.9594, 2712.870
429.4415, 2644.705
429.9236, 2583.610
430.4057, 2526.895
430.8878, 2475.435
431.3700, 2426.697
431.8521, 2378.295
432.3342, 2330.240
432.8163, 2292.062
433.2984, 2265.116
433.7805, 2243.376
434.2627, 2219.860
434.7448, 2195.020
435.2269, 2173.605
435.7090, 2157.092
436.1911, 2144.043
436.6732, 2131.002
437.1554, 2118.270
437.6375, 2108.986
438.1196, 2107.874
438.6017, 2110.787
439.0838, 2109.833
439.5659, 2103.005
440.0480, 2098.344
440.5302, 2104.231
441.0123, 2116.639
441.4944, 2128.815
441.9765, 2139.602
442.4586, 2147.986
442.9407, 2151.034
443.4229, 2149.735
443.9050, 2152.194
444.3871, 2163.418
444.8692, 2178.394
445.3513, 2193.728
445.8334, 2207.423
446.3156, 2224.159
446.7977, 2244.257
447.2798, 2267.884
447.7619, 2295.384
448.2440, 2328.714
448.7261, 2363.583
449.2083, 2398.142
449.6904, 2432.311
450.1725, 2470.783
450.6546, 2513.703
451.1367, 2560.153
451.6188, 2609.926
452.1010, 2664.675
452.5831, 2717.510
453.0652, 2766.453
453.5473, 2815.414
454.0294, 2876.150
454.5115, 2950.365
454.9937, 3024.542
455.4758, 3092.181
455.9579, 3154.710
456.4400, 3221.111
456.9221, 3291.941
457.4042, 3366.410
457.8864, 3444.620
458.3685, 3526.214
458.8506, 3613.035
459.3327, 3705.791
459.8148, 3802.183
460.2969, 3901.858
460.7791, 4003.929
461.2612, 4102.331
461.7433, 4192.320
462.2254, 4278.438
462.7075, 4363.849
463.1896, 4449.958
463.6718, 4532.157
464.1539, 4614.079
464.6360, 4687.993
465.1181, 4744.688
465.6002, 4778.960
466.0823, 4799.044
466.5645, 4808.074
467.0466, 4804.661
467.5287, 4783.368
468.0108, 4747.569
468.4929, 4689.595
468.9750, 4604.644
469.4572, 4487.399
469.9393, 4363.960
470.4214, 4236.064
470.9035, 4101.222
471.3856, 3954.145
471.8677, 3787.753
472.3499, 3630.741
472.8320, 3486.157
473.3141, 3352.768
473.7962, 3223.354
474.2783, 3097.287
474.7604, 2979.960
475.2426, 2874.899
475.7247, 2781.144
476.2068, 2695.916
476.6889, 2618.657
477.1710, 2549.759
477.6531, 2490.889
478.1353, 2440.823
478.6174, 2396.204
479.0995, 2355.854
479.5816, 2320.397
480.0637, 2290.532
480.5458, 2266.268
481.0280, 2248.333
481.5101, 2241.492
481.9922, 2238.264
482.4743, 2232.139
482.9564, 2221.369
483.4385, 2213.056
483.9207, 2210.045
484.4028, 2211.012
484.8849, 2214.630
485.3670, 2223.766
485.8491, 2232.025
486.3312, 2238.329
486.8134, 2242.824
487.2955, 2246.212
487.7776, 2245.252
488.2597, 2247.110
488.7418, 2255.790
489.2239, 2273.584
489.7061, 2286.448
490.1882, 2292.549
490.6703, 2296.461
491.1524, 2303.915
491.6345, 2315.684
492.1166, 2324.930
492.5988, 2329.420
493.0809, 2331.603
493.5630, 2338.876
494.0451, 2351.049
494.5272, 2361.103
495.0093, 2363.692
495.4915, 2361.373
495.9736, 2359.557
496.4557, 2358.461
496.9378, 2358.447
497.4199, 2362.547
497.9020, 2367.321
498.3842, 2366.875
498.8663, 2354.969
499.3484, 2343.898
499.8305, 2342.776
500.3126, 2348.660
500.7947, 2354.026
501.2769, 2354.944
501.7590, 2355.818
502.2411, 2358.847
502.7232, 2364.516
503.2053, 2370.163
503.6874, 2374.164
504.1696, 2378.788
504.6517, 2385.676
505.1338, 2396.161
505.6159, 2406.329
506.0980, 2414.806
506.5801, 2423.248
507.0623, 2435.581
507.5444, 2452.585
508.0265, 2471.586
508.5086, 2492.628
508.9907, 2515.232
509.4728, 2534.571
509.9550, 2550.029
510.4371, 2566.482
510.9192, 2589.034
511.4013, 2616.315
511.8834, 2642.466
512.3655, 2666.610
512.8477, 2690.082
513.3298, 2713.936
513.8119, 2738.348
514.2940, 2763.694
514.7761, 2790.723
515.2582, 2818.343
515.7404, 2845.413
516.2225, 2872.252
516.7046, 2901.127
517.1867, 2935.561
517.6688, 2970.623
518.1509, 3002.624
518.6331, 3028.740
519.1152, 3057.549
519.5973, 3091.178
520.0794, 3127.781
520.5615, 3164.357
521.0436, 3200.205
521.5258, 3237.426
522.0079, 3277.398
522.4900, 3319.028
522.9721, 3356.445
523.4542, 3386.870
523.9363, 3419.044
524.4185, 3458.187
524.9006, 3504.436
525.3827, 3548.946
525.8648, 3591.505
526.3469, 3634.707
526.8290, 3680.934
527.3112, 3730.154
527.7933, 3782.653
528.2754, 3839.333
528.7575, 3898.838
529.2396, 3961.599
529.7217, 4027.014
530.2039, 4091.952
530.6860, 4154.188
531.1681, 4216.428
531.6502, 4281.786
532.1323, 4350.620
532.6144, 4421.047
533.0966, 4496.741
533.5787, 4571.399
534.0608, 4641.306
534.5429, 4700.446
535.0250, 4762.711
535.5071, 4831.563
535.9893, 4902.534
536.4714, 4968.170
536.9535, 5029.169
537.4356, 5083.194
537.9177, 5128.361
538.3998, 5165.917
538.8820, 5201.089
539.3641, 5233.714
539.8462, 5263.029
540.3283, 5289.356
540.8104, 5312.044
541.2925, 5326.417
541.7747, 5331.775
542.2568, 5331.521
542.7389, 5330.874
543.2210, 5327.403
543.7031, 5314.427
544.1852, 5285.860
544.6674, 5254.148
545.1495, 5233.149
545.6316, 5218.344
546.1137, 5198.405
546.5958, 5165.873
547.0779, 5128.890
547.5601, 5090.481
548.0422, 5050.826
548.5243, 5012.728
549.0064, 4979.655
549.4885, 4946.249
549.9706, 4909.526
550.4528, 4872.289
550.9349, 4825.869
551.4170, 4765.405
551.8991, 4698.651
552.3812, 4637.483
552.8633, 4584.228
553.3455, 4526.901
553.8276, 4462.192
554.3097, 4391.699
554.7918, 4317.370
555.2739, 4240.446
555.7560, 4168.751
556.2382, 4110.304
556.7203, 4060.276
557.2024, 4007.592
557.6845, 3951.671
558.1666, 3897.081
558.6487, 3847.473
559.1309, 3801.865
559.6130, 3759.921
560.0951, 3721.278
560.5772, 3686.035
561.0593, 3655.947
561.5414, 3628.887
562.0236, 3601.563
562.5057, 3566.105
562.9878, 3537.263
563.4699, 3521.541
563.9520, 3517.645
564.4341, 3511.019
564.9163, 3497.297
565.3984, 3486.950
565.8805, 3485.735
566.3626, 3495.227
566.8447, 3503.471
567.3268, 3508.913
567.8090, 3517.582
568.2911, 3538.208
568.7732, 3569.622
569.2553, 3598.758
569.7374, 3621.415
570.2195, 3644.601
570.7017, 3678.479
571.1838, 3721.942
571.6659, 3770.604
572.1480, 3824.881
572.6301, 3882.233
573.1122, 3940.164
573.5944, 3999.352
574.0765, 4061.645
574.5586, 4131.063
575.0407, 4201.304
575.5228, 4268.143
576.0049, 4326.736
576.4871, 4392.786
576.9692, 4469.402
577.4513, 4553.139
577.9334, 4642.704
578.4155, 4736.916
578.8976, 4836.729
579.3798, 4942.653
579.8619, 5054.011
580.3440, 5165.468
580.8261, 5276.035
581.3082, 5394.063
581.7903, 5524.158
582.2725, 5663.577
582.7546, 5800.037
583.2367, 5934.116
583.7188, 6075.077
584.2009, 6229.374
584.6830, 6393.112
585.1652, 6562.858
585.6473, 6739.794
586.1294, 6915.404
586.6115, 7078.466
587.0936, 7242.406
587.5757, 7419.295
588.0578, 7619.721
588.5399, 7824.465
589.0220, 8031.870
589.5042, 8241.137
589.9863, 8450.415
590.4684, 8654.569
590.9505, 8863.462
591.4326, 9081.331
591.9147, 9306.666
592.3969, 9524.126
592.8790, 9730.892
593.3611, 9941.986
593.8432, 10172.96
594.3253, 10416.18
594.8074, 10651.29
595.2896, 10877.00
595.7717, 11100.01
596.2538, 11327.10
596.7359, 11556.28
597.2180, 11785.74
597.7001, 12010.77
598.1823, 12234.56
598.6644, 12462.70
599.1465, 12689.52
599.6286, 12906.13
600.1107, 13101.63
600.5928, 13291.78
601.0750, 13487.19
601.5571, 13683.69
602.0392, 13856.22
602.5213, 13993.22
603.0034, 14123.85
603.4855, 14262.05
603.9677, 14411.35
604.4498, 14530.66
604.9319, 14617.52
605.4140, 14684.37
605.8961, 14740.62
606.3782, 14786.15
606.8604, 14816.17
607.3425, 14831.10
607.8246, 14827.15
608.3067, 14794.13
608.7888, 14738.99
609.2709, 14677.78
609.7531, 14624.31
610.2352, 14557.56
610.7173, 14458.15
611.1994, 14333.84
611.6815, 14205.22
612.1636, 14086.52
612.6458, 13956.62
613.1279, 13801.12
613.6100, 13620.61
614.0921, 13446.55
614.5742, 13285.62
615.0563, 13120.00
615.5385, 12938.08
616.0206, 12734.23
616.5027, 12538.93
616.9848, 12355.20
617.4669, 12171.74
617.9490, 11976.92
618.4312, 11773.47
618.9133, 11581.50
619.3954, 11405.41
619.8775, 11235.65
620.3596, 11060.90
620.8417, 10882.22
621.3239, 10705.83
621.8060, 10532.44
622.2881, 10359.12
622.7702, 10181.18
623.2523, 10000.73
623.7344, 9826.572
624.2166, 9662.049
624.6987, 9502.590
625.1808, 9348.496
625.6629, 9199.284
626.1450, 9051.494
626.6271, 8903.265
627.1093, 8756.719
627.5914, 8613.775
628.0735, 8474.830
628.5556, 8331.595
629.0377, 8182.752
629.5198, 8036.858
630.0020, 7906.091
630.4841, 7785.896
630.9662, 7660.815
631.4483, 7523.850
631.9304, 7387.802
632.4125, 7266.536
632.8947, 7155.858
633.3768, 7044.202
633.8589, 6924.997
634.3410, 6807.801
634.8231, 6696.819
635.3052, 6591.607
635.7874, 6488.463
636.2695, 6384.058
636.7516, 6285.742
637.2337, 6198.945
637.7158, 6123.542
638.1979, 6042.488
638.6801, 5952.952
639.1622, 5863.938
639.6443, 5782.439
640.1264, 5708.313
640.6085, 5634.922
641.0906, 5562.099
641.5728, 5490.188
642.0549, 5417.755
642.5370, 5346.470
643.0191, 5278.122
643.5012, 5213.478
643.9833, 5151.430
644.4655, 5091.199
644.9476, 5033.030
645.4297, 4974.879
645.9118, 4915.924
646.3939, 4858.208
646.8760, 4802.653
647.3582, 4748.851
647.8403, 4697.094
648.3224, 4645.274
648.8045, 4598.833
649.2866, 4561.999
649.7687, 4532.767
650.2509, 4494.112
650.7330, 4444.919
651.2151, 4394.440
651.6972, 4350.332
652.1793, 4309.498
652.6614, 4265.348
653.1436, 4217.088
653.6257, 4170.870
654.1078, 4132.729
654.5899, 4099.371
655.0720, 4067.109
655.5541, 4036.408
656.0363, 4004.401
656.5184, 3969.711
657.0005, 3933.829
657.4826, 3898.314
657.9647, 3863.210
658.4468, 3828.972
658.9290, 3796.055
659.4111, 3763.765
659.8932, 3730.148
660.3753, 3694.937
660.8574, 3660.338
661.3395, 3626.839
661.8217, 3594.639
662.3038, 3564.980
662.7859, 3537.480
663.2680, 3509.650
663.7501, 3478.118
664.2322, 3446.700
664.7144, 3419.847
665.1965, 3397.555
665.6786, 3373.687
666.1607, 3345.091
666.6428, 3314.532
667.1249, 3283.352
667.6071, 3250.583
668.0892, 3220.310
668.5713, 3192.527
669.0534, 3167.015
669.5355, 3144.795
670.0176, 3126.675
670.4998, 3105.205
670.9819, 3078.765
671.4640, 3051.274
671.9461, 3029.897
672.4282, 3012.906
672.9103, 2991.422
673.3925, 2960.080
673.8746, 2927.745
674.3567, 2904.637
674.8388, 2887.454
675.3209, 2869.288
675.8030, 2844.852
676.2852, 2821.615
676.7673, 2804.061
677.2494, 2790.805
677.7315, 2773.506
678.2136, 2749.143
678.6957, 2724.340
679.1779, 2701.377
679.6600, 2679.947
680.1421, 2659.601
680.6242, 2640.161
681.1063, 2621.366
681.5884, 2602.838
682.0706, 2584.602
682.5527, 2567.668
683.0348, 2551.958
683.5169, 2535.233
683.9990, 2514.179
684.4811, 2491.545
684.9633, 2470.073
685.4454, 2450.756
685.9275, 2431.756
686.4096, 2410.793
686.8917, 2390.467
687.3738, 2373.753
687.8560, 2364.336
688.3381, 2351.902
688.8202, 2334.357
689.3023, 2314.771
689.7844, 2298.641
690.2665, 2286.125
690.7487, 2272.325
691.2308, 2255.264
691.7129, 2237.215
692.1950, 2221.693
692.6771, 2208.221
693.1592, 2194.895
693.6414, 2182.227
694.1235, 2168.119
694.6056, 2149.656
695.0877, 2128.170
695.5698, 2108.546
696.0519, 2094.552
696.5341, 2080.716
697.0162, 2064.661
697.4983, 2046.513
697.9804, 2028.154
698.4625, 2008.249
698.9446, 1990.913
699.4268, 1980.192
699.9089, 1975.559
700.3910, 1966.690
700.8731, 1953.390
701.3552, 1938.363
701.8373, 1922.851
702.3195, 1907.480
702.8016, 1893.939
703.2837, 1882.650
703.7658, 1870.987
704.2479, 1855.966
704.7300, 1840.501
705.2122, 1827.575
705.6943, 1821.258
706.1764, 1811.444
706.6585, 1793.768
707.1406, 1774.770
707.6227, 1762.953
708.1049, 1760.983
708.5870, 1754.847
709.0691, 1741.646
709.5512, 1725.118
710.0333, 1711.522
710.5154, 1700.422
710.9976, 1689.881
711.4797, 1679.493
711.9618, 1669.019
712.4439, 1659.034
712.9260, 1648.853
713.4081, 1636.601
713.8903, 1616.673
714.3724, 1599.499
714.8545, 1590.238
715.3366, 1587.722
715.8187, 1583.674
716.3008, 1578.318
716.7830, 1570.831
717.2651, 1559.953
717.7472, 1546.356
718.2293, 1536.688
718.7114, 1531.248
719.1935, 1524.833
719.6757, 1512.199
720.1578, 1496.878
720.6399, 1485.160
721.1220, 1477.252
721.6041, 1471.223
722.0862, 1468.841
722.5684, 1465.908
723.0505, 1458.891
723.5326, 1446.632
724.0147, 1434.152
724.4968, 1420.338
724.9789, 1408.234
725.4611, 1400.283
725.9432, 1398.279
726.4253, 1393.327
726.9074, 1384.733
727.3895, 1374.892
727.8716, 1366.683
728.3538, 1359.466
728.8359, 1350.483
729.3180, 1338.780
729.8001, 1327.590
730.2822, 1321.069
730.7643, 1316.306
731.2465, 1309.416
731.7286, 1297.635
732.2107, 1286.208
732.6928, 1276.056
733.1749, 1267.265
733.6570, 1260.095
734.1392, 1255.535
734.6213, 1250.516
735.1034, 1244.684
735.5855, 1238.078
736.0676, 1230.497
736.5497, 1222.011
737.0319, 1213.830
737.5140, 1206.771
737.9961, 1199.797
738.4782, 1191.385
738.9603, 1181.995
739.4424, 1172.796
739.9246, 1164.056
740.4067, 1155.914
740.8888, 1148.600
741.3709, 1142.047
741.8530, 1135.620
742.3351, 1129.868
742.8173, 1123.271
743.2994, 1114.837
743.7815, 1105.156
744.2636, 1097.718
744.7457, 1092.668
745.2278, 1087.715
745.7100, 1081.957
746.1921, 1075.376
746.6742, 1067.365
747.1563, 1058.193
747.6384, 1050.016
748.1205, 1044.668
748.6027, 1040.169
749.0848, 1034.819
749.5669, 1028.452
750.0490, 1024.160
750.5311, 1024.984
751.0132, 1024.948
751.4954, 1020.830
751.9775, 1012.195
752.4596, 1005.639
752.9417, 1001.406
753.4238, 997.7050
753.9059, 992.9648
754.3881, 987.6170
754.8702, 982.6613
755.3523, 978.2249
755.8344, 973.8206
756.3165, 968.5037
756.7986, 963.4928
757.2808, 960.1857
757.7629, 959.4583
758.2450, 957.8047
758.7271, 954.3362
759.2092, 950.0013
759.6913, 944.9683
760.1735, 938.5253
760.6556, 934.8818
761.1377, 934.8042
761.6198, 935.3696
762.1019, 933.2552
762.5840, 929.0946
763.0662, 924.6121
763.5483, 919.7905
764.0304, 916.2770
764.5125, 917.3006
764.9946, 919.6605
765.4767, 919.5502
765.9589, 914.3085
766.4410, 909.7292
766.9231, 906.2928
767.4052, 904.2870
767.8873, 904.8220
768.3694, 909.5179
768.8516, 909.9243
769.3337, 904.1302
769.8158, 896.1400
770.2979, 891.4902
770.7800, 889.6305
771.2621, 888.6359
771.7443, 888.1071
772.2264, 888.0382
772.7085, 889.2196
773.1906, 890.6334
773.6727, 890.7614
774.1548, 888.7256
774.6370, 885.8939
775.1191, 881.6624
775.6012, 877.1493
776.0833, 874.1626
776.5654, 872.8696
777.0475, 872.4427
777.5297, 872.9606
778.0118, 873.8421
778.4939, 874.3184
778.9760, 874.2994
779.4581, 873.3619
779.9402, 870.6891
780.4224, 867.9976
780.9045, 866.8965
781.3866, 866.7179
781.8687, 866.2318
782.3508, 865.0253
782.8329, 863.4753
783.3151, 861.0070
783.7972, 858.4819
784.2793, 858.0337
784.7614, 860.0330
785.2435, 862.1359
785.7256, 863.7877
786.2077, 865.0958
786.6898, 866.4227
787.1719, 867.6356
787.6541, 868.1461
788.1362, 867.0179
788.6183, 865.8205
789.1004, 865.3555
789.5825, 865.6525
790.0646, 866.7799
790.5468, 870.0340
791.0289, 872.5632
791.5110, 873.3315
791.9931, 873.1213
792.4752, 873.9551
792.9573, 875.7225
793.4395, 879.8478
793.9216, 888.3916
794.4037, 897.9800
794.8858, 901.1526
795.3679, 899.7094
795.8500, 899.2340
796.3322, 902.8553
796.8143, 907.7946
797.2964, 912.7631
797.7785, 917.8323
798.2606, 923.2246
798.7427, 929.0946
799.2249, 935.0909
799.7070, 941.1364
800.1891, 947.2391
800.6712, 953.2082
801.1533, 959.0131
801.6354, 966.2448
802.1176, 976.0411
802.5997, 987.2054
803.0818, 998.4906
803.5639, 1009.719
804.0460, 1020.337
804.5281, 1028.702
805.0103, 1037.787
805.4924, 1049.002
805.9745, 1062.129
806.4566, 1076.216
806.9387, 1092.288
807.4208, 1106.523
807.9030, 1116.916
808.3851, 1125.319
808.8672, 1137.649
809.3493, 1153.541
809.8314, 1169.801
810.3135, 1185.194
810.7957, 1199.750
811.2778, 1213.653
811.7599, 1226.702
812.2420, 1238.353
812.7241, 1246.305
813.2062, 1255.176
813.6884, 1267.201
814.1705, 1281.227
814.6526, 1293.341
815.1347, 1303.270
815.6168, 1312.969
816.0989, 1323.637
816.5811, 1333.954
817.0632, 1340.733
817.5453, 1344.490
818.0274, 1347.211
818.5095, 1349.196
818.9916, 1351.117
819.4738, 1353.655
819.9559, 1356.483
820.4380, 1358.693
820.9201, 1360.136
821.4022, 1360.860
821.8843, 1360.532
822.3665, 1359.647
822.8486, 1359.450
823.3307, 1359.950
823.8128, 1360.932
824.2949, 1362.597
824.7770, 1364.297
825.2592, 1364.835
825.7413, 1364.655
826.2234, 1364.853
826.7055, 1365.127
827.1876, 1366.679
827.6697, 1370.673
828.1519, 1376.183
828.6340, 1380.958
829.1161, 1383.932
829.5982, 1388.623
830.0803, 1395.786
830.5624, 1404.794
831.0446, 1414.649
831.5267, 1425.325
832.0088, 1436.931
832.4909, 1448.559
832.9730, 1462.769
833.4551, 1483.726
833.9373, 1508.359
834.4194, 1531.621
834.9015, 1547.242
835.3836, 1568.417
835.8657, 1598.313
836.3478, 1633.168
836.8300, 1666.956
837.3121, 1699.088
837.7942, 1732.479
838.2763, 1767.280
838.7584, 1805.432
839.2405, 1850.902
839.7227, 1901.625
840.2048, 1953.289
840.6869, 2005.372
841.1690, 2058.179
841.6511, 2111.871
842.1332, 2166.932
842.6154, 2223.916
843.0975, 2281.669
843.5796, 2343.963
844.0617, 2412.252
844.5438, 2482.913
845.0259, 2550.679
845.5081, 2616.347
845.9902, 2682.154
846.4723, 2748.211
846.9544, 2815.914
847.4365, 2888.522
847.9186, 2962.676
848.4008, 3033.540
848.8829, 3099.120
849.3650, 3166.097
849.8471, 3237.757
850.3292, 3308.796
850.8113, 3375.970
851.2935, 3439.485
851.7756, 3497.614
852.2577, 3549.974
852.7398, 3597.273
853.2219, 3642.406
853.7040, 3682.477
854.1862, 3712.890
854.6683, 3732.766
855.1504, 3744.853
855.6325, 3751.005
856.1146, 3748.939
856.5967, 3737.320
857.0789, 3716.486
857.5610, 3684.956
858.0431, 3641.102
858.5252, 3592.227
859.0073, 3544.188
859.4894, 3494.983
859.9716, 3434.622
860.4537, 3363.657
860.9358, 3293.810
861.4179, 3232.261
861.9000, 3174.033
862.3821, 3114.136
862.8643, 3053.160
863.3464, 2996.565
863.8285, 2946.607
864.3106, 2899.171
864.7927, 2852.681
865.2748, 2807.932
865.7570, 2771.464
866.2391, 2742.673
866.7212, 2716.223
867.2033, 2687.742
867.6854, 2661.070
868.1675, 2643.066
868.6497, 2629.958
869.1318, 2611.550
869.6139, 2578.627
870.0960, 2546.596
870.5781, 2520.869
871.0602, 2497.913
871.5424, 2468.977
872.0245, 2433.723
872.5066, 2396.342
872.9887, 2358.987
873.4708, 2317.170
873.9529, 2260.431
874.4351, 2194.011
874.9172, 2130.447
875.3993, 2073.886
875.8814, 2019.086
876.3635, 1964.704
876.8456, 1910.678
877.3278, 1857.063
877.8099, 1804.413
878.2920, 1750.582
878.7741, 1694.683
879.2562, 1639.876
879.7383, 1588.524
880.2205, 1540.873
880.7026, 1498.458
881.1847, 1462.301
881.6668, 1426.914
882.1489, 1388.588
882.6310, 1349.422
883.1132, 1310.201
883.5953, 1268.893
884.0774, 1234.900
884.5595, 1211.217
885.0416, 1189.054
885.5237, 1161.506
886.0059, 1129.538
886.4880, 1099.520
886.9701, 1071.867
887.4522, 1045.652
887.9343, 1019.942
888.4164, 995.5846
888.8986, 973.4959
889.3807, 953.6395
889.8628, 936.0129
890.3449, 922.2928
890.8270, 908.3975
891.3091, 892.2635
891.7913, 874.8444
892.2734, 861.8247
892.7555, 853.1745
893.2376, 845.9979
893.7197, 839.1458
894.2018, 832.7432
894.6840, 826.2662
895.1661, 820.1440
895.6482, 815.6801
896.1303, 813.4855
896.6124, 812.7385
897.0945, 813.2687
897.5767, 815.0101
898.0588, 818.0629
898.5409, 822.5162
899.0230, 826.5726
899.5051, 829.5870
899.9872, 832.7646
900.4694, 837.8101
900.9515, 844.0768
901.4336, 850.4225
901.9157, 855.8718
902.3978, 862.6738
902.8799, 872.3751
903.3621, 882.9813
903.8442, 892.9957
904.3263, 902.3153
904.8084, 911.4720
905.2905, 920.7162
905.7726, 929.1320
906.2548, 934.7310
906.7369, 939.5262
907.2190, 947.6683
907.7011, 959.6678
908.1832, 969.4066
908.6653, 972.4113
909.1475, 973.8185
909.6296, 977.5068
910.1117, 983.3920
910.5938, 983.0690
911.0759, 975.8936
911.5580, 965.8546
912.0402, 954.9688
912.5223, 942.7450
913.0044, 928.4438
913.4865, 912.0154
913.9686, 893.9037
914.4507, 874.0846
914.9329, 852.8423
915.4150, 829.6007
915.8971, 805.0685
916.3792, 781.0139
916.8613, 757.9049
917.3434, 734.0316
917.8256, 708.6335
918.3077, 683.1688
918.7898, 660.0809
919.2719, 638.7771
919.7540, 617.7090
920.2361, 595.7211
920.7183, 575.5146
921.2004, 558.9363
921.6825, 544.2983
922.1646, 529.6360
922.6467, 514.9540
923.1288, 499.9200
923.6110, 484.1955
924.0931, 469.1662
924.5752, 456.3712
925.0573, 445.4642
925.5394, 436.1824
926.0215, 428.4482
926.5037, 421.4800
926.9858, 415.5122
927.4679, 409.4712
927.9500, 402.3559
928.4321, 394.3333
928.9142, 387.7595
929.3964, 382.8518
929.8785, 378.5820
930.3606, 374.8755
930.8427, 371.1258
931.3248, 365.3548
931.8069, 358.3153
932.2891, 352.4910
932.7712, 350.0842
933.2533, 347.8766
933.7354, 344.1957
934.2175, 339.8870
934.6996, 336.6768
935.1818, 334.8260
935.6639, 333.1619
936.1460, 331.6208
936.6281, 329.8918
937.1102, 327.2245
937.5923, 324.1124
938.0745, 321.6189
938.5566, 319.9067
939.0387, 318.9231
939.5208, 319.7631
940.0029, 320.4476
940.4850, 319.3957
940.9672, 316.3642
941.4493, 313.5164
941.9314, 310.7797
942.4135, 308.6256
942.8956, 307.6448
943.3777, 307.3420
943.8599, 306.8488
944.3420, 306.1389
944.8241, 305.1606
945.3062, 303.6317
945.7883, 302.1101
946.2704, 300.5474
946.7526, 299.2076
947.2347, 298.9607
947.7168, 299.9667
948.1989, 301.0947
948.6810, 302.1264
949.1631, 303.0049
949.6453, 303.9040
950.1274, 304.5289
950.6095, 304.1219
951.0916, 301.4241
951.5737, 300.0272
952.0558, 302.1068
952.5380, 305.0986
953.0201, 307.1003
953.5022, 308.0158
953.9843, 308.5419
954.4664, 308.6459
954.9485, 308.7307
955.4307, 309.2288
955.9128, 309.8454
956.3949, 310.1472
956.8770, 310.1492
957.3591, 310.2728
957.8412, 310.9376
958.3234, 311.4436
958.8055, 311.6525
959.2876, 311.5350
959.7697, 310.5815
960.2518, 308.8297
960.7339, 308.2340
961.2161, 309.8926
961.6982, 312.2680
962.1803, 314.0378
962.6624, 315.3117
963.1445, 316.2925
963.6266, 316.9036
964.1088, 317.3672
964.5909, 317.6036
965.0730, 317.8254
965.5551, 318.1160
966.0372, 318.5241
966.5193, 319.7483
967.0015, 321.8398
967.4836, 323.7790
967.9657, 324.5700
968.4478, 325.0007
968.9299, 325.5422
969.4120, 326.2591
969.8942, 327.6028
970.3763, 329.9356
970.8584, 332.1444
971.3405, 333.7757
971.8226, 335.0833
972.3047, 336.8261
972.7869, 338.9108
973.2690, 340.9719
973.7511, 342.7637
974.2332, 344.6286
974.7153, 346.9888
975.1974, 349.4478
975.6796, 351.4333
976.1617, 352.5942
976.6438, 354.2005
977.1259, 356.2805
977.6080, 358.8248
978.0901, 361.9883
978.5723, 365.5114
979.0544, 368.8355
979.5365, 371.9023
980.0186, 375.2938
980.5007, 379.3758
980.9828, 383.7313
981.4650, 388.5299
981.9471, 393.5177
982.4291, 396.6323
982.9113, 397.5865
983.3934, 400.1162
983.8755, 406.7094
984.3576, 414.1129
984.8397, 417.7929
985.3218, 419.2195
985.8040, 421.0423
986.2861, 424.1440
986.7682, 427.7031
987.2503, 432.0230
987.7324, 436.2991
988.2145, 439.5004
988.6967, 441.7119
989.1788, 444.6652
989.6609, 448.5325
990.1430, 451.5094
990.6251, 451.0415
991.1072, 449.9551
991.5894, 450.9150
992.0715, 453.9967
992.5536, 456.5464
993.0357, 459.0465
993.5178, 459.5599
993.9999, 456.8422
994.4821, 452.3993
994.9642, 449.9152
995.4463, 448.8817
995.9284, 447.5300
996.4105, 445.5032
996.8926, 442.5350
997.3748, 436.6582
997.8569, 430.8412
998.3390, 428.5818
998.8211, 431.4845
999.3032, 432.3216
999.7853, 430.8588
1000.267, 428.1747
1000.750, 423.7579
1001.232, 419.4522
1001.714, 418.8246
1002.196, 421.5928
1002.678, 424.1418
1003.160, 425.3242
1003.642, 425.6531
1004.124, 424.8699
1004.607, 423.5906
1005.089, 423.7079
1005.571, 425.1512
1006.053, 426.4514
1006.535, 427.2563
1007.017, 427.6540
1007.499, 427.0343
1007.981, 426.4174
1008.463, 427.2274
1008.946, 431.0618
1009.428, 432.5602
1009.910, 430.8223
1010.392, 428.5337
1010.874, 427.8331
1011.356, 428.0989
1011.838, 427.0053
1012.320, 424.7423
1012.802, 422.3596
1013.285, 420.6662
1013.767, 418.7756
1014.249, 416.1567
1014.731, 413.0721
1015.213, 410.2370
1015.695, 407.8012
1016.177, 404.5867
1016.659, 400.2370
1017.142, 395.7513
1017.624, 393.0533
1018.106, 390.7152
1018.588, 386.3589
1019.070, 379.1798
1019.552, 372.8336
1020.034, 368.7431
1020.516, 364.7418
1020.998, 359.7890
1021.481, 354.0807
1021.963, 348.9455
1022.445, 344.2523
1022.927, 339.2383
1023.409, 333.4173
1023.891, 327.2772
1024.373, 321.0031
1024.855, 314.6696
1025.338, 308.4811
1025.820, 303.0547
1026.302, 296.0309
1026.784, 286.8727
1027.266, 277.4662
1027.748, 269.6196
1028.230, 263.0003
1028.712, 257.0710
1029.194, 251.7844
1029.677, 246.3417
1030.159, 240.2456
1030.641, 234.0935
1031.123, 227.6885
1031.605, 221.4809
1032.087, 217.5233
1032.569, 215.6834
1033.051, 212.7542
1033.534, 207.1775
1034.016, 201.6999
1034.498, 199.2903
1034.980, 198.1093
1035.462, 195.9396
1035.944, 191.8678
1036.426, 188.5040
1036.908, 186.0775
1037.391, 183.7463
1037.873, 180.7505
1038.355, 177.4692
1038.837, 174.9561
1039.319, 173.1074
1039.801, 171.5300
1040.283, 170.1250
1040.765, 168.8790
1041.247, 168.1776
1041.729, 167.3850
1042.212, 164.8929
1042.694, 160.6586
1043.176, 158.8534
1043.658, 160.3526
1044.140, 161.9541
1044.622, 160.4264
1045.104, 157.7834
1045.586, 155.8885
1046.069, 154.9724
1046.551, 154.3249
1047.033, 154.0679
1047.515, 153.6549
1047.997, 152.7811
1048.479, 151.7321
1048.961, 151.2770
1049.443, 151.1517
1049.926, 150.6483
1050.408, 149.2434
1050.890, 147.9285
1051.372, 146.7302
1051.854, 146.0334
1052.336, 146.3783
1052.818, 147.8590
1053.300, 148.5813
1053.782, 148.5256
1054.265, 147.9537
1054.747, 146.5483
1055.229, 145.1435
1055.711, 144.5121
1056.193, 144.4842
1056.675, 144.3384
1057.157, 143.9059
1057.639, 143.6353
1058.121, 143.5772
1058.604, 143.7474
1059.086, 144.3479
1059.568, 145.1393
1060.050, 145.5866
1060.532, 145.5647
1061.014, 145.7111
1061.496, 146.7573
1061.978, 147.4743
1062.461, 147.1913
1062.943, 146.1752
1063.425, 145.6868
1063.907, 145.6880
1064.389, 145.8189
1064.871, 146.0178
1065.353, 146.1620
1065.835, 146.0874
1066.318, 145.9389
1066.800, 145.8674
1067.282, 145.7457
1067.764, 146.3109
1068.246, 147.7883
1068.728, 148.8630
1069.210, 147.8449
1069.692, 146.1570
1070.174, 146.2495
1070.656, 147.7508
1071.139, 149.0365
1071.621, 149.8674
1072.103, 149.9602
1072.585, 149.0547
1073.067, 147.6981
1073.549, 146.4777
1074.031, 145.5032
1074.513, 145.4099
1074.996, 146.3449
1075.478, 146.9141
1075.960, 145.3614
1076.442, 143.9669
1076.924, 144.6803
1077.406, 146.9704
1077.888, 147.3764
1078.370, 145.8006
1078.853, 144.3632
1079.335, 143.8514
1079.817, 143.6210
1080.299, 142.7798
1080.781, 141.8479
1081.263, 141.6060
1081.745, 142.6915
1082.227, 143.0370
1082.709, 142.3742
1083.192, 141.6394
1083.674, 141.4743
1084.156, 141.6644
1084.638, 141.7235
1085.120, 141.6601
1085.602, 141.5062
1086.084, 140.8485
1086.566, 140.7001
1087.048, 141.7330
1087.531, 142.9249
1088.013, 142.9464
1088.495, 141.9070
1088.977, 141.0586
1089.459, 140.4913
1089.941, 140.0767
1090.423, 139.8965
1090.905, 139.6784
1091.387, 139.1930
1091.870, 138.5046
1092.352, 137.8916
1092.834, 137.3409
1093.316, 136.9582
1093.798, 136.8027
1094.280, 136.6971
1094.762, 136.5948
1095.244, 136.3311
1095.727, 135.5900
1096.209, 134.2040
1096.691, 133.2133
1097.173, 132.7686
1097.655, 132.5210
1098.137, 132.3728
1098.619, 132.2681
1099.101, 132.2204
1099.583, 132.1012
1100.066, 131.5394
1100.548, 129.9678
1101.030, 128.7287
1101.512, 128.1878
1101.994, 128.0950
1102.476, 128.4417
1102.958, 129.1755
1103.440, 129.5392
1103.922, 129.5386
1104.405, 129.3048
1104.887, 128.7416
1105.369, 128.1502
1105.851, 127.6402
1106.333, 127.2347
1106.815, 126.9590
1107.297, 126.8095
1107.779, 126.8564
1108.262, 127.1332
1108.744, 127.3743
1109.226, 127.4155
1109.708, 127.2422
1110.190, 126.7059
1110.672, 125.8647
1111.154, 125.2962
1111.636, 124.9831
1112.119, 125.1436
1112.601, 126.0412
1113.083, 126.9376
1113.565, 126.5363
1114.047, 125.4149
1114.529, 124.6181
1115.011, 124.3696
1115.493, 124.1115
1115.975, 123.6776
1116.458, 123.2794
1116.940, 123.0017
1117.422, 122.8252
1117.904, 122.5624
1118.386, 122.3296
1118.868, 122.5826
1119.350, 123.9164
1119.832, 124.8996
1120.314, 124.5824
1120.797, 123.9554
1121.279, 123.8802
1121.761, 124.3422
1122.243, 123.6604
1122.725, 121.9445
1123.207, 120.8774
1123.689, 122.3854
1124.171, 123.9210
1124.654, 123.6273
1125.136, 122.3015
1125.618, 121.3794
1126.100, 120.8479
1126.582, 120.9460
1127.064, 121.7551
1127.546, 122.5792
1128.028, 123.0172
1128.510, 123.0130
1128.993, 122.1427
1129.475, 120.6864
1129.957, 120.0630
1130.439, 120.7017
1130.921, 121.2198
1131.403, 121.4319
1131.885, 121.3265
1132.367, 120.5842
1132.849, 119.6576
1133.332, 119.2636
1133.814, 119.4952
1134.296, 119.8373
1134.778, 120.3968
1135.260, 120.6529
1135.742, 120.3209
1136.224, 119.7506
1136.706, 119.5356
1137.189, 119.7033
1137.671, 120.4972
1138.153, 122.2760
1138.635, 123.3879
1139.117, 122.6428
1139.599, 121.6228
1140.081, 121.0363
1140.563, 120.8053
1141.046, 120.4061
1141.528, 119.9375
1142.010, 119.9260
1142.492, 120.9010
1142.974, 121.8103
1143.456, 122.1471
1143.938, 122.1250
1144.420, 121.8692
1144.902, 121.3576
1145.385, 121.2784
1145.867, 121.6023
1146.349, 121.7027
1146.831, 120.7798
1147.313, 119.9211
1147.795, 120.1040
1148.277, 120.7731
1148.759, 120.9203
1149.241, 120.3482
1149.724, 120.3760
1150.206, 121.1245
1150.688, 121.7261
1151.170, 121.3283
1151.652, 120.5531
1152.134, 119.8303
1152.616, 119.2197
1153.098, 118.8345
1153.581, 118.6056
1154.063, 118.9209
1154.545, 119.9670
1155.027, 120.9624
1155.509, 120.9713
1155.991, 120.4357
1156.473, 119.7320
1156.955, 118.9351
1157.438, 118.5887
1157.920, 118.9362
1158.402, 119.1819
1158.884, 119.0779
1159.366, 118.9405
1159.848, 119.4128
1160.330, 120.1143
1160.812, 120.3890
1161.294, 120.1072
1161.776, 119.6537
1162.259, 118.8406
1162.741, 118.3826
1163.223, 118.7483
1163.705, 119.3481
1164.187, 118.5219
1164.669, 116.9356
1165.151, 116.2408
1165.633, 117.1568
1166.116, 117.9070
1166.598, 118.3407
1167.080, 117.9944
1167.562, 116.0381
1168.044, 113.3758
1168.526, 113.8341
1169.008, 116.5202
1169.490, 118.2420
1169.973, 117.4078
1170.455, 116.3259
1170.937, 115.3962
1171.419, 114.9084
1171.901, 115.4157
1172.383, 116.6654
1172.865, 116.3381
1173.347, 114.7210
1173.829, 113.4079
1174.312, 113.3525
1174.794, 113.5967
1175.276, 113.9418
1175.758, 114.2666
1176.240, 114.4528
1176.722, 114.5012
1177.204, 114.4426
1177.686, 114.2999
1178.168, 114.3360
1178.651, 115.2838
1179.133, 115.8267
1179.615, 114.6328
1180.097, 112.9551
1180.579, 112.8759
1181.061, 114.4295
1181.543, 114.5639
1182.025, 113.0649
1182.508, 111.5771
1182.990, 111.3981
1183.472, 111.5227
1183.954, 111.3614
1184.436, 111.0077
1184.918, 110.7400
1185.400, 110.5759
1185.882, 110.0055
1186.365, 108.8996
1186.847, 108.2116
1187.329, 109.3003
1187.811, 110.6142
1188.293, 110.9863
1188.775, 110.5173
1189.257, 109.5391
1189.739, 107.9622
1190.221, 107.2256
1190.703, 107.7341
1191.186, 108.3624
1191.668, 108.0347
1192.150, 107.3485
1192.632, 106.8329
1193.114, 106.4719
1193.596, 105.7600
1194.078, 104.6103
1194.560, 104.0118
1195.043, 104.3628
1195.525, 104.8950
1196.007, 105.1580
1196.489, 104.9793
1196.971, 103.9681
1197.453, 102.1260
1197.935, 100.7287
1198.417, 99.75432
1198.900, 99.51143
1199.382, 100.3646
1199.864, 101.3635
1200.346, 101.6437
1200.828, 101.4339
1201.310, 100.9036
1201.792, 100.0364
1202.274, 99.32185
1202.756, 98.77081
1203.239, 98.28835
1203.721, 97.79190
1204.203, 97.42785
1204.685, 97.64381
1205.167, 97.95172
1205.649, 97.62681
1206.131, 96.48851
1206.613, 95.30053
1207.095, 93.98061
1207.578, 93.21025
1208.060, 93.59303
1208.542, 94.40990
1209.024, 95.20705
1209.506, 95.78167
1209.988, 95.74651
1210.470, 95.04393
1210.952, 93.86260
1211.435, 92.07240
1211.917, 90.80800
1212.399, 91.23875
1212.881, 92.10377
1213.363, 92.16008
1213.845, 91.68655
1214.327, 91.17460
1214.809, 90.62062
1215.292, 90.23257
1215.774, 90.04561
1216.256, 89.72328
1216.738, 88.75702
1217.220, 87.77755
1217.702, 87.45207
1218.184, 87.54120
1218.666, 87.53361
1219.148, 87.42073
1219.630, 87.06359
1220.113, 86.42017
1220.595, 85.89999
1221.077, 86.09435
1221.559, 86.32008
1222.041, 85.73392
1222.523, 84.74994
1223.005, 84.50285
1223.487, 85.34297
1223.970, 85.18752
1224.452, 83.80335
1224.934, 82.48912
1225.416, 82.36208
1225.898, 82.67892
1226.380, 83.12325
1226.862, 83.44101
1227.344, 83.05576
1227.827, 81.85573
1228.309, 80.52122
1228.791, 79.06585
1229.273, 78.07832
1229.755, 78.45421
1230.237, 79.11903
1230.719, 79.15819
1231.201, 78.81899
1231.683, 78.98976
1232.166, 79.76234
1232.648, 79.94584
1233.130, 79.39719
1233.612, 78.46428
1234.094, 76.85579
1234.576, 75.50206
1235.058, 75.26449
1235.540, 75.78835
1236.022, 76.39674
1236.505, 77.10333
1236.987, 76.78053
1237.469, 75.20995
1237.951, 74.00896
1238.433, 75.07938
1238.915, 76.29034
1239.397, 76.06464
1239.879, 75.01930
1240.362, 74.58460
1240.844, 74.70307
1241.326, 74.37482
1241.808, 73.41822
1242.290, 72.43428
1242.772, 71.76091
1243.254, 71.26155
1243.736, 70.85417
1244.219, 70.55106
1244.701, 70.46282
1245.183, 70.53670
1245.665, 70.35284
1246.147, 69.81812
1246.629, 69.45271
1247.111, 69.99337
1247.593, 70.21076
1248.075, 69.35765
1248.557, 68.05553
1249.040, 67.80528
1249.522, 68.37196
1250.004, 68.94326
1250.486, 69.40886
1250.968, 69.39690
1251.450, 68.30872
1251.932, 67.17695
1252.414, 66.19337
1252.897, 65.57714
1253.379, 66.36704
1253.861, 67.82811
1254.343, 67.75212
1254.825, 65.65009
1255.307, 64.17925
1255.789, 64.67848
1256.271, 65.22494
1256.754, 65.28510
1257.236, 65.06507
1257.718, 64.90717
1258.200, 64.76717
1258.682, 64.49213
1259.164, 64.02740
1259.646, 63.95251
1260.128, 64.66403
1260.610, 64.97747
1261.093, 64.43820
1261.575, 63.56419
1262.057, 62.88419
1262.539, 62.51555
1263.021, 62.74937
1263.503, 63.67289
1263.985, 64.43491
1264.467, 65.16037
1264.949, 65.03284
1265.432, 63.57545
1265.914, 61.87124
1266.396, 61.10717
1266.878, 61.01325
1267.360, 61.53505
1267.842, 62.64858
1268.324, 62.94013
1268.806, 62.28784
1269.289, 61.87908
1269.771, 62.18293
1270.253, 62.34434
1270.735, 60.89996
1271.217, 59.38136
1271.699, 59.60853
1272.181, 61.22380
1272.663, 61.96511
1273.146, 61.83821
1273.628, 61.37319
1274.110, 60.61180
1274.592, 60.00225
1275.074, 60.04990
1275.556, 60.20057
1276.038, 60.06410
1276.520, 59.72417
1277.002, 59.41553
1277.484, 59.17992
1277.967, 59.36382
1278.449, 60.17231
1278.931, 60.67772
1279.413, 60.08057
1279.895, 59.39338
1280.377, 59.03456
1280.859, 58.93859
1281.341, 59.04797
1281.823, 59.26717
1282.306, 59.34618
1282.788, 59.24258
1283.270, 58.87337
1283.752, 57.64366
1284.234, 57.13641
1284.716, 58.18397
1285.198, 59.71593
1285.680, 59.73093
1286.163, 58.83395
1286.645, 58.02489
1287.127, 57.45603
1287.609, 57.22008
1288.091, 57.43553
1288.573, 57.58080
1289.055, 57.46851
##END=



