##NAMES=Titanite
##RRUFFID=R100136
##IDEAL CHEMISTRY=CaTi^4+^SiO_5_
##LOCALITY=Baja California, Mexico
##OWNER=RRUFF
##SOURCE=William W. Pinch
##DESCRIPTION=Yellow cut gemstone, full of inclusions
##STATUS=The identification of this mineral has been confirmed by single-crystal X-ray diffraction.
##URL=rruff.info/R100136
90.60547, 11145.16
91.08759, 10887.00
91.56970, 10839.92
92.05182, 10926.12
92.53394, 11208.64
93.01605, 11481.93
93.49817, 11685.76
93.98029, 11839.12
94.46240, 11953.20
94.94452, 12024.90
95.42664, 12061.60
95.90874, 12070.79
96.39086, 12058.06
96.87298, 12032.12
97.35509, 11990.52
97.83721, 11909.11
98.31933, 11839.66
98.80145, 11784.84
99.28356, 11741.62
99.76568, 11708.60
100.2478, 11684.61
100.7299, 11669.61
101.2120, 11665.71
101.6941, 11670.35
102.1763, 11689.46
102.6584, 11730.49
103.1405, 11783.57
103.6226, 11835.18
104.1047, 11877.73
104.5868, 11912.33
105.0690, 11945.74
105.5511, 11975.74
106.0332, 12005.39
106.5153, 12036.36
106.9974, 12068.15
107.4795, 12098.74
107.9617, 12125.73
108.4438, 12149.67
108.9259, 12173.84
109.4080, 12200.75
109.8901, 12227.06
110.3722, 12247.72
110.8544, 12261.01
111.3365, 12271.90
111.8186, 12288.67
112.3007, 12306.28
112.7828, 12313.64
113.2649, 12306.29
113.7471, 12283.99
114.2292, 12244.23
114.7113, 12177.13
115.1934, 12098.71
115.6755, 12011.04
116.1576, 11916.51
116.6397, 11819.66
117.1219, 11722.88
117.6040, 11621.44
118.0861, 11535.36
118.5682, 11465.68
119.0503, 11406.80
119.5324, 11356.36
120.0146, 11313.58
120.4967, 11277.99
120.9788, 11249.13
121.4609, 11226.27
121.9430, 11213.50
122.4251, 11210.70
122.9073, 11217.83
123.3894, 11235.68
123.8715, 11264.97
124.3536, 11303.66
124.8357, 11347.09
125.3178, 11392.57
125.8000, 11445.47
126.2821, 11510.41
126.7642, 11585.28
127.2463, 11662.25
127.7284, 11743.76
128.2105, 11820.72
128.6927, 11881.96
129.1748, 11927.76
129.6569, 11956.83
130.1390, 11966.92
130.6211, 11957.11
131.1032, 11933.60
131.5854, 11893.04
132.0675, 11842.23
132.5496, 11785.03
133.0317, 11720.89
133.5138, 11653.77
133.9959, 11592.04
134.4781, 11534.83
134.9602, 11485.22
135.4423, 11438.25
135.9244, 11398.91
136.4065, 11373.61
136.8886, 11365.99
137.3708, 11375.83
137.8529, 11400.69
138.3350, 11440.77
138.8171, 11496.93
139.2992, 11570.63
139.7813, 11661.18
140.2635, 11768.13
140.7456, 11891.63
141.2277, 12034.18
141.7098, 12177.91
142.1919, 12332.01
142.6740, 12479.48
143.1561, 12622.42
143.6383, 12756.12
144.1204, 12859.87
144.6025, 12913.26
145.0846, 12908.83
145.5667, 12860.06
146.0488, 12742.36
146.5310, 12591.62
147.0131, 12438.14
147.4952, 12283.55
147.9773, 12143.62
148.4594, 12031.60
148.9415, 11943.81
149.4237, 11893.58
149.9058, 11884.63
150.3879, 11916.92
150.8700, 11989.53
151.3521, 12101.21
151.8342, 12263.91
152.3164, 12471.90
152.7985, 12724.57
153.2806, 13027.14
153.7627, 13384.37
154.2448, 13797.09
154.7269, 14251.13
155.2091, 14749.37
155.6912, 15289.70
156.1733, 15876.16
156.6554, 16509.49
157.1375, 17175.97
157.6196, 17868.18
158.1018, 18601.51
158.5839, 19314.49
159.0660, 20025.64
159.5481, 20705.63
160.0302, 21342.71
160.5123, 21930.21
160.9945, 22455.68
161.4766, 22895.60
161.9587, 23264.91
162.4408, 23507.40
162.9229, 23624.93
163.4050, 23627.70
163.8871, 23515.36
164.3693, 23288.71
164.8514, 22964.29
165.3335, 22574.70
165.8156, 22091.04
166.2977, 21585.06
166.7798, 21046.18
167.2620, 20490.13
167.7441, 19938.39
168.2262, 19397.25
168.7083, 18873.37
169.1904, 18391.64
169.6725, 17943.95
170.1547, 17536.93
170.6368, 17177.51
171.1189, 16863.06
171.6010, 16585.16
172.0831, 16340.81
172.5652, 16136.68
173.0474, 15966.65
173.5295, 15835.04
174.0116, 15729.25
174.4937, 15641.97
174.9758, 15572.97
175.4579, 15522.80
175.9401, 15503.63
176.4222, 15499.06
176.9043, 15491.55
177.3864, 15476.64
177.8685, 15461.29
178.3506, 15452.49
178.8328, 15448.96
179.3149, 15457.41
179.7970, 15486.73
180.2791, 15525.42
180.7612, 15565.36
181.2433, 15604.43
181.7255, 15641.09
182.2076, 15673.19
182.6897, 15704.44
183.1718, 15722.38
183.6539, 15725.17
184.1360, 15715.98
184.6181, 15698.42
185.1003, 15674.37
185.5824, 15642.12
186.0645, 15595.67
186.5466, 15521.06
187.0287, 15447.71
187.5108, 15375.21
187.9930, 15307.70
188.4751, 15248.04
188.9572, 15197.61
189.4393, 15158.43
189.9214, 15143.64
190.4035, 15161.45
190.8857, 15194.52
191.3678, 15241.43
191.8499, 15301.53
192.3320, 15375.60
192.8141, 15465.14
193.2962, 15568.40
193.7784, 15673.67
194.2605, 15778.13
194.7426, 15886.71
195.2247, 16002.90
195.7068, 16125.06
196.1889, 16249.75
196.6711, 16375.97
197.1532, 16502.38
197.6353, 16623.56
198.1174, 16732.45
198.5995, 16843.38
199.0816, 16962.62
199.5638, 17090.60
200.0459, 17227.94
200.5280, 17375.58
201.0101, 17535.41
201.4922, 17704.24
201.9743, 17887.88
202.4565, 18075.66
202.9386, 18258.79
203.4207, 18437.59
203.9028, 18616.64
204.3849, 18801.31
204.8670, 18986.28
205.3492, 19162.83
205.8313, 19330.60
206.3134, 19487.92
206.7955, 19632.29
207.2776, 19764.16
207.7597, 19880.77
208.2419, 19976.43
208.7240, 20057.84
209.2061, 20128.77
209.6882, 20190.29
210.1703, 20242.06
210.6524, 20283.29
211.1346, 20313.07
211.6167, 20332.84
212.0988, 20334.87
212.5809, 20331.60
213.0630, 20335.06
213.5451, 20350.29
214.0273, 20373.32
214.5094, 20394.56
214.9915, 20408.75
215.4736, 20431.54
215.9557, 20464.30
216.4378, 20506.06
216.9200, 20554.93
217.4021, 20609.63
217.8842, 20673.47
218.3663, 20756.03
218.8484, 20873.41
219.3305, 20987.57
219.8127, 21090.25
220.2948, 21189.56
220.7769, 21296.06
221.2590, 21414.58
221.7411, 21539.19
222.2232, 21652.26
222.7054, 21744.95
223.1875, 21835.24
223.6696, 21924.95
224.1517, 22012.71
224.6338, 22097.35
225.1159, 22178.71
225.5980, 22255.18
226.0802, 22321.91
226.5623, 22373.70
227.0444, 22421.16
227.5265, 22466.56
228.0086, 22507.55
228.4907, 22540.49
228.9729, 22563.86
229.4550, 22578.76
229.9371, 22587.26
230.4192, 22592.72
230.9013, 22587.47
231.3834, 22567.72
231.8656, 22537.02
232.3477, 22501.94
232.8298, 22465.77
233.3119, 22423.25
233.7940, 22361.50
234.2761, 22284.22
234.7583, 22186.58
235.2404, 22057.12
235.7225, 21908.00
236.2046, 21754.90
236.6867, 21597.56
237.1688, 21449.61
237.6510, 21332.96
238.1331, 21244.16
238.6152, 21181.77
239.0973, 21139.37
239.5794, 21123.40
240.0615, 21145.45
240.5437, 21205.82
241.0258, 21313.79
241.5079, 21484.46
241.9900, 21713.22
242.4721, 21978.22
242.9542, 22271.01
243.4364, 22592.78
243.9185, 22948.19
244.4006, 23341.22
244.8827, 23764.09
245.3648, 24212.09
245.8469, 24681.94
246.3290, 25154.10
246.8112, 25630.64
247.2933, 26101.47
247.7754, 26547.62
248.2575, 26967.06
248.7396, 27355.19
249.2217, 27716.97
249.7039, 28051.03
250.1860, 28344.63
250.6681, 28592.42
251.1502, 28793.92
251.6323, 28951.38
252.1144, 29063.23
252.5966, 29126.13
253.0787, 29143.65
253.5608, 29119.34
254.0429, 29059.54
254.5250, 28967.41
255.0071, 28842.94
255.4893, 28685.59
255.9714, 28501.64
256.4535, 28269.10
256.9356, 27986.87
257.4177, 27659.08
257.8998, 27288.85
258.3820, 26876.57
258.8641, 26425.32
259.3462, 25944.44
259.8283, 25426.92
260.3104, 24887.85
260.7925, 24320.51
261.2747, 23737.99
261.7568, 23158.33
262.2389, 22586.05
262.7210, 22023.36
263.2031, 21468.31
263.6852, 20916.89
264.1674, 20381.29
264.6495, 19862.42
265.1316, 19359.60
265.6137, 18874.78
266.0958, 18409.12
266.5779, 17962.69
267.0601, 17537.48
267.5422, 17137.56
268.0243, 16757.57
268.5064, 16396.65
268.9885, 16050.98
269.4706, 15718.95
269.9528, 15399.79
270.4349, 15094.76
270.9170, 14805.82
271.3991, 14535.73
271.8812, 14282.18
272.3633, 14044.66
272.8455, 13820.65
273.3276, 13608.35
273.8097, 13407.08
274.2918, 13220.08
274.7739, 13053.24
275.2560, 12912.50
275.7382, 12780.91
276.2202, 12654.93
276.7024, 12538.08
277.1845, 12431.13
277.6666, 12334.50
278.1487, 12249.44
278.6308, 12177.71
279.1129, 12121.36
279.5951, 12072.75
280.0772, 12030.75
280.5593, 11995.50
281.0414, 11966.50
281.5235, 11944.10
282.0056, 11929.42
282.4878, 11923.57
282.9699, 11926.77
283.4520, 11938.39
283.9341, 11957.19
284.4162, 11984.18
284.8983, 12021.95
285.3805, 12068.71
285.8626, 12121.06
286.3447, 12177.46
286.8268, 12237.57
287.3089, 12289.94
287.7910, 12340.74
288.2732, 12378.21
288.7553, 12402.51
289.2374, 12410.40
289.7195, 12396.72
290.2016, 12358.46
290.6837, 12296.34
291.1659, 12210.79
291.6480, 12088.59
292.1301, 11959.09
292.6122, 11812.51
293.0943, 11664.90
293.5764, 11534.42
294.0586, 11428.33
294.5407, 11349.87
295.0228, 11307.86
295.5049, 11296.67
295.9870, 11333.60
296.4691, 11427.02
296.9513, 11565.73
297.4334, 11741.72
297.9155, 11951.06
298.3976, 12189.67
298.8797, 12451.14
299.3618, 12746.66
299.8440, 13048.37
300.3261, 13360.05
300.8082, 13673.14
301.2903, 13987.54
301.7724, 14300.20
302.2545, 14604.86
302.7367, 14896.99
303.2188, 15176.45
303.7009, 15432.75
304.1830, 15667.10
304.6651, 15881.07
305.1472, 16072.79
305.6294, 16244.05
306.1115, 16401.36
306.5936, 16549.72
307.0757, 16689.44
307.5578, 16817.18
308.0399, 16930.17
308.5221, 17036.60
309.0042, 17137.93
309.4863, 17235.44
309.9684, 17328.39
310.4505, 17414.58
310.9326, 17496.91
311.4148, 17593.51
311.8969, 17710.93
312.3790, 17833.10
312.8611, 17970.19
313.3432, 18106.99
313.8253, 18222.23
314.3075, 18306.01
314.7896, 18361.10
315.2717, 18394.04
315.7538, 18424.78
316.2359, 18403.63
316.7180, 18312.50
317.2001, 18173.61
317.6823, 18010.25
318.1644, 17828.60
318.6465, 17622.75
319.1286, 17381.04
319.6107, 17087.16
320.0928, 16794.97
320.5750, 16497.11
321.0571, 16204.52
321.5392, 15919.47
322.0213, 15645.72
322.5034, 15390.24
322.9855, 15161.23
323.4677, 14957.48
323.9498, 14789.46
324.4319, 14654.73
324.9140, 14550.82
325.3961, 14478.09
325.8782, 14435.12
326.3604, 14418.57
326.8425, 14427.43
327.3246, 14460.76
327.8067, 14509.32
328.2888, 14576.10
328.7709, 14652.44
329.2531, 14739.73
329.7352, 14834.57
330.2173, 14933.90
330.6994, 15036.83
331.1815, 15139.23
331.6636, 15230.39
332.1458, 15314.77
332.6279, 15380.72
333.1100, 15429.40
333.5921, 15458.48
334.0742, 15466.54
334.5563, 15452.78
335.0385, 15415.70
335.5206, 15353.61
336.0027, 15265.09
336.4848, 15148.01
336.9669, 15000.61
337.4490, 14828.66
337.9312, 14629.47
338.4133, 14406.26
338.8954, 14172.67
339.3775, 13941.54
339.8596, 13702.99
340.3417, 13474.53
340.8239, 13215.91
341.3060, 12958.34
341.7881, 12705.68
342.2702, 12459.34
342.7523, 12222.01
343.2344, 11996.00
343.7166, 11781.12
344.1987, 11578.93
344.6808, 11395.27
345.1629, 11218.73
345.6450, 11046.32
346.1271, 10882.71
346.6093, 10733.39
347.0914, 10601.26
347.5735, 10483.01
348.0556, 10375.84
348.5377, 10285.70
349.0198, 10195.98
349.5020, 10104.77
349.9841, 10015.29
350.4662, 9932.783
350.9483, 9856.556
351.4304, 9779.771
351.9125, 9695.624
352.3947, 9603.649
352.8768, 9508.355
353.3589, 9408.588
353.8410, 9306.920
354.3231, 9202.204
354.8052, 9096.432
355.2874, 8992.348
355.7695, 8892.042
356.2516, 8795.578
356.7337, 8700.952
357.2158, 8606.009
357.6979, 8516.417
358.1800, 8434.785
358.6621, 8357.801
359.1443, 8282.433
359.6264, 8207.116
360.1085, 8133.035
360.5906, 8062.063
361.0727, 7995.791
361.5548, 7928.456
362.0370, 7860.218
362.5191, 7790.484
363.0012, 7718.039
363.4833, 7642.779
363.9654, 7567.903
364.4475, 7498.159
364.9297, 7434.289
365.4118, 7362.560
365.8939, 7277.149
366.3760, 7189.631
366.8581, 7103.628
367.3402, 7019.386
367.8224, 6937.064
368.3045, 6858.267
368.7866, 6780.919
369.2687, 6698.649
369.7508, 6611.018
370.2329, 6519.447
370.7151, 6420.591
371.1972, 6320.083
371.6793, 6221.989
372.1614, 6128.319
372.6435, 6037.045
373.1256, 5946.523
373.6078, 5856.915
374.0899, 5768.387
374.5720, 5681.581
375.0541, 5595.288
375.5362, 5508.905
376.0183, 5422.034
376.5005, 5334.936
376.9826, 5246.810
377.4647, 5158.163
377.9468, 5069.765
378.4289, 4980.457
378.9110, 4894.107
379.3932, 4812.432
379.8753, 4735.322
380.3574, 4663.250
380.8395, 4594.724
381.3216, 4532.692
381.8037, 4481.606
382.2859, 4441.431
382.7680, 4408.229
383.2501, 4380.701
383.7322, 4359.808
384.2143, 4345.478
384.6964, 4338.397
385.1786, 4335.841
385.6607, 4337.576
386.1428, 4342.774
386.6249, 4350.047
387.1070, 4360.052
387.5891, 4369.335
388.0713, 4374.374
388.5534, 4375.542
389.0355, 4371.922
389.5176, 4362.587
389.9997, 4348.840
390.4818, 4331.904
390.9640, 4311.782
391.4461, 4288.064
391.9282, 4259.950
392.4103, 4227.831
392.8924, 4194.836
393.3745, 4157.709
393.8567, 4123.218
394.3388, 4094.164
394.8209, 4069.605
395.3030, 4047.714
395.7851, 4027.409
396.2672, 4010.501
396.7494, 4000.306
397.2315, 3999.162
397.7136, 3999.716
398.1957, 4000.571
398.6778, 4003.718
399.1599, 4011.188
399.6420, 4022.921
400.1241, 4037.105
400.6063, 4052.194
401.0884, 4068.243
401.5705, 4085.720
402.0526, 4105.333
402.5347, 4125.437
403.0168, 4145.290
403.4990, 4165.432
403.9811, 4186.742
404.4632, 4209.583
404.9453, 4233.549
405.4274, 4257.450
405.9095, 4279.634
406.3917, 4304.599
406.8738, 4332.591
407.3559, 4362.879
407.8380, 4394.269
408.3201, 4427.093
408.8022, 4463.530
409.2844, 4506.309
409.7665, 4555.444
410.2486, 4607.992
410.7307, 4662.775
411.2128, 4722.624
411.6949, 4785.090
412.1771, 4853.687
412.6592, 4934.043
413.1413, 5029.173
413.6234, 5136.667
414.1055, 5250.537
414.5876, 5369.250
415.0698, 5501.030
415.5519, 5647.647
416.0340, 5807.932
416.5161, 5982.022
416.9982, 6170.866
417.4803, 6372.121
417.9625, 6586.534
418.4446, 6812.806
418.9267, 7050.005
419.4088, 7301.906
419.8909, 7555.791
420.3730, 7808.343
420.8552, 8055.504
421.3373, 8286.045
421.8194, 8501.752
422.3015, 8693.471
422.7836, 8852.144
423.2657, 8977.343
423.7479, 9065.831
424.2300, 9115.365
424.7121, 9124.776
425.1942, 9099.082
425.6763, 9037.623
426.1584, 8948.983
426.6406, 8828.235
427.1227, 8684.907
427.6048, 8532.744
428.0869, 8372.302
428.5690, 8211.933
429.0511, 8059.492
429.5333, 7915.142
430.0154, 7773.772
430.4975, 7629.897
430.9796, 7493.871
431.4617, 7370.401
431.9438, 7259.909
432.4260, 7162.333
432.9081, 7078.442
433.3902, 7006.721
433.8723, 6944.375
434.3544, 6894.010
434.8365, 6849.738
435.3187, 6809.221
435.8008, 6776.083
436.2829, 6755.623
436.7650, 6747.061
437.2471, 6743.596
437.7292, 6739.050
438.2114, 6733.321
438.6935, 6729.932
439.1756, 6725.841
439.6577, 6727.679
440.1398, 6739.565
440.6219, 6757.568
441.1040, 6776.641
441.5862, 6794.599
442.0683, 6812.596
442.5504, 6832.968
443.0325, 6857.267
443.5146, 6879.489
443.9967, 6894.712
444.4789, 6911.459
444.9610, 6932.019
445.4431, 6957.612
445.9252, 6991.009
446.4073, 7035.071
446.8894, 7088.146
447.3716, 7142.533
447.8537, 7194.327
448.3358, 7257.172
448.8179, 7340.747
449.3000, 7437.234
449.7821, 7538.790
450.2643, 7642.829
450.7464, 7756.646
451.2285, 7884.612
451.7106, 8027.289
452.1927, 8183.969
452.6748, 8353.328
453.1570, 8537.494
453.6391, 8739.791
454.1212, 8958.270
454.6033, 9193.350
455.0854, 9443.230
455.5675, 9709.838
456.0497, 9995.262
456.5318, 10298.90
457.0139, 10622.98
457.4960, 10968.09
457.9781, 11335.50
458.4602, 11733.07
458.9424, 12160.88
459.4245, 12611.15
459.9066, 13080.83
460.3887, 13571.93
460.8708, 14088.93
461.3529, 14631.30
461.8351, 15191.14
462.3172, 15767.04
462.7993, 16356.23
463.2814, 16943.86
463.7635, 17551.98
464.2456, 18133.34
464.7278, 18694.77
465.2099, 19220.91
465.6920, 19700.95
466.1741, 20131.75
466.6562, 20489.85
467.1383, 20742.62
467.6205, 20900.36
468.1026, 20923.07
468.5847, 20791.54
469.0668, 20536.91
469.5489, 20155.54
470.0310, 19657.35
470.5132, 19063.14
470.9953, 18372.22
471.4774, 17606.19
471.9595, 16811.00
472.4416, 15978.23
472.9237, 15151.42
473.4059, 14334.26
473.8880, 13542.00
474.3701, 12785.90
474.8522, 12071.26
475.3343, 11398.80
475.8164, 10769.82
476.2986, 10188.14
476.7807, 9656.813
477.2628, 9179.626
477.7449, 8746.997
478.2270, 8357.717
478.7091, 8010.435
479.1913, 7693.495
479.6734, 7410.397
480.1555, 7153.554
480.6376, 6920.555
481.1197, 6711.155
481.6018, 6524.826
482.0839, 6361.658
482.5660, 6218.729
483.0482, 6091.709
483.5303, 5983.060
484.0124, 5887.007
484.4945, 5803.862
484.9766, 5732.298
485.4587, 5672.947
485.9409, 5624.294
486.4230, 5583.185
486.9051, 5547.573
487.3872, 5518.552
487.8693, 5500.112
488.3514, 5497.411
488.8336, 5495.828
489.3157, 5491.904
489.7978, 5490.420
490.2799, 5494.813
490.7620, 5504.961
491.2441, 5518.564
491.7263, 5534.572
492.2084, 5552.457
492.6905, 5569.445
493.1726, 5584.853
493.6547, 5600.985
494.1368, 5620.173
494.6190, 5639.787
495.1011, 5657.239
495.5832, 5672.037
496.0653, 5684.908
496.5474, 5695.427
497.0295, 5704.300
497.5117, 5713.994
497.9938, 5725.292
498.4759, 5735.477
498.9580, 5741.425
499.4401, 5744.097
499.9222, 5748.892
500.4044, 5758.615
500.8865, 5767.931
501.3686, 5769.262
501.8507, 5768.823
502.3328, 5783.106
502.8149, 5818.297
503.2971, 5857.064
503.7792, 5873.367
504.2613, 5857.217
504.7434, 5855.011
505.2255, 5871.843
505.7076, 5895.948
506.1898, 5923.271
506.6719, 5953.437
507.1540, 5986.500
507.6361, 6022.477
508.1182, 6061.906
508.6003, 6105.950
509.0825, 6155.636
509.5646, 6207.373
510.0467, 6260.612
510.5288, 6315.813
511.0109, 6374.531
511.4930, 6435.909
511.9752, 6496.829
512.4573, 6553.604
512.9394, 6609.796
513.4215, 6675.124
513.9036, 6751.406
514.3857, 6826.817
514.8679, 6896.695
515.3500, 6963.967
515.8321, 7032.101
516.3142, 7101.260
516.7963, 7170.205
517.2784, 7236.736
517.7606, 7303.812
518.2427, 7376.563
518.7248, 7455.197
519.2069, 7535.104
519.6890, 7613.518
520.1711, 7690.857
520.6533, 7766.445
521.1354, 7836.183
521.6175, 7910.375
522.0996, 7993.888
522.5817, 8080.532
523.0638, 8161.614
523.5460, 8236.709
524.0281, 8314.962
524.5102, 8405.185
524.9923, 8506.677
525.4744, 8608.060
525.9565, 8706.810
526.4387, 8807.819
526.9208, 8909.484
527.4029, 9015.513
527.8850, 9128.975
528.3671, 9250.761
528.8492, 9380.311
529.3314, 9516.038
529.8135, 9658.151
530.2956, 9813.393
530.7777, 9986.340
531.2598, 10162.84
531.7419, 10331.89
532.2241, 10498.73
532.7062, 10675.18
533.1883, 10865.06
533.6704, 11060.46
534.1525, 11260.90
534.6346, 11462.83
535.1168, 11659.50
535.5989, 11849.06
536.0810, 12036.13
536.5631, 12224.94
537.0452, 12416.23
537.5273, 12600.09
538.0095, 12777.77
538.4916, 12947.93
538.9737, 13115.10
539.4558, 13273.55
539.9379, 13415.25
540.4200, 13537.50
540.9022, 13644.63
541.3843, 13741.47
541.8664, 13828.26
542.3485, 13903.84
542.8306, 13960.57
543.3127, 14013.32
543.7948, 14066.87
544.2769, 14119.23
544.7590, 14167.79
545.2411, 14212.24
545.7233, 14249.24
546.2054, 14273.14
546.6875, 14284.50
547.1696, 14291.61
547.6517, 14299.17
548.1339, 14296.08
548.6160, 14269.81
549.0981, 14225.19
549.5802, 14172.39
550.0623, 14120.32
550.5444, 14053.30
551.0266, 13960.16
551.5087, 13844.27
551.9908, 13713.46
552.4729, 13570.21
552.9550, 13410.30
553.4371, 13227.29
553.9193, 13016.82
554.4014, 12804.17
554.8835, 12587.45
555.3656, 12371.22
555.8477, 12156.46
556.3298, 11942.06
556.8120, 11728.30
557.2941, 11514.24
557.7762, 11303.36
558.2583, 11099.09
558.7404, 10903.09
559.2225, 10708.51
559.7047, 10514.30
560.1868, 10325.08
560.6689, 10144.76
561.1510, 9969.627
561.6331, 9791.697
562.1152, 9609.065
562.5974, 9423.535
563.0795, 9236.612
563.5616, 9048.142
564.0437, 8857.585
564.5258, 8663.716
565.0079, 8468.692
565.4901, 8271.837
565.9722, 8074.318
566.4543, 7887.938
566.9364, 7709.758
567.4185, 7546.037
567.9006, 7397.784
568.3828, 7266.193
568.8649, 7150.936
569.3470, 7052.892
569.8291, 6972.998
570.3112, 6913.847
570.7933, 6875.456
571.2755, 6853.901
571.7576, 6849.798
572.2397, 6863.494
572.7218, 6894.706
573.2039, 6943.026
573.6860, 7009.851
574.1682, 7095.486
574.6503, 7192.435
575.1324, 7292.134
575.6145, 7396.858
576.0966, 7517.870
576.5787, 7657.265
577.0609, 7806.714
577.5430, 7959.414
578.0251, 8118.712
578.5072, 8289.279
578.9893, 8470.512
579.4714, 8664.585
579.9536, 8878.069
580.4357, 9101.690
580.9178, 9324.314
581.3999, 9544.716
581.8820, 9771.897
582.3641, 10012.03
582.8463, 10265.31
583.3284, 10534.85
583.8105, 10828.16
584.2926, 11129.77
584.7747, 11443.04
585.2568, 11761.56
585.7390, 12076.56
586.2211, 12391.11
586.7032, 12719.76
587.1853, 13074.10
587.6674, 13449.28
588.1495, 13828.48
588.6317, 14212.04
589.1138, 14600.91
589.5959, 14992.58
590.0780, 15395.74
590.5601, 15815.62
591.0422, 16252.50
591.5244, 16698.36
592.0065, 17146.98
592.4886, 17605.10
592.9707, 18072.95
593.4528, 18550.24
593.9349, 19041.78
594.4171, 19548.59
594.8992, 20063.66
595.3813, 20577.09
595.8634, 21086.47
596.3455, 21604.04
596.8276, 22147.04
597.3098, 22678.45
597.7919, 23177.39
598.2740, 23657.23
598.7561, 24145.31
599.2382, 24654.22
599.7203, 25162.75
600.2025, 25646.06
600.6846, 26106.25
601.1667, 26555.50
601.6488, 26997.74
602.1309, 27420.71
602.6130, 27812.35
603.0952, 28178.66
603.5773, 28520.25
604.0594, 28843.76
604.5415, 29133.65
605.0236, 29382.77
605.5057, 29594.98
605.9879, 29775.12
606.4700, 29923.78
606.9521, 30038.98
607.4342, 30117.85
607.9163, 30161.12
608.3984, 30175.21
608.8806, 30155.05
609.3627, 30108.95
609.8448, 30046.32
610.3269, 29952.22
610.8090, 29813.06
611.2911, 29629.99
611.7733, 29414.34
612.2554, 29170.66
612.7375, 28902.68
613.2196, 28614.05
613.7017, 28301.84
614.1838, 27983.34
614.6660, 27662.65
615.1481, 27337.01
615.6302, 27002.13
616.1123, 26658.06
616.5944, 26301.94
617.0765, 25925.62
617.5587, 25544.92
618.0408, 25167.96
618.5229, 24795.44
619.0050, 24426.85
619.4871, 24061.92
619.9692, 23698.79
620.4514, 23334.60
620.9335, 22966.29
621.4156, 22608.94
621.8977, 22267.76
622.3798, 21931.40
622.8619, 21599.87
623.3441, 21271.42
623.8262, 20947.03
624.3083, 20628.01
624.7904, 20310.46
625.2725, 19991.52
625.7546, 19673.07
626.2367, 19361.31
626.7188, 19055.90
627.2009, 18759.18
627.6830, 18470.83
628.1652, 18191.60
628.6473, 17920.85
629.1294, 17661.42
629.6115, 17402.33
630.0936, 17133.89
630.5757, 16871.20
631.0579, 16625.40
631.5400, 16393.63
632.0221, 16166.39
632.5042, 15940.11
632.9863, 15712.45
633.4684, 15478.69
633.9506, 15235.25
634.4327, 14998.13
634.9148, 14769.95
635.3969, 14547.76
635.8790, 14329.22
636.3611, 14115.52
636.8433, 13908.97
637.3254, 13712.14
637.8075, 13518.81
638.2896, 13327.39
638.7717, 13137.23
639.2538, 12942.11
639.7360, 12742.51
640.2181, 12548.04
640.7002, 12365.78
641.1823, 12194.08
641.6644, 12024.41
642.1465, 11860.60
642.6287, 11694.37
643.1108, 11516.65
643.5929, 11344.68
644.0750, 11192.10
644.5571, 11055.07
645.0392, 10919.11
645.5214, 10776.42
646.0035, 10632.50
646.4856, 10496.68
646.9677, 10368.92
647.4498, 10246.34
647.9319, 10130.79
648.4141, 10016.40
648.8962, 9898.065
649.3783, 9776.746
649.8604, 9660.371
650.3425, 9550.576
650.8246, 9444.278
651.3068, 9342.902
651.7889, 9243.294
652.2710, 9141.271
652.7531, 9036.935
653.2352, 8934.683
653.7173, 8837.933
654.1995, 8746.191
654.6816, 8656.573
655.1637, 8569.757
655.6458, 8484.059
656.1279, 8400.421
656.6100, 8316.809
657.0922, 8230.574
657.5743, 8143.033
658.0564, 8059.457
658.5385, 7982.768
659.0206, 7909.010
659.5027, 7835.089
659.9849, 7761.203
660.4670, 7686.444
660.9491, 7610.753
661.4312, 7536.116
661.9133, 7464.186
662.3954, 7394.683
662.8776, 7325.391
663.3597, 7254.164
663.8418, 7186.144
664.3239, 7122.222
664.8060, 7061.125
665.2881, 7001.950
665.7703, 6944.525
666.2524, 6889.289
666.7345, 6837.081
667.2166, 6785.773
667.6987, 6730.054
668.1808, 6670.077
668.6630, 6611.532
669.1451, 6556.443
669.6272, 6502.051
670.1093, 6445.338
670.5914, 6386.725
671.0735, 6333.492
671.5557, 6289.865
672.0378, 6246.525
672.5199, 6200.781
673.0020, 6154.067
673.4841, 6107.928
673.9662, 6062.500
674.4484, 6016.461
674.9305, 5968.314
675.4126, 5919.064
675.8947, 5871.650
676.3768, 5826.165
676.8589, 5782.369
677.3411, 5740.796
677.8232, 5700.020
678.3053, 5659.023
678.7874, 5617.900
679.2695, 5577.144
679.7516, 5536.674
680.2338, 5496.879
680.7159, 5458.025
681.1980, 5420.023
681.6801, 5382.347
682.1622, 5345.071
682.6443, 5308.449
683.1265, 5272.843
683.6086, 5237.867
684.0907, 5200.965
684.5728, 5159.494
685.0549, 5121.966
685.5370, 5092.243
686.0192, 5064.567
686.5013, 5037.054
686.9834, 5008.953
687.4655, 4978.557
687.9476, 4944.890
688.4297, 4909.498
688.9119, 4872.360
689.3940, 4834.913
689.8761, 4800.976
690.3582, 4771.008
690.8403, 4743.016
691.3224, 4715.524
691.8046, 4688.429
692.2867, 4660.556
692.7688, 4630.812
693.2509, 4602.146
693.7330, 4576.741
694.2151, 4550.722
694.6973, 4520.597
695.1794, 4487.942
695.6615, 4456.865
696.1436, 4429.044
696.6257, 4403.611
697.1078, 4380.240
697.5900, 4358.440
698.0721, 4336.145
698.5542, 4313.181
699.0363, 4289.905
699.5184, 4266.725
700.0005, 4243.281
700.4827, 4218.613
700.9648, 4191.030
701.4469, 4165.108
701.9290, 4142.080
702.4111, 4119.602
702.8932, 4096.518
703.3754, 4072.890
703.8575, 4048.443
704.3396, 4023.101
704.8217, 3998.685
705.3038, 3978.418
705.7859, 3961.466
706.2681, 3943.446
706.7502, 3923.897
707.2323, 3904.653
707.7144, 3887.223
708.1965, 3870.212
708.6786, 3849.906
709.1607, 3824.376
709.6428, 3801.344
710.1249, 3782.944
710.6071, 3765.373
711.0892, 3746.977
711.5713, 3727.812
712.0534, 3708.046
712.5355, 3687.700
713.0176, 3667.932
713.4998, 3649.792
713.9819, 3633.257
714.4640, 3618.373
714.9461, 3605.752
715.4282, 3591.183
715.9103, 3571.878
716.3925, 3551.062
716.8746, 3533.943
717.3567, 3521.040
717.8388, 3507.117
718.3209, 3489.718
718.8030, 3473.466
719.2852, 3462.896
719.7673, 3453.742
720.2494, 3438.628
720.7315, 3416.806
721.2136, 3395.849
721.6957, 3383.581
722.1779, 3377.228
722.6600, 3366.745
723.1421, 3351.537
723.6242, 3336.468
724.1063, 3322.012
724.5884, 3309.725
725.0706, 3303.491
725.5527, 3302.441
726.0348, 3295.475
726.5169, 3277.471
726.9990, 3259.030
727.4811, 3243.257
727.9633, 3229.092
728.4454, 3215.919
728.9275, 3203.390
729.4096, 3190.865
729.8917, 3177.770
730.3738, 3164.805
730.8560, 3154.028
731.3381, 3145.584
731.8202, 3134.821
732.3023, 3120.407
732.7844, 3104.917
733.2665, 3089.220
733.7487, 3074.052
734.2308, 3061.918
734.7129, 3054.706
735.1950, 3047.054
735.6771, 3038.719
736.1592, 3028.809
736.6414, 3015.497
737.1235, 3000.065
737.6056, 2985.402
738.0877, 2972.677
738.5698, 2961.453
739.0519, 2951.656
739.5341, 2943.040
740.0162, 2932.885
740.4983, 2920.630
740.9804, 2909.190
741.4625, 2901.058
741.9446, 2893.688
742.4268, 2881.674
742.9089, 2863.701
743.3910, 2848.230
743.8731, 2837.615
744.3552, 2827.819
744.8373, 2817.329
745.3195, 2806.256
745.8016, 2794.484
746.2837, 2782.272
746.7658, 2770.961
747.2479, 2762.363
747.7300, 2755.326
748.2122, 2746.663
748.6943, 2736.344
749.1764, 2725.868
749.6585, 2715.644
750.1406, 2705.485
750.6227, 2695.184
751.1049, 2684.765
751.5870, 2673.760
752.0691, 2662.075
752.5512, 2650.011
753.0333, 2636.895
753.5154, 2623.913
753.9976, 2611.879
754.4797, 2600.880
754.9618, 2590.774
755.4439, 2581.628
755.9260, 2572.641
756.4081, 2563.054
756.8903, 2552.751
757.3724, 2541.024
757.8545, 2527.648
758.3366, 2514.743
758.8187, 2503.395
759.3008, 2493.699
759.7830, 2486.097
760.2651, 2482.660
760.7472, 2476.336
761.2293, 2465.255
761.7114, 2453.652
762.1935, 2443.730
762.6757, 2434.128
763.1578, 2422.130
763.6399, 2407.327
764.1220, 2393.763
764.6041, 2385.733
765.0862, 2379.894
765.5684, 2371.153
766.0505, 2359.853
766.5326, 2348.283
767.0147, 2337.107
767.4968, 2326.177
767.9789, 2315.246
768.4611, 2304.305
768.9432, 2295.448
769.4253, 2291.193
769.9074, 2284.570
770.3895, 2272.689
770.8716, 2259.778
771.3538, 2248.579
771.8359, 2238.803
772.3180, 2229.005
772.8001, 2218.771
773.2822, 2208.344
773.7643, 2197.556
774.2465, 2186.916
774.7286, 2177.707
775.2107, 2169.606
775.6928, 2160.320
776.1749, 2148.412
776.6570, 2135.696
777.1392, 2126.093
777.6213, 2120.252
778.1034, 2112.605
778.5855, 2102.086
779.0676, 2091.748
779.5497, 2083.293
780.0319, 2075.553
780.5140, 2066.989
780.9961, 2057.408
781.4782, 2048.411
781.9603, 2041.124
782.4424, 2033.716
782.9246, 2024.412
783.4067, 2014.570
783.8888, 2006.709
784.3709, 2000.937
784.8530, 1994.616
785.3351, 1985.255
785.8173, 1974.508
786.2994, 1967.028
786.7815, 1962.849
787.2636, 1957.594
787.7457, 1950.325
788.2278, 1942.374
788.7100, 1934.648
789.1921, 1927.121
789.6742, 1919.801
790.1563, 1912.500
790.6384, 1905.731
791.1205, 1899.942
791.6026, 1894.297
792.0847, 1888.333
792.5668, 1882.183
793.0490, 1875.965
793.5311, 1869.747
794.0132, 1863.871
794.4953, 1859.313
794.9774, 1854.940
795.4595, 1847.991
795.9417, 1839.038
796.4238, 1832.232
796.9059, 1829.010
797.3880, 1826.487
797.8701, 1821.417
798.3522, 1813.953
798.8344, 1807.399
799.3165, 1802.147
799.7986, 1796.942
800.2807, 1791.126
800.7628, 1785.710
801.2449, 1781.728
801.7271, 1778.642
802.2092, 1774.919
802.6913, 1769.695
803.1734, 1765.110
803.6555, 1763.096
804.1376, 1761.745
804.6198, 1758.817
805.1019, 1754.707
805.5840, 1751.087
806.0661, 1748.705
806.5482, 1746.641
807.0303, 1743.397
807.5125, 1739.230
807.9946, 1736.702
808.4767, 1736.077
808.9588, 1735.567
809.4409, 1734.401
809.9230, 1733.446
810.4052, 1734.186
810.8873, 1736.588
811.3694, 1736.721
811.8515, 1731.864
812.3336, 1728.451
812.8157, 1728.437
813.2979, 1729.749
813.7800, 1731.215
814.2621, 1732.515
814.7442, 1733.332
815.2263, 1733.429
815.7084, 1733.530
816.1906, 1734.715
816.6727, 1736.278
817.1548, 1736.882
817.6369, 1736.425
818.1190, 1734.900
818.6011, 1732.240
819.0833, 1729.026
819.5654, 1725.852
820.0475, 1722.644
820.5296, 1721.825
821.0117, 1725.845
821.4938, 1727.152
821.9760, 1721.547
822.4581, 1714.425
822.9402, 1710.080
823.4223, 1708.124
823.9044, 1706.530
824.3865, 1704.815
824.8687, 1703.593
825.3508, 1703.659
825.8329, 1703.906
826.3150, 1703.081
826.7971, 1701.481
827.2792, 1700.371
827.7614, 1700.324
828.2435, 1700.104
828.7256, 1697.267
829.2077, 1692.975
829.6898, 1692.058
830.1719, 1694.629
830.6541, 1697.569
831.1362, 1699.862
831.6183, 1701.540
832.1004, 1702.408
832.5825, 1702.485
833.0646, 1704.019
833.5468, 1706.834
834.0289, 1711.439
834.5110, 1718.486
834.9931, 1726.623
835.4752, 1735.431
835.9573, 1744.657
836.4395, 1753.615
836.9216, 1761.511
837.4037, 1771.240
837.8858, 1785.123
838.3679, 1801.057
838.8500, 1816.918
839.3322, 1832.955
839.8143, 1849.867
840.2964, 1867.985
840.7785, 1888.466
841.2606, 1913.244
841.7427, 1934.615
842.2249, 1964.773
842.7070, 1984.375
843.1891, 2007.781
843.6712, 2036.984
844.1533, 2069.667
844.6354, 2103.902
845.1176, 2139.781
845.5997, 2177.598
846.0818, 2218.315
846.5639, 2259.231
847.0460, 2297.590
847.5281, 2339.208
848.0103, 2389.927
848.4924, 2444.514
848.9745, 2494.297
849.4566, 2537.594
849.9387, 2583.427
850.4208, 2639.886
850.9030, 2698.135
851.3851, 2751.335
851.8672, 2800.354
852.3493, 2847.107
852.8314, 2891.832
853.3135, 2935.142
853.7957, 2977.531
854.2778, 3016.968
854.7599, 3048.743
855.2420, 3072.939
855.7241, 3090.091
856.2062, 3100.109
856.6884, 3103.481
857.1705, 3100.594
857.6526, 3090.948
858.1347, 3073.227
858.6168, 3046.587
859.0989, 3015.587
859.5811, 2980.140
860.0632, 2940.583
860.5453, 2895.128
861.0274, 2846.790
861.5095, 2797.463
861.9916, 2747.506
862.4738, 2697.697
862.9559, 2647.316
863.4380, 2598.116
863.9201, 2549.972
864.4022, 2504.593
864.8843, 2464.842
865.3665, 2429.957
865.8486, 2398.062
866.3307, 2368.333
866.8128, 2340.859
867.2949, 2315.304
867.7770, 2292.306
868.2592, 2275.570
868.7413, 2265.228
869.2234, 2254.640
869.7055, 2242.115
870.1876, 2228.026
870.6697, 2212.655
871.1519, 2196.148
871.6340, 2179.617
872.1161, 2164.287
872.5981, 2146.532
873.0803, 2126.330
873.5624, 2103.572
874.0445, 2078.393
874.5266, 2050.564
875.0087, 2018.208
875.4908, 1980.932
875.9730, 1945.845
876.4551, 1918.557
876.9372, 1890.953
877.4193, 1856.672
877.9014, 1819.803
878.3835, 1785.311
878.8657, 1754.094
879.3478, 1725.123
879.8299, 1697.984
880.3120, 1672.051
880.7941, 1646.814
881.2762, 1621.945
881.7584, 1595.986
882.2405, 1569.069
882.7226, 1544.245
883.2047, 1523.062
883.6868, 1503.741
884.1689, 1484.040
884.6511, 1463.950
885.1332, 1444.363
885.6153, 1424.998
886.0974, 1406.805
886.5795, 1389.746
887.0616, 1374.092
887.5438, 1359.892
888.0259, 1347.162
888.5080, 1335.918
888.9901, 1326.692
889.4722, 1317.653
889.9543, 1308.271
890.4365, 1299.244
890.9186, 1290.921
891.4007, 1283.210
891.8828, 1275.967
892.3649, 1269.158
892.8470, 1263.076
893.3292, 1258.127
893.8113, 1253.661
894.2934, 1248.380
894.7755, 1243.463
895.2576, 1241.874
895.7397, 1243.124
896.2219, 1243.003
896.7040, 1239.242
897.1861, 1235.157
897.6682, 1236.531
898.1503, 1242.455
898.6324, 1244.948
899.1146, 1243.635
899.5967, 1244.481
900.0788, 1249.738
900.5609, 1256.094
901.0430, 1260.036
901.5251, 1262.293
902.0073, 1267.562
902.4894, 1277.735
902.9715, 1287.047
903.4536, 1293.191
903.9357, 1300.842
904.4178, 1312.307
904.9000, 1326.284
905.3821, 1341.193
905.8642, 1356.887
906.3463, 1372.818
906.8284, 1389.644
907.3105, 1405.634
907.7927, 1418.915
908.2748, 1431.544
908.7569, 1446.481
909.2390, 1462.844
909.7211, 1477.518
910.2032, 1489.175
910.6854, 1498.123
911.1675, 1505.059
911.6496, 1509.290
912.1317, 1509.705
912.6138, 1506.350
913.0959, 1499.548
913.5781, 1489.421
914.0602, 1476.158
914.5423, 1459.831
915.0244, 1440.489
915.5065, 1417.230
915.9886, 1389.980
916.4708, 1363.599
916.9529, 1338.568
917.4350, 1314.002
917.9171, 1289.316
918.3992, 1264.625
918.8813, 1240.000
919.3635, 1215.081
919.8456, 1191.687
920.3277, 1170.481
920.8098, 1149.725
921.2919, 1128.423
921.7740, 1108.038
922.2562, 1089.687
922.7383, 1073.179
923.2204, 1058.000
923.7025, 1044.553
924.1846, 1031.256
924.6667, 1017.161
925.1489, 1003.726
925.6310, 991.5056
926.1131, 980.7183
926.5952, 972.1227
927.0773, 965.4578
927.5594, 958.6379
928.0416, 950.1199
928.5237, 941.7145
929.0058, 934.9926
929.4879, 929.4249
929.9700, 924.4499
930.4521, 919.7762
930.9343, 914.7999
931.4164, 909.2888
931.8985, 903.8160
932.3806, 899.1863
932.8627, 895.1202
933.3448, 890.8605
933.8270, 886.3835
934.3091, 881.0853
934.7912, 874.8321
935.2733, 868.4105
935.7554, 862.2269
936.2375, 856.6713
936.7197, 853.0279
937.2018, 851.9536
937.6839, 848.8162
938.1660, 842.5970
938.6481, 836.8338
939.1302, 832.5267
939.6124, 829.2654
940.0945, 826.9109
940.5766, 825.3304
941.0587, 823.2692
941.5408, 820.0903
942.0229, 817.3943
942.5051, 816.2169
942.9872, 814.4666
943.4693, 810.3803
943.9514, 805.4876
944.4335, 801.8466
944.9156, 799.7037
945.3978, 798.2293
945.8799, 797.5445
946.3620, 796.9560
946.8441, 796.5008
947.3262, 795.6886
947.8083, 793.4454
948.2905, 790.4896
948.7726, 788.7090
949.2547, 788.8069
949.7368, 789.5504
950.2189, 790.3747
950.7010, 790.9047
951.1832, 790.2903
951.6653, 789.0447
952.1474, 788.2206
952.6295, 788.1104
953.1116, 789.0833
953.5938, 791.5201
954.0759, 794.1758
954.5580, 794.8762
955.0400, 793.9274
955.5222, 792.7746
956.0043, 791.4835
956.4864, 790.5316
956.9685, 790.0457
957.4506, 790.1644
957.9327, 791.0128
958.4149, 792.5883
958.8970, 795.1566
959.3791, 799.2738
959.8612, 801.5046
960.3433, 801.0883
960.8254, 800.0936
961.3076, 798.9341
961.7897, 798.3361
962.2718, 799.3756
962.7539, 802.0727
963.2360, 805.1154
963.7181, 810.2679
964.2003, 812.9883
964.6824, 811.5494
965.1645, 809.0500
965.6466, 806.7075
966.1287, 804.5458
966.6108, 802.4920
967.0930, 800.5086
967.5751, 798.9032
968.0572, 797.2383
968.5393, 796.5947
969.0214, 797.8692
969.5035, 799.9760
969.9857, 802.2872
970.4678, 804.5111
970.9499, 806.1541
971.4320, 806.9750
971.9141, 807.8743
972.3962, 809.4300
972.8784, 811.2418
973.3605, 812.8700
973.8426, 814.5500
974.3247, 817.1699
974.8068, 820.3643
975.2889, 821.9531
975.7711, 820.3306
976.2532, 818.9089
976.7353, 822.3016
977.2174, 828.1014
977.6995, 831.8122
978.1816, 833.8851
978.6638, 836.6526
979.1459, 840.7386
979.6280, 845.1824
980.1101, 849.2037
980.5922, 853.6074
981.0743, 857.4926
981.5565, 862.2722
982.0386, 866.7979
982.5207, 871.0180
983.0028, 875.2288
983.4849, 879.4963
983.9670, 884.1908
984.4492, 889.8082
984.9313, 896.1002
985.4134, 901.8929
985.8955, 907.0726
986.3776, 912.5550
986.8597, 918.4483
987.3419, 924.6650
987.8240, 931.3298
988.3061, 937.9682
988.7882, 943.8557
989.2703, 948.9736
989.7524, 954.4020
990.2346, 960.5759
990.7167, 966.1611
991.1988, 971.7242
991.6809, 975.6508
992.1630, 976.1696
992.6451, 974.9345
993.1273, 975.0120
993.6094, 976.7269
994.0915, 977.4101
994.5736, 976.8495
995.0557, 975.5134
995.5378, 973.4784
996.0200, 970.7159
996.5021, 966.7946
996.9842, 962.2484
997.4663, 958.1227
997.9484, 954.6013
998.4305, 951.2178
998.9127, 948.2278
999.3948, 944.9026
999.8769, 939.9680
1000.359, 935.3660
1000.841, 933.4647
1001.323, 933.3951
1001.805, 932.3881
1002.287, 929.4530
1002.770, 927.1671
1003.252, 926.4197
1003.734, 927.2564
1004.216, 929.3737
1004.698, 933.3181
1005.180, 941.8107
1005.662, 952.9399
1006.144, 959.9261
1006.627, 959.5677
1007.109, 956.8624
1007.591, 954.2037
1008.073, 952.8528
1008.555, 955.1375
1009.037, 959.5689
1009.519, 963.4350
1010.001, 966.1910
1010.483, 968.3989
1010.966, 970.3176
1011.448, 972.1481
1011.930, 974.5934
1012.412, 976.8902
1012.894, 977.5046
1013.376, 976.6292
1013.858, 974.5735
1014.340, 971.6945
1014.823, 969.9241
1015.305, 970.8206
1015.787, 972.3951
1016.269, 970.9699
1016.751, 967.4411
1017.233, 964.9755
1017.715, 963.7104
1018.197, 964.2794
1018.679, 966.7584
1019.162, 967.3273
1019.644, 962.6732
1020.126, 954.7253
1020.608, 947.2047
1021.090, 940.2171
1021.572, 935.1905
1022.054, 932.2293
1022.536, 929.2217
1023.018, 925.5422
1023.501, 921.1984
1023.983, 916.1239
1024.465, 910.4764
1024.947, 904.7510
1025.429, 898.9601
1025.911, 893.2465
1026.393, 887.7393
1026.875, 881.3976
1027.358, 873.6913
1027.840, 865.5293
1028.322, 857.8091
1028.804, 850.3826
1029.286, 842.6655
1029.768, 836.8260
1030.250, 827.9836
1030.732, 825.8327
1031.214, 823.3489
1031.697, 818.7667
1032.179, 813.7757
1032.661, 809.8206
1033.143, 806.9670
1033.625, 805.5529
1034.107, 805.9301
1034.589, 807.0085
1035.071, 809.8119
1035.553, 811.3817
1036.036, 809.6384
1036.518, 807.4110
1037.000, 807.7100
1037.482, 810.0754
1037.964, 811.7587
1038.446, 810.9936
1038.928, 813.0480
1039.410, 820.5070
1039.893, 827.2564
1040.375, 830.7614
1040.857, 833.0599
1041.339, 835.6307
1041.821, 838.6138
1042.303, 842.7897
1042.785, 849.2396
1043.267, 854.8257
1043.750, 859.7659
1044.232, 863.3912
1044.714, 863.4236
1045.196, 863.5865
1045.678, 868.0651
1046.160, 875.9975
1046.642, 882.9690
1047.124, 888.2483
1047.606, 893.2604
1048.089, 897.9758
1048.571, 902.6837
1049.053, 906.8538
1049.535, 911.5856
1050.017, 918.9630
1050.499, 927.9750
1050.981, 934.4352
1051.463, 936.2116
1051.945, 939.3688
1052.428, 946.2166
1052.910, 953.4802
1053.392, 959.7567
1053.874, 965.7003
1054.356, 971.7086
1054.838, 978.0410
1055.320, 985.2660
1055.802, 993.6630
1056.285, 1002.383
1056.767, 1011.812
1057.249, 1020.744
1057.731, 1028.343
1058.213, 1035.299
1058.695, 1041.491
1059.177, 1047.776
1059.659, 1056.742
1060.141, 1069.826
1060.624, 1081.584
1061.106, 1087.912
1061.588, 1095.191
1062.070, 1108.055
1062.552, 1122.406
1063.034, 1133.539
1063.516, 1142.576
1063.998, 1153.796
1064.480, 1168.638
1064.963, 1182.672
1065.445, 1192.769
1065.927, 1203.312
1066.409, 1215.999
1066.891, 1230.712
1067.373, 1248.260
1067.855, 1267.341
1068.337, 1285.326
1068.820, 1301.536
1069.302, 1317.537
1069.784, 1332.974
1070.266, 1349.646
1070.748, 1368.650
1071.230, 1389.238
1071.712, 1411.468
1072.194, 1434.686
1072.677, 1457.361
1073.159, 1479.198
1073.641, 1503.623
1074.123, 1533.382
1074.605, 1564.530
1075.087, 1595.225
1075.569, 1626.262
1076.051, 1659.144
1076.533, 1692.789
1077.016, 1724.195
1077.498, 1753.309
1077.980, 1785.282
1078.462, 1823.330
1078.944, 1863.488
1079.426, 1904.943
1079.908, 1946.917
1080.390, 1989.135
1080.872, 2031.510
1081.354, 2073.323
1081.837, 2114.896
1082.319, 2159.270
1082.801, 2208.765
1083.283, 2259.338
1083.765, 2309.890
1084.247, 2359.810
1084.729, 2408.875
1085.211, 2456.808
1085.694, 2502.415
1086.176, 2546.500
1086.658, 2593.551
1087.140, 2646.401
1087.622, 2698.494
1088.104, 2747.024
1088.586, 2794.640
1089.068, 2842.981
1089.551, 2891.232
1090.033, 2937.730
1090.515, 2983.052
1090.997, 3028.583
1091.479, 3075.436
1091.961, 3120.136
1092.443, 3159.860
1092.925, 3198.969
1093.407, 3240.714
1093.890, 3281.685
1094.372, 3317.275
1094.854, 3349.494
1095.336, 3384.627
1095.818, 3424.426
1096.300, 3461.597
1096.782, 3492.664
1097.264, 3522.230
1097.746, 3552.704
1098.229, 3582.198
1098.711, 3610.033
1099.193, 3635.448
1099.675, 3656.839
1100.157, 3673.985
1100.639, 3691.516
1101.121, 3711.214
1101.603, 3730.353
1102.086, 3748.889
1102.568, 3765.970
1103.050, 3781.608
1103.532, 3795.059
1104.014, 3804.537
1104.496, 3810.389
1104.978, 3816.945
1105.460, 3826.650
1105.943, 3834.149
1106.425, 3837.275
1106.907, 3839.680
1107.389, 3843.101
1107.871, 3846.561
1108.353, 3848.616
1108.835, 3852.208
1109.317, 3851.976
1109.799, 3857.500
1110.281, 3859.816
1110.764, 3860.440
1111.246, 3855.174
1111.728, 3836.191
1112.210, 3816.906
1112.692, 3809.444
1113.174, 3809.480
1113.656, 3806.100
1114.138, 3799.337
1114.621, 3788.859
1115.103, 3769.864
1115.585, 3755.149
1116.067, 3749.641
1116.549, 3745.046
1117.031, 3736.946
1117.513, 3726.570
1117.995, 3715.566
1118.478, 3703.984
1118.960, 3693.525
1119.442, 3687.189
1119.924, 3674.585
1120.406, 3652.092
1120.888, 3628.665
1121.370, 3607.101
1121.852, 3587.989
1122.334, 3572.945
1122.817, 3560.792
1123.299, 3545.152
1123.781, 3525.635
1124.263, 3503.446
1124.745, 3477.418
1125.227, 3453.042
1125.709, 3432.243
1126.191, 3412.898
1126.673, 3393.728
1127.156, 3374.124
1127.638, 3352.305
1128.120, 3328.258
1128.602, 3305.766
1129.084, 3285.330
1129.566, 3261.972
1130.048, 3234.462
1130.530, 3207.317
1131.013, 3183.372
1131.495, 3160.158
1131.977, 3134.115
1132.459, 3105.743
1132.941, 3077.007
1133.423, 3047.871
1133.905, 3021.214
1134.387, 2997.132
1134.870, 2970.353
1135.352, 2938.802
1135.834, 2907.031
1136.316, 2879.706
1136.798, 2848.597
1137.280, 2824.119
1137.762, 2791.205
1138.244, 2762.441
1138.726, 2737.040
1139.208, 2709.844
1139.691, 2679.615
1140.173, 2648.778
1140.655, 2618.530
1141.137, 2588.419
1141.619, 2557.896
1142.101, 2526.978
1142.583, 2495.184
1143.065, 2463.306
1143.548, 2432.680
1144.030, 2403.633
1144.512, 2376.945
1144.994, 2352.665
1145.476, 2327.738
1145.958, 2299.315
1146.440, 2269.593
1146.922, 2240.257
1147.405, 2211.339
1147.887, 2182.803
1148.369, 2154.700
1148.851, 2126.903
1149.333, 2099.618
1149.815, 2074.323
1150.297, 2051.682
1150.779, 2031.128
1151.261, 2015.249
1151.744, 1998.133
1152.226, 1973.346
1152.708, 1946.363
1153.190, 1924.272
1153.672, 1906.034
1154.154, 1886.117
1154.636, 1862.846
1155.118, 1840.501
1155.600, 1820.588
1156.083, 1801.485
1156.565, 1783.839
1157.047, 1765.462
1157.529, 1743.781
1158.011, 1720.749
1158.493, 1699.521
1158.975, 1680.117
1159.457, 1661.843
1159.940, 1645.472
1160.422, 1628.756
1160.904, 1609.806
1161.386, 1593.120
1161.868, 1582.087
1162.350, 1571.776
1162.832, 1557.436
1163.314, 1540.456
1163.796, 1525.337
1164.279, 1512.667
1164.761, 1498.457
1165.243, 1481.823
1165.725, 1467.075
1166.207, 1455.344
1166.689, 1444.388
1167.171, 1432.930
1167.653, 1421.500
1168.135, 1410.937
1168.618, 1399.252
1169.100, 1389.362
1169.582, 1376.333
1170.064, 1363.768
1170.546, 1351.895
1171.028, 1342.129
1171.510, 1334.933
1171.992, 1327.988
1172.474, 1319.394
1172.957, 1310.088
1173.439, 1301.693
1173.921, 1293.857
1174.403, 1285.396
1174.885, 1276.537
1175.367, 1268.258
1175.849, 1260.495
1176.331, 1252.132
1176.814, 1242.705
1177.296, 1233.906
1177.778, 1227.371
1178.260, 1222.047
1178.742, 1217.453
1179.224, 1212.763
1179.706, 1206.358
1180.188, 1199.117
1180.671, 1193.330
1181.153, 1189.061
1181.635, 1184.077
1182.117, 1177.284
1182.599, 1170.220
1183.081, 1162.850
1183.563, 1156.535
1184.045, 1153.328
1184.527, 1150.572
1185.010, 1145.515
1185.492, 1138.796
1185.974, 1132.288
1186.456, 1126.244
1186.938, 1120.326
1187.420, 1113.432
1187.902, 1108.258
1188.384, 1106.610
1188.866, 1105.105
1189.349, 1102.715
1189.831, 1099.366
1190.313, 1094.755
1190.795, 1089.195
1191.277, 1083.947
1191.759, 1079.267
1192.241, 1073.586
1192.723, 1066.218
1193.206, 1060.389
1193.688, 1057.007
1194.170, 1054.377
1194.652, 1051.693
1195.134, 1048.637
1195.616, 1044.762
1196.098, 1040.168
1196.580, 1035.303
1197.063, 1030.144
1197.545, 1023.898
1198.027, 1016.684
1198.509, 1009.704
1198.991, 1003.368
1199.473, 998.1472
1199.955, 994.5155
1200.437, 991.0640
1200.919, 985.3859
1201.401, 978.9803
1201.884, 974.6232
1202.366, 971.4142
1202.848, 967.5819
1203.330, 963.1202
1203.812, 958.6146
1204.294, 954.3380
1204.776, 951.0159
1205.258, 949.6778
1205.741, 948.2297
1206.223, 945.1867
1206.705, 941.6824
1207.187, 938.5710
1207.669, 935.5015
1208.151, 931.7983
1208.633, 927.7162
1209.115, 924.3242
1209.598, 922.1069
1210.080, 918.8434
1210.562, 913.2777
1211.044, 907.9565
1211.526, 902.4269
1212.008, 898.5135
1212.490, 898.3680
1212.972, 898.8847
1213.454, 896.2485
1213.937, 891.1603
1214.419, 887.0069
1214.901, 883.9651
1215.383, 881.0941
1215.865, 878.5356
1216.347, 874.8421
1216.829, 869.3878
1217.311, 865.7448
1217.793, 866.1746
1218.276, 868.1581
1218.758, 868.6159
1219.240, 867.6650
1219.722, 865.0104
1220.204, 861.3074
1220.686, 859.4489
1221.168, 858.8630
1221.650, 855.8195
1222.133, 850.0651
1222.615, 846.1103
1223.097, 846.6262
1223.579, 848.2421
1224.061, 848.0455
1224.543, 847.3312
1225.025, 847.6456
1225.507, 847.9269
1225.990, 846.5551
1226.472, 844.2609
1226.954, 842.5139
1227.436, 841.6047
1227.918, 841.3473
1228.400, 842.3030
1228.882, 842.5997
1229.364, 841.6322
1229.846, 840.1561
1230.328, 837.9308
1230.811, 835.8362
1231.293, 834.1691
1231.775, 833.3032
1232.257, 834.1616
1232.739, 836.7283
1233.221, 838.7054
1233.703, 840.0919
1234.185, 840.7639
1234.668, 840.5186
1235.150, 840.7172
1235.632, 841.8536
1236.114, 843.2211
1236.596, 844.3705
1237.078, 844.8878
1237.560, 843.4543
1238.042, 844.0987
1238.525, 843.6512
1239.007, 843.2250
1239.489, 843.4838
1239.971, 842.3834
1240.453, 842.7374
1240.935, 845.2657
1241.417, 848.3651
1241.899, 851.3782
1242.381, 853.5200
1242.864, 853.9149
1243.346, 853.4898
1243.828, 851.6632
1244.310, 850.5543
1244.792, 853.3611
1245.274, 858.4600
1245.756, 862.1077
1246.238, 863.7386
1246.720, 864.6414
1247.203, 863.7314
1247.685, 864.2528
1248.167, 867.9938
1248.649, 870.6943
1249.131, 870.2374
1249.613, 869.6898
1250.095, 871.3909
1250.577, 874.5352
1251.059, 877.6071
1251.542, 880.6267
1252.024, 883.9471
1252.506, 886.5376
1252.988, 890.2295
1253.470, 891.8703
1253.952, 893.8735
1254.434, 896.6415
1254.916, 899.5212
1255.399, 901.9789
1255.881, 904.7947
1256.363, 909.5665
1256.845, 914.7296
1257.327, 917.8203
1257.809, 919.8137
1258.291, 921.5830
1258.773, 923.8185
1259.255, 927.9002
1259.738, 933.7975
1260.220, 939.5295
1260.702, 944.5663
1261.184, 948.9200
1261.666, 952.0477
1262.148, 955.2736
1262.630, 959.4310
1263.112, 963.5513
1263.594, 966.2882
1264.077, 969.0502
1264.559, 974.0065
1265.041, 979.1503
1265.523, 987.2916
1266.005, 992.8515
1266.487, 1000.167
1266.969, 1009.609
1267.451, 1017.824
1267.934, 1023.993
1268.416, 1029.705
1268.898, 1035.883
1269.380, 1042.314
1269.862, 1048.666
1270.344, 1055.281
1270.826, 1062.506
1271.308, 1070.689
1271.791, 1081.302
1272.273, 1093.011
1272.755, 1102.422
1273.237, 1109.957
1273.719, 1119.735
1274.201, 1133.399
1274.683, 1145.820
1275.165, 1154.939
1275.647, 1162.213
1276.130, 1165.645
1276.612, 1170.441
1277.094, 1180.801
1277.576, 1193.103
1278.058, 1203.476
1278.540, 1212.502
1279.022, 1221.646
1279.504, 1230.825
1279.986, 1241.719
1280.469, 1252.163
1280.951, 1266.288
1281.433, 1276.080
1281.915, 1287.767
1282.397, 1302.791
1282.879, 1318.387
1283.361, 1332.408
1283.843, 1345.633
1284.326, 1358.983
1284.808, 1372.382
##END=



