##NAMES=Titanite
##RRUFFID=R050114
##IDEAL CHEMISTRY=CaTi^4+^SiO_5_
##LOCALITY=Isthak Valley Iskardu, Northern Areas Gilgit, Pakistan
##OWNER=RRUFF
##SOURCE=Syed Shah
##DESCRIPTION=Yellowish-brown fragment
##STATUS=The identification of this mineral has been confirmed by X-ray diffraction and chemical analysis
##URL=rruff.info/R050114
##MEASURED CHEMISTRY=(Ca_0.99_Na_0.01_)(Ti_0.96_Al_0.03_Fe^3+^_0.01_)Si_1.00_O_4_(O_0.95_F_0.05_)
112.4203, 4367.206
112.9025, 4330.319
113.3846, 4296.817
113.8667, 4272.726
114.3488, 4255.430
114.8309, 4241.427
115.3130, 4230.080
115.7952, 4221.786
116.2773, 4219.673
116.7594, 4230.016
117.2415, 4230.634
117.7236, 4200.701
118.2057, 4159.822
118.6879, 4133.511
119.1700, 4139.380
119.6521, 4171.945
120.1342, 4190.600
120.6163, 4179.574
121.0984, 4168.861
121.5805, 4164.191
122.0627, 4165.553
122.5448, 4171.444
123.0269, 4181.115
123.5090, 4195.608
123.9911, 4207.038
124.4732, 4209.756
124.9554, 4214.562
125.4375, 4228.181
125.9196, 4250.688
126.4017, 4276.679
126.8838, 4300.154
127.3659, 4320.114
127.8481, 4339.272
128.3302, 4363.344
128.8123, 4384.381
129.2944, 4390.742
129.7765, 4377.269
130.2586, 4357.628
130.7408, 4353.534
131.2229, 4364.446
131.7050, 4378.252
132.1871, 4391.027
132.6692, 4403.079
133.1513, 4415.944
133.6335, 4431.778
134.1156, 4446.646
134.5977, 4454.500
135.0798, 4454.059
135.5619, 4456.545
136.0440, 4474.715
136.5262, 4511.188
137.0083, 4545.757
137.4904, 4570.516
137.9725, 4592.954
138.4546, 4617.836
138.9367, 4646.540
139.4189, 4677.059
139.9010, 4705.601
140.3831, 4730.989
140.8652, 4755.997
141.3473, 4782.160
141.8294, 4807.672
142.3116, 4830.226
142.7937, 4848.758
143.2758, 4864.133
143.7579, 4880.667
144.2400, 4906.348
144.7221, 4924.335
145.2043, 4924.623
145.6864, 4916.044
146.1685, 4915.126
146.6506, 4934.351
147.1327, 4971.059
147.6148, 4986.095
148.0969, 4958.957
148.5791, 4934.767
149.0612, 4934.459
149.5433, 4956.152
150.0254, 4984.861
150.5075, 5009.869
150.9896, 5031.963
151.4718, 5058.112
151.9539, 5096.877
152.4360, 5134.901
152.9181, 5155.296
153.4002, 5154.321
153.8823, 5156.112
154.3645, 5182.617
154.8466, 5226.854
155.3287, 5277.554
155.8108, 5341.220
156.2929, 5408.160
156.7750, 5454.264
157.2572, 5469.461
157.7393, 5479.585
158.2214, 5503.809
158.7035, 5536.073
159.1856, 5562.437
159.6677, 5570.964
160.1499, 5562.825
160.6320, 5559.072
161.1141, 5566.596
161.5962, 5572.000
162.0783, 5575.656
162.5604, 5574.106
163.0426, 5559.202
163.5247, 5519.091
164.0068, 5446.448
164.4889, 5387.583
164.9710, 5351.436
165.4531, 5320.406
165.9353, 5286.672
166.4174, 5249.831
166.8995, 5214.039
167.3816, 5184.880
167.8637, 5165.140
168.3458, 5145.252
168.8279, 5125.052
169.3101, 5104.865
169.7922, 5082.668
170.2743, 5058.708
170.7564, 5038.516
171.2385, 5031.052
171.7206, 5044.349
172.2028, 5052.651
172.6849, 5046.943
173.1670, 5038.562
173.6491, 5042.881
174.1312, 5065.733
174.6133, 5095.058
175.0955, 5107.233
175.5776, 5098.934
176.0597, 5097.500
176.5418, 5112.310
177.0239, 5139.690
177.5060, 5172.784
177.9882, 5212.237
178.4703, 5252.803
178.9524, 5288.835
179.4345, 5320.794
179.9166, 5347.542
180.3987, 5361.260
180.8809, 5364.934
181.3630, 5383.734
181.8451, 5435.488
182.3272, 5496.165
182.8093, 5545.459
183.2914, 5581.536
183.7736, 5609.775
184.2557, 5631.850
184.7378, 5646.094
185.2199, 5667.003
185.7020, 5700.174
186.1841, 5739.992
186.6663, 5785.959
187.1484, 5837.610
187.6305, 5890.253
188.1126, 5936.600
188.5947, 5971.849
189.0768, 6012.784
189.5589, 6064.734
190.0411, 6120.038
190.5232, 6172.564
191.0053, 6220.725
191.4874, 6269.471
191.9695, 6329.871
192.4516, 6414.058
192.9338, 6489.467
193.4159, 6550.754
193.8980, 6606.090
194.3801, 6660.091
194.8622, 6715.198
195.3443, 6774.733
195.8265, 6846.451
196.3086, 6949.262
196.7907, 7043.375
197.2728, 7127.322
197.7549, 7202.647
198.2370, 7268.266
198.7192, 7323.182
199.2013, 7373.630
199.6834, 7436.049
200.1655, 7509.075
200.6476, 7594.738
201.1297, 7701.182
201.6119, 7819.361
202.0940, 7935.997
202.5761, 8046.609
203.0582, 8148.405
203.5403, 8229.310
204.0224, 8274.503
204.5046, 8332.397
204.9867, 8430.576
205.4688, 8555.563
205.9509, 8673.063
206.4330, 8768.563
206.9151, 8848.270
207.3972, 8924.527
207.8794, 8994.060
208.3615, 9068.219
208.8436, 9156.829
209.3257, 9257.239
209.8078, 9355.262
210.2899, 9444.104
210.7721, 9528.750
211.2542, 9616.489
211.7363, 9708.287
212.2184, 9799.710
212.7005, 9886.090
213.1826, 9967.562
213.6648, 10048.88
214.1469, 10130.09
214.6290, 10213.24
215.1111, 10301.25
215.5932, 10395.11
216.0753, 10488.59
216.5575, 10574.38
217.0396, 10650.46
217.5217, 10729.50
218.0038, 10820.78
218.4859, 10912.34
218.9680, 10998.12
219.4502, 11076.70
219.9323, 11146.86
220.4144, 11204.50
220.8965, 11244.01
221.3786, 11290.12
221.8607, 11348.58
222.3429, 11412.62
222.8250, 11483.58
223.3071, 11560.27
223.7892, 11631.37
224.2713, 11677.79
224.7534, 11686.32
225.2356, 11700.76
225.7177, 11739.77
226.1998, 11773.93
226.6819, 11778.62
227.1640, 11750.34
227.6461, 11708.66
228.1283, 11684.24
228.6104, 11687.71
229.0925, 11689.23
229.5746, 11697.91
230.0567, 11699.28
230.5388, 11680.96
231.0210, 11641.00
231.5031, 11588.64
231.9852, 11536.27
232.4673, 11481.49
232.9494, 11432.90
233.4315, 11402.63
233.9137, 11370.52
234.3958, 11320.69
234.8779, 11249.83
235.3600, 11165.06
235.8421, 11075.50
236.3242, 10977.82
236.8064, 10883.10
237.2885, 10792.85
237.7706, 10704.08
238.2527, 10612.98
238.7348, 10518.92
239.2169, 10427.46
239.6991, 10347.98
240.1812, 10285.88
240.6633, 10213.51
241.1454, 10116.72
241.6275, 10016.50
242.1096, 9934.306
242.5918, 9874.333
243.0739, 9819.690
243.5560, 9749.507
244.0381, 9661.275
244.5202, 9589.060
245.0023, 9549.977
245.4845, 9520.822
245.9666, 9479.935
246.4487, 9424.355
246.9308, 9355.845
247.4129, 9269.435
247.8950, 9167.236
248.3771, 9074.821
248.8593, 8997.859
249.3414, 8931.589
249.8235, 8876.503
250.3056, 8834.596
250.7877, 8785.659
251.2698, 8703.671
251.7520, 8599.681
252.2341, 8507.338
252.7162, 8443.350
253.1983, 8390.130
253.6804, 8325.194
254.1625, 8245.459
254.6447, 8167.577
255.1268, 8111.994
255.6089, 8065.127
256.0910, 8000.961
256.5731, 7902.143
257.0552, 7790.333
257.5374, 7693.602
258.0195, 7613.528
258.5016, 7540.680
258.9837, 7471.440
259.4658, 7405.865
259.9479, 7345.437
260.4301, 7293.039
260.9122, 7242.474
261.3943, 7183.970
261.8764, 7114.965
262.3585, 7048.793
262.8406, 6986.809
263.3228, 6932.786
263.8049, 6893.943
264.2870, 6874.864
264.7691, 6862.591
265.2512, 6835.925
265.7333, 6788.609
266.2155, 6756.896
266.6976, 6763.138
267.1797, 6784.021
267.6618, 6804.328
268.1439, 6820.380
268.6260, 6837.539
269.1082, 6865.311
269.5903, 6907.525
270.0724, 6940.763
270.5545, 6941.574
271.0366, 6943.890
271.5187, 6970.208
272.0009, 7023.479
272.4830, 7087.912
272.9651, 7146.481
273.4472, 7197.374
273.9293, 7252.600
274.4114, 7319.146
274.8936, 7386.376
275.3757, 7452.119
275.8578, 7514.601
276.3399, 7571.045
276.8220, 7607.937
277.3041, 7616.710
277.7863, 7667.533
278.2684, 7815.205
278.7505, 7963.083
279.2326, 8066.600
279.7147, 8134.606
280.1968, 8207.077
280.6789, 8322.735
281.1610, 8484.032
281.6432, 8621.076
282.1253, 8709.772
282.6074, 8796.146
283.0895, 8892.501
283.5716, 8997.519
284.0537, 9104.810
284.5359, 9209.902
285.0180, 9313.186
285.5001, 9419.798
285.9822, 9541.472
286.4643, 9651.740
286.9464, 9729.562
287.4286, 9794.558
287.9107, 9879.043
288.3928, 10004.59
288.8749, 10157.94
289.3570, 10279.09
289.8391, 10328.65
290.3213, 10396.45
290.8034, 10519.20
291.2855, 10658.53
291.7676, 10767.25
292.2497, 10823.12
292.7318, 10847.29
293.2140, 10895.02
293.6961, 10990.78
294.1782, 11072.56
294.6603, 11121.05
295.1424, 11162.10
295.6245, 11222.87
296.1067, 11310.54
296.5888, 11405.78
297.0709, 11473.81
297.5530, 11491.79
298.0351, 11525.38
298.5172, 11589.86
298.9994, 11657.29
299.4815, 11712.99
299.9636, 11752.54
300.4457, 11775.89
300.9278, 11780.64
301.4099, 11757.53
301.8921, 11746.09
302.3742, 11763.78
302.8563, 11776.17
303.3384, 11765.97
303.8205, 11733.17
304.3026, 11687.19
304.7848, 11636.80
305.2669, 11582.02
305.7490, 11517.15
306.2311, 11426.80
306.7132, 11342.28
307.1953, 11288.74
307.6775, 11249.73
308.1596, 11187.16
308.6417, 11070.66
309.1238, 10907.73
309.6059, 10778.60
310.0880, 10719.26
310.5702, 10655.92
311.0523, 10581.28
311.5344, 10493.86
312.0165, 10389.46
312.4986, 10265.11
312.9807, 10129.52
313.4629, 10006.86
313.9450, 9897.831
314.4271, 9804.851
314.9092, 9747.704
315.3913, 9697.145
315.8734, 9621.690
316.3556, 9511.271
316.8377, 9384.122
317.3198, 9273.440
317.8019, 9194.559
318.2840, 9104.999
318.7661, 8996.472
319.2483, 8884.488
319.7304, 8777.089
320.2125, 8676.872
320.6946, 8585.385
321.1767, 8506.696
321.6588, 8447.192
322.1409, 8372.723
322.6230, 8259.665
323.1052, 8155.146
323.5873, 8085.903
324.0694, 8046.122
324.5515, 8013.411
325.0336, 7969.149
325.5157, 7913.532
325.9979, 7861.231
326.4800, 7811.787
326.9621, 7766.466
327.4442, 7731.418
327.9263, 7700.225
328.4084, 7661.762
328.8906, 7609.154
329.3727, 7546.980
329.8548, 7493.817
330.3369, 7448.054
330.8190, 7415.637
331.3011, 7405.952
331.7833, 7405.356
332.2654, 7400.807
332.7475, 7387.391
333.2296, 7367.787
333.7117, 7346.634
334.1938, 7322.689
334.6760, 7299.547
335.1581, 7279.105
335.6402, 7258.133
336.1223, 7234.451
336.6044, 7207.657
337.0865, 7178.375
337.5687, 7144.635
338.0508, 7102.156
338.5329, 7077.374
339.0150, 7093.514
339.4971, 7104.868
339.9792, 7087.029
340.4614, 7048.090
340.9435, 7012.802
341.4256, 7001.742
341.9077, 7012.131
342.3898, 7009.330
342.8719, 6983.869
343.3541, 6954.677
343.8362, 6916.752
344.3183, 6880.068
344.8004, 6858.885
345.2825, 6860.761
345.7646, 6877.574
346.2468, 6887.926
346.7289, 6885.457
347.2110, 6888.553
347.6931, 6900.374
348.1752, 6917.135
348.6573, 6939.682
349.1395, 6966.888
349.6216, 6989.559
350.1037, 6992.787
350.5858, 6969.902
351.0679, 6953.676
351.5500, 6942.427
352.0322, 6941.166
352.5143, 6958.210
352.9964, 6989.406
353.4785, 7020.944
353.9606, 7043.065
354.4427, 7055.714
354.9249, 7058.258
355.4070, 7045.206
355.8891, 7028.279
356.3712, 7007.862
356.8533, 6987.358
357.3354, 6970.624
357.8176, 6958.212
358.2997, 6953.316
358.7818, 6968.268
359.2639, 7017.302
359.7460, 7050.793
360.2281, 7041.116
360.7103, 7018.418
361.1924, 7009.684
361.6745, 7021.972
362.1566, 7038.242
362.6387, 7033.049
363.1208, 7002.987
363.6029, 6991.980
364.0851, 7028.521
364.5672, 7066.812
365.0493, 7071.625
365.5314, 7047.662
366.0135, 7029.041
366.4956, 7045.276
366.9778, 7088.207
367.4599, 7118.936
367.9420, 7128.632
368.4241, 7140.725
368.9062, 7170.176
369.3883, 7210.679
369.8705, 7251.857
370.3526, 7287.900
370.8347, 7324.630
371.3168, 7372.611
371.7989, 7433.309
372.2810, 7493.061
372.7632, 7539.455
373.2453, 7586.225
373.7274, 7649.816
374.2095, 7733.930
374.6916, 7826.250
375.1737, 7915.211
375.6559, 8003.610
376.1380, 8106.919
376.6201, 8232.868
377.1022, 8368.909
377.5843, 8498.234
378.0664, 8621.948
378.5486, 8763.009
379.0307, 8938.203
379.5128, 9131.898
379.9949, 9317.863
380.4770, 9493.140
380.9591, 9677.705
381.4413, 9886.558
381.9234, 10118.35
382.4055, 10359.86
382.8876, 10611.32
383.3697, 10873.53
383.8518, 11150.08
384.3340, 11438.24
384.8161, 11731.51
385.2982, 12023.30
385.7803, 12321.36
386.2624, 12638.85
386.7445, 12980.15
387.2267, 13324.51
387.7088, 13663.93
388.1909, 14006.17
388.6730, 14360.81
389.1551, 14731.61
389.6372, 15109.38
390.1194, 15485.52
390.6015, 15858.79
391.0836, 16233.61
391.5657, 16610.41
392.0478, 16986.73
392.5299, 17360.80
393.0121, 17732.96
393.4942, 18105.97
393.9763, 18485.53
394.4584, 18866.20
394.9405, 19222.58
395.4226, 19533.89
395.9048, 19846.05
396.3869, 20170.10
396.8690, 20497.68
397.3511, 20829.31
397.8332, 21161.80
398.3153, 21478.94
398.7975, 21749.69
399.2796, 21953.11
399.7617, 22168.21
400.2438, 22424.36
400.7259, 22665.41
401.2080, 22860.85
401.6902, 23011.46
402.1723, 23129.96
402.6544, 23225.70
403.1365, 23298.97
403.6186, 23353.60
404.1007, 23405.64
404.5828, 23415.37
405.0649, 23369.13
405.5471, 23280.19
406.0292, 23166.96
406.5113, 23036.19
406.9934, 22875.77
407.4755, 22656.21
407.9576, 22358.63
408.4398, 22058.82
408.9219, 21777.60
409.4040, 21483.50
409.8861, 21155.81
410.3682, 20795.87
410.8503, 20422.75
411.3325, 20058.83
411.8146, 19696.85
412.2967, 19287.62
412.7788, 18796.21
413.2609, 18314.32
413.7430, 17876.75
414.2252, 17470.73
414.7073, 17082.64
415.1894, 16711.67
415.6715, 16341.85
416.1536, 15943.05
416.6357, 15512.81
417.1179, 15104.84
417.6000, 14739.47
418.0821, 14397.20
418.5642, 14053.25
419.0463, 13707.28
419.5284, 13372.91
420.0106, 13053.23
420.4927, 12750.42
420.9748, 12473.48
421.4569, 12223.99
421.9390, 11991.47
422.4211, 11770.16
422.9033, 11559.31
423.3854, 11356.38
423.8675, 11165.67
424.3496, 10979.36
424.8317, 10791.66
425.3138, 10603.64
425.7960, 10420.61
426.2781, 10245.88
426.7602, 10076.16
427.2423, 9901.537
427.7244, 9712.026
428.2065, 9550.138
428.6887, 9439.181
429.1708, 9350.741
429.6529, 9255.396
430.1350, 9150.444
430.6171, 9050.855
431.0992, 8969.053
431.5814, 8905.651
432.0635, 8851.006
432.5456, 8819.036
433.0277, 8778.632
433.5098, 8707.425
433.9919, 8623.887
434.4741, 8557.700
434.9562, 8521.166
435.4383, 8504.217
435.9204, 8487.543
436.4025, 8473.801
436.8846, 8454.616
437.3668, 8420.589
437.8489, 8389.636
438.3310, 8372.055
438.8131, 8368.049
439.2952, 8374.095
439.7773, 8390.346
440.2595, 8414.408
440.7416, 8421.251
441.2237, 8398.384
441.7058, 8375.777
442.1879, 8355.984
442.6700, 8342.850
443.1522, 8340.404
443.6343, 8350.041
444.1164, 8369.692
444.5985, 8404.449
445.0806, 8456.966
445.5627, 8483.956
446.0448, 8446.246
446.5269, 8418.248
447.0091, 8461.491
447.4912, 8558.763
447.9733, 8641.741
448.4554, 8669.917
448.9375, 8665.163
449.4196, 8664.798
449.9018, 8669.106
450.3839, 8674.466
450.8660, 8671.983
451.3481, 8674.109
451.8302, 8706.647
452.3123, 8786.706
452.7945, 8849.291
453.2766, 8844.412
453.7587, 8800.688
454.2408, 8775.139
454.7229, 8780.130
455.2050, 8800.536
455.6872, 8824.278
456.1693, 8851.634
456.6514, 8873.327
457.1335, 8883.723
457.6156, 8893.746
458.0977, 8912.901
458.5799, 8936.862
459.0620, 8953.842
459.5441, 8957.980
460.0262, 8952.711
460.5083, 8945.467
460.9904, 8918.128
461.4726, 8919.189
461.9547, 8981.668
462.4368, 9047.640
462.9189, 9069.440
463.4010, 9048.455
463.8831, 9020.790
464.3653, 9019.415
464.8474, 9041.408
465.3295, 9038.461
465.8116, 8989.437
466.2937, 8941.346
466.7758, 8909.778
467.2580, 8881.414
467.7401, 8840.800
468.2222, 8783.423
468.7043, 8717.352
469.1864, 8656.429
469.6685, 8602.547
470.1507, 8529.086
470.6328, 8417.267
471.1149, 8304.086
471.5970, 8210.543
472.0791, 8131.902
472.5612, 8055.214
473.0434, 7977.438
473.5255, 7895.590
474.0076, 7799.362
474.4897, 7688.016
474.9718, 7589.115
475.4539, 7511.858
475.9361, 7454.787
476.4182, 7418.427
476.9003, 7406.451
477.3824, 7387.229
477.8645, 7335.677
478.3466, 7275.709
478.8288, 7244.144
479.3109, 7244.218
479.7930, 7248.350
480.2751, 7233.680
480.7572, 7204.695
481.2393, 7196.525
481.7215, 7218.260
482.2036, 7246.835
482.6857, 7282.545
483.1678, 7318.864
483.6499, 7345.400
484.1320, 7359.691
484.6142, 7370.922
485.0963, 7389.443
485.5784, 7412.729
486.0605, 7456.077
486.5426, 7539.228
487.0247, 7620.330
487.5068, 7684.992
487.9890, 7736.522
488.4711, 7781.586
488.9532, 7822.733
489.4353, 7862.881
489.9174, 7907.786
490.3995, 7958.338
490.8817, 8009.841
491.3638, 8059.978
491.8459, 8112.321
492.3280, 8171.727
492.8101, 8236.155
493.2922, 8296.906
493.7744, 8349.525
494.2565, 8394.734
494.7386, 8431.022
495.2207, 8455.625
495.7028, 8488.911
496.1849, 8545.055
496.6671, 8612.938
497.1492, 8675.715
497.6313, 8732.657
498.1134, 8785.086
498.5955, 8829.780
499.0776, 8871.664
499.5598, 8921.767
500.0419, 8981.636
500.5240, 9036.146
501.0061, 9071.375
501.4882, 9088.680
501.9703, 9109.323
502.4525, 9137.753
502.9346, 9163.691
503.4167, 9176.598
503.8988, 9187.812
504.3809, 9218.451
504.8630, 9273.033
505.3452, 9327.790
505.8273, 9350.027
506.3094, 9332.747
506.7915, 9319.457
507.2736, 9309.629
507.7557, 9304.306
508.2379, 9307.766
508.7200, 9315.091
509.2021, 9319.062
509.6842, 9316.550
510.1663, 9308.890
510.6484, 9295.427
511.1306, 9273.936
511.6127, 9263.087
512.0948, 9275.525
512.5769, 9289.142
513.0590, 9292.398
513.5411, 9285.094
514.0233, 9267.470
514.5054, 9234.409
514.9875, 9194.849
515.4696, 9156.157
515.9517, 9119.134
516.4338, 9101.627
516.9160, 9120.428
517.3981, 9150.647
517.8802, 9146.622
518.3623, 9103.866
518.8444, 9064.946
519.3265, 9044.420
519.8087, 9028.095
520.2908, 9002.710
520.7729, 8968.477
521.2550, 8932.967
521.7371, 8901.262
522.2192, 8871.657
522.7014, 8837.194
523.1835, 8776.067
523.6656, 8740.111
524.1477, 8761.488
524.6298, 8786.645
525.1119, 8766.485
525.5941, 8702.779
526.0762, 8636.614
526.5583, 8601.905
527.0404, 8595.262
527.5225, 8593.797
528.0046, 8600.635
528.4868, 8606.581
528.9689, 8615.266
529.4510, 8618.225
529.9331, 8601.919
530.4152, 8564.446
530.8973, 8531.398
531.3795, 8528.972
531.8616, 8546.275
532.3437, 8548.726
532.8258, 8530.541
533.3079, 8513.972
533.7900, 8515.145
534.2722, 8528.745
534.7543, 8537.116
535.2364, 8539.209
535.7185, 8537.428
536.2006, 8527.213
536.6827, 8515.771
537.1649, 8514.685
537.6470, 8525.879
538.1291, 8542.406
538.6112, 8559.172
539.0933, 8576.318
539.5754, 8582.420
540.0576, 8570.816
540.5397, 8556.865
541.0218, 8537.589
541.5039, 8520.586
541.9860, 8517.375
542.4681, 8529.602
542.9503, 8543.911
543.4324, 8541.621
543.9145, 8521.660
544.3966, 8517.161
544.8787, 8543.999
545.3608, 8561.943
545.8430, 8548.628
546.3251, 8519.222
546.8071, 8494.661
547.2892, 8481.772
547.7714, 8468.272
548.2535, 8441.494
548.7356, 8405.291
549.2177, 8371.913
549.6998, 8343.562
550.1819, 8318.457
550.6641, 8295.929
551.1462, 8275.710
551.6283, 8254.345
552.1104, 8232.724
552.5925, 8208.883
553.0746, 8178.601
553.5568, 8146.770
554.0389, 8122.460
554.5210, 8107.335
555.0031, 8093.224
555.4852, 8071.197
555.9673, 8041.147
556.4495, 8004.341
556.9316, 7940.246
557.4137, 7892.417
557.8958, 7886.502
558.3779, 7895.404
558.8600, 7886.590
559.3422, 7850.577
559.8243, 7802.138
560.3064, 7750.942
560.7885, 7698.286
561.2706, 7670.158
561.7527, 7678.322
562.2349, 7689.598
562.7170, 7678.621
563.1991, 7658.722
563.6812, 7651.765
564.1633, 7665.420
564.6454, 7682.706
565.1276, 7694.196
565.6097, 7701.700
566.0918, 7708.462
566.5739, 7715.094
567.0560, 7720.331
567.5381, 7720.171
568.0203, 7715.700
568.5024, 7733.815
568.9845, 7790.684
569.4666, 7846.215
569.9487, 7892.263
570.4308, 7932.987
570.9130, 7969.363
571.3951, 8003.858
571.8772, 8044.450
572.3593, 8098.793
572.8414, 8166.721
573.3235, 8246.852
573.8057, 8344.182
574.2878, 8444.612
574.7699, 8544.004
575.2520, 8644.163
575.7341, 8746.948
576.2162, 8852.796
576.6984, 8956.386
577.1805, 9045.906
577.6626, 9132.465
578.1447, 9242.269
578.6268, 9377.696
579.1089, 9522.625
579.5911, 9672.122
580.0732, 9821.503
580.5553, 9957.563
581.0374, 10063.80
581.5195, 10192.24
582.0016, 10371.75
582.4838, 10563.94
582.9659, 10733.32
583.4480, 10879.50
583.9301, 11016.52
584.4122, 11153.41
584.8943, 11292.73
585.3765, 11447.49
585.8586, 11623.90
586.3407, 11801.71
586.8228, 11970.48
587.3049, 12145.67
587.7870, 12348.02
588.2692, 12568.70
588.7513, 12773.60
589.2334, 12935.58
589.7155, 13078.39
590.1976, 13238.73
590.6797, 13417.09
591.1619, 13607.88
591.6440, 13814.19
592.1261, 14023.00
592.6082, 14213.82
593.0903, 14386.84
593.5724, 14566.48
594.0546, 14757.66
594.5367, 14954.60
595.0188, 15156.82
595.5009, 15362.72
595.9830, 15574.06
596.4651, 15792.10
596.9473, 15996.55
597.4294, 16150.71
597.9115, 16236.25
598.3936, 16358.29
598.8757, 16545.20
599.3578, 16739.52
599.8400, 16936.69
600.3221, 17126.32
600.8042, 17294.18
601.2863, 17434.43
601.7684, 17565.36
602.2505, 17706.66
602.7327, 17854.68
603.2148, 17986.75
603.6969, 18095.57
604.1790, 18213.72
604.6611, 18370.13
605.1432, 18551.92
605.6254, 18718.38
606.1075, 18873.42
606.5896, 19006.48
607.0717, 19093.07
607.5538, 19168.19
608.0359, 19274.18
608.5181, 19410.37
609.0002, 19545.74
609.4823, 19658.51
609.9644, 19750.14
610.4465, 19825.69
610.9286, 19867.93
611.4108, 19927.60
611.8929, 20030.59
612.3750, 20134.10
612.8571, 20210.44
613.3392, 20261.86
613.8214, 20307.04
614.3035, 20353.62
614.7856, 20401.72
615.2677, 20454.37
615.7498, 20510.63
616.2319, 20556.83
616.7141, 20587.77
617.1962, 20610.44
617.6783, 20634.19
618.1604, 20659.00
618.6425, 20669.71
619.1246, 20660.61
619.6068, 20642.73
620.0889, 20626.21
620.5710, 20602.36
621.0531, 20549.53
621.5352, 20465.41
622.0173, 20382.84
622.4995, 20347.25
622.9816, 20358.71
623.4637, 20318.04
623.9458, 20176.88
624.4279, 20062.47
624.9100, 20040.71
625.3922, 20045.09
625.8743, 20011.96
626.3564, 19931.92
626.8385, 19832.97
627.3206, 19728.30
627.8027, 19617.55
628.2849, 19497.46
628.7670, 19369.11
629.2490, 19237.53
629.7311, 19104.86
630.2133, 18973.60
630.6954, 18851.93
631.1775, 18752.06
631.6596, 18627.56
632.1417, 18453.46
632.6238, 18279.51
633.1060, 18137.64
633.5881, 18015.21
634.0702, 17886.09
634.5523, 17739.48
635.0344, 17581.86
635.5165, 17419.75
635.9987, 17253.00
636.4808, 17088.34
636.9629, 16930.18
637.4450, 16765.02
637.9271, 16576.24
638.4092, 16377.30
638.8914, 16190.96
639.3735, 16023.50
639.8556, 15851.03
640.3377, 15650.53
640.8198, 15442.74
641.3019, 15257.37
641.7841, 15094.11
642.2662, 14932.87
642.7483, 14761.75
643.2304, 14584.20
643.7125, 14411.36
644.1946, 14256.73
644.6768, 14080.81
645.1589, 13856.56
645.6410, 13639.69
646.1231, 13465.05
646.6052, 13319.25
647.0873, 13168.10
647.5695, 12994.75
648.0516, 12821.61
648.5337, 12678.68
649.0158, 12560.72
649.4979, 12438.63
649.9800, 12306.33
650.4622, 12173.23
650.9443, 12048.29
651.4264, 11927.64
651.9085, 11790.38
652.3906, 11608.83
652.8727, 11454.85
653.3549, 11361.02
653.8370, 11289.01
654.3191, 11208.61
654.8012, 11115.34
655.2833, 11013.87
655.7654, 10906.37
656.2476, 10795.76
656.7297, 10687.26
657.2118, 10578.13
657.6939, 10485.03
658.1760, 10420.65
658.6581, 10361.54
659.1403, 10294.77
659.6224, 10221.37
660.1045, 10142.89
660.5866, 10056.73
661.0687, 9971.744
661.5508, 9890.767
662.0330, 9816.088
662.5151, 9756.329
662.9972, 9711.495
663.4793, 9669.908
663.9614, 9623.682
664.4435, 9571.913
664.9257, 9507.456
665.4078, 9412.666
665.8899, 9335.113
666.3720, 9288.789
666.8541, 9249.437
667.3362, 9197.887
667.8184, 9139.863
668.3005, 9096.468
668.7826, 9083.354
669.2647, 9076.839
669.7468, 9046.434
670.2289, 8995.501
670.7111, 8942.166
671.1932, 8889.957
671.6753, 8833.782
672.1574, 8764.409
672.6395, 8686.260
673.1216, 8631.668
673.6038, 8622.794
674.0859, 8604.556
674.5680, 8559.097
675.0501, 8507.880
675.5322, 8468.051
676.0143, 8440.045
676.4965, 8418.850
676.9786, 8403.541
677.4607, 8385.742
677.9428, 8344.616
678.4249, 8278.341
678.9070, 8215.745
679.3892, 8157.377
679.8713, 8110.489
680.3534, 8086.429
680.8355, 8078.403
681.3176, 8068.548
681.7997, 8062.211
682.2819, 8042.412
682.7640, 7989.590
683.2461, 7927.305
683.7282, 7882.130
684.2103, 7855.740
684.6924, 7837.452
685.1746, 7820.569
685.6567, 7805.309
686.1388, 7794.226
686.6209, 7790.962
687.1030, 7778.180
687.5851, 7744.789
688.0673, 7712.268
688.5494, 7697.361
689.0315, 7691.129
689.5136, 7672.511
689.9957, 7628.922
690.4778, 7592.681
690.9600, 7593.912
691.4421, 7611.658
691.9242, 7612.766
692.4063, 7594.864
692.8884, 7572.471
693.3705, 7553.613
693.8527, 7539.809
694.3348, 7536.769
694.8169, 7554.271
695.2990, 7560.430
695.7811, 7540.167
696.2632, 7523.717
696.7454, 7524.483
697.2275, 7537.643
697.7096, 7556.527
698.1917, 7580.955
698.6738, 7599.296
699.1559, 7598.383
699.6381, 7585.688
700.1202, 7576.137
700.6023, 7570.971
701.0844, 7565.079
701.5665, 7553.546
702.0486, 7544.624
702.5308, 7558.154
703.0129, 7610.444
703.4950, 7643.836
703.9771, 7646.254
704.4592, 7645.215
704.9413, 7648.633
705.4235, 7657.065
705.9056, 7671.607
706.3877, 7692.434
706.8698, 7712.917
707.3519, 7723.253
707.8340, 7729.595
708.3162, 7751.877
708.7983, 7790.866
709.2804, 7821.628
709.7625, 7831.898
710.2446, 7831.287
710.7267, 7834.151
711.2089, 7840.385
711.6909, 7851.398
712.1730, 7865.270
712.6552, 7885.804
713.1373, 7922.258
713.6194, 7962.225
714.1015, 7990.141
714.5836, 8003.385
715.0657, 8011.753
715.5479, 8018.299
716.0300, 8028.209
716.5121, 8058.079
716.9942, 8108.267
717.4763, 8158.238
717.9584, 8202.657
718.4406, 8242.450
718.9227, 8277.946
719.4048, 8309.030
719.8869, 8338.779
720.3690, 8369.904
720.8511, 8396.355
721.3333, 8410.617
721.8154, 8423.040
722.2975, 8446.173
722.7796, 8479.106
723.2617, 8509.731
723.7438, 8528.146
724.2260, 8541.472
724.7081, 8563.306
725.1902, 8593.484
725.6723, 8631.855
726.1544, 8683.203
726.6365, 8728.712
727.1187, 8745.708
727.6008, 8742.556
728.0829, 8768.975
728.5650, 8861.500
729.0471, 8927.459
729.5292, 8927.567
730.0114, 8914.673
730.4935, 8931.919
730.9756, 8973.017
731.4577, 9009.525
731.9398, 9027.418
732.4219, 9034.043
732.9041, 9037.610
733.3862, 9038.628
733.8683, 9039.021
734.3504, 9036.230
734.8325, 9047.275
735.3146, 9090.854
735.7968, 9148.380
736.2789, 9173.701
736.7610, 9151.977
737.2431, 9150.183
737.7252, 9204.101
738.2073, 9248.928
738.6895, 9239.560
739.1716, 9200.070
739.6537, 9171.254
740.1358, 9165.397
740.6179, 9167.234
741.1000, 9160.060
741.5822, 9148.041
742.0643, 9150.441
742.5464, 9168.858
743.0285, 9176.642
743.5106, 9160.783
743.9927, 9137.641
744.4749, 9130.107
744.9570, 9140.322
745.4391, 9131.848
745.9212, 9081.251
746.4033, 9041.647
746.8854, 9043.025
747.3676, 9052.412
747.8497, 9034.706
748.3318, 8989.775
748.8139, 8941.130
749.2960, 8901.772
749.7781, 8870.475
750.2603, 8844.569
750.7424, 8824.470
751.2245, 8820.557
751.7066, 8842.085
752.1887, 8837.161
752.6708, 8756.782
753.1530, 8622.801
753.6351, 8525.190
754.1172, 8487.895
754.5993, 8449.238
755.0814, 8409.720
755.5635, 8366.740
756.0457, 8321.037
756.5278, 8269.949
757.0099, 8204.890
757.4920, 8122.119
757.9741, 8044.907
758.4562, 8001.714
758.9384, 7978.760
759.4205, 7940.250
759.9026, 7885.574
760.3847, 7836.864
760.8668, 7808.029
761.3489, 7773.073
761.8311, 7686.147
762.3132, 7532.484
762.7953, 7434.038
763.2774, 7443.079
763.7595, 7443.262
764.2416, 7410.575
764.7238, 7359.792
765.2059, 7300.541
765.6880, 7236.469
766.1701, 7174.660
766.6522, 7122.670
767.1343, 7070.215
767.6165, 7000.641
768.0986, 6922.351
768.5807, 6856.995
769.0628, 6808.641
769.5449, 6771.972
770.0270, 6745.016
770.5092, 6722.956
770.9913, 6688.397
771.4734, 6639.897
771.9555, 6581.903
772.4376, 6498.585
772.9197, 6423.795
773.4019, 6373.765
773.8840, 6341.339
774.3661, 6317.240
774.8482, 6301.667
775.3303, 6281.987
775.8124, 6249.331
776.2946, 6211.336
776.7767, 6178.537
777.2588, 6147.434
777.7409, 6103.449
778.2230, 6042.221
778.7051, 5982.458
779.1873, 5947.881
779.6694, 5936.250
780.1515, 5916.554
780.6336, 5884.184
781.1157, 5858.603
781.5978, 5848.538
782.0800, 5843.178
782.5621, 5835.465
783.0442, 5824.468
783.5263, 5803.931
784.0084, 5757.721
784.4905, 5721.551
784.9727, 5717.368
785.4548, 5722.538
785.9369, 5714.227
786.4190, 5693.458
786.9011, 5673.443
787.3832, 5661.175
787.8654, 5652.581
788.3475, 5643.330
788.8296, 5632.840
789.3117, 5614.528
789.7938, 5585.957
790.2759, 5563.780
790.7581, 5558.620
791.2402, 5561.080
791.7223, 5555.058
792.2044, 5538.703
792.6865, 5521.601
793.1686, 5497.273
793.6507, 5480.193
794.1328, 5486.084
794.6149, 5494.515
795.0970, 5478.506
795.5792, 5440.239
796.0613, 5410.823
796.5434, 5415.367
797.0255, 5428.101
797.5076, 5416.841
797.9897, 5387.903
798.4719, 5359.401
798.9540, 5334.500
799.4361, 5307.958
799.9182, 5274.707
800.4003, 5240.457
800.8824, 5222.857
801.3646, 5229.272
801.8467, 5231.540
802.3288, 5234.467
802.8109, 5226.036
803.2930, 5197.093
803.7751, 5157.020
804.2573, 5113.973
804.7394, 5068.220
805.2215, 5035.537
805.7036, 5029.747
806.1857, 5031.359
806.6678, 5029.172
807.1500, 5022.604
807.6321, 5010.084
808.1142, 4992.334
808.5963, 4975.982
809.0784, 4968.014
809.5605, 4962.741
810.0427, 4941.152
810.5248, 4902.186
811.0069, 4871.942
811.4890, 4856.849
811.9711, 4843.937
812.4532, 4822.279
812.9354, 4796.623
813.4175, 4783.031
813.8996, 4789.325
814.3817, 4788.529
814.8638, 4776.718
815.3459, 4760.129
815.8281, 4741.331
816.3102, 4719.821
816.7923, 4694.509
817.2744, 4665.214
817.7565, 4633.082
818.2386, 4591.835
818.7208, 4552.746
819.2029, 4537.633
819.6850, 4539.050
820.1671, 4528.452
820.6492, 4499.644
821.1313, 4475.648
821.6135, 4477.343
822.0956, 4496.644
822.5777, 4503.342
823.0598, 4498.414
823.5419, 4476.659
824.0240, 4423.169
824.5062, 4372.202
824.9883, 4341.536
825.4704, 4324.758
825.9525, 4314.546
826.4346, 4312.371
826.9167, 4304.458
827.3989, 4279.708
827.8810, 4255.431
828.3631, 4248.504
828.8452, 4247.087
829.3273, 4228.322
829.8094, 4190.732
830.2916, 4158.108
830.7737, 4152.048
831.2558, 4157.958
831.7379, 4144.055
832.2200, 4113.268
832.7021, 4092.188
833.1843, 4086.313
833.6664, 4079.149
834.1485, 4058.427
834.6306, 4030.048
835.1127, 4010.339
835.5948, 4002.445
836.0770, 3994.703
836.5591, 3984.592
837.0412, 3977.614
837.5233, 3977.882
838.0054, 3980.745
838.4875, 3981.723
838.9697, 3980.179
839.4518, 3975.948
839.9339, 3965.178
840.4160, 3955.709
840.8981, 3954.812
841.3802, 3957.886
841.8624, 3956.789
842.3445, 3951.706
842.8266, 3951.011
843.3087, 3960.867
843.7908, 3972.293
844.2729, 3961.749
844.7551, 3932.438
845.2372, 3937.644
845.7193, 3987.365
846.2014, 4027.700
846.6835, 4030.059
847.1656, 4016.032
847.6478, 4018.146
848.1299, 4038.593
848.6120, 4057.730
849.0941, 4080.849
849.5762, 4095.606
850.0583, 4089.523
850.5405, 4082.541
851.0226, 4092.338
851.5047, 4115.545
851.9868, 4136.654
852.4689, 4148.821
852.9510, 4161.980
853.4332, 4183.079
853.9153, 4208.720
854.3974, 4236.263
854.8795, 4264.458
855.3616, 4289.509
855.8438, 4310.282
856.3259, 4333.002
856.8080, 4368.046
857.2901, 4411.182
857.7722, 4438.751
858.2543, 4449.208
858.7365, 4457.923
859.2186, 4461.033
859.7007, 4487.870
860.1828, 4579.356
860.6649, 4714.903
861.1470, 4785.244
861.6292, 4705.729
862.1113, 4696.784
862.5934, 4848.016
863.0755, 4970.451
863.5576, 4945.350
864.0397, 4851.256
864.5219, 4800.455
865.0040, 4812.984
865.4861, 4843.477
865.9682, 4881.746
866.4503, 4917.541
866.9324, 4933.314
867.4146, 4944.610
867.8967, 4983.180
868.3788, 5048.971
868.8609, 5112.731
869.3430, 5156.073
869.8251, 5183.612
870.3073, 5199.815
870.7894, 5206.281
871.2715, 5215.482
871.7536, 5226.914
872.2357, 5258.020
872.7178, 5324.072
873.2000, 5396.431
873.6821, 5432.088
874.1642, 5428.255
874.6463, 5427.340
875.1284, 5425.532
875.6105, 5432.677
876.0926, 5453.205
876.5747, 5479.992
877.0568, 5515.654
877.5389, 5553.032
878.0211, 5572.497
878.5032, 5563.448
878.9853, 5556.191
879.4674, 5566.893
879.9495, 5581.804
880.4316, 5590.226
880.9138, 5593.778
881.3959, 5596.598
881.8780, 5600.042
882.3601, 5604.379
882.8422, 5611.549
883.3243, 5617.689
883.8065, 5610.895
884.2886, 5595.390
884.7707, 5596.677
885.2528, 5618.766
885.7349, 5629.862
886.2170, 5606.909
886.6992, 5568.878
887.1813, 5558.068
887.6634, 5581.053
888.1455, 5590.487
888.6276, 5576.458
889.1097, 5569.620
889.5919, 5588.869
890.0740, 5611.861
890.5561, 5613.035
891.0382, 5595.457
891.5203, 5581.899
892.0024, 5579.411
892.4846, 5573.900
892.9667, 5558.388
893.4488, 5542.569
893.9309, 5533.227
894.4130, 5528.911
894.8951, 5525.471
895.3773, 5521.732
895.8594, 5520.499
896.3415, 5527.187
896.8236, 5534.657
897.3057, 5531.404
897.7878, 5522.874
898.2700, 5526.696
898.7521, 5543.157
899.2342, 5547.063
899.7163, 5518.402
900.1984, 5477.370
900.6805, 5469.561
901.1627, 5493.015
901.6448, 5501.643
902.1269, 5490.254
902.6090, 5484.008
903.0911, 5495.771
903.5732, 5512.357
904.0554, 5516.065
904.5375, 5506.923
905.0196, 5501.996
905.5017, 5509.148
905.9838, 5507.363
906.4659, 5489.708
906.9481, 5467.014
907.4302, 5436.547
907.9123, 5407.498
908.3944, 5400.173
908.8765, 5421.785
909.3586, 5440.280
909.8408, 5448.430
910.3229, 5448.270
910.8050, 5436.875
911.2871, 5420.323
911.7692, 5407.144
912.2513, 5397.193
912.7335, 5382.683
913.2156, 5357.236
913.6977, 5331.457
914.1798, 5320.529
914.6619, 5316.345
915.1440, 5304.084
915.6262, 5282.883
916.1083, 5254.052
916.5904, 5218.328
917.0725, 5183.035
917.5546, 5156.893
918.0367, 5138.252
918.5189, 5120.085
919.0010, 5102.717
919.4831, 5081.203
919.9652, 5052.899
920.4473, 5027.366
920.9294, 5011.896
921.4116, 5002.813
921.8937, 4992.495
922.3758, 4983.767
922.8579, 4962.429
923.3400, 4911.878
923.8221, 4872.271
924.3043, 4867.709
924.7864, 4866.363
925.2685, 4836.698
925.7506, 4785.704
926.2327, 4747.193
926.7148, 4730.746
927.1970, 4719.495
927.6791, 4712.167
928.1612, 4704.691
928.6433, 4697.027
929.1254, 4685.985
929.6075, 4663.774
930.0897, 4630.508
930.5718, 4601.207
931.0539, 4585.703
931.5360, 4578.253
932.0181, 4579.405
932.5002, 4581.638
932.9824, 4567.227
933.4645, 4538.625
933.9466, 4517.784
934.4287, 4515.417
934.9108, 4513.822
935.3929, 4485.266
935.8751, 4437.564
936.3572, 4407.069
936.8393, 4393.072
937.3214, 4377.436
937.8035, 4355.379
938.2856, 4334.162
938.7678, 4319.817
939.2499, 4309.941
939.7320, 4297.610
940.2141, 4282.497
940.6962, 4266.579
941.1783, 4250.804
941.6605, 4232.138
942.1426, 4206.796
942.6247, 4181.007
943.1068, 4161.421
943.5889, 4147.833
944.0710, 4136.567
944.5532, 4132.233
945.0353, 4123.399
945.5174, 4112.491
945.9995, 4093.132
946.4816, 4051.073
946.9637, 4003.466
947.4459, 3976.981
947.9280, 3975.083
948.4101, 3974.217
948.8922, 3969.635
949.3743, 3958.332
949.8564, 3930.440
950.3386, 3900.731
950.8207, 3888.827
951.3028, 3889.904
951.7849, 3885.953
952.2670, 3869.960
952.7491, 3850.945
953.2313, 3836.836
953.7134, 3824.874
954.1955, 3812.980
954.6776, 3799.545
955.1597, 3776.956
955.6418, 3746.121
956.1240, 3723.611
956.6061, 3721.092
957.0882, 3726.053
957.5703, 3717.035
958.0524, 3695.562
958.5345, 3668.653
959.0166, 3636.466
959.4987, 3617.015
959.9808, 3617.296
960.4630, 3623.829
960.9451, 3624.679
961.4272, 3620.412
961.9093, 3613.435
962.3914, 3604.153
962.8735, 3589.382
963.3557, 3564.019
963.8378, 3545.270
964.3199, 3546.115
964.8020, 3550.758
965.2841, 3536.468
965.7662, 3503.548
966.2484, 3483.226
966.7305, 3487.036
967.2126, 3486.688
967.6947, 3476.376
968.1768, 3465.941
968.6589, 3461.622
969.1411, 3459.780
969.6232, 3453.455
970.1053, 3441.695
970.5874, 3434.440
971.0695, 3440.498
971.5516, 3443.226
972.0338, 3435.830
972.5159, 3422.368
972.9980, 3402.324
973.4801, 3380.233
973.9622, 3364.062
974.4443, 3356.053
974.9265, 3357.197
975.4086, 3378.549
975.8907, 3399.105
976.3728, 3397.064
976.8549, 3382.982
977.3370, 3372.413
977.8192, 3367.305
978.3013, 3363.171
978.7834, 3357.689
979.2655, 3353.122
979.7476, 3351.874
980.2297, 3353.365
980.7119, 3357.428
981.1940, 3363.254
981.6761, 3370.065
982.1582, 3376.800
982.6403, 3375.344
983.1224, 3358.327
983.6046, 3338.567
984.0867, 3344.344
984.5688, 3370.953
985.0509, 3384.064
985.5330, 3382.535
986.0151, 3374.107
986.4973, 3359.978
986.9794, 3351.459
987.4615, 3359.704
987.9436, 3380.517
988.4257, 3400.919
988.9078, 3422.183
989.3900, 3431.543
989.8721, 3423.047
990.3542, 3422.148
990.8363, 3442.320
991.3184, 3467.690
991.8005, 3481.544
992.2827, 3484.369
992.7648, 3478.751
993.2469, 3453.014
993.7290, 3444.710
994.2111, 3463.894
994.6932, 3489.052
995.1754, 3519.395
995.6575, 3545.184
996.1396, 3548.324
996.6217, 3529.961
997.1038, 3527.223
997.5859, 3557.689
998.0681, 3579.910
998.5502, 3578.746
999.0323, 3578.959
999.5144, 3594.102
999.9965, 3619.039
1000.479, 3650.391
1000.961, 3686.825
1001.443, 3707.860
1001.925, 3689.328
1002.407, 3679.658
1002.889, 3700.806
1003.371, 3733.588
1003.853, 3769.003
1004.336, 3802.092
1004.818, 3825.500
1005.300, 3838.090
1005.782, 3852.108
1006.264, 3875.074
1006.746, 3900.114
1007.228, 3918.703
1007.710, 3939.583
1008.193, 3980.118
1008.675, 4030.462
1009.157, 4061.211
1009.639, 4064.230
1010.121, 4070.072
1010.603, 4110.983
1011.085, 4158.410
1011.567, 4175.887
1012.049, 4179.280
1012.532, 4194.044
1013.014, 4221.875
1013.496, 4255.368
1013.978, 4291.254
1014.460, 4326.658
1014.942, 4360.118
1015.424, 4389.800
1015.906, 4406.808
1016.388, 4417.973
1016.871, 4444.059
1017.353, 4486.508
1017.835, 4534.966
1018.317, 4584.325
1018.799, 4631.322
1019.281, 4671.251
1019.763, 4706.183
1020.245, 4743.608
1020.728, 4782.690
1021.210, 4813.950
1021.692, 4836.610
1022.174, 4870.455
1022.656, 4927.152
1023.138, 4992.183
1023.620, 5043.459
1024.102, 5083.055
1024.584, 5123.227
1025.067, 5163.861
1025.549, 5207.768
1026.031, 5254.797
1026.513, 5312.679
1026.995, 5388.712
1027.477, 5468.667
1027.959, 5526.468
1028.441, 5563.159
1028.923, 5609.391
1029.406, 5666.147
1029.888, 5727.515
1030.370, 5795.224
1030.852, 5856.756
1031.334, 5902.516
1031.816, 5942.011
1032.298, 5992.302
1032.780, 6053.260
1033.263, 6125.005
1033.745, 6212.269
1034.227, 6296.330
1034.709, 6372.543
1035.191, 6447.455
1035.673, 6523.783
1036.155, 6602.798
1036.637, 6689.171
1037.120, 6785.195
1037.602, 6861.416
1038.084, 6897.951
1038.566, 6955.574
1039.048, 7057.329
1039.530, 7162.603
1040.012, 7247.037
1040.494, 7319.666
1040.976, 7395.702
1041.458, 7475.261
1041.941, 7557.941
1042.423, 7642.890
1042.905, 7732.375
1043.387, 7825.914
1043.869, 7925.781
1044.351, 8041.666
1044.833, 8161.481
1045.315, 8263.990
1045.798, 8347.630
1046.280, 8434.348
1046.762, 8531.946
1047.244, 8623.477
1047.726, 8697.527
1048.208, 8774.431
1048.690, 8866.440
1049.172, 8967.565
1049.655, 9068.101
1050.137, 9167.215
1050.619, 9270.440
1051.101, 9386.685
1051.583, 9494.351
1052.065, 9575.715
1052.547, 9661.052
1053.029, 9777.850
1053.511, 9904.108
1053.994, 10000.25
1054.476, 10065.44
1054.958, 10149.01
1055.440, 10268.54
1055.922, 10397.21
1056.404, 10540.29
1056.886, 10677.63
1057.368, 10789.97
1057.850, 10893.58
1058.333, 11011.69
1058.815, 11145.70
1059.297, 11282.19
1059.779, 11421.91
1060.261, 11557.76
1060.743, 11680.37
1061.225, 11805.39
1061.707, 11941.17
1062.190, 12086.01
1062.672, 12234.82
1063.154, 12388.58
1063.636, 12560.08
1064.118, 12764.73
1064.600, 12960.07
1065.082, 13123.81
1065.564, 13280.61
1066.047, 13432.18
1066.529, 13595.22
1067.011, 13798.05
1067.493, 14032.93
1067.975, 14255.76
1068.457, 14442.36
1068.939, 14649.03
1069.421, 14920.60
1069.903, 15197.16
1070.385, 15414.63
1070.868, 15633.58
1071.350, 15946.91
1071.832, 16327.96
1072.314, 16655.39
1072.796, 16874.23
1073.278, 17128.82
1073.760, 17510.35
1074.242, 17913.23
1074.725, 18267.14
1075.207, 18610.20
1075.689, 18991.83
1076.171, 19400.13
1076.653, 19783.54
1077.135, 20122.48
1077.617, 20490.52
1078.099, 20932.99
1078.582, 21398.33
1079.064, 21858.10
1079.546, 22328.82
1080.028, 22837.13
1080.510, 23370.99
1080.992, 23900.92
1081.474, 24420.20
1081.956, 24948.05
1082.438, 25504.56
1082.921, 26054.17
1083.403, 26546.52
1083.885, 27050.95
1084.367, 27636.08
1084.849, 28268.00
1085.331, 28879.75
1085.813, 29460.20
1086.295, 30066.00
1086.777, 30731.43
1087.260, 31405.07
1087.742, 32061.96
1088.224, 32719.63
1088.706, 33402.14
1089.188, 34084.49
1089.670, 34725.31
1090.152, 35322.71
1090.634, 35920.41
1091.116, 36515.10
1091.599, 37149.23
1092.081, 37895.98
1092.563, 38628.65
1093.045, 39247.81
1093.527, 39827.05
1094.009, 40467.87
1094.491, 41162.87
1094.973, 41840.72
1095.456, 42483.93
1095.938, 43126.50
1096.420, 43790.21
1096.902, 44446.01
1097.384, 45086.42
1097.866, 45705.68
1098.348, 46278.81
1098.830, 46827.19
1099.313, 47409.18
1099.795, 48038.74
1100.277, 48650.62
1100.759, 49201.70
1101.241, 49760.84
1101.723, 50385.15
1102.205, 50994.37
1102.687, 51510.61
1103.169, 51973.99
1103.651, 52469.88
1104.134, 53007.14
1104.616, 53487.06
1105.098, 53831.96
1105.580, 54199.24
1106.062, 54637.98
1106.544, 55096.16
1107.026, 55586.69
1107.508, 56054.88
1107.991, 56408.93
1108.473, 56660.11
1108.955, 56952.88
1109.437, 57345.75
1109.919, 57706.61
1110.401, 58027.90
1110.883, 58302.43
1111.365, 58499.63
1111.848, 58673.71
1112.330, 58881.63
1112.812, 59110.95
1113.294, 59311.26
1113.776, 59482.59
1114.258, 59616.84
1114.740, 59673.84
1115.222, 59748.41
1115.704, 59862.66
1116.187, 59999.50
1116.669, 60184.55
1117.151, 60368.32
1117.633, 60454.30
1118.115, 60439.33
1118.597, 60344.03
1119.079, 60078.01
1119.561, 59905.35
1120.043, 59906.18
1120.526, 59932.50
1121.008, 59960.46
1121.490, 59921.74
1121.972, 59695.07
1122.454, 59306.52
1122.936, 59027.33
1123.418, 58914.25
1123.900, 58753.32
1124.383, 58536.71
1124.865, 58265.19
1125.347, 57927.23
1125.829, 57557.75
1126.311, 57178.11
1126.793, 56799.34
1127.275, 56464.95
1127.757, 56194.29
1128.240, 55808.97
1128.722, 55274.94
1129.204, 54786.28
1129.686, 54391.87
1130.168, 54027.68
1130.650, 53663.85
1131.132, 53278.63
1131.614, 52838.37
1132.096, 52346.95
1132.578, 51860.00
1133.061, 51377.52
1133.543, 50858.46
1134.025, 50294.16
1134.507, 49742.69
1134.989, 49226.89
1135.471, 48764.88
1135.953, 48390.67
1136.435, 48039.53
1136.918, 47507.54
1137.400, 46824.02
1137.882, 46171.35
1138.364, 45559.97
1138.846, 44985.78
1139.328, 44445.96
1139.810, 43920.63
1140.292, 43396.48
1140.775, 42877.50
1141.257, 42379.77
1141.739, 41888.12
1142.221, 41352.26
1142.703, 40786.54
1143.185, 40217.23
1143.667, 39654.55
1144.149, 39109.61
1144.631, 38585.38
1145.114, 38070.02
1145.596, 37552.50
1146.078, 37041.83
1146.560, 36559.13
1147.042, 36086.64
1147.524, 35590.37
1148.006, 35077.71
1148.488, 34569.79
1148.970, 34071.72
1149.453, 33573.89
1149.935, 33062.74
1150.417, 32581.52
1150.899, 32189.62
1151.381, 31818.23
1151.863, 31411.74
1152.345, 30976.21
1152.827, 30512.09
1153.310, 30032.35
1153.792, 29555.07
1154.274, 29081.85
1154.756, 28664.57
1155.238, 28379.31
1155.720, 28089.31
1156.202, 27723.90
1156.684, 27333.80
1157.167, 26934.13
1157.649, 26549.07
1158.131, 26223.82
1158.613, 25953.20
1159.095, 25649.70
1159.577, 25261.74
1160.059, 24906.93
1160.541, 24639.77
1161.023, 24363.75
1161.505, 24029.51
1161.988, 23679.20
1162.470, 23332.52
1162.952, 23003.54
1163.434, 22728.50
1163.916, 22517.69
1164.398, 22306.07
1164.880, 22113.41
1165.362, 21875.05
1165.844, 21548.02
1166.327, 21236.82
1166.809, 20998.29
1167.291, 20800.28
1167.773, 20608.44
1168.255, 20419.36
1168.737, 20208.27
1169.219, 19970.19
1169.701, 19746.50
1170.184, 19541.77
1170.666, 19336.06
1171.148, 19122.63
1171.630, 18912.35
1172.112, 18711.67
1172.594, 18530.99
1173.076, 18404.02
1173.558, 18314.36
1174.041, 18162.70
1174.523, 17958.51
1175.005, 17765.79
1175.487, 17593.65
1175.969, 17433.97
1176.451, 17283.49
1176.933, 17135.34
1177.415, 16983.40
1177.897, 16830.24
1178.380, 16668.08
1178.862, 16513.37
1179.344, 16410.01
1179.826, 16335.92
1180.308, 16227.93
1180.790, 16084.49
1181.272, 15958.87
1181.754, 15877.24
1182.236, 15796.02
1182.719, 15677.13
1183.201, 15548.17
1183.683, 15420.69
1184.165, 15305.24
1184.647, 15220.77
1185.129, 15154.55
1185.611, 15085.53
1186.093, 15008.60
1186.576, 14922.36
1187.058, 14832.55
1187.540, 14720.28
1188.022, 14537.90
1188.504, 14383.15
1188.986, 14331.67
1189.468, 14304.73
1189.950, 14228.45
1190.432, 14116.63
1190.915, 14012.12
1191.397, 13916.03
1191.879, 13832.24
1192.361, 13774.11
1192.843, 13701.40
1193.325, 13603.17
1193.807, 13503.06
1194.289, 13414.20
1194.771, 13322.29
1195.254, 13204.93
1195.736, 13078.32
1196.218, 13011.28
1196.700, 13013.85
1197.182, 12970.59
1197.664, 12876.52
1198.146, 12790.53
1198.628, 12725.22
1199.111, 12656.52
1199.593, 12570.39
1200.075, 12483.46
1200.557, 12420.45
1201.039, 12367.88
1201.521, 12281.24
1202.003, 12177.41
1202.485, 12125.35
1202.968, 12110.70
1203.450, 12055.38
1203.932, 11947.33
1204.414, 11844.34
1204.896, 11779.68
1205.378, 11726.65
1205.860, 11657.59
1206.342, 11589.05
1206.824, 11543.70
1207.307, 11505.57
1207.789, 11456.50
1208.271, 11395.96
1208.753, 11322.56
1209.235, 11239.74
1209.717, 11174.62
1210.199, 11148.13
1210.681, 11118.01
1211.163, 11067.76
1211.646, 11012.97
1212.128, 10956.47
1212.610, 10903.82
1213.092, 10866.87
1213.574, 10835.34
1214.056, 10774.52
1214.538, 10677.12
1215.020, 10628.62
1215.503, 10666.31
1215.985, 10663.50
1216.467, 10588.90
1216.949, 10524.15
1217.431, 10506.43
1217.913, 10494.35
1218.395, 10447.45
1218.877, 10382.10
1219.359, 10338.67
1219.842, 10316.51
1220.324, 10311.43
1220.806, 10321.17
1221.288, 10308.00
1221.770, 10267.21
1222.252, 10206.76
1222.734, 10131.61
1223.216, 10078.77
1223.698, 10088.07
1224.181, 10119.13
1224.663, 10108.40
1225.145, 10082.84
1225.627, 10093.53
1226.109, 10121.42
1226.591, 10124.04
1227.073, 10101.73
1227.555, 10078.64
1228.038, 10062.83
1228.520, 10053.61
1229.002, 10052.22
1229.484, 10054.91
1229.966, 10067.22
1230.448, 10074.68
1230.930, 10056.17
1231.412, 10034.99
1231.895, 10049.56
##END=



