##NAMES=Titantaramellite
##RRUFFID=R060315
##IDEAL CHEMISTRY=Ba_4_(Ti^4+^,Fe^3+^,Mg)_4_(O,OH)_2_[B_2_Si_8_O_27_]Cl_x_
##LOCALITY=Esquire #1 claim, Rush Creek, Fresno County, California, USA
##OWNER=RRUFF
##SOURCE=Michael Scott
##DESCRIPTION=Brown colored subhedral blebs associated with quartz, diopside and sanbornite
##STATUS=The identification of this mineral has been confirmed by single-crystal X-ray diffraction.
##URL=rruff.info/R060315
93.46167, 2787.638
93.94379, 2791.420
94.42590, 2785.040
94.90802, 2772.947
95.39014, 2752.535
95.87225, 2722.615
96.35437, 2691.224
96.83649, 2663.904
97.31860, 2638.825
97.80072, 2613.433
98.28284, 2582.752
98.76495, 2546.276
99.24707, 2514.766
99.72919, 2490.684
100.2113, 2469.843
100.6934, 2451.361
101.1755, 2434.583
101.6577, 2418.982
102.1398, 2403.738
102.6219, 2388.283
103.1040, 2375.807
103.5861, 2366.589
104.0682, 2358.651
104.5504, 2350.915
105.0325, 2343.141
105.5146, 2335.454
105.9967, 2327.642
106.4788, 2318.653
106.9609, 2311.893
107.4431, 2309.268
107.9252, 2308.362
108.4073, 2305.757
108.8894, 2299.992
109.3715, 2292.734
109.8536, 2286.819
110.3358, 2282.085
110.8179, 2278.288
111.3000, 2275.499
111.7821, 2273.650
112.2642, 2272.214
112.7463, 2271.635
113.2285, 2270.980
113.7106, 2269.152
114.1927, 2265.698
114.6748, 2261.769
115.1569, 2259.101
115.6390, 2258.238
116.1212, 2257.146
116.6033, 2254.898
117.0854, 2252.230
117.5675, 2249.841
118.0496, 2248.063
118.5317, 2246.787
119.0139, 2245.569
119.4960, 2244.447
119.9781, 2243.305
120.4602, 2241.916
120.9423, 2240.474
121.4244, 2239.368
121.9066, 2238.949
122.3887, 2239.301
122.8708, 2239.061
123.3529, 2237.697
123.8350, 2236.348
124.3171, 2235.513
124.7993, 2235.220
125.2814, 2235.255
125.7635, 2235.477
126.2456, 2235.959
126.7277, 2236.057
127.2098, 2235.421
127.6920, 2234.531
128.1741, 2233.750
128.6562, 2233.079
129.1383, 2232.809
129.6204, 2233.989
130.1025, 2236.466
130.5847, 2237.684
131.0668, 2234.947
131.5489, 2229.758
132.0310, 2227.763
132.5131, 2232.515
132.9952, 2238.263
133.4774, 2239.656
133.9595, 2236.648
134.4416, 2232.952
134.9237, 2232.115
135.4058, 2234.645
135.8879, 2236.615
136.3701, 2236.778
136.8522, 2236.534
137.3343, 2236.643
137.8164, 2237.307
138.2985, 2238.242
138.7806, 2239.086
139.2628, 2240.413
139.7449, 2240.472
140.2270, 2238.260
140.7091, 2235.330
141.1912, 2232.828
141.6733, 2231.281
142.1555, 2230.741
142.6376, 2231.469
143.1197, 2235.154
143.6018, 2238.261
144.0839, 2240.370
144.5660, 2241.644
145.0482, 2242.357
145.5303, 2242.634
146.0124, 2242.487
146.4945, 2242.057
146.9766, 2240.223
147.4587, 2239.217
147.9409, 2240.664
148.4230, 2244.069
148.9051, 2247.142
149.3872, 2248.287
149.8693, 2247.645
150.3514, 2247.106
150.8336, 2246.110
151.3157, 2245.597
151.7978, 2246.973
152.2799, 2250.602
152.7620, 2253.772
153.2441, 2253.428
153.7263, 2251.231
154.2084, 2249.932
154.6905, 2251.159
155.1726, 2253.799
155.6547, 2255.366
156.1368, 2255.439
156.6190, 2255.111
157.1011, 2254.786
157.5832, 2254.546
158.0653, 2254.571
158.5474, 2255.098
159.0295, 2256.069
159.5117, 2256.802
159.9938, 2257.489
160.4759, 2257.661
160.9580, 2256.559
161.4401, 2254.689
161.9222, 2253.297
162.4044, 2253.630
162.8865, 2256.042
163.3686, 2258.128
163.8507, 2260.545
164.3328, 2262.136
164.8149, 2261.990
165.2971, 2260.292
165.7792, 2258.089
166.2613, 2256.590
166.7434, 2256.123
167.2255, 2255.514
167.7076, 2254.064
168.1898, 2252.965
168.6719, 2253.461
169.1540, 2255.681
169.6361, 2258.282
170.1182, 2259.363
170.6003, 2258.282
171.0825, 2257.140
171.5646, 2255.661
172.0467, 2254.313
172.5288, 2253.852
173.0109, 2254.591
173.4930, 2255.646
173.9752, 2255.432
174.4573, 2253.881
174.9394, 2252.238
175.4215, 2250.857
175.9036, 2249.629
176.3857, 2248.305
176.8679, 2246.725
177.3500, 2245.126
177.8321, 2243.583
178.3142, 2241.974
178.7963, 2241.185
179.2784, 2242.062
179.7606, 2244.428
180.2427, 2246.967
180.7248, 2250.441
181.2069, 2252.858
181.6890, 2252.025
182.1711, 2247.666
182.6533, 2242.838
183.1354, 2240.606
183.6175, 2241.308
184.0996, 2241.988
184.5817, 2241.101
185.0638, 2240.576
185.5460, 2242.035
186.0281, 2245.759
186.5102, 2250.006
186.9923, 2252.254
187.4744, 2251.753
187.9565, 2251.149
188.4387, 2250.502
188.9208, 2250.037
189.4029, 2249.884
189.8850, 2250.089
190.3671, 2250.658
190.8492, 2251.729
191.3314, 2254.181
191.8135, 2255.603
192.2956, 2254.977
192.7777, 2253.816
193.2598, 2253.539
193.7419, 2254.689
194.2241, 2256.671
194.7062, 2258.049
195.1883, 2256.815
195.6704, 2257.401
196.1525, 2262.375
196.6346, 2268.418
197.1168, 2271.130
197.5989, 2268.480
198.0810, 2262.689
198.5631, 2260.245
199.0452, 2264.129
199.5273, 2267.168
200.0095, 2267.875
200.4916, 2267.062
200.9737, 2266.102
201.4558, 2265.658
201.9379, 2265.310
202.4200, 2263.702
202.9022, 2260.210
203.3843, 2256.877
203.8664, 2254.195
204.3485, 2252.192
204.8306, 2250.924
205.3127, 2250.350
205.7949, 2250.696
206.2770, 2252.507
206.7591, 2256.813
207.2412, 2260.302
207.7233, 2260.555
208.2054, 2258.031
208.6876, 2255.544
209.1697, 2254.162
209.6518, 2253.466
210.1339, 2252.735
210.6160, 2251.900
211.0981, 2251.167
211.5803, 2251.120
212.0624, 2251.770
212.5445, 2251.230
213.0266, 2247.048
213.5087, 2242.513
213.9908, 2241.075
214.4730, 2243.636
214.9551, 2247.177
215.4372, 2248.020
215.9193, 2245.574
216.4014, 2244.180
216.8836, 2246.278
217.3657, 2249.244
217.8478, 2251.540
218.3299, 2252.792
218.8120, 2253.270
219.2941, 2252.747
219.7763, 2250.196
220.2584, 2250.115
220.7405, 2255.721
221.2226, 2262.409
221.7047, 2267.069
222.1868, 2268.859
222.6690, 2269.036
223.1511, 2269.609
223.6332, 2271.087
224.1153, 2271.738
224.5974, 2270.605
225.0795, 2269.234
225.5617, 2268.692
226.0438, 2269.294
226.5259, 2270.710
227.0080, 2272.368
227.4901, 2274.169
227.9722, 2276.501
228.4544, 2280.499
228.9365, 2284.309
229.4186, 2286.161
229.9007, 2285.677
230.3828, 2284.128
230.8649, 2283.743
231.3471, 2285.637
231.8292, 2286.955
232.3113, 2286.944
232.7934, 2286.825
233.2755, 2287.556
233.7576, 2289.402
234.2398, 2292.089
234.7219, 2295.212
235.2040, 2299.617
235.6861, 2302.817
236.1682, 2304.218
236.6503, 2304.762
237.1325, 2305.029
237.6146, 2305.218
238.0967, 2305.646
238.5788, 2306.822
239.0609, 2309.063
239.5430, 2311.410
240.0252, 2314.293
240.5073, 2317.040
240.9894, 2318.803
241.4715, 2319.394
241.9536, 2319.575
242.4357, 2320.426
242.9179, 2322.196
243.4000, 2323.520
243.8821, 2323.544
244.3642, 2323.402
244.8463, 2324.760
245.3284, 2328.045
245.8106, 2331.265
246.2927, 2331.569
246.7748, 2328.801
247.2569, 2327.328
247.7390, 2329.310
248.2211, 2332.260
248.7033, 2333.185
249.1854, 2331.552
249.6675, 2328.556
250.1496, 2324.366
250.6317, 2319.300
251.1138, 2316.300
251.5960, 2317.856
252.0781, 2321.005
252.5602, 2321.557
253.0423, 2318.747
253.5244, 2315.632
254.0065, 2315.716
254.4887, 2317.754
254.9708, 2318.159
255.4529, 2314.095
255.9350, 2308.688
256.4171, 2306.673
256.8992, 2308.782
257.3813, 2311.556
257.8635, 2312.440
258.3456, 2312.307
258.8277, 2312.605
259.3098, 2314.195
259.7919, 2316.145
260.2740, 2317.016
260.7562, 2316.591
261.2383, 2315.978
261.7204, 2315.403
262.2025, 2315.098
262.6846, 2315.459
263.1667, 2316.696
263.6489, 2318.511
264.1310, 2320.598
264.6131, 2323.026
265.0952, 2325.420
265.5773, 2327.795
266.0594, 2329.981
266.5416, 2331.753
267.0237, 2332.995
267.5058, 2333.999
267.9879, 2335.300
268.4700, 2337.094
268.9521, 2338.344
269.4343, 2337.554
269.9164, 2336.699
270.3985, 2337.749
270.8806, 2341.344
271.3627, 2345.213
271.8448, 2346.073
272.3270, 2343.148
272.8091, 2341.250
273.2912, 2343.231
273.7733, 2345.495
274.2554, 2345.474
274.7375, 2342.787
275.2197, 2339.561
275.7018, 2338.290
276.1839, 2339.309
276.6660, 2340.066
277.1481, 2340.625
277.6302, 2340.481
278.1124, 2338.901
278.5945, 2336.047
279.0766, 2333.173
279.5587, 2331.953
280.0408, 2332.753
280.5229, 2331.944
281.0051, 2326.768
281.4872, 2322.196
281.9693, 2321.091
282.4514, 2322.727
282.9335, 2324.178
283.4156, 2322.779
283.8978, 2318.462
284.3799, 2314.516
284.8620, 2310.531
285.3441, 2307.415
285.8262, 2305.966
286.3083, 2305.625
286.7905, 2305.178
287.2726, 2303.629
287.7547, 2301.160
288.2368, 2299.652
288.7189, 2300.195
289.2010, 2300.425
289.6832, 2299.384
290.1653, 2297.691
290.6474, 2296.309
291.1295, 2295.822
291.6116, 2296.022
292.0938, 2296.102
292.5759, 2296.357
293.0580, 2296.024
293.5401, 2294.515
294.0222, 2292.585
294.5043, 2291.121
294.9865, 2290.529
295.4686, 2290.460
295.9507, 2290.033
296.4328, 2288.895
296.9149, 2288.045
297.3970, 2287.279
297.8792, 2286.975
298.3613, 2287.614
298.8434, 2289.296
299.3255, 2291.490
299.8076, 2293.413
300.2897, 2295.244
300.7719, 2296.298
301.2540, 2296.217
301.7361, 2295.715
302.2182, 2294.909
302.7003, 2293.989
303.1824, 2293.507
303.6646, 2294.262
304.1467, 2296.683
304.6288, 2298.790
305.1109, 2300.638
305.5930, 2302.159
306.0751, 2303.007
306.5573, 2303.396
307.0394, 2304.040
307.5215, 2305.805
308.0036, 2308.880
308.4857, 2310.380
308.9678, 2308.583
309.4500, 2306.835
309.9321, 2306.019
310.4142, 2305.986
310.8963, 2306.240
311.3784, 2306.439
311.8605, 2306.632
312.3427, 2307.188
312.8248, 2308.515
313.3069, 2309.767
313.7890, 2311.283
314.2711, 2312.503
314.7532, 2312.428
315.2354, 2310.489
315.7175, 2307.673
316.1996, 2307.031
316.6817, 2311.067
317.1638, 2313.309
317.6459, 2312.363
318.1281, 2309.919
318.6102, 2307.002
319.0923, 2304.068
319.5744, 2301.788
320.0565, 2301.615
320.5386, 2305.219
321.0208, 2307.015
321.5029, 2305.161
321.9850, 2302.929
322.4671, 2302.977
322.9492, 2305.215
323.4313, 2306.994
323.9135, 2304.806
324.3956, 2297.260
324.8777, 2292.822
325.3598, 2294.563
325.8419, 2296.542
326.3240, 2296.191
326.8062, 2294.057
327.2883, 2292.206
327.7704, 2292.260
328.2525, 2294.127
328.7346, 2296.147
329.2167, 2299.942
329.6989, 2301.949
330.1810, 2299.983
330.6631, 2296.036
331.1452, 2292.980
331.6273, 2292.368
332.1094, 2293.632
332.5916, 2295.155
333.0737, 2297.645
333.5558, 2299.122
334.0379, 2298.566
334.5200, 2297.371
335.0021, 2296.649
335.4843, 2296.784
335.9664, 2297.781
336.4485, 2299.943
336.9306, 2304.013
337.4127, 2306.995
337.8948, 2308.387
338.3770, 2308.819
338.8591, 2308.124
339.3412, 2306.551
339.8233, 2305.146
340.3055, 2305.374
340.7876, 2307.543
341.2697, 2308.136
341.7518, 2305.281
342.2339, 2302.607
342.7160, 2301.325
343.1982, 2301.345
343.6803, 2302.283
344.1624, 2304.253
344.6445, 2306.879
345.1266, 2308.097
345.6087, 2306.786
346.0909, 2305.899
346.5730, 2307.092
347.0551, 2308.989
347.5372, 2309.861
348.0193, 2308.981
348.5014, 2306.905
348.9836, 2304.379
349.4657, 2301.091
349.9478, 2298.458
350.4299, 2297.339
350.9120, 2296.711
351.3941, 2295.988
351.8763, 2295.045
352.3584, 2293.825
352.8405, 2292.115
353.3226, 2289.884
353.8047, 2288.015
354.2868, 2287.050
354.7690, 2286.022
355.2511, 2284.069
355.7332, 2281.425
356.2153, 2279.155
356.6974, 2278.694
357.1795, 2279.286
357.6617, 2277.589
358.1438, 2272.300
358.6259, 2267.392
359.1080, 2265.576
359.5901, 2265.517
360.0722, 2265.129
360.5544, 2263.550
361.0365, 2261.459
361.5186, 2259.616
362.0007, 2257.983
362.4828, 2257.020
362.9649, 2257.774
363.4471, 2258.798
363.9292, 2258.348
364.4113, 2256.021
364.8934, 2253.213
365.3755, 2250.613
365.8576, 2248.317
366.3398, 2246.993
366.8219, 2247.214
367.3040, 2247.839
367.7861, 2247.509
368.2682, 2246.336
368.7503, 2245.522
369.2325, 2246.718
369.7146, 2248.234
370.1967, 2246.440
370.6788, 2240.452
371.1609, 2234.744
371.6430, 2233.074
372.1252, 2234.539
372.6073, 2236.098
373.0894, 2238.228
373.5715, 2239.642
374.0536, 2238.800
374.5357, 2236.062
375.0179, 2233.493
375.5000, 2231.972
375.9821, 2231.397
376.4642, 2231.519
376.9463, 2232.595
377.4284, 2233.673
377.9106, 2234.859
378.3927, 2235.726
378.8748, 2235.058
379.3569, 2232.339
379.8390, 2229.620
380.3211, 2229.929
380.8033, 2234.063
381.2854, 2236.534
381.7675, 2236.576
382.2496, 2235.090
382.7317, 2231.636
383.2138, 2226.758
383.6960, 2223.326
384.1781, 2223.695
384.6602, 2227.586
385.1423, 2230.858
385.6244, 2234.519
386.1065, 2236.568
386.5887, 2235.076
387.0708, 2231.731
387.5529, 2229.556
388.0350, 2229.922
388.5171, 2231.512
388.9992, 2231.392
389.4814, 2227.424
389.9635, 2225.028
390.4456, 2225.856
390.9277, 2227.152
391.4098, 2226.645
391.8919, 2224.081
392.3741, 2220.668
392.8562, 2217.583
393.3383, 2214.812
393.8204, 2212.503
394.3025, 2210.775
394.7846, 2209.362
395.2668, 2208.823
395.7489, 2208.462
396.2310, 2206.885
396.7131, 2203.148
397.1952, 2198.073
397.6773, 2194.520
398.1595, 2193.166
398.6416, 2192.305
399.1237, 2191.392
399.6058, 2190.978
400.0879, 2191.993
400.5700, 2194.470
401.0522, 2196.900
401.5343, 2197.083
402.0164, 2194.435
402.4985, 2193.022
402.9806, 2194.622
403.4627, 2195.932
403.9449, 2194.928
404.4270, 2192.417
404.9091, 2190.682
405.3912, 2191.548
405.8733, 2193.999
406.3554, 2195.048
406.8376, 2194.826
407.3197, 2192.806
407.8018, 2186.384
408.2839, 2179.188
408.7660, 2175.285
409.2481, 2175.935
409.7303, 2178.070
410.2124, 2178.952
410.6945, 2178.620
411.1766, 2177.489
411.6587, 2174.806
412.1408, 2172.478
412.6230, 2172.803
413.1051, 2175.378
413.5872, 2177.131
414.0693, 2176.352
414.5514, 2174.121
415.0335, 2171.607
415.5157, 2168.717
415.9978, 2167.378
416.4799, 2170.039
416.9620, 2175.030
417.4441, 2177.142
417.9262, 2174.699
418.4084, 2171.323
418.8905, 2168.466
419.3726, 2166.242
419.8547, 2165.123
420.3368, 2165.412
420.8189, 2166.412
421.3011, 2167.153
421.7832, 2167.786
422.2653, 2167.605
422.7474, 2165.611
423.2295, 2163.409
423.7116, 2162.499
424.1938, 2162.895
424.6759, 2163.469
425.1580, 2163.213
425.6401, 2162.246
426.1222, 2162.859
426.6043, 2167.481
427.0865, 2170.594
427.5686, 2169.714
428.0507, 2166.839
428.5328, 2164.466
429.0149, 2163.585
429.4970, 2164.182
429.9792, 2166.470
430.4613, 2172.012
430.9434, 2175.802
431.4255, 2178.396
431.9076, 2179.145
432.3897, 2176.350
432.8719, 2171.139
433.3540, 2166.854
433.8361, 2166.328
434.3182, 2168.986
434.8003, 2170.624
435.2824, 2170.595
435.7646, 2170.508
436.2467, 2170.878
436.7288, 2171.360
437.2109, 2171.401
437.6930, 2170.819
438.1751, 2170.407
438.6573, 2171.179
439.1394, 2173.187
439.6215, 2175.817
440.1036, 2180.485
440.5857, 2184.003
441.0678, 2183.001
441.5500, 2178.845
442.0321, 2176.721
442.5142, 2181.169
442.9963, 2188.534
443.4784, 2191.872
443.9605, 2190.723
444.4427, 2189.122
444.9248, 2189.046
445.4069, 2189.748
445.8890, 2189.439
446.3711, 2186.891
446.8532, 2186.584
447.3354, 2193.786
447.8175, 2204.700
448.2996, 2210.663
448.7817, 2209.417
449.2638, 2205.146
449.7459, 2201.599
450.2281, 2198.823
450.7102, 2197.887
451.1923, 2200.312
451.6744, 2203.266
452.1565, 2204.327
452.6386, 2204.328
453.1208, 2206.285
453.6029, 2212.038
454.0850, 2219.879
454.5671, 2225.062
455.0492, 2223.904
455.5313, 2225.083
456.0135, 2231.525
456.4956, 2238.453
456.9777, 2241.597
457.4598, 2240.764
457.9419, 2239.033
458.4240, 2239.221
458.9062, 2241.356
459.3883, 2244.306
459.8704, 2249.943
460.3525, 2254.283
460.8346, 2255.523
461.3167, 2255.334
461.7989, 2256.152
462.2810, 2258.936
462.7631, 2261.835
463.2452, 2261.917
463.7273, 2258.833
464.2094, 2254.867
464.6916, 2249.229
465.1737, 2243.733
465.6558, 2239.306
466.1379, 2235.902
466.6200, 2233.130
467.1021, 2231.228
467.5843, 2229.613
468.0664, 2226.906
468.5485, 2222.892
469.0306, 2219.338
469.5127, 2217.648
469.9948, 2216.525
470.4770, 2213.891
470.9591, 2209.311
471.4412, 2204.662
471.9233, 2200.706
472.4054, 2197.371
472.8875, 2194.605
473.3697, 2192.419
473.8518, 2190.610
474.3339, 2188.898
474.8160, 2187.352
475.2981, 2186.800
475.7802, 2189.425
476.2624, 2190.722
476.7445, 2187.747
477.2266, 2182.133
477.7087, 2177.052
478.1908, 2173.725
478.6729, 2171.219
479.1551, 2167.830
479.6372, 2162.784
480.1193, 2158.610
480.6014, 2155.878
481.0835, 2153.349
481.5656, 2149.513
482.0478, 2145.235
482.5299, 2143.073
483.0120, 2145.020
483.4941, 2149.756
483.9762, 2152.284
484.4583, 2152.111
484.9405, 2150.666
485.4226, 2147.320
485.9047, 2143.563
486.3868, 2140.559
486.8689, 2138.451
487.3510, 2136.660
487.8332, 2134.524
488.3153, 2132.252
488.7974, 2130.903
489.2795, 2130.790
489.7616, 2130.924
490.2437, 2130.623
490.7259, 2130.190
491.2080, 2130.197
491.6901, 2131.111
492.1722, 2131.733
492.6543, 2130.573
493.1364, 2128.394
493.6186, 2127.727
494.1007, 2129.505
494.5828, 2131.624
495.0649, 2131.456
495.5470, 2128.706
496.0291, 2127.022
496.5113, 2127.685
496.9934, 2128.359
497.4755, 2127.623
497.9576, 2125.805
498.4397, 2123.741
498.9218, 2121.817
499.4040, 2120.142
499.8861, 2118.999
500.3682, 2118.653
500.8503, 2118.404
501.3324, 2118.460
501.8145, 2118.415
502.2967, 2117.623
502.7788, 2116.441
503.2609, 2116.156
503.7430, 2118.022
504.2251, 2121.042
504.7072, 2121.059
505.1894, 2116.613
505.6715, 2112.493
506.1536, 2108.912
506.6357, 2106.782
507.1178, 2107.926
507.5999, 2112.287
508.0821, 2115.907
508.5642, 2114.900
509.0463, 2110.930
509.5284, 2109.155
510.0105, 2110.338
510.4926, 2111.678
510.9748, 2111.625
511.4569, 2110.445
511.9390, 2108.811
512.4211, 2106.471
512.9032, 2104.204
513.3853, 2102.211
513.8674, 2100.587
514.3495, 2099.548
514.8317, 2099.127
515.3138, 2099.188
515.7959, 2099.704
516.2780, 2100.731
516.7601, 2101.180
517.2422, 2100.979
517.7244, 2100.375
518.2065, 2098.801
518.6886, 2097.095
519.1707, 2096.460
519.6528, 2097.312
520.1349, 2099.119
520.6171, 2101.507
521.0992, 2105.252
521.5813, 2106.454
522.0634, 2102.409
522.5455, 2098.429
523.0276, 2096.893
523.5098, 2096.738
523.9919, 2095.575
524.4740, 2091.925
524.9561, 2088.023
525.4382, 2087.513
525.9203, 2090.459
526.4025, 2093.025
526.8846, 2094.414
527.3667, 2094.988
527.8488, 2094.837
528.3309, 2094.089
528.8130, 2093.635
529.2952, 2093.755
529.7773, 2094.250
530.2594, 2095.453
530.7415, 2097.023
531.2236, 2097.358
531.7057, 2095.577
532.1879, 2092.696
532.6700, 2090.583
533.1521, 2089.165
533.6342, 2088.851
534.1163, 2090.643
534.5984, 2092.707
535.0806, 2094.236
535.5627, 2095.001
536.0448, 2094.581
536.5269, 2092.565
537.0090, 2089.791
537.4911, 2089.065
537.9733, 2091.980
538.4554, 2093.391
538.9375, 2090.915
539.4196, 2088.290
539.9017, 2087.848
540.3839, 2089.468
540.8660, 2091.687
541.3481, 2094.203
541.8302, 2096.343
542.3123, 2096.273
542.7944, 2093.767
543.2766, 2091.128
543.7587, 2089.031
544.2408, 2087.487
544.7229, 2086.475
545.2050, 2086.026
545.6871, 2085.826
546.1693, 2085.822
546.6514, 2085.989
547.1335, 2086.184
547.6156, 2086.463
548.0977, 2087.304
548.5798, 2089.136
549.0620, 2091.497
549.5441, 2092.830
550.0262, 2092.344
550.5083, 2091.769
550.9904, 2090.662
551.4725, 2089.773
551.9547, 2090.050
552.4368, 2091.175
552.9189, 2091.672
553.4010, 2090.127
553.8831, 2087.467
554.3652, 2087.946
554.8474, 2093.531
555.3295, 2097.306
555.8116, 2096.684
556.2937, 2094.170
556.7758, 2090.810
557.2579, 2086.917
557.7401, 2083.694
558.2222, 2081.587
558.7043, 2080.716
559.1864, 2081.924
559.6685, 2085.232
560.1506, 2087.661
560.6328, 2087.450
561.1149, 2085.752
561.5970, 2085.186
562.0791, 2086.243
562.5612, 2086.589
563.0433, 2085.032
563.5255, 2083.148
564.0076, 2082.471
564.4897, 2082.797
564.9718, 2082.719
565.4539, 2081.270
565.9360, 2079.006
566.4182, 2077.899
566.9003, 2078.991
567.3824, 2079.294
567.8645, 2078.301
568.3466, 2076.848
568.8287, 2075.247
569.3109, 2073.642
569.7930, 2072.240
570.2751, 2070.969
570.7572, 2070.181
571.2393, 2071.307
571.7214, 2074.662
572.2036, 2075.916
572.6857, 2072.317
573.1678, 2067.515
573.6499, 2066.218
574.1320, 2068.314
574.6141, 2069.497
575.0963, 2067.439
575.5784, 2064.908
576.0605, 2064.297
576.5426, 2065.317
577.0247, 2066.876
577.5068, 2068.585
577.9890, 2069.915
578.4711, 2069.825
578.9532, 2067.772
579.4353, 2065.630
579.9174, 2062.745
580.3995, 2060.434
580.8817, 2059.370
581.3638, 2059.353
581.8459, 2060.188
582.3280, 2061.897
582.8101, 2063.505
583.2922, 2062.807
583.7744, 2059.507
584.2565, 2058.429
584.7386, 2061.369
585.2207, 2064.994
585.7029, 2067.269
586.1850, 2068.385
586.6671, 2068.739
587.1492, 2068.327
587.6313, 2067.299
588.1135, 2064.864
588.5956, 2061.973
589.0777, 2061.132
589.5598, 2063.010
590.0419, 2065.824
590.5240, 2067.809
591.0062, 2068.942
591.4883, 2069.646
591.9704, 2070.206
592.4525, 2070.074
592.9346, 2068.567
593.4167, 2066.593
593.8989, 2065.342
594.3810, 2064.995
594.8631, 2064.496
595.3452, 2062.116
595.8273, 2058.250
596.3094, 2057.496
596.7916, 2060.775
597.2737, 2065.087
597.7558, 2071.159
598.2379, 2076.612
598.7200, 2078.237
599.2021, 2075.304
599.6843, 2072.385
600.1664, 2072.243
600.6485, 2073.266
601.1306, 2073.016
601.6127, 2071.448
602.0948, 2070.135
602.5770, 2070.094
603.0591, 2070.712
603.5412, 2070.250
604.0233, 2066.446
604.5054, 2065.380
604.9875, 2069.894
605.4697, 2074.602
605.9518, 2076.123
606.4339, 2074.910
606.9160, 2072.709
607.3981, 2070.313
607.8802, 2068.345
608.3624, 2068.613
608.8445, 2071.623
609.3266, 2072.709
609.8087, 2069.498
610.2908, 2066.378
610.7729, 2067.183
611.2551, 2070.696
611.7372, 2073.329
612.2193, 2074.087
612.7014, 2073.810
613.1835, 2072.708
613.6656, 2071.067
614.1478, 2069.401
614.6299, 2067.841
615.1120, 2066.581
615.5941, 2065.800
616.0762, 2065.488
616.5583, 2065.642
617.0405, 2067.847
617.5226, 2068.495
618.0047, 2065.959
618.4868, 2062.219
618.9689, 2058.844
619.4510, 2056.275
619.9332, 2054.625
620.4153, 2054.134
620.8974, 2054.617
621.3795, 2055.703
621.8616, 2057.686
622.3438, 2058.798
622.8259, 2058.295
623.3080, 2056.673
623.7901, 2054.285
624.2722, 2051.047
624.7543, 2048.794
625.2365, 2047.985
625.7186, 2048.367
626.2007, 2050.311
626.6828, 2053.281
627.1649, 2055.989
627.6470, 2057.906
628.1292, 2059.104
628.6113, 2059.692
629.0934, 2059.590
629.5755, 2059.113
630.0576, 2058.088
630.5397, 2056.800
631.0219, 2054.250
631.5040, 2051.885
631.9861, 2052.114
632.4682, 2055.713
632.9503, 2059.570
633.4324, 2060.458
633.9146, 2059.327
634.3967, 2059.383
634.8788, 2061.042
635.3609, 2062.407
635.8430, 2062.437
636.3251, 2061.371
636.8073, 2059.581
637.2894, 2055.856
637.7715, 2054.321
638.2536, 2057.224
638.7357, 2061.191
639.2178, 2064.047
639.7000, 2065.644
640.1821, 2066.346
640.6642, 2066.298
641.1463, 2065.932
641.6284, 2066.301
642.1105, 2067.704
642.5927, 2068.190
643.0748, 2067.354
643.5569, 2065.821
644.0390, 2063.133
644.5211, 2060.192
645.0032, 2059.034
645.4854, 2060.858
645.9675, 2062.785
646.4496, 2062.968
646.9317, 2061.925
647.4138, 2060.257
647.8959, 2058.159
648.3781, 2056.607
648.8602, 2056.405
649.3423, 2057.291
649.8244, 2058.036
650.3065, 2059.222
650.7886, 2059.353
651.2708, 2056.311
651.7529, 2054.023
652.2350, 2056.788
652.7171, 2062.647
653.1992, 2065.398
653.6813, 2060.952
654.1635, 2053.884
654.6456, 2051.334
655.1277, 2052.945
655.6098, 2054.452
656.0919, 2055.191
656.5740, 2055.200
657.0562, 2053.821
657.5383, 2051.530
658.0204, 2051.473
658.5025, 2055.690
658.9846, 2059.586
659.4667, 2062.123
659.9489, 2063.497
660.4310, 2063.521
660.9131, 2062.462
661.3952, 2061.331
661.8773, 2060.908
662.3594, 2060.886
662.8416, 2060.117
663.3237, 2058.269
663.8058, 2056.934
664.2879, 2056.969
664.7700, 2057.003
665.2521, 2055.635
665.7343, 2053.406
666.2164, 2052.205
666.6985, 2053.138
667.1806, 2054.473
667.6627, 2054.791
668.1448, 2054.696
668.6270, 2055.799
669.1091, 2058.265
669.5912, 2059.903
670.0733, 2058.528
670.5554, 2054.735
671.0375, 2052.869
671.5197, 2054.510
672.0018, 2055.517
672.4839, 2055.088
672.9660, 2054.246
673.4481, 2053.509
673.9302, 2052.966
674.4124, 2052.707
674.8945, 2053.041
675.3766, 2053.240
675.8587, 2052.143
676.3408, 2050.041
676.8229, 2048.235
677.3051, 2046.979
677.7872, 2046.179
678.2693, 2045.744
678.7514, 2045.688
679.2335, 2046.154
679.7156, 2048.014
680.1978, 2049.197
680.6799, 2049.316
681.1620, 2048.739
681.6441, 2047.102
682.1262, 2044.967
682.6083, 2044.125
683.0905, 2046.039
683.5726, 2049.055
684.0547, 2050.025
684.5368, 2048.945
685.0189, 2047.269
685.5010, 2044.730
685.9832, 2042.894
686.4653, 2043.631
686.9474, 2046.331
687.4295, 2047.777
687.9116, 2047.460
688.3937, 2046.478
688.8759, 2044.354
689.3580, 2042.254
689.8401, 2041.574
690.3222, 2042.192
690.8043, 2042.985
691.2864, 2043.268
691.7686, 2043.096
692.2507, 2042.525
692.7328, 2041.503
693.2149, 2040.406
693.6970, 2038.934
694.1791, 2037.912
694.6613, 2038.411
695.1434, 2039.706
695.6255, 2040.092
696.1076, 2038.709
696.5897, 2037.604
697.0718, 2037.883
697.5540, 2038.829
698.0361, 2039.722
698.5182, 2040.428
699.0003, 2040.929
699.4824, 2041.201
699.9645, 2041.321
700.4467, 2041.445
700.9288, 2041.515
701.4109, 2041.847
701.8930, 2043.027
702.3751, 2043.769
702.8572, 2043.558
703.3394, 2042.509
703.8215, 2040.385
704.3036, 2036.543
704.7857, 2034.167
705.2678, 2036.360
705.7499, 2040.448
706.2321, 2043.204
706.7142, 2044.329
707.1963, 2043.952
707.6784, 2041.984
708.1605, 2039.542
708.6426, 2039.012
709.1248, 2041.227
709.6069, 2042.383
710.0890, 2042.083
710.5711, 2041.133
711.0532, 2038.835
711.5353, 2036.506
712.0175, 2036.248
712.4996, 2038.562
712.9817, 2040.480
713.4638, 2039.292
713.9459, 2037.126
714.4280, 2037.087
714.9102, 2038.953
715.3923, 2041.207
715.8744, 2043.306
716.3565, 2044.574
716.8386, 2043.686
717.3207, 2040.031
717.8029, 2038.678
718.2850, 2042.388
718.7671, 2045.007
719.2492, 2044.011
719.7313, 2042.022
720.2134, 2042.066
720.6956, 2044.263
721.1777, 2045.686
721.6598, 2043.623
722.1419, 2040.524
722.6240, 2039.727
723.1061, 2040.718
723.5883, 2041.491
724.0704, 2041.464
724.5525, 2040.927
725.0346, 2040.076
725.5167, 2038.934
725.9988, 2038.357
726.4810, 2039.107
726.9631, 2039.315
727.4452, 2037.482
727.9273, 2036.077
728.4094, 2037.498
728.8915, 2041.159
729.3737, 2044.429
729.8558, 2046.268
730.3379, 2046.947
730.8200, 2046.078
731.3021, 2044.337
731.7842, 2043.632
732.2664, 2044.296
732.7485, 2045.641
733.2306, 2047.398
733.7127, 2049.154
734.1948, 2049.123
734.6769, 2045.325
735.1591, 2043.382
735.6412, 2044.594
736.1233, 2046.390
736.6054, 2047.884
737.0875, 2048.928
737.5696, 2049.386
738.0518, 2049.179
738.5339, 2048.610
739.0160, 2047.762
739.4981, 2046.767
739.9802, 2045.671
740.4623, 2044.561
740.9445, 2044.052
741.4266, 2044.452
741.9087, 2045.619
742.3908, 2047.435
742.8729, 2050.274
743.3550, 2052.143
743.8372, 2052.018
744.3193, 2052.124
744.8014, 2053.150
745.2835, 2054.649
745.7656, 2056.508
746.2477, 2058.595
746.7299, 2059.595
747.2120, 2056.949
747.6941, 2054.238
748.1762, 2056.649
748.6583, 2062.564
749.1404, 2066.826
749.6226, 2067.968
750.1047, 2067.572
750.5868, 2067.076
751.0689, 2066.534
751.5510, 2066.419
752.0331, 2066.388
752.5153, 2067.458
752.9974, 2071.669
753.4795, 2075.379
753.9616, 2075.510
754.4437, 2073.145
754.9258, 2071.984
755.4080, 2073.588
755.8901, 2075.745
756.3722, 2077.118
756.8543, 2077.991
757.3364, 2078.589
757.8185, 2079.053
758.3007, 2080.025
758.7828, 2081.990
759.2649, 2084.067
759.7470, 2084.092
760.2291, 2081.422
760.7112, 2079.794
761.1934, 2079.219
761.6755, 2079.829
762.1576, 2082.944
762.6397, 2086.688
763.1218, 2088.653
763.6039, 2088.545
764.0861, 2087.721
764.5682, 2085.704
765.0503, 2084.028
765.5324, 2084.084
766.0145, 2085.349
766.4966, 2087.244
766.9788, 2089.363
767.4609, 2090.181
767.9430, 2087.740
768.4251, 2082.834
768.9072, 2079.489
769.3893, 2077.906
769.8715, 2076.917
770.3536, 2076.396
770.8357, 2076.167
771.3178, 2076.492
771.7999, 2077.085
772.2820, 2076.430
772.7642, 2073.516
773.2463, 2070.582
773.7284, 2068.221
774.2105, 2066.092
774.6926, 2063.655
775.1747, 2061.182
775.6569, 2059.810
776.1390, 2060.236
776.6211, 2060.658
777.1032, 2057.997
777.5853, 2052.948
778.0674, 2049.679
778.5496, 2048.697
779.0317, 2047.615
779.5138, 2045.204
779.9959, 2042.125
780.4780, 2039.557
780.9601, 2037.730
781.4423, 2035.475
781.9244, 2032.043
782.4065, 2029.121
782.8886, 2027.822
783.3707, 2026.949
783.8528, 2024.572
784.3350, 2020.899
784.8171, 2018.870
785.2992, 2021.920
785.7813, 2025.667
786.2634, 2023.268
786.7455, 2016.718
787.2277, 2012.580
787.7098, 2012.159
788.1919, 2013.322
788.6740, 2014.773
789.1561, 2015.956
789.6382, 2014.507
790.1204, 2008.423
790.6025, 2004.575
791.0846, 2004.799
791.5667, 2005.713
792.0488, 2006.842
792.5309, 2007.331
793.0131, 2005.223
793.4952, 1999.627
793.9773, 1995.804
794.4594, 1998.303
794.9415, 2001.900
795.4236, 2001.669
795.9058, 1998.557
796.3879, 1995.275
796.8700, 1992.684
797.3521, 1989.961
797.8342, 1985.888
798.3163, 1981.073
798.7985, 1979.187
799.2806, 1980.937
799.7627, 1981.311
800.2448, 1978.532
800.7269, 1975.121
801.2090, 1973.500
801.6912, 1973.163
802.1733, 1971.321
802.6554, 1966.066
803.1375, 1962.301
803.6196, 1961.780
804.1017, 1962.279
804.5839, 1962.791
805.0660, 1962.931
805.5481, 1962.219
806.0302, 1960.479
806.5123, 1958.377
806.9944, 1956.688
807.4766, 1955.133
807.9587, 1952.953
808.4408, 1950.183
808.9229, 1947.125
809.4050, 1943.817
809.8871, 1940.898
810.3693, 1939.171
810.8514, 1938.638
811.3335, 1938.303
811.8156, 1939.023
812.2977, 1938.498
812.7798, 1935.336
813.2620, 1931.805
813.7441, 1928.697
814.2262, 1926.457
814.7083, 1926.256
815.1904, 1929.240
815.6725, 1932.156
816.1547, 1932.992
816.6368, 1932.916
817.1189, 1933.309
817.6010, 1934.036
818.0831, 1934.197
818.5652, 1933.415
819.0474, 1932.335
819.5295, 1931.766
820.0116, 1931.667
820.4937, 1931.789
820.9758, 1932.219
821.4579, 1932.333
821.9401, 1931.921
822.4222, 1931.134
822.9043, 1930.019
823.3864, 1928.607
823.8685, 1927.408
824.3506, 1926.662
824.8328, 1925.810
825.3149, 1924.621
825.7970, 1923.447
826.2791, 1922.176
826.7612, 1921.196
827.2433, 1921.390
827.7255, 1923.183
828.2076, 1925.413
828.6897, 1928.147
829.1718, 1930.157
829.6539, 1928.562
830.1360, 1924.090
830.6182, 1920.418
831.1003, 1918.949
831.5824, 1918.580
832.0645, 1917.992
832.5466, 1917.254
833.0287, 1917.579
833.5109, 1919.823
833.9930, 1920.407
834.4751, 1917.463
834.9572, 1913.997
835.4393, 1912.109
835.9214, 1911.634
836.4036, 1912.374
836.8857, 1915.413
837.3678, 1917.428
837.8499, 1916.764
838.3320, 1915.584
838.8141, 1915.294
839.2963, 1915.713
839.7784, 1916.477
840.2605, 1917.413
840.7426, 1917.854
841.2247, 1916.727
841.7068, 1914.932
842.1890, 1914.456
842.6711, 1915.026
843.1532, 1915.024
843.6353, 1914.015
844.1174, 1912.727
844.5995, 1911.667
845.0817, 1911.009
845.5638, 1911.719
846.0459, 1914.452
846.5280, 1916.728
847.0101, 1918.779
847.4922, 1919.763
847.9744, 1918.712
848.4565, 1916.564
848.9386, 1914.540
849.4207, 1912.641
849.9028, 1911.575
850.3849, 1912.168
850.8671, 1912.993
851.3492, 1914.217
851.8313, 1914.648
852.3134, 1911.525
852.7955, 1905.446
853.2776, 1901.395
853.7598, 1903.349
854.2419, 1907.684
854.7240, 1909.001
855.2061, 1907.902
855.6882, 1906.388
856.1703, 1904.748
856.6525, 1904.336
857.1346, 1906.179
857.6167, 1908.662
858.0988, 1908.530
858.5809, 1905.206
859.0630, 1903.103
859.5452, 1902.955
860.0273, 1902.726
860.5094, 1901.763
860.9915, 1900.524
861.4736, 1898.794
861.9557, 1896.952
862.4379, 1897.171
862.9200, 1902.754
863.4021, 1906.380
863.8842, 1904.075
864.3663, 1899.976
864.8484, 1897.240
865.3306, 1895.867
865.8127, 1894.732
866.2948, 1893.415
866.7769, 1892.681
867.2590, 1893.685
867.7411, 1895.644
868.2233, 1897.111
868.7054, 1898.027
869.1875, 1897.958
869.6696, 1896.752
870.1517, 1896.294
870.6339, 1898.713
871.1160, 1902.946
871.5981, 1903.951
872.0802, 1900.693
872.5623, 1897.887
873.0444, 1895.711
873.5266, 1894.524
874.0087, 1894.961
874.4908, 1896.365
874.9729, 1897.762
875.4550, 1899.404
875.9371, 1899.609
876.4193, 1897.350
876.9014, 1894.570
877.3835, 1891.370
877.8656, 1888.545
878.3477, 1886.376
878.8298, 1885.279
879.3120, 1886.667
879.7941, 1892.300
880.2762, 1897.804
880.7583, 1897.952
881.2404, 1895.491
881.7225, 1895.888
882.2047, 1898.708
882.6868, 1899.315
883.1689, 1895.715
883.6510, 1891.132
884.1331, 1889.642
884.6152, 1890.883
885.0974, 1892.485
885.5795, 1894.694
886.0616, 1895.355
886.5437, 1893.591
887.0258, 1891.113
887.5079, 1889.255
887.9901, 1887.829
888.4722, 1886.019
888.9543, 1883.250
889.4364, 1881.221
889.9185, 1880.331
890.4006, 1879.725
890.8828, 1879.141
891.3649, 1878.619
891.8470, 1878.483
892.3291, 1878.666
892.8112, 1878.024
893.2933, 1874.453
893.7755, 1871.789
894.2576, 1874.546
894.7397, 1878.262
895.2218, 1876.167
895.7039, 1869.411
896.1860, 1864.620
896.6682, 1865.000
897.1503, 1866.907
897.6324, 1865.275
898.1145, 1861.712
898.5966, 1861.513
899.0787, 1864.408
899.5609, 1866.504
900.0430, 1866.566
900.5251, 1865.693
901.0072, 1864.906
901.4893, 1864.125
901.9714, 1863.069
902.4536, 1861.805
902.9357, 1859.879
903.4178, 1856.511
903.8999, 1853.832
904.3820, 1853.476
904.8641, 1854.241
905.3463, 1854.125
905.8284, 1853.098
906.3105, 1851.698
906.7926, 1848.717
907.2747, 1847.008
907.7568, 1848.919
908.2390, 1851.289
908.7211, 1851.724
909.2032, 1850.121
909.6853, 1846.615
910.1674, 1840.383
910.6495, 1835.906
911.1317, 1837.464
911.6138, 1841.302
912.0959, 1843.448
912.5780, 1844.239
913.0601, 1845.293
913.5422, 1846.962
914.0244, 1848.016
914.5065, 1847.097
914.9886, 1848.114
915.4707, 1845.686
915.9528, 1847.596
916.4349, 1847.937
916.9171, 1846.256
917.3992, 1844.729
917.8813, 1844.636
918.3634, 1844.894
918.8455, 1843.453
919.3276, 1840.113
919.8098, 1838.823
920.2919, 1840.689
920.7740, 1841.807
921.2561, 1841.237
921.7382, 1839.700
922.2203, 1837.260
922.7025, 1834.328
923.1846, 1832.479
923.6667, 1832.344
924.1488, 1831.926
924.6309, 1830.622
925.1130, 1829.496
925.5952, 1829.121
926.0773, 1829.140
926.5594, 1829.172
927.0415, 1829.146
927.5236, 1829.024
928.0057, 1828.412
928.4879, 1828.249
928.9700, 1830.025
929.4521, 1831.957
929.9342, 1831.476
930.4163, 1829.286
930.8984, 1827.914
931.3806, 1828.282
931.8627, 1828.953
932.3448, 1828.494
932.8269, 1827.328
933.3090, 1826.090
933.7911, 1824.897
934.2733, 1824.588
934.7554, 1825.237
935.2375, 1824.930
935.7196, 1822.118
936.2017, 1818.849
936.6838, 1820.686
937.1660, 1818.158
937.6481, 1828.519
938.1302, 1819.256
938.6123, 1814.195
939.0944, 1819.709
939.5765, 1827.241
940.0587, 1827.863
940.5408, 1822.693
941.0229, 1819.862
941.5050, 1821.634
941.9871, 1821.595
942.4692, 1816.432
942.9514, 1813.012
943.4335, 1816.024
943.9156, 1821.182
944.3977, 1823.162
944.8798, 1821.649
945.3619, 1819.128
945.8441, 1814.697
946.3262, 1811.171
946.8083, 1809.712
947.2904, 1809.409
947.7725, 1809.716
948.2546, 1810.468
948.7368, 1811.902
949.2189, 1814.138
949.7010, 1815.163
950.1831, 1812.815
950.6652, 1809.412
951.1473, 1806.548
951.6295, 1804.658
952.1116, 1804.898
952.5937, 1806.979
953.0758, 1808.955
953.5579, 1809.714
954.0400, 1810.012
954.5222, 1811.265
955.0043, 1812.811
955.4864, 1812.459
955.9685, 1810.356
956.4506, 1807.693
956.9327, 1804.830
957.4149, 1803.494
957.8970, 1805.532
958.3791, 1809.548
958.8612, 1811.213
959.3433, 1810.349
959.8254, 1809.629
960.3076, 1809.502
960.7897, 1807.806
961.2718, 1802.363
961.7539, 1797.725
962.2360, 1800.682
962.7181, 1810.708
963.2003, 1815.045
963.6824, 1810.483
964.1645, 1806.839
964.6466, 1805.281
965.1287, 1804.506
965.6108, 1803.805
966.0930, 1803.494
966.5751, 1804.250
967.0572, 1806.217
967.5393, 1807.768
968.0214, 1808.361
968.5035, 1809.009
968.9857, 1811.262
969.4678, 1812.510
969.9499, 1809.891
970.4320, 1804.888
970.9141, 1800.834
971.3962, 1798.526
971.8784, 1797.113
972.3605, 1795.989
972.8426, 1795.890
973.3247, 1798.699
973.8068, 1801.963
974.2889, 1802.569
974.7711, 1800.498
975.2532, 1797.272
975.7353, 1793.359
976.2174, 1790.093
976.6995, 1788.900
977.1816, 1788.933
977.6638, 1789.176
978.1459, 1789.609
978.6280, 1790.327
979.1101, 1791.354
979.5922, 1792.719
980.0743, 1794.518
980.5565, 1796.305
981.0386, 1797.684
981.5207, 1798.413
982.0028, 1796.919
982.4849, 1793.501
982.9670, 1791.604
983.4492, 1792.405
983.9313, 1793.414
984.4134, 1792.151
984.8955, 1789.462
985.3776, 1787.900
985.8597, 1787.458
986.3419, 1788.432
986.8240, 1791.103
987.3061, 1793.636
987.7882, 1795.464
988.2703, 1796.089
988.7524, 1794.708
989.2346, 1791.526
989.7167, 1788.738
990.1988, 1785.956
990.6809, 1784.943
991.1630, 1787.320
991.6451, 1788.613
992.1273, 1785.322
992.6094, 1780.822
993.0915, 1780.526
993.5736, 1784.736
994.0557, 1787.457
994.5378, 1788.340
995.0200, 1788.192
995.5021, 1786.561
995.9842, 1784.477
996.4663, 1781.656
996.9484, 1779.085
997.4305, 1778.855
997.9127, 1781.395
998.3948, 1782.393
998.8769, 1778.618
999.3590, 1776.580
999.8411, 1780.227
1000.323, 1784.548
1000.805, 1785.335
1001.287, 1783.859
1001.770, 1783.437
1002.252, 1784.880
1002.734, 1785.479
1003.216, 1783.856
1003.698, 1781.372
1004.180, 1777.943
1004.662, 1774.739
1005.144, 1772.705
1005.627, 1772.074
1006.109, 1773.711
1006.591, 1778.096
1007.073, 1780.934
1007.555, 1777.740
1008.037, 1773.067
1008.519, 1770.859
1009.001, 1770.413
1009.483, 1771.136
1009.966, 1772.346
1010.448, 1772.252
1010.930, 1769.935
1011.412, 1767.725
1011.894, 1768.438
1012.376, 1770.414
1012.858, 1771.079
1013.340, 1770.857
1013.823, 1771.135
1014.305, 1771.978
1014.787, 1772.041
1015.269, 1770.485
1015.751, 1768.883
1016.233, 1769.884
1016.715, 1772.393
1017.197, 1773.210
1017.679, 1772.618
1018.162, 1772.147
1018.644, 1772.150
1019.126, 1772.482
1019.608, 1773.082
1020.090, 1773.662
1020.572, 1773.574
1021.054, 1772.957
1021.536, 1773.081
1022.018, 1773.892
1022.501, 1773.748
1022.983, 1772.231
1023.465, 1769.417
1023.947, 1764.862
1024.429, 1760.851
1024.911, 1763.464
1025.393, 1772.936
1025.875, 1777.057
1026.358, 1775.152
1026.840, 1773.672
1027.322, 1774.611
1027.804, 1774.604
1028.286, 1770.485
1028.768, 1764.603
1029.250, 1763.163
1029.732, 1766.899
1030.214, 1769.535
1030.697, 1770.971
1031.179, 1771.514
1031.661, 1770.825
1032.143, 1770.322
1032.625, 1771.518
1033.107, 1773.380
1033.589, 1772.697
1034.071, 1768.409
1034.553, 1766.421
1035.036, 1767.650
1035.518, 1769.206
1036.000, 1770.769
1036.482, 1771.823
1036.964, 1771.826
1037.446, 1771.065
1037.928, 1770.396
1038.410, 1769.955
1038.893, 1769.171
1039.375, 1767.916
1039.857, 1766.547
1040.339, 1764.749
1040.821, 1763.310
1041.303, 1763.438
1041.785, 1764.309
1042.267, 1763.153
1042.750, 1763.647
1043.232, 1765.080
1043.714, 1762.853
1044.196, 1766.800
1044.678, 1765.275
1045.160, 1762.285
1045.642, 1759.878
1046.124, 1758.408
1046.606, 1758.855
1047.089, 1761.969
1047.571, 1763.935
1048.053, 1763.976
1048.535, 1763.316
1049.017, 1761.946
1049.499, 1760.303
1049.981, 1758.360
1050.463, 1756.496
1050.945, 1755.703
1051.428, 1756.385
1051.910, 1756.274
1052.392, 1754.026
1052.874, 1752.195
1053.356, 1752.163
1053.838, 1752.336
1054.320, 1751.359
1054.802, 1749.704
1055.285, 1748.514
1055.767, 1748.021
1056.249, 1747.246
1056.731, 1745.075
1057.213, 1743.720
1057.695, 1745.010
1058.177, 1746.452
1058.659, 1745.740
1059.141, 1743.897
1059.624, 1742.976
1060.106, 1743.335
1060.588, 1744.210
1061.070, 1746.619
1061.552, 1747.826
1062.034, 1745.569
1062.516, 1742.842
1062.998, 1741.994
1063.480, 1742.354
1063.963, 1742.704
1064.445, 1742.785
1064.927, 1742.320
1065.409, 1740.372
1065.891, 1738.984
1066.373, 1739.683
1066.855, 1740.575
1067.337, 1740.167
1067.820, 1738.966
1068.302, 1737.759
1068.784, 1736.729
1069.266, 1736.046
1069.748, 1736.090
1070.230, 1735.936
1070.712, 1734.313
1071.194, 1733.203
1071.677, 1735.441
1072.159, 1738.391
1072.641, 1737.615
1073.123, 1733.294
1073.605, 1730.038
1074.087, 1730.038
1074.569, 1730.080
1075.051, 1728.100
1075.533, 1726.235
1076.016, 1726.718
1076.498, 1727.800
1076.980, 1727.056
1077.462, 1724.552
1077.944, 1721.857
1078.426, 1719.308
1078.908, 1717.316
1079.390, 1715.221
1079.873, 1714.689
1080.355, 1718.877
1080.837, 1723.781
1081.319, 1724.318
1081.801, 1721.288
1082.283, 1718.725
1082.765, 1717.836
1083.247, 1717.181
1083.729, 1715.258
1084.212, 1714.379
1084.694, 1717.587
1085.176, 1721.131
1085.658, 1720.376
1086.140, 1716.877
1086.622, 1715.325
1087.104, 1716.923
1087.586, 1718.082
1088.068, 1716.259
1088.551, 1714.956
1089.033, 1717.326
1089.515, 1719.685
1089.997, 1718.399
1090.479, 1714.812
1090.961, 1711.371
1091.443, 1708.641
1091.925, 1707.640
1092.408, 1710.000
1092.890, 1712.463
1093.372, 1714.986
1093.854, 1715.875
1094.336, 1713.098
1094.818, 1708.337
1095.300, 1703.488
1095.782, 1699.084
1096.265, 1696.324
1096.747, 1696.220
1097.229, 1696.476
1097.711, 1696.430
1098.193, 1696.416
1098.675, 1696.400
1099.157, 1696.681
1099.639, 1698.032
1100.121, 1700.039
1100.604, 1700.807
1101.086, 1699.396
1101.568, 1698.419
1102.050, 1699.024
1102.532, 1699.594
1103.014, 1700.000
1103.496, 1699.555
1103.978, 1696.854
1104.460, 1692.960
1104.943, 1690.577
1105.425, 1690.222
1105.907, 1690.519
1106.389, 1690.966
1106.871, 1692.369
1107.353, 1696.691
1107.835, 1700.306
1108.317, 1699.582
1108.800, 1696.955
1109.282, 1697.209
1109.764, 1700.841
1110.246, 1702.286
1110.728, 1699.695
1111.210, 1696.910
1111.692, 1694.841
1112.174, 1692.239
1112.656, 1687.543
1113.139, 1682.608
1113.621, 1679.316
1114.103, 1677.760
1114.585, 1678.571
1115.067, 1684.745
1115.549, 1687.849
1116.031, 1685.469
1116.513, 1683.446
1116.995, 1684.100
1117.478, 1685.266
1117.960, 1684.955
1118.442, 1683.677
1118.924, 1683.097
1119.406, 1683.480
1119.888, 1683.472
1120.370, 1682.603
1120.852, 1682.331
1121.335, 1683.026
1121.817, 1684.342
1122.299, 1686.494
1122.781, 1688.631
1123.263, 1689.097
1123.745, 1687.851
1124.227, 1686.738
1124.709, 1685.730
1125.192, 1685.010
1125.674, 1684.840
1126.156, 1684.090
1126.638, 1681.961
1127.120, 1679.666
1127.602, 1678.593
1128.084, 1678.631
1128.566, 1679.575
1129.048, 1681.714
1129.531, 1682.071
1130.013, 1680.380
1130.495, 1677.604
1130.977, 1673.773
1131.459, 1670.839
1131.941, 1670.481
1132.423, 1671.849
1132.905, 1673.510
1133.387, 1675.359
1133.870, 1675.061
1134.352, 1672.756
1134.834, 1672.939
1135.316, 1676.415
1135.798, 1678.249
1136.280, 1675.624
1136.762, 1672.180
1137.244, 1673.012
1137.727, 1671.828
1138.209, 1671.427
1138.691, 1673.188
1139.173, 1672.555
1139.655, 1674.297
1140.137, 1676.883
1140.619, 1679.580
1141.101, 1680.459
1141.583, 1677.500
1142.066, 1673.375
1142.548, 1672.211
1143.030, 1672.880
1143.512, 1673.651
1143.994, 1674.137
1144.476, 1673.051
1144.958, 1670.760
1145.440, 1670.181
1145.922, 1672.895
1146.405, 1675.957
1146.887, 1677.175
1147.369, 1676.750
1147.851, 1674.295
1148.333, 1670.742
1148.815, 1666.695
1149.297, 1662.986
1149.779, 1661.577
1150.262, 1662.788
1150.744, 1663.662
1151.226, 1661.678
1151.708, 1660.303
1152.190, 1662.918
1152.672, 1665.940
1153.154, 1666.495
1153.636, 1665.361
1154.119, 1663.263
1154.601, 1660.834
1155.083, 1659.842
1155.565, 1661.051
1156.047, 1662.676
1156.529, 1665.156
1157.011, 1666.604
1157.493, 1665.691
1157.975, 1663.861
1158.458, 1661.464
1158.940, 1659.372
1159.422, 1659.332
1159.904, 1661.612
1160.386, 1663.997
1160.868, 1667.705
1161.350, 1669.317
1161.832, 1666.805
1162.314, 1664.319
1162.797, 1663.813
1163.279, 1663.882
1163.761, 1662.930
1164.243, 1661.271
1164.725, 1660.410
1165.207, 1660.638
1165.689, 1660.638
1166.171, 1660.262
1166.654, 1660.130
1167.136, 1660.398
1167.618, 1661.067
1168.100, 1662.431
1168.582, 1663.464
1169.064, 1662.099
1169.546, 1658.765
1170.028, 1657.690
1170.510, 1658.941
1170.993, 1659.224
1171.475, 1658.162
1171.957, 1657.370
1172.439, 1657.442
1172.921, 1658.227
1173.403, 1659.831
1173.885, 1661.139
1174.367, 1659.094
1174.849, 1655.063
1175.332, 1654.234
1175.814, 1655.774
1176.296, 1655.614
1176.778, 1653.397
1177.260, 1651.901
1177.742, 1652.460
1178.224, 1653.504
1178.706, 1653.032
1179.189, 1652.781
1179.671, 1656.348
1180.153, 1660.665
1180.635, 1660.652
1181.117, 1657.697
1181.599, 1655.778
1182.081, 1655.508
1182.563, 1654.549
1183.046, 1651.561
1183.528, 1648.568
1184.010, 1645.951
1184.492, 1644.682
1184.974, 1646.473
1185.456, 1649.074
1185.938, 1650.529
1186.420, 1650.731
1186.902, 1649.677
1187.385, 1647.274
1187.867, 1645.762
1188.349, 1645.820
1188.831, 1646.413
1189.313, 1648.108
1189.795, 1649.365
1190.277, 1648.672
1190.759, 1647.811
1191.241, 1648.829
1191.724, 1651.154
1192.206, 1652.596
1192.688, 1653.136
1193.170, 1652.758
1193.652, 1651.004
1194.134, 1649.797
1194.616, 1649.647
1195.098, 1649.707
1195.581, 1649.534
1196.063, 1649.315
1196.545, 1649.490
1197.027, 1649.666
1197.509, 1647.649
1197.991, 1643.644
1198.473, 1640.944
1198.955, 1639.697
1199.438, 1638.789
1199.920, 1637.948
1200.402, 1638.047
1200.884, 1639.773
1201.366, 1641.500
1201.848, 1640.789
1202.330, 1638.758
1202.812, 1636.956
1203.294, 1635.743
1203.776, 1636.153
1204.259, 1637.781
1204.741, 1639.416
1205.223, 1640.652
1205.705, 1641.609
1206.187, 1642.691
1206.669, 1642.640
1207.151, 1639.749
1207.633, 1636.307
1208.116, 1633.325
1208.598, 1631.438
1209.080, 1631.803
1209.562, 1633.646
1210.044, 1634.979
1210.526, 1635.432
1211.008, 1635.614
1211.490, 1635.229
1211.973, 1635.168
1212.455, 1636.618
1212.937, 1637.045
1213.419, 1633.913
1213.901, 1630.797
1214.383, 1632.176
1214.865, 1629.366
1215.347, 1628.054
1215.829, 1628.632
1216.312, 1626.171
1216.794, 1628.835
1217.276, 1631.529
1217.758, 1633.581
1218.240, 1634.216
1218.722, 1632.920
1219.204, 1631.204
1219.686, 1630.846
1220.168, 1631.131
1220.651, 1630.279
1221.133, 1628.434
1221.615, 1625.049
1222.097, 1621.182
1222.579, 1622.069
1223.061, 1627.557
1223.543, 1631.006
1224.025, 1629.271
1224.508, 1626.484
1224.990, 1625.801
1225.472, 1626.346
1225.954, 1627.399
1226.436, 1629.052
1226.918, 1632.820
1227.400, 1636.477
1227.882, 1635.928
1228.365, 1631.483
1228.847, 1627.038
1229.329, 1623.382
1229.811, 1621.039
1230.293, 1621.491
1230.775, 1621.383
1231.257, 1618.657
1231.739, 1616.094
1232.221, 1615.802
1232.703, 1616.462
1233.186, 1616.271
1233.668, 1615.473
1234.150, 1615.816
1234.632, 1617.951
1235.114, 1618.668
1235.596, 1617.842
1236.078, 1615.681
1236.560, 1611.831
1237.043, 1609.810
1237.525, 1611.913
1238.007, 1615.086
1238.489, 1615.453
1238.971, 1613.709
1239.453, 1611.038
1239.935, 1608.031
1240.417, 1606.990
1240.900, 1607.546
1241.382, 1607.788
1241.864, 1607.498
1242.346, 1608.100
1242.828, 1610.331
1243.310, 1612.426
1243.792, 1613.010
1244.274, 1612.856
1244.756, 1611.746
1245.239, 1610.999
1245.721, 1612.887
1246.203, 1615.412
1246.685, 1615.107
1247.167, 1612.231
1247.649, 1610.102
1248.131, 1609.500
1248.613, 1608.902
1249.095, 1608.705
1249.578, 1607.558
1250.060, 1604.299
1250.542, 1601.502
1251.024, 1600.255
1251.506, 1600.548
1251.988, 1602.994
1252.470, 1601.156
1252.952, 1605.608
1253.435, 1600.378
1253.917, 1598.402
1254.399, 1599.659
1254.881, 1600.144
1255.363, 1599.222
1255.845, 1599.344
1256.327, 1601.604
1256.809, 1603.659
1257.292, 1603.017
1257.774, 1601.614
1258.256, 1602.022
1258.738, 1603.412
1259.220, 1605.015
1259.702, 1606.481
1260.184, 1607.388
1260.666, 1607.734
1261.148, 1607.694
1261.630, 1607.313
1262.113, 1606.790
1262.595, 1605.742
1263.077, 1605.244
1263.559, 1605.981
1264.041, 1606.867
1264.523, 1608.438
1265.005, 1608.847
1265.487, 1605.431
1265.970, 1600.391
1266.452, 1599.063
1266.934, 1601.526
1267.416, 1602.326
1267.898, 1601.283
1268.380, 1600.008
1268.862, 1598.678
1269.344, 1596.471
1269.827, 1593.087
1270.309, 1590.479
1270.791, 1590.081
1271.273, 1590.982
1271.755, 1592.317
1272.237, 1593.762
1272.719, 1594.464
1273.201, 1594.977
1273.683, 1597.011
1274.166, 1599.457
1274.648, 1599.223
1275.130, 1596.273
1275.612, 1593.714
1276.094, 1592.641
1276.576, 1592.241
1277.058, 1592.721
1277.540, 1593.073
1278.022, 1592.380
1278.505, 1591.979
1278.987, 1593.400
1279.469, 1595.074
1279.951, 1594.717
1280.433, 1596.928
1280.915, 1594.539
1281.397, 1599.645
1281.879, 1602.436
1282.362, 1602.802
1282.844, 1601.475
1283.326, 1598.530
1283.808, 1596.404
1284.290, 1595.991
1284.772, 1595.786
1285.254, 1593.760
1285.736, 1589.876
##END=



