##NAMES=Titanite
##RRUFFID=R120030
##IDEAL CHEMISTRY=CaTi^4+^SiO_5_
##LOCALITY=Zagi Mountain, Hameed Abad Kafoor Dheri, Peshawar, Khyber Pakhtunkhwa, Pakistan
##OWNER=RRUFF
##SOURCE=Donald Doell
##DESCRIPTION=Brown flattened octahedra
##STATUS=The identification of this mineral has been confirmed by single-crystal X-ray diffraction.
##URL=rruff.info/R120030
91.12140, 0.0000000E+00
91.60352, 5809.400
92.08563, 5613.248
92.56775, 5590.142
93.04987, 5836.988
93.53198, 6128.281
94.01410, 6325.186
94.49622, 6434.322
94.97833, 6496.299
95.46045, 6544.447
95.94257, 6579.159
96.42468, 6594.407
96.90680, 6590.798
97.38892, 6581.015
97.87103, 6570.989
98.35315, 6552.489
98.83527, 6517.284
99.31738, 6474.188
99.79950, 6420.484
100.2816, 6377.230
100.7637, 6348.079
101.2458, 6323.465
101.7280, 6294.132
102.2101, 6256.720
102.6922, 6217.733
103.1743, 6188.073
103.6564, 6167.204
104.1385, 6145.614
104.6207, 6118.764
105.1028, 6087.917
105.5849, 6057.028
106.0670, 6024.781
106.5491, 5993.171
107.0313, 5964.864
107.5134, 5940.130
107.9955, 5915.926
108.4776, 5889.149
108.9597, 5859.125
109.4418, 5828.379
109.9240, 5797.460
110.4061, 5766.036
110.8882, 5733.847
111.3703, 5700.694
111.8524, 5666.995
112.3345, 5634.027
112.8167, 5603.274
113.2988, 5571.176
113.7809, 5536.344
114.2630, 5500.149
114.7451, 5464.407
115.2272, 5430.758
115.7094, 5398.595
116.1915, 5361.859
116.6736, 5316.114
117.1557, 5270.575
117.6378, 5227.633
118.1199, 5187.352
118.6021, 5149.462
119.0842, 5114.515
119.5663, 5082.678
120.0484, 5048.167
120.5305, 5007.825
121.0126, 4966.503
121.4948, 4928.775
121.9769, 4895.369
122.4590, 4863.451
122.9411, 4830.790
123.4232, 4797.523
123.9053, 4763.911
124.3875, 4730.671
124.8696, 4697.212
125.3517, 4661.693
125.8338, 4621.546
126.3159, 4582.592
126.7980, 4548.612
127.2802, 4519.089
127.7623, 4491.903
128.2444, 4465.457
128.7265, 4439.866
129.2086, 4415.072
129.6907, 4391.875
130.1729, 4368.886
130.6550, 4345.481
131.1371, 4321.622
131.6192, 4297.786
132.1013, 4274.089
132.5834, 4247.327
133.0656, 4227.463
133.5477, 4216.978
134.0298, 4210.686
134.5119, 4205.437
134.9940, 4200.014
135.4761, 4194.219
135.9583, 4187.590
136.4404, 4175.757
136.9225, 4168.746
137.4046, 4168.093
137.8867, 4172.381
138.3688, 4179.631
138.8510, 4188.918
139.3331, 4200.764
139.8152, 4217.232
140.2973, 4242.652
140.7794, 4265.616
141.2615, 4282.188
141.7437, 4292.517
142.2258, 4297.551
142.7079, 4297.285
143.1900, 4291.340
143.6721, 4280.651
144.1542, 4263.501
144.6364, 4243.681
145.1185, 4224.067
145.6006, 4204.418
146.0827, 4186.497
146.5648, 4170.635
147.0469, 4157.115
147.5291, 4146.964
148.0112, 4141.328
148.4933, 4138.469
148.9754, 4134.182
149.4575, 4126.417
149.9396, 4120.965
150.4218, 4118.844
150.9039, 4119.817
151.3860, 4123.920
151.8681, 4131.625
152.3502, 4142.444
152.8323, 4151.687
153.3145, 4156.248
153.7966, 4162.207
154.2787, 4173.075
154.7608, 4186.366
155.2429, 4196.892
155.7250, 4200.020
156.2072, 4194.833
156.6893, 4195.810
157.1714, 4206.006
157.6535, 4218.114
158.1356, 4231.037
158.6177, 4243.676
159.0999, 4253.808
159.5820, 4259.311
160.0641, 4259.403
160.5462, 4257.433
161.0283, 4253.697
161.5104, 4247.901
161.9926, 4239.854
162.4747, 4229.563
162.9568, 4216.966
163.4389, 4201.689
163.9210, 4183.796
164.4031, 4164.626
164.8853, 4143.495
165.3674, 4121.478
165.8495, 4100.893
166.3316, 4082.585
166.8137, 4063.963
167.2958, 4040.750
167.7780, 4014.372
168.2601, 3991.034
168.7422, 3975.894
169.2243, 3966.768
169.7064, 3954.519
170.1885, 3934.245
170.6707, 3916.057
171.1528, 3906.489
171.6349, 3904.484
172.1170, 3905.129
172.5991, 3904.845
173.0812, 3903.540
173.5634, 3903.173
174.0455, 3900.496
174.5276, 3901.843
175.0097, 3912.148
175.4918, 3930.210
175.9739, 3950.030
176.4561, 3964.981
176.9382, 3973.776
177.4203, 3982.193
177.9024, 3987.404
178.3845, 3994.368
178.8666, 4006.855
179.3488, 4024.653
179.8309, 4044.262
180.3130, 4060.803
180.7951, 4073.316
181.2772, 4084.333
181.7593, 4089.035
182.2415, 4095.415
182.7236, 4111.476
183.2057, 4138.403
183.6878, 4168.606
184.1699, 4190.497
184.6520, 4198.827
185.1342, 4208.341
185.6163, 4219.086
186.0984, 4231.184
186.5805, 4244.616
187.0626, 4259.354
187.5447, 4275.806
188.0269, 4295.328
188.5090, 4318.651
188.9911, 4341.507
189.4732, 4360.484
189.9553, 4378.731
190.4374, 4402.316
190.9196, 4434.581
191.4017, 4469.708
191.8838, 4499.818
192.3659, 4524.849
192.8480, 4548.076
193.3301, 4569.043
193.8123, 4588.870
194.2944, 4611.813
194.7765, 4638.736
195.2586, 4669.755
195.7407, 4705.984
196.2228, 4747.455
196.7050, 4786.721
197.1871, 4816.138
197.6692, 4836.291
198.1513, 4860.462
198.6334, 4894.452
199.1155, 4930.798
199.5977, 4964.104
200.0798, 4994.251
200.5619, 5024.554
201.0440, 5058.954
201.5261, 5098.490
202.0082, 5136.712
202.4904, 5170.264
202.9725, 5204.373
203.4546, 5242.839
203.9367, 5285.651
204.4188, 5329.202
204.9009, 5368.190
205.3831, 5400.019
205.8652, 5435.154
206.3473, 5475.545
206.8294, 5517.695
207.3115, 5560.089
207.7936, 5602.120
208.2758, 5643.645
208.7579, 5683.560
209.2400, 5718.446
209.7221, 5759.632
210.2042, 5808.684
210.6863, 5861.453
211.1685, 5915.797
211.6506, 5971.081
212.1327, 6027.390
212.6148, 6085.155
213.0969, 6142.642
213.5790, 6205.214
214.0612, 6274.207
214.5433, 6346.735
215.0254, 6421.392
215.5075, 6497.291
215.9896, 6575.600
216.4717, 6657.266
216.9539, 6743.698
217.4360, 6831.999
217.9181, 6920.820
218.4002, 7012.285
218.8823, 7110.654
219.3644, 7216.728
219.8466, 7325.115
220.3287, 7427.831
220.8108, 7524.055
221.2929, 7622.526
221.7750, 7726.570
222.2571, 7832.702
222.7393, 7936.029
223.2214, 8034.961
223.7035, 8133.658
224.1856, 8239.083
224.6677, 8350.462
225.1498, 8455.846
225.6320, 8550.045
226.1141, 8636.867
226.5962, 8722.635
227.0783, 8808.953
227.5604, 8892.678
228.0425, 8971.240
228.5247, 9044.962
229.0068, 9115.678
229.4889, 9187.072
229.9710, 9255.079
230.4531, 9310.727
230.9352, 9351.497
231.4174, 9381.966
231.8995, 9405.197
232.3816, 9421.854
232.8637, 9432.439
233.3458, 9439.316
233.8279, 9440.557
234.3101, 9429.150
234.7922, 9401.694
235.2743, 9366.088
235.7564, 9326.479
236.2385, 9283.449
236.7206, 9237.797
237.2028, 9191.343
237.6849, 9142.959
238.1670, 9086.725
238.6491, 9020.551
239.1312, 8948.662
239.6133, 8869.907
240.0955, 8787.736
240.5776, 8706.911
241.0597, 8631.240
241.5418, 8559.156
242.0239, 8484.502
242.5060, 8403.329
242.9882, 8324.688
243.4703, 8253.823
243.9524, 8186.176
244.4345, 8114.952
244.9166, 8036.243
245.3987, 7950.995
245.8809, 7865.045
246.3630, 7776.202
246.8451, 7689.665
247.3272, 7607.419
247.8093, 7527.591
248.2914, 7448.604
248.7736, 7369.603
249.2557, 7290.263
249.7378, 7210.189
250.2199, 7128.327
250.7020, 7046.542
251.1841, 6964.732
251.6663, 6883.655
252.1484, 6805.661
252.6305, 6731.519
253.1126, 6659.645
253.5947, 6582.904
254.0768, 6493.187
254.5590, 6409.276
255.0411, 6334.136
255.5232, 6264.505
256.0053, 6196.181
256.4874, 6127.648
256.9695, 6059.882
257.4517, 5995.355
257.9338, 5938.467
258.4159, 5879.377
258.8980, 5814.304
259.3801, 5748.448
259.8622, 5686.890
260.3444, 5631.395
260.8265, 5579.763
261.3086, 5527.962
261.7907, 5473.381
262.2728, 5422.522
262.7549, 5375.959
263.2371, 5332.634
263.7192, 5291.876
264.2013, 5253.353
264.6834, 5217.034
265.1655, 5182.548
265.6476, 5148.641
266.1298, 5121.333
266.6119, 5103.790
267.0940, 5091.106
267.5761, 5078.619
268.0582, 5065.414
268.5403, 5054.316
269.0225, 5049.274
269.5046, 5052.298
269.9867, 5052.755
270.4688, 5043.797
270.9509, 5036.353
271.4330, 5041.663
271.9152, 5060.556
272.3973, 5082.728
272.8794, 5097.460
273.3615, 5104.255
273.8436, 5119.015
274.3257, 5145.190
274.8079, 5177.212
275.2900, 5211.725
275.7721, 5248.384
276.2542, 5285.387
276.7363, 5320.938
277.2184, 5355.591
277.7006, 5394.377
278.1827, 5437.917
278.6648, 5484.816
279.1469, 5533.392
279.6290, 5583.798
280.1111, 5638.319
280.5933, 5698.583
281.0754, 5764.464
281.5575, 5833.609
282.0396, 5907.808
282.5217, 5982.868
283.0038, 6055.654
283.4860, 6126.863
283.9681, 6200.740
284.4502, 6279.089
284.9323, 6361.696
285.4144, 6447.354
285.8965, 6536.503
286.3787, 6627.268
286.8608, 6719.222
287.3429, 6811.877
287.8250, 6905.142
288.3071, 6999.474
288.7892, 7093.547
289.2714, 7185.926
289.7535, 7276.405
290.2356, 7365.443
290.7177, 7454.551
291.1998, 7542.470
291.6819, 7626.452
292.1641, 7704.927
292.6462, 7781.314
293.1283, 7860.048
293.6104, 7940.599
294.0925, 8019.923
294.5746, 8098.088
295.0568, 8173.721
295.5389, 8243.406
296.0210, 8305.693
296.5031, 8365.009
296.9852, 8426.217
297.4673, 8487.979
297.9495, 8546.328
298.4316, 8600.222
298.9137, 8649.666
299.3958, 8693.729
299.8779, 8731.750
300.3600, 8767.663
300.8422, 8805.686
301.3243, 8842.966
301.8064, 8873.436
302.2885, 8895.058
302.7706, 8910.397
303.2527, 8923.750
303.7349, 8935.624
304.2170, 8938.799
304.6991, 8926.905
305.1812, 8905.060
305.6633, 8880.567
306.1454, 8854.834
306.6276, 8825.216
307.1097, 8789.888
307.5918, 8748.936
308.0739, 8701.633
308.5560, 8646.846
309.0381, 8586.186
309.5203, 8521.936
310.0024, 8453.623
310.4845, 8384.200
310.9666, 8314.628
311.4487, 8245.302
311.9308, 8179.390
312.4130, 8119.999
312.8951, 8060.983
313.3772, 7997.189
313.8593, 7928.997
314.3414, 7860.417
314.8235, 7793.234
315.3057, 7727.022
315.7878, 7660.552
316.2699, 7595.460
316.7520, 7526.514
317.2341, 7448.294
317.7162, 7363.927
318.1984, 7278.913
318.6805, 7196.468
319.1626, 7114.315
319.6447, 7027.554
320.1268, 6934.837
320.6089, 6844.623
321.0911, 6763.370
321.5732, 6686.750
322.0553, 6608.958
322.5374, 6526.569
323.0195, 6445.783
323.5016, 6374.436
323.9838, 6312.159
324.4659, 6251.456
324.9480, 6189.476
325.4301, 6128.055
325.9122, 6068.809
326.3943, 6010.629
326.8765, 5958.215
327.3586, 5917.118
327.8407, 5885.430
328.3228, 5853.406
328.8049, 5818.043
329.2870, 5782.915
329.7692, 5752.169
330.2513, 5725.492
330.7334, 5698.930
331.2155, 5669.982
331.6976, 5639.940
332.1797, 5611.733
332.6619, 5585.696
333.1440, 5561.426
333.6261, 5539.089
334.1082, 5518.291
334.5903, 5498.188
335.0724, 5478.335
335.5546, 5459.319
336.0367, 5442.696
336.5188, 5428.857
337.0009, 5414.042
337.4830, 5395.804
337.9651, 5375.150
338.4473, 5354.060
338.9294, 5332.309
339.4115, 5310.884
339.8936, 5288.580
340.3757, 5266.188
340.8578, 5250.959
341.3400, 5247.958
341.8221, 5251.230
342.3042, 5250.975
342.7863, 5246.444
343.2684, 5242.715
343.7505, 5242.509
344.2327, 5244.915
344.7148, 5247.417
345.1969, 5248.972
345.6790, 5251.886
346.1611, 5258.556
346.6432, 5268.532
347.1254, 5282.644
347.6075, 5304.399
348.0896, 5328.795
348.5717, 5348.692
349.0538, 5363.417
349.5359, 5378.481
350.0181, 5399.284
350.5002, 5424.016
350.9823, 5444.401
351.4644, 5460.583
351.9465, 5471.683
352.4286, 5475.149
352.9108, 5472.246
353.3929, 5469.256
353.8750, 5469.681
354.3571, 5471.339
354.8392, 5468.442
355.3214, 5458.679
355.8035, 5450.255
356.2856, 5447.922
356.7677, 5448.591
357.2498, 5446.795
357.7319, 5440.926
358.2141, 5432.504
358.6962, 5422.425
359.1783, 5409.762
359.6604, 5401.362
360.1425, 5402.088
360.6246, 5404.884
361.1068, 5403.483
361.5889, 5397.245
362.0710, 5388.541
362.5531, 5379.237
363.0352, 5369.203
363.5173, 5357.521
363.9995, 5342.481
364.4816, 5327.595
364.9637, 5314.324
365.4458, 5302.554
365.9279, 5291.685
366.4100, 5281.327
366.8922, 5271.840
367.3743, 5264.746
367.8564, 5262.521
368.3385, 5258.960
368.8206, 5251.901
369.3027, 5243.654
369.7849, 5237.028
370.2670, 5232.792
370.7491, 5229.478
371.2312, 5224.810
371.7133, 5217.251
372.1954, 5213.546
372.6776, 5214.857
373.1597, 5218.694
373.6418, 5222.970
374.1239, 5228.146
374.6060, 5236.496
375.0881, 5250.070
375.5703, 5268.745
376.0524, 5289.160
376.5345, 5308.737
377.0166, 5333.036
377.4987, 5364.171
377.9808, 5400.753
378.4630, 5440.726
378.9451, 5483.146
379.4272, 5528.623
379.9093, 5578.109
380.3914, 5628.552
380.8735, 5689.789
381.3557, 5765.961
381.8378, 5848.854
382.3199, 5930.474
382.8020, 6011.268
383.2841, 6099.520
383.7662, 6204.856
384.2484, 6329.623
384.7305, 6457.774
385.2126, 6585.909
385.6947, 6721.745
386.1768, 6866.704
386.6589, 7021.564
387.1411, 7187.381
387.6232, 7365.383
388.1053, 7555.383
388.5874, 7755.553
389.0695, 7967.953
389.5516, 8186.942
390.0338, 8404.137
390.5159, 8631.105
390.9980, 8878.143
391.4801, 9148.711
391.9622, 9436.361
392.4443, 9735.526
392.9265, 10045.53
393.4086, 10368.54
393.8907, 10705.51
394.3728, 11055.92
394.8549, 11416.72
395.3370, 11788.81
395.8192, 12173.31
396.3013, 12574.38
396.7834, 12989.15
397.2655, 13404.57
397.7476, 13818.48
398.2297, 14236.54
398.7119, 14663.33
399.1940, 15096.22
399.6761, 15532.24
400.1582, 15974.02
400.6403, 16411.57
401.1224, 16835.55
401.6046, 17248.97
402.0867, 17647.77
402.5688, 18035.20
403.0509, 18400.93
403.5330, 18737.30
404.0151, 19044.72
404.4973, 19329.33
404.9794, 19602.57
405.4615, 19852.30
405.9436, 20057.38
406.4257, 20213.70
406.9078, 20331.18
407.3900, 20415.47
407.8721, 20463.46
408.3542, 20472.77
408.8363, 20437.04
409.3184, 20367.95
409.8005, 20271.72
410.2827, 20148.13
410.7648, 19998.31
411.2469, 19824.30
411.7290, 19622.08
412.2111, 19377.25
412.6932, 19082.62
413.1754, 18773.48
413.6575, 18453.30
414.1396, 18123.31
414.6217, 17782.50
415.1038, 17431.63
415.5859, 17071.17
416.0681, 16701.07
416.5502, 16320.86
417.0323, 15935.22
417.5144, 15534.14
417.9965, 15139.13
418.4786, 14759.56
418.9608, 14393.07
419.4429, 14030.09
419.9250, 13665.92
420.4071, 13303.97
420.8892, 12953.26
421.3713, 12621.64
421.8535, 12292.99
422.3356, 11962.41
422.8177, 11635.90
423.2998, 11318.98
423.7819, 11011.43
424.2640, 10712.81
424.7462, 10420.89
425.2283, 10133.56
425.7104, 9867.802
426.1925, 9637.904
426.6746, 9415.963
427.1567, 9194.544
427.6389, 8975.446
428.1210, 8762.948
428.6031, 8558.269
429.0852, 8363.220
429.5673, 8183.986
430.0494, 8022.931
430.5316, 7868.037
431.0137, 7715.186
431.4958, 7570.229
431.9779, 7439.176
432.4600, 7321.789
432.9421, 7213.134
433.4243, 7111.172
433.9064, 7015.270
434.3885, 6921.520
434.8706, 6828.231
435.3527, 6739.869
435.8348, 6657.302
436.3170, 6581.462
436.7991, 6514.695
437.2812, 6459.473
437.7633, 6411.249
438.2454, 6367.808
438.7275, 6328.366
439.2097, 6288.337
439.6918, 6245.199
440.1739, 6202.542
440.6560, 6166.054
441.1381, 6135.458
441.6202, 6107.478
442.1024, 6082.439
442.5845, 6058.947
443.0666, 6034.229
443.5487, 6008.411
444.0308, 5987.228
444.5129, 5976.442
444.9951, 5974.556
445.4772, 5966.366
445.9593, 5945.801
446.4414, 5927.054
446.9235, 5916.307
447.4056, 5909.536
447.8878, 5899.811
448.3699, 5884.862
448.8520, 5869.234
449.3341, 5860.315
449.8162, 5862.359
450.2983, 5859.051
450.7805, 5847.088
451.2626, 5833.712
451.7447, 5822.583
452.2268, 5813.258
452.7089, 5803.406
453.1910, 5791.462
453.6732, 5777.932
454.1553, 5764.993
454.6374, 5752.692
455.1195, 5740.931
455.6016, 5728.983
456.0837, 5717.930
456.5659, 5709.187
457.0480, 5702.757
457.5301, 5696.954
458.0122, 5690.128
458.4943, 5682.265
458.9764, 5674.275
459.4586, 5666.967
459.9407, 5658.262
460.4228, 5646.914
460.9049, 5633.679
461.3870, 5619.559
461.8691, 5603.996
462.3513, 5589.210
462.8334, 5578.121
463.3155, 5570.654
463.7976, 5565.415
464.2797, 5564.548
464.7618, 5562.586
465.2440, 5550.757
465.7261, 5528.817
466.2082, 5510.753
466.6903, 5503.659
467.1724, 5501.603
467.6545, 5499.362
468.1367, 5496.140
468.6188, 5487.832
469.1009, 5470.404
469.5830, 5446.038
470.0651, 5425.353
470.5472, 5408.482
471.0294, 5394.634
471.5115, 5386.468
471.9936, 5380.037
472.4757, 5370.250
472.9578, 5355.858
473.4399, 5338.743
473.9221, 5320.458
474.4042, 5299.756
474.8863, 5285.396
475.3684, 5280.165
475.8505, 5277.338
476.3326, 5275.989
476.8148, 5275.051
477.2969, 5271.761
477.7790, 5264.542
478.2611, 5258.357
478.7432, 5265.034
479.2253, 5289.506
479.7075, 5312.861
480.1896, 5330.669
480.6717, 5348.755
481.1538, 5369.831
481.6359, 5394.077
482.1180, 5420.944
482.6002, 5451.056
483.0823, 5483.110
483.5644, 5513.243
484.0465, 5540.093
484.5286, 5569.651
485.0107, 5607.375
485.4929, 5647.778
485.9750, 5683.559
486.4571, 5712.399
486.9392, 5743.682
487.4213, 5784.237
487.9034, 5831.204
488.3856, 5878.663
488.8677, 5926.284
489.3498, 5972.307
489.8319, 6015.255
490.3140, 6054.983
490.7961, 6091.904
491.2783, 6124.198
491.7604, 6155.985
492.2425, 6187.786
492.7246, 6220.821
493.2067, 6258.781
493.6888, 6302.835
494.1710, 6347.875
494.6531, 6385.172
495.1352, 6411.955
495.6173, 6439.360
496.0994, 6470.672
496.5815, 6499.357
497.0637, 6520.145
497.5458, 6535.847
498.0279, 6552.916
498.5100, 6575.168
498.9921, 6600.081
499.4742, 6622.172
499.9564, 6642.077
500.4385, 6657.147
500.9206, 6661.510
501.4027, 6665.359
501.8848, 6676.857
502.3669, 6694.696
502.8491, 6709.483
503.3312, 6713.589
503.8133, 6710.292
504.2954, 6708.923
504.7775, 6710.556
505.2596, 6709.134
505.7418, 6700.911
506.2239, 6688.405
506.7060, 6674.417
507.1881, 6658.064
507.6702, 6644.815
508.1523, 6642.735
508.6345, 6643.827
509.1166, 6633.349
509.5987, 6609.036
510.0808, 6581.300
510.5629, 6558.065
511.0450, 6539.063
511.5272, 6519.604
512.0093, 6501.992
512.4914, 6481.132
512.9735, 6451.495
513.4556, 6419.323
513.9377, 6393.569
514.4199, 6376.398
514.9020, 6361.356
515.3841, 6340.576
515.8662, 6313.264
516.3483, 6286.063
516.8304, 6259.824
517.3126, 6232.888
517.7947, 6203.708
518.2768, 6173.964
518.7589, 6146.558
519.2410, 6122.759
519.7231, 6099.716
520.2053, 6071.827
520.6874, 6038.479
521.1695, 6010.091
521.6516, 5989.348
522.1337, 5972.400
522.6158, 5957.489
523.0980, 5943.938
523.5801, 5929.695
524.0622, 5913.011
524.5443, 5896.433
525.0264, 5882.672
525.5085, 5871.454
525.9907, 5861.982
526.4728, 5854.280
526.9549, 5847.484
527.4370, 5840.658
527.9191, 5834.032
528.4012, 5825.774
528.8834, 5812.222
529.3655, 5799.989
529.8476, 5794.759
530.3297, 5794.857
530.8118, 5794.708
531.2939, 5791.206
531.7761, 5786.187
532.2582, 5784.264
532.7403, 5785.492
533.2224, 5789.880
533.7045, 5800.667
534.1866, 5811.208
534.6688, 5817.006
535.1509, 5818.919
535.6330, 5820.465
536.1151, 5823.507
536.5972, 5828.315
537.0793, 5836.826
537.5615, 5850.757
538.0436, 5861.267
538.5257, 5864.847
539.0078, 5864.490
539.4899, 5859.785
539.9720, 5851.521
540.4542, 5850.267
540.9363, 5869.396
541.4184, 5894.544
541.9005, 5902.721
542.3826, 5894.058
542.8647, 5886.940
543.3469, 5891.548
543.8290, 5903.175
544.3111, 5909.643
544.7932, 5909.006
545.2753, 5908.560
545.7574, 5909.188
546.2396, 5910.440
546.7217, 5912.953
547.2038, 5915.965
547.6859, 5916.590
548.1680, 5912.428
548.6501, 5904.978
549.1323, 5900.943
549.6144, 5901.630
550.0965, 5903.708
550.5786, 5910.479
551.0607, 5915.567
551.5428, 5913.329
552.0250, 5904.276
552.5071, 5893.901
552.9892, 5885.683
553.4713, 5879.252
553.9534, 5874.003
554.4355, 5870.501
554.9177, 5865.309
555.3998, 5857.036
555.8819, 5846.194
556.3640, 5832.698
556.8461, 5815.882
557.3282, 5801.897
557.8104, 5793.712
558.2925, 5789.185
558.7746, 5786.287
559.2567, 5784.720
559.7388, 5784.869
560.2209, 5787.788
560.7031, 5791.273
561.1852, 5788.251
561.6673, 5766.898
562.1494, 5755.848
562.6315, 5762.931
563.1136, 5774.603
563.5958, 5780.597
564.0779, 5781.616
564.5600, 5784.555
565.0421, 5794.584
565.5242, 5809.595
566.0063, 5822.113
566.4885, 5830.217
566.9706, 5841.201
567.4527, 5859.565
567.9348, 5879.306
568.4169, 5894.761
568.8990, 5906.707
569.3812, 5922.844
569.8633, 5950.327
570.3454, 5982.525
570.8275, 6007.661
571.3096, 6026.513
571.7917, 6052.186
572.2739, 6091.866
572.7560, 6139.205
573.2381, 6183.229
573.7202, 6223.223
574.2023, 6263.893
574.6844, 6307.070
575.1666, 6350.114
575.6487, 6390.314
576.1308, 6428.905
576.6129, 6468.988
577.0950, 6512.346
577.5771, 6558.424
578.0593, 6605.797
578.5414, 6652.985
579.0235, 6705.466
579.5056, 6766.217
579.9877, 6829.940
580.4698, 6895.085
580.9520, 6961.242
581.4341, 7028.669
581.9162, 7097.607
582.3983, 7167.551
582.8804, 7235.690
583.3625, 7302.966
583.8447, 7377.887
584.3268, 7464.734
584.8089, 7554.136
585.2910, 7634.108
585.7731, 7705.973
586.2552, 7782.738
586.7374, 7867.863
587.2195, 7955.763
587.7016, 8043.120
588.1837, 8131.095
588.6658, 8220.825
589.1479, 8312.893
589.6301, 8409.587
590.1122, 8514.783
590.5943, 8629.250
591.0764, 8744.629
591.5585, 8863.213
592.0406, 8980.381
592.5228, 9090.449
593.0049, 9200.770
593.4870, 9320.885
593.9691, 9453.501
594.4512, 9587.739
594.9333, 9714.597
595.4155, 9835.290
595.8976, 9952.122
596.3797, 10063.04
596.8618, 10179.60
597.3439, 10312.31
597.8260, 10453.50
598.3082, 10583.21
598.7903, 10698.32
599.2724, 10809.99
599.7545, 10916.11
600.2366, 11024.20
600.7188, 11144.70
601.2009, 11276.29
601.6830, 11406.80
602.1651, 11529.09
602.6472, 11643.10
603.1293, 11748.30
603.6115, 11841.92
604.0936, 11931.47
604.5757, 12017.21
605.0578, 12099.40
605.5399, 12178.19
606.0220, 12253.33
606.5042, 12325.11
606.9863, 12392.93
607.4684, 12457.84
607.9505, 12522.77
608.4326, 12587.69
608.9147, 12647.39
609.3969, 12699.76
609.8790, 12748.09
610.3611, 12796.64
610.8432, 12845.26
611.3253, 12887.41
611.8074, 12919.55
612.2896, 12948.05
612.7717, 12978.99
613.2538, 13007.77
613.7359, 13025.15
614.2180, 13028.85
614.7001, 13026.48
615.1823, 13027.48
615.6644, 13032.34
616.1465, 13030.00
616.6286, 13021.25
617.1107, 13003.33
617.5928, 12968.64
618.0750, 12929.19
618.5571, 12899.03
619.0392, 12880.44
619.5213, 12860.29
620.0034, 12832.62
620.4855, 12795.49
620.9677, 12740.66
621.4498, 12667.43
621.9319, 12593.16
622.4140, 12526.09
622.8961, 12463.66
623.3782, 12401.29
623.8604, 12342.45
624.3425, 12273.42
624.8246, 12188.77
625.3067, 12097.42
625.7888, 12002.49
626.2709, 11905.97
626.7531, 11809.21
627.2352, 11713.36
627.7173, 11617.66
628.1994, 11521.34
628.6815, 11423.63
629.1636, 11328.37
629.6458, 11242.49
630.1279, 11150.54
630.6100, 11040.60
631.0921, 10920.73
631.5742, 10805.53
632.0563, 10698.90
632.5385, 10596.48
633.0206, 10494.79
633.5027, 10395.42
633.9848, 10304.13
634.4669, 10221.41
634.9490, 10132.53
635.4312, 10024.24
635.9133, 9902.298
636.3954, 9792.469
636.8775, 9707.405
637.3596, 9618.818
637.8417, 9521.712
638.3239, 9424.660
638.8060, 9334.256
639.2881, 9249.537
639.7702, 9165.547
640.2523, 9078.742
640.7344, 8992.386
641.2166, 8913.264
641.6987, 8841.117
642.1808, 8776.189
642.6629, 8722.735
643.1450, 8669.027
643.6271, 8600.844
644.1093, 8522.568
644.5914, 8451.697
645.0735, 8396.072
645.5556, 8342.478
646.0377, 8282.858
646.5198, 8222.320
647.0020, 8167.980
647.4841, 8121.565
647.9662, 8082.080
648.4483, 8049.918
648.9304, 8023.491
649.4125, 7989.517
649.8947, 7944.327
650.3768, 7898.766
650.8589, 7852.496
651.3410, 7808.428
651.8231, 7769.506
652.3052, 7735.106
652.7874, 7701.169
653.2695, 7664.966
653.7516, 7628.838
654.2337, 7595.248
654.7158, 7564.308
655.1979, 7537.097
655.6801, 7514.254
656.1622, 7493.345
656.6443, 7471.875
657.1264, 7449.925
657.6085, 7426.868
658.0906, 7401.233
658.5728, 7376.587
659.0549, 7357.169
659.5370, 7336.972
660.0191, 7307.932
660.5012, 7270.068
660.9833, 7232.015
661.4655, 7201.641
661.9476, 7175.897
662.4297, 7145.138
662.9118, 7108.417
663.3939, 7074.935
663.8760, 7049.463
664.3582, 7026.273
664.8403, 6997.385
665.3224, 6963.427
665.8045, 6933.949
666.2866, 6912.986
666.7687, 6894.223
667.2509, 6877.682
667.7330, 6859.948
668.2151, 6835.469
668.6972, 6802.909
669.1793, 6765.005
669.6614, 6722.220
670.1436, 6675.707
670.6257, 6643.333
671.1078, 6634.167
671.5899, 6620.190
672.0720, 6590.204
672.5541, 6554.511
673.0363, 6518.764
673.5184, 6483.923
674.0005, 6452.938
674.4826, 6428.609
674.9647, 6407.085
675.4468, 6386.553
675.9290, 6365.601
676.4111, 6338.516
676.8932, 6303.419
677.3753, 6268.262
677.8574, 6242.636
678.3395, 6226.856
678.8217, 6212.693
679.3038, 6205.120
679.7859, 6192.685
680.2680, 6169.284
680.7501, 6143.261
681.2322, 6122.063
681.7144, 6106.406
682.1965, 6092.156
682.6786, 6077.415
683.1607, 6062.130
683.6428, 6045.636
684.1249, 6028.192
684.6071, 6012.843
685.0892, 6000.698
685.5713, 5989.780
686.0534, 5977.212
686.5355, 5962.694
687.0176, 5952.808
687.4998, 5953.286
687.9819, 5950.724
688.4640, 5938.782
688.9461, 5924.052
689.4282, 5911.896
689.9103, 5903.823
690.3925, 5900.401
690.8746, 5903.423
691.3567, 5910.137
691.8388, 5915.164
692.3209, 5918.678
692.8030, 5915.604
693.2852, 5901.084
693.7673, 5886.272
694.2494, 5883.957
694.7315, 5893.296
695.2136, 5899.202
695.6957, 5896.543
696.1779, 5895.993
696.6600, 5903.358
697.1421, 5913.463
697.6242, 5919.177
698.1063, 5920.708
698.5884, 5925.282
699.0706, 5939.249
699.5527, 5958.651
700.0348, 5971.808
700.5169, 5977.622
700.9990, 5984.033
701.4811, 5992.686
701.9633, 6002.174
702.4454, 6009.243
702.9275, 6015.819
703.4096, 6029.582
703.8917, 6059.341
704.3738, 6085.644
704.8560, 6096.034
705.3381, 6101.216
705.8202, 6114.341
706.3023, 6136.183
706.7844, 6160.202
707.2665, 6182.165
707.7487, 6202.106
708.2308, 6218.293
708.7129, 6228.567
709.1950, 6245.683
709.6771, 6276.423
710.1592, 6307.268
710.6414, 6328.868
711.1235, 6344.409
711.6056, 6359.972
712.0877, 6374.938
712.5698, 6393.901
713.0519, 6421.956
713.5341, 6453.341
714.0162, 6480.728
714.4983, 6504.352
714.9804, 6529.698
715.4625, 6560.294
715.9446, 6592.610
716.4268, 6617.783
716.9089, 6632.391
717.3910, 6656.143
717.8731, 6696.978
718.3552, 6737.229
718.8373, 6766.768
719.3195, 6791.504
719.8016, 6820.247
720.2837, 6855.136
720.7658, 6889.424
721.2479, 6919.930
721.7300, 6948.162
722.2122, 6973.369
722.6943, 6997.634
723.1764, 7028.669
723.6585, 7069.943
724.1406, 7114.240
724.6227, 7150.579
725.1049, 7178.770
725.5870, 7202.084
726.0691, 7214.167
726.5512, 7231.610
727.0333, 7263.337
727.5154, 7300.854
727.9976, 7336.274
728.4797, 7368.772
728.9618, 7399.979
729.4439, 7428.569
729.9260, 7457.680
730.4081, 7491.952
730.8903, 7528.633
731.3724, 7562.325
731.8545, 7591.180
732.3366, 7612.936
732.8187, 7624.111
733.3008, 7625.829
733.7830, 7631.819
734.2651, 7643.002
734.7472, 7656.595
735.2293, 7676.495
735.7114, 7694.937
736.1935, 7706.849
736.6757, 7712.452
737.1578, 7713.708
737.6399, 7707.435
738.1220, 7701.935
738.6041, 7706.480
739.0862, 7713.913
739.5684, 7711.028
740.0505, 7697.236
740.5326, 7683.288
741.0147, 7677.085
741.4968, 7675.959
741.9789, 7673.026
742.4611, 7670.388
742.9432, 7657.703
743.4253, 7627.857
743.9074, 7595.411
744.3895, 7567.376
744.8716, 7542.867
745.3538, 7521.337
745.8359, 7504.944
746.3180, 7484.124
746.8001, 7452.289
747.2822, 7415.801
747.7643, 7381.474
748.2465, 7348.563
748.7286, 7312.038
749.2107, 7269.737
749.6928, 7224.089
750.1749, 7179.423
750.6570, 7136.048
751.1392, 7083.680
751.6213, 7015.908
752.1034, 6953.533
752.5855, 6910.474
753.0676, 6872.967
753.5497, 6823.446
754.0319, 6761.291
754.5140, 6701.925
754.9961, 6651.667
755.4782, 6602.398
755.9603, 6550.554
756.4424, 6496.234
756.9246, 6438.802
757.4067, 6378.478
757.8888, 6317.751
758.3709, 6257.853
758.8530, 6199.019
759.3351, 6142.394
759.8173, 6088.390
760.2994, 6034.711
760.7815, 5981.380
761.2636, 5928.226
761.7457, 5874.975
762.2278, 5822.085
762.7100, 5771.116
763.1921, 5725.301
763.6742, 5676.826
764.1563, 5620.107
764.6384, 5563.501
765.1205, 5513.279
765.6027, 5469.011
766.0848, 5427.774
766.5669, 5388.085
767.0490, 5350.364
767.5311, 5317.989
768.0132, 5288.818
768.4954, 5248.968
768.9775, 5196.110
769.4596, 5144.968
769.9417, 5102.726
770.4238, 5065.545
770.9059, 5026.266
771.3881, 4983.014
771.8702, 4946.050
772.3523, 4918.278
772.8344, 4892.856
773.3165, 4869.822
773.7986, 4846.638
774.2808, 4819.323
774.7629, 4788.258
775.2450, 4758.935
775.7271, 4735.978
776.2092, 4716.075
776.6913, 4692.811
777.1735, 4668.080
777.6556, 4652.009
778.1377, 4647.221
778.6198, 4641.128
779.1019, 4621.836
779.5840, 4593.039
780.0662, 4574.263
780.5483, 4572.585
781.0304, 4567.492
781.5125, 4554.327
781.9946, 4541.038
782.4767, 4531.356
782.9589, 4524.297
783.4410, 4517.567
783.9231, 4510.319
784.4052, 4504.715
784.8873, 4504.438
785.3694, 4504.931
785.8516, 4498.428
786.3337, 4487.399
786.8158, 4482.036
787.2979, 4486.350
787.7800, 4493.446
788.2621, 4493.597
788.7443, 4487.191
789.2264, 4486.452
789.7085, 4492.562
790.1906, 4501.321
790.6727, 4514.108
791.1548, 4526.674
791.6370, 4534.786
792.1191, 4538.860
792.6012, 4541.354
793.0833, 4542.602
793.5654, 4542.349
794.0475, 4539.966
794.5297, 4536.371
795.0118, 4533.102
795.4939, 4529.575
795.9760, 4523.828
796.4581, 4514.907
796.9402, 4502.349
797.4224, 4482.693
797.9045, 4457.707
798.3866, 4440.577
798.8687, 4433.052
799.3508, 4427.580
799.8329, 4420.300
800.3151, 4413.036
800.7972, 4410.697
801.2793, 4418.111
801.7614, 4411.002
802.2435, 4376.904
802.7256, 4345.036
803.2078, 4325.309
803.6899, 4311.081
804.1720, 4295.483
804.6541, 4277.808
805.1362, 4260.595
805.6183, 4247.198
806.1005, 4232.712
806.5826, 4210.498
807.0647, 4183.731
807.5468, 4159.543
808.0289, 4138.999
808.5110, 4119.993
808.9932, 4101.374
809.4753, 4081.971
809.9574, 4057.817
810.4395, 4027.238
810.9216, 3999.268
811.4037, 3977.171
811.8859, 3953.179
812.3680, 3921.512
812.8501, 3886.479
813.3322, 3853.186
813.8143, 3821.372
814.2964, 3795.350
814.7786, 3780.365
815.2607, 3766.733
815.7428, 3750.557
816.2249, 3731.413
816.7070, 3708.430
817.1891, 3682.080
817.6713, 3654.807
818.1534, 3627.988
818.6355, 3602.381
819.1176, 3579.971
819.5997, 3560.386
820.0818, 3541.354
820.5640, 3522.746
821.0461, 3501.777
821.5282, 3475.604
822.0103, 3446.549
822.4924, 3422.067
822.9745, 3404.296
823.4567, 3385.932
823.9388, 3366.538
824.4209, 3346.989
824.9030, 3326.775
825.3851, 3306.925
825.8672, 3288.788
826.3494, 3272.505
826.8315, 3257.573
827.3136, 3244.843
827.7957, 3232.373
828.2778, 3219.197
828.7599, 3204.973
829.2421, 3188.325
829.7242, 3169.537
830.2063, 3151.261
830.6884, 3134.945
831.1705, 3121.825
831.6526, 3116.976
832.1348, 3120.846
832.6169, 3118.544
833.0990, 3106.734
833.5811, 3093.513
834.0632, 3082.158
834.5453, 3073.535
835.0275, 3069.866
835.5096, 3073.073
835.9917, 3075.600
836.4738, 3078.748
836.9559, 3079.596
837.4380, 3074.768
837.9202, 3068.503
838.4023, 3065.948
838.8844, 3067.302
839.3665, 3068.257
839.8486, 3065.287
840.3307, 3062.485
840.8129, 3064.138
841.2950, 3068.996
841.7771, 3075.171
842.2592, 3082.067
842.7413, 3088.489
843.2234, 3093.591
843.7056, 3098.046
844.1877, 3102.628
844.6698, 3107.034
845.1519, 3115.530
845.6340, 3130.134
846.1161, 3143.008
846.5983, 3148.747
847.0804, 3153.078
847.5625, 3164.844
848.0446, 3184.564
848.5267, 3202.716
849.0089, 3215.775
849.4910, 3231.225
849.9731, 3253.852
850.4552, 3277.754
850.9373, 3297.938
851.4194, 3314.499
851.9016, 3329.403
852.3837, 3342.943
852.8658, 3357.536
853.3479, 3375.829
853.8300, 3396.635
854.3121, 3418.133
854.7943, 3440.035
855.2764, 3462.103
855.7585, 3484.105
856.2406, 3505.967
856.7227, 3527.116
857.2048, 3547.794
857.6870, 3574.249
858.1691, 3608.845
858.6512, 3639.058
859.1333, 3660.281
859.6154, 3678.423
860.0975, 3696.484
860.5797, 3715.598
861.0618, 3742.029
861.5439, 3781.278
862.0260, 3818.384
862.5081, 3850.839
862.9902, 3881.911
863.4724, 3913.214
863.9545, 3944.629
864.4366, 3975.232
864.9187, 4005.078
865.4008, 4037.057
865.8829, 4075.212
866.3651, 4114.981
866.8472, 4152.272
867.3293, 4187.065
867.8114, 4219.729
868.2935, 4250.469
868.7756, 4280.071
869.2578, 4308.554
869.7399, 4337.999
870.2220, 4374.614
870.7041, 4418.733
871.1862, 4461.461
871.6683, 4502.587
872.1505, 4539.567
872.6326, 4568.618
873.1147, 4595.384
873.5968, 4631.146
874.0789, 4679.505
874.5610, 4716.839
875.0432, 4733.368
875.5253, 4751.898
876.0074, 4779.943
876.4895, 4810.033
876.9716, 4837.509
877.4537, 4861.454
877.9359, 4881.028
878.4180, 4894.453
878.9001, 4907.438
879.3822, 4923.942
879.8643, 4941.642
880.3464, 4958.659
880.8286, 4974.555
881.3107, 4989.313
881.7928, 5002.821
882.2749, 5013.972
882.7570, 5020.610
883.2391, 5024.335
883.7213, 5030.028
884.2034, 5037.614
884.6855, 5046.454
885.1676, 5056.838
885.6497, 5065.488
886.1318, 5070.431
886.6140, 5071.058
887.0961, 5064.579
887.5782, 5046.576
888.0603, 5032.742
888.5424, 5024.547
889.0245, 5018.601
889.5067, 5016.357
889.9888, 5013.889
890.4709, 5005.495
890.9530, 4991.015
891.4351, 4978.984
891.9172, 4974.320
892.3994, 4968.378
892.8815, 4956.500
893.3636, 4942.558
893.8457, 4930.995
894.3278, 4920.902
894.8099, 4908.376
895.2921, 4891.698
895.7742, 4872.898
896.2563, 4853.845
896.7384, 4834.052
897.2205, 4810.195
897.7026, 4784.723
898.1848, 4769.245
898.6669, 4766.839
899.1490, 4765.826
899.6311, 4754.608
900.1132, 4735.880
900.5953, 4719.646
901.0775, 4706.055
901.5596, 4693.941
902.0417, 4684.133
902.5238, 4672.292
903.0059, 4654.308
903.4880, 4634.197
903.9702, 4620.607
904.4523, 4615.932
904.9344, 4608.104
905.4165, 4590.383
905.8986, 4578.189
906.3807, 4581.161
906.8629, 4585.972
907.3450, 4581.069
907.8271, 4567.472
908.3092, 4552.296
908.7913, 4535.767
909.2734, 4520.977
909.7556, 4511.096
910.2377, 4501.913
910.7198, 4489.559
911.2019, 4474.988
911.6840, 4460.770
912.1661, 4447.640
912.6483, 4434.093
913.1304, 4417.733
913.6125, 4401.210
914.0946, 4389.262
914.5767, 4380.897
915.0588, 4374.128
915.5410, 4368.149
916.0231, 4359.598
916.5052, 4346.208
916.9873, 4329.396
917.4694, 4310.613
917.9515, 4289.594
918.4337, 4274.066
918.9158, 4265.687
919.3979, 4254.818
919.8800, 4237.210
920.3621, 4217.996
920.8442, 4203.057
921.3264, 4191.748
921.8085, 4177.816
922.2906, 4159.058
922.7727, 4141.195
923.2548, 4123.210
923.7369, 4107.518
924.2191, 4098.120
924.7012, 4090.512
925.1833, 4077.078
925.6654, 4056.665
926.1475, 4038.472
926.6296, 4027.339
927.1118, 4016.682
927.5939, 4003.723
928.0760, 3989.039
928.5581, 3972.399
929.0402, 3954.693
929.5223, 3938.025
930.0045, 3923.063
930.4866, 3910.477
930.9687, 3903.610
931.4508, 3897.729
931.9329, 3884.721
932.4150, 3866.128
932.8972, 3847.620
933.3793, 3830.863
933.8614, 3814.423
934.3435, 3797.143
934.8256, 3779.392
935.3077, 3761.967
935.7899, 3744.913
936.2720, 3728.523
936.7541, 3713.044
937.2362, 3696.907
937.7183, 3679.290
938.2004, 3660.820
938.6826, 3642.370
939.1647, 3623.908
939.6468, 3605.346
940.1289, 3585.785
940.6110, 3568.564
941.0931, 3556.307
941.5753, 3544.164
942.0574, 3528.853
942.5395, 3511.040
943.0216, 3492.318
943.5037, 3472.551
943.9858, 3452.493
944.4680, 3432.186
944.9501, 3411.686
945.4322, 3389.307
945.9143, 3367.874
946.3964, 3350.643
946.8785, 3337.163
947.3607, 3324.595
947.8428, 3313.473
948.3249, 3299.586
948.8070, 3277.498
949.2891, 3254.335
949.7712, 3238.156
950.2534, 3225.834
950.7355, 3210.481
951.2176, 3190.460
951.6997, 3169.430
952.1818, 3150.059
952.6639, 3131.434
953.1461, 3111.148
953.6282, 3091.072
954.1103, 3077.244
954.5924, 3069.102
955.0745, 3059.625
955.5566, 3045.278
956.0388, 3028.144
956.5209, 3010.192
957.0030, 2991.875
957.4851, 2975.649
957.9672, 2961.438
958.4493, 2947.510
958.9315, 2933.281
959.4136, 2920.668
959.8957, 2911.541
960.3778, 2903.948
960.8599, 2892.538
961.3420, 2876.324
961.8242, 2861.451
962.3063, 2848.099
962.7884, 2835.870
963.2705, 2825.582
963.7526, 2815.133
964.2347, 2801.386
964.7169, 2785.260
965.1990, 2773.377
965.6811, 2768.099
966.1632, 2763.565
966.6453, 2761.809
967.1274, 2758.471
967.6096, 2750.553
968.0917, 2740.684
968.5738, 2732.645
969.0559, 2726.482
969.5380, 2718.353
970.0201, 2703.743
970.5023, 2691.702
970.9844, 2688.664
971.4665, 2686.477
971.9486, 2676.975
972.4307, 2663.560
972.9128, 2653.683
973.3950, 2649.308
973.8771, 2647.517
974.3592, 2647.022
974.8413, 2647.893
975.3234, 2653.333
975.8055, 2658.447
976.2877, 2654.039
976.7698, 2641.846
977.2519, 2631.701
977.7340, 2628.222
978.2161, 2621.589
978.6982, 2622.782
979.1804, 2617.930
979.6625, 2617.911
980.1446, 2621.510
980.6267, 2623.713
981.1088, 2623.826
981.5909, 2626.744
982.0731, 2636.351
982.5552, 2647.532
983.0373, 2650.477
983.5194, 2646.268
984.0015, 2641.457
984.4836, 2636.303
984.9658, 2637.740
985.4479, 2648.708
985.9300, 2659.604
986.4121, 2660.928
986.8942, 2656.165
987.3763, 2658.152
987.8585, 2667.973
988.3406, 2677.880
988.8227, 2688.090
989.3048, 2696.142
989.7869, 2700.192
990.2690, 2702.999
990.7512, 2707.747
991.2333, 2714.288
991.7154, 2720.726
992.1975, 2726.582
992.6796, 2733.282
993.1617, 2739.842
993.6439, 2748.781
994.1260, 2764.980
994.6081, 2782.195
995.0902, 2789.964
995.5723, 2787.812
996.0544, 2790.812
996.5366, 2803.508
997.0187, 2815.725
997.5008, 2826.331
997.9829, 2835.525
998.4650, 2841.656
998.9471, 2847.272
999.4293, 2856.974
999.9114, 2871.578
1000.393, 2885.587
1000.876, 2898.082
1001.358, 2908.862
1001.840, 2915.516
1002.322, 2922.247
1002.804, 2932.491
1003.286, 2945.977
1003.768, 2962.008
1004.250, 2980.523
1004.733, 2997.986
1005.215, 3012.369
1005.697, 3025.062
1006.179, 3034.868
1006.661, 3044.950
1007.143, 3060.062
1007.625, 3079.286
1008.107, 3098.721
1008.589, 3116.789
1009.072, 3133.170
1009.554, 3145.806
1010.036, 3157.923
1010.518, 3173.414
1011.000, 3191.374
1011.482, 3210.459
1011.964, 3230.095
1012.446, 3249.269
1012.929, 3267.442
1013.411, 3286.479
1013.893, 3310.212
1014.375, 3329.316
1014.857, 3356.007
1015.339, 3372.758
1015.821, 3392.556
1016.303, 3416.656
1016.785, 3442.093
1017.268, 3466.998
1017.750, 3491.430
1018.232, 3516.346
1018.714, 3541.136
1019.196, 3562.414
1019.678, 3580.648
1020.160, 3601.548
1020.642, 3626.795
1021.125, 3653.179
1021.607, 3678.191
1022.089, 3703.152
1022.571, 3731.292
1023.053, 3762.654
1023.535, 3794.005
1024.017, 3825.152
1024.499, 3858.796
1024.981, 3896.164
1025.464, 3934.318
1025.946, 3970.661
1026.428, 4005.323
1026.910, 4038.036
1027.392, 4068.286
1027.874, 4101.705
1028.356, 4138.825
1028.838, 4176.985
1029.321, 4214.471
1029.803, 4255.382
1030.285, 4305.427
1030.767, 4361.843
1031.249, 4411.780
1031.731, 4453.371
1032.213, 4496.033
1032.695, 4539.853
1033.177, 4585.624
1033.660, 4634.322
1034.142, 4683.388
1034.624, 4728.121
1035.106, 4771.007
1035.588, 4826.257
1036.070, 4902.451
1036.552, 4970.305
1037.034, 5026.378
1037.516, 5079.030
1037.999, 5129.163
1038.481, 5178.882
1038.963, 5229.932
1039.445, 5282.403
1039.927, 5336.954
1040.409, 5394.406
1040.891, 5452.601
1041.373, 5509.154
1041.855, 5569.218
1042.338, 5635.718
1042.820, 5705.336
1043.302, 5775.400
1043.784, 5845.731
1044.266, 5917.152
1044.748, 5995.676
1045.230, 6064.821
1045.712, 6112.278
1046.195, 6163.666
1046.677, 6228.916
1047.159, 6303.614
1047.641, 6387.032
1048.123, 6476.542
1048.605, 6558.468
1049.087, 6626.187
1049.569, 6696.436
1050.052, 6776.656
1050.534, 6853.437
1051.016, 6915.007
1051.498, 6973.780
1051.980, 7044.572
1052.462, 7126.221
1052.944, 7206.664
1053.426, 7282.761
1053.908, 7360.114
1054.391, 7441.099
1054.873, 7521.836
1055.355, 7599.780
1055.837, 7677.104
1056.319, 7756.667
1056.801, 7838.478
1057.283, 7922.207
1057.765, 8009.521
1058.248, 8093.621
1058.730, 8173.071
1059.212, 8248.716
1059.694, 8316.127
1060.176, 8383.515
1060.658, 8461.514
1061.140, 8548.924
1061.622, 8636.216
1062.104, 8719.137
1062.587, 8805.775
1063.069, 8901.396
1063.551, 8998.232
1064.033, 9092.290
1064.515, 9184.710
1064.997, 9278.420
1065.479, 9372.072
1065.961, 9459.736
1066.443, 9535.863
1066.926, 9618.785
1067.408, 9718.051
1067.890, 9823.643
1068.372, 9930.646
1068.854, 10040.45
1069.336, 10154.88
1069.818, 10273.89
1070.300, 10397.77
1070.782, 10527.67
1071.265, 10660.30
1071.747, 10797.12
1072.229, 10934.04
1072.711, 11062.26
1073.193, 11194.45
1073.675, 11345.93
1074.157, 11511.80
1074.639, 11674.84
1075.122, 11829.25
1075.604, 11990.81
1076.086, 12167.57
1076.568, 12352.87
1077.050, 12538.25
1077.532, 12733.94
1078.014, 12953.16
1078.496, 13190.63
1078.979, 13428.57
1079.461, 13662.11
1079.943, 13907.53
1080.425, 14170.04
1080.907, 14446.43
1081.389, 14735.62
1081.871, 15035.36
1082.353, 15344.63
1082.835, 15662.53
1083.318, 15985.00
1083.800, 16310.79
1084.282, 16649.01
1084.764, 17004.84
1085.246, 17372.92
1085.728, 17747.65
1086.210, 18136.63
1086.692, 18543.21
1087.175, 18970.71
1087.657, 19423.92
1088.139, 19902.48
1088.621, 20389.57
1089.103, 20884.16
1089.585, 21377.93
1090.067, 21855.61
1090.549, 22343.37
1091.031, 22863.73
1091.514, 23403.59
1091.996, 23934.33
1092.478, 24457.73
1092.960, 25011.77
1093.442, 25626.43
1093.924, 26239.42
1094.406, 26829.96
1094.888, 27416.15
1095.370, 28001.77
1095.853, 28597.14
1096.335, 29213.36
1096.817, 29852.32
1097.299, 30505.53
1097.781, 31176.59
1098.263, 31848.56
1098.745, 32509.45
1099.227, 33178.52
1099.709, 33867.49
1100.192, 34570.20
1100.674, 35274.54
1101.156, 35984.05
1101.638, 36709.61
1102.120, 37457.04
1102.602, 38208.73
1103.084, 38966.81
1103.566, 39723.40
1104.049, 40481.64
1104.531, 41234.13
1105.013, 41968.23
1105.495, 42696.71
1105.977, 43451.20
1106.459, 44239.66
1106.941, 45042.37
1107.423, 45882.38
1107.906, 46700.95
1108.388, 47482.39
1108.870, 48233.55
1109.352, 48936.84
1109.834, 49619.60
1110.316, 50323.64
1110.798, 51057.98
1111.280, 51784.43
1111.762, 52522.34
1112.245, 53223.95
1112.727, 53870.96
1113.209, 54499.78
1113.691, 55115.02
1114.173, 55726.70
1114.655, 56359.20
1115.137, 57006.29
1115.619, 57619.55
1116.102, 58197.98
1116.584, 58739.57
1117.066, 59224.69
1117.548, 59701.18
1118.030, 60210.77
1118.512, 60692.60
1118.994, 61077.87
1119.476, 61391.56
1119.958, 61738.88
1120.441, 62149.13
1120.923, 62497.85
1121.405, 62762.75
1121.887, 63012.26
1122.369, 63260.38
1122.851, 63503.26
1123.333, 63746.87
1123.815, 63974.89
1124.297, 64153.19
1124.780, 64281.54
1125.262, 64359.28
1125.744, 64377.95
1126.226, 64372.29
1126.708, 64340.39
1127.190, 64312.09
1127.672, 64308.23
1128.154, 64306.34
1128.636, 64278.46
1129.119, 64221.24
1129.601, 64101.59
1130.083, 63911.76
1130.565, 63739.36
1131.047, 63598.30
1131.529, 63426.08
1132.011, 63196.38
1132.493, 62940.75
1132.976, 62690.22
1133.458, 62439.97
1133.940, 62182.78
1134.422, 61915.65
1134.904, 61604.84
1135.386, 61249.54
1135.868, 60841.91
1136.350, 60381.23
1136.833, 59920.87
1137.315, 59497.21
1137.797, 59090.36
1138.279, 58683.86
1138.761, 58264.14
1139.243, 57767.08
1139.725, 57213.98
1140.207, 56706.75
1140.689, 56250.20
1141.172, 55761.24
1141.654, 55198.96
1142.136, 54604.91
1142.618, 54021.43
1143.100, 53441.22
1143.582, 52852.76
1144.064, 52259.16
1144.546, 51668.65
1145.029, 51076.95
1145.511, 50463.42
1145.993, 49824.43
1146.475, 49203.71
1146.957, 48644.82
1147.439, 48077.46
1147.921, 47419.98
1148.403, 46723.98
1148.885, 46045.51
1149.368, 45387.08
1149.850, 44751.99
1150.332, 44137.60
1150.814, 43517.31
1151.296, 42883.55
1151.778, 42254.93
1152.260, 41643.07
1152.742, 41046.16
1153.224, 40463.10
1153.707, 39887.37
1154.189, 39309.46
1154.671, 38731.83
1155.153, 38163.47
1155.635, 37604.18
1156.117, 37047.34
1156.599, 36486.20
1157.081, 35933.42
1157.563, 35397.73
1158.046, 34866.31
1158.528, 34319.27
1159.010, 33782.43
1159.492, 33296.79
1159.974, 32858.15
1160.456, 32393.33
1160.938, 31865.39
1161.420, 31372.64
1161.903, 30936.99
1162.385, 30512.72
1162.867, 30098.82
1163.349, 29677.92
1163.831, 29231.21
1164.313, 28769.20
1164.795, 28319.67
1165.277, 27878.46
1165.760, 27474.64
1166.242, 27121.92
1166.724, 26762.58
1167.206, 26389.50
1167.688, 26009.07
1168.170, 25623.02
1168.652, 25240.70
1169.134, 24876.25
1169.616, 24527.15
1170.099, 24185.13
1170.581, 23849.67
1171.063, 23517.98
1171.545, 23188.65
1172.027, 22872.25
1172.509, 22569.33
1172.991, 22285.96
1173.473, 22028.64
1173.956, 21777.54
1174.438, 21494.32
1174.920, 21190.07
1175.402, 20900.61
1175.884, 20626.10
1176.366, 20365.62
1176.848, 20118.35
1177.330, 19887.66
1177.813, 19674.10
1178.295, 19470.02
1178.777, 19265.27
1179.259, 19066.98
1179.741, 18893.44
1180.223, 18725.78
1180.705, 18539.38
1181.187, 18336.64
1181.669, 18125.21
1182.151, 17910.79
1182.634, 17705.54
1183.116, 17514.96
1183.598, 17338.06
1184.080, 17181.44
1184.562, 17031.20
1185.044, 16875.65
1185.526, 16723.86
1186.008, 16586.15
1186.490, 16459.40
1186.973, 16335.54
1187.455, 16214.14
1187.937, 16087.58
1188.419, 15939.87
1188.901, 15807.50
1189.383, 15713.23
1189.865, 15616.61
1190.347, 15489.00
1190.830, 15356.04
1191.312, 15249.92
1191.794, 15162.87
1192.276, 15054.08
1192.758, 14912.48
1193.240, 14786.33
1193.722, 14679.85
1194.204, 14577.72
1194.687, 14477.63
1195.169, 14378.14
1195.651, 14278.63
1196.133, 14176.75
1196.615, 14066.38
1197.097, 13969.61
1197.579, 13870.87
1198.061, 13769.31
1198.543, 13678.73
1199.026, 13578.96
1199.508, 13478.14
1199.990, 13379.74
1200.472, 13283.24
1200.954, 13188.87
1201.436, 13097.88
1201.918, 13015.95
1202.400, 12935.80
1202.883, 12838.39
1203.365, 12732.88
1203.847, 12641.90
1204.329, 12565.47
1204.811, 12492.28
1205.293, 12417.80
1205.775, 12333.07
1206.257, 12222.76
1206.740, 12112.92
1207.222, 12023.40
1207.704, 11942.01
1208.186, 11855.90
1208.668, 11771.65
1209.150, 11702.53
1209.632, 11646.06
1210.114, 11583.94
1210.596, 11510.44
1211.078, 11437.60
1211.561, 11363.17
1212.043, 11295.05
1212.525, 11240.41
1213.007, 11187.48
1213.489, 11129.84
1213.971, 11068.12
1214.453, 11002.06
1214.935, 10932.21
1215.417, 10870.38
1215.900, 10817.58
1216.382, 10770.13
1216.864, 10730.62
1217.346, 10684.99
1217.828, 10628.01
1218.310, 10567.14
1218.792, 10506.03
1219.274, 10450.45
1219.757, 10414.83
1220.239, 10392.89
1220.721, 10350.17
1221.203, 10291.85
1221.685, 10243.96
1222.167, 10208.25
1222.649, 10174.01
1223.131, 10137.19
1223.614, 10099.42
1224.096, 10059.60
1224.578, 10026.26
1225.060, 10014.05
1225.542, 10008.86
1226.024, 9997.098
1226.506, 9978.638
1226.988, 9954.896
1227.470, 9925.829
1227.953, 9888.313
1228.435, 9841.209
1228.917, 9799.215
1229.399, 9768.545
1229.881, 9743.312
1230.363, 9725.243
1230.845, 9707.479
1231.327, 9683.165
1231.810, 9659.031
1232.292, 9643.944
1232.774, 9635.944
1233.256, 9627.455
1233.738, 9618.271
1234.220, 9609.513
1234.702, 9601.723
1235.184, 9592.143
1235.667, 9578.990
1236.149, 9570.163
1236.631, 9571.027
1237.113, 9572.022
1237.595, 9560.300
1238.077, 9559.135
1238.559, 9555.742
1239.041, 9547.365
1239.523, 9549.132
1240.005, 9544.812
1240.488, 9538.635
1240.970, 9532.837
1241.452, 9532.687
1241.934, 9540.786
1242.416, 9555.842
1242.898, 9584.503
1243.380, 9610.472
1243.862, 9611.629
1244.344, 9606.141
1244.827, 9613.122
1245.309, 9629.538
1245.791, 9647.685
1246.273, 9666.791
1246.755, 9691.255
1247.237, 9726.227
1247.719, 9752.498
1248.201, 9755.301
1248.684, 9763.721
1249.166, 9796.937
1249.648, 9825.226
1250.130, 9823.570
1250.612, 9816.036
1251.094, 9836.584
1251.576, 9880.424
1252.058, 9916.025
1252.541, 9942.229
1253.023, 9968.099
1253.505, 9993.708
1253.987, 10022.77
1254.469, 10056.20
1254.951, 10092.66
1255.433, 10131.31
1255.915, 10173.13
1256.397, 10219.92
1256.880, 10269.93
1257.362, 10320.96
1257.844, 10371.73
1258.326, 10417.49
1258.808, 10461.34
1259.290, 10511.88
1259.772, 10569.39
1260.254, 10628.45
1260.737, 10687.26
1261.219, 10743.30
1261.701, 10791.44
1262.183, 10841.57
1262.665, 10894.98
1263.147, 10956.20
1263.629, 11035.57
1264.111, 11120.19
1264.594, 11190.61
1265.076, 11249.05
1265.558, 11311.92
1266.040, 11379.51
1266.522, 11450.36
1267.004, 11523.85
1267.486, 11604.04
1267.968, 11693.43
1268.450, 11780.90
1268.932, 11860.02
1269.415, 11940.10
1269.897, 12032.88
1270.379, 12133.88
1270.861, 12233.98
1271.343, 12333.68
1271.825, 12433.43
1272.307, 12534.53
1272.789, 12640.60
1273.271, 12750.90
1273.754, 12856.30
1274.236, 12954.55
1274.718, 13064.20
1275.200, 13208.09
1275.682, 13350.44
1276.164, 13461.45
1276.646, 13572.86
1277.128, 13712.01
1277.611, 13860.32
1278.093, 13992.09
1278.575, 14113.66
1279.057, 14247.98
1279.539, 14398.52
1280.021, 14542.50
1280.503, 14666.90
1280.985, 14814.82
1281.468, 14999.73
1281.950, 15190.52
1282.432, 15376.47
1282.914, 15557.53
1283.396, 15734.38
1283.878, 15909.72
1284.360, 16090.49
1284.842, 16267.71
1285.324, 16417.20
##END=



