##NAMES=Titanite
##RRUFFID=R050039
##IDEAL CHEMISTRY=CaTi^4+^SiO_5_
##LOCALITY=Kingman, Arizona, USA
##OWNER=RRUFF
##SOURCE=University of Arizona Mineral Museum
##DESCRIPTION=Black fragment from a single crystal
##STATUS=The identification of this mineral has been confirmed by X-ray diffraction and chemical analysis
##URL=rruff.info/R050039
##MEASURED CHEMISTRY=(Ca_0.95_Y_0.05_)(Ti_0.85_Al_0.10_Fe^3+^_0.06_)Si_1.00_O_4_(O_0.93_F_0.07_)
157.6603, 28585.87
158.1424, 28743.39
158.6245, 28919.80
159.1066, 29115.60
159.5887, 29338.29
160.0709, 29592.93
160.5530, 29873.88
161.0351, 30178.13
161.5172, 30511.07
161.9993, 30841.59
162.4814, 31146.96
162.9636, 31432.97
163.4457, 31712.81
163.9278, 31997.29
164.4099, 32274.83
164.8920, 32521.27
165.3741, 32732.97
165.8563, 32921.38
166.3384, 33084.77
166.8205, 33231.68
167.3026, 33375.61
167.7847, 33526.45
168.2668, 33676.93
168.7490, 33813.96
169.2311, 33941.70
169.7132, 34045.92
170.1953, 34111.93
170.6774, 34153.23
171.1595, 34188.41
171.6417, 34221.48
172.1238, 34255.74
172.6059, 34300.24
173.0880, 34358.79
173.5701, 34420.61
174.0522, 34478.09
174.5344, 34536.16
175.0165, 34600.71
175.4986, 34672.81
175.9807, 34754.65
176.4628, 34857.72
176.9449, 35000.42
177.4271, 35130.00
177.9092, 35224.92
178.3913, 35296.93
178.8734, 35358.44
179.3555, 35410.66
179.8376, 35461.73
180.3197, 35538.15
180.8019, 35653.34
181.2840, 35771.55
181.7661, 35872.14
182.2482, 35971.18
182.7303, 36091.71
183.2124, 36250.32
183.6946, 36429.01
184.1767, 36576.82
184.6588, 36684.78
185.1409, 36772.43
185.6230, 36830.68
186.1051, 36879.94
186.5873, 36942.75
187.0694, 37029.39
187.5515, 37136.11
188.0336, 37257.25
188.5157, 37401.33
188.9978, 37544.32
189.4800, 37679.68
189.9621, 37810.93
190.4442, 37946.93
190.9263, 38091.89
191.4084, 38234.46
191.8905, 38339.30
192.3727, 38356.92
192.8548, 38428.78
193.3369, 38611.55
193.8190, 38834.99
194.3011, 39031.23
194.7832, 39173.12
195.2654, 39285.26
195.7475, 39416.76
196.2296, 39567.31
196.7117, 39743.30
197.1938, 39970.85
197.6759, 40206.12
198.1581, 40411.86
198.6402, 40576.02
199.1223, 40708.58
199.6044, 40823.86
200.0865, 40905.31
200.5686, 41003.43
201.0508, 41123.57
201.5329, 41258.14
202.0150, 41414.02
202.4971, 41589.65
202.9792, 41753.20
203.4613, 41847.50
203.9435, 41832.65
204.4256, 41836.28
204.9077, 41854.80
205.3898, 41896.76
205.8719, 41973.99
206.3540, 42086.24
206.8362, 42216.84
207.3183, 42349.93
207.8004, 42499.60
208.2825, 42610.52
208.7646, 42656.93
209.2467, 42689.69
209.7289, 42733.91
210.2110, 42794.17
210.6931, 42863.29
211.1752, 42931.30
211.6573, 42992.22
212.1395, 43073.79
212.6216, 43183.91
213.1037, 43305.62
213.5858, 43436.72
214.0679, 43573.10
214.5500, 43707.24
215.0322, 43832.34
215.5143, 43948.12
215.9964, 44053.88
216.4785, 44141.90
216.9606, 44227.74
217.4427, 44317.25
217.9249, 44409.96
218.4070, 44503.16
218.8891, 44594.86
219.3712, 44685.07
219.8533, 44773.00
220.3354, 44855.06
220.8176, 44938.31
221.2997, 45037.79
221.7818, 45139.82
222.2639, 45217.88
222.7460, 45251.15
223.2281, 45243.54
223.7103, 45234.37
224.1924, 45214.86
224.6745, 45203.88
225.1566, 45206.78
225.6387, 45220.27
226.1208, 45243.45
226.6030, 45278.42
227.0851, 45316.43
227.5672, 45318.63
228.0493, 45246.77
228.5314, 45189.23
229.0135, 45169.88
229.4957, 45168.77
229.9778, 45160.39
230.4599, 45132.74
230.9420, 45098.54
231.4241, 45090.88
231.9062, 45130.12
232.3884, 45162.02
232.8705, 45182.40
233.3526, 45192.18
233.8347, 45190.52
234.3168, 45177.40
234.7989, 45157.52
235.2811, 45138.18
235.7632, 45118.15
236.2453, 45101.82
236.7274, 45092.93
237.2095, 45084.88
237.6916, 45076.26
238.1738, 45065.50
238.6559, 45047.15
239.1380, 45008.98
239.6201, 44940.04
240.1022, 44892.14
240.5843, 44877.66
241.0665, 44875.89
241.5486, 44888.94
242.0307, 44909.96
242.5128, 44917.78
242.9949, 44887.07
243.4770, 44813.80
243.9592, 44749.45
244.4413, 44693.40
244.9234, 44647.65
245.4055, 44608.54
245.8876, 44579.82
246.3697, 44573.12
246.8519, 44610.49
247.3340, 44682.00
247.8161, 44692.04
248.2982, 44583.91
248.7803, 44488.11
249.2624, 44472.84
249.7446, 44495.10
250.2267, 44478.66
250.7088, 44367.86
251.1909, 44207.92
251.6730, 44137.05
252.1551, 44203.68
252.6373, 44262.20
253.1194, 44255.29
253.6015, 44221.20
254.0836, 44204.65
254.5657, 44226.14
255.0478, 44253.95
255.5300, 44224.41
256.0121, 44112.52
256.4942, 44039.19
256.9763, 44080.11
257.4584, 44149.82
257.9406, 44193.38
258.4227, 44199.45
258.9048, 44176.42
259.3869, 44118.50
259.8690, 44022.93
260.3511, 43956.33
260.8333, 43955.58
261.3154, 43966.59
261.7975, 43947.16
262.2796, 43897.50
262.7617, 43848.64
263.2438, 43826.80
263.7260, 43826.55
264.2081, 43816.34
264.6902, 43790.33
265.1723, 43757.48
265.6544, 43718.77
266.1365, 43677.64
266.6187, 43647.10
267.1008, 43646.00
267.5829, 43657.32
268.0650, 43641.61
268.5471, 43591.07
269.0292, 43536.27
269.5114, 43483.48
269.9935, 43442.09
270.4756, 43434.93
270.9577, 43492.91
271.4398, 43567.02
271.9219, 43601.25
272.4041, 43594.68
272.8862, 43578.92
273.3683, 43564.90
273.8504, 43553.48
274.3325, 43547.19
274.8146, 43552.50
275.2968, 43551.34
275.7789, 43513.77
276.2610, 43454.16
276.7431, 43437.54
277.2252, 43502.03
277.7073, 43599.71
278.1895, 43646.56
278.6716, 43632.55
279.1537, 43626.73
279.6358, 43652.64
280.1179, 43703.12
280.6000, 43774.02
281.0822, 43868.75
281.5643, 43958.30
282.0464, 44006.76
282.5285, 44011.62
283.0106, 44004.25
283.4927, 43963.46
283.9749, 43927.39
284.4570, 43936.84
284.9391, 43992.48
285.4212, 44059.24
285.9033, 44111.50
286.3854, 44148.39
286.8676, 44175.51
287.3497, 44168.33
287.8318, 44175.84
288.3139, 44238.65
288.7960, 44337.28
289.2781, 44415.50
289.7603, 44438.81
290.2424, 44423.86
290.7245, 44440.66
291.2066, 44519.39
291.6887, 44590.20
292.1708, 44635.98
292.6530, 44670.62
293.1351, 44710.33
293.6172, 44760.93
294.0993, 44820.04
294.5814, 44883.55
295.0635, 44955.66
295.5457, 45024.66
296.0278, 45083.12
296.5099, 45143.57
296.9920, 45215.25
297.4741, 45298.86
297.9562, 45386.76
298.4384, 45468.89
298.9205, 45540.56
299.4026, 45641.90
299.8847, 45794.22
300.3668, 45953.78
300.8489, 46113.21
301.3311, 46268.73
301.8131, 46414.92
302.2953, 46547.51
302.7774, 46669.05
303.2595, 46791.77
303.7416, 46909.89
304.2237, 47038.72
304.7058, 47201.93
305.1880, 47367.39
305.6701, 47500.29
306.1522, 47587.52
306.6343, 47643.71
307.1164, 47682.67
307.5985, 47690.15
308.0807, 47733.19
308.5628, 47853.57
309.0449, 47993.21
309.5270, 48121.64
310.0091, 48235.36
310.4912, 48341.90
310.9734, 48448.76
311.4555, 48555.32
311.9376, 48656.49
312.4197, 48769.72
312.9018, 48848.01
313.3839, 48839.90
313.8661, 48776.37
314.3482, 48738.47
314.8303, 48770.31
315.3124, 48846.68
315.7945, 48928.80
316.2766, 49018.21
316.7588, 49103.77
317.2409, 49178.57
317.7230, 49244.90
318.2051, 49306.02
318.6872, 49360.29
319.1693, 49412.23
319.6515, 49467.12
320.1336, 49522.86
320.6157, 49571.85
321.0978, 49612.76
321.5799, 49643.15
322.0620, 49653.82
322.5442, 49640.11
323.0263, 49638.36
323.5084, 49678.34
323.9905, 49727.74
324.4726, 49739.72
324.9547, 49706.58
325.4369, 49662.78
325.9190, 49641.91
326.4011, 49646.92
326.8832, 49639.62
327.3653, 49605.08
327.8474, 49572.33
328.3296, 49573.07
328.8117, 49591.57
329.2938, 49576.64
329.7759, 49493.82
330.2580, 49362.04
330.7401, 49269.86
331.2223, 49291.46
331.7044, 49260.03
332.1865, 49108.29
332.6686, 48917.78
333.1507, 48781.59
333.6328, 48726.35
334.1150, 48703.35
334.5971, 48639.46
335.0792, 48519.11
335.5613, 48399.48
336.0434, 48281.54
336.5255, 48163.64
337.0077, 48048.23
337.4898, 47933.27
337.9719, 47809.17
338.4540, 47660.25
338.9361, 47494.69
339.4182, 47393.21
339.9004, 47425.97
340.3825, 47419.42
340.8646, 47288.46
341.3467, 47105.94
341.8288, 46966.08
342.3109, 46907.02
342.7931, 46886.10
343.2752, 46844.09
343.7573, 46779.33
344.2394, 46703.77
344.7215, 46609.21
345.2036, 46513.04
345.6858, 46430.66
346.1679, 46362.25
346.6500, 46293.08
347.1321, 46203.29
347.6142, 46105.80
348.0963, 46042.50
348.5785, 46028.07
349.0606, 46014.52
349.5427, 45961.53
350.0248, 45878.64
350.5069, 45791.89
350.9890, 45702.80
351.4712, 45613.35
351.9533, 45517.38
352.4354, 45418.92
352.9175, 45344.04
353.3996, 45314.92
353.8817, 45305.52
354.3639, 45243.22
354.8460, 45113.01
355.3281, 44976.41
355.8102, 44828.76
356.2923, 44690.10
356.7744, 44598.19
357.2566, 44557.25
357.7387, 44520.37
358.2208, 44431.71
358.7029, 44276.50
359.1850, 44150.81
359.6671, 44077.53
360.1493, 44006.84
360.6314, 43920.79
361.1135, 43819.66
361.5956, 43705.84
362.0777, 43578.44
362.5598, 43445.08
363.0420, 43333.79
363.5241, 43261.08
364.0062, 43184.88
364.4883, 43092.96
364.9704, 43000.34
365.4525, 42918.64
365.9347, 42850.92
366.4168, 42793.25
366.8989, 42744.07
367.3810, 42703.50
367.8631, 42661.85
368.3452, 42613.82
368.8274, 42570.80
369.3095, 42537.07
369.7916, 42512.04
370.2737, 42495.78
370.7558, 42499.24
371.2379, 42502.53
371.7201, 42468.10
372.2022, 42392.77
372.6843, 42309.86
373.1664, 42220.82
373.6485, 42140.88
374.1306, 42097.74
374.6128, 42106.73
375.0949, 42100.37
375.5770, 42027.70
376.0591, 41917.87
376.5412, 41832.18
377.0233, 41785.27
377.5055, 41745.28
377.9876, 41677.91
378.4697, 41579.67
378.9518, 41493.62
379.4339, 41416.77
379.9160, 41355.62
380.3982, 41332.70
380.8803, 41330.87
381.3624, 41302.23
381.8445, 41218.54
382.3266, 41098.92
382.8087, 40999.28
383.2909, 40915.61
383.7730, 40862.16
384.2551, 40872.00
384.7372, 40890.43
385.2193, 40864.68
385.7014, 40791.70
386.1836, 40714.62
386.6657, 40680.48
387.1478, 40691.95
387.6299, 40696.75
388.1120, 40684.41
388.5941, 40677.69
389.0763, 40686.59
389.5584, 40705.08
390.0405, 40724.74
390.5226, 40743.55
391.0047, 40757.71
391.4868, 40755.21
391.9690, 40732.46
392.4511, 40729.11
392.9332, 40775.26
393.4153, 40827.04
393.8974, 40833.17
394.3795, 40794.09
394.8617, 40774.02
395.3438, 40830.02
395.8259, 40916.29
396.3080, 40947.65
396.7901, 40913.70
397.2722, 40881.65
397.7544, 40903.75
398.2365, 40967.56
398.7186, 41002.67
399.2007, 40979.32
399.6828, 40960.93
400.1649, 40973.68
400.6471, 41007.07
401.1292, 41048.52
401.6113, 41094.19
402.0934, 41132.59
402.5755, 41142.20
403.0576, 41096.37
403.5398, 41106.33
404.0219, 41222.75
404.5040, 41339.98
404.9861, 41397.53
405.4682, 41409.96
405.9503, 41422.80
406.4325, 41464.41
406.9146, 41528.82
407.3967, 41596.77
407.8788, 41676.74
408.3609, 41742.12
408.8430, 41754.04
409.3252, 41772.88
409.8073, 41856.63
410.2894, 42010.70
410.7715, 42176.54
411.2536, 42311.62
411.7357, 42417.55
412.2179, 42492.61
412.7000, 42524.42
413.1821, 42554.14
413.6642, 42614.48
414.1463, 42692.76
414.6284, 42761.63
415.1106, 42793.46
415.5927, 42842.70
416.0748, 42979.37
416.5569, 43169.79
417.0390, 43303.52
417.5211, 43337.28
418.0033, 43320.61
418.4854, 43324.91
418.9675, 43357.93
419.4496, 43386.72
419.9317, 43393.84
420.4138, 43409.81
420.8960, 43472.60
421.3781, 43565.62
421.8602, 43634.17
422.3423, 43641.59
422.8244, 43600.45
423.3065, 43563.47
423.7887, 43516.42
424.2708, 43497.77
424.7529, 43532.84
425.2350, 43580.63
425.7171, 43605.63
426.1992, 43604.27
426.6814, 43600.35
427.1635, 43625.21
427.6456, 43674.26
428.1277, 43685.30
428.6098, 43635.82
429.0919, 43591.51
429.5741, 43591.17
430.0562, 43615.90
430.5383, 43639.92
431.0204, 43657.94
431.5025, 43672.40
431.9846, 43684.06
432.4668, 43693.65
432.9489, 43705.34
433.4310, 43722.05
433.9131, 43734.57
434.3952, 43727.95
434.8773, 43699.18
435.3595, 43685.22
435.8416, 43697.66
436.3237, 43716.84
436.8058, 43727.52
437.2879, 43734.91
437.7701, 43758.52
438.2522, 43810.08
438.7343, 43871.87
439.2164, 43898.11
439.6985, 43872.09
440.1806, 43838.14
440.6628, 43786.19
441.1449, 43736.55
441.6270, 43702.40
442.1091, 43683.23
442.5912, 43669.79
443.0733, 43652.05
443.5555, 43636.02
444.0376, 43649.96
444.5197, 43707.28
445.0018, 43757.14
445.4839, 43780.33
445.9660, 43786.14
446.4482, 43780.00
446.9303, 43761.35
447.4124, 43740.20
447.8945, 43714.35
448.3766, 43691.92
448.8587, 43693.50
449.3409, 43723.07
449.8230, 43760.39
450.3051, 43794.80
450.7872, 43824.04
451.2693, 43832.72
451.7514, 43794.64
452.2336, 43768.06
452.7157, 43782.27
453.1978, 43815.80
453.6799, 43845.73
454.1620, 43863.30
454.6441, 43857.02
455.1263, 43803.13
455.6084, 43683.88
456.0905, 43618.23
456.5726, 43670.67
457.0547, 43713.02
457.5368, 43695.79
458.0190, 43645.52
458.5011, 43606.52
458.9832, 43597.36
459.4653, 43606.32
459.9474, 43617.82
460.4295, 43631.76
460.9117, 43654.34
461.3938, 43698.36
461.8759, 43735.12
462.3580, 43731.91
462.8401, 43696.57
463.3222, 43669.59
463.8044, 43663.37
464.2865, 43668.86
464.7686, 43693.79
465.2507, 43727.21
465.7328, 43720.98
466.2149, 43647.92
466.6971, 43546.82
467.1792, 43495.13
467.6613, 43525.37
468.1434, 43538.56
468.6255, 43529.66
469.1076, 43508.55
469.5898, 43476.05
470.0719, 43436.43
470.5540, 43398.94
471.0361, 43369.71
471.5182, 43345.18
472.0003, 43312.45
472.4825, 43265.75
472.9646, 43227.26
473.4467, 43241.33
473.9288, 43235.79
474.4109, 43139.96
474.8930, 42962.54
475.3752, 42805.06
475.8573, 42738.06
476.3394, 42723.18
476.8215, 42698.24
477.3036, 42661.77
477.7857, 42621.57
478.2679, 42576.23
478.7500, 42534.07
479.2321, 42519.40
479.7142, 42548.78
480.1963, 42560.46
480.6784, 42538.94
481.1606, 42497.27
481.6427, 42432.30
482.1248, 42353.96
482.6069, 42301.24
483.0890, 42308.88
483.5711, 42359.87
484.0533, 42356.18
484.5354, 42249.95
485.0175, 42166.96
485.4996, 42141.51
485.9817, 42131.86
486.4638, 42103.53
486.9460, 42053.91
487.4281, 42006.22
487.9102, 41981.81
488.3923, 41973.05
488.8744, 41958.29
489.3565, 41937.83
489.8387, 41909.06
490.3208, 41872.40
490.8029, 41824.85
491.2850, 41759.77
491.7671, 41667.11
492.2492, 41585.84
492.7314, 41543.21
493.2135, 41511.61
493.6956, 41453.06
494.1777, 41368.46
494.6598, 41293.14
495.1419, 41255.40
495.6241, 41249.26
496.1062, 41235.40
496.5883, 41216.42
497.0704, 41184.93
497.5525, 41130.76
498.0346, 41070.82
498.5168, 41017.93
498.9989, 40974.05
499.4810, 40935.07
499.9631, 40897.21
500.4452, 40861.46
500.9273, 40832.54
501.4095, 40811.11
501.8916, 40794.38
502.3737, 40788.79
502.8558, 40782.28
503.3379, 40751.51
503.8200, 40686.13
504.3022, 40639.34
504.7843, 40647.40
505.2664, 40675.26
505.7485, 40685.30
506.2306, 40674.31
506.7127, 40652.20
507.1949, 40624.70
507.6770, 40592.53
508.1591, 40558.50
508.6412, 40502.11
509.1233, 40475.40
509.6054, 40513.89
510.0876, 40556.32
510.5697, 40550.96
511.0518, 40502.37
511.5339, 40456.43
512.0161, 40451.85
512.4982, 40469.92
512.9803, 40456.83
513.4624, 40407.84
513.9445, 40354.85
514.4266, 40295.50
514.9088, 40249.88
515.3909, 40250.79
515.8730, 40303.00
516.3551, 40338.45
516.8372, 40329.78
517.3193, 40300.50
517.8015, 40265.88
518.2836, 40229.59
518.7657, 40197.05
519.2478, 40171.16
519.7299, 40151.47
520.2120, 40136.16
520.6942, 40118.32
521.1763, 40118.98
521.6584, 40155.73
522.1405, 40192.22
522.6226, 40208.27
523.1047, 40207.83
523.5869, 40207.16
524.0690, 40219.66
524.5511, 40225.62
525.0332, 40186.66
525.5153, 40103.09
525.9974, 40014.46
526.4796, 39908.62
526.9617, 39835.61
527.4438, 39878.88
527.9259, 40022.04
528.4080, 40122.57
528.8901, 40139.59
529.3723, 40129.69
529.8544, 40119.70
530.3365, 40108.34
530.8186, 40086.29
531.3007, 40050.94
531.7828, 40019.41
532.2650, 40018.25
532.7471, 40054.73
533.2292, 40076.70
533.7113, 40098.37
534.1934, 40086.72
534.6755, 39990.39
535.1577, 39871.37
535.6398, 39820.53
536.1219, 39868.88
536.6040, 39937.04
537.0861, 39954.29
537.5682, 39932.04
538.0504, 39903.85
538.5325, 39872.73
539.0146, 39844.89
539.4967, 39832.69
539.9788, 39826.94
540.4609, 39783.05
540.9431, 39636.68
541.4252, 39543.61
541.9073, 39588.04
542.3894, 39665.60
542.8715, 39678.29
543.3536, 39617.53
543.8358, 39526.58
544.3179, 39433.20
544.8000, 39343.89
545.2821, 39294.05
545.7642, 39305.94
546.2463, 39296.41
546.7285, 39234.35
547.2106, 39149.87
547.6927, 39050.88
548.1748, 38942.86
548.6569, 38866.13
549.1390, 38873.87
549.6211, 38897.30
550.1032, 38856.35
550.5853, 38761.84
551.0674, 38663.59
551.5496, 38578.13
552.0317, 38511.27
552.5138, 38476.11
552.9959, 38491.80
553.4780, 38473.24
553.9601, 38404.90
554.4423, 38324.11
554.9244, 38234.79
555.4065, 38146.29
555.8886, 38076.80
556.3707, 38033.48
556.8528, 37986.17
557.3350, 37882.19
557.8171, 37732.72
558.2992, 37635.51
558.7813, 37612.75
559.2634, 37600.88
559.7455, 37565.13
560.2277, 37506.75
560.7098, 37433.39
561.1919, 37327.19
561.6740, 37237.07
562.1561, 37206.53
562.6382, 37182.52
563.1204, 37088.73
563.6025, 36933.90
564.0846, 36803.79
564.5667, 36763.87
565.0488, 36790.09
565.5309, 36785.87
566.0131, 36737.92
566.4952, 36693.35
566.9773, 36691.07
567.4594, 36668.31
567.9415, 36562.08
568.4236, 36391.98
568.9058, 36252.69
569.3879, 36194.99
569.8700, 36174.98
570.3521, 36163.34
570.8342, 36153.16
571.3163, 36112.18
571.7985, 36027.18
572.2806, 35943.56
572.7627, 35920.97
573.2448, 35969.06
573.7269, 35985.96
574.2090, 35958.38
574.6912, 35917.30
575.1733, 35860.78
575.6554, 35799.78
576.1375, 35749.17
576.6196, 35710.63
577.1017, 35666.33
577.5839, 35594.18
578.0660, 35503.32
578.5481, 35421.45
579.0302, 35348.09
579.5123, 35293.83
579.9944, 35270.98
580.4766, 35263.88
580.9587, 35243.04
581.4408, 35207.20
581.9229, 35166.77
582.4050, 35114.50
582.8871, 35066.17
583.3693, 35037.77
583.8514, 35021.18
584.3335, 35000.91
584.8156, 34970.19
585.2977, 34922.70
585.7798, 34836.54
586.2620, 34705.36
586.7441, 34614.95
587.2262, 34585.49
587.7083, 34569.46
588.1904, 34545.24
588.6725, 34514.99
589.1547, 34481.53
589.6368, 34444.43
590.1189, 34405.81
590.6010, 34361.38
591.0831, 34318.76
591.5652, 34287.52
592.0474, 34268.31
592.5295, 34257.72
593.0116, 34253.89
593.4937, 34256.45
593.9758, 34266.47
594.4579, 34294.20
594.9401, 34304.92
595.4222, 34279.26
595.9043, 34250.73
596.3864, 34241.41
596.8685, 34242.41
597.3506, 34226.90
597.8328, 34173.05
598.3149, 34123.30
598.7970, 34131.29
599.2791, 34171.96
599.7612, 34175.68
600.2433, 34128.95
600.7255, 34072.68
601.2076, 34039.47
601.6897, 34027.77
602.1718, 34024.82
602.6539, 34020.72
603.1360, 34040.49
603.6182, 34120.93
604.1003, 34197.99
604.5824, 34218.86
605.0645, 34189.17
605.5466, 34149.77
606.0287, 34114.49
606.5109, 34095.14
606.9930, 34125.84
607.4751, 34197.40
607.9572, 34231.64
608.4393, 34203.25
608.9214, 34156.25
609.4036, 34132.13
609.8857, 34131.05
610.3678, 34135.85
610.8499, 34160.06
611.3320, 34172.50
611.8141, 34148.61
612.2963, 34120.38
612.7784, 34122.05
613.2605, 34155.30
613.7426, 34196.79
614.2247, 34230.07
614.7068, 34258.14
615.1890, 34295.28
615.6711, 34343.19
616.1532, 34355.26
616.6353, 34298.43
617.1174, 34236.49
617.5995, 34252.47
618.0817, 34348.40
618.5638, 34404.82
619.0459, 34379.03
619.5280, 34357.13
620.0101, 34379.18
620.4922, 34420.35
620.9744, 34451.69
621.4565, 34466.04
621.9386, 34466.93
622.4207, 34448.29
622.9028, 34422.67
623.3849, 34451.68
623.8671, 34549.89
624.3492, 34614.52
624.8313, 34594.96
625.3134, 34551.23
625.7955, 34559.82
626.2776, 34617.22
626.7598, 34660.26
627.2419, 34665.61
627.7240, 34670.46
628.2061, 34703.94
628.6882, 34744.39
629.1703, 34748.34
629.6525, 34712.11
630.1346, 34687.96
630.6167, 34738.73
631.0988, 34843.76
631.5809, 34882.39
632.0630, 34839.27
632.5452, 34786.80
633.0273, 34719.99
633.5094, 34679.23
633.9915, 34732.32
634.4736, 34872.46
634.9557, 34960.70
635.4379, 34941.10
635.9200, 34892.18
636.4021, 34833.64
636.8842, 34783.58
637.3663, 34776.12
637.8484, 34814.54
638.3306, 34858.11
638.8127, 34864.73
639.2948, 34841.42
639.7769, 34833.07
640.2590, 34846.00
640.7411, 34850.11
641.2233, 34823.43
641.7054, 34797.60
642.1875, 34811.87
642.6696, 34862.30
643.1517, 34899.52
643.6339, 34904.50
644.1160, 34903.25
644.5981, 34917.28
645.0802, 34931.49
645.5623, 34918.04
646.0444, 34873.82
646.5266, 34823.14
647.0087, 34786.54
647.4908, 34763.79
647.9729, 34758.24
648.4550, 34776.97
648.9371, 34782.88
649.4193, 34751.25
649.9014, 34720.31
650.3835, 34743.30
650.8656, 34808.49
651.3477, 34829.52
651.8298, 34745.05
652.3120, 34666.90
652.7941, 34662.11
653.2762, 34687.57
653.7583, 34680.00
654.2404, 34633.84
654.7225, 34596.16
655.2047, 34612.13
655.6868, 34655.88
656.1689, 34632.70
656.6510, 34528.74
657.1331, 34443.24
657.6152, 34400.64
658.0974, 34376.98
658.5795, 34360.49
659.0616, 34347.32
659.5437, 34319.04
660.0258, 34246.22
660.5079, 34192.48
660.9901, 34208.28
661.4722, 34235.45
661.9543, 34201.05
662.4364, 34111.25
662.9185, 34029.56
663.4006, 33998.04
663.8828, 34000.95
664.3649, 34016.95
664.8470, 34047.68
665.3291, 34032.32
665.8112, 33949.00
666.2933, 33846.61
666.7755, 33749.39
667.2576, 33663.06
667.7397, 33608.15
668.2218, 33607.92
668.7039, 33601.22
669.1860, 33585.23
669.6682, 33551.28
670.1503, 33478.59
670.6324, 33381.90
671.1145, 33300.73
671.5966, 33255.23
672.0787, 33225.59
672.5609, 33191.63
673.0430, 33150.78
673.5251, 33077.12
674.0072, 32960.29
674.4893, 32857.36
674.9714, 32808.72
675.4536, 32791.63
675.9357, 32747.11
676.4178, 32657.92
676.8999, 32578.22
677.3820, 32514.49
677.8641, 32455.16
678.3463, 32401.50
678.8284, 32346.22
679.3105, 32275.71
679.7926, 32185.81
680.2747, 32095.13
680.7568, 32026.65
681.2390, 31969.80
681.7211, 31902.13
682.2032, 31822.72
682.6853, 31725.20
683.1674, 31601.93
683.6495, 31475.55
684.1317, 31383.96
684.6138, 31339.07
685.0959, 31267.01
685.5780, 31131.90
686.0601, 31011.52
686.5422, 30935.44
687.0244, 30876.45
687.5065, 30801.34
687.9886, 30708.13
688.4707, 30630.01
688.9528, 30611.43
689.4349, 30597.87
689.9171, 30517.04
690.3992, 30389.47
690.8813, 30274.20
691.3634, 30187.58
691.8455, 30118.14
692.3276, 30058.21
692.8098, 30004.76
693.2919, 29929.51
693.7740, 29817.41
694.2561, 29716.66
694.7382, 29636.87
695.2203, 29570.54
695.7025, 29519.71
696.1846, 29478.60
696.6667, 29427.19
697.1488, 29357.05
697.6309, 29280.82
698.1130, 29203.92
698.5952, 29125.78
699.0773, 29046.74
699.5594, 28965.99
700.0415, 28877.99
700.5236, 28777.06
701.0057, 28676.81
701.4879, 28611.66
701.9700, 28583.93
702.4521, 28538.87
702.9342, 28467.91
703.4163, 28389.03
703.8984, 28311.46
704.3806, 28233.74
704.8627, 28151.51
705.3448, 28064.41
705.8269, 27974.14
706.3090, 27883.18
706.7911, 27786.32
707.2733, 27663.37
707.7554, 27537.89
708.2375, 27456.07
708.7196, 27429.47
709.2017, 27410.94
709.6838, 27353.22
710.1660, 27270.16
710.6481, 27198.71
711.1302, 27138.21
711.6123, 27065.13
712.0944, 26967.16
712.5765, 26871.41
713.0587, 26816.74
713.5408, 26806.69
714.0229, 26761.20
714.5050, 26638.02
714.9871, 26537.46
715.4692, 26486.74
715.9514, 26454.86
716.4335, 26427.81
716.9156, 26398.50
717.3977, 26346.70
717.8798, 26243.92
718.3619, 26145.22
718.8441, 26105.51
719.3262, 26095.25
719.8083, 26069.09
720.2904, 26019.18
720.7725, 25946.88
721.2546, 25850.41
721.7368, 25744.59
722.2189, 25668.05
722.7010, 25626.02
723.1831, 25576.56
723.6652, 25512.19
724.1473, 25449.33
724.6295, 25407.31
725.1116, 25369.09
725.5937, 25295.71
726.0758, 25171.30
726.5579, 25068.50
727.0400, 25018.47
727.5222, 24974.92
728.0043, 24910.27
728.4864, 24832.86
728.9685, 24757.58
729.4506, 24689.09
729.9327, 24625.44
730.4149, 24560.08
730.8970, 24500.71
731.3791, 24482.73
731.8612, 24497.65
732.3433, 24456.29
732.8254, 24326.19
733.3076, 24172.96
733.7897, 24060.05
734.2718, 23986.22
734.7539, 23931.24
735.2360, 23915.99
735.7181, 23884.04
736.2003, 23820.07
736.6824, 23746.38
737.1645, 23667.93
737.6466, 23590.92
738.1287, 23531.28
738.6108, 23499.44
739.0930, 23469.49
739.5751, 23431.42
740.0572, 23384.37
740.5393, 23326.54
741.0214, 23259.04
741.5035, 23183.19
741.9857, 23100.08
742.4678, 23015.11
742.9499, 22928.18
743.4320, 22841.90
743.9141, 22800.16
744.3962, 22815.16
744.8784, 22808.85
745.3605, 22744.92
745.8426, 22653.92
746.3247, 22573.56
746.8068, 22503.49
747.2889, 22447.77
747.7711, 22432.49
748.2532, 22396.48
748.7353, 22289.68
749.2174, 22182.44
749.6995, 22156.19
750.1816, 22194.10
750.6638, 22201.53
751.1459, 22123.52
751.6280, 22019.41
752.1101, 21937.98
752.5922, 21871.36
753.0743, 21804.06
753.5565, 21735.65
754.0386, 21678.19
754.5207, 21639.70
755.0028, 21611.50
755.4849, 21576.32
755.9670, 21533.01
756.4492, 21494.59
756.9313, 21465.19
757.4134, 21430.06
757.8955, 21376.34
758.3776, 21317.83
758.8597, 21278.80
759.3419, 21262.28
759.8240, 21232.28
760.3061, 21171.89
760.7882, 21114.30
761.2703, 21068.06
761.7524, 21033.42
762.2346, 21023.43
762.7167, 21028.41
763.1988, 21003.56
763.6809, 20909.34
764.1630, 20799.78
764.6451, 20737.69
765.1273, 20708.55
765.6094, 20671.64
766.0915, 20624.00
766.5736, 20600.65
767.0557, 20627.33
767.5378, 20672.63
768.0200, 20660.89
768.5021, 20577.28
768.9842, 20531.10
769.4663, 20547.96
769.9484, 20550.46
770.4305, 20492.51
770.9127, 20410.43
771.3948, 20355.66
771.8769, 20329.59
772.3590, 20309.93
772.8411, 20285.30
773.3232, 20277.74
773.8054, 20321.10
774.2875, 20369.03
774.7696, 20364.33
775.2517, 20311.67
775.7338, 20264.85
776.2159, 20257.37
776.6981, 20259.19
777.1802, 20234.69
777.6623, 20194.24
778.1444, 20161.84
778.6265, 20139.68
779.1086, 20116.97
779.5908, 20087.48
780.0729, 20056.35
780.5550, 20028.13
781.0371, 19999.61
781.5192, 20016.54
782.0013, 20109.26
782.4835, 20164.90
782.9656, 20119.89
783.4477, 20036.78
783.9298, 19998.35
784.4119, 20005.96
784.8940, 19993.47
785.3762, 19930.73
785.8583, 19883.20
786.3404, 19866.39
786.8225, 19873.58
787.3046, 19915.06
787.7867, 19975.15
788.2689, 20008.03
788.7510, 19987.17
789.2331, 19959.00
789.7152, 19967.28
790.1973, 19991.33
790.6794, 20000.60
791.1616, 19993.64
791.6437, 19974.76
792.1258, 19945.62
792.6079, 19919.87
793.0900, 19921.62
793.5721, 19945.86
794.0543, 19938.54
794.5364, 19894.03
795.0185, 19853.01
795.5006, 19826.67
795.9827, 19807.96
796.4648, 19788.00
796.9470, 19768.38
797.4291, 19766.62
797.9112, 19802.50
798.3933, 19828.00
798.8754, 19836.84
799.3575, 19838.96
799.8397, 19848.88
800.3218, 19853.70
800.8039, 19819.73
801.2860, 19730.72
801.7681, 19665.65
802.2502, 19687.06
802.7324, 19729.59
803.2145, 19739.04
803.6966, 19723.14
804.1787, 19696.82
804.6608, 19667.04
805.1429, 19647.21
805.6251, 19654.43
806.1072, 19671.18
806.5893, 19657.06
807.0714, 19615.83
807.5535, 19570.21
808.0356, 19522.33
808.5178, 19501.54
808.9999, 19533.74
809.4820, 19592.46
809.9641, 19610.95
810.4462, 19582.89
810.9283, 19534.42
811.4105, 19435.19
811.8926, 19364.92
812.3747, 19375.93
812.8568, 19417.60
813.3389, 19433.66
813.8210, 19423.48
814.3032, 19411.75
814.7853, 19407.71
815.2674, 19395.35
815.7495, 19364.52
816.2316, 19326.70
816.7137, 19287.62
817.1959, 19251.22
817.6780, 19225.39
818.1601, 19215.58
818.6422, 19206.63
819.1243, 19185.26
819.6064, 19156.43
820.0886, 19123.36
820.5707, 19089.69
821.0528, 19069.84
821.5349, 19067.89
822.0170, 19063.81
822.4991, 19031.35
822.9813, 18980.39
823.4634, 18959.03
823.9455, 18969.44
824.4276, 18957.24
824.9097, 18905.82
825.3918, 18852.33
825.8740, 18827.22
826.3561, 18819.56
826.8382, 18791.45
827.3203, 18725.14
827.8024, 18679.57
828.2845, 18672.15
828.7667, 18664.30
829.2488, 18638.64
829.7309, 18607.20
830.2130, 18587.29
830.6951, 18579.69
831.1772, 18561.63
831.6594, 18523.69
832.1415, 18479.09
832.6236, 18423.58
833.1057, 18371.36
833.5878, 18339.11
834.0699, 18323.25
834.5521, 18309.62
835.0342, 18293.44
835.5163, 18269.33
835.9984, 18227.07
836.4805, 18176.30
836.9626, 18127.89
837.4448, 18085.26
837.9269, 18061.50
838.4090, 18059.67
838.8911, 18055.41
839.3732, 18022.71
839.8553, 17967.58
840.3375, 17902.96
840.8196, 17827.99
841.3017, 17795.27
841.7838, 17824.11
842.2659, 17845.72
842.7480, 17811.44
843.2302, 17740.50
843.7123, 17681.53
844.1944, 17641.57
844.6765, 17589.32
845.1586, 17516.53
845.6407, 17443.82
846.1229, 17361.20
846.6050, 17293.45
847.0871, 17279.97
847.5692, 17314.42
848.0513, 17316.49
848.5334, 17255.36
849.0156, 17187.51
849.4977, 17122.69
849.9798, 17061.72
850.4619, 16999.06
850.9440, 16941.58
851.4261, 16910.74
851.9083, 16915.46
852.3904, 16907.45
852.8725, 16832.87
853.3546, 16748.11
853.8367, 16734.17
854.3188, 16749.67
854.8010, 16692.60
855.2831, 16554.86
855.7652, 16431.03
856.2473, 16395.28
856.7294, 16399.23
857.2115, 16359.04
857.6937, 16283.63
858.1758, 16204.57
858.6579, 16126.25
859.1400, 16077.78
859.6221, 16075.95
860.1042, 16086.18
860.5864, 16060.71
861.0685, 16000.22
861.5506, 15913.06
862.0327, 15783.70
862.5148, 15691.54
862.9969, 15668.76
863.4791, 15657.50
863.9612, 15615.81
864.4433, 15548.55
864.9254, 15472.11
865.4075, 15365.68
865.8896, 15293.39
866.3718, 15290.47
866.8539, 15277.71
867.3360, 15219.25
867.8181, 15141.85
868.3002, 15077.83
868.7823, 15027.90
869.2645, 14967.30
869.7466, 14876.78
870.2287, 14791.79
870.7108, 14727.21
871.1929, 14673.13
871.6750, 14627.18
872.1572, 14583.21
872.6393, 14531.04
873.1214, 14467.15
873.6035, 14395.73
874.0856, 14312.98
874.5677, 14229.51
875.0499, 14146.59
875.5320, 14074.86
876.0141, 14046.31
876.4962, 14058.38
876.9783, 14064.83
877.4604, 14035.79
877.9426, 13979.37
878.4247, 13898.02
878.9068, 13800.69
879.3889, 13719.99
879.8710, 13658.06
880.3531, 13609.98
880.8353, 13574.73
881.3174, 13544.73
881.7995, 13512.14
882.2816, 13476.43
882.7637, 13435.37
883.2458, 13390.11
883.7280, 13330.04
884.2101, 13250.03
884.6922, 13165.39
885.1743, 13079.80
885.6564, 13004.69
886.1385, 12969.98
886.6207, 12993.20
887.1028, 12976.25
887.5849, 12883.27
888.0670, 12808.38
888.5491, 12794.51
889.0313, 12792.30
889.5134, 12757.44
889.9955, 12696.97
890.4776, 12643.18
890.9597, 12605.25
891.4418, 12561.76
891.9240, 12496.60
892.4061, 12439.31
892.8882, 12417.33
893.3703, 12405.98
893.8524, 12362.62
894.3345, 12285.92
894.8167, 12234.43
895.2988, 12265.16
895.7809, 12286.26
896.2630, 12239.18
896.7451, 12165.13
897.2272, 12097.87
897.7094, 12043.40
898.1915, 12001.96
898.6736, 11973.68
899.1557, 11958.13
899.6378, 11971.68
900.1199, 11984.74
900.6021, 11952.24
901.0842, 11893.30
901.5663, 11847.69
902.0484, 11822.21
902.5305, 11807.07
903.0126, 11798.38
903.4948, 11783.67
903.9769, 11732.50
904.4590, 11662.17
904.9411, 11632.70
905.4232, 11641.64
905.9053, 11651.94
906.3875, 11651.45
906.8696, 11647.94
907.3517, 11650.32
907.8338, 11653.02
908.3159, 11637.68
908.7980, 11604.28
909.2802, 11559.65
909.7623, 11502.49
910.2444, 11449.23
910.7265, 11407.62
911.2086, 11375.52
911.6907, 11351.36
912.1729, 11334.97
912.6550, 11310.26
913.1371, 11269.48
913.6192, 11244.88
914.1013, 11243.52
914.5834, 11258.14
915.0656, 11298.43
915.5477, 11342.17
916.0298, 11332.68
916.5119, 11245.55
916.9940, 11197.32
917.4761, 11222.47
917.9583, 11237.80
918.4404, 11218.61
918.9225, 11187.22
919.4046, 11156.09
919.8867, 11127.11
920.3688, 11107.25
920.8510, 11106.73
921.3331, 11093.39
921.8152, 11041.81
922.2973, 11000.55
922.7794, 11002.76
923.2615, 11020.30
923.7437, 11020.21
924.2258, 11001.34
924.7079, 10982.10
925.1900, 10965.99
925.6721, 10953.66
926.1542, 10945.44
926.6364, 10941.14
927.1185, 10945.66
927.6006, 10951.97
928.0827, 10945.85
928.5648, 10925.59
929.0469, 10909.36
929.5291, 10905.70
930.0112, 10911.57
930.4933, 10927.91
930.9754, 10950.33
931.4575, 10982.37
931.9396, 11014.52
932.4218, 11018.51
932.9039, 10984.90
933.3860, 10953.11
933.8681, 10961.50
934.3502, 10987.28
934.8323, 11001.83
935.3145, 11010.93
935.7966, 11027.50
936.2787, 11051.88
936.7608, 11075.97
937.2429, 11095.51
937.7250, 11111.38
938.2072, 11123.73
938.6893, 11133.68
939.1714, 11144.01
939.6535, 11154.37
940.1356, 11159.89
940.6177, 11161.08
941.0999, 11173.93
941.5820, 11211.25
942.0641, 11258.35
942.5462, 11287.75
943.0283, 11303.08
943.5104, 11320.36
943.9926, 11340.86
944.4747, 11376.19
944.9568, 11430.39
945.4389, 11481.80
945.9210, 11510.91
946.4031, 11522.50
946.8853, 11524.55
947.3674, 11517.24
947.8495, 11531.05
948.3316, 11569.10
948.8137, 11614.01
949.2958, 11658.45
949.7780, 11712.22
950.2601, 11791.87
950.7422, 11885.99
951.2243, 11925.65
951.7064, 11898.26
952.1885, 11898.75
952.6707, 11939.24
953.1528, 11997.86
953.6349, 12072.09
954.1170, 12142.41
954.5991, 12177.24
955.0812, 12179.65
955.5634, 12225.75
956.0455, 12336.56
956.5276, 12423.88
957.0097, 12465.35
957.4918, 12508.64
957.9739, 12583.49
958.4561, 12671.15
958.9382, 12741.58
959.4203, 12794.24
959.9024, 12840.57
960.3845, 12880.55
960.8666, 12912.82
961.3488, 12918.44
961.8309, 12942.57
962.3130, 13028.15
962.7951, 13142.62
963.2772, 13219.03
963.7593, 13245.87
964.2415, 13296.47
964.7236, 13395.36
965.2057, 13482.39
965.6878, 13536.69
966.1699, 13587.00
966.6520, 13648.12
967.1342, 13719.88
967.6163, 13800.77
968.0984, 13889.29
968.5805, 13992.69
969.0626, 14144.39
969.5447, 14267.33
970.0269, 14320.30
970.5090, 14357.54
970.9911, 14412.19
971.4732, 14485.32
971.9553, 14578.04
972.4374, 14699.24
972.9196, 14808.66
973.4017, 14890.01
973.8838, 14973.82
974.3659, 15074.51
974.8480, 15178.82
975.3301, 15275.50
975.8123, 15365.45
976.2944, 15447.16
976.7765, 15507.18
977.2586, 15603.07
977.7407, 15782.62
978.2228, 15957.55
978.7050, 16081.69
979.1871, 16187.93
979.6692, 16311.05
980.1513, 16446.80
980.6334, 16570.26
981.1155, 16670.59
981.5977, 16774.66
982.0798, 16883.42
982.5619, 17005.91
983.0440, 17157.86
983.5261, 17319.35
984.0082, 17463.89
984.4904, 17596.87
984.9725, 17748.90
985.4546, 17940.63
985.9367, 18114.53
986.4188, 18233.90
986.9009, 18348.87
987.3831, 18475.69
987.8652, 18623.70
988.3473, 18812.68
988.8294, 19031.52
989.3115, 19230.41
989.7936, 19379.73
990.2758, 19550.87
990.7579, 19795.34
991.2400, 20045.74
991.7221, 20262.34
992.2042, 20456.95
992.6863, 20628.71
993.1685, 20794.88
993.6506, 21019.94
994.1327, 21346.17
994.6148, 21668.22
995.0969, 21931.52
995.5790, 22183.38
996.0612, 22451.05
996.5433, 22727.95
997.0254, 23000.18
997.5075, 23271.75
997.9896, 23566.27
998.4717, 23903.60
998.9539, 24228.70
999.4360, 24483.75
999.9181, 24754.90
1000.400, 25106.03
1000.882, 25503.71
1001.364, 25912.63
1001.847, 26323.51
1002.329, 26720.74
1002.811, 27091.67
1003.293, 27473.71
1003.775, 27903.61
1004.257, 28332.77
1004.739, 28703.20
1005.221, 29065.36
1005.703, 29492.12
1006.186, 29971.89
1006.668, 30430.23
1007.150, 30824.37
1007.632, 31246.55
1008.114, 31757.07
1008.596, 32288.33
1009.078, 32815.02
1009.560, 33324.49
1010.043, 33807.71
1010.525, 34263.45
1011.007, 34678.99
1011.489, 35022.79
1011.971, 35439.11
1012.453, 36057.99
1012.935, 36694.04
1013.417, 37243.70
1013.899, 37739.58
1014.382, 38196.29
1014.864, 38634.61
1015.346, 39111.30
1015.828, 39648.10
1016.310, 40186.73
1016.792, 40717.07
1017.274, 41229.59
1017.756, 41697.46
1018.239, 42161.91
1018.721, 42675.19
1019.203, 43220.74
1019.685, 43740.34
1020.167, 44215.25
1020.649, 44690.71
1021.131, 45196.06
1021.613, 45690.47
1022.095, 46172.04
1022.578, 46622.81
1023.060, 47013.25
1023.542, 47362.43
1024.024, 47716.60
1024.506, 48081.54
1024.988, 48459.97
1025.470, 48881.17
1025.952, 49276.25
1026.435, 49589.13
1026.917, 49890.09
1027.399, 50250.70
1027.881, 50636.38
1028.363, 50969.86
1028.845, 51236.91
1029.327, 51482.45
1029.809, 51718.96
1030.292, 51928.50
1030.774, 52078.05
1031.256, 52228.55
1031.738, 52448.15
1032.220, 52686.62
1032.702, 52839.63
1033.184, 52891.10
1033.666, 52985.71
1034.148, 53190.01
1034.630, 53361.31
1035.113, 53474.88
1035.595, 53551.85
1036.077, 53597.14
1036.559, 53616.29
1037.041, 53604.21
1037.523, 53559.18
1038.005, 53555.31
1038.487, 53657.02
1038.970, 53695.98
1039.452, 53624.77
1039.934, 53538.26
1040.416, 53473.24
1040.898, 53418.93
1041.380, 53377.36
1041.862, 53341.86
1042.344, 53229.71
1042.826, 52975.75
1043.309, 52791.77
1043.791, 52709.66
1044.273, 52655.00
1044.755, 52626.64
1045.237, 52576.40
1045.719, 52449.09
1046.201, 52259.18
1046.683, 52072.72
1047.166, 51889.88
1047.648, 51703.05
1048.130, 51505.42
1048.612, 51328.80
1049.094, 51198.28
1049.576, 51049.84
1050.058, 50821.40
1050.540, 50547.36
1051.022, 50322.22
1051.505, 50151.50
1051.987, 49979.70
1052.469, 49808.91
1052.951, 49633.32
1053.433, 49455.03
1053.915, 49247.69
1054.397, 48985.07
1054.879, 48702.38
1055.361, 48460.07
1055.844, 48256.40
1056.326, 48071.67
1056.808, 47904.50
1057.290, 47724.63
1057.772, 47526.74
1058.254, 47322.50
1058.736, 47118.61
1059.218, 46908.56
1059.701, 46688.32
1060.183, 46453.44
1060.665, 46169.97
1061.147, 45853.87
1061.629, 45613.46
1062.111, 45448.84
1062.593, 45257.39
1063.075, 45000.21
1063.557, 44737.95
1064.040, 44533.70
1064.522, 44356.63
1065.004, 44154.04
1065.486, 43935.05
1065.968, 43716.83
1066.450, 43504.30
1066.932, 43310.83
1067.414, 43136.12
1067.896, 42955.59
1068.379, 42752.00
1068.861, 42540.18
1069.343, 42326.52
1069.825, 42123.15
1070.307, 41961.86
1070.789, 41816.93
1071.271, 41631.46
1071.753, 41405.95
1072.236, 41181.12
1072.718, 40971.48
1073.200, 40785.49
1073.682, 40646.69
1074.164, 40513.57
1074.646, 40346.12
1075.128, 40166.86
1075.610, 40014.14
1076.093, 39873.47
1076.575, 39688.95
1077.057, 39443.27
1077.539, 39226.91
1078.021, 39105.89
1078.503, 38988.37
1078.985, 38835.83
1079.467, 38668.14
1079.949, 38499.14
1080.432, 38326.19
1080.914, 38128.52
1081.396, 37908.84
1081.878, 37742.06
1082.360, 37713.73
1082.842, 37627.00
1083.324, 37394.74
1083.806, 37167.67
1084.288, 37024.97
1084.771, 36913.44
1085.253, 36778.94
1085.735, 36626.06
1086.217, 36478.94
1086.699, 36351.82
1087.181, 36191.62
1087.663, 35974.27
1088.145, 35774.07
1088.628, 35615.73
1089.110, 35469.67
1089.592, 35315.44
1090.074, 35156.59
1090.556, 35004.10
1091.038, 34859.87
1091.520, 34661.45
1092.002, 34389.69
1092.484, 34209.48
1092.967, 34164.04
1093.449, 34094.68
1093.931, 33916.13
1094.413, 33695.72
1094.895, 33516.46
1095.377, 33367.91
1095.859, 33216.63
1096.341, 33062.86
1096.823, 32914.95
1097.306, 32771.32
1097.788, 32602.50
1098.270, 32401.84
1098.752, 32215.66
1099.234, 32086.23
1099.716, 31971.81
1100.198, 31788.93
1100.680, 31584.97
1101.163, 31478.52
1101.645, 31428.34
1102.127, 31324.57
1102.609, 31153.58
1103.091, 30950.24
1103.573, 30730.12
1104.055, 30519.82
1104.537, 30342.60
1105.020, 30185.63
1105.502, 30046.97
1105.984, 29914.43
1106.466, 29772.72
1106.948, 29624.68
1107.430, 29483.80
1107.912, 29351.44
1108.394, 29210.08
1108.876, 29046.66
1109.359, 28881.56
1109.841, 28720.59
1110.323, 28563.23
1110.805, 28409.99
1111.287, 28260.52
1111.769, 28118.47
1112.251, 27981.25
1112.733, 27832.53
1113.215, 27649.99
1113.698, 27511.58
1114.180, 27474.31
1114.662, 27393.17
1115.144, 27198.98
1115.626, 27004.30
1116.108, 26894.58
1116.590, 26822.99
1117.072, 26699.51
1117.555, 26523.58
1118.037, 26364.36
1118.519, 26226.29
1119.001, 26073.45
1119.483, 25894.28
1119.965, 25758.37
1120.447, 25703.17
1120.929, 25642.69
1121.411, 25482.65
1121.894, 25267.86
1122.376, 25120.48
1122.858, 25026.47
1123.340, 24908.86
1123.822, 24769.90
1124.304, 24632.26
1124.786, 24504.58
1125.268, 24402.72
1125.750, 24337.31
1126.233, 24277.66
1126.715, 24188.56
1127.197, 24086.66
1127.679, 24000.57
1128.161, 23914.45
1128.643, 23792.71
1129.125, 23649.09
1129.607, 23528.75
1130.090, 23440.90
1130.572, 23350.22
1131.054, 23231.14
1131.536, 23117.90
1132.018, 23036.14
1132.500, 22956.81
1132.982, 22852.34
1133.464, 22743.94
1133.947, 22669.85
1134.429, 22616.75
1134.911, 22518.51
1135.393, 22340.77
1135.875, 22209.85
1136.357, 22188.25
1136.839, 22135.87
1137.321, 22002.77
1137.803, 21873.41
1138.286, 21804.03
1138.768, 21753.91
1139.250, 21655.68
1139.732, 21519.46
1140.214, 21444.77
1140.696, 21441.37
1141.178, 21421.52
1141.660, 21378.40
1142.142, 21333.55
1142.625, 21294.70
1143.107, 21241.91
1143.589, 21157.10
1144.071, 21062.81
1144.553, 20994.65
1145.035, 20949.91
1145.517, 20933.59
1145.999, 20931.63
1146.482, 20902.57
1146.964, 20842.89
1147.446, 20761.88
1147.928, 20664.95
1148.410, 20571.22
1148.892, 20492.69
1149.374, 20426.64
1149.856, 20367.28
1150.339, 20323.53
1150.821, 20327.45
1151.303, 20339.26
1151.785, 20286.76
1152.267, 20182.34
1152.749, 20115.79
1153.231, 20124.67
1153.713, 20108.78
1154.195, 20017.58
1154.677, 19936.64
1155.160, 19889.25
1155.642, 19862.95
1156.124, 19863.37
1156.606, 19868.10
1157.088, 19840.40
1157.570, 19784.49
1158.052, 19753.45
1158.534, 19757.81
1159.017, 19731.81
1159.499, 19661.67
1159.981, 19634.54
1160.463, 19683.78
1160.945, 19714.58
1161.427, 19652.66
1161.909, 19560.84
1162.391, 19549.77
1162.874, 19593.79
1163.356, 19615.69
1163.838, 19616.12
1164.320, 19585.99
1164.802, 19535.31
1165.284, 19500.25
1165.766, 19492.46
1166.248, 19503.21
1166.730, 19536.25
1167.213, 19561.04
1167.695, 19542.62
1168.177, 19514.97
1168.659, 19505.96
1169.141, 19507.84
1169.623, 19505.81
1170.105, 19504.51
1170.587, 19522.45
1171.069, 19565.35
1171.552, 19606.91
1172.034, 19652.11
1172.516, 19681.07
1172.998, 19679.24
1173.480, 19677.03
1173.962, 19681.55
1174.444, 19700.51
1174.926, 19749.90
1175.409, 19814.01
1175.891, 19830.42
1176.373, 19792.94
1176.855, 19801.23
1177.337, 19856.54
1177.819, 19902.52
1178.301, 19928.73
1178.783, 19943.40
##END=



